sender,sender_type,sender_id,timestamp,meta,,Blues,Classical,Country,Dance,Electronic,Folk,Gospel,Hip-Hop,Jazz,Latin,Musical/Film,New-age,Pop,Prolific_id,Provo_ID,R&B,Rap,Reggae,Religious,Rock,Soul,Swing,Traditional,age,artist_name,correct,correctResponse,distraction,duration,education,ended_on,familiarity,gender,headphone_check_performance,item,list,music_frequency,offensiveness,pleasantness,position_correct,preference,response,response_action,snippet_file,song_name,song_rating,sound,stimulus_1,stimulus_2,stimulus_3,text,time_commit,time_end,time_render,time_run,time_show,time_switch,url,word,word_ID
Prolific ID,html.Form,0,2022-04-28T11:38:23.366Z,"{""labjs_version"":""20.2.2"",""labjs_build"":{""flavor"":""production"",""commit"":""a25486e0c714a0ae2ce03ff94b7bb6896854dcfa""},""location"":""https://run.pavlovia.org/mvasilev/prolific3_music_d/"",""userAgent"":""Mozilla/5.0 (Windows NT 10.0; Win64; x64) AppleWebKit/537.36 (KHTML, like Gecko) Chrome/100.0.4896.127 Safari/537.36"",""platform"":""Win32"",""language"":""en-US"",""locale"":""en-US"",""timeZone"":""Europe/London"",""timezoneOffset"":-60,""screen_width"":1366,""screen_height"":768,""scroll_width"":1366,""scroll_height"":609,""window_innerWidth"":1366,""window_innerHeight"":657,""devicePixelRatio"":1}",,,,,,,,,,,,,,,5eeddefa177a7322144cbc5e,,,,,,,,,,,,,,,19745.14599990463,,form submission,,,,,,,,,,,,,,,,,,,,,45848.299999952316,45847.59999990463,25969.118,25977.799999952316,26102.454,46020.331,{},,
Introduction,html.Screen,1_0,2022-04-28T11:38:36.332Z,,,,,,,,,,,,,,,,,,,,,,,,,,,,,,,12792.268999904634,,response,,,,,,,,,,,continue,click button,,,,,,,,,58814.09999990463,58812.59999990463,45803.66,45848.89999985695,46020.331,58833.045,,,
Volume calibration,html.Screen,1_1,2022-04-28T11:39:13.123Z,,,,,,,,,,,,,,,,,,,,,,,,,,,,,,,36763.554999904634,,response,,,,,,,,,,,continue,click button,,,,,,,,,95604.70000004768,95596.59999990463,58799.711,58814.39999985695,58833.045,95654.978,,,
Task instructions,html.Screen,1_2,2022-04-28T11:39:33.870Z,,,,,,,,,,,,,,,,,,,,,,,,,,,,,,,20695.22200004768,,response,,,,,,,,,,,continue,click button,,,,,,,,,116351.70000004768,116350.20000004768,95588.31,95604.89999985695,95654.978,116365.454,,,
Sounds,html.Screen,1_3_0_0,2022-04-28T11:39:38.120Z,,,,,,,,,,,,,,,,,,,,,,,,,,,,,,,4247.755000000005,,timeout,,,,,,,,,3,,,,,,,,O,I,S,,120601.5,120596.542,116348.787,116352,116365.454,120613.209,,,
Judgement,html.Screen,1_3_0_1,2022-04-28T11:39:39.659Z,,,,,,,,,,,,,,,,,,,,,,,,,,,,true,3,,1526.1909998569463,,response,,,,,,,,,3,,3,click #choice-3,,,,,O,I,S,,122141.20000004768,122139.39999985695,120596.542,120601.70000004768,120613.209,122153.516,,,
Trial,flow.Sequence,1_3_0,2022-04-28T11:39:39.660Z,,,,,,,,,,,,,,,,,,,,,,,,,,,,,,,5773.945999856951,,completion,,,,,,,,,3,,,,,,,,O,I,S,,122141.79999995232,122139.39999985695,116348.787,116352,116365.454,122153.516,,,
Sounds,html.Screen,1_3_1_0,2022-04-28T11:39:43.910Z,,,,,,,,,,,,,,,,,,,,,,,,,,,,,,,4252.744999999995,,timeout,,,,,,,,,1,,,,,,,,S,O,I,,126392.20000004768,126389.594,122136.849,122142.09999990463,122153.516,126406.261,,,
Judgement,html.Screen,1_3_1_1,2022-04-28T11:39:45.029Z,,,,,,,,,,,,,,,,,,,,,,,,,,,,true,1,,1103.338999904634,,response,,,,,,,,,1,,1,click #choice-1,,,,,S,O,I,,127511,127509.59999990463,126389.594,126392.39999985695,126406.261,127513.479,,,
Trial,flow.Sequence,1_3_1,2022-04-28T11:39:45.030Z,,,,,,,,,,,,,,,,,,,,,,,,,,,,,,,5356.083999904629,,completion,,,,,,,,,1,,,,,,,,S,O,I,,127511.5,127509.59999990463,122136.849,122142,122153.516,127513.479,,,
Sounds,html.Screen,1_3_2_0,2022-04-28T11:39:49.270Z,,,,,,,,,,,,,,,,,,,,,,,,,,,,,,,4253.199000000008,,timeout,,,,,,,,,3,,,,,,,,I,O,S,,131751.59999990463,131750.011,127496.812,127511.70000004768,127513.479,131766.678,,,
Judgement,html.Screen,1_3_2_1,2022-04-28T11:39:50.371Z,,,,,,,,,,,,,,,,,,,,,,,,,,,,true,3,,1084.1219999523018,,response,,,,,,,,,3,,3,click #choice-3,,,,,I,O,S,,132852.20000004768,132850.79999995232,131750.011,131751.79999995232,131766.678,132856.571,,,
Trial,flow.Sequence,1_3_2,2022-04-28T11:39:50.371Z,,,,,,,,,,,,,,,,,,,,,,,,,,,,,,,5337.32099995231,,completion,,,,,,,,,3,,,,,,,,I,O,S,,132852.59999990463,132850.79999995232,127496.812,127511.70000004768,127513.479,132856.571,,,
Sounds,html.Screen,1_3_3_0,2022-04-28T11:39:54.613Z,,,,,,,,,,,,,,,,,,,,,,,,,,,,,,,4253.75,,timeout,,,,,,,,,1,,,,,,,,S,I,O,,137094.79999995232,137093.654,132839.904,132852.79999995232,132856.571,137110.321,,,
Judgement,html.Screen,1_3_3_1,2022-04-28T11:39:55.644Z,,,,,,,,,,,,,,,,,,,,,,,,,,,,true,1,,1014.5789998569526,,response,,,,,,,,,1,,1,click #choice-1,,,,,S,I,O,,138126.20000004768,138124.89999985695,137093.654,137094.89999985695,137110.321,138133.586,,,
Trial,flow.Sequence,1_3_3,2022-04-28T11:39:55.645Z,,,,,,,,,,,,,,,,,,,,,,,,,,,,,,,5268.328999856953,,completion,,,,,,,,,1,,,,,,,,S,I,O,,138126.39999985695,138124.89999985695,132839.904,132852.70000004768,132856.571,138133.586,,,
Sounds,html.Screen,1_3_4_0,2022-04-28T11:39:59.891Z,,,,,,,,,,,,,,,,,,,,,,,,,,,,,,,4253.3249999999825,,timeout,,,,,,,,,2,,,,,,,,I,S,O,,142372.89999985695,142370.244,138116.919,138126.70000004768,138133.586,142386.911,,,
Judgement,html.Screen,1_3_4_1,2022-04-28T11:40:00.906Z,,,,,,,,,,,,,,,,,,,,,,,,,,,,true,2,,998.5890000000072,,response,,,,,,,,,2,,2,click #choice-2,,,,,I,S,O,,143387.29999995232,143385.5,142370.244,142373.09999990463,142386.911,143393.478,,,
Trial,flow.Sequence,1_3_4,2022-04-28T11:40:00.906Z,,,,,,,,,,,,,,,,,,,,,,,,,,,,,,,5251.91399999999,,completion,,,,,,,,,2,,,,,,,,I,S,O,,143387.59999990463,143385.5,138116.919,138126.59999990463,138133.586,143393.478,,,
Sounds,html.Screen,1_3_5_0,2022-04-28T11:40:05.150Z,,,,,,,,,,,,,,,,,,,,,,,,,,,,,,,4253.399000000005,,timeout,,,,,,,,,2,,,,,,,,O,S,I,,147631.89999985695,147630.21,143376.811,143387.79999995232,143393.478,147646.877,,,
Judgement,html.Screen,1_3_5_1,2022-04-28T11:40:06.061Z,,,,,,,,,,,,,,,,,,,,,,,,,,,,true,2,,894.7229999046249,,response,,,,,,,,,2,,2,click #choice-2,,,,,O,S,I,,148542.89999985695,148541.59999990463,147630.21,147632.09999990463,147646.877,148634.897,,,
Trial,flow.Sequence,1_3_5,2022-04-28T11:40:06.062Z,,,,,,,,,,,,,,,,,,,,,,,,,,,,,,,5148.12199990463,,completion,,,,,,,,,2,,,,,,,,O,S,I,,148543.29999995232,148541.59999990463,143376.811,143387.79999995232,143393.478,148634.897,,,
Task,flow.Loop,1_3,2022-04-28T11:40:06.073Z,,,,,,,,,,,,,,,,,,,,,,,,,,,,,,,32176.145999904635,,completion,,,1,,,,,,,,,,,,,,,,,,148554.20000004768,148541.59999990463,116348.787,116352,116365.454,148634.897,,,
Trap,html.Screen,1_4,2022-04-28T11:40:06.146Z,,,,,,,,,,,,,,,,,,,,,,,,,,,,,,,NaN,,skipped,,,,,,,,,,,,,,,,,,,,,148627.59999990463,148541.59999990463,,148627.39999985695,,148634.897,,,
Thanks,html.Screen,1_5,2022-04-28T11:40:13.167Z,,,,,,,,,,,,,,,,,,,,,,,,,,,,,,,7012.8030000476865,,response,,,,,,,,,,,continue,click button,,,,,,,,,155649.09999990463,155647.70000004768,148534.895,148627.70000004768,148634.897,161142.14,,,
Headphone screening,flow.Sequence,1,2022-04-28T11:40:13.168Z,,,,,,,,,,,,,,,,,,,,,,,,,,,,,,,109627.36900004768,,completion,,,,,,,,,,,,,,,,,,,,,155649.39999985695,155647.70000004768,45803.66,45848.89999985695,46020.331,161142.14,,,
Instructions,html.Page,2_0,2022-04-28T11:41:00.893Z,,,,,,,,,,,,,,,,,,,,,,,,,,,,,,,42232.759999856935,,form submission,,,,,,,,,,,,,,,,,,,,,203375.39999985695,203374.89999985695,161058.805,161137,161142.14,203379.148,,,
Holding screen,html.Screen,2_1_0_0,2022-04-28T11:41:10.876Z,,,,,,,,,,,,,,,,,,,,,,,,,,,,,,,10061.08600000001,,timeout,,,,,,,,,,,,,,,,,,,,,213358.39999985695,213356.899,203329.147,203375.70000004768,203379.148,213440.234,,,
screen,html.Screen,2_1_0_1_0,2022-04-28T11:41:12.593Z,,,,,,,,,,,,,,,,,53,,,,,,,,,,,,,,1630.966000047687,,response,,,,99,,,,,,,Space,keypress(Space),,,,,,,,When -- ----- -- ------ - ------- --- ----------<br>------------- ------ ------ ---- ---- ------- ----- -- ----<br>-------- ------- -- ---------- --- - --- ----- ----- ----<br>---- --- --- ----- --- ---- ---- ------- ----- ---- -------<br>--- --- -- ----- -- --- ---- -- --- ---- -- ------ ------<br>--- ----- -- ----,215075,215071.20000004768,213356.899,213358.70000004768,213440.234,215078.482,,0,When
screen,html.Screen,2_1_0_1_1,2022-04-28T11:41:13.594Z,,,,,,,,,,,,,,,,,53,,,,,,,,,,,,,,996.9179998569598,,response,,,,99,,,,,,,Space,keypress(Space),,,,,,,,---- it ----- -- ------ - ------- --- ----------<br>------------- ------ ------ ---- ---- ------- ----- -- ----<br>-------- ------- -- ---------- --- - --- ----- ----- ----<br>---- --- --- ----- --- ---- ---- ------- ----- ---- -------<br>--- --- -- ----- -- --- ---- -- --- ---- -- ------ ------<br>--- ----- -- ----,216076.5,216075.39999985695,215061.815,215075.20000004768,215078.482,216084.116,,1,it
screen,html.Screen,2_1_0_1_2,2022-04-28T11:41:14.460Z,,,,,,,,,,,,,,,,,53,,,,,,,,,,,,,,857.8839999999909,,response,,,,99,,,,,,,Space,keypress(Space),,,,,,,,---- -- comes -- ------ - ------- --- ----------<br>------------- ------ ------ ---- ---- ------- ----- -- ----<br>-------- ------- -- ---------- --- - --- ----- ----- ----<br>---- --- --- ----- --- ---- ---- ------- ----- ---- -------<br>--- --- -- ----- -- --- ---- -- --- ---- -- ------ ------<br>--- ----- -- ----,216942.79999995232,216942,216067.449,216076.59999990463,216084.116,216958.913,,2,comes
screen,html.Screen,2_1_0_1_3,2022-04-28T11:41:15.360Z,,,,,,,,,,,,,,,,,53,,,,,,,,,,,,,,882.9869998569484,,response,,,,99,,,,,,,Space,keypress(Space),,,,,,,,---- -- ----- to ------ - ------- --- ----------<br>------------- ------ ------ ---- ---- ------- ----- -- ----<br>-------- ------- -- ---------- --- - --- ----- ----- ----<br>---- --- --- ----- --- ---- ---- ------- ----- ---- -------<br>--- --- -- ----- -- --- ---- -- --- ---- -- ------ ------<br>--- ----- -- ----,217842.70000004768,217841.89999985695,216942.246,216942.89999985695,216958.913,217847.317,,3,to
screen,html.Screen,2_1_0_1_4,2022-04-28T11:41:16.283Z,,,,,,,,,,,,,,,,,53,,,,,,,,,,,,,,916.9829999523063,,response,,,,99,,,,,,,Space,keypress(Space),,,,,,,,---- -- ----- -- having - ------- --- ----------<br>------------- ------ ------ ---- ---- ------- ----- -- ----<br>-------- ------- -- ---------- --- - --- ----- ----- ----<br>---- --- --- ----- --- ---- ---- ------- ----- ---- -------<br>--- --- -- ----- -- --- ---- -- --- ---- -- ------ ------<br>--- ----- -- ----,218765.20000004768,218764.29999995232,217830.65,217842.89999985695,217847.317,218768.308,,4,having
screen,html.Screen,2_1_0_1_5,2022-04-28T11:41:17.140Z,,,,,,,,,,,,,,,,,53,,,,,,,,,,,,,,853.69200000001,,response,,,,99,,,,,,,Space,keypress(Space),,,,,,,,---- -- ----- -- ------ a ------- --- ----------<br>------------- ------ ------ ---- ---- ------- ----- -- ----<br>-------- ------- -- ---------- --- - --- ----- ----- ----<br>---- --- --- ----- --- ---- ---- ------- ----- ---- -------<br>--- --- -- ----- -- --- ---- -- --- ---- -- ------ ------<br>--- ----- -- ----,219622.79999995232,219622,218751.641,218765.29999995232,218768.308,219639.529,,5,a
screen,html.Screen,2_1_0_1_6,2022-04-28T11:41:18.422Z,,,,,,,,,,,,,,,,,53,,,,,,,,,,,,,,1263.4709999999905,,response,,,,99,,,,,,,Space,keypress(Space),,,,,,,,---- -- ----- -- ------ - lasting --- ----------<br>------------- ------ ------ ---- ---- ------- ----- -- ----<br>-------- ------- -- ---------- --- - --- ----- ----- ----<br>---- --- --- ----- --- ---- ---- ------- ----- ---- -------<br>--- --- -- ----- -- --- ---- -- --- ---- -- ------ ------<br>--- ----- -- ----,220904,220903,219622.862,219623,219639.529,220910.796,,6,lasting
screen,html.Screen,2_1_0_1_7,2022-04-28T11:41:19.241Z,,,,,,,,,,,,,,,,,53,,,,,,,,,,,,,,811.0039999523142,,response,,,,99,,,,,,,Space,keypress(Space),,,,,,,,---- -- ----- -- ------ - ------- and ----------<br>------------- ------ ------ ---- ---- ------- ----- -- ----<br>-------- ------- -- ---------- --- - --- ----- ----- ----<br>---- --- --- ----- --- ---- ---- ------- ----- ---- -------<br>--- --- -- ----- -- --- ---- -- --- ---- -- ------ ------<br>--- ----- -- ----,221722.89999985695,221721.79999995232,220894.129,220904.29999995232,220910.796,221737.538,,7,and
screen,html.Screen,2_1_0_1_8,2022-04-28T11:41:20.302Z,,,,,,,,,,,,,,,,,53,,,,,,,,,,,,,,1045.561999904632,,response,,,,99,,,,,,,Space,keypress(Space),,,,,,,,---- -- ----- -- ------ - ------- --- fulfilling<br>------------- ------ ------ ---- ---- ------- ----- -- ----<br>-------- ------- -- ---------- --- - --- ----- ----- ----<br>---- --- --- ----- --- ---- ---- ------- ----- ---- -------<br>--- --- -- ----- -- --- ---- -- --- ---- -- ------ ------<br>--- ----- -- ----,222784,222783.09999990463,221720.871,221723.09999990463,221737.538,222788.807,,8,fulfilling
screen,html.Screen,2_1_0_1_9,2022-04-28T11:41:21.471Z,,,,,,,,,,,,,,,,,53,,,,,,,,,,,,,,1163.5929998569482,,response,,,,99,,,,,,,Space,keypress(Space),,,,,,,,"---- -- ----- -- ------ - ------- --- ----------<br>relationship, ------ ------ ---- ---- ------- ----- -- ----<br>-------- ------- -- ---------- --- - --- ----- ----- ----<br>---- --- --- ----- --- ---- ---- ------- ----- ---- -------<br>--- --- -- ----- -- --- ---- -- --- ---- -- ------ ------<br>--- ----- -- ----",223953.20000004768,223952.39999985695,222772.14,222784.09999990463,222788.807,223959.187,,9,"relationship,"
screen,html.Screen,2_1_0_1_10,2022-04-28T11:41:22.632Z,,,,,,,,,,,,,,,,,53,,,,,,,,,,,,,,1154.4129999046272,,response,,,,99,,,,,,,Space,keypress(Space),,,,,,,,---- -- ----- -- ------ - ------- --- ----------<br>------------- common ------ ---- ---- ------- ----- -- ----<br>-------- ------- -- ---------- --- - --- ----- ----- ----<br>---- --- --- ----- --- ---- ---- ------- ----- ---- -------<br>--- --- -- ----- -- --- ---- -- --- ---- -- ------ ------<br>--- ----- -- ----,225114.5,225113.59999990463,223942.52,223953.39999985695,223959.187,225131.166,,10,common
screen,html.Screen,2_1_0_1_11,2022-04-28T11:41:23.660Z,,,,,,,,,,,,,,,,,53,,,,,,,,,,,,,,1010.6339999523188,,response,,,,99,,,,,,,Space,keypress(Space),,,,,,,,---- -- ----- -- ------ - ------- --- ----------<br>------------- ------ wisdom ---- ---- ------- ----- -- ----<br>-------- ------- -- ---------- --- - --- ----- ----- ----<br>---- --- --- ----- --- ---- ---- ------- ----- ---- -------<br>--- --- -- ----- -- --- ---- -- --- ---- -- ------ ------<br>--- ----- -- ----,226142.59999990463,226141.79999995232,225114.499,225114.59999990463,225131.166,226153.765,,11,wisdom
screen,html.Screen,2_1_0_1_12,2022-04-28T11:41:24.620Z,,,,,,,,,,,,,,,,,53,,,,,,,,,,,,,,948.234999999986,,response,,,,99,,,,,,,Space,keypress(Space),,,,,,,,---- -- ----- -- ------ - ------- --- ----------<br>------------- ------ ------ says ---- ------- ----- -- ----<br>-------- ------- -- ---------- --- - --- ----- ----- ----<br>---- --- --- ----- --- ---- ---- ------- ----- ---- -------<br>--- --- -- ----- -- --- ---- -- --- ---- -- ------ ------<br>--- ----- -- ----,227102.70000004768,227102,226137.098,226142.70000004768,226153.765,227109.523,,12,says
screen,html.Screen,2_1_0_1_13,2022-04-28T11:41:25.625Z,,,,,,,,,,,,,,,,,53,,,,,,,,,,,,,,996.7769999523298,,response,,,,99,,,,,,,Space,keypress(Space),,,,,,,,---- -- ----- -- ------ - ------- --- ----------<br>------------- ------ ------ ---- that ------- ----- -- ----<br>-------- ------- -- ---------- --- - --- ----- ----- ----<br>---- --- --- ----- --- ---- ---- ------- ----- ---- -------<br>--- --- -- ----- -- --- ---- -- --- ---- -- ------ ------<br>--- ----- -- ----,228107.70000004768,228106.29999995232,227092.856,227102.79999995232,227109.523,228114.796,,13,that
screen,html.Screen,2_1_0_1_14,2022-04-28T11:41:26.712Z,,,,,,,,,,,,,,,,,53,,,,,,,,,,,,,,1079.0039999523142,,response,,,,99,,,,,,,Space,keypress(Space),,,,,,,,---- -- ----- -- ------ - ------- --- ----------<br>------------- ------ ------ ---- ---- feeling ----- -- ----<br>-------- ------- -- ---------- --- - --- ----- ----- ----<br>---- --- --- ----- --- ---- ---- ------- ----- ---- -------<br>--- --- -- ----- -- --- ---- -- --- ---- -- ------ ------<br>--- ----- -- ----,229194.59999990463,229193.79999995232,228098.129,228107.79999995232,228114.796,229202.981,,14,feeling
screen,html.Screen,2_1_0_1_15,2022-04-28T11:41:27.854Z,,,,,,,,,,,,,,,,,53,,,,,,,,,,,,,,1132.918999856949,,response,,,,99,,,,,,,Space,keypress(Space),,,,,,,,---- -- ----- -- ------ - ------- --- ----------<br>------------- ------ ------ ---- ---- ------- close -- ----<br>-------- ------- -- ---------- --- - --- ----- ----- ----<br>---- --- --- ----- --- ---- ---- ------- ----- ---- -------<br>--- --- -- ----- -- --- ---- -- --- ---- -- ------ ------<br>--- ----- -- ----,230336.70000004768,230335.89999985695,229186.314,229194.79999995232,229202.981,230341.338,,15,close
screen,html.Screen,2_1_0_1_16,2022-04-28T11:41:28.476Z,,,,,,,,,,,,,,,,,53,,,,,,,,,,,,,,615.9619999523275,,response,,,,99,,,,,,,Space,keypress(Space),,,,,,,,---- -- ----- -- ------ - ------- --- ----------<br>------------- ------ ------ ---- ---- ------- ----- to ----<br>-------- ------- -- ---------- --- - --- ----- ----- ----<br>---- --- --- ----- --- ---- ---- ------- ----- ---- -------<br>--- --- -- ----- -- --- ---- -- --- ---- -- ------ ------<br>--- ----- -- ----,230958,230957.29999995232,230324.671,230336.79999995232,230341.338,230963.529,,16,to
screen,html.Screen,2_1_0_1_17,2022-04-28T11:41:29.346Z,,,,,,,,,,,,,,,,,53,,,,,,,,,,,,,,864.3709998569393,,response,,,,99,,,,,,,Space,keypress(Space),,,,,,,,---- -- ----- -- ------ - ------- --- ----------<br>------------- ------ ------ ---- ---- ------- ----- -- your<br>-------- ------- -- ---------- --- - --- ----- ----- ----<br>---- --- --- ----- --- ---- ---- ------- ----- ---- -------<br>--- --- -- ----- -- --- ---- -- --- ---- -- ------ ------<br>--- ----- -- ----,231828.70000004768,231827.89999985695,230946.862,230958.09999990463,230963.529,231835.957,,17,your
screen,html.Screen,2_1_0_1_18,2022-04-28T11:41:30.225Z,,,,,,,,,,,,,,,,,53,,,,,,,,,,,,,,870.5430000000051,,response,,,,99,,,,,,,Space,keypress(Space),,,,,,,,---- -- ----- -- ------ - ------- --- ----------<br>------------- ------ ------ ---- ---- ------- ----- -- ----<br>romantic ------- -- ---------- --- - --- ----- ----- ----<br>---- --- --- ----- --- ---- ---- ------- ----- ---- -------<br>--- --- -- ----- -- --- ---- -- --- ---- -- ------ ------<br>--- ----- -- ----,232707.20000004768,232706.5,231819.29,231828.89999985695,231835.957,232722.369,,18,romantic
screen,html.Screen,2_1_0_1_19,2022-04-28T11:41:31.155Z,,,,,,,,,,,,,,,,,53,,,,,,,,,,,,,,914.3310000476777,,response,,,,99,,,,,,,Space,keypress(Space),,,,,,,,---- -- ----- -- ------ - ------- --- ----------<br>------------- ------ ------ ---- ---- ------- ----- -- ----<br>-------- partner -- ---------- --- - --- ----- ----- ----<br>---- --- --- ----- --- ---- ---- ------- ----- ---- -------<br>--- --- -- ----- -- --- ---- -- --- ---- -- ------ ------<br>--- ----- -- ----,233637.5,233636.70000004768,232705.702,232707.39999985695,232722.369,233643.501,,19,partner
screen,html.Screen,2_1_0_1_20,2022-04-28T11:41:31.966Z,,,,,,,,,,,,,,,,,53,,,,,,,,,,,,,,803.6990000476944,,response,,,,99,,,,,,,Space,keypress(Space),,,,,,,,---- -- ----- -- ------ - ------- --- ----------<br>------------- ------ ------ ---- ---- ------- ----- -- ----<br>-------- ------- is ---------- --- - --- ----- ----- ----<br>---- --- --- ----- --- ---- ---- ------- ----- ---- -------<br>--- --- -- ----- -- --- ---- -- --- ---- -- ------ ------<br>--- ----- -- ----,234448,234447.20000004768,233626.834,233637.70000004768,233643.501,234464.535,,20,is
screen,html.Screen,2_1_0_1_21,2022-04-28T11:41:34.449Z,,,,,,,,,,,,,,,,,53,,,,,,,,,,,,,,2465.764999952313,,response,,,,99,,,,,,,Space,keypress(Space),,,,,,,,---- -- ----- -- ------ - ------- --- ----------<br>------------- ------ ------ ---- ---- ------- ----- -- ----<br>-------- ------- -- paramount. --- - --- ----- ----- ----<br>---- --- --- ----- --- ---- ---- ------- ----- ---- -------<br>--- --- -- ----- -- --- ---- -- --- ---- -- ------ ------<br>--- ----- -- ----,236931.20000004768,236930.29999995232,234447.868,234448.20000004768,234464.535,236985.993,,21,paramount.
screen,html.Screen,2_1_0_1_22,2022-04-28T11:41:35.255Z,,,,,,,,,,,,,,,,,53,,,,,,,,,,,,,,750.0070000000123,,response,,,,99,,,,,,,Space,keypress(Space),,,,,,,,---- -- ----- -- ------ - ------- --- ----------<br>------------- ------ ------ ---- ---- ------- ----- -- ----<br>-------- ------- -- ---------- But - --- ----- ----- ----<br>---- --- --- ----- --- ---- ---- ------- ----- ---- -------<br>--- --- -- ----- -- --- ---- -- --- ---- -- ------ ------<br>--- ----- -- ----,237737,237736,236919.325,236931.29999995232,236985.993,237748.389,,22,But
screen,html.Screen,2_1_0_1_23,2022-04-28T11:41:35.832Z,,,,,,,,,,,,,,,,,53,,,,,,,,,,,,,,564.8110000476881,,response,,,,99,,,,,,,Space,keypress(Space),,,,,,,,---- -- ----- -- ------ - ------- --- ----------<br>------------- ------ ------ ---- ---- ------- ----- -- ----<br>-------- ------- -- ---------- --- a --- ----- ----- ----<br>---- --- --- ----- --- ---- ---- ------- ----- ---- -------<br>--- --- -- ----- -- --- ---- -- --- ---- -- ------ ------<br>--- ----- -- ----,238314.29999995232,238313.20000004768,237731.722,237737.20000004768,237748.389,238319.541,,23,a
screen,html.Screen,2_1_0_1_24,2022-04-28T11:41:36.542Z,,,,,,,,,,,,,,,,,53,,,,,,,,,,,,,,704.0589999046351,,response,,,,99,,,,,,,Space,keypress(Space),,,,,,,,---- -- ----- -- ------ - ------- --- ----------<br>------------- ------ ------ ---- ---- ------- ----- -- ----<br>-------- ------- -- ---------- --- - new ----- ----- ----<br>---- --- --- ----- --- ---- ---- ------- ----- ---- -------<br>--- --- -- ----- -- --- ---- -- --- ---- -- ------ ------<br>--- ----- -- ----,239024.29999995232,239023.59999990463,238302.874,238314.39999985695,238319.541,239039.936,,24,new
screen,html.Screen,2_1_0_1_25,2022-04-28T11:41:37.334Z,,,,,,,,,,,,,,,,,53,,,,,,,,,,,,,,775.7640000476968,,response,,,,99,,,,,,,Space,keypress(Space),,,,,,,,---- -- ----- -- ------ - ------- --- ----------<br>------------- ------ ------ ---- ---- ------- ----- -- ----<br>-------- ------- -- ---------- --- - --- study ----- ----<br>---- --- --- ----- --- ---- ---- ------- ----- ---- -------<br>--- --- -- ----- -- --- ---- -- --- ---- -- ------ ------<br>--- ----- -- ----,239816.5,239815.70000004768,239023.269,239024.5,239039.936,239826.207,,25,study
screen,html.Screen,2_1_0_1_26,2022-04-28T11:41:38.188Z,,,,,,,,,,,,,,,,,53,,,,,,,,,,,,,,843.2930000000051,,response,,,,99,,,,,,,Space,keypress(Space),,,,,,,,---- -- ----- -- ------ - ------- --- ----------<br>------------- ------ ------ ---- ---- ------- ----- -- ----<br>-------- ------- -- ---------- --- - --- ----- finds ----<br>---- --- --- ----- --- ---- ---- ------- ----- ---- -------<br>--- --- -- ----- -- --- ---- -- --- ---- -- ------ ------<br>--- ----- -- ----,240670.20000004768,240669.5,239809.54,239816.59999990463,239826.207,240683.728,,26,finds
screen,html.Screen,2_1_0_1_27,2022-04-28T11:41:39.112Z,,,,,,,,,,,,,,,,,53,,,,,,,,,,,,,,909.8719999046298,,response,,,,99,,,,,,,Space,keypress(Space),,,,,,,,---- -- ----- -- ------ - ------- --- ----------<br>------------- ------ ------ ---- ---- ------- ----- -- ----<br>-------- ------- -- ---------- --- - --- ----- ----- that<br>---- --- --- ----- --- ---- ---- ------- ----- ---- -------<br>--- --- -- ----- -- --- ---- -- --- ---- -- ------ ------<br>--- ----- -- ----,241594.29999995232,241593.59999990463,240667.061,240670.39999985695,240683.728,241600.428,,27,that
screen,html.Screen,2_1_0_1_28,2022-04-28T11:41:40.043Z,,,,,,,,,,,,,,,,,53,,,,,,,,,,,,,,924.2720000476693,,response,,,,99,,,,,,,Space,keypress(Space),,,,,,,,---- -- ----- -- ------ - ------- --- ----------<br>------------- ------ ------ ---- ---- ------- ----- -- ----<br>-------- ------- -- ---------- --- - --- ----- ----- ----<br>it's --- --- ----- --- ---- ---- ------- ----- ---- -------<br>--- --- -- ----- -- --- ---- -- --- ---- -- ------ ------<br>--- ----- -- ----,242525.5,242524.70000004768,241583.761,241594.5,241600.428,242538.011,,28,it's
screen,html.Screen,2_1_0_1_29,2022-04-28T11:41:55.599Z,,,,,,,,,,,,,,,,,53,,,,,,,,,,,,,,15542.788999952318,,response,,,,99,,,,,,,Space,keypress(Space),,,,,,,,---- -- ----- -- ------ - ------- --- ----------<br>------------- ------ ------ ---- ---- ------- ----- -- ----<br>-------- ------- -- ---------- --- - --- ----- ----- ----<br>---- not --- ----- --- ---- ---- ------- ----- ---- -------<br>--- --- -- ----- -- --- ---- -- --- ---- -- ------ ------<br>--- ----- -- ----,258081.70000004768,258080.79999995232,242521.344,242525.70000004768,242538.011,258093.024,,29,not
screen,html.Screen,2_1_0_1_30,2022-04-28T11:41:56.382Z,,,,,,,,,,,,,,,,,53,,,,,,,,,,,,,,770.375999856944,,response,,,,99,,,,,,,Space,keypress(Space),,,,,,,,---- -- ----- -- ------ - ------- --- ----------<br>------------- ------ ------ ---- ---- ------- ----- -- ----<br>-------- ------- -- ---------- --- - --- ----- ----- ----<br>---- --- how ----- --- ---- ---- ------- ----- ---- -------<br>--- --- -- ----- -- --- ---- -- --- ---- -- ------ ------<br>--- ----- -- ----,258864.20000004768,258863.39999985695,258076.357,258081.89999985695,258093.024,258881.087,,30,how
screen,html.Screen,2_1_0_1_31,2022-04-28T11:41:57.003Z,,,,,,,,,,,,,,,,,53,,,,,,,,,,,,,,603.3129998569493,,response,,,,99,,,,,,,Space,keypress(Space),,,,,,,,---- -- ----- -- ------ - ------- --- ----------<br>------------- ------ ------ ---- ---- ------- ----- -- ----<br>-------- ------- -- ---------- --- - --- ----- ----- ----<br>---- --- --- close --- ---- ---- ------- ----- ---- -------<br>--- --- -- ----- -- --- ---- -- --- ---- -- ------ ------<br>--- ----- -- ----,259485.20000004768,259484.39999985695,258864.42,258864.39999985695,258881.087,259492.771,,31,close
screen,html.Screen,2_1_0_1_32,2022-04-28T11:41:57.618Z,,,,,,,,,,,,,,,,,53,,,,,,,,,,,,,,606.8289999046247,,response,,,,99,,,,,,,Space,keypress(Space),,,,,,,,---- -- ----- -- ------ - ------- --- ----------<br>------------- ------ ------ ---- ---- ------- ----- -- ----<br>-------- ------- -- ---------- --- - --- ----- ----- ----<br>---- --- --- ----- you ---- ---- ------- ----- ---- -------<br>--- --- -- ----- -- --- ---- -- --- ---- -- ------ ------<br>--- ----- -- ----,260100.39999985695,260099.59999990463,259476.104,259485.39999985695,259492.771,260113.333,,32,you
screen,html.Screen,2_1_0_1_33,2022-04-28T11:41:58.393Z,,,,,,,,,,,,,,,,,53,,,,,,,,,,,,,,761.466999952303,,response,,,,99,,,,,,,Space,keypress(Space),,,,,,,,---- -- ----- -- ------ - ------- --- ----------<br>------------- ------ ------ ---- ---- ------- ----- -- ----<br>-------- ------- -- ---------- --- - --- ----- ----- ----<br>---- --- --- ----- --- feel ---- ------- ----- ---- -------<br>--- --- -- ----- -- --- ---- -- --- ---- -- ------ ------<br>--- ----- -- ----,260875.59999990463,260874.79999995232,260096.666,260100.70000004768,260113.333,260883.125,,33,feel
screen,html.Screen,2_1_0_1_34,2022-04-28T11:41:59.366Z,,,,,,,,,,,,,,,,,53,,,,,,,,,,,,,,964.875,,response,,,,99,,,,,,,Space,keypress(Space),,,,,,,,---- -- ----- -- ------ - ------- --- ----------<br>------------- ------ ------ ---- ---- ------- ----- -- ----<br>-------- ------- -- ---------- --- - --- ----- ----- ----<br>---- --- --- ----- --- ---- that ------- ----- ---- -------<br>--- --- -- ----- -- --- ---- -- --- ---- -- ------ ------<br>--- ----- -- ----,261848.79999995232,261848,260866.458,260875.70000004768,260883.125,261852.864,,34,that
screen,html.Screen,2_1_0_1_35,2022-04-28T11:42:00.140Z,,,,,,,,,,,,,,,,,53,,,,,,,,,,,,,,768.4359999523149,,response,,,,99,,,,,,,Space,keypress(Space),,,,,,,,---- -- ----- -- ------ - ------- --- ----------<br>------------- ------ ------ ---- ---- ------- ----- -- ----<br>-------- ------- -- ---------- --- - --- ----- ----- ----<br>---- --- --- ----- --- ---- ---- matters ----- ---- -------<br>--- --- -- ----- -- --- ---- -- --- ---- -- ------ ------<br>--- ----- -- ----,262622.09999990463,262621.2999999523,261836.197,261849.09999990463,261852.864,262623.498,,35,matters
screen,html.Screen,2_1_0_1_36,2022-04-28T11:42:01.106Z,,,,,,,,,,,,,,,,,53,,,,,,,,,,,,,,963.5019999999786,,response,,,,99,,,,,,,Space,keypress(Space),,,,,,,,"---- -- ----- -- ------ - ------- --- ----------<br>------------- ------ ------ ---- ---- ------- ----- -- ----<br>-------- ------- -- ---------- --- - --- ----- ----- ----<br>---- --- --- ----- --- ---- ---- ------- most, ---- -------<br>--- --- -- ----- -- --- ---- -- --- ---- -- ------ ------<br>--- ----- -- ----",263587.7000000477,263587,262606.831,262622.2999999523,262623.498,263598.802,,36,"most,"
screen,html.Screen,2_1_0_1_37,2022-04-28T11:42:01.963Z,,,,,,,,,,,,,,,,,53,,,,,,,,,,,,,,845.6979999999749,,response,,,,99,,,,,,,Space,keypress(Space),,,,,,,,---- -- ----- -- ------ - ------- --- ----------<br>------------- ------ ------ ---- ---- ------- ----- -- ----<br>-------- ------- -- ---------- --- - --- ----- ----- ----<br>---- --- --- ----- --- ---- ---- ------- ----- it's -------<br>--- --- -- ----- -- --- ---- -- --- ---- -- ------ ------<br>--- ----- -- ----,264445.2999999523,264444.5,263582.135,263587.89999985695,263598.802,264448.961,,37,it's
screen,html.Screen,2_1_0_1_38,2022-04-28T11:42:02.820Z,,,,,,,,,,,,,,,,,53,,,,,,,,,,,,,,852.838999952306,,response,,,,99,,,,,,,Space,keypress(Space),,,,,,,,---- -- ----- -- ------ - ------- --- ----------<br>------------- ------ ------ ---- ---- ------- ----- -- ----<br>-------- ------- -- ---------- --- - --- ----- ----- ----<br>---- --- --- ----- --- ---- ---- ------- ----- ---- whether<br>--- --- -- ----- -- --- ---- -- --- ---- -- ------ ------<br>--- ----- -- ----,265302.5,265301.7999999523,264432.294,264445.5,264448.961,265303.861,,38,whether
screen,html.Screen,2_1_0_1_39,2022-04-28T11:42:03.839Z,,,,,,,,,,,,,,,,,53,,,,,,,,,,,,,,1016.7389999046572,,response,,,,99,,,,,,,Space,keypress(Space),,,,,,,,---- -- ----- -- ------ - ------- --- ----------<br>------------- ------ ------ ---- ---- ------- ----- -- ----<br>-------- ------- -- ---------- --- - --- ----- ----- ----<br>---- --- --- ----- --- ---- ---- ------- ----- ---- -------<br>you --- -- ----- -- --- ---- -- --- ---- -- ------ ------<br>--- ----- -- ----,266321.5,266320.59999990463,265287.194,265302.7000000477,265303.861,266324.903,,39,you
screen,html.Screen,2_1_0_1_40,2022-04-28T11:42:04.415Z,,,,,,,,,,,,,,,,,53,,,,,,,,,,,,,,572.0970000000088,,response,,,,99,,,,,,,Space,keypress(Space),,,,,,,,---- -- ----- -- ------ - ------- --- ----------<br>------------- ------ ------ ---- ---- ------- ----- -- ----<br>-------- ------- -- ---------- --- - --- ----- ----- ----<br>---- --- --- ----- --- ---- ---- ------- ----- ---- -------<br>--- are -- ----- -- --- ---- -- --- ---- -- ------ ------<br>--- ----- -- ----,266897.7000000477,266897,266308.236,266321.59999990463,266324.903,266912.453,,40,are
screen,html.Screen,2_1_0_1_41,2022-04-28T11:42:05.197Z,,,,,,,,,,,,,,,,,53,,,,,,,,,,,,,,766.2470000477042,,response,,,,99,,,,,,,Space,keypress(Space),,,,,,,,---- -- ----- -- ------ - ------- --- ----------<br>------------- ------ ------ ---- ---- ------- ----- -- ----<br>-------- ------- -- ---------- --- - --- ----- ----- ----<br>---- --- --- ----- --- ---- ---- ------- ----- ---- -------<br>--- --- as ----- -- --- ---- -- --- ---- -- ------ ------<br>--- ----- -- ----,267679.5,267678.7000000477,266895.786,266897.7999999523,266912.453,267684.251,,41,as
screen,html.Screen,2_1_0_1_42,2022-04-28T11:42:06.171Z,,,,,,,,,,,,,,,,,53,,,,,,,,,,,,,,968.6489998569596,,response,,,,99,,,,,,,Space,keypress(Space),,,,,,,,---- -- ----- -- ------ - ------- --- ----------<br>------------- ------ ------ ---- ---- ------- ----- -- ----<br>-------- ------- -- ---------- --- - --- ----- ----- ----<br>---- --- --- ----- --- ---- ---- ------- ----- ---- -------<br>--- --- -- close -- --- ---- -- --- ---- -- ------ ------<br>--- ----- -- ----,268653.59999990463,268652.89999985695,267667.584,267679.7000000477,267684.251,268670.534,,42,close
screen,html.Screen,2_1_0_1_43,2022-04-28T11:42:07.024Z,,,,,,,,,,,,,,,,,53,,,,,,,,,,,,,,834.5659999046475,,response,,,,99,,,,,,,Space,keypress(Space),,,,,,,,---- -- ----- -- ------ - ------- --- ----------<br>------------- ------ ------ ---- ---- ------- ----- -- ----<br>-------- ------- -- ---------- --- - --- ----- ----- ----<br>---- --- --- ----- --- ---- ---- ------- ----- ---- -------<br>--- --- -- ----- as --- ---- -- --- ---- -- ------ ------<br>--- ----- -- ----,269506,269505.09999990463,268653.867,268653.89999985695,268670.534,269507.83,,43,as
screen,html.Screen,2_1_0_1_44,2022-04-28T11:42:07.761Z,,,,,,,,,,,,,,,,,53,,,,,,,,,,,,,,734.2699999046163,,response,,,,99,,,,,,,Space,keypress(Space),,,,,,,,---- -- ----- -- ------ - ------- --- ----------<br>------------- ------ ------ ---- ---- ------- ----- -- ----<br>-------- ------- -- ---------- --- - --- ----- ----- ----<br>---- --- --- ----- --- ---- ---- ------- ----- ---- -------<br>--- --- -- ----- -- you ---- -- --- ---- -- ------ ------<br>--- ----- -- ----,270242.7999999523,270242.09999990463,269491.163,269506.09999990463,269507.83,270248.213,,44,you
screen,html.Screen,2_1_0_1_45,2022-04-28T11:42:08.604Z,,,,,,,,,,,,,,,,,53,,,,,,,,,,,,,,837.3869999046437,,response,,,,99,,,,,,,Space,keypress(Space),,,,,,,,---- -- ----- -- ------ - ------- --- ----------<br>------------- ------ ------ ---- ---- ------- ----- -- ----<br>-------- ------- -- ---------- --- - --- ----- ----- ----<br>---- --- --- ----- --- ---- ---- ------- ----- ---- -------<br>--- --- -- ----- -- --- want -- --- ---- -- ------ ------<br>--- ----- -- ----,271086.2999999523,271085.59999990463,270231.546,270243,270248.213,271100.376,,45,want
screen,html.Screen,2_1_0_1_46,2022-04-28T11:42:09.520Z,,,,,,,,,,,,,,,,,53,,,,,,,,,,,,,,901.1240000000107,,response,,,,99,,,,,,,Space,keypress(Space),,,,,,,,---- -- ----- -- ------ - ------- --- ----------<br>------------- ------ ------ ---- ---- ------- ----- -- ----<br>-------- ------- -- ---------- --- - --- ----- ----- ----<br>---- --- --- ----- --- ---- ---- ------- ----- ---- -------<br>--- --- -- ----- -- --- ---- to --- ---- -- ------ ------<br>--- ----- -- ----,272002.2999999523,272001.5,271083.709,271086.5,271100.376,272004.116,,46,to
screen,html.Screen,2_1_0_1_47,2022-04-28T11:42:10.446Z,,,,,,,,,,,,,,,,,53,,,,,,,,,,,,,,922.9839999046526,,response,,,,99,,,,,,,Space,keypress(Space),,,,,,,,"---- -- ----- -- ------ - ------- --- ----------<br>------------- ------ ------ ---- ---- ------- ----- -- ----<br>-------- ------- -- ---------- --- - --- ----- ----- ----<br>---- --- --- ----- --- ---- ---- ------- ----- ---- -------<br>--- --- -- ----- -- --- ---- -- be, ---- -- ------ ------<br>--- ----- -- ----",272928,272927.09999990463,271987.449,272002.5,272004.116,272941.658,,47,"be,"
screen,html.Screen,2_1_0_1_48,2022-04-28T11:42:11.294Z,,,,,,,,,,,,,,,,,53,,,,,,,,,,,,,,833.8420000000042,,response,,,,99,,,,,,,Space,keypress(Space),,,,,,,,---- -- ----- -- ------ - ------- --- ----------<br>------------- ------ ------ ---- ---- ------- ----- -- ----<br>-------- ------- -- ---------- --- - --- ----- ----- ----<br>---- --- --- ----- --- ---- ---- ------- ----- ---- -------<br>--- --- -- ----- -- --- ---- -- --- even -- ------ ------<br>--- ----- -- ----,273776.2000000477,273775.5,272924.991,272928.09999990463,272941.658,273779.653,,48,even
screen,html.Screen,2_1_0_1_49,2022-04-28T11:42:12.129Z,,,,,,,,,,,,,,,,,53,,,,,,,,,,,,,,831.0470000476926,,response,,,,99,,,,,,,Space,keypress(Space),,,,,,,,---- -- ----- -- ------ - ------- --- ----------<br>------------- ------ ------ ---- ---- ------- ----- -- ----<br>-------- ------- -- ---------- --- - --- ----- ----- ----<br>---- --- --- ----- --- ---- ---- ------- ----- ---- -------<br>--- --- -- ----- -- --- ---- -- --- ---- if ------ ------<br>--- ----- -- ----,274611.59999990463,274610.7000000477,273762.986,273776.39999985695,273779.653,274617.633,,49,if
screen,html.Screen,2_1_0_1_50,2022-04-28T11:42:13.007Z,,,,,,,,,,,,,,,,,53,,,,,,,,,,,,,,870.7669998569763,,response,,,,99,,,,,,,Space,keypress(Space),,,,,,,,---- -- ----- -- ------ - ------- --- ----------<br>------------- ------ ------ ---- ---- ------- ----- -- ----<br>-------- ------- -- ---------- --- - --- ----- ----- ----<br>---- --- --- ----- --- ---- ---- ------- ----- ---- -------<br>--- --- -- ----- -- --- ---- -- --- ---- -- that's ------<br>--- ----- -- ----,275489.2000000477,275488.39999985695,274600.966,274611.7999999523,274617.633,275505.288,,50,that's
screen,html.Screen,2_1_0_1_51,2022-04-28T11:42:13.960Z,,,,,,,,,,,,,,,,,53,,,,,,,,,,,,,,935.9120000476833,,response,,,,99,,,,,,,Space,keypress(Space),,,,,,,,---- -- ----- -- ------ - ------- --- ----------<br>------------- ------ ------ ---- ---- ------- ----- -- ----<br>-------- ------- -- ---------- --- - --- ----- ----- ----<br>---- --- --- ----- --- ---- ---- ------- ----- ---- -------<br>--- --- -- ----- -- --- ---- -- --- ---- -- ------ really<br>--- ----- -- ----,276442.09999990463,276441.2000000477,275488.621,275489.39999985695,275505.288,276459.518,,51,really
screen,html.Screen,2_1_0_1_52,2022-04-28T11:42:14.947Z,,,,,,,,,,,,,,,,,53,,,,,,,,,,,,,,969.381999856967,,response,,,,99,,,,,,,Space,keypress(Space),,,,,,,,---- -- ----- -- ------ - ------- --- ----------<br>------------- ------ ------ ---- ---- ------- ----- -- ----<br>-------- ------- -- ---------- --- - --- ----- ----- ----<br>---- --- --- ----- --- ---- ---- ------- ----- ---- -------<br>--- --- -- ----- -- --- ---- -- --- ---- -- ------ ------<br>not ----- -- ----,277429.59999990463,277428.89999985695,276442.851,276442.2000000477,276459.518,277430.608,,52,not
screen,html.Screen,2_1_0_1_53,2022-04-28T11:42:15.980Z,,,,,,,,,,,,,,,,,53,,,,,,,,,,,,,,1030.5920000476763,,response,,,,99,,,,,,,Space,keypress(Space),,,,,,,,---- -- ----- -- ------ - ------- --- ----------<br>------------- ------ ------ ---- ---- ------- ----- -- ----<br>-------- ------- -- ---------- --- - --- ----- ----- ----<br>---- --- --- ----- --- ---- ---- ------- ----- ---- -------<br>--- --- -- ----- -- --- ---- -- --- ---- -- ------ ------<br>--- close -- ----,278462,278461.2000000477,277413.941,277429.7000000477,277430.608,278468.741,,53,close
screen,html.Screen,2_1_0_1_54,2022-04-28T11:42:17.179Z,,,,,,,,,,,,,,,,,53,,,,,,,,,,,,,,1191.75900000002,,response,,,,99,,,,,,,Space,keypress(Space),,,,,,,,---- -- ----- -- ------ - ------- --- ----------<br>------------- ------ ------ ---- ---- ------- ----- -- ----<br>-------- ------- -- ---------- --- - --- ----- ----- ----<br>---- --- --- ----- --- ---- ---- ------- ----- ---- -------<br>--- --- -- ----- -- --- ---- -- --- ---- -- ------ ------<br>--- ----- at ----,279661.2000000477,279660.5,278452.074,278462.09999990463,278468.741,279673.734,,54,at
screen,html.Screen,2_1_0_1_55,2022-04-28T11:42:27.210Z,,,,,,,,,,,,,,,,,53,,,,,,,,,,,,,,10018.06599995232,,response,,,,99,,,,,,,Space,keypress(Space),,,,,,,,---- -- ----- -- ------ - ------- --- ----------<br>------------- ------ ------ ---- ---- ------- ----- -- ----<br>-------- ------- -- ---------- --- - --- ----- ----- ----<br>---- --- --- ----- --- ---- ---- ------- ----- ---- -------<br>--- --- -- ----- -- --- ---- -- --- ---- -- ------ ------<br>--- ----- -- all.,289692.59999990463,289691.7999999523,279657.067,279661.2999999523,279673.734,289701.738,,55,all.
Item 99,flow.Loop,2_1_0_1,2022-04-28T11:42:27.211Z,,,,,,,,,,,,,,,,,,,,,,,,,,,,,,,76251.56599995232,,completion,,,,,D,,,,,,,,,,,silence,,,,,289693,289691.7999999523,213356.899,213358.59999990463,213440.234,289701.738,,,
Question 1,html.Screen,2_1_0_2,2022-04-28T11:42:34.097Z,,,,,,,,,,,,,,,,,,,,,,,,,,,,false,FALSE,,6876.3619999046205,,response,,,,99,D,,,,,,TRUE,click #choice-1,,,,silence,,,,,296579.39999985695,296578.09999990463,289685.071,289693.2000000477,289701.738,296583.547,,,
Question 2,html.Screen,2_1_0_3,2022-04-28T11:42:45.640Z,,,,,,,,,,,,,,,,,,,,,,,,,,,,true,TRUE,,11537.45299999998,,response,,,,99,D,,,,,,TRUE,click #choice-1,,,,silence,,,,,308122.39999985695,308121,296566.88,296579.59999990463,296583.547,308125.779,,,
Item 99,flow.Sequence,2_1_0,2022-04-28T11:42:45.640Z,,,,,,,,,,,,,,,,,,,,,,,,,,,,,,,104741.85200000001,,completion,,,,,,,,,,,,,,,,,,,,,308122.7000000477,308121,203329.147,203375.59999990463,203379.148,308125.779,,,
Holding screen,html.Screen,2_1_1_0,2022-04-28T11:42:55.622Z,,,,,,,,,,,,,,,,,,,,,,,,,,,,,,,9993.338000000047,,timeout,,,,,,,,,,,,,,,,,,,,,318103.7999999523,318102.45,308109.112,308122.7999999523,308125.779,318119.117,,,
screen,html.Screen,2_1_1_1_0,2022-04-28T11:43:00.019Z,,,,,,,,,,,,,,,,,54,,,,,,,,,,,,,,4380.982999904605,,response,,,,100,,,,,,,Space,keypress(Space),,,,,,,,At --- ---- --- ------ ----- ------- ---- -- --- ------- --<br>------- ---------- ------ -- ----- -- ----- -- ---- ------<br>--- ----- --- --- ------ -------- ----- --- ------ ----- --<br>----- ----- ---------- --- --- ------ ------ ---- -- ------<br>------- --- ------ ----- --- ---- ------- -- ---- --- --<br>------- ------,322501.2999999523,322500.09999990463,318102.45,318104.09999990463,318119.117,322510.371,,0,At
screen,html.Screen,2_1_1_1_1,2022-04-28T11:43:00.728Z,,,,,,,,,,,,,,,,,54,,,,,,,,,,,,,,699.1290000000154,,response,,,,100,,,,,,,Space,keypress(Space),,,,,,,,-- the ---- --- ------ ----- ------- ---- -- --- ------- --<br>------- ---------- ------ -- ----- -- ----- -- ---- ------<br>--- ----- --- --- ------ -------- ----- --- ------ ----- --<br>----- ----- ---------- --- --- ------ ------ ---- -- ------<br>------- --- ------ ----- --- ---- ------- -- ---- --- --<br>------- ------,323210.2999999523,323209.5,322493.704,322501.5,322510.371,323217.885,,1,the
screen,html.Screen,2_1_1_1_2,2022-04-28T11:43:02.229Z,,,,,,,,,,,,,,,,,54,,,,,,,,,,,,,,1491.8150000476744,,response,,,,100,,,,,,,Space,keypress(Space),,,,,,,,-- --- time --- ------ ----- ------- ---- -- --- ------- --<br>------- ---------- ------ -- ----- -- ----- -- ---- ------<br>--- ----- --- --- ------ -------- ----- --- ------ ----- --<br>----- ----- ---------- --- --- ------ ------ ---- -- ------<br>------- --- ------ ----- --- ---- ------- -- ---- --- --<br>------- ------,324710.5,324709.7000000477,323201.218,323210.5,323217.885,324718.103,,2,time
screen,html.Screen,2_1_1_1_3,2022-04-28T11:43:03.175Z,,,,,,,,,,,,,,,,,54,,,,,,,,,,,,,,938.1969999523135,,response,,,,100,,,,,,,Space,keypress(Space),,,,,,,,-- --- ---- the ------ ----- ------- ---- -- --- ------- --<br>------- ---------- ------ -- ----- -- ----- -- ---- ------<br>--- ----- --- --- ------ -------- ----- --- ------ ----- --<br>----- ----- ---------- --- --- ------ ------ ---- -- ------<br>------- --- ------ ----- --- ---- ------- -- ---- --- --<br>------- ------,325657.09999990463,325656.2999999523,324701.436,324710.59999990463,324718.103,325671.568,,3,the
screen,html.Screen,2_1_1_1_4,2022-04-28T11:43:04.837Z,,,,,,,,,,,,,,,,,54,,,,,,,,,,,,,,1646.7319999522879,,response,,,,100,,,,,,,Space,keypress(Space),,,,,,,,-- --- ---- --- French ----- ------- ---- -- --- ------- --<br>------- ---------- ------ -- ----- -- ----- -- ---- ------<br>--- ----- --- --- ------ -------- ----- --- ------ ----- --<br>----- ----- ---------- --- --- ------ ------ ---- -- ------<br>------- --- ------ ----- --- ---- ------- -- ---- --- --<br>------- ------,327319.09999990463,327318.2999999523,325654.901,325657.2999999523,325671.568,327329.198,,4,French
screen,html.Screen,2_1_1_1_5,2022-04-28T11:43:05.743Z,,,,,,,,,,,,,,,,,54,,,,,,,,,,,,,,894.6019999523414,,response,,,,100,,,,,,,Space,keypress(Space),,,,,,,,-- --- ---- --- ------ crown ------- ---- -- --- ------- --<br>------- ---------- ------ -- ----- -- ----- -- ---- ------<br>--- ----- --- --- ------ -------- ----- --- ------ ----- --<br>----- ----- ---------- --- --- ------ ------ ---- -- ------<br>------- --- ------ ----- --- ---- ------- -- ---- --- --<br>------- ------,328224.5,328223.7999999523,327312.531,327319.2999999523,327329.198,328233.93,,5,crown
screen,html.Screen,2_1_1_1_6,2022-04-28T11:43:06.661Z,,,,,,,,,,,,,,,,,54,,,,,,,,,,,,,,907.7700000476907,,response,,,,100,,,,,,,Space,keypress(Space),,,,,,,,-- --- ---- --- ------ ----- secured ---- -- --- ------- --<br>------- ---------- ------ -- ----- -- ----- -- ---- ------<br>--- ----- --- --- ------ -------- ----- --- ------ ----- --<br>----- ----- ---------- --- --- ------ ------ ---- -- ------<br>------- --- ------ ----- --- ---- ------- -- ---- --- --<br>------- ------,329142.39999985695,329141.7000000477,328217.263,328224.7999999523,328233.93,329159.064,,6,secured
screen,html.Screen,2_1_1_1_7,2022-04-28T11:43:07.683Z,,,,,,,,,,,,,,,,,54,,,,,,,,,,,,,,1004.5359999046195,,response,,,,100,,,,,,,Space,keypress(Space),,,,,,,,-- --- ---- --- ------ ----- ------- much -- --- ------- --<br>------- ---------- ------ -- ----- -- ----- -- ---- ------<br>--- ----- --- --- ------ -------- ----- --- ------ ----- --<br>----- ----- ---------- --- --- ------ ------ ---- -- ------<br>------- --- ------ ----- --- ---- ------- -- ---- --- --<br>------- ------,330164.2999999523,330163.59999990463,329142.397,329142.5,329159.064,330180.191,,7,much
screen,html.Screen,2_1_1_1_8,2022-04-28T11:43:08.414Z,,,,,,,,,,,,,,,,,54,,,,,,,,,,,,,,715.3090000000084,,response,,,,100,,,,,,,Space,keypress(Space),,,,,,,,-- --- ---- --- ------ ----- ------- ---- of --- ------- --<br>------- ---------- ------ -- ----- -- ----- -- ---- ------<br>--- ----- --- --- ------ -------- ----- --- ------ ----- --<br>----- ----- ---------- --- --- ------ ------ ---- -- ------<br>------- --- ------ ----- --- ---- ------- -- ---- --- --<br>------- ------,330896.2000000477,330895.5,330163.524,330164.5,330180.191,330901.437,,8,of
screen,html.Screen,2_1_1_1_9,2022-04-28T11:43:09.151Z,,,,,,,,,,,,,,,,,54,,,,,,,,,,,,,,731.2630000477075,,response,,,,100,,,,,,,Space,keypress(Space),,,,,,,,-- --- ---- --- ------ ----- ------- ---- -- its ------- --<br>------- ---------- ------ -- ----- -- ----- -- ---- ------<br>--- ----- --- --- ------ -------- ----- --- ------ ----- --<br>----- ----- ---------- --- --- ------ ------ ---- -- ------<br>------- --- ------ ----- --- ---- ------- -- ---- --- --<br>------- ------,331633.39999985695,331632.7000000477,330884.77,330896.39999985695,330901.437,331639.984,,9,its
screen,html.Screen,2_1_1_1_10,2022-04-28T11:43:10.647Z,,,,,,,,,,,,,,,,,54,,,,,,,,,,,,,,1488.3159999523195,,response,,,,100,,,,,,,Space,keypress(Space),,,,,,,,-- --- ---- --- ------ ----- ------- ---- -- --- revenue --<br>------- ---------- ------ -- ----- -- ----- -- ---- ------<br>--- ----- --- --- ------ -------- ----- --- ------ ----- --<br>----- ----- ---------- --- --- ------ ------ ---- -- ------<br>------- --- ------ ----- --- ---- ------- -- ---- --- --<br>------- ------,333129.09999990463,333128.2999999523,331623.317,331633.5,331639.984,333143.734,,10,revenue
screen,html.Screen,2_1_1_1_11,2022-04-28T11:43:11.620Z,,,,,,,,,,,,,,,,,54,,,,,,,,,,,,,,956.966000047687,,response,,,,100,,,,,,,Space,keypress(Space),,,,,,,,-- --- ---- --- ------ ----- ------- ---- -- --- ------- by<br>------- ---------- ------ -- ----- -- ----- -- ---- ------<br>--- ----- --- --- ------ -------- ----- --- ------ ----- --<br>----- ----- ---------- --- --- ------ ------ ---- -- ------<br>------- --- ------ ----- --- ---- ------- -- ---- --- --<br>------- ------,334101.5,334100.7000000477,333127.067,333129.2999999523,333143.734,334104.833,,11,by
screen,html.Screen,2_1_1_1_12,2022-04-28T11:43:12.584Z,,,,,,,,,,,,,,,,,54,,,,,,,,,,,,,,960.1670000000158,,response,,,,100,,,,,,,Space,keypress(Space),,,,,,,,-- --- ---- --- ------ ----- ------- ---- -- --- ------- --<br>issuing ---------- ------ -- ----- -- ----- -- ---- ------<br>--- ----- --- --- ------ -------- ----- --- ------ ----- --<br>----- ----- ---------- --- --- ------ ------ ---- -- ------<br>------- --- ------ ----- --- ---- ------- -- ---- --- --<br>------- ------,335066,335065,334088.166,334101.7000000477,334104.833,335071.65,,12,issuing
screen,html.Screen,2_1_1_1_13,2022-04-28T11:43:13.493Z,,,,,,,,,,,,,,,,,54,,,,,,,,,,,,,,902.2499998569256,,response,,,,100,,,,,,,Space,keypress(Space),,,,,,,,-- --- ---- --- ------ ----- ------- ---- -- --- ------- --<br>------- government ------ -- ----- -- ----- -- ---- ------<br>--- ----- --- --- ------ -------- ----- --- ------ ----- --<br>----- ----- ---------- --- --- ------ ------ ---- -- ------<br>------- --- ------ ----- --- ---- ------- -- ---- --- --<br>------- ------,335974.7000000477,335973.89999985695,335054.983,335066.2000000477,335071.65,335976.549,,13,government
screen,html.Screen,2_1_1_1_14,2022-04-28T11:43:15.208Z,,,,,,,,,,,,,,,,,54,,,,,,,,,,,,,,1712.0509999046335,,response,,,,100,,,,,,,Space,keypress(Space),,,,,,,,-- --- ---- --- ------ ----- ------- ---- -- --- ------- --<br>------- ---------- bonds. -- ----- -- ----- -- ---- ------<br>--- ----- --- --- ------ -------- ----- --- ------ ----- --<br>----- ----- ---------- --- --- ------ ------ ---- -- ------<br>------- --- ------ ----- --- ---- ------- -- ---- --- --<br>------- ------,337689.39999985695,337688.59999990463,335959.882,335974.7999999523,335976.549,337698.382,,14,bonds.
screen,html.Screen,2_1_1_1_15,2022-04-28T11:43:22.328Z,,,,,,,,,,,,,,,,,54,,,,,,,,,,,,,,7110.717999904649,,response,,,,100,,,,,,,Space,keypress(Space),,,,,,,,-- --- ---- --- ------ ----- ------- ---- -- --- ------- --<br>------- ---------- ------ In ----- -- ----- -- ---- ------<br>--- ----- --- --- ------ -------- ----- --- ------ ----- --<br>----- ----- ---------- --- --- ------ ------ ---- -- ------<br>------- --- ------ ----- --- ---- ------- -- ---- --- --<br>------- ------,344810,344809.09999990463,337681.715,337689.59999990463,337698.382,344819.553,,15,In
screen,html.Screen,2_1_1_1_16,2022-04-28T11:43:28.486Z,,,,,,,,,,,,,,,,,54,,,,,,,,,,,,,,6147.946999999986,,response,,,,100,,,,,,,Space,keypress(Space),,,,,,,,"-- --- ---- --- ------ ----- ------- ---- -- --- ------- --<br>------- ---------- ------ -- 1727, -- ----- -- ---- ------<br>--- ----- --- --- ------ -------- ----- --- ------ ----- --<br>----- ----- ---------- --- --- ------ ------ ---- -- ------<br>------- --- ------ ----- --- ---- ------- -- ---- --- --<br>------- ------",350968.2999999523,350967.5,344802.886,344810.2000000477,344819.553,350985.196,,16,"1727,"
screen,html.Screen,2_1_1_1_17,2022-04-28T11:43:29.103Z,,,,,,,,,,,,,,,,,54,,,,,,,,,,,,,,598.7039998569526,,response,,,,100,,,,,,,Space,keypress(Space),,,,,,,,-- --- ---- --- ------ ----- ------- ---- -- --- ------- --<br>------- ---------- ------ -- ----- in ----- -- ---- ------<br>--- ----- --- --- ------ -------- ----- --- ------ ----- --<br>----- ----- ---------- --- --- ------ ------ ---- -- ------<br>------- --- ------ ----- --- ---- ------- -- ---- --- --<br>------- ------,351584.7000000477,351583.89999985695,350968.529,350968.39999985695,350985.196,351597.44,,17,in
screen,html.Screen,2_1_1_1_18,2022-04-28T11:43:29.766Z,,,,,,,,,,,,,,,,,54,,,,,,,,,,,,,,650.1599999046302,,response,,,,100,,,,,,,Space,keypress(Space),,,,,,,,-- --- ---- --- ------ ----- ------- ---- -- --- ------- --<br>------- ---------- ------ -- ----- -- order -- ---- ------<br>--- ----- --- --- ------ -------- ----- --- ------ ----- --<br>----- ----- ---------- --- --- ------ ------ ---- -- ------<br>------- --- ------ ----- --- ---- ------- -- ---- --- --<br>------- ------,352248.39999985695,352247.59999990463,351580.773,351584.89999985695,351597.44,352261.79,,18,order
screen,html.Screen,2_1_1_1_19,2022-04-28T11:43:30.252Z,,,,,,,,,,,,,,,,,54,,,,,,,,,,,,,,471.71000000002095,,response,,,,100,,,,,,,Space,keypress(Space),,,,,,,,-- --- ---- --- ------ ----- ------- ---- -- --- ------- --<br>------- ---------- ------ -- ----- -- ----- to ---- ------<br>--- ----- --- --- ------ -------- ----- --- ------ ----- --<br>----- ----- ---------- --- --- ------ ------ ---- -- ------<br>------- --- ------ ----- --- ---- ------- -- ---- --- --<br>------- ------,352734.2000000477,352733.5,352245.123,352248.5,352261.79,352748.153,,19,to
screen,html.Screen,2_1_1_1_20,2022-04-28T11:43:30.965Z,,,,,,,,,,,,,,,,,54,,,,,,,,,,,,,,698.0470000476926,,response,,,,100,,,,,,,Space,keypress(Space),,,,,,,,-- --- ---- --- ------ ----- ------- ---- -- --- ------- --<br>------- ---------- ------ -- ----- -- ----- -- save ------<br>--- ----- --- --- ------ -------- ----- --- ------ ----- --<br>----- ----- ---------- --- --- ------ ------ ---- -- ------<br>------- --- ------ ----- --- ---- ------- -- ---- --- --<br>------- ------,353447.09999990463,353446.2000000477,352731.486,352734.2999999523,352748.153,353451.472,,20,save
screen,html.Screen,2_1_1_1_21,2022-04-28T11:43:31.983Z,,,,,,,,,,,,,,,,,54,,,,,,,,,,,,,,1012.3279999523074,,response,,,,100,,,,,,,Space,keypress(Space),,,,,,,,"-- --- ---- --- ------ ----- ------- ---- -- --- ------- --<br>------- ---------- ------ -- ----- -- ----- -- ---- money,<br>--- ----- --- --- ------ -------- ----- --- ------ ----- --<br>----- ----- ---------- --- --- ------ ------ ---- -- ------<br>------- --- ------ ----- --- ---- ------- -- ---- --- --<br>------- ------",354464.5,354463.7999999523,353434.805,353447.2000000477,353451.472,354470.599,,21,"money,"
screen,html.Screen,2_1_1_1_22,2022-04-28T11:43:32.814Z,,,,,,,,,,,,,,,,,54,,,,,,,,,,,,,,824.3009998569614,,response,,,,100,,,,,,,Space,keypress(Space),,,,,,,,-- --- ---- --- ------ ----- ------- ---- -- --- ------- --<br>------- ---------- ------ -- ----- -- ----- -- ---- ------<br>the ----- --- --- ------ -------- ----- --- ------ ----- --<br>----- ----- ---------- --- --- ------ ------ ---- -- ------<br>------- --- ------ ----- --- ---- ------- -- ---- --- --<br>------- ------,355295.7000000477,355294.89999985695,354453.932,354464.7000000477,354470.599,355307.56,,22,the
screen,html.Screen,2_1_1_1_23,2022-04-28T11:43:33.706Z,,,,,,,,,,,,,,,,,54,,,,,,,,,,,,,,879.3399998569512,,response,,,,100,,,,,,,Space,keypress(Space),,,,,,,,-- --- ---- --- ------ ----- ------- ---- -- --- ------- --<br>------- ---------- ------ -- ----- -- ----- -- ---- ------<br>--- state --- --- ------ -------- ----- --- ------ ----- --<br>----- ----- ---------- --- --- ------ ------ ---- -- ------<br>------- --- ------ ----- --- ---- ------- -- ---- --- --<br>------- ------,356187.7999999523,356186.89999985695,355290.893,355295.7999999523,355307.56,356196.063,,23,state
screen,html.Screen,2_1_1_1_24,2022-04-28T11:43:34.505Z,,,,,,,,,,,,,,,,,54,,,,,,,,,,,,,,790.13700004766,,response,,,,100,,,,,,,Space,keypress(Space),,,,,,,,-- --- ---- --- ------ ----- ------- ---- -- --- ------- --<br>------- ---------- ------ -- ----- -- ----- -- ---- ------<br>--- ----- cut --- ------ -------- ----- --- ------ ----- --<br>----- ----- ---------- --- --- ------ ------ ---- -- ------<br>------- --- ------ ----- --- ---- ------- -- ---- --- --<br>------- ------,356986.89999985695,356986.2000000477,356179.396,356188,356196.063,357000.214,,24,cut
screen,html.Screen,2_1_1_1_25,2022-04-28T11:43:35.337Z,,,,,,,,,,,,,,,,,54,,,,,,,,,,,,,,817.9860000477056,,response,,,,100,,,,,,,Space,keypress(Space),,,,,,,,-- --- ---- --- ------ ----- ------- ---- -- --- ------- --<br>------- ---------- ------ -- ----- -- ----- -- ---- ------<br>--- ----- --- the ------ -------- ----- --- ------ ----- --<br>----- ----- ---------- --- --- ------ ------ ---- -- ------<br>------- --- ------ ----- --- ---- ------- -- ---- --- --<br>------- ------,357818.89999985695,357818.2000000477,356983.547,356987.09999990463,357000.214,357821.431,,25,the
screen,html.Screen,2_1_1_1_26,2022-04-28T11:43:36.786Z,,,,,,,,,,,,,,,,,54,,,,,,,,,,,,,,1445.868999952334,,response,,,,100,,,,,,,Space,keypress(Space),,,,,,,,-- --- ---- --- ------ ----- ------- ---- -- --- ------- --<br>------- ---------- ------ -- ----- -- ----- -- ---- ------<br>--- ----- --- --- bonds' -------- ----- --- ------ ----- --<br>----- ----- ---------- --- --- ------ ------ ---- -- ------<br>------- --- ------ ----- --- ---- ------- -- ---- --- --<br>------- ------,359268.09999990463,359267.2999999523,357804.764,357819.09999990463,357821.431,359275.429,,26,bonds'
screen,html.Screen,2_1_1_1_27,2022-04-28T11:43:38.106Z,,,,,,,,,,,,,,,,,54,,,,,,,,,,,,,,1311.8709999523126,,response,,,,100,,,,,,,Space,keypress(Space),,,,,,,,-- --- ---- --- ------ ----- ------- ---- -- --- ------- --<br>------- ---------- ------ -- ----- -- ----- -- ---- ------<br>--- ----- --- --- ------ interest ----- --- ------ ----- --<br>----- ----- ---------- --- --- ------ ------ ---- -- ------<br>------- --- ------ ----- --- ---- ------- -- ---- --- --<br>------- ------,360588,360587.2999999523,359258.762,359268.2000000477,359275.429,360596.331,,27,interest
screen,html.Screen,2_1_1_1_28,2022-04-28T11:43:39.046Z,,,,,,,,,,,,,,,,,54,,,,,,,,,,,,,,930.8690000476781,,response,,,,100,,,,,,,Space,keypress(Space),,,,,,,,-- --- ---- --- ------ ----- ------- ---- -- --- ------- --<br>------- ---------- ------ -- ----- -- ----- -- ---- ------<br>--- ----- --- --- ------ -------- rate. --- ------ ----- --<br>----- ----- ---------- --- --- ------ ------ ---- -- ------<br>------- --- ------ ----- --- ---- ------- -- ---- --- --<br>------- ------,361527.89999985695,361527.2000000477,360579.664,360588.2000000477,360596.331,361537.003,,28,rate.
screen,html.Screen,2_1_1_1_29,2022-04-28T11:43:41.184Z,,,,,,,,,,,,,,,,,54,,,,,,,,,,,,,,2128.0969999046065,,response,,,,100,,,,,,,Space,keypress(Space),,,,,,,,-- --- ---- --- ------ ----- ------- ---- -- --- ------- --<br>------- ---------- ------ -- ----- -- ----- -- ---- ------<br>--- ----- --- --- ------ -------- ----- The ------ ----- --<br>----- ----- ---------- --- --- ------ ------ ---- -- ------<br>------- --- ------ ----- --- ---- ------- -- ---- --- --<br>------- ------,363665.89999985695,363665.09999990463,361520.336,361528.09999990463,361537.003,363681.542,,29,The
screen,html.Screen,2_1_1_1_30,2022-04-28T11:43:41.918Z,,,,,,,,,,,,,,,,,54,,,,,,,,,,,,,,717.6580000476679,,response,,,,100,,,,,,,Space,keypress(Space),,,,,,,,-- --- ---- --- ------ ----- ------- ---- -- --- ------- --<br>------- ---------- ------ -- ----- -- ----- -- ---- ------<br>--- ----- --- --- ------ -------- ----- --- market ----- --<br>----- ----- ---------- --- --- ------ ------ ---- -- ------<br>------- --- ------ ----- --- ---- ------- -- ---- --- --<br>------- ------,364400,364399.2000000477,363664.875,363666,363681.542,364409.056,,30,market
screen,html.Screen,2_1_1_1_31,2022-04-28T11:43:42.670Z,,,,,,,,,,,,,,,,,54,,,,,,,,,,,,,,742.243999952334,,response,,,,100,,,,,,,Space,keypress(Space),,,,,,,,-- --- ---- --- ------ ----- ------- ---- -- --- ------- --<br>------- ---------- ------ -- ----- -- ----- -- ---- ------<br>--- ----- --- --- ------ -------- ----- --- ------ value --<br>----- ----- ---------- --- --- ------ ------ ---- -- ------<br>------- --- ------ ----- --- ---- ------- -- ---- --- --<br>------- ------,365152.09999990463,365151.2999999523,364392.389,364400.2000000477,364409.056,365159.153,,31,value
screen,html.Screen,2_1_1_1_32,2022-04-28T11:43:43.399Z,,,,,,,,,,,,,,,,,54,,,,,,,,,,,,,,720.3470000000088,,response,,,,100,,,,,,,Space,keypress(Space),,,,,,,,-- --- ---- --- ------ ----- ------- ---- -- --- ------- --<br>------- ---------- ------ -- ----- -- ----- -- ---- ------<br>--- ----- --- --- ------ -------- ----- --- ------ ----- of<br>----- ----- ---------- --- --- ------ ------ ---- -- ------<br>------- --- ------ ----- --- ---- ------- -- ---- --- --<br>------- ------,365880.39999985695,365879.5,365142.486,365152.2999999523,365159.153,365896.206,,32,of
screen,html.Screen,2_1_1_1_33,2022-04-28T11:43:44.069Z,,,,,,,,,,,,,,,,,54,,,,,,,,,,,,,,653.9940000476781,,response,,,,100,,,,,,,Space,keypress(Space),,,,,,,,-- --- ---- --- ------ ----- ------- ---- -- --- ------- --<br>------- ---------- ------ -- ----- -- ----- -- ---- ------<br>--- ----- --- --- ------ -------- ----- --- ------ ----- --<br>these ----- ---------- --- --- ------ ------ ---- -- ------<br>------- --- ------ ----- --- ---- ------- -- ---- --- --<br>------- ------,366551,366550.2000000477,365879.539,365880.59999990463,365896.206,366566.688,,33,these
screen,html.Screen,2_1_1_1_34,2022-04-28T11:43:44.835Z,,,,,,,,,,,,,,,,,54,,,,,,,,,,,,,,749.3119999999763,,response,,,,100,,,,,,,Space,keypress(Space),,,,,,,,-- --- ---- --- ------ ----- ------- ---- -- --- ------- --<br>------- ---------- ------ -- ----- -- ----- -- ---- ------<br>--- ----- --- --- ------ -------- ----- --- ------ ----- --<br>----- bonds ---------- --- --- ------ ------ ---- -- ------<br>------- --- ------ ----- --- ---- ------- -- ---- --- --<br>------- ------,367316.89999985695,367316,366550.021,366551.09999990463,366566.688,367320.242,,34,bonds
screen,html.Screen,2_1_1_1_35,2022-04-28T11:43:45.759Z,,,,,,,,,,,,,,,,,54,,,,,,,,,,,,,,920.2579999999725,,response,,,,100,,,,,,,Space,keypress(Space),,,,,,,,"-- --- ---- --- ------ ----- ------- ---- -- --- ------- --<br>------- ---------- ------ -- ----- -- ----- -- ---- ------<br>--- ----- --- --- ------ -------- ----- --- ------ ----- --<br>----- ----- plummeted, --- --- ------ ------ ---- -- ------<br>------- --- ------ ----- --- ---- ------- -- ---- --- --<br>------- ------",368241.2999999523,368240.5,367303.575,367317,367320.242,368257.047,,35,"plummeted,"
screen,html.Screen,2_1_1_1_36,2022-04-28T11:43:46.371Z,,,,,,,,,,,,,,,,,54,,,,,,,,,,,,,,594.8529998569284,,response,,,,100,,,,,,,Space,keypress(Space),,,,,,,,-- --- ---- --- ------ ----- ------- ---- -- --- ------- --<br>------- ---------- ------ -- ----- -- ----- -- ---- ------<br>--- ----- --- --- ------ -------- ----- --- ------ ----- --<br>----- ----- ---------- and --- ------ ------ ---- -- ------<br>------- --- ------ ----- --- ---- ------- -- ---- --- --<br>------- ------,368852.59999990463,368851.89999985695,368240.38,368241.39999985695,368257.047,368865.483,,36,and
screen,html.Screen,2_1_1_1_37,2022-04-28T11:43:47.023Z,,,,,,,,,,,,,,,,,54,,,,,,,,,,,,,,638.5169999999925,,response,,,,100,,,,,,,Space,keypress(Space),,,,,,,,-- --- ---- --- ------ ----- ------- ---- -- --- ------- --<br>------- ---------- ------ -- ----- -- ----- -- ---- ------<br>--- ----- --- --- ------ -------- ----- --- ------ ----- --<br>----- ----- ---------- --- the ------ ------ ---- -- ------<br>------- --- ------ ----- --- ---- ------- -- ---- --- --<br>------- ------,369504.89999985695,369504,368848.816,368852.7999999523,368865.483,369515.583,,37,the
screen,html.Screen,2_1_1_1_38,2022-04-28T11:43:47.797Z,,,,,,,,,,,,,,,,,54,,,,,,,,,,,,,,762.4170000000158,,response,,,,100,,,,,,,Space,keypress(Space),,,,,,,,-- --- ---- --- ------ ----- ------- ---- -- --- ------- --<br>------- ---------- ------ -- ----- -- ----- -- ---- ------<br>--- ----- --- --- ------ -------- ----- --- ------ ----- --<br>----- ----- ---------- --- --- market ------ ---- -- ------<br>------- --- ------ ----- --- ---- ------- -- ---- --- --<br>------- ------,370278.7000000477,370278,369498.916,369505.09999990463,369515.583,370285.365,,38,market
screen,html.Screen,2_1_1_1_39,2022-04-28T11:43:48.483Z,,,,,,,,,,,,,,,,,54,,,,,,,,,,,,,,678.4349999523256,,response,,,,100,,,,,,,Space,keypress(Space),,,,,,,,-- --- ---- --- ------ ----- ------- ---- -- --- ------- --<br>------- ---------- ------ -- ----- -- ----- -- ---- ------<br>--- ----- --- --- ------ -------- ----- --- ------ ----- --<br>----- ----- ---------- --- --- ------ became ---- -- ------<br>------- --- ------ ----- --- ---- ------- -- ---- --- --<br>------- ------,370964.5,370963.7999999523,370268.698,370278.7999999523,370285.365,370971.988,,39,became
screen,html.Screen,2_1_1_1_40,2022-04-28T11:43:49.307Z,,,,,,,,,,,,,,,,,54,,,,,,,,,,,,,,816.3119999523042,,response,,,,100,,,,,,,Space,keypress(Space),,,,,,,,-- --- ---- --- ------ ----- ------- ---- -- --- ------- --<br>------- ---------- ------ -- ----- -- ----- -- ---- ------<br>--- ----- --- --- ------ -------- ----- --- ------ ----- --<br>----- ----- ---------- --- --- ------ ------ wary -- ------<br>------- --- ------ ----- --- ---- ------- -- ---- --- --<br>------- ------,371788.89999985695,371788.2999999523,370955.321,370964.7000000477,370971.988,371792.576,,40,wary
screen,html.Screen,2_1_1_1_41,2022-04-28T11:43:49.908Z,,,,,,,,,,,,,,,,,54,,,,,,,,,,,,,,596.6240000476828,,response,,,,100,,,,,,,Space,keypress(Space),,,,,,,,-- --- ---- --- ------ ----- ------- ---- -- --- ------- --<br>------- ---------- ------ -- ----- -- ----- -- ---- ------<br>--- ----- --- --- ------ -------- ----- --- ------ ----- --<br>----- ----- ---------- --- --- ------ ------ ---- of ------<br>------- --- ------ ----- --- ---- ------- -- ---- --- --<br>------- ------,372389.7999999523,372389.2000000477,371775.909,371789.09999990463,371792.576,372396.03,,41,of
screen,html.Screen,2_1_1_1_42,2022-04-28T11:43:50.694Z,,,,,,,,,,,,,,,,,54,,,,,,,,,,,,,,778.7699999522883,,response,,,,100,,,,,,,Space,keypress(Space),,,,,,,,-- --- ---- --- ------ ----- ------- ---- -- --- ------- --<br>------- ---------- ------ -- ----- -- ----- -- ---- ------<br>--- ----- --- --- ------ -------- ----- --- ------ ----- --<br>----- ----- ---------- --- --- ------ ------ ---- -- French<br>------- --- ------ ----- --- ---- ------- -- ---- --- --<br>------- ------,373175.7000000477,373174.7999999523,372379.363,372390.09999990463,372396.03,373183.523,,42,French
screen,html.Screen,2_1_1_1_43,2022-04-28T11:43:51.493Z,,,,,,,,,,,,,,,,,54,,,,,,,,,,,,,,790.2769999523298,,response,,,,100,,,,,,,Space,keypress(Space),,,,,,,,-- --- ---- --- ------ ----- ------- ---- -- --- ------- --<br>------- ---------- ------ -- ----- -- ----- -- ---- ------<br>--- ----- --- --- ------ -------- ----- --- ------ ----- --<br>----- ----- ---------- --- --- ------ ------ ---- -- ------<br>credit. --- ------ ----- --- ---- ------- -- ---- --- --<br>------- ------,373974.59999990463,373973.7999999523,373166.856,373175.7999999523,373183.523,373986.557,,43,credit.
screen,html.Screen,2_1_1_1_44,2022-04-28T11:43:52.522Z,,,,,,,,,,,,,,,,,54,,,,,,,,,,,,,,1016.7429999523447,,response,,,,100,,,,,,,Space,keypress(Space),,,,,,,,-- --- ---- --- ------ ----- ------- ---- -- --- ------- --<br>------- ---------- ------ -- ----- -- ----- -- ---- ------<br>--- ----- --- --- ------ -------- ----- --- ------ ----- --<br>----- ----- ---------- --- --- ------ ------ ---- -- ------<br>------- The ------ ----- --- ---- ------- -- ---- --- --<br>------- ------,375004,375003.2999999523,373969.89,373974.7000000477,373986.557,375007.207,,44,The
screen,html.Screen,2_1_1_1_45,2022-04-28T11:43:53.189Z,,,,,,,,,,,,,,,,,54,,,,,,,,,,,,,,662.8929999046377,,response,,,,100,,,,,,,Space,keypress(Space),,,,,,,,-- --- ---- --- ------ ----- ------- ---- -- --- ------- --<br>------- ---------- ------ -- ----- -- ----- -- ---- ------<br>--- ----- --- --- ------ -------- ----- --- ------ ----- --<br>----- ----- ---------- --- --- ------ ------ ---- -- ------<br>------- --- French ----- --- ---- ------- -- ---- --- --<br>------- ------,375670.89999985695,375670.09999990463,374990.54,375004.09999990463,375007.207,375677.86,,45,French
screen,html.Screen,2_1_1_1_46,2022-04-28T11:43:53.921Z,,,,,,,,,,,,,,,,,54,,,,,,,,,,,,,,724.7399999046465,,response,,,,100,,,,,,,Space,keypress(Space),,,,,,,,-- --- ---- --- ------ ----- ------- ---- -- --- ------- --<br>------- ---------- ------ -- ----- -- ----- -- ---- ------<br>--- ----- --- --- ------ -------- ----- --- ------ ----- --<br>----- ----- ---------- --- --- ------ ------ ---- -- ------<br>------- --- ------ state --- ---- ------- -- ---- --- --<br>------- ------,376403.2999999523,376402.59999990463,375661.193,375671,375677.86,376416.427,,46,state
screen,html.Screen,2_1_1_1_47,2022-04-28T11:43:54.531Z,,,,,,,,,,,,,,,,,54,,,,,,,,,,,,,,596.1729999046074,,response,,,,100,,,,,,,Space,keypress(Space),,,,,,,,-- --- ---- --- ------ ----- ------- ---- -- --- ------- --<br>------- ---------- ------ -- ----- -- ----- -- ---- ------<br>--- ----- --- --- ------ -------- ----- --- ------ ----- --<br>----- ----- ---------- --- --- ------ ------ ---- -- ------<br>------- --- ------ ----- was ---- ------- -- ---- --- --<br>------- ------,377013.2999999523,377012.59999990463,376399.76,376403.5,376416.427,377019.797,,47,was
screen,html.Screen,2_1_1_1_48,2022-04-28T11:43:55.217Z,,,,,,,,,,,,,,,,,54,,,,,,,,,,,,,,678.2029999999795,,response,,,,100,,,,,,,Space,keypress(Space),,,,,,,,-- --- ---- --- ------ ----- ------- ---- -- --- ------- --<br>------- ---------- ------ -- ----- -- ----- -- ---- ------<br>--- ----- --- --- ------ -------- ----- --- ------ ----- --<br>----- ----- ---------- --- --- ------ ------ ---- -- ------<br>------- --- ------ ----- --- left ------- -- ---- --- --<br>------- ------,377698.7000000477,377698,377003.13,377013.5,377019.797,377706.785,,48,left
screen,html.Screen,2_1_1_1_49,2022-04-28T11:43:55.972Z,,,,,,,,,,,,,,,,,54,,,,,,,,,,,,,,746.4150000477093,,response,,,,100,,,,,,,Space,keypress(Space),,,,,,,,-- --- ---- --- ------ ----- ------- ---- -- --- ------- --<br>------- ---------- ------ -- ----- -- ----- -- ---- ------<br>--- ----- --- --- ------ -------- ----- --- ------ ----- --<br>----- ----- ---------- --- --- ------ ------ ---- -- ------<br>------- --- ------ ----- --- ---- without -- ---- --- --<br>------- ------,378454,378453.2000000477,377690.118,377698.7999999523,377706.785,378459.827,,49,without
screen,html.Screen,2_1_1_1_50,2022-04-28T11:43:56.658Z,,,,,,,,,,,,,,,,,54,,,,,,,,,,,,,,679.4729999523261,,response,,,,100,,,,,,,Space,keypress(Space),,,,,,,,-- --- ---- --- ------ ----- ------- ---- -- --- ------- --<br>------- ---------- ------ -- ----- -- ----- -- ---- ------<br>--- ----- --- --- ------ -------- ----- --- ------ ----- --<br>----- ----- ---------- --- --- ------ ------ ---- -- ------<br>------- --- ------ ----- --- ---- ------- an ---- --- --<br>------- ------,379140.09999990463,379139.2999999523,378443.16,378454.09999990463,378459.827,379146.715,,50,an
screen,html.Screen,2_1_1_1_51,2022-04-28T11:43:57.342Z,,,,,,,,,,,,,,,,,54,,,,,,,,,,,,,,676.7849999999744,,response,,,,100,,,,,,,Space,keypress(Space),,,,,,,,-- --- ---- --- ------ ----- ------- ---- -- --- ------- --<br>------- ---------- ------ -- ----- -- ----- -- ---- ------<br>--- ----- --- --- ------ -------- ----- --- ------ ----- --<br>----- ----- ---------- --- --- ------ ------ ---- -- ------<br>------- --- ------ ----- --- ---- ------- -- easy --- --<br>------- ------,379824.2999999523,379823.5,379130.048,379140.2999999523,379146.715,379833.782,,51,easy
screen,html.Screen,2_1_1_1_52,2022-04-28T11:43:58.196Z,,,,,,,,,,,,,,,,,54,,,,,,,,,,,,,,843.4180000476772,,response,,,,100,,,,,,,Space,keypress(Space),,,,,,,,-- --- ---- --- ------ ----- ------- ---- -- --- ------- --<br>------- ---------- ------ -- ----- -- ----- -- ---- ------<br>--- ----- --- --- ------ -------- ----- --- ------ ----- --<br>----- ----- ---------- --- --- ------ ------ ---- -- ------<br>------- --- ------ ----- --- ---- ------- -- ---- way --<br>------- ------,380678.09999990463,380677.2000000477,379817.115,379824.39999985695,379833.782,380690.66,,52,way
screen,html.Screen,2_1_1_1_53,2022-04-28T11:43:58.931Z,,,,,,,,,,,,,,,,,54,,,,,,,,,,,,,,721.4399999046582,,response,,,,100,,,,,,,Space,keypress(Space),,,,,,,,-- --- ---- --- ------ ----- ------- ---- -- --- ------- --<br>------- ---------- ------ -- ----- -- ----- -- ---- ------<br>--- ----- --- --- ------ -------- ----- --- ------ ----- --<br>----- ----- ---------- --- --- ------ ------ ---- -- ------<br>------- --- ------ ----- --- ---- ------- -- ---- --- of<br>------- ------,381412.7999999523,381412.09999990463,380673.993,380678.2000000477,380690.66,381428.24,,53,of
screen,html.Screen,2_1_1_1_54,2022-04-28T11:43:59.642Z,,,,,,,,,,,,,,,,,54,,,,,,,,,,,,,,695.1599998569582,,response,,,,100,,,,,,,Space,keypress(Space),,,,,,,,-- --- ---- --- ------ ----- ------- ---- -- --- ------- --<br>------- ---------- ------ -- ----- -- ----- -- ---- ------<br>--- ----- --- --- ------ -------- ----- --- ------ ----- --<br>----- ----- ---------- --- --- ------ ------ ---- -- ------<br>------- --- ------ ----- --- ---- ------- -- ---- --- --<br>raising ------,382124.2000000477,382123.39999985695,381411.573,381413,381428.24,382128.323,,54,raising
screen,html.Screen,2_1_1_1_55,2022-04-28T11:44:00.758Z,,,,,,,,,,,,,,,,,54,,,,,,,,,,,,,,1110.9769999523414,,response,,,,100,,,,,,,Space,keypress(Space),,,,,,,,-- --- ---- --- ------ ----- ------- ---- -- --- ------- --<br>------- ---------- ------ -- ----- -- ----- -- ---- ------<br>--- ----- --- --- ------ -------- ----- --- ------ ----- --<br>----- ----- ---------- --- --- ------ ------ ---- -- ------<br>------- --- ------ ----- --- ---- ------- -- ---- --- --<br>------- money.,383240,383239.2999999523,382111.656,382124.39999985695,382128.323,383248.712,,55,money.
Item 100,flow.Loop,2_1_1_1,2022-04-28T11:44:00.759Z,,,,,,,,,,,,,,,,,,,,,,,,,,,,,,,65120.18299995229,,completion,,,,,D,,,,,,,,,,,silence,,,,,383240.2999999523,383239.2999999523,318102.45,318104,318119.117,383248.712,,,
Question 1,html.Screen,2_1_1_2,2022-04-28T11:44:05.063Z,,,,,,,,,,,,,,,,,,,,,,,,,,,,true,TRUE,,4294.488000047684,,response,,,,100,D,,,,,,TRUE,click #choice-1,,,,silence,,,,,387544.5,387543.2000000477,383232.045,383240.5,383248.712,387560.498,,,
Question 2,html.Screen,2_1_1_3,2022-04-28T11:44:09.706Z,,,,,,,,,,,,,,,,,,,,,,,,,,,,true,FALSE,,4625.401999856927,,response,,,,100,D,,,,,,FALSE,click #choice-2,,,,silence,,,,,392187.2999999523,392185.89999985695,387543.831,387544.7999999523,387560.498,392199.745,,,
Item 100,flow.Sequence,2_1_1,2022-04-28T11:44:09.706Z,,,,,,,,,,,,,,,,,,,,,,,,,,,,,,,84060.12099985697,,completion,,,,,,,,,,,,,,,,,,,,,392187.5,392185.89999985695,308109.112,308122.7999999523,308125.779,392199.745,,,
End of Practice,html.Page,2_1_2,2022-04-28T11:44:18.594Z,,,,,,,,,,,,,,,,,,,,,,,,,,,,,,,8875.554999952321,,form submission,,,,,,,,,,,,,,,,,,,,,401075.7999999523,401075.2999999523,392183.078,392187.7000000477,392199.745,401077.352,,,
Practice,flow.Sequence,2_1,2022-04-28T11:44:18.594Z,,,,,,,,,,,,,,,,,,,,,,,,,,,,,,,197696.15199995233,,completion,,,,,,,,,,,,,,,,,,,,,401076,401075.2999999523,203329.147,203375.59999990463,203379.148,401077.352,,,
Trap_instruction,html.Page,2_2_0,2022-04-28T11:44:26.631Z,,,,,,,,,,,,,,,,,,,,,,,,,,,,,,,8035.447999952303,,form submission,,,,,,,,,,,,,,,,,,,,,409113.09999990463,409112.7999999523,401060.685,401076.2000000477,401077.352,409201.515,,,
trap_trial,html.Screen,2_2_1,2022-04-28T11:44:30.900Z,,,,,,,,,,,,,,,,,,,,,,,,,,,,true,1,,4178.68500004767,,response,,,,,,,,,,,1,click #choice-1,,,,,,,,,413381.39999985695,413380.2000000477,409101.513,409113.2999999523,409201.515,413390.298,,,
end of trap trial,html.Page,2_2_2,2022-04-28T11:44:35.409Z,,,,,,,,,,,,,,,,,,,,,,,,,,,,,,,4500.0019999523065,,form submission,,,,,,,,,,,,,,,,,,,,,417890.7999999523,417890.2999999523,413373.631,413381.5,413390.298,417896.477,,,
Trap 1,flow.Sequence,2_2,2022-04-28T11:44:35.409Z,,,,,,,,,,,,,,,,,,,,,,,,,,,,,,,16812.947999952303,,completion,,,,,,,,,,,,,,,,,,,,,417891.09999990463,417890.2999999523,401060.685,401076.09999990463,401077.352,417896.477,,,
Standby,html.Page,2_3_0,2022-04-28T11:44:43.403Z,,,,,,,,,,,,,,,,,,,,,,,,,,,,,,,8003.168999999994,,timeout,,,,,,,,,,,,,,,,,,,,,425884.89999985695,425882.979,417879.81,417891.39999985695,417896.477,425899.646,,,
Holding screen,html.Screen,2_3_1_0_0,2022-04-28T11:44:50.401Z,,,,,,,,,,,,,,,,,,,,,,,,,,,,,,,6998.962999999989,,timeout,,,,,,,,,,,,,,,,,,,,,432882.89999985695,432881.942,425882.979,425885.2000000477,425899.646,432898.609,,,
screen,html.Screen,2_3_1_0_1_0,2022-04-28T11:44:53.915Z,,,,,,,,,,,,,,,,,40,,,,,,,,,,,,,,3497.091000047687,,response,,,,9,D,,,,,,Space,keypress(Space),,,,speech,,,,Police -- ------- ---- ---- ---- - -------- ----- --- --<br>----- ----- ------ -- ---- -- --- - ---- -- - ----- -----<br>------ ---- ------ ---- - -------- ------- -- --- --------<br>-------- ----------- ---- ------ ---- ------ ---- --- ---<br>-------- --- -----,436396.7000000477,436395.7000000477,432881.942,432883.09999990463,432898.609,436403.707,,0,Police
screen,html.Screen,2_3_1_0_1_1,2022-04-28T11:44:54.713Z,,,,,,,,,,,,,,,,,40,,,,,,,,,,,,,,790.5929999523214,,response,,,,9,D,,,,,,Space,keypress(Space),,,,speech,,,,------ in ------- ---- ---- ---- - -------- ----- --- --<br>----- ----- ------ -- ---- -- --- - ---- -- - ----- -----<br>------ ---- ------ ---- - -------- ------- -- --- --------<br>-------- ----------- ---- ------ ---- ------ ---- --- ---<br>-------- --- -----,437195,437194.2999999523,436387.04,436396.89999985695,436403.707,437202.567,,1,in
screen,html.Screen,2_3_1_0_1_2,2022-04-28T11:44:56.507Z,,,,,,,,,,,,,,,,,40,,,,,,,,,,,,,,1784.933000000019,,response,,,,9,D,,,,,,Space,keypress(Space),,,,speech,,,,------ -- Georgia ---- ---- ---- - -------- ----- --- --<br>----- ----- ------ -- ---- -- --- - ---- -- - ----- -----<br>------ ---- ------ ---- - -------- ------- -- --- --------<br>-------- ----------- ---- ------ ---- ------ ---- --- ---<br>-------- --- -----,438988.2999999523,438987.5,437185.9,437195.2000000477,437202.567,438996.991,,2,Georgia
screen,html.Screen,2_3_1_0_1_3,2022-04-28T11:44:57.167Z,,,,,,,,,,,,,,,,,40,,,,,,,,,,,,,,650.9089998569689,,response,,,,9,D,,,,,,Space,keypress(Space),,,,speech,,,,------ -- ------- have ---- ---- - -------- ----- --- --<br>----- ----- ------ -- ---- -- --- - ---- -- - ----- -----<br>------ ---- ------ ---- - -------- ------- -- --- --------<br>-------- ----------- ---- ------ ---- ------ ---- --- ---<br>-------- --- -----,439648.7999999523,439647.89999985695,438980.324,438988.5,438996.991,439663.729,,3,have
screen,html.Screen,2_3_1_0_1_4,2022-04-28T11:44:58.159Z,,,,,,,,,,,,,,,,,40,,,,,,,,,,,,,,976.0709999523242,,response,,,,9,D,,,,,,Space,keypress(Space),,,,speech,,,,------ -- ------- ---- shut ---- - -------- ----- --- --<br>----- ----- ------ -- ---- -- --- - ---- -- - ----- -----<br>------ ---- ------ ---- - -------- ------- -- --- --------<br>-------- ----------- ---- ------ ---- ------ ---- --- ---<br>-------- --- -----,440640.5,440639.7999999523,439647.062,439649,439663.729,440656.22,,4,shut
screen,html.Screen,2_3_1_0_1_5,2022-04-28T11:44:58.960Z,,,,,,,,,,,,,,,,,40,,,,,,,,,,,,,,784.5799999523442,,response,,,,9,D,,,,,,Space,keypress(Space),,,,speech,,,,------ -- ------- ---- ---- down - -------- ----- --- --<br>----- ----- ------ -- ---- -- --- - ---- -- - ----- -----<br>------ ---- ------ ---- - -------- ------- -- --- --------<br>-------- ----------- ---- ------ ---- ------ ---- --- ---<br>-------- --- -----,441441.7000000477,441440.7999999523,440639.553,440640.7000000477,440656.22,441442.839,,5,down
screen,html.Screen,2_3_1_0_1_6,2022-04-28T11:44:59.551Z,,,,,,,,,,,,,,,,,40,,,,,,,,,,,,,,589.3610000477056,,response,,,,9,D,,,,,,Space,keypress(Space),,,,speech,,,,------ -- ------- ---- ---- ---- a -------- ----- --- --<br>----- ----- ------ -- ---- -- --- - ---- -- - ----- -----<br>------ ---- ------ ---- - -------- ------- -- --- --------<br>-------- ----------- ---- ------ ---- ------ ---- --- ---<br>-------- --- -----,442033.09999990463,442032.2000000477,441426.172,441441.89999985695,441442.839,442047.816,,6,a
screen,html.Screen,2_3_1_0_1_7,2022-04-28T11:45:00.635Z,,,,,,,,,,,,,,,,,40,,,,,,,,,,,,,,1067.9839999523247,,response,,,,9,D,,,,,,Space,keypress(Space),,,,speech,,,,------ -- ------- ---- ---- ---- - lemonade ----- --- --<br>----- ----- ------ -- ---- -- --- - ---- -- - ----- -----<br>------ ---- ------ ---- - -------- ------- -- --- --------<br>-------- ----------- ---- ------ ---- ------ ---- --- ---<br>-------- --- -----,443116.59999990463,443115.7999999523,442031.149,442033.2999999523,442047.816,443118.559,,7,lemonade
screen,html.Screen,2_3_1_0_1_8,2022-04-28T11:45:07.627Z,,,,,,,,,,,,,,,,,40,,,,,,,,,,,,,,7005.534999999974,,timeout,,,,9,D,,,,,,,,,,,speech,,,,------ -- ------- ---- ---- ---- - -------- stand --- --<br>----- ----- ------ -- ---- -- --- - ---- -- - ----- -----<br>------ ---- ------ ---- - -------- ------- -- --- --------<br>-------- ----------- ---- ------ ---- ------ ---- --- ---<br>-------- --- -----,450109.09999990463,450107.427,443101.892,443116.7000000477,443118.559,450124.094,,8,stand
screen,html.Screen,2_3_1_0_1_9,2022-04-28T11:45:12.360Z,,,,,,,,,,,,,,,,,40,,,,,,,,,,,,,,4716.606000047701,,response,,,,9,D,,,,,,Space,keypress(Space),,,,speech,,,,------ -- ------- ---- ---- ---- - -------- ----- run --<br>----- ----- ------ -- ---- -- --- - ---- -- - ----- -----<br>------ ---- ------ ---- - -------- ------- -- --- --------<br>-------- ----------- ---- ------ ---- ------ ---- --- ---<br>-------- --- -----,454841.7000000477,454840.7000000477,450107.427,450109.2000000477,450124.094,454843.896,,9,run
screen,html.Screen,2_3_1_0_1_10,2022-04-28T11:45:12.878Z,,,,,,,,,,,,,,,,,40,,,,,,,,,,,,,,515.0039998569409,,response,,,,9,D,,,,,,Space,keypress(Space),,,,speech,,,,------ -- ------- ---- ---- ---- - -------- ----- --- by<br>----- ----- ------ -- ---- -- --- - ---- -- - ----- -----<br>------ ---- ------ ---- - -------- ------- -- --- --------<br>-------- ----------- ---- ------ ---- ------ ---- --- ---<br>-------- --- -----,455359.7000000477,455358.89999985695,454827.229,454841.89999985695,454843.896,455362.436,,10,by
screen,html.Screen,2_3_1_0_1_11,2022-04-28T11:45:13.452Z,,,,,,,,,,,,,,,,,40,,,,,,,,,,,,,,569.9639998569619,,response,,,,9,D,,,,,,Space,keypress(Space),,,,speech,,,,------ -- ------- ---- ---- ---- - -------- ----- --- --<br>three ----- ------ -- ---- -- --- - ---- -- - ----- -----<br>------ ---- ------ ---- - -------- ------- -- --- --------<br>-------- ----------- ---- ------ ---- ------ ---- --- ---<br>-------- --- -----,455933.2999999523,455932.39999985695,455345.769,455359.89999985695,455362.436,455936.193,,11,three
screen,html.Screen,2_3_1_0_1_12,2022-04-28T11:45:20.076Z,,,,,,,,,,,,,,,,,40,,,,,,,,,,,,,,6620.306999999972,,response,,,,9,D,,,,,,Space,keypress(Space),,,,speech,,,,------ -- ------- ---- ---- ---- - -------- ----- --- --<br>----- girls ------ -- ---- -- --- - ---- -- - ----- -----<br>------ ---- ------ ---- - -------- ------- -- --- --------<br>-------- ----------- ---- ------ ---- ------ ---- --- ---<br>-------- --- -----,462557.2999999523,462556.5,455919.526,455933.39999985695,455936.193,462572.288,,12,girls
screen,html.Screen,2_3_1_0_1_13,2022-04-28T11:45:20.658Z,,,,,,,,,,,,,,,,,40,,,,,,,,,,,,,,566.7119999999995,,response,,,,9,D,,,,,,Space,keypress(Space),,,,speech,,,,------ -- ------- ---- ---- ---- - -------- ----- --- --<br>----- ----- trying -- ---- -- --- - ---- -- - ----- -----<br>------ ---- ------ ---- - -------- ------- -- --- --------<br>-------- ----------- ---- ------ ---- ------ ---- --- ---<br>-------- --- -----,463139.7999999523,463139,462555.621,462557.5,462572.288,463141.764,,13,trying
screen,html.Screen,2_3_1_0_1_14,2022-04-28T11:45:21.165Z,,,,,,,,,,,,,,,,,40,,,,,,,,,,,,,,504.3359999046079,,response,,,,9,D,,,,,,Space,keypress(Space),,,,speech,,,,------ -- ------- ---- ---- ---- - -------- ----- --- --<br>----- ----- ------ to ---- -- --- - ---- -- - ----- -----<br>------ ---- ------ ---- - -------- ------- -- --- --------<br>-------- ----------- ---- ------ ---- ------ ---- --- ---<br>-------- --- -----,463647,463646.09999990463,463125.097,463140,463141.764,463658.513,,14,to
screen,html.Screen,2_3_1_0_1_15,2022-04-28T11:45:21.867Z,,,,,,,,,,,,,,,,,40,,,,,,,,,,,,,,689.6870000477065,,response,,,,9,D,,,,,,Space,keypress(Space),,,,speech,,,,------ -- ------- ---- ---- ---- - -------- ----- --- --<br>----- ----- ------ -- save -- --- - ---- -- - ----- -----<br>------ ---- ------ ---- - -------- ------- -- --- --------<br>-------- ----------- ---- ------ ---- ------ ---- --- ---<br>-------- --- -----,464349,464348.2000000477,463641.846,463647.09999990463,463658.513,464361.446,,15,save
screen,html.Screen,2_3_1_0_1_16,2022-04-28T11:45:22.527Z,,,,,,,,,,,,,,,,,40,,,,,,,,,,,,,,646.0540000000037,,response,,,,9,D,,,,,,Space,keypress(Space),,,,speech,,,,------ -- ------- ---- ---- ---- - -------- ----- --- --<br>----- ----- ------ -- ---- up --- - ---- -- - ----- -----<br>------ ---- ------ ---- - -------- ------- -- --- --------<br>-------- ----------- ---- ------ ---- ------ ---- --- ---<br>-------- --- -----,465008.2999999523,465007.5,464344.779,464349.2000000477,464361.446,465013.929,,16,up
screen,html.Screen,2_3_1_0_1_17,2022-04-28T11:45:23.417Z,,,,,,,,,,,,,,,,,40,,,,,,,,,,,,,,883.77100004768,,response,,,,9,D,,,,,,Space,keypress(Space),,,,speech,,,,------ -- ------- ---- ---- ---- - -------- ----- --- --<br>----- ----- ------ -- ---- -- for - ---- -- - ----- -----<br>------ ---- ------ ---- - -------- ------- -- --- --------<br>-------- ----------- ---- ------ ---- ------ ---- --- ---<br>-------- --- -----,465898.59999990463,465897.7000000477,464997.262,465008.5,465013.929,465900.844,,17,for
screen,html.Screen,2_3_1_0_1_18,2022-04-28T11:45:23.843Z,,,,,,,,,,,,,,,,,40,,,,,,,,,,,,,,423.15600000001723,,response,,,,9,D,,,,,,Space,keypress(Space),,,,speech,,,,------ -- ------- ---- ---- ---- - -------- ----- --- --<br>----- ----- ------ -- ---- -- --- a ---- -- - ----- -----<br>------ ---- ------ ---- - -------- ------- -- --- --------<br>-------- ----------- ---- ------ ---- ------ ---- --- ---<br>-------- --- -----,466324.7999999523,466324,465884.177,465898.7000000477,465900.844,466337.525,,18,a
screen,html.Screen,2_3_1_0_1_19,2022-04-28T11:45:24.464Z,,,,,,,,,,,,,,,,,40,,,,,,,,,,,,,,606.774999952293,,response,,,,9,D,,,,,,Space,keypress(Space),,,,speech,,,,------ -- ------- ---- ---- ---- - -------- ----- --- --<br>----- ----- ------ -- ---- -- --- - trip -- - ----- -----<br>------ ---- ------ ---- - -------- ------- -- --- --------<br>-------- ----------- ---- ------ ---- ------ ---- --- ---<br>-------- --- -----,466945.09999990463,466944.2999999523,466320.858,466324.89999985695,466337.525,466958.721,,19,trip
screen,html.Screen,2_3_1_0_1_20,2022-04-28T11:45:24.977Z,,,,,,,,,,,,,,,,,40,,,,,,,,,,,,,,499.5789999522967,,response,,,,9,D,,,,,,Space,keypress(Space),,,,speech,,,,------ -- ------- ---- ---- ---- - -------- ----- --- --<br>----- ----- ------ -- ---- -- --- - ---- to - ----- -----<br>------ ---- ------ ---- - -------- ------- -- --- --------<br>-------- ----------- ---- ------ ---- ------ ---- --- ---<br>-------- --- -----,467459,467458.2999999523,466942.054,466945.2999999523,466958.721,467460.812,,20,to
screen,html.Screen,2_3_1_0_1_21,2022-04-28T11:45:25.520Z,,,,,,,,,,,,,,,,,40,,,,,,,,,,,,,,539.8880000477075,,response,,,,9,D,,,,,,Space,keypress(Space),,,,speech,,,,------ -- ------- ---- ---- ---- - -------- ----- --- --<br>----- ----- ------ -- ---- -- --- - ---- -- a ----- -----<br>------ ---- ------ ---- - -------- ------- -- --- --------<br>-------- ----------- ---- ------ ---- ------ ---- --- ---<br>-------- --- -----,468001.5,468000.7000000477,467444.145,467459.2000000477,467460.812,468015.211,,21,a
screen,html.Screen,2_3_1_0_1_22,2022-04-28T11:45:26.332Z,,,,,,,,,,,,,,,,,40,,,,,,,,,,,,,,797.588999952306,,response,,,,9,D,,,,,,Space,keypress(Space),,,,speech,,,,------ -- ------- ---- ---- ---- - -------- ----- --- --<br>----- ----- ------ -- ---- -- --- - ---- -- - water -----<br>------ ---- ------ ---- - -------- ------- -- --- --------<br>-------- ----------- ---- ------ ---- ------ ---- --- ---<br>-------- --- -----,468813.59999990463,468812.7999999523,467998.544,468001.59999990463,468015.211,468816.548,,22,water
screen,html.Screen,2_3_1_0_1_23,2022-04-28T11:45:27.216Z,,,,,,,,,,,,,,,,,40,,,,,,,,,,,,,,880.1520000476739,,response,,,,9,D,,,,,,Space,keypress(Space),,,,speech,,,,"------ -- ------- ---- ---- ---- - -------- ----- --- --<br>----- ----- ------ -- ---- -- --- - ---- -- - ----- park,<br>------ ---- ------ ---- - -------- ------- -- --- --------<br>-------- ----------- ---- ------ ---- ------ ---- --- ---<br>-------- --- -----",469697.5,469696.7000000477,468799.881,468813.7000000477,468816.548,469702.607,,23,"park,"
screen,html.Screen,2_3_1_0_1_24,2022-04-28T11:45:28.010Z,,,,,,,,,,,,,,,,,40,,,,,,,,,,,,,,788.4929999046144,,response,,,,9,D,,,,,,Space,keypress(Space),,,,speech,,,,------ -- ------- ---- ---- ---- - -------- ----- --- --<br>----- ----- ------ -- ---- -- --- - ---- -- - ----- -----<br>saying ---- ------ ---- - -------- ------- -- --- --------<br>-------- ----------- ---- ------ ---- ------ ---- --- ---<br>-------- --- -----,470492,470491.09999990463,469685.94,469697.59999990463,469702.607,470506.769,,24,saying
screen,html.Screen,2_3_1_0_1_25,2022-04-28T11:45:28.738Z,,,,,,,,,,,,,,,,,40,,,,,,,,,,,,,,711.9310000477126,,response,,,,9,D,,,,,,Space,keypress(Space),,,,speech,,,,------ -- ------- ---- ---- ---- - -------- ----- --- --<br>----- ----- ------ -- ---- -- --- - ---- -- - ----- -----<br>------ they ------ ---- - -------- ------- -- --- --------<br>-------- ----------- ---- ------ ---- ------ ---- --- ---<br>-------- --- -----,471219.5,471218.7000000477,470490.102,470492.2000000477,470506.769,471227.9,,25,they
screen,html.Screen,2_3_1_0_1_26,2022-04-28T11:45:29.376Z,,,,,,,,,,,,,,,,,40,,,,,,,,,,,,,,629.1999999046093,,response,,,,9,D,,,,,,Space,keypress(Space),,,,speech,,,,------ -- ------- ---- ---- ---- - -------- ----- --- --<br>----- ----- ------ -- ---- -- --- - ---- -- - ----- -----<br>------ ---- didn't ---- - -------- ------- -- --- --------<br>-------- ----------- ---- ------ ---- ------ ---- --- ---<br>-------- --- -----,471857.89999985695,471857.09999990463,471211.233,471219.7000000477,471227.9,471868.737,,26,didn't
screen,html.Screen,2_3_1_0_1_27,2022-04-28T11:45:30.083Z,,,,,,,,,,,,,,,,,40,,,,,,,,,,,,,,694.662999856926,,response,,,,9,D,,,,,,Space,keypress(Space),,,,speech,,,,------ -- ------- ---- ---- ---- - -------- ----- --- --<br>----- ----- ------ -- ---- -- --- - ---- -- - ----- -----<br>------ ---- ------ have - -------- ------- -- --- --------<br>-------- ----------- ---- ------ ---- ------ ---- --- ---<br>-------- --- -----,472564.09999990463,472563.39999985695,471852.07,471858.09999990463,471868.737,472568.865,,27,have
screen,html.Screen,2_3_1_0_1_28,2022-04-28T11:45:30.629Z,,,,,,,,,,,,,,,,,40,,,,,,,,,,,,,,541.335000047693,,response,,,,9,D,,,,,,Space,keypress(Space),,,,speech,,,,------ -- ------- ---- ---- ---- - -------- ----- --- --<br>----- ----- ------ -- ---- -- --- - ---- -- - ----- -----<br>------ ---- ------ ---- a -------- ------- -- --- --------<br>-------- ----------- ---- ------ ---- ------ ---- --- ---<br>-------- --- -----,473110.89999985695,473110.2000000477,472552.198,472564.39999985695,472568.865,473122.161,,28,a
screen,html.Screen,2_3_1_0_1_29,2022-04-28T11:45:31.295Z,,,,,,,,,,,,,,,,,40,,,,,,,,,,,,,,653.4389999046107,,response,,,,9,D,,,,,,Space,keypress(Space),,,,speech,,,,------ -- ------- ---- ---- ---- - -------- ----- --- --<br>----- ----- ------ -- ---- -- --- - ---- -- - ----- -----<br>------ ---- ------ ---- - business ------- -- --- --------<br>-------- ----------- ---- ------ ---- ------ ---- --- ---<br>-------- --- -----,473776.5,473775.59999990463,473105.494,473111.09999990463,473122.161,473792.376,,29,business
screen,html.Screen,2_3_1_0_1_30,2022-04-28T11:45:32.188Z,,,,,,,,,,,,,,,,,40,,,,,,,,,,,,,,876.423999952327,,response,,,,9,D,,,,,,Space,keypress(Space),,,,speech,,,,------ -- ------- ---- ---- ---- - -------- ----- --- --<br>----- ----- ------ -- ---- -- --- - ---- -- - ----- -----<br>------ ---- ------ ---- - -------- license -- --- --------<br>-------- ----------- ---- ------ ---- ------ ---- --- ---<br>-------- --- -----,474669.7000000477,474668.7999999523,473775.709,473776.5,473792.376,474678.41,,30,license
screen,html.Screen,2_3_1_0_1_31,2022-04-28T11:45:32.826Z,,,,,,,,,,,,,,,,,40,,,,,,,,,,,,,,628.5900000000256,,response,,,,9,D,,,,,,Space,keypress(Space),,,,speech,,,,------ -- ------- ---- ---- ---- - -------- ----- --- --<br>----- ----- ------ -- ---- -- --- - ---- -- - ----- -----<br>------ ---- ------ ---- - -------- ------- or --- --------<br>-------- ----------- ---- ------ ---- ------ ---- --- ---<br>-------- --- -----,475307.7999999523,475307,474661.743,474669.7999999523,474678.41,475319.531,,31,or
screen,html.Screen,2_3_1_0_1_32,2022-04-28T11:45:33.503Z,,,,,,,,,,,,,,,,,40,,,,,,,,,,,,,,663.8689998569316,,response,,,,9,D,,,,,,Space,keypress(Space),,,,speech,,,,------ -- ------- ---- ---- ---- - -------- ----- --- --<br>----- ----- ------ -- ---- -- --- - ---- -- - ----- -----<br>------ ---- ------ ---- - -------- ------- -- the --------<br>-------- ----------- ---- ------ ---- ------ ---- --- ---<br>-------- --- -----,475984.09999990463,475983.39999985695,475302.864,475307.89999985695,475319.531,475989.381,,32,the
screen,html.Screen,2_3_1_0_1_33,2022-04-28T11:45:34.269Z,,,,,,,,,,,,,,,,,40,,,,,,,,,,,,,,760.0189998569549,,response,,,,9,D,,,,,,Space,keypress(Space),,,,speech,,,,------ -- ------- ---- ---- ---- - -------- ----- --- --<br>----- ----- ------ -- ---- -- --- - ---- -- - ----- -----<br>------ ---- ------ ---- - -------- ------- -- --- required<br>-------- ----------- ---- ------ ---- ------ ---- --- ---<br>-------- --- -----,476750.09999990463,476749.39999985695,475972.714,475984.2999999523,475989.381,476756.156,,33,required
screen,html.Screen,2_3_1_0_1_34,2022-04-28T11:45:34.938Z,,,,,,,,,,,,,,,,,40,,,,,,,,,,,,,,662.8439999999828,,response,,,,9,D,,,,,,Space,keypress(Space),,,,speech,,,,------ -- ------- ---- ---- ---- - -------- ----- --- --<br>----- ----- ------ -- ---- -- --- - ---- -- - ----- -----<br>------ ---- ------ ---- - -------- ------- -- --- --------<br>permits. ----------- ---- ------ ---- ------ ---- --- ---<br>-------- --- -----,477419.7000000477,477419,476739.489,476750.2999999523,476756.156,477426.256,,34,permits.
screen,html.Screen,2_3_1_0_1_35,2022-04-28T11:45:38.003Z,,,,,,,,,,,,,,,,,40,,,,,,,,,,,,,,3057.143999856955,,response,,,,9,D,,,,,,Space,keypress(Space),,,,speech,,,,------ -- ------- ---- ---- ---- - -------- ----- --- --<br>----- ----- ------ -- ---- -- --- - ---- -- - ----- -----<br>------ ---- ------ ---- - -------- ------- -- --- --------<br>-------- Morningstar ---- ------ ---- ------ ---- --- ---<br>-------- --- -----,480484.2000000477,480483.39999985695,477409.589,477419.7999999523,477426.256,480496.894,,35,Morningstar
screen,html.Screen,2_3_1_0_1_36,2022-04-28T11:45:38.668Z,,,,,,,,,,,,,,,,,40,,,,,,,,,,,,,,652.1060000000289,,response,,,,9,D,,,,,,Space,keypress(Space),,,,speech,,,,------ -- ------- ---- ---- ---- - -------- ----- --- --<br>----- ----- ------ -- ---- -- --- - ---- -- - ----- -----<br>------ ---- ------ ---- - -------- ------- -- --- --------<br>-------- ----------- says ------ ---- ------ ---- --- ---<br>-------- --- -----,481149.7999999523,481149,480480.227,480484.39999985695,480496.894,481165.617,,36,says
screen,html.Screen,2_3_1_0_1_37,2022-04-28T11:45:39.402Z,,,,,,,,,,,,,,,,,40,,,,,,,,,,,,,,716.7829998569214,,response,,,,9,D,,,,,,Space,keypress(Space),,,,speech,,,,------ -- ------- ---- ---- ---- - -------- ----- --- --<br>----- ----- ------ -- ---- -- --- - ---- -- - ----- -----<br>------ ---- ------ ---- - -------- ------- -- --- --------<br>-------- ----------- ---- police ---- ------ ---- --- ---<br>-------- --- -----,481883.2000000477,481882.39999985695,481148.95,481149.89999985695,481165.617,481899.035,,37,police
screen,html.Screen,2_3_1_0_1_38,2022-04-28T11:45:40.083Z,,,,,,,,,,,,,,,,,40,,,,,,,,,,,,,,664.5649999046582,,response,,,,9,D,,,,,,Space,keypress(Space),,,,speech,,,,------ -- ------- ---- ---- ---- - -------- ----- --- --<br>----- ----- ------ -- ---- -- --- - ---- -- - ----- -----<br>------ ---- ------ ---- - -------- ------- -- --- --------<br>-------- ----------- ---- ------ also ------ ---- --- ---<br>-------- --- -----,482564.39999985695,482563.59999990463,481882.368,481883.39999985695,481899.035,482569.008,,38,also
screen,html.Screen,2_3_1_0_1_39,2022-04-28T11:45:40.768Z,,,,,,,,,,,,,,,,,40,,,,,,,,,,,,,,679.8919998569763,,response,,,,9,D,,,,,,Space,keypress(Space),,,,speech,,,,------ -- ------- ---- ---- ---- - -------- ----- --- --<br>----- ----- ------ -- ---- -- --- - ---- -- - ----- -----<br>------ ---- ------ ---- - -------- ------- -- --- --------<br>-------- ----------- ---- ------ ---- didn't ---- --- ---<br>-------- --- -----,483249.7999999523,483248.89999985695,482552.341,482564.5,482569.008,483256.059,,39,didn't
screen,html.Screen,2_3_1_0_1_40,2022-04-28T11:45:41.495Z,,,,,,,,,,,,,,,,,40,,,,,,,,,,,,,,720.1410000476753,,response,,,,9,D,,,,,,Space,keypress(Space),,,,speech,,,,------ -- ------- ---- ---- ---- - -------- ----- --- --<br>----- ----- ------ -- ---- -- --- - ---- -- - ----- -----<br>------ ---- ------ ---- - -------- ------- -- --- --------<br>-------- ----------- ---- ------ ---- ------ know --- ---<br>-------- --- -----,483976.89999985695,483976.2000000477,483239.392,483249.89999985695,483256.059,483992.873,,40,know
screen,html.Screen,2_3_1_0_1_41,2022-04-28T11:45:42.511Z,,,,,,,,,,,,,,,,,40,,,,,,,,,,,,,,998.4269999522949,,response,,,,9,D,,,,,,Space,keypress(Space),,,,speech,,,,------ -- ------- ---- ---- ---- - -------- ----- --- --<br>----- ----- ------ -- ---- -- --- - ---- -- - ----- -----<br>------ ---- ------ ---- - -------- ------- -- --- --------<br>-------- ----------- ---- ------ ---- ------ ---- how ---<br>-------- --- -----,484992.09999990463,484991.2999999523,483976.206,483977.09999990463,483992.873,484996.336,,41,how
screen,html.Screen,2_3_1_0_1_42,2022-04-28T11:45:43.274Z,,,,,,,,,,,,,,,,,40,,,,,,,,,,,,,,757.8640000476735,,response,,,,9,D,,,,,,Space,keypress(Space),,,,speech,,,,------ -- ------- ---- ---- ---- - -------- ----- --- --<br>----- ----- ------ -- ---- -- --- - ---- -- - ----- -----<br>------ ---- ------ ---- - -------- ------- -- --- --------<br>-------- ----------- ---- ------ ---- ------ ---- --- the<br>-------- --- -----,485755.2000000477,485754.2000000477,484979.669,484992.2999999523,484996.336,485766.669,,42,the
screen,html.Screen,2_3_1_0_1_43,2022-04-28T11:45:43.937Z,,,,,,,,,,,,,,,,,40,,,,,,,,,,,,,,650.7309998569544,,response,,,,9,D,,,,,,Space,keypress(Space),,,,speech,,,,------ -- ------- ---- ---- ---- - -------- ----- --- --<br>----- ----- ------ -- ---- -- --- - ---- -- - ----- -----<br>------ ---- ------ ---- - -------- ------- -- --- --------<br>-------- ----------- ---- ------ ---- ------ ---- --- ---<br>lemonade --- -----,486418.2999999523,486417.39999985695,485750.002,485755.2999999523,485766.669,486421.73,,43,lemonade
screen,html.Screen,2_3_1_0_1_44,2022-04-28T11:45:44.454Z,,,,,,,,,,,,,,,,,40,,,,,,,,,,,,,,513.3699999046512,,response,,,,9,D,,,,,,Space,keypress(Space),,,,speech,,,,------ -- ------- ---- ---- ---- - -------- ----- --- --<br>----- ----- ------ -- ---- -- --- - ---- -- - ----- -----<br>------ ---- ------ ---- - -------- ------- -- --- --------<br>-------- ----------- ---- ------ ---- ------ ---- --- ---<br>-------- was -----,486935.7999999523,486935.09999990463,486405.063,486418.39999985695,486421.73,486942.238,,44,was
screen,html.Screen,2_3_1_0_1_45,2022-04-28T11:45:45.041Z,,,,,,,,,,,,,,,,,40,,,,,,,,,,,,,,579.7619999999879,,response,,,,9,D,,,,,,Space,keypress(Space),,,,speech,,,,------ -- ------- ---- ---- ---- - -------- ----- --- --<br>----- ----- ------ -- ---- -- --- - ---- -- - ----- -----<br>------ ---- ------ ---- - -------- ------- -- --- --------<br>-------- ----------- ---- ------ ---- ------ ---- --- ---<br>-------- --- made.,487522.7000000477,487522,486925.571,486935.89999985695,486942.238,487528.977,,45,made.
Item 9,flow.Loop,2_3_1_0_1,2022-04-28T11:45:45.043Z,,,,,,,,,,,,,,,,,,,,,,,,,,,,,,,54623.391,,completion,,,,,,,,,,,,,,,,,,,,,487524.2999999523,487522,432881.942,432883.09999990463,432898.609,487528.977,,,
Question 1,html.Screen,2_3_1_0_2,2022-04-28T11:45:51.174Z,,,,,,,,,,,,,,,,,,,,,,,,,,,,true,FALSE,,6125.0229999999865,,response,,,,9,D,,,,,,FALSE,click #choice-2,,,,speech,,,,,493655.5,493654,487512.31,487524.39999985695,487528.977,493664.66,,,
Question 2,html.Screen,2_3_1_0_3,2022-04-28T11:45:56.648Z,,,,,,,,,,,,,,,,,,,,,,,,,,,,true,FALSE,,5463.540000047709,,response,,,,9,D,,,,,,FALSE,click #choice-2,,,,speech,,,,,499129.5,499128.2000000477,493647.993,493655.7000000477,493664.66,499138.768,,,
Item 9,flow.Sequence,2_3_1_0,2022-04-28T11:45:56.648Z,,,,,,,,,,,,,,,,,,,,,,,,,,,,,,,73228.55400004768,,completion,,,,,,,,,,,,,,,,,,,,,499129.7999999523,499128.2000000477,425882.979,425885.09999990463,425899.646,499138.768,,,
