sender,sender_type,sender_id,timestamp,meta,,Blues,Classical,Country,Dance,Electronic,Folk,Gospel,Hip-Hop,Jazz,Latin,Musical/Film,New-age,Pop,Prolific_id,Provo_ID,R&B,Rap,Reggae,Religious,Rock,Soul,Swing,Traditional,age,artist_name,correct,correctResponse,distraction,duration,education,ended_on,familiarity,gender,headphone_check_performance,item,list,music_frequency,offensiveness,pleasantness,position_correct,preference,response,response_action,snippet_file,song_name,song_rating,sound,stimulus_1,stimulus_2,stimulus_3,text,time_commit,time_end,time_render,time_run,time_show,time_switch,url,word,word_ID
Prolific ID,html.Form,0,2022-05-02T10:17:15.279Z,"{""labjs_version"":""20.2.2"",""labjs_build"":{""flavor"":""production"",""commit"":""a25486e0c714a0ae2ce03ff94b7bb6896854dcfa""},""location"":""https://run.pavlovia.org/mvasilev/prolific3_music_e/"",""userAgent"":""Mozilla/5.0 (Windows NT 6.1; Win64; x64) AppleWebKit/537.36 (KHTML, like Gecko) Chrome/101.0.4951.41 Safari/537.36 Edg/101.0.1210.32"",""platform"":""Win32"",""language"":""en-GB"",""locale"":""en-GB"",""timeZone"":""Europe/London"",""timezoneOffset"":-60,""screen_width"":1920,""screen_height"":1080,""scroll_width"":1920,""scroll_height"":917,""window_innerWidth"":1920,""window_innerHeight"":965,""devicePixelRatio"":1}",,,,,,,,,,,,,,,598c4b28cceb0f0001b39675,,,,,,,,,,,,,,,11178.48,,form submission,,,,,,,,,,,,,,,,,,,,,35286,35285,24039.856,24045,24106.52,35306.072,{},,
Introduction,html.Screen,1_0,2022-05-02T10:17:21.482Z,,,,,,,,,,,,,,,,,,,,,,,,,,,,,,,6179.928,,response,,,,,,,,,,,continue,click button,,,,,,,,,41489,41486,35272.74,35286,35306.072,41522.49,,,
Volume calibration,html.Screen,1_1,2022-05-02T10:17:51.373Z,,,,,,,,,,,,,,,,,,,,,,,,,,,,,,,29852.510000000002,,response,,,,,,,,,,,continue,click button,,,,,,,,,71380,71375,41489.158,41490,41522.49,71404.628,,,
Task instructions,html.Screen,1_2,2022-05-02T10:18:02.656Z,,,,,,,,,,,,,,,,,,,,,,,,,,,,,,,11257.372000000003,,response,,,,,,,,,,,continue,click button,,,,,,,,,82663,82662,71371.296,71380,71404.628,82687.51,,,
Sounds,html.Screen,1_3_0_0,2022-05-02T10:18:06.916Z,,,,,,,,,,,,,,,,,,,,,,,,,,,,,,,4249.830000000002,,timeout,,,,,,,,,3,,,,,,,,I,O,S,,86923,86920.674,82654.178,82664,82687.51,86937.34,,,
Judgement,html.Screen,1_3_0_1,2022-05-02T10:18:08.697Z,,,,,,,,,,,,,,,,,,,,,,,,,,,,true,3,,1765.6600000000035,,response,,,,,,,,,3,,3,click #choice-3,,,,,I,O,S,,88704,88703,86920.674,86924,86937.34,88720.602,,,
Trial,flow.Sequence,1_3_0,2022-05-02T10:18:08.698Z,,,,,,,,,,,,,,,,,,,,,,,,,,,,,,,6015.490000000005,,completion,,,,,,,,,3,,,,,,,,I,O,S,,88705,88703,82654.178,82664,82687.51,88720.602,,,
Sounds,html.Screen,1_3_1_0,2022-05-02T10:18:12.948Z,,,,,,,,,,,,,,,,,,,,,,,,,,,,,,,4249.830000000002,,timeout,,,,,,,,,2,,,,,,,,O,S,I,,92955,92953.766,88703.936,88705,88720.602,92970.432,,,
Judgement,html.Screen,1_3_1_1,2022-05-02T10:18:14.724Z,,,,,,,,,,,,,,,,,,,,,,,,,,,,true,2,,1760.5679999999993,,response,,,,,,,,,2,,2,click #choice-2,,,,,O,S,I,,94731,94731,92953.766,92955,92970.432,94753.694,,,
Trial,flow.Sequence,1_3_1,2022-05-02T10:18:14.724Z,,,,,,,,,,,,,,,,,,,,,,,,,,,,,,,6010.398000000001,,completion,,,,,,,,,2,,,,,,,,O,S,I,,94731,94731,88703.936,88705,88720.602,94753.694,,,
Sounds,html.Screen,1_3_2_0,2022-05-02T10:18:18.990Z,,,,,,,,,,,,,,,,,,,,,,,,,,,,,,,4249.830000000002,,timeout,,,,,,,,,1,,,,,,,,S,O,I,,98997,98986.858,94720.362,94731,94753.694,99003.524,,,
Judgement,html.Screen,1_3_2_1,2022-05-02T10:18:21.746Z,,,,,,,,,,,,,,,,,,,,,,,,,,,,true,1,,2748.475999999995,,response,,,,,,,,,1,,1,click #choice-1,,,,,S,O,I,,101753,101752,98986.858,98997,99003.524,101770.08,,,
Trial,flow.Sequence,1_3_2,2022-05-02T10:18:21.746Z,,,,,,,,,,,,,,,,,,,,,,,,,,,,,,,6998.305999999997,,completion,,,,,,,,,1,,,,,,,,S,O,I,,101753,101752,94720.362,94731,94753.694,101770.08,,,
Sounds,html.Screen,1_3_3_0,2022-05-02T10:18:25.997Z,,,,,,,,,,,,,,,,,,,,,,,,,,,,,,,4249.830000000002,,timeout,,,,,,,,,2,,,,,,,,I,S,O,,106004,106003.244,101753.414,101754,101770.08,106019.91,,,
Judgement,html.Screen,1_3_3_1,2022-05-02T10:18:26.965Z,,,,,,,,,,,,,,,,,,,,,,,,,,,,true,2,,951.0899999999965,,response,,,,,,,,,2,,2,click #choice-2,,,,,I,S,O,,106972,106971,106003.244,106004,106019.91,106986.538,,,
Trial,flow.Sequence,1_3_3,2022-05-02T10:18:26.965Z,,,,,,,,,,,,,,,,,,,,,,,,,,,,,,,5200.919999999998,,completion,,,,,,,,,2,,,,,,,,I,S,O,,106972,106971,101753.414,101753,101770.08,106986.538,,,
Sounds,html.Screen,1_3_4_0,2022-05-02T10:18:31.214Z,,,,,,,,,,,,,,,,,,,,,,,,,,,,,,,4249.830000000002,,timeout,,,,,,,,,1,,,,,,,,S,I,O,,111221,111219.702,106969.872,106972,106986.538,111236.368,,,
Judgement,html.Screen,1_3_4_1,2022-05-02T10:18:33.911Z,,,,,,,,,,,,,,,,,,,,,,,,,,,,true,1,,2680.631999999998,,response,,,,,,,,,1,,1,click #choice-1,,,,,S,I,O,,113918,113917,111219.702,111221,111236.368,113936.26,,,
Trial,flow.Sequence,1_3_4,2022-05-02T10:18:33.912Z,,,,,,,,,,,,,,,,,,,,,,,,,,,,,,,6930.4619999999995,,completion,,,,,,,,,1,,,,,,,,S,I,O,,113919,113917,106969.872,106972,106986.538,113936.26,,,
Sounds,html.Screen,1_3_5_0,2022-05-02T10:18:38.163Z,,,,,,,,,,,,,,,,,,,,,,,,,,,,,,,4249.830000000002,,timeout,,,,,,,,,3,,,,,,,,O,I,S,,118170,118169.424,113919.594,113919,113936.26,118186.09,,,
Judgement,html.Screen,1_3_5_1,2022-05-02T10:18:39.041Z,,,,,,,,,,,,,,,,,,,,,,,,,,,,true,3,,860.9100000000035,,response,,,,,,,,,3,,3,click #choice-3,,,,,O,I,S,,119048,119047,118169.424,118170,118186.09,119069.388,,,
Trial,flow.Sequence,1_3_5,2022-05-02T10:18:39.041Z,,,,,,,,,,,,,,,,,,,,,,,,,,,,,,,5110.740000000005,,completion,,,,,,,,,3,,,,,,,,O,I,S,,119048,119047,113919.594,113919,113936.26,119069.388,,,
Task,flow.Loop,1_3,2022-05-02T10:18:39.049Z,,,,,,,,,,,,,,,,,,,,,,,,,,,,,,,36359.490000000005,,completion,,,1,,,,,,,,,,,,,,,,,,119056,119047,82654.178,82664,82687.51,119069.388,,,
Trap,html.Screen,1_4,2022-05-02T10:18:39.051Z,,,,,,,,,,,,,,,,,,,,,,,,,,,,,,,NaN,,skipped,,,,,,,,,,,,,,,,,,,,,119058,119047,,119058,,119069.388,,,
Thanks,html.Screen,1_5,2022-05-02T10:19:38.730Z,,,,,,,,,,,,,,,,,,,,,,,,,,,,,,,59666.611999999994,,response,,,,,,,,,,,continue,click button,,,,,,,,,178737,178736,119052.722,119058,119069.388,180700.256,,,
Headphone screening,flow.Sequence,1,2022-05-02T10:19:38.730Z,,,,,,,,,,,,,,,,,,,,,,,,,,,,,,,143429.928,,completion,,,,,,,,,,,,,,,,,,,,,178737,178736,35272.74,35286,35306.072,180700.256,,,
Instructions,html.Page,2_0,2022-05-02T10:19:56.119Z,,,,,,,,,,,,,,,,,,,,,,,,,,,,,,,15425.744000000006,,form submission,,,,,,,,,,,,,,,,,,,,,196127,196126,180666.924,180672,180700.256,196149.638,,,
Holding screen,html.Screen,2_1_0_0,2022-05-02T10:20:06.126Z,,,,,,,,,,,,,,,,,,,,,,,,,,,,,,,9999.600000000006,,timeout,,,,,,,,,,,,,,,,,,,,,206134,206132.572,196116.306,196127,196149.638,206149.238,,,
screen,html.Screen,2_1_0_1_0,2022-05-02T10:20:07.589Z,,,,,,,,,,,,,,,,,53,,,,,,,,,,,,,,1443.761999999988,,response,,,,99,,,,,,,Space,keypress(Space),,,,,,,,When -- ----- -- ------ - ------- --- ----------<br>------------- ------ ------ ---- ---- ------- ----- -- ----<br>-------- ------- -- ---------- --- - --- ----- ----- ----<br>---- --- --- ----- --- ---- ---- ------- ----- ---- -------<br>--- --- -- ----- -- --- ---- -- --- ---- -- ------ ------<br>--- ----- -- ----,207597,207593,206132.572,206134,206149.238,207615.846,,0,When
screen,html.Screen,2_1_0_1_1,2022-05-02T10:20:08.080Z,,,,,,,,,,,,,,,,,53,,,,,,,,,,,,,,471.15400000000955,,response,,,,99,,,,,,,Space,keypress(Space),,,,,,,,---- it ----- -- ------ - ------- --- ----------<br>------------- ------ ------ ---- ---- ------- ----- -- ----<br>-------- ------- -- ---------- --- - --- ----- ----- ----<br>---- --- --- ----- --- ---- ---- ------- ----- ---- -------<br>--- --- -- ----- -- --- ---- -- --- ---- -- ------ ------<br>--- ----- -- ----,208088,208087,207599.18,207597,207615.846,208099.16,,1,it
screen,html.Screen,2_1_0_1_2,2022-05-02T10:20:08.781Z,,,,,,,,,,,,,,,,,53,,,,,,,,,,,,,,688.8399999999965,,response,,,,99,,,,,,,Space,keypress(Space),,,,,,,,---- -- comes -- ------ - ------- --- ----------<br>------------- ------ ------ ---- ---- ------- ----- -- ----<br>-------- ------- -- ---------- --- - --- ----- ----- ----<br>---- --- --- ----- --- ---- ---- ------- ----- ---- -------<br>--- --- -- ----- -- --- ---- -- --- ---- -- ------ ------<br>--- ----- -- ----,208789,208788,208082.494,208088,208099.16,208799.132,,2,comes
screen,html.Screen,2_1_0_1_3,2022-05-02T10:20:09.210Z,,,,,,,,,,,,,,,,,53,,,,,,,,,,,,,,417.86799999998766,,response,,,,99,,,,,,,Space,keypress(Space),,,,,,,,---- -- ----- to ------ - ------- --- ----------<br>------------- ------ ------ ---- ---- ------- ----- -- ----<br>-------- ------- -- ---------- --- - --- ----- ----- ----<br>---- --- --- ----- --- ---- ---- ------- ----- ---- -------<br>--- --- -- ----- -- --- ---- -- --- ---- -- ------ ------<br>--- ----- -- ----,209218,209217,208782.466,208789,208799.132,209232.448,,3,to
screen,html.Screen,2_1_0_1_4,2022-05-02T10:20:09.632Z,,,,,,,,,,,,,,,,,53,,,,,,,,,,,,,,406.55199999999604,,response,,,,99,,,,,,,Space,keypress(Space),,,,,,,,---- -- ----- -- having - ------- --- ----------<br>------------- ------ ------ ---- ---- ------- ----- -- ----<br>-------- ------- -- ---------- --- - --- ----- ----- ----<br>---- --- --- ----- --- ---- ---- ------- ----- ---- -------<br>--- --- -- ----- -- --- ---- -- --- ---- -- ------ ------<br>--- ----- -- ----,209640,209639,209215.782,209218,209232.448,209649.098,,4,having
screen,html.Screen,2_1_0_1_5,2022-05-02T10:20:10.078Z,,,,,,,,,,,,,,,,,53,,,,,,,,,,,,,,435.90200000000186,,response,,,,99,,,,,,,Space,keypress(Space),,,,,,,,---- -- ----- -- ------ a ------- --- ----------<br>------------- ------ ------ ---- ---- ------- ----- -- ----<br>-------- ------- -- ---------- --- - --- ----- ----- ----<br>---- --- --- ----- --- ---- ---- ------- ----- ---- -------<br>--- --- -- ----- -- --- ---- -- --- ---- -- ------ ------<br>--- ----- -- ----,210086,210085,209632.432,209640,209649.098,210099.08,,5,a
screen,html.Screen,2_1_0_1_6,2022-05-02T10:20:10.540Z,,,,,,,,,,,,,,,,,53,,,,,,,,,,,,,,447.9200000000128,,response,,,,99,,,,,,,Space,keypress(Space),,,,,,,,---- -- ----- -- ------ - lasting --- ----------<br>------------- ------ ------ ---- ---- ------- ----- -- ----<br>-------- ------- -- ---------- --- - --- ----- ----- ----<br>---- --- --- ----- --- ---- ---- ------- ----- ---- -------<br>--- --- -- ----- -- --- ---- -- --- ---- -- ------ ------<br>--- ----- -- ----,210548,210547,210082.414,210086,210099.08,210565.728,,6,lasting
screen,html.Screen,2_1_0_1_7,2022-05-02T10:20:10.930Z,,,,,,,,,,,,,,,,,53,,,,,,,,,,,,,,371.2719999999972,,response,,,,99,,,,,,,Space,keypress(Space),,,,,,,,---- -- ----- -- ------ - ------- and ----------<br>------------- ------ ------ ---- ---- ------- ----- -- ----<br>-------- ------- -- ---------- --- - --- ----- ----- ----<br>---- --- --- ----- --- ---- ---- ------- ----- ---- -------<br>--- --- -- ----- -- --- ---- -- --- ---- -- ------ ------<br>--- ----- -- ----,210938,210937,210549.062,210548,210565.728,210949.046,,7,and
screen,html.Screen,2_1_0_1_8,2022-05-02T10:20:11.392Z,,,,,,,,,,,,,,,,,53,,,,,,,,,,,,,,450.9539999999979,,response,,,,99,,,,,,,Space,keypress(Space),,,,,,,,---- -- ----- -- ------ - ------- --- fulfilling<br>------------- ------ ------ ---- ---- ------- ----- -- ----<br>-------- ------- -- ---------- --- - --- ----- ----- ----<br>---- --- --- ----- --- ---- ---- ------- ----- ---- -------<br>--- --- -- ----- -- --- ---- -- --- ---- -- ------ ------<br>--- ----- -- ----,211400,211400,210932.38,210938,210949.046,211415.694,,8,fulfilling
screen,html.Screen,2_1_0_1_9,2022-05-02T10:20:11.842Z,,,,,,,,,,,,,,,,,53,,,,,,,,,,,,,,433.3060000000114,,response,,,,99,,,,,,,Space,keypress(Space),,,,,,,,"---- -- ----- -- ------ - ------- --- ----------<br>relationship, ------ ------ ---- ---- ------- ----- -- ----<br>-------- ------- -- ---------- --- - --- ----- ----- ----<br>---- --- --- ----- --- ---- ---- ------- ----- ---- -------<br>--- --- -- ----- -- --- ---- -- --- ---- -- ------ ------<br>--- ----- -- ----",211850,211849,211399.028,211401,211415.694,211865.676,,9,"relationship,"
screen,html.Screen,2_1_0_1_10,2022-05-02T10:20:12.224Z,,,,,,,,,,,,,,,,,53,,,,,,,,,,,,,,365.32399999999325,,response,,,,99,,,,,,,Space,keypress(Space),,,,,,,,---- -- ----- -- ------ - ------- --- ----------<br>------------- common ------ ---- ---- ------- ----- -- ----<br>-------- ------- -- ---------- --- - --- ----- ----- ----<br>---- --- --- ----- --- ---- ---- ------- ----- ---- -------<br>--- --- -- ----- -- --- ---- -- --- ---- -- ------ ------<br>--- ----- -- ----,212232,212231,211849.01,211850,211865.676,212248.994,,10,common
screen,html.Screen,2_1_0_1_11,2022-05-02T10:20:12.589Z,,,,,,,,,,,,,,,,,53,,,,,,,,,,,,,,347.00599999999395,,response,,,,99,,,,,,,Space,keypress(Space),,,,,,,,---- -- ----- -- ------ - ------- --- ----------<br>------------- ------ wisdom ---- ---- ------- ----- -- ----<br>-------- ------- -- ---------- --- - --- ----- ----- ----<br>---- --- --- ----- --- ---- ---- ------- ----- ---- -------<br>--- --- -- ----- -- --- ---- -- --- ---- -- ------ ------<br>--- ----- -- ----,212597,212596,212232.328,212232,212248.994,212615.646,,11,wisdom
screen,html.Screen,2_1_0_1_12,2022-05-02T10:20:12.959Z,,,,,,,,,,,,,,,,,53,,,,,,,,,,,,,,350.3539999999921,,response,,,,99,,,,,,,Space,keypress(Space),,,,,,,,---- -- ----- -- ------ - ------- --- ----------<br>------------- ------ ------ says ---- ------- ----- -- ----<br>-------- ------- -- ---------- --- - --- ----- ----- ----<br>---- --- --- ----- --- ---- ---- ------- ----- ---- -------<br>--- --- -- ----- -- --- ---- -- --- ---- -- ------ ------<br>--- ----- -- ----,212967,212966,212598.98,212597,212615.646,212982.298,,12,says
screen,html.Screen,2_1_0_1_13,2022-05-02T10:20:13.312Z,,,,,,,,,,,,,,,,,53,,,,,,,,,,,,,,337.7019999999902,,response,,,,99,,,,,,,Space,keypress(Space),,,,,,,,---- -- ----- -- ------ - ------- --- ----------<br>------------- ------ ------ ---- that ------- ----- -- ----<br>-------- ------- -- ---------- --- - --- ----- ----- ----<br>---- --- --- ----- --- ---- ---- ------- ----- ---- -------<br>--- --- -- ----- -- --- ---- -- --- ---- -- ------ ------<br>--- ----- -- ----,213320,213320,212965.632,212967,212982.298,213332.284,,13,that
screen,html.Screen,2_1_0_1_14,2022-05-02T10:20:13.475Z,,,,,,,,,,,,,,,,,53,,,,,,,,,,,,,,149.7159999999858,,response,,,,99,,,,,,,Space,keypress(Space),,,,,,,,---- -- ----- -- ------ - ------- --- ----------<br>------------- ------ ------ ---- ---- feeling ----- -- ----<br>-------- ------- -- ---------- --- - --- ----- ----- ----<br>---- --- --- ----- --- ---- ---- ------- ----- ---- -------<br>--- --- -- ----- -- --- ---- -- --- ---- -- ------ ------<br>--- ----- -- ----,213483,213482,213315.618,213321,213332.284,213498.944,,14,feeling
screen,html.Screen,2_1_0_1_15,2022-05-02T10:20:14.011Z,,,,,,,,,,,,,,,,,53,,,,,,,,,,,,,,519.0560000000114,,response,,,,99,,,,,,,Space,keypress(Space),,,,,,,,---- -- ----- -- ------ - ------- --- ----------<br>------------- ------ ------ ---- ---- ------- close -- ----<br>-------- ------- -- ---------- --- - --- ----- ----- ----<br>---- --- --- ----- --- ---- ---- ------- ----- ---- -------<br>--- --- -- ----- -- --- ---- -- --- ---- -- ------ ------<br>--- ----- -- ----,214019,214018,213482.278,213483,213498.944,214032.256,,15,close
screen,html.Screen,2_1_0_1_16,2022-05-02T10:20:14.300Z,,,,,,,,,,,,,,,,,53,,,,,,,,,,,,,,274.74400000000605,,response,,,,99,,,,,,,Space,keypress(Space),,,,,,,,---- -- ----- -- ------ - ------- --- ----------<br>------------- ------ ------ ---- ---- ------- ----- to ----<br>-------- ------- -- ---------- --- - --- ----- ----- ----<br>---- --- --- ----- --- ---- ---- ------- ----- ---- -------<br>--- --- -- ----- -- --- ---- -- --- ---- -- ------ ------<br>--- ----- -- ----,214308,214307,214015.59,214019,214032.256,214315.578,,16,to
screen,html.Screen,2_1_0_1_17,2022-05-02T10:20:14.646Z,,,,,,,,,,,,,,,,,53,,,,,,,,,,,,,,337.4219999999914,,response,,,,99,,,,,,,Space,keypress(Space),,,,,,,,---- -- ----- -- ------ - ------- --- ----------<br>------------- ------ ------ ---- ---- ------- ----- -- your<br>-------- ------- -- ---------- --- - --- ----- ----- ----<br>---- --- --- ----- --- ---- ---- ------- ----- ---- -------<br>--- --- -- ----- -- --- ---- -- --- ---- -- ------ ------<br>--- ----- -- ----,214654,214653,214298.912,214308,214315.578,214665.564,,17,your
screen,html.Screen,2_1_0_1_18,2022-05-02T10:20:15.035Z,,,,,,,,,,,,,,,,,53,,,,,,,,,,,,,,376.43599999998696,,response,,,,99,,,,,,,Space,keypress(Space),,,,,,,,---- -- ----- -- ------ - ------- --- ----------<br>------------- ------ ------ ---- ---- ------- ----- -- ----<br>romantic ------- -- ---------- --- - --- ----- ----- ----<br>---- --- --- ----- --- ---- ---- ------- ----- ---- -------<br>--- --- -- ----- -- --- ---- -- --- ---- -- ------ ------<br>--- ----- -- ----,215043,215042,214648.898,214654,214665.564,215065.548,,18,romantic
screen,html.Screen,2_1_0_1_19,2022-05-02T10:20:15.352Z,,,,,,,,,,,,,,,,,53,,,,,,,,,,,,,,294.4519999999902,,response,,,,99,,,,,,,Space,keypress(Space),,,,,,,,---- -- ----- -- ------ - ------- --- ----------<br>------------- ------ ------ ---- ---- ------- ----- -- ----<br>-------- partner -- ---------- --- - --- ----- ----- ----<br>---- --- --- ----- --- ---- ---- ------- ----- ---- -------<br>--- --- -- ----- -- --- ---- -- --- ---- -- ------ ------<br>--- ----- -- ----,215360,215360,215048.882,215043,215065.548,215382.202,,19,partner
screen,html.Screen,2_1_0_1_20,2022-05-02T10:20:15.701Z,,,,,,,,,,,,,,,,,53,,,,,,,,,,,,,,326.7980000000098,,response,,,,99,,,,,,,Space,keypress(Space),,,,,,,,---- -- ----- -- ------ - ------- --- ----------<br>------------- ------ ------ ---- ---- ------- ----- -- ----<br>-------- ------- is ---------- --- - --- ----- ----- ----<br>---- --- --- ----- --- ---- ---- ------- ----- ---- -------<br>--- --- -- ----- -- --- ---- -- --- ---- -- ------ ------<br>--- ----- -- ----,215709,215709,215365.536,215360,215382.202,215732.188,,20,is
screen,html.Screen,2_1_0_1_21,2022-05-02T10:20:16.104Z,,,,,,,,,,,,,,,,,53,,,,,,,,,,,,,,378.81200000000536,,response,,,,99,,,,,,,Space,keypress(Space),,,,,,,,---- -- ----- -- ------ - ------- --- ----------<br>------------- ------ ------ ---- ---- ------- ----- -- ----<br>-------- ------- -- paramount. --- - --- ----- ----- ----<br>---- --- --- ----- --- ---- ---- ------- ----- ---- -------<br>--- --- -- ----- -- --- ---- -- --- ---- -- ------ ------<br>--- ----- -- ----,216112,216111,215715.522,215709,215732.188,216132.172,,21,paramount.
screen,html.Screen,2_1_0_1_22,2022-05-02T10:20:16.492Z,,,,,,,,,,,,,,,,,53,,,,,,,,,,,,,,367.8280000000086,,response,,,,99,,,,,,,Space,keypress(Space),,,,,,,,---- -- ----- -- ------ - ------- --- ----------<br>------------- ------ ------ ---- ---- ------- ----- -- ----<br>-------- ------- -- ---------- But - --- ----- ----- ----<br>---- --- --- ----- --- ---- ---- ------- ----- ---- -------<br>--- --- -- ----- -- --- ---- -- --- ---- -- ------ ------<br>--- ----- -- ----,216500,216500,216115.506,216112,216132.172,216515.49,,22,But
screen,html.Screen,2_1_0_1_23,2022-05-02T10:20:16.785Z,,,,,,,,,,,,,,,,,53,,,,,,,,,,,,,,277.5100000000093,,response,,,,99,,,,,,,Space,keypress(Space),,,,,,,,---- -- ----- -- ------ - ------- --- ----------<br>------------- ------ ------ ---- ---- ------- ----- -- ----<br>-------- ------- -- ---------- --- a --- ----- ----- ----<br>---- --- --- ----- --- ---- ---- ------- ----- ---- -------<br>--- --- -- ----- -- --- ---- -- --- ---- -- ------ ------<br>--- ----- -- ----,216793,216793,216498.824,216501,216515.49,216815.478,,23,a
screen,html.Screen,2_1_0_1_24,2022-05-02T10:20:17.139Z,,,,,,,,,,,,,,,,,53,,,,,,,,,,,,,,330.5219999999972,,response,,,,99,,,,,,,Space,keypress(Space),,,,,,,,---- -- ----- -- ------ - ------- --- ----------<br>------------- ------ ------ ---- ---- ------- ----- -- ----<br>-------- ------- -- ---------- --- - new ----- ----- ----<br>---- --- --- ----- --- ---- ---- ------- ----- ---- -------<br>--- --- -- ----- -- --- ---- -- --- ---- -- ------ ------<br>--- ----- -- ----,217147,217146,216798.812,216793,216815.478,217165.464,,24,new
screen,html.Screen,2_1_0_1_25,2022-05-02T10:20:17.561Z,,,,,,,,,,,,,,,,,53,,,,,,,,,,,,,,403.5359999999928,,response,,,,99,,,,,,,Space,keypress(Space),,,,,,,,---- -- ----- -- ------ - ------- --- ----------<br>------------- ------ ------ ---- ---- ------- ----- -- ----<br>-------- ------- -- ---------- --- - --- study ----- ----<br>---- --- --- ----- --- ---- ---- ------- ----- ---- -------<br>--- --- -- ----- -- --- ---- -- --- ---- -- ------ ------<br>--- ----- -- ----,217569,217569,217148.798,217147,217165.464,217582.114,,25,study
screen,html.Screen,2_1_0_1_26,2022-05-02T10:20:17.887Z,,,,,,,,,,,,,,,,,53,,,,,,,,,,,,,,311.8859999999986,,response,,,,99,,,,,,,Space,keypress(Space),,,,,,,,---- -- ----- -- ------ - ------- --- ----------<br>------------- ------ ------ ---- ---- ------- ----- -- ----<br>-------- ------- -- ---------- --- - --- ----- finds ----<br>---- --- --- ----- --- ---- ---- ------- ----- ---- -------<br>--- --- -- ----- -- --- ---- -- --- ---- -- ------ ------<br>--- ----- -- ----,217895,217894,217565.448,217569,217582.114,217915.434,,26,finds
screen,html.Screen,2_1_0_1_27,2022-05-02T10:20:18.236Z,,,,,,,,,,,,,,,,,53,,,,,,,,,,,,,,327.5659999999916,,response,,,,99,,,,,,,Space,keypress(Space),,,,,,,,---- -- ----- -- ------ - ------- --- ----------<br>------------- ------ ------ ---- ---- ------- ----- -- ----<br>-------- ------- -- ---------- --- - --- ----- ----- that<br>---- --- --- ----- --- ---- ---- ------- ----- ---- -------<br>--- --- -- ----- -- --- ---- -- --- ---- -- ------ ------<br>--- ----- -- ----,218244,218243,217898.768,217895,217915.434,218265.42,,27,that
screen,html.Screen,2_1_0_1_28,2022-05-02T10:20:18.625Z,,,,,,,,,,,,,,,,,53,,,,,,,,,,,,,,366.5799999999872,,response,,,,99,,,,,,,Space,keypress(Space),,,,,,,,---- -- ----- -- ------ - ------- --- ----------<br>------------- ------ ------ ---- ---- ------- ----- -- ----<br>-------- ------- -- ---------- --- - --- ----- ----- ----<br>it's --- --- ----- --- ---- ---- ------- ----- ---- -------<br>--- --- -- ----- -- --- ---- -- --- ---- -- ------ ------<br>--- ----- -- ----,218633,218632,218248.754,218244,218265.42,218648.738,,28,it's
screen,html.Screen,2_1_0_1_29,2022-05-02T10:20:18.975Z,,,,,,,,,,,,,,,,,53,,,,,,,,,,,,,,333.2619999999879,,response,,,,99,,,,,,,Space,keypress(Space),,,,,,,,---- -- ----- -- ------ - ------- --- ----------<br>------------- ------ ------ ---- ---- ------- ----- -- ----<br>-------- ------- -- ---------- --- - --- ----- ----- ----<br>---- not --- ----- --- ---- ---- ------- ----- ---- -------<br>--- --- -- ----- -- --- ---- -- --- ---- -- ------ ------<br>--- ----- -- ----,218983,218982,218632.072,218633,218648.738,218998.724,,29,not
screen,html.Screen,2_1_0_1_30,2022-05-02T10:20:19.291Z,,,,,,,,,,,,,,,,,53,,,,,,,,,,,,,,300.2760000000126,,response,,,,99,,,,,,,Space,keypress(Space),,,,,,,,---- -- ----- -- ------ - ------- --- ----------<br>------------- ------ ------ ---- ---- ------- ----- -- ----<br>-------- ------- -- ---------- --- - --- ----- ----- ----<br>---- --- how ----- --- ---- ---- ------- ----- ---- -------<br>--- --- -- ----- -- --- ---- -- --- ---- -- ------ ------<br>--- ----- -- ----,219299,219299,218982.058,218984,218998.724,219315.378,,30,how
screen,html.Screen,2_1_0_1_31,2022-05-02T10:20:19.625Z,,,,,,,,,,,,,,,,,53,,,,,,,,,,,,,,316.622000000003,,response,,,,99,,,,,,,Space,keypress(Space),,,,,,,,---- -- ----- -- ------ - ------- --- ----------<br>------------- ------ ------ ---- ---- ------- ----- -- ----<br>-------- ------- -- ---------- --- - --- ----- ----- ----<br>---- --- --- close --- ---- ---- ------- ----- ---- -------<br>--- --- -- ----- -- --- ---- -- --- ---- -- ------ ------<br>--- ----- -- ----,219633,219632,219298.712,219299,219315.378,219648.698,,31,close
screen,html.Screen,2_1_0_1_32,2022-05-02T10:20:19.991Z,,,,,,,,,,,,,,,,,53,,,,,,,,,,,,,,349.30199999999604,,response,,,,99,,,,,,,Space,keypress(Space),,,,,,,,---- -- ----- -- ------ - ------- --- ----------<br>------------- ------ ------ ---- ---- ------- ----- -- ----<br>-------- ------- -- ---------- --- - --- ----- ----- ----<br>---- --- --- ----- you ---- ---- ------- ----- ---- -------<br>--- --- -- ----- -- --- ---- -- --- ---- -- ------ ------<br>--- ----- -- ----,219999,219998,219632.032,219633,219648.698,220015.35,,32,you
screen,html.Screen,2_1_0_1_33,2022-05-02T10:20:20.276Z,,,,,,,,,,,,,,,,,53,,,,,,,,,,,,,,267.6499999999942,,response,,,,99,,,,,,,Space,keypress(Space),,,,,,,,---- -- ----- -- ------ - ------- --- ----------<br>------------- ------ ------ ---- ---- ------- ----- -- ----<br>-------- ------- -- ---------- --- - --- ----- ----- ----<br>---- --- --- ----- --- feel ---- ------- ----- ---- -------<br>--- --- -- ----- -- --- ---- -- --- ---- -- ------ ------<br>--- ----- -- ----,220284,220283,219998.684,219999,220015.35,220298.672,,33,feel
screen,html.Screen,2_1_0_1_34,2022-05-02T10:20:20.451Z,,,,,,,,,,,,,,,,,53,,,,,,,,,,,,,,160.32800000000861,,response,,,,99,,,,,,,Space,keypress(Space),,,,,,,,---- -- ----- -- ------ - ------- --- ----------<br>------------- ------ ------ ---- ---- ------- ----- -- ----<br>-------- ------- -- ---------- --- - --- ----- ----- ----<br>---- --- --- ----- --- ---- that ------- ----- ---- -------<br>--- --- -- ----- -- --- ---- -- --- ---- -- ------ ------<br>--- ----- -- ----,220459,220459,220282.006,220284,220298.672,220481.998,,34,that
screen,html.Screen,2_1_0_1_35,2022-05-02T10:20:20.849Z,,,,,,,,,,,,,,,,,53,,,,,,,,,,,,,,374.0020000000077,,response,,,,99,,,,,,,Space,keypress(Space),,,,,,,,---- -- ----- -- ------ - ------- --- ----------<br>------------- ------ ------ ---- ---- ------- ----- -- ----<br>-------- ------- -- ---------- --- - --- ----- ----- ----<br>---- --- --- ----- --- ---- ---- matters ----- ---- -------<br>--- --- -- ----- -- --- ---- -- --- ---- -- ------ ------<br>--- ----- -- ----,220857,220856,220465.332,220459,220481.998,220865.316,,35,matters
screen,html.Screen,2_1_0_1_36,2022-05-02T10:20:21.142Z,,,,,,,,,,,,,,,,,53,,,,,,,,,,,,,,283.6840000000084,,response,,,,99,,,,,,,Space,keypress(Space),,,,,,,,"---- -- ----- -- ------ - ------- --- ----------<br>------------- ------ ------ ---- ---- ------- ----- -- ----<br>-------- ------- -- ---------- --- - --- ----- ----- ----<br>---- --- --- ----- --- ---- ---- ------- most, ---- -------<br>--- --- -- ----- -- --- ---- -- --- ---- -- ------ ------<br>--- ----- -- ----",221150,221149,220848.65,220857,220865.316,221165.304,,36,"most,"
screen,html.Screen,2_1_0_1_37,2022-05-02T10:20:21.451Z,,,,,,,,,,,,,,,,,53,,,,,,,,,,,,,,285.6959999999963,,response,,,,99,,,,,,,Space,keypress(Space),,,,,,,,---- -- ----- -- ------ - ------- --- ----------<br>------------- ------ ------ ---- ---- ------- ----- -- ----<br>-------- ------- -- ---------- --- - --- ----- ----- ----<br>---- --- --- ----- --- ---- ---- ------- ----- it's -------<br>--- --- -- ----- -- --- ---- -- --- ---- -- ------ ------<br>--- ----- -- ----,221459,221451,221148.638,221150,221165.304,221465.292,,37,it's
screen,html.Screen,2_1_0_1_38,2022-05-02T10:20:21.784Z,,,,,,,,,,,,,,,,,53,,,,,,,,,,,,,,326.70800000001327,,response,,,,99,,,,,,,Space,keypress(Space),,,,,,,,---- -- ----- -- ------ - ------- --- ----------<br>------------- ------ ------ ---- ---- ------- ----- -- ----<br>-------- ------- -- ---------- --- - --- ----- ----- ----<br>---- --- --- ----- --- ---- ---- ------- ----- ---- whether<br>--- --- -- ----- -- --- ---- -- --- ---- -- ------ ------<br>--- ----- -- ----,221792,221792,221448.626,221459,221465.292,221798.612,,38,whether
screen,html.Screen,2_1_0_1_39,2022-05-02T10:20:22.199Z,,,,,,,,,,,,,,,,,53,,,,,,,,,,,,,,407.3880000000063,,response,,,,99,,,,,,,Space,keypress(Space),,,,,,,,---- -- ----- -- ------ - ------- --- ----------<br>------------- ------ ------ ---- ---- ------- ----- -- ----<br>-------- ------- -- ---------- --- - --- ----- ----- ----<br>---- --- --- ----- --- ---- ---- ------- ----- ---- -------<br>you --- -- ----- -- --- ---- -- --- ---- -- ------ ------<br>--- ----- -- ----,222207,222206,221781.946,221792,221798.612,222215.262,,39,you
screen,html.Screen,2_1_0_1_40,2022-05-02T10:20:22.374Z,,,,,,,,,,,,,,,,,53,,,,,,,,,,,,,,165.7380000000121,,response,,,,99,,,,,,,Space,keypress(Space),,,,,,,,---- -- ----- -- ------ - ------- --- ----------<br>------------- ------ ------ ---- ---- ------- ----- -- ----<br>-------- ------- -- ---------- --- - --- ----- ----- ----<br>---- --- --- ----- --- ---- ---- ------- ----- ---- -------<br>--- are -- ----- -- --- ---- -- --- ---- -- ------ ------<br>--- ----- -- ----,222382,222381,222198.596,222207,222215.262,222398.588,,40,are
screen,html.Screen,2_1_0_1_41,2022-05-02T10:20:22.647Z,,,,,,,,,,,,,,,,,53,,,,,,,,,,,,,,255.41200000001118,,response,,,,99,,,,,,,Space,keypress(Space),,,,,,,,---- -- ----- -- ------ - ------- --- ----------<br>------------- ------ ------ ---- ---- ------- ----- -- ----<br>-------- ------- -- ---------- --- - --- ----- ----- ----<br>---- --- --- ----- --- ---- ---- ------- ----- ---- -------<br>--- --- as ----- -- --- ---- -- --- ---- -- ------ ------<br>--- ----- -- ----,222655,222654,222381.922,222382,222398.588,222665.244,,41,as
screen,html.Screen,2_1_0_1_42,2022-05-02T10:20:22.860Z,,,,,,,,,,,,,,,,,53,,,,,,,,,,,,,,201.75599999999395,,response,,,,99,,,,,,,Space,keypress(Space),,,,,,,,---- -- ----- -- ------ - ------- --- ----------<br>------------- ------ ------ ---- ---- ------- ----- -- ----<br>-------- ------- -- ---------- --- - --- ----- ----- ----<br>---- --- --- ----- --- ---- ---- ------- ----- ---- -------<br>--- --- -- close -- --- ---- -- --- ---- -- ------ ------<br>--- ----- -- ----,222868,222867,222648.578,222655,222665.244,222881.902,,42,close
screen,html.Screen,2_1_0_1_43,2022-05-02T10:20:23.104Z,,,,,,,,,,,,,,,,,53,,,,,,,,,,,,,,229.09799999999814,,response,,,,99,,,,,,,Space,keypress(Space),,,,,,,,---- -- ----- -- ------ - ------- --- ----------<br>------------- ------ ------ ---- ---- ------- ----- -- ----<br>-------- ------- -- ---------- --- - --- ----- ----- ----<br>---- --- --- ----- --- ---- ---- ------- ----- ---- -------<br>--- --- -- ----- as --- ---- -- --- ---- -- ------ ------<br>--- ----- -- ----,223112,223111,222865.236,222868,222881.902,223131.892,,43,as
screen,html.Screen,2_1_0_1_44,2022-05-02T10:20:23.433Z,,,,,,,,,,,,,,,,,53,,,,,,,,,,,,,,308.10800000000745,,response,,,,99,,,,,,,Space,keypress(Space),,,,,,,,---- -- ----- -- ------ - ------- --- ----------<br>------------- ------ ------ ---- ---- ------- ----- -- ----<br>-------- ------- -- ---------- --- - --- ----- ----- ----<br>---- --- --- ----- --- ---- ---- ------- ----- ---- -------<br>--- --- -- ----- -- you ---- -- --- ---- -- ------ ------<br>--- ----- -- ----,223441,223440,223115.226,223112,223131.892,223448.546,,44,you
screen,html.Screen,2_1_0_1_45,2022-05-02T10:20:23.690Z,,,,,,,,,,,,,,,,,53,,,,,,,,,,,,,,248.4539999999979,,response,,,,99,,,,,,,Space,keypress(Space),,,,,,,,---- -- ----- -- ------ - ------- --- ----------<br>------------- ------ ------ ---- ---- ------- ----- -- ----<br>-------- ------- -- ---------- --- - --- ----- ----- ----<br>---- --- --- ----- --- ---- ---- ------- ----- ---- -------<br>--- --- -- ----- -- --- want -- --- ---- -- ------ ------<br>--- ----- -- ----,223698,223697,223431.88,223441,223448.546,223715.202,,45,want
screen,html.Screen,2_1_0_1_46,2022-05-02T10:20:24.136Z,,,,,,,,,,,,,,,,,53,,,,,,,,,,,,,,427.7980000000098,,response,,,,99,,,,,,,Space,keypress(Space),,,,,,,,---- -- ----- -- ------ - ------- --- ----------<br>------------- ------ ------ ---- ---- ------- ----- -- ----<br>-------- ------- -- ---------- --- - --- ----- ----- ----<br>---- --- --- ----- --- ---- ---- ------- ----- ---- -------<br>--- --- -- ----- -- --- ---- to --- ---- -- ------ ------<br>--- ----- -- ----,224144,224143,223698.536,223698,223715.202,224165.184,,46,to
screen,html.Screen,2_1_0_1_47,2022-05-02T10:20:24.392Z,,,,,,,,,,,,,,,,,53,,,,,,,,,,,,,,234.81599999999162,,response,,,,99,,,,,,,Space,keypress(Space),,,,,,,,"---- -- ----- -- ------ - ------- --- ----------<br>------------- ------ ------ ---- ---- ------- ----- -- ----<br>-------- ------- -- ---------- --- - --- ----- ----- ----<br>---- --- --- ----- --- ---- ---- ------- ----- ---- -------<br>--- --- -- ----- -- --- ---- -- be, ---- -- ------ ------<br>--- ----- -- ----",224400,224400,224148.518,224144,224165.184,224415.174,,47,"be,"
screen,html.Screen,2_1_0_1_48,2022-05-02T10:20:24.859Z,,,,,,,,,,,,,,,,,53,,,,,,,,,,,,,,450.82600000000093,,response,,,,99,,,,,,,Space,keypress(Space),,,,,,,,---- -- ----- -- ------ - ------- --- ----------<br>------------- ------ ------ ---- ---- ------- ----- -- ----<br>-------- ------- -- ---------- --- - --- ----- ----- ----<br>---- --- --- ----- --- ---- ---- ------- ----- ---- -------<br>--- --- -- ----- -- --- ---- -- --- even -- ------ ------<br>--- ----- -- ----,224867,224866,224398.508,224401,224415.174,224881.822,,48,even
screen,html.Screen,2_1_0_1_49,2022-05-02T10:20:25.071Z,,,,,,,,,,,,,,,,,53,,,,,,,,,,,,,,196.17800000001444,,response,,,,99,,,,,,,Space,keypress(Space),,,,,,,,---- -- ----- -- ------ - ------- --- ----------<br>------------- ------ ------ ---- ---- ------- ----- -- ----<br>-------- ------- -- ---------- --- - --- ----- ----- ----<br>---- --- --- ----- --- ---- ---- ------- ----- ---- -------<br>--- --- -- ----- -- --- ---- -- --- ---- if ------ ------<br>--- ----- -- ----,225079,225078,224865.156,224867,224881.822,225098.48,,49,if
screen,html.Screen,2_1_0_1_50,2022-05-02T10:20:25.239Z,,,,,,,,,,,,,,,,,53,,,,,,,,,,,,,,147.51999999998952,,response,,,,99,,,,,,,Space,keypress(Space),,,,,,,,---- -- ----- -- ------ - ------- --- ----------<br>------------- ------ ------ ---- ---- ------- ----- -- ----<br>-------- ------- -- ---------- --- - --- ----- ----- ----<br>---- --- --- ----- --- ---- ---- ------- ----- ---- -------<br>--- --- -- ----- -- --- ---- -- --- ---- -- that's ------<br>--- ----- -- ----,225247,225246,225081.814,225079,225098.48,225265.14,,50,that's
screen,html.Screen,2_1_0_1_51,2022-05-02T10:20:25.475Z,,,,,,,,,,,,,,,,,53,,,,,,,,,,,,,,216.85999999998603,,response,,,,99,,,,,,,Space,keypress(Space),,,,,,,,---- -- ----- -- ------ - ------- --- ----------<br>------------- ------ ------ ---- ---- ------- ----- -- ----<br>-------- ------- -- ---------- --- - --- ----- ----- ----<br>---- --- --- ----- --- ---- ---- ------- ----- ---- -------<br>--- --- -- ----- -- --- ---- -- --- ---- -- ------ really<br>--- ----- -- ----,225483,225482,225248.474,225247,225265.14,225498.464,,51,really
screen,html.Screen,2_1_0_1_52,2022-05-02T10:20:25.845Z,,,,,,,,,,,,,,,,,53,,,,,,,,,,,,,,353.5359999999928,,response,,,,99,,,,,,,Space,keypress(Space),,,,,,,,---- -- ----- -- ------ - ------- --- ----------<br>------------- ------ ------ ---- ---- ------- ----- -- ----<br>-------- ------- -- ---------- --- - --- ----- ----- ----<br>---- --- --- ----- --- ---- ---- ------- ----- ---- -------<br>--- --- -- ----- -- --- ---- -- --- ---- -- ------ ------<br>not ----- -- ----,225853,225852,225481.798,225483,225498.464,225865.116,,52,not
screen,html.Screen,2_1_0_1_53,2022-05-02T10:20:26.036Z,,,,,,,,,,,,,,,,,53,,,,,,,,,,,,,,178.88399999999092,,response,,,,99,,,,,,,Space,keypress(Space),,,,,,,,---- -- ----- -- ------ - ------- --- ----------<br>------------- ------ ------ ---- ---- ------- ----- -- ----<br>-------- ------- -- ---------- --- - --- ----- ----- ----<br>---- --- --- ----- --- ---- ---- ------- ----- ---- -------<br>--- --- -- ----- -- --- ---- -- --- ---- -- ------ ------<br>--- close -- ----,226044,226044,225848.45,225853,225865.116,226065.108,,53,close
screen,html.Screen,2_1_0_1_54,2022-05-02T10:20:26.435Z,,,,,,,,,,,,,,,,,53,,,,,,,,,,,,,,376.89199999999255,,response,,,,99,,,,,,,Space,keypress(Space),,,,,,,,---- -- ----- -- ------ - ------- --- ----------<br>------------- ------ ------ ---- ---- ------- ----- -- ----<br>-------- ------- -- ---------- --- - --- ----- ----- ----<br>---- --- --- ----- --- ---- ---- ------- ----- ---- -------<br>--- --- -- ----- -- --- ---- -- --- ---- -- ------ ------<br>--- ----- at ----,226443,226442,226048.442,226045,226065.108,226448.426,,54,at
screen,html.Screen,2_1_0_1_55,2022-05-02T10:20:26.651Z,,,,,,,,,,,,,,,,,53,,,,,,,,,,,,,,209.57399999999325,,response,,,,99,,,,,,,Space,keypress(Space),,,,,,,,---- -- ----- -- ------ - ------- --- ----------<br>------------- ------ ------ ---- ---- ------- ----- -- ----<br>-------- ------- -- ---------- --- - --- ----- ----- ----<br>---- --- --- ----- --- ---- ---- ------- ----- ---- -------<br>--- --- -- ----- -- --- ---- -- --- ---- -- ------ ------<br>--- ----- -- all.,226659,226658,226431.76,226443,226448.426,226681.75,,55,all.
Item 99,flow.Loop,2_1_0_1,2022-05-02T10:20:26.651Z,,,,,,,,,,,,,,,,,,,,,,,,,,,,,,,20508.761999999988,,completion,,,,,E,,,,,,,,,,,silence,,,,,226659,226658,206132.572,206134,206149.238,226681.75,,,
Question 1,html.Screen,2_1_0_2,2022-05-02T10:20:31.238Z,,,,,,,,,,,,,,,,,,,,,,,,,,,,true,FALSE,,4564.25,,response,,,,99,E,,,,,,FALSE,click #choice-2,,,,silence,,,,,231246,231246,226648.418,226659,226681.75,231264.9,,,
Question 2,html.Screen,2_1_0_3,2022-05-02T10:20:37.718Z,,,,,,,,,,,,,,,,,,,,,,,,,,,,true,TRUE,,6460.100000000006,,response,,,,99,E,,,,,,TRUE,click #choice-1,,,,silence,,,,,237726,237725,231248.234,231247,231264.9,237764.64,,,
Item 99,flow.Sequence,2_1_0,2022-05-02T10:20:37.718Z,,,,,,,,,,,,,,,,,,,,,,,,,,,,,,,41575.361999999994,,completion,,,,,,,,,,,,,,,,,,,,,237726,237725,196116.306,196127,196149.638,237764.64,,,
Holding screen,html.Screen,2_1_1_0,2022-05-02T10:20:47.741Z,,,,,,,,,,,,,,,,,,,,,,,,,,,,,,,9999.599999999977,,timeout,,,,,,,,,,,,,,,,,,,,,247749,247747.574,237714.642,237726,237764.64,247764.24,,,
screen,html.Screen,2_1_1_1_0,2022-05-02T10:20:50.978Z,,,,,,,,,,,,,,,,,54,,,,,,,,,,,,,,3220.7600000000093,,response,,,,100,,,,,,,Space,keypress(Space),,,,,,,,At --- ---- --- ------ ----- ------- ---- -- --- ------- --<br>------- ---------- ------ -- ----- -- ----- -- ---- ------<br>--- ----- --- --- ------ -------- ----- --- ------ ----- --<br>----- ----- ---------- --- --- ------ ------ ---- -- ------<br>------- --- ------ ----- --- ---- ------- -- ---- --- --<br>------- ------,250986,250985,247747.574,247750,247764.24,250997.444,,0,At
screen,html.Screen,2_1_1_1_1,2022-05-02T10:20:51.406Z,,,,,,,,,,,,,,,,,54,,,,,,,,,,,,,,415.5560000000114,,response,,,,100,,,,,,,Space,keypress(Space),,,,,,,,-- the ---- --- ------ ----- ------- ---- -- --- ------- --<br>------- ---------- ------ -- ----- -- ----- -- ---- ------<br>--- ----- --- --- ------ -------- ----- --- ------ ----- --<br>----- ----- ---------- --- --- ------ ------ ---- -- ------<br>------- --- ------ ----- --- ---- ------- -- ---- --- --<br>------- ------,251414,251413,250980.778,250986,250997.444,251430.76,,1,the
screen,html.Screen,2_1_1_1_2,2022-05-02T10:20:51.775Z,,,,,,,,,,,,,,,,,54,,,,,,,,,,,,,,352.2399999999907,,response,,,,100,,,,,,,Space,keypress(Space),,,,,,,,-- --- time --- ------ ----- ------- ---- -- --- ------- --<br>------- ---------- ------ -- ----- -- ----- -- ---- ------<br>--- ----- --- --- ------ -------- ----- --- ------ ----- --<br>----- ----- ---------- --- --- ------ ------ ---- -- ------<br>------- --- ------ ----- --- ---- ------- -- ---- --- --<br>------- ------,251783,251783,251414.094,251414,251430.76,251797.412,,2,time
screen,html.Screen,2_1_1_1_3,2022-05-02T10:20:52.213Z,,,,,,,,,,,,,,,,,54,,,,,,,,,,,,,,422.5879999999888,,response,,,,100,,,,,,,Space,keypress(Space),,,,,,,,-- --- ---- the ------ ----- ------- ---- -- --- ------- --<br>------- ---------- ------ -- ----- -- ----- -- ---- ------<br>--- ----- --- --- ------ -------- ----- --- ------ ----- --<br>----- ----- ---------- --- --- ------ ------ ---- -- ------<br>------- --- ------ ----- --- ---- ------- -- ---- --- --<br>------- ------,252221,252220,251780.746,251783,251797.412,252230.728,,3,the
screen,html.Screen,2_1_1_1_4,2022-05-02T10:20:52.595Z,,,,,,,,,,,,,,,,,54,,,,,,,,,,,,,,371.2719999999972,,response,,,,100,,,,,,,Space,keypress(Space),,,,,,,,-- --- ---- --- French ----- ------- ---- -- --- ------- --<br>------- ---------- ------ -- ----- -- ----- -- ---- ------<br>--- ----- --- --- ------ -------- ----- --- ------ ----- --<br>----- ----- ---------- --- --- ------ ------ ---- -- ------<br>------- --- ------ ----- --- ---- ------- -- ---- --- --<br>------- ------,252603,252602,252214.062,252221,252230.728,252614.046,,4,French
screen,html.Screen,2_1_1_1_5,2022-05-02T10:20:53.045Z,,,,,,,,,,,,,,,,,54,,,,,,,,,,,,,,437.9539999999979,,response,,,,100,,,,,,,Space,keypress(Space),,,,,,,,-- --- ---- --- ------ crown ------- ---- -- --- ------- --<br>------- ---------- ------ -- ----- -- ----- -- ---- ------<br>--- ----- --- --- ------ -------- ----- --- ------ ----- --<br>----- ----- ---------- --- --- ------ ------ ---- -- ------<br>------- --- ------ ----- --- ---- ------- -- ---- --- --<br>------- ------,253053,253052,252597.38,252603,252614.046,253064.028,,5,crown
screen,html.Screen,2_1_1_1_6,2022-05-02T10:20:53.556Z,,,,,,,,,,,,,,,,,54,,,,,,,,,,,,,,498.97200000000885,,response,,,,100,,,,,,,Space,keypress(Space),,,,,,,,-- --- ---- --- ------ ----- secured ---- -- --- ------- --<br>------- ---------- ------ -- ----- -- ----- -- ---- ------<br>--- ----- --- --- ------ -------- ----- --- ------ ----- --<br>----- ----- ---------- --- --- ------ ------ ---- -- ------<br>------- --- ------ ----- --- ---- ------- -- ---- --- --<br>------- ------,253564,253563,253047.362,253053,253064.028,253580.674,,6,secured
screen,html.Screen,2_1_1_1_7,2022-05-02T10:20:53.929Z,,,,,,,,,,,,,,,,,54,,,,,,,,,,,,,,355.32600000000093,,response,,,,100,,,,,,,Space,keypress(Space),,,,,,,,-- --- ---- --- ------ ----- ------- much -- --- ------- --<br>------- ---------- ------ -- ----- -- ----- -- ---- ------<br>--- ----- --- --- ------ -------- ----- --- ------ ----- --<br>----- ----- ---------- --- --- ------ ------ ---- -- ------<br>------- --- ------ ----- --- ---- ------- -- ---- --- --<br>------- ------,253937,253936,253564.008,253564,253580.674,253947.326,,7,much
screen,html.Screen,2_1_1_1_8,2022-05-02T10:20:54.303Z,,,,,,,,,,,,,,,,,54,,,,,,,,,,,,,,362.67399999999907,,response,,,,100,,,,,,,Space,keypress(Space),,,,,,,,-- --- ---- --- ------ ----- ------- ---- of --- ------- --<br>------- ---------- ------ -- ----- -- ----- -- ---- ------<br>--- ----- --- --- ------ -------- ----- --- ------ ----- --<br>----- ----- ---------- --- --- ------ ------ ---- -- ------<br>------- --- ------ ----- --- ---- ------- -- ---- --- --<br>------- ------,254311,254310,253930.66,253937,253947.326,254330.644,,8,of
screen,html.Screen,2_1_1_1_9,2022-05-02T10:20:54.531Z,,,,,,,,,,,,,,,,,54,,,,,,,,,,,,,,208.35599999999977,,response,,,,100,,,,,,,Space,keypress(Space),,,,,,,,-- --- ---- --- ------ ----- ------- ---- -- its ------- --<br>------- ---------- ------ -- ----- -- ----- -- ---- ------<br>--- ----- --- --- ------ -------- ----- --- ------ ----- --<br>----- ----- ---------- --- --- ------ ------ ---- -- ------<br>------- --- ------ ----- --- ---- ------- -- ---- --- --<br>------- ------,254539,254539,254313.978,254311,254330.644,254547.302,,9,its
screen,html.Screen,2_1_1_1_10,2022-05-02T10:20:54.736Z,,,,,,,,,,,,,,,,,54,,,,,,,,,,,,,,195.69800000000396,,response,,,,100,,,,,,,Space,keypress(Space),,,,,,,,-- --- ---- --- ------ ----- ------- ---- -- --- revenue --<br>------- ---------- ------ -- ----- -- ----- -- ---- ------<br>--- ----- --- --- ------ -------- ----- --- ------ ----- --<br>----- ----- ---------- --- --- ------ ------ ---- -- ------<br>------- --- ------ ----- --- ---- ------- -- ---- --- --<br>------- ------,254744,254743,254530.636,254540,254547.302,254763.96,,10,revenue
screen,html.Screen,2_1_1_1_11,2022-05-02T10:20:55.169Z,,,,,,,,,,,,,,,,,54,,,,,,,,,,,,,,412.04000000000815,,response,,,,100,,,,,,,Space,keypress(Space),,,,,,,,-- --- ---- --- ------ ----- ------- ---- -- --- ------- by<br>------- ---------- ------ -- ----- -- ----- -- ---- ------<br>--- ----- --- --- ------ -------- ----- --- ------ ----- --<br>----- ----- ---------- --- --- ------ ------ ---- -- ------<br>------- --- ------ ----- --- ---- ------- -- ---- --- --<br>------- ------,255177,255176,254747.294,254744,254763.96,255197.276,,11,by
screen,html.Screen,2_1_1_1_12,2022-05-02T10:20:55.531Z,,,,,,,,,,,,,,,,,54,,,,,,,,,,,,,,340.7239999999874,,response,,,,100,,,,,,,Space,keypress(Space),,,,,,,,-- --- ---- --- ------ ----- ------- ---- -- --- ------- --<br>issuing ---------- ------ -- ----- -- ----- -- ---- ------<br>--- ----- --- --- ------ -------- ----- --- ------ ----- --<br>----- ----- ---------- --- --- ------ ------ ---- -- ------<br>------- --- ------ ----- --- ---- ------- -- ---- --- --<br>------- ------,255539,255538,255180.61,255177,255197.276,255547.262,,12,issuing
screen,html.Screen,2_1_1_1_13,2022-05-02T10:20:55.871Z,,,,,,,,,,,,,,,,,54,,,,,,,,,,,,,,331.7380000000121,,response,,,,100,,,,,,,Space,keypress(Space),,,,,,,,-- --- ---- --- ------ ----- ------- ---- -- --- ------- --<br>------- government ------ -- ----- -- ----- -- ---- ------<br>--- ----- --- --- ------ -------- ----- --- ------ ----- --<br>----- ----- ---------- --- --- ------ ------ ---- -- ------<br>------- --- ------ ----- --- ---- ------- -- ---- --- --<br>------- ------,255879,255879,255530.596,255539,255547.262,255897.248,,13,government
screen,html.Screen,2_1_1_1_14,2022-05-02T10:20:56.250Z,,,,,,,,,,,,,,,,,54,,,,,,,,,,,,,,358.7520000000077,,response,,,,100,,,,,,,Space,keypress(Space),,,,,,,,-- --- ---- --- ------ ----- ------- ---- -- --- ------- --<br>------- ---------- bonds. -- ----- -- ----- -- ---- ------<br>--- ----- --- --- ------ -------- ----- --- ------ ----- --<br>----- ----- ---------- --- --- ------ ------ ---- -- ------<br>------- --- ------ ----- --- ---- ------- -- ---- --- --<br>------- ------,256258,256256,255880.582,255880,255897.248,256280.566,,14,bonds.
screen,html.Screen,2_1_1_1_15,2022-05-02T10:20:56.720Z,,,,,,,,,,,,,,,,,54,,,,,,,,,,,,,,446.4340000000084,,response,,,,100,,,,,,,Space,keypress(Space),,,,,,,,-- --- ---- --- ------ ----- ------- ---- -- --- ------- --<br>------- ---------- ------ In ----- -- ----- -- ---- ------<br>--- ----- --- --- ------ -------- ----- --- ------ ----- --<br>----- ----- ---------- --- --- ------ ------ ---- -- ------<br>------- --- ------ ----- --- ---- ------- -- ---- --- --<br>------- ------,256728,256727,256263.9,256258,256280.566,256747.214,,15,In
screen,html.Screen,2_1_1_1_16,2022-05-02T10:20:56.956Z,,,,,,,,,,,,,,,,,54,,,,,,,,,,,,,,215.78599999999278,,response,,,,100,,,,,,,Space,keypress(Space),,,,,,,,"-- --- ---- --- ------ ----- ------- ---- -- --- ------- --<br>------- ---------- ------ -- 1727, -- ----- -- ---- ------<br>--- ----- --- --- ------ -------- ----- --- ------ ----- --<br>----- ----- ---------- --- --- ------ ------ ---- -- ------<br>------- --- ------ ----- --- ---- ------- -- ---- --- --<br>------- ------",256964,256963,256730.548,256728,256747.214,256980.538,,16,"1727,"
screen,html.Screen,2_1_1_1_17,2022-05-02T10:20:57.600Z,,,,,,,,,,,,,,,,,54,,,,,,,,,,,,,,626.4619999999995,,response,,,,100,,,,,,,Space,keypress(Space),,,,,,,,-- --- ---- --- ------ ----- ------- ---- -- --- ------- --<br>------- ---------- ------ -- ----- in ----- -- ---- ------<br>--- ----- --- --- ------ -------- ----- --- ------ ----- --<br>----- ----- ---------- --- --- ------ ------ ---- -- ------<br>------- --- ------ ----- --- ---- ------- -- ---- --- --<br>------- ------,257608,257607,256963.872,256964,256980.538,257630.512,,17,in
screen,html.Screen,2_1_1_1_18,2022-05-02T10:20:58.118Z,,,,,,,,,,,,,,,,,54,,,,,,,,,,,,,,495.4880000000121,,response,,,,100,,,,,,,Space,keypress(Space),,,,,,,,-- --- ---- --- ------ ----- ------- ---- -- --- ------- --<br>------- ---------- ------ -- ----- -- order -- ---- ------<br>--- ----- --- --- ------ -------- ----- --- ------ ----- --<br>----- ----- ---------- --- --- ------ ------ ---- -- ------<br>------- --- ------ ----- --- ---- ------- -- ---- --- --<br>------- ------,258126,258126,257613.846,257608,257630.512,258147.158,,18,order
screen,html.Screen,2_1_1_1_19,2022-05-02T10:20:58.319Z,,,,,,,,,,,,,,,,,54,,,,,,,,,,,,,,179.8420000000042,,response,,,,100,,,,,,,Space,keypress(Space),,,,,,,,-- --- ---- --- ------ ----- ------- ---- -- --- ------- --<br>------- ---------- ------ -- ----- -- ----- to ---- ------<br>--- ----- --- --- ------ -------- ----- --- ------ ----- --<br>----- ----- ---------- --- --- ------ ------ ---- -- ------<br>------- --- ------ ----- --- ---- ------- -- ---- --- --<br>------- ------,258327,258327,258130.492,258126,258147.158,258347.15,,19,to
screen,html.Screen,2_1_1_1_20,2022-05-02T10:20:58.539Z,,,,,,,,,,,,,,,,,54,,,,,,,,,,,,,,198.85000000000582,,response,,,,100,,,,,,,Space,keypress(Space),,,,,,,,-- --- ---- --- ------ ----- ------- ---- -- --- ------- --<br>------- ---------- ------ -- ----- -- ----- -- save ------<br>--- ----- --- --- ------ -------- ----- --- ------ ----- --<br>----- ----- ---------- --- --- ------ ------ ---- -- ------<br>------- --- ------ ----- --- ---- ------- -- ---- --- --<br>------- ------,258547,258546,258330.484,258328,258347.15,258563.808,,20,save
screen,html.Screen,2_1_1_1_21,2022-05-02T10:20:58.797Z,,,,,,,,,,,,,,,,,54,,,,,,,,,,,,,,240.19200000001,,response,,,,100,,,,,,,Space,keypress(Space),,,,,,,,"-- --- ---- --- ------ ----- ------- ---- -- --- ------- --<br>------- ---------- ------ -- ----- -- ----- -- ---- money,<br>--- ----- --- --- ------ -------- ----- --- ------ ----- --<br>----- ----- ---------- --- --- ------ ------ ---- -- ------<br>------- --- ------ ----- --- ---- ------- -- ---- --- --<br>------- ------",258805,258804,258547.142,258547,258563.808,258813.798,,21,"money,"
screen,html.Screen,2_1_1_1_22,2022-05-02T10:20:59.303Z,,,,,,,,,,,,,,,,,54,,,,,,,,,,,,,,497.2019999999902,,response,,,,100,,,,,,,Space,keypress(Space),,,,,,,,-- --- ---- --- ------ ----- ------- ---- -- --- ------- --<br>------- ---------- ------ -- ----- -- ----- -- ---- ------<br>the ----- --- --- ------ -------- ----- --- ------ ----- --<br>----- ----- ---------- --- --- ------ ------ ---- -- ------<br>------- --- ------ ----- --- ---- ------- -- ---- --- --<br>------- ------,259311,259311,258797.132,258805,258813.798,259330.444,,22,the
screen,html.Screen,2_1_1_1_23,2022-05-02T10:20:59.532Z,,,,,,,,,,,,,,,,,54,,,,,,,,,,,,,,209.5560000000114,,response,,,,100,,,,,,,Space,keypress(Space),,,,,,,,-- --- ---- --- ------ ----- ------- ---- -- --- ------- --<br>------- ---------- ------ -- ----- -- ----- -- ---- ------<br>--- state --- --- ------ -------- ----- --- ------ ----- --<br>----- ----- ---------- --- --- ------ ------ ---- -- ------<br>------- --- ------ ----- --- ---- ------- -- ---- --- --<br>------- ------,259540,259540,259313.778,259312,259330.444,259547.102,,23,state
screen,html.Screen,2_1_1_1_24,2022-05-02T10:20:59.756Z,,,,,,,,,,,,,,,,,54,,,,,,,,,,,,,,215.8979999999865,,response,,,,100,,,,,,,Space,keypress(Space),,,,,,,,-- --- ---- --- ------ ----- ------- ---- -- --- ------- --<br>------- ---------- ------ -- ----- -- ----- -- ---- ------<br>--- ----- cut --- ------ -------- ----- --- ------ ----- --<br>----- ----- ---------- --- --- ------ ------ ---- -- ------<br>------- --- ------ ----- --- ---- ------- -- ---- --- --<br>------- ------,259764,259763,259530.436,259540,259547.102,259780.426,,24,cut
screen,html.Screen,2_1_1_1_25,2022-05-02T10:21:00.162Z,,,,,,,,,,,,,,,,,54,,,,,,,,,,,,,,388.57399999999325,,response,,,,100,,,,,,,Space,keypress(Space),,,,,,,,-- --- ---- --- ------ ----- ------- ---- -- --- ------- --<br>------- ---------- ------ -- ----- -- ----- -- ---- ------<br>--- ----- --- the ------ -------- ----- --- ------ ----- --<br>----- ----- ---------- --- --- ------ ------ ---- -- ------<br>------- --- ------ ----- --- ---- ------- -- ---- --- --<br>------- ------,260170,260169,259763.76,259764,259780.426,260180.41,,25,the
screen,html.Screen,2_1_1_1_26,2022-05-02T10:21:00.532Z,,,,,,,,,,,,,,,,,54,,,,,,,,,,,,,,358.5899999999965,,response,,,,100,,,,,,,Space,keypress(Space),,,,,,,,-- --- ---- --- ------ ----- ------- ---- -- --- ------- --<br>------- ---------- ------ -- ----- -- ----- -- ---- ------<br>--- ----- --- --- bonds' -------- ----- --- ------ ----- --<br>----- ----- ---------- --- --- ------ ------ ---- -- ------<br>------- --- ------ ----- --- ---- ------- -- ---- --- --<br>------- ------,260540,260539,260163.744,260170,260180.41,260547.062,,26,bonds'
screen,html.Screen,2_1_1_1_27,2022-05-02T10:21:00.950Z,,,,,,,,,,,,,,,,,54,,,,,,,,,,,,,,409.93799999999464,,response,,,,100,,,,,,,Space,keypress(Space),,,,,,,,-- --- ---- --- ------ ----- ------- ---- -- --- ------- --<br>------- ---------- ------ -- ----- -- ----- -- ---- ------<br>--- ----- --- --- ------ interest ----- --- ------ ----- --<br>----- ----- ---------- --- --- ------ ------ ---- -- ------<br>------- --- ------ ----- --- ---- ------- -- ---- --- --<br>------- ------,260958,260957,260530.396,260540,260547.062,260963.712,,27,interest
screen,html.Screen,2_1_1_1_28,2022-05-02T10:21:01.167Z,,,,,,,,,,,,,,,,,54,,,,,,,,,,,,,,210.28800000000047,,response,,,,100,,,,,,,Space,keypress(Space),,,,,,,,-- --- ---- --- ------ ----- ------- ---- -- --- ------- --<br>------- ---------- ------ -- ----- -- ----- -- ---- ------<br>--- ----- --- --- ------ -------- rate. --- ------ ----- --<br>----- ----- ---------- --- --- ------ ------ ---- -- ------<br>------- --- ------ ----- --- ---- ------- -- ---- --- --<br>------- ------,261175,261174,260947.046,260958,260963.712,261197.036,,28,rate.
screen,html.Screen,2_1_1_1_29,2022-05-02T10:21:01.564Z,,,,,,,,,,,,,,,,,54,,,,,,,,,,,,,,373.9640000000072,,response,,,,100,,,,,,,Space,keypress(Space),,,,,,,,-- --- ---- --- ------ ----- ------- ---- -- --- ------- --<br>------- ---------- ------ -- ----- -- ----- -- ---- ------<br>--- ----- --- --- ------ -------- ----- The ------ ----- --<br>----- ----- ---------- --- --- ------ ------ ---- -- ------<br>------- --- ------ ----- --- ---- ------- -- ---- --- --<br>------- ------,261572,261571,261180.37,261175,261197.036,261580.354,,29,The
screen,html.Screen,2_1_1_1_30,2022-05-02T10:21:01.957Z,,,,,,,,,,,,,,,,,54,,,,,,,,,,,,,,383.6460000000079,,response,,,,100,,,,,,,Space,keypress(Space),,,,,,,,-- --- ---- --- ------ ----- ------- ---- -- --- ------- --<br>------- ---------- ------ -- ----- -- ----- -- ---- ------<br>--- ----- --- --- ------ -------- ----- --- market ----- --<br>----- ----- ---------- --- --- ------ ------ ---- -- ------<br>------- --- ------ ----- --- ---- ------- -- ---- --- --<br>------- ------,261965,261964,261563.688,261572,261580.354,261980.338,,30,market
screen,html.Screen,2_1_1_1_31,2022-05-02T10:21:02.209Z,,,,,,,,,,,,,,,,,54,,,,,,,,,,,,,,236.66200000001118,,response,,,,100,,,,,,,Space,keypress(Space),,,,,,,,-- --- ---- --- ------ ----- ------- ---- -- --- ------- --<br>------- ---------- ------ -- ----- -- ----- -- ---- ------<br>--- ----- --- --- ------ -------- ----- --- ------ value --<br>----- ----- ---------- --- --- ------ ------ ---- -- ------<br>------- --- ------ ----- --- ---- ------- -- ---- --- --<br>------- ------,262217,262217,261963.672,261965,261980.338,262230.328,,31,value
screen,html.Screen,2_1_1_1_32,2022-05-02T10:21:02.576Z,,,,,,,,,,,,,,,,,54,,,,,,,,,,,,,,352.6720000000205,,response,,,,100,,,,,,,Space,keypress(Space),,,,,,,,-- --- ---- --- ------ ----- ------- ---- -- --- ------- --<br>------- ---------- ------ -- ----- -- ----- -- ---- ------<br>--- ----- --- --- ------ -------- ----- --- ------ ----- of<br>----- ----- ---------- --- --- ------ ------ ---- -- ------<br>------- --- ------ ----- --- ---- ------- -- ---- --- --<br>------- ------,262584,262583,262213.662,262218,262230.328,262596.98,,32,of
screen,html.Screen,2_1_1_1_33,2022-05-02T10:21:02.961Z,,,,,,,,,,,,,,,,,54,,,,,,,,,,,,,,371.0200000000186,,response,,,,100,,,,,,,Space,keypress(Space),,,,,,,,-- --- ---- --- ------ ----- ------- ---- -- --- ------- --<br>------- ---------- ------ -- ----- -- ----- -- ---- ------<br>--- ----- --- --- ------ -------- ----- --- ------ ----- --<br>these ----- ---------- --- --- ------ ------ ---- -- ------<br>------- --- ------ ----- --- ---- ------- -- ---- --- --<br>------- ------,262969,262968,262580.314,262584,262596.98,262980.298,,33,these
screen,html.Screen,2_1_1_1_34,2022-05-02T10:21:03.137Z,,,,,,,,,,,,,,,,,54,,,,,,,,,,,,,,163.70199999999022,,response,,,,100,,,,,,,Space,keypress(Space),,,,,,,,-- --- ---- --- ------ ----- ------- ---- -- --- ------- --<br>------- ---------- ------ -- ----- -- ----- -- ---- ------<br>--- ----- --- --- ------ -------- ----- --- ------ ----- --<br>----- bonds ---------- --- --- ------ ------ ---- -- ------<br>------- --- ------ ----- --- ---- ------- -- ---- --- --<br>------- ------,263145,263144,262963.632,262969,262980.298,263163.624,,34,bonds
screen,html.Screen,2_1_1_1_35,2022-05-02T10:21:03.398Z,,,,,,,,,,,,,,,,,54,,,,,,,,,,,,,,241.3759999999893,,response,,,,100,,,,,,,Space,keypress(Space),,,,,,,,"-- --- ---- --- ------ ----- ------- ---- -- --- ------- --<br>------- ---------- ------ -- ----- -- ----- -- ---- ------<br>--- ----- --- --- ------ -------- ----- --- ------ ----- --<br>----- ----- plummeted, --- --- ------ ------ ---- -- ------<br>------- --- ------ ----- --- ---- ------- -- ---- --- --<br>------- ------",263406,263405,263146.958,263145,263163.624,263413.614,,35,"plummeted,"
screen,html.Screen,2_1_1_1_36,2022-05-02T10:21:03.759Z,,,,,,,,,,,,,,,,,54,,,,,,,,,,,,,,352.3859999999986,,response,,,,100,,,,,,,Space,keypress(Space),,,,,,,,-- --- ---- --- ------ ----- ------- ---- -- --- ------- --<br>------- ---------- ------ -- ----- -- ----- -- ---- ------<br>--- ----- --- --- ------ -------- ----- --- ------ ----- --<br>----- ----- ---------- and --- ------ ------ ---- -- ------<br>------- --- ------ ----- --- ---- ------- -- ---- --- --<br>------- ------,263767,263766,263396.948,263406,263413.614,263780.266,,36,and
screen,html.Screen,2_1_1_1_37,2022-05-02T10:21:04.020Z,,,,,,,,,,,,,,,,,54,,,,,,,,,,,,,,246.73399999999674,,response,,,,100,,,,,,,Space,keypress(Space),,,,,,,,-- --- ---- --- ------ ----- ------- ---- -- --- ------- --<br>------- ---------- ------ -- ----- -- ----- -- ---- ------<br>--- ----- --- --- ------ -------- ----- --- ------ ----- --<br>----- ----- ---------- --- the ------ ------ ---- -- ------<br>------- --- ------ ----- --- ---- ------- -- ---- --- --<br>------- ------,264028,264027,263763.6,263767,263780.266,264046.922,,37,the
screen,html.Screen,2_1_1_1_38,2022-05-02T10:21:04.207Z,,,,,,,,,,,,,,,,,54,,,,,,,,,,,,,,168.0779999999795,,response,,,,100,,,,,,,Space,keypress(Space),,,,,,,,-- --- ---- --- ------ ----- ------- ---- -- --- ------- --<br>------- ---------- ------ -- ----- -- ----- -- ---- ------<br>--- ----- --- --- ------ -------- ----- --- ------ ----- --<br>----- ----- ---------- --- --- market ------ ---- -- ------<br>------- --- ------ ----- --- ---- ------- -- ---- --- --<br>------- ------,264215,264215,264030.256,264028,264046.922,264230.248,,38,market
screen,html.Screen,2_1_1_1_39,2022-05-02T10:21:04.589Z,,,,,,,,,,,,,,,,,54,,,,,,,,,,,,,,366.7519999999786,,response,,,,100,,,,,,,Space,keypress(Space),,,,,,,,-- --- ---- --- ------ ----- ------- ---- -- --- ------- --<br>------- ---------- ------ -- ----- -- ----- -- ---- ------<br>--- ----- --- --- ------ -------- ----- --- ------ ----- --<br>----- ----- ---------- --- --- ------ became ---- -- ------<br>------- --- ------ ----- --- ---- ------- -- ---- --- --<br>------- ------,264597,264597,264213.582,264216,264230.248,264613.566,,39,became
screen,html.Screen,2_1_1_1_40,2022-05-02T10:21:04.850Z,,,,,,,,,,,,,,,,,54,,,,,,,,,,,,,,244.43400000000838,,response,,,,100,,,,,,,Space,keypress(Space),,,,,,,,-- --- ---- --- ------ ----- ------- ---- -- --- ------- --<br>------- ---------- ------ -- ----- -- ----- -- ---- ------<br>--- ----- --- --- ------ -------- ----- --- ------ ----- --<br>----- ----- ---------- --- --- ------ ------ wary -- ------<br>------- --- ------ ----- --- ---- ------- -- ---- --- --<br>------- ------,264858,264858,264596.9,264598,264613.566,264880.222,,40,wary
screen,html.Screen,2_1_1_1_41,2022-05-02T10:21:05.175Z,,,,,,,,,,,,,,,,,54,,,,,,,,,,,,,,302.77799999999115,,response,,,,100,,,,,,,Space,keypress(Space),,,,,,,,-- --- ---- --- ------ ----- ------- ---- -- --- ------- --<br>------- ---------- ------ -- ----- -- ----- -- ---- ------<br>--- ----- --- --- ------ -------- ----- --- ------ ----- --<br>----- ----- ---------- --- --- ------ ------ ---- of ------<br>------- --- ------ ----- --- ---- ------- -- ---- --- --<br>------- ------,265183,265183,264863.556,264858,264880.222,265196.876,,41,of
screen,html.Screen,2_1_1_1_42,2022-05-02T10:21:05.574Z,,,,,,,,,,,,,,,,,54,,,,,,,,,,,,,,384.1240000000107,,response,,,,100,,,,,,,Space,keypress(Space),,,,,,,,-- --- ---- --- ------ ----- ------- ---- -- --- ------- --<br>------- ---------- ------ -- ----- -- ----- -- ---- ------<br>--- ----- --- --- ------ -------- ----- --- ------ ----- --<br>----- ----- ---------- --- --- ------ ------ ---- -- French<br>------- --- ------ ----- --- ---- ------- -- ---- --- --<br>------- ------,265582,265581,265180.21,265183,265196.876,265596.86,,42,French
screen,html.Screen,2_1_1_1_43,2022-05-02T10:21:05.971Z,,,,,,,,,,,,,,,,,54,,,,,,,,,,,,,,381.14000000001397,,response,,,,100,,,,,,,Space,keypress(Space),,,,,,,,-- --- ---- --- ------ ----- ------- ---- -- --- ------- --<br>------- ---------- ------ -- ----- -- ----- -- ---- ------<br>--- ----- --- --- ------ -------- ----- --- ------ ----- --<br>----- ----- ---------- --- --- ------ ------ ---- -- ------<br>credit. --- ------ ----- --- ---- ------- -- ---- --- --<br>------- ------,265979,265978,265580.194,265582,265596.86,265996.844,,43,credit.
screen,html.Screen,2_1_1_1_44,2022-05-02T10:21:06.393Z,,,,,,,,,,,,,,,,,54,,,,,,,,,,,,,,403.15600000001723,,response,,,,100,,,,,,,Space,keypress(Space),,,,,,,,-- --- ---- --- ------ ----- ------- ---- -- --- ------- --<br>------- ---------- ------ -- ----- -- ----- -- ---- ------<br>--- ----- --- --- ------ -------- ----- --- ------ ----- --<br>----- ----- ---------- --- --- ------ ------ ---- -- ------<br>------- The ------ ----- --- ---- ------- -- ---- --- --<br>------- ------,266401,266400,265980.178,265979,265996.844,266413.494,,44,The
screen,html.Screen,2_1_1_1_45,2022-05-02T10:21:06.650Z,,,,,,,,,,,,,,,,,54,,,,,,,,,,,,,,243.50599999999395,,response,,,,100,,,,,,,Space,keypress(Space),,,,,,,,-- --- ---- --- ------ ----- ------- ---- -- --- ------- --<br>------- ---------- ------ -- ----- -- ----- -- ---- ------<br>--- ----- --- --- ------ -------- ----- --- ------ ----- --<br>----- ----- ---------- --- --- ------ ------ ---- -- ------<br>------- --- French ----- --- ---- ------- -- ---- --- --<br>------- ------,266658,266657,266396.828,266401,266413.494,266663.484,,45,French
screen,html.Screen,2_1_1_1_46,2022-05-02T10:21:06.837Z,,,,,,,,,,,,,,,,,54,,,,,,,,,,,,,,181.51600000000326,,response,,,,100,,,,,,,Space,keypress(Space),,,,,,,,-- --- ---- --- ------ ----- ------- ---- -- --- ------- --<br>------- ---------- ------ -- ----- -- ----- -- ---- ------<br>--- ----- --- --- ------ -------- ----- --- ------ ----- --<br>----- ----- ---------- --- --- ------ ------ ---- -- ------<br>------- --- ------ state --- ---- ------- -- ---- --- --<br>------- ------,266845,266845,266646.818,266658,266663.484,266863.476,,46,state
screen,html.Screen,2_1_1_1_47,2022-05-02T10:21:07.240Z,,,,,,,,,,,,,,,,,54,,,,,,,,,,,,,,383.5239999999758,,response,,,,100,,,,,,,Space,keypress(Space),,,,,,,,-- --- ---- --- ------ ----- ------- ---- -- --- ------- --<br>------- ---------- ------ -- ----- -- ----- -- ---- ------<br>--- ----- --- --- ------ -------- ----- --- ------ ----- --<br>----- ----- ---------- --- --- ------ ------ ---- -- ------<br>------- --- ------ ----- was ---- ------- -- ---- --- --<br>------- ------,267248,267247,266846.81,266845,266863.476,267263.46,,47,was
screen,html.Screen,2_1_1_1_48,2022-05-02T10:21:07.524Z,,,,,,,,,,,,,,,,,54,,,,,,,,,,,,,,268.53999999997905,,response,,,,100,,,,,,,Space,keypress(Space),,,,,,,,-- --- ---- --- ------ ----- ------- ---- -- --- ------- --<br>------- ---------- ------ -- ----- -- ----- -- ---- ------<br>--- ----- --- --- ------ -------- ----- --- ------ ----- --<br>----- ----- ---------- --- --- ------ ------ ---- -- ------<br>------- --- ------ ----- --- left ------- -- ---- --- --<br>------- ------,267532,267532,267246.794,267248,267263.46,267546.782,,48,left
screen,html.Screen,2_1_1_1_49,2022-05-02T10:21:07.720Z,,,,,,,,,,,,,,,,,54,,,,,,,,,,,,,,181.21799999999348,,response,,,,100,,,,,,,Space,keypress(Space),,,,,,,,-- --- ---- --- ------ ----- ------- ---- -- --- ------- --<br>------- ---------- ------ -- ----- -- ----- -- ---- ------<br>--- ----- --- --- ------ -------- ----- --- ------ ----- --<br>----- ----- ---------- --- --- ------ ------ ---- -- ------<br>------- --- ------ ----- --- ---- without -- ---- --- --<br>------- ------,267728,267728,267530.116,267533,267546.782,267746.774,,49,without
screen,html.Screen,2_1_1_1_50,2022-05-02T10:21:08.062Z,,,,,,,,,,,,,,,,,54,,,,,,,,,,,,,,322.2260000000242,,response,,,,100,,,,,,,Space,keypress(Space),,,,,,,,-- --- ---- --- ------ ----- ------- ---- -- --- ------- --<br>------- ---------- ------ -- ----- -- ----- -- ---- ------<br>--- ----- --- --- ------ -------- ----- --- ------ ----- --<br>----- ----- ---------- --- --- ------ ------ ---- -- ------<br>------- --- ------ ----- --- ---- ------- an ---- --- --<br>------- ------,268070,268069,267730.108,267728,267746.774,268080.094,,50,an
screen,html.Screen,2_1_1_1_51,2022-05-02T10:21:08.282Z,,,,,,,,,,,,,,,,,54,,,,,,,,,,,,,,209.90600000001723,,response,,,,100,,,,,,,Space,keypress(Space),,,,,,,,-- --- ---- --- ------ ----- ------- ---- -- --- ------- --<br>------- ---------- ------ -- ----- -- ----- -- ---- ------<br>--- ----- --- --- ------ -------- ----- --- ------ ----- --<br>----- ----- ---------- --- --- ------ ------ ---- -- ------<br>------- --- ------ ----- --- ---- ------- -- easy --- --<br>------- ------,268290,268290,268063.428,268070,268080.094,268296.752,,51,easy
screen,html.Screen,2_1_1_1_52,2022-05-02T10:21:08.607Z,,,,,,,,,,,,,,,,,54,,,,,,,,,,,,,,318.2480000000214,,response,,,,100,,,,,,,Space,keypress(Space),,,,,,,,-- --- ---- --- ------ ----- ------- ---- -- --- ------- --<br>------- ---------- ------ -- ----- -- ----- -- ---- ------<br>--- ----- --- --- ------ -------- ----- --- ------ ----- --<br>----- ----- ---------- --- --- ------ ------ ---- -- ------<br>------- --- ------ ----- --- ---- ------- -- ---- way --<br>------- ------,268615,268615,268280.086,268291,268296.752,268630.072,,52,way
screen,html.Screen,2_1_1_1_53,2022-05-02T10:21:08.952Z,,,,,,,,,,,,,,,,,54,,,,,,,,,,,,,,328.92800000001444,,response,,,,100,,,,,,,Space,keypress(Space),,,,,,,,-- --- ---- --- ------ ----- ------- ---- -- --- ------- --<br>------- ---------- ------ -- ----- -- ----- -- ---- ------<br>--- ----- --- --- ------ -------- ----- --- ------ ----- --<br>----- ----- ---------- --- --- ------ ------ ---- -- ------<br>------- --- ------ ----- --- ---- ------- -- ---- --- of<br>------- ------,268960,268959,268613.406,268615,268630.072,268980.058,,53,of
screen,html.Screen,2_1_1_1_54,2022-05-02T10:21:09.280Z,,,,,,,,,,,,,,,,,54,,,,,,,,,,,,,,296.9419999999809,,response,,,,100,,,,,,,Space,keypress(Space),,,,,,,,-- --- ---- --- ------ ----- ------- ---- -- --- ------- --<br>------- ---------- ------ -- ----- -- ----- -- ---- ------<br>--- ----- --- --- ------ -------- ----- --- ------ ----- --<br>----- ----- ---------- --- --- ------ ------ ---- -- ------<br>------- --- ------ ----- --- ---- ------- -- ---- --- --<br>raising ------,269288,269277,268963.392,268960,268980.058,269296.712,,54,raising
screen,html.Screen,2_1_1_1_55,2022-05-02T10:21:10.474Z,,,,,,,,,,,,,,,,,54,,,,,,,,,,,,,,1185.2880000000005,,response,,,,100,,,,,,,Space,keypress(Space),,,,,,,,-- --- ---- --- ------ ----- ------- ---- -- --- ------- --<br>------- ---------- ------ -- ----- -- ----- -- ---- ------<br>--- ----- --- --- ------ -------- ----- --- ------ ----- --<br>----- ----- ---------- --- --- ------ ------ ---- -- ------<br>------- --- ------ ----- --- ---- ------- -- ---- --- --<br>------- money.,270482,270482,269280.046,269289,269296.712,270513.33,,55,money.
Item 100,flow.Loop,2_1_1_1,2022-05-02T10:21:10.475Z,,,,,,,,,,,,,,,,,,,,,,,,,,,,,,,22717.76000000001,,completion,,,,,E,,,,,,,,,,,silence,,,,,270483,270482,247747.574,247750,247764.24,270513.33,,,
Question 1,html.Screen,2_1_1_2,2022-05-02T10:21:14.300Z,,,,,,,,,,,,,,,,,,,,,,,,,,,,true,TRUE,,3793.6699999999837,,response,,,,100,E,,,,,,TRUE,click #choice-1,,,,silence,,,,,274308,274307,270479.998,270483,270513.33,274329.844,,,
Question 2,html.Screen,2_1_1_3,2022-05-02T10:21:17.180Z,,,,,,,,,,,,,,,,,,,,,,,,,,,,true,FALSE,,2857.1560000000172,,response,,,,100,E,,,,,,FALSE,click #choice-2,,,,silence,,,,,277188,277187,274296.512,274308,274329.844,277213.062,,,
Item 100,flow.Sequence,2_1_1,2022-05-02T10:21:17.180Z,,,,,,,,,,,,,,,,,,,,,,,,,,,,,,,39422.359999999986,,completion,,,,,,,,,,,,,,,,,,,,,277188,277187,237714.642,237726,237764.64,277213.062,,,
End of Practice,html.Page,2_1_2,2022-05-02T10:21:24.349Z,,,,,,,,,,,,,,,,,,,,,,,,,,,,,,,7143.938000000024,,form submission,,,,,,,,,,,,,,,,,,,,,284357,284357,277179.73,277188,277213.062,284362.776,,,
Practice,flow.Sequence,2_1,2022-05-02T10:21:24.349Z,,,,,,,,,,,,,,,,,,,,,,,,,,,,,,,88207.362,,completion,,,,,,,,,,,,,,,,,,,,,284357,284357,196116.306,196127,196149.638,284362.776,,,
Trap_instruction,html.Page,2_2_0,2022-05-02T10:21:28.492Z,,,,,,,,,,,,,,,,,,,,,,,,,,,,,,,4137.223999999987,,form submission,,,,,,,,,,,,,,,,,,,,,288500,288500,284346.11,284357,284362.776,288529.276,,,
trap_trial,html.Screen,2_2_1,2022-05-02T10:21:32.668Z,,,,,,,,,,,,,,,,,,,,,,,,,,,,true,1,,4145.723999999987,,response,,,,,,,,,,,1,click #choice-1,,,,,,,,,292676,292675,288495.944,288500,288529.276,292695.776,,,
end of trap trial,html.Page,2_2_2,2022-05-02T10:21:34.588Z,,,,,,,,,,,,,,,,,,,,,,,,,,,,,,,1900.2239999999874,,form submission,,,,,,,,,,,,,,,,,,,,,294596,294596,292679.11,292676,292695.776,294612.366,,,
Trap 1,flow.Sequence,2_2,2022-05-02T10:21:34.588Z,,,,,,,,,,,,,,,,,,,,,,,,,,,,,,,10233.223999999987,,completion,,,,,,,,,,,,,,,,,,,,,294596,294596,284346.11,284357,284362.776,294612.366,,,
Standby,html.Page,2_3_0,2022-05-02T10:21:42.589Z,,,,,,,,,,,,,,,,,,,,,,,,,,,,,,,7999.679999999993,,timeout,,,,,,,,,,,,,,,,,,,,,302597,302595.38,294595.7,294597,294612.366,302612.046,,,
Holding screen,html.Screen,2_3_1_0_0,2022-05-02T10:21:49.589Z,,,,,,,,,,,,,,,,,,,,,,,,,,,,,,,7033.052000000025,,timeout,,,,,,,,,,,,,,,,,,,,,309597,309595.1,302595.38,302597,302612.046,309645.098,,,
screen,html.Screen,2_3_1_0_1_0,2022-05-02T10:21:50.537Z,,,,,,,,,,,,,,,,,12,,,,,,,,,,,,,,897.9020000000019,,response,,,,5,E,,,,,,Space,keypress(Space),,,,silence,,,,Some ------ ------ ------- ------ --- ------- -----------<br>-- ----- --- ---- -- --- ------ ---- - ---- -- ----------<br>-- ------ ---- --- ---- --- --- --- ----- -- -------- ---<br>------ ------- -------- --- ---- -- ------- ------------ --<br>------ -- ---- -- --- ---- -- -------- -- --- ------ ------,310545,310543,309595.1,309597,309645.098,310561.728,,0,Some
screen,html.Screen,2_3_1_0_1_1,2022-05-02T10:21:50.845Z,,,,,,,,,,,,,,,,,12,,,,,,,,,,,,,,291.2719999999972,,response,,,,5,E,,,,,,Space,keypress(Space),,,,silence,,,,---- months ------ ------- ------ --- ------- -----------<br>-- ----- --- ---- -- --- ------ ---- - ---- -- ----------<br>-- ------ ---- --- ---- --- --- --- ----- -- -------- ---<br>------ ------- -------- --- ---- -- ------- ------------ --<br>------ -- ---- -- --- ---- -- -------- -- --- ------ ------,310853,310853,310545.062,310545,310561.728,310861.716,,1,months
screen,html.Screen,2_3_1_0_1_2,2022-05-02T10:21:51.261Z,,,,,,,,,,,,,,,,,12,,,,,,,,,,,,,,406.2839999999851,,response,,,,5,E,,,,,,Space,keypress(Space),,,,silence,,,,"---- ------ later, ------- ------ --- ------- -----------<br>-- ----- --- ---- -- --- ------ ---- - ---- -- ----------<br>-- ------ ---- --- ---- --- --- --- ----- -- -------- ---<br>------ ------- -------- --- ---- -- ------- ------------ --<br>------ -- ---- -- --- ---- -- -------- -- --- ------ ------",311269,311268,310845.05,310853,310861.716,311278.366,,2,"later,"
screen,html.Screen,2_3_1_0_1_3,2022-05-02T10:21:51.536Z,,,,,,,,,,,,,,,,,12,,,,,,,,,,,,,,253.63400000002002,,response,,,,5,E,,,,,,Space,keypress(Space),,,,silence,,,,---- ------ ------ Michael ------ --- ------- -----------<br>-- ----- --- ---- -- --- ------ ---- - ---- -- ----------<br>-- ------ ---- --- ---- --- --- --- ----- -- -------- ---<br>------ ------- -------- --- ---- -- ------- ------------ --<br>------ -- ---- -- --- ---- -- -------- -- --- ------ ------,311544,311532,311261.7,311269,311278.366,311561.688,,3,Michael
screen,html.Screen,2_3_1_0_1_4,2022-05-02T10:21:52.410Z,,,,,,,,,,,,,,,,,12,,,,,,,,,,,,,,855.3119999999763,,response,,,,5,E,,,,,,Space,keypress(Space),,,,silence,,,,---- ------ ------ ------- Larson --- ------- -----------<br>-- ----- --- ---- -- --- ------ ---- - ---- -- ----------<br>-- ------ ---- --- ---- --- --- --- ----- -- -------- ---<br>------ ------- -------- --- ---- -- ------- ------------ --<br>------ -- ---- -- --- ---- -- -------- -- --- ------ ------,312418,312417,311545.022,311544,311561.688,312428.32,,4,Larson
screen,html.Screen,2_3_1_0_1_5,2022-05-02T10:21:52.788Z,,,,,,,,,,,,,,,,,12,,,,,,,,,,,,,,366.679999999993,,response,,,,5,E,,,,,,Space,keypress(Space),,,,silence,,,,---- ------ ------ ------- ------ saw ------- -----------<br>-- ----- --- ---- -- --- ------ ---- - ---- -- ----------<br>-- ------ ---- --- ---- --- --- --- ----- -- -------- ---<br>------ ------- -------- --- ---- -- ------- ------------ --<br>------ -- ---- -- --- ---- -- -------- -- --- ------ ------,312796,312795,312411.654,312418,312428.32,312811.638,,5,saw
screen,html.Screen,2_3_1_0_1_6,2022-05-02T10:21:52.978Z,,,,,,,,,,,,,,,,,12,,,,,,,,,,,,,,155.36200000002282,,response,,,,5,E,,,,,,Space,keypress(Space),,,,silence,,,,---- ------ ------ ------- ------ --- another -----------<br>-- ----- --- ---- -- --- ------ ---- - ---- -- ----------<br>-- ------ ---- --- ---- --- --- --- ----- -- -------- ---<br>------ ------- -------- --- ---- -- ------- ------------ --<br>------ -- ---- -- --- ---- -- -------- -- --- ------ ------,312986,312967,312794.972,312796,312811.638,312994.964,,6,another
screen,html.Screen,2_3_1_0_1_7,2022-05-02T10:21:53.378Z,,,,,,,,,,,,,,,,,12,,,,,,,,,,,,,,390.0360000000219,,response,,,,5,E,,,,,,Space,keypress(Space),,,,silence,,,,---- ------ ------ ------- ------ --- ------- opportunity<br>-- ----- --- ---- -- --- ------ ---- - ---- -- ----------<br>-- ------ ---- --- ---- --- --- --- ----- -- -------- ---<br>------ ------- -------- --- ---- -- ------- ------------ --<br>------ -- ---- -- --- ---- -- -------- -- --- ------ ------,313386,313385,312978.298,312986,312994.964,313394.948,,7,opportunity
screen,html.Screen,2_3_1_0_1_8,2022-05-02T10:21:53.751Z,,,,,,,,,,,,,,,,,12,,,,,,,,,,,,,,364.05200000002515,,response,,,,5,E,,,,,,Space,keypress(Space),,,,silence,,,,---- ------ ------ ------- ------ --- ------- -----------<br>to ----- --- ---- -- --- ------ ---- - ---- -- ----------<br>-- ------ ---- --- ---- --- --- --- ----- -- -------- ---<br>------ ------- -------- --- ---- -- ------- ------------ --<br>------ -- ---- -- --- ---- -- -------- -- --- ------ ------,313759,313759,313378.282,313386,313394.948,313778.266,,8,to
screen,html.Screen,2_3_1_0_1_9,2022-05-02T10:21:54.092Z,,,,,,,,,,,,,,,,,12,,,,,,,,,,,,,,321.73399999999674,,response,,,,5,E,,,,,,Space,keypress(Space),,,,silence,,,,---- ------ ------ ------- ------ --- ------- -----------<br>-- stack --- ---- -- --- ------ ---- - ---- -- ----------<br>-- ------ ---- --- ---- --- --- --- ----- -- -------- ---<br>------ ------- -------- --- ---- -- ------- ------------ --<br>------ -- ---- -- --- ---- -- -------- -- --- ------ ------,314100,314100,313761.6,313759,313778.266,314111.586,,9,stack
screen,html.Screen,2_3_1_0_1_10,2022-05-02T10:21:54.446Z,,,,,,,,,,,,,,,,,12,,,,,,,,,,,,,,342.41399999998976,,response,,,,5,E,,,,,,Space,keypress(Space),,,,silence,,,,---- ------ ------ ------- ------ --- ------- -----------<br>-- ----- the ---- -- --- ------ ---- - ---- -- ----------<br>-- ------ ---- --- ---- --- --- --- ----- -- -------- ---<br>------ ------- -------- --- ---- -- ------- ------------ --<br>------ -- ---- -- --- ---- -- -------- -- --- ------ ------,314454,314454,314094.92,314100,314111.586,314461.572,,10,the
screen,html.Screen,2_3_1_0_1_11,2022-05-02T10:21:54.659Z,,,,,,,,,,,,,,,,,12,,,,,,,,,,,,,,204.42800000001444,,response,,,,5,E,,,,,,Space,keypress(Space),,,,silence,,,,---- ------ ------ ------- ------ --- ------- -----------<br>-- ----- --- odds -- --- ------ ---- - ---- -- ----------<br>-- ------ ---- --- ---- --- --- --- ----- -- -------- ---<br>------ ------- -------- --- ---- -- ------- ------------ --<br>------ -- ---- -- --- ---- -- -------- -- --- ------ ------,314667,314666,314444.906,314455,314461.572,314678.23,,11,odds
screen,html.Screen,2_3_1_0_1_12,2022-05-02T10:21:54.984Z,,,,,,,,,,,,,,,,,12,,,,,,,,,,,,,,312.7700000000186,,response,,,,5,E,,,,,,Space,keypress(Space),,,,silence,,,,---- ------ ------ ------- ------ --- ------- -----------<br>-- ----- --- ---- in --- ------ ---- - ---- -- ----------<br>-- ------ ---- --- ---- --- --- --- ----- -- -------- ---<br>------ ------- -------- --- ---- -- ------- ------------ --<br>------ -- ---- -- --- ---- -- -------- -- --- ------ ------,314992,314991,314661.564,314667,314678.23,315011.55,,12,in
screen,html.Screen,2_3_1_0_1_13,2022-05-02T10:21:55.284Z,,,,,,,,,,,,,,,,,12,,,,,,,,,,,,,,280.45000000001164,,response,,,,5,E,,,,,,Space,keypress(Space),,,,silence,,,,---- ------ ------ ------- ------ --- ------- -----------<br>-- ----- --- ---- -- his ------ ---- - ---- -- ----------<br>-- ------ ---- --- ---- --- --- --- ----- -- -------- ---<br>------ ------- -------- --- ---- -- ------- ------------ --<br>------ -- ---- -- --- ---- -- -------- -- --- ------ ------,315292,315292,314994.884,314992,315011.55,315311.538,,13,his
screen,html.Screen,2_3_1_0_1_14,2022-05-02T10:21:55.522Z,,,,,,,,,,,,,,,,,12,,,,,,,,,,,,,,216.46199999999953,,response,,,,5,E,,,,,,Space,keypress(Space),,,,silence,,,,---- ------ ------ ------- ------ --- ------- -----------<br>-- ----- --- ---- -- --- favour ---- - ---- -- ----------<br>-- ------ ---- --- ---- --- --- --- ----- -- -------- ---<br>------ ------- -------- --- ---- -- ------- ------------ --<br>------ -- ---- -- --- ---- -- -------- -- --- ------ ------,315530,315528,315294.872,315292,315311.538,315544.862,,14,favour
screen,html.Screen,2_3_1_0_1_15,2022-05-02T10:21:55.946Z,,,,,,,,,,,,,,,,,12,,,,,,,,,,,,,,407.1379999999772,,response,,,,5,E,,,,,,Space,keypress(Space),,,,silence,,,,---- ------ ------ ------- ------ --- ------- -----------<br>-- ----- --- ---- -- --- ------ with - ---- -- ----------<br>-- ------ ---- --- ---- --- --- --- ----- -- -------- ---<br>------ ------- -------- --- ---- -- ------- ------------ --<br>------ -- ---- -- --- ---- -- -------- -- --- ------ ------,315954,315952,315528.196,315530,315544.862,315961.512,,15,with
screen,html.Screen,2_3_1_0_1_16,2022-05-02T10:21:56.131Z,,,,,,,,,,,,,,,,,12,,,,,,,,,,,,,,176.4880000000121,,response,,,,5,E,,,,,,Space,keypress(Space),,,,silence,,,,---- ------ ------ ------- ------ --- ------- -----------<br>-- ----- --- ---- -- --- ------ ---- a ---- -- ----------<br>-- ------ ---- --- ---- --- --- --- ----- -- -------- ---<br>------ ------- -------- --- ---- -- ------- ------------ --<br>------ -- ---- -- --- ---- -- -------- -- --- ------ ------,316139,316138,315944.846,315954,315961.512,316161.504,,16,a
screen,html.Screen,2_3_1_0_1_17,2022-05-02T10:21:56.312Z,,,,,,,,,,,,,,,,,12,,,,,,,,,,,,,,157.49599999998463,,response,,,,5,E,,,,,,Space,keypress(Space),,,,silence,,,,---- ------ ------ ------- ------ --- ------- -----------<br>-- ----- --- ---- -- --- ------ ---- - dash -- ----------<br>-- ------ ---- --- ---- --- --- --- ----- -- -------- ---<br>------ ------- -------- --- ---- -- ------- ------------ --<br>------ -- ---- -- --- ---- -- -------- -- --- ------ ------,316320,316319,316144.838,316139,316161.504,316328.164,,17,dash
screen,html.Screen,2_3_1_0_1_18,2022-05-02T10:21:56.679Z,,,,,,,,,,,,,,,,,12,,,,,,,,,,,,,,357.83600000001024,,response,,,,5,E,,,,,,Space,keypress(Space),,,,silence,,,,---- ------ ------ ------- ------ --- ------- -----------<br>-- ----- --- ---- -- --- ------ ---- - ---- of ----------<br>-- ------ ---- --- ---- --- --- --- ----- -- -------- ---<br>------ ------- -------- --- ---- -- ------- ------------ --<br>------ -- ---- -- --- ---- -- -------- -- --- ------ ------,316687,316686,316311.498,316320,316328.164,316694.816,,18,of
screen,html.Screen,2_3_1_0_1_19,2022-05-02T10:21:57.171Z,,,,,,,,,,,,,,,,,12,,,,,,,,,,,,,,483.1840000000084,,response,,,,5,E,,,,,,Space,keypress(Space),,,,silence,,,,---- ------ ------ ------- ------ --- ------- -----------<br>-- ----- --- ---- -- --- ------ ---- - ---- -- ingenuity.<br>-- ------ ---- --- ---- --- --- --- ----- -- -------- ---<br>------ ------- -------- --- ---- -- ------- ------------ --<br>------ -- ---- -- --- ---- -- -------- -- --- ------ ------,317179,317178,316678.15,316687,316694.816,317194.796,,19,ingenuity.
screen,html.Screen,2_3_1_0_1_20,2022-05-02T10:21:58.235Z,,,,,,,,,,,,,,,,,12,,,,,,,,,,,,,,1047.204000000027,,response,,,,5,E,,,,,,Space,keypress(Space),,,,silence,,,,---- ------ ------ ------- ------ --- ------- -----------<br>-- ----- --- ---- -- --- ------ ---- - ---- -- ----------<br>He ------ ---- --- ---- --- --- --- ----- -- -------- ---<br>------ ------- -------- --- ---- -- ------- ------------ --<br>------ -- ---- -- --- ---- -- -------- -- --- ------ ------,318243,318242,317178.13,317179,317194.796,318261.42,,20,He
screen,html.Screen,2_3_1_0_1_21,2022-05-02T10:21:58.616Z,,,,,,,,,,,,,,,,,12,,,,,,,,,,,,,,362.5800000000163,,response,,,,5,E,,,,,,Space,keypress(Space),,,,silence,,,,---- ------ ------ ------- ------ --- ------- -----------<br>-- ----- --- ---- -- --- ------ ---- - ---- -- ----------<br>-- walked ---- --- ---- --- --- --- ----- -- -------- ---<br>------ ------- -------- --- ---- -- ------- ------------ --<br>------ -- ---- -- --- ---- -- -------- -- --- ------ ------,318624,318624,318244.754,318243,318261.42,318644.738,,21,walked
screen,html.Screen,2_3_1_0_1_22,2022-05-02T10:21:59.018Z,,,,,,,,,,,,,,,,,12,,,,,,,,,,,,,,380.2619999999879,,response,,,,5,E,,,,,,Space,keypress(Space),,,,silence,,,,---- ------ ------ ------- ------ --- ------- -----------<br>-- ----- --- ---- -- --- ------ ---- - ---- -- ----------<br>-- ------ into --- ---- --- --- --- ----- -- -------- ---<br>------ ------- -------- --- ---- -- ------- ------------ --<br>------ -- ---- -- --- ---- -- -------- -- --- ------ ------,319026,319025,318628.072,318624,318644.738,319044.722,,22,into
screen,html.Screen,2_3_1_0_1_23,2022-05-02T10:21:59.169Z,,,,,,,,,,,,,,,,,12,,,,,,,,,,,,,,132.27799999999115,,response,,,,5,E,,,,,,Space,keypress(Space),,,,silence,,,,---- ------ ------ ------- ------ --- ------- -----------<br>-- ----- --- ---- -- --- ------ ---- - ---- -- ----------<br>-- ------ ---- his ---- --- --- --- ----- -- -------- ---<br>------ ------- -------- --- ---- -- ------- ------------ --<br>------ -- ---- -- --- ---- -- -------- -- --- ------ ------,319177,319177,319028.056,319026,319044.722,319194.716,,23,his
screen,html.Screen,2_3_1_0_1_24,2022-05-02T10:21:59.568Z,,,,,,,,,,,,,,,,,12,,,,,,,,,,,,,,380.2839999999851,,response,,,,5,E,,,,,,Space,keypress(Space),,,,silence,,,,---- ------ ------ ------- ------ --- ------- -----------<br>-- ----- --- ---- -- --- ------ ---- - ---- -- ----------<br>-- ------ ---- --- bank --- --- --- ----- -- -------- ---<br>------ ------- -------- --- ---- -- ------- ------------ --<br>------ -- ---- -- --- ---- -- -------- -- --- ------ ------,319576,319575,319178.05,319177,319194.716,319594.7,,24,bank
screen,html.Screen,2_3_1_0_1_25,2022-05-02T10:21:59.897Z,,,,,,,,,,,,,,,,,12,,,,,,,,,,,,,,309.29999999998836,,response,,,,5,E,,,,,,Space,keypress(Space),,,,silence,,,,---- ------ ------ ------- ------ --- ------- -----------<br>-- ----- --- ---- -- --- ------ ---- - ---- -- ----------<br>-- ------ ---- --- ---- one --- --- ----- -- -------- ---<br>------ ------- -------- --- ---- -- ------- ------------ --<br>------ -- ---- -- --- ---- -- -------- -- --- ------ ------,319905,319904,319578.034,319576,319594.7,319911.354,,25,one
screen,html.Screen,2_3_1_0_1_26,2022-05-02T10:22:00.133Z,,,,,,,,,,,,,,,,,12,,,,,,,,,,,,,,228.64600000000792,,response,,,,5,E,,,,,,Space,keypress(Space),,,,silence,,,,---- ------ ------ ------- ------ --- ------- -----------<br>-- ----- --- ---- -- --- ------ ---- - ---- -- ----------<br>-- ------ ---- --- ---- --- day --- ----- -- -------- ---<br>------ ------- -------- --- ---- -- ------- ------------ --<br>------ -- ---- -- --- ---- -- -------- -- --- ------ ------,320141,320140,319894.688,319905,319911.354,320161.344,,26,day
screen,html.Screen,2_3_1_0_1_27,2022-05-02T10:22:00.288Z,,,,,,,,,,,,,,,,,12,,,,,,,,,,,,,,134.65600000001723,,response,,,,5,E,,,,,,Space,keypress(Space),,,,silence,,,,---- ------ ------ ------- ------ --- ------- -----------<br>-- ----- --- ---- -- --- ------ ---- - ---- -- ----------<br>-- ------ ---- --- ---- --- --- and ----- -- -------- ---<br>------ ------- -------- --- ---- -- ------- ------------ --<br>------ -- ---- -- --- ---- -- -------- -- --- ------ ------,320296,320296,320144.678,320141,320161.344,320311.338,,27,and
screen,html.Screen,2_3_1_0_1_28,2022-05-02T10:22:00.714Z,,,,,,,,,,,,,,,,,12,,,,,,,,,,,,,,407.6620000000112,,response,,,,5,E,,,,,,Space,keypress(Space),,,,silence,,,,---- ------ ------ ------- ------ --- ------- -----------<br>-- ----- --- ---- -- --- ------ ---- - ---- -- ----------<br>-- ------ ---- --- ---- --- --- --- asked -- -------- ---<br>------ ------- -------- --- ---- -- ------- ------------ --<br>------ -- ---- -- --- ---- -- -------- -- --- ------ ------,320722,320719,320294.672,320297,320311.338,320744.654,,28,asked
screen,html.Screen,2_3_1_0_1_29,2022-05-02T10:22:00.888Z,,,,,,,,,,,,,,,,,12,,,,,,,,,,,,,,149.34600000001956,,response,,,,5,E,,,,,,Space,keypress(Space),,,,silence,,,,---- ------ ------ ------- ------ --- ------- -----------<br>-- ----- --- ---- -- --- ------ ---- - ---- -- ----------<br>-- ------ ---- --- ---- --- --- --- ----- to -------- ---<br>------ ------- -------- --- ---- -- ------- ------------ --<br>------ -- ---- -- --- ---- -- -------- -- --- ------ ------,320896,320894,320727.988,320722,320744.654,320911.314,,29,to
screen,html.Screen,2_3_1_0_1_30,2022-05-02T10:22:01.314Z,,,,,,,,,,,,,,,,,12,,,,,,,,,,,,,,409.68599999998696,,response,,,,5,E,,,,,,Space,keypress(Space),,,,silence,,,,---- ------ ------ ------- ------ --- ------- -----------<br>-- ----- --- ---- -- --- ------ ---- - ---- -- ----------<br>-- ------ ---- --- ---- --- --- --- ----- -- withdraw ---<br>------ ------- -------- --- ---- -- ------- ------------ --<br>------ -- ---- -- --- ---- -- -------- -- --- ------ ------,321322,321321,320894.648,320896,320911.314,321327.964,,30,withdraw
screen,html.Screen,2_3_1_0_1_31,2022-05-02T10:22:01.671Z,,,,,,,,,,,,,,,,,12,,,,,,,,,,,,,,350.0360000000219,,response,,,,5,E,,,,,,Space,keypress(Space),,,,silence,,,,---- ------ ------ ------- ------ --- ------- -----------<br>-- ----- --- ---- -- --- ------ ---- - ---- -- ----------<br>-- ------ ---- --- ---- --- --- --- ----- -- -------- his<br>------ ------- -------- --- ---- -- ------- ------------ --<br>------ -- ---- -- --- ---- -- -------- -- --- ------ ------,321679,321678,321311.298,321322,321327.964,321694.616,,31,his
screen,html.Screen,2_3_1_0_1_32,2022-05-02T10:22:02.069Z,,,,,,,,,,,,,,,,,12,,,,,,,,,,,,,,381.38400000002,,response,,,,5,E,,,,,,Space,keypress(Space),,,,silence,,,,---- ------ ------ ------- ------ --- ------- -----------<br>-- ----- --- ---- -- --- ------ ---- - ---- -- ----------<br>-- ------ ---- --- ---- --- --- --- ----- -- -------- ---<br>entire ------- -------- --- ---- -- ------- ------------ --<br>------ -- ---- -- --- ---- -- -------- -- --- ------ ------,322077,322076,321677.95,321679,321694.616,322094.6,,32,entire
screen,html.Screen,2_3_1_0_1_33,2022-05-02T10:22:02.414Z,,,,,,,,,,,,,,,,,12,,,,,,,,,,,,,,326.4000000000233,,response,,,,5,E,,,,,,Space,keypress(Space),,,,silence,,,,---- ------ ------ ------- ------ --- ------- -----------<br>-- ----- --- ---- -- --- ------ ---- - ---- -- ----------<br>-- ------ ---- --- ---- --- --- --- ----- -- -------- ---<br>------ account -------- --- ---- -- ------- ------------ --<br>------ -- ---- -- --- ---- -- -------- -- --- ------ ------,322422,322421,322077.934,322077,322094.6,322444.586,,33,account
screen,html.Screen,2_3_1_0_1_34,2022-05-02T10:22:02.590Z,,,,,,,,,,,,,,,,,12,,,,,,,,,,,,,,152.41399999998976,,response,,,,5,E,,,,,,Space,keypress(Space),,,,silence,,,,"---- ------ ------ ------- ------ --- ------- -----------<br>-- ----- --- ---- -- --- ------ ---- - ---- -- ----------<br>-- ------ ---- --- ---- --- --- --- ----- -- -------- ---<br>------ ------- balance, --- ---- -- ------- ------------ --<br>------ -- ---- -- --- ---- -- -------- -- --- ------ ------",322598,322597,322427.92,322422,322444.586,322611.246,,34,"balance,"
screen,html.Screen,2_3_1_0_1_35,2022-05-02T10:22:02.892Z,,,,,,,,,,,,,,,,,12,,,,,,,,,,,,,,287.75400000001537,,response,,,,5,E,,,,,,Space,keypress(Space),,,,silence,,,,---- ------ ------ ------- ------ --- ------- -----------<br>-- ----- --- ---- -- --- ------ ---- - ---- -- ----------<br>-- ------ ---- --- ---- --- --- --- ----- -- -------- ---<br>------ ------- -------- but ---- -- ------- ------------ --<br>------ -- ---- -- --- ---- -- -------- -- --- ------ ------,322900,322899,322594.58,322598,322611.246,322911.234,,35,but
screen,html.Screen,2_3_1_0_1_36,2022-05-02T10:22:03.212Z,,,,,,,,,,,,,,,,,12,,,,,,,,,,,,,,307.76600000000326,,response,,,,5,E,,,,,,Space,keypress(Space),,,,silence,,,,---- ------ ------ ------- ------ --- ------- -----------<br>-- ----- --- ---- -- --- ------ ---- - ---- -- ----------<br>-- ------ ---- --- ---- --- --- --- ----- -- -------- ---<br>------ ------- -------- --- with -- ------- ------------ --<br>------ -- ---- -- --- ---- -- -------- -- --- ------ ------,323220,323219,322894.568,322900,322911.234,323227.888,,36,with
screen,html.Screen,2_3_1_0_1_37,2022-05-02T10:22:03.590Z,,,,,,,,,,,,,,,,,12,,,,,,,,,,,,,,369.1120000000228,,response,,,,5,E,,,,,,Space,keypress(Space),,,,silence,,,,---- ------ ------ ------- ------ --- ------- -----------<br>-- ----- --- ---- -- --- ------ ---- - ---- -- ----------<br>-- ------ ---- --- ---- --- --- --- ----- -- -------- ---<br>------ ------- -------- --- ---- an ------- ------------ --<br>------ -- ---- -- --- ---- -- -------- -- --- ------ ------,323598,323597,323211.222,323220,323227.888,323611.206,,37,an
screen,html.Screen,2_3_1_0_1_38,2022-05-02T10:22:03.770Z,,,,,,,,,,,,,,,,,12,,,,,,,,,,,,,,165.7939999999944,,response,,,,5,E,,,,,,Space,keypress(Space),,,,silence,,,,---- ------ ------ ------- ------ --- ------- -----------<br>-- ----- --- ---- -- --- ------ ---- - ---- -- ----------<br>-- ------ ---- --- ---- --- --- --- ----- -- -------- ---<br>------ ------- -------- --- ---- -- unusual ------------ --<br>------ -- ---- -- --- ---- -- -------- -- --- ------ ------,323778,323777,323594.54,323598,323611.206,323794.532,,38,unusual
screen,html.Screen,2_3_1_0_1_39,2022-05-02T10:22:04.159Z,,,,,,,,,,,,,,,,,12,,,,,,,,,,,,,,372.4679999999935,,response,,,,5,E,,,,,,Space,keypress(Space),,,,silence,,,,---- ------ ------ ------- ------ --- ------- -----------<br>-- ----- --- ---- -- --- ------ ---- - ---- -- ----------<br>-- ------ ---- --- ---- --- --- --- ----- -- -------- ---<br>------ ------- -------- --- ---- -- ------- stipulation: --<br>------ -- ---- -- --- ---- -- -------- -- --- ------ ------,324167,324167,323777.866,323778,323794.532,324177.85,,39,stipulation:
screen,html.Screen,2_3_1_0_1_40,2022-05-02T10:22:04.517Z,,,,,,,,,,,,,,,,,12,,,,,,,,,,,,,,346.1500000000233,,response,,,,5,E,,,,,,Space,keypress(Space),,,,silence,,,,---- ------ ------ ------- ------ --- ------- -----------<br>-- ----- --- ---- -- --- ------ ---- - ---- -- ----------<br>-- ------ ---- --- ---- --- --- --- ----- -- -------- ---<br>------ ------- -------- --- ---- -- ------- ------------ He<br>------ -- ---- -- --- ---- -- -------- -- --- ------ ------,324525,324524,324161.184,324167,324177.85,324544.502,,40,He
screen,html.Screen,2_3_1_0_1_41,2022-05-02T10:22:04.870Z,,,,,,,,,,,,,,,,,12,,,,,,,,,,,,,,332.4980000000214,,response,,,,5,E,,,,,,Space,keypress(Space),,,,silence,,,,---- ------ ------ ------- ------ --- ------- -----------<br>-- ----- --- ---- -- --- ------ ---- - ---- -- ----------<br>-- ------ ---- --- ---- --- --- --- ----- -- -------- ---<br>------ ------- -------- --- ---- -- ------- ------------ --<br>wanted -- ---- -- --- ---- -- -------- -- --- ------ ------,324878,324877,324527.836,324525,324544.502,324894.488,,41,wanted
screen,html.Screen,2_3_1_0_1_42,2022-05-02T10:22:05.057Z,,,,,,,,,,,,,,,,,12,,,,,,,,,,,,,,169.5119999999879,,response,,,,5,E,,,,,,Space,keypress(Space),,,,silence,,,,---- ------ ------ ------- ------ --- ------- -----------<br>-- ----- --- ---- -- --- ------ ---- - ---- -- ----------<br>-- ------ ---- --- ---- --- --- --- ----- -- -------- ---<br>------ ------- -------- --- ---- -- ------- ------------ --<br>------ as ---- -- --- ---- -- -------- -- --- ------ ------,325065,325064,324877.822,324878,324894.488,325077.814,,42,as
screen,html.Screen,2_3_1_0_1_43,2022-05-02T10:22:05.246Z,,,,,,,,,,,,,,,,,12,,,,,,,,,,,,,,175.18599999998696,,response,,,,5,E,,,,,,Space,keypress(Space),,,,silence,,,,---- ------ ------ ------- ------ --- ------- -----------<br>-- ----- --- ---- -- --- ------ ---- - ---- -- ----------<br>-- ------ ---- --- ---- --- --- --- ----- -- -------- ---<br>------ ------- -------- --- ---- -- ------- ------------ --<br>------ -- much -- --- ---- -- -------- -- --- ------ ------,325254,325253,325061.148,325065,325077.814,325261.14,,43,much
screen,html.Screen,2_3_1_0_1_44,2022-05-02T10:22:05.619Z,,,,,,,,,,,,,,,,,12,,,,,,,,,,,,,,365.85999999998603,,response,,,,5,E,,,,,,Space,keypress(Space),,,,silence,,,,---- ------ ------ ------- ------ --- ------- -----------<br>-- ----- --- ---- -- --- ------ ---- - ---- -- ----------<br>-- ------ ---- --- ---- --- --- --- ----- -- -------- ---<br>------ ------- -------- --- ---- -- ------- ------------ --<br>------ -- ---- of --- ---- -- -------- -- --- ------ ------,325627,325627,325244.474,325254,325261.14,325644.458,,44,of
screen,html.Screen,2_3_1_0_1_45,2022-05-02T10:22:05.844Z,,,,,,,,,,,,,,,,,12,,,,,,,,,,,,,,206.54200000001583,,response,,,,5,E,,,,,,Space,keypress(Space),,,,silence,,,,---- ------ ------ ------- ------ --- ------- -----------<br>-- ----- --- ---- -- --- ------ ---- - ---- -- ----------<br>-- ------ ---- --- ---- --- --- --- ----- -- -------- ---<br>------ ------- -------- --- ---- -- ------- ------------ --<br>------ -- ---- -- the ---- -- -------- -- --- ------ ------,325852,325851,325627.792,325628,325644.458,325861.116,,45,the
screen,html.Screen,2_3_1_0_1_46,2022-05-02T10:22:06.058Z,,,,,,,,,,,,,,,,,12,,,,,,,,,,,,,,203.88400000002002,,response,,,,5,E,,,,,,Space,keypress(Space),,,,silence,,,,---- ------ ------ ------- ------ --- ------- -----------<br>-- ----- --- ---- -- --- ------ ---- - ---- -- ----------<br>-- ------ ---- --- ---- --- --- --- ----- -- -------- ---<br>------ ------- -------- --- ---- -- ------- ------------ --<br>------ -- ---- -- --- cash -- -------- -- --- ------ ------,326066,326065,325844.45,325852,325861.116,326077.774,,46,cash
screen,html.Screen,2_3_1_0_1_47,2022-05-02T10:22:06.314Z,,,,,,,,,,,,,,,,,12,,,,,,,,,,,,,,243.22600000002421,,response,,,,5,E,,,,,,Space,keypress(Space),,,,silence,,,,---- ------ ------ ------- ------ --- ------- -----------<br>-- ----- --- ---- -- --- ------ ---- - ---- -- ----------<br>-- ------ ---- --- ---- --- --- --- ----- -- -------- ---<br>------ ------- -------- --- ---- -- ------- ------------ --<br>------ -- ---- -- --- ---- as -------- -- --- ------ ------,326322,326321,326061.108,326066,326077.774,326344.43,,47,as
screen,html.Screen,2_3_1_0_1_48,2022-05-02T10:22:06.603Z,,,,,,,,,,,,,,,,,12,,,,,,,,,,,,,,265.570000000007,,response,,,,5,E,,,,,,Space,keypress(Space),,,,silence,,,,---- ------ ------ ------- ------ --- ------- -----------<br>-- ----- --- ---- -- --- ------ ---- - ---- -- ----------<br>-- ------ ---- --- ---- --- --- --- ----- -- -------- ---<br>------ ------- -------- --- ---- -- ------- ------------ --<br>------ -- ---- -- --- ---- -- possible -- --- ------ ------,326611,326610,326327.764,326322,326344.43,326627.752,,48,possible
screen,html.Screen,2_3_1_0_1_49,2022-05-02T10:22:06.936Z,,,,,,,,,,,,,,,,,12,,,,,,,,,,,,,,315.2480000000214,,response,,,,5,E,,,,,,Space,keypress(Space),,,,silence,,,,---- ------ ------ ------- ------ --- ------- -----------<br>-- ----- --- ---- -- --- ------ ---- - ---- -- ----------<br>-- ------ ---- --- ---- --- --- --- ----- -- -------- ---<br>------ ------- -------- --- ---- -- ------- ------------ --<br>------ -- ---- -- --- ---- -- -------- in --- ------ ------,326944,326943,326611.086,326611,326627.752,326961.072,,49,in
screen,html.Screen,2_3_1_0_1_50,2022-05-02T10:22:07.132Z,,,,,,,,,,,,,,,,,12,,,,,,,,,,,,,,177.92800000001444,,response,,,,5,E,,,,,,Space,keypress(Space),,,,silence,,,,---- ------ ------ ------- ------ --- ------- -----------<br>-- ----- --- ---- -- --- ------ ---- - ---- -- ----------<br>-- ------ ---- --- ---- --- --- --- ----- -- -------- ---<br>------ ------- -------- --- ---- -- ------- ------------ --<br>------ -- ---- -- --- ---- -- -------- -- one ------ ------,327140,327139,326944.406,326944,326961.072,327161.064,,50,one
screen,html.Screen,2_3_1_0_1_51,2022-05-02T10:22:07.550Z,,,,,,,,,,,,,,,,,12,,,,,,,,,,,,,,395.93599999998696,,response,,,,5,E,,,,,,Space,keypress(Space),,,,silence,,,,---- ------ ------ ------- ------ --- ------- -----------<br>-- ----- --- ---- -- --- ------ ---- - ---- -- ----------<br>-- ------ ---- --- ---- --- --- --- ----- -- -------- ---<br>------ ------- -------- --- ---- -- ------- ------------ --<br>------ -- ---- -- --- ---- -- -------- -- --- dollar ------,327558,327557,327144.398,327140,327161.064,327577.714,,51,dollar
screen,html.Screen,2_3_1_0_1_52,2022-05-02T10:22:08.888Z,,,,,,,,,,,,,,,,,12,,,,,,,,,,,,,,1317.2860000000219,,response,,,,5,E,,,,,,Space,keypress(Space),,,,silence,,,,---- ------ ------ ------- ------ --- ------- -----------<br>-- ----- --- ---- -- --- ------ ---- - ---- -- ----------<br>-- ------ ---- --- ---- --- --- --- ----- -- -------- ---<br>------ ------- -------- --- ---- -- ------- ------------ --<br>------ -- ---- -- --- ---- -- -------- -- --- ------ notes.,328896,328895,327561.048,327558,327577.714,328944.326,,52,notes.
Item 5,flow.Loop,2_3_1_0_1,2022-05-02T10:22:08.888Z,,,,,,,,,,,,,,,,,,,,,,,,,,,,,,,19249.902000000002,,completion,,,,,,,,,,,,,,,,,,,,,328896,328895,309595.1,309597,309645.098,328944.326,,,
Question 1,html.Screen,2_3_1_0_2,2022-05-02T10:22:11.824Z,,,,,,,,,,,,,,,,,,,,,,,,,,,,true,TRUE,,2886.673999999999,,response,,,,5,E,,,,,,TRUE,click #choice-1,,,,silence,,,,,331832,331831,328894.328,328896,328944.326,331844.21,,,
Question 2,html.Screen,2_3_1_0_3,2022-05-02T10:22:15.039Z,,,,,,,,,,,,,,,,,,,,,,,,,,,,true,TRUE,,3201.789999999979,,response,,,,5,E,,,,,,TRUE,click #choice-1,,,,silence,,,,,335047,335046,331827.544,331832,331844.21,335077.414,,,
Item 5,flow.Sequence,2_3_1_0,2022-05-02T10:22:15.039Z,,,,,,,,,,,,,,,,,,,,,,,,,,,,,,,32433.954000000027,,completion,,,,,,,,,,,,,,,,,,,,,335047,335046,302595.38,302597,302612.046,335077.414,,,
