sender,sender_type,sender_id,timestamp,meta,,Blues,Classical,Country,Dance,Electronic,Folk,Gospel,Hip-Hop,Jazz,Latin,Musical/Film,New-age,Pop,Prolific_id,Provo_ID,R&B,Rap,Reggae,Religious,Rock,Soul,Swing,Traditional,age,artist_name,correct,correctResponse,distraction,duration,education,ended_on,familiarity,gender,headphone_check_performance,item,list,music_frequency,offensiveness,pleasantness,position_correct,preference,response,response_action,snippet_file,song_name,song_rating,sound,stimulus_1,stimulus_2,stimulus_3,text,time_commit,time_end,time_render,time_run,time_show,time_switch,url,word,word_ID
Prolific ID,html.Form,0,2022-05-02T11:14:43.368Z,"{""labjs_version"":""20.2.2"",""labjs_build"":{""flavor"":""production"",""commit"":""a25486e0c714a0ae2ce03ff94b7bb6896854dcfa""},""location"":""https://run.pavlovia.org/mvasilev/prolific3_music_f/"",""userAgent"":""Mozilla/5.0 (Windows NT 10.0; Win64; x64; rv:99.0) Gecko/20100101 Firefox/99.0"",""platform"":""Win32"",""language"":""en-GB"",""locale"":""en-GB"",""timeZone"":""Europe/London"",""timezoneOffset"":-60,""screen_width"":1920,""screen_height"":1080,""scroll_width"":1920,""scroll_height"":907,""window_innerWidth"":1920,""window_innerHeight"":955,""devicePixelRatio"":1}",,,,,,,,,,,,,,,5dd05d80b2204f1487f7812c,,,,,,,,,,,,,,,2953.4799999999996,,form submission,,,,,,,,,,,,,,,,,,,,,10893,10892,7936.94,7937,7938.52,10892.52,{},,
Introduction,html.Screen,1_0,2022-05-02T11:14:49.426Z,,,,,,,,,,,,,,,,,,,,,,,,,,,,,,,6054.48,,response,,,,,,,,,,,continue,click button,,,,,,,,,16952,16947,10890.96,10893,10892.52,16952.68,,,
Volume calibration,html.Screen,1_1,2022-05-02T11:15:04.472Z,,,,,,,,,,,,,,,,,,,,,,,,,,,,,,,15040.32,,response,,,,,,,,,,,continue,click button,,,,,,,,,31997,31993,16950.62,16952,16952.68,31999.94,,,
Task instructions,html.Screen,1_2,2022-05-02T11:15:10.188Z,,,,,,,,,,,,,,,,,,,,,,,,,,,,,,,5696.060000000001,,response,,,,,,,,,,,continue,click button,,,,,,,,,37712,37696,31996.3,31998,31999.94,37714.22,,,
Sounds,html.Screen,1_3_0_0,2022-05-02T11:15:14.436Z,,,,,,,,,,,,,,,,,,,,,,,,,,,,,,,4249.8399999999965,,timeout,,,,,,,,,3,,,,,,,,O,I,S,,41961,41959.9,37712.12,37713,37714.22,41964.06,,,
Judgement,html.Screen,1_3_0_1,2022-05-02T11:15:15.895Z,,,,,,,,,,,,,,,,,,,,,,,,,,,,true,3,,1450.9400000000023,,response,,,,,,,,,3,,3,click #choice-3,,,,,O,I,S,,43420,43415,41959.9,41961,41964.06,43420.24,,,
Trial,flow.Sequence,1_3_0,2022-05-02T11:15:15.895Z,,,,,,,,,,,,,,,,,,,,,,,,,,,,,,,5700.779999999999,,completion,,,,,,,,,3,,,,,,,,O,I,S,,43420,43415,37712.12,37713,37714.22,43420.24,,,
Sounds,html.Screen,1_3_1_0,2022-05-02T11:15:20.142Z,,,,,,,,,,,,,,,,,,,,,,,,,,,,,,,4249.840000000004,,timeout,,,,,,,,,1,,,,,,,,S,I,O,,47667,47665.92,43419.88,43421,43420.24,47670.08,,,
Judgement,html.Screen,1_3_1_1,2022-05-02T11:15:20.912Z,,,,,,,,,,,,,,,,,,,,,,,,,,,,true,1,,760.9199999999983,,response,,,,,,,,,1,,1,click #choice-1,,,,,S,I,O,,48438,48431,47665.92,47667,47670.08,48440.92,,,
Trial,flow.Sequence,1_3_1,2022-05-02T11:15:20.913Z,,,,,,,,,,,,,,,,,,,,,,,,,,,,,,,5010.760000000002,,completion,,,,,,,,,1,,,,,,,,S,I,O,,48438,48431,43419.88,43420,43420.24,48440.92,,,
Sounds,html.Screen,1_3_2_0,2022-05-02T11:15:25.163Z,,,,,,,,,,,,,,,,,,,,,,,,,,,,,,,4249.82,,timeout,,,,,,,,,2,,,,,,,,O,S,I,,52689,52686.58,48437.26,48438,48440.92,52690.74,,,
Judgement,html.Screen,1_3_2_1,2022-05-02T11:15:25.836Z,,,,,,,,,,,,,,,,,,,,,,,,,,,,true,2,,662.260000000002,,response,,,,,,,,,2,,2,click #choice-2,,,,,O,S,I,,53361,53353,52686.58,52689,52690.74,53363.58,,,
Trial,flow.Sequence,1_3_2,2022-05-02T11:15:25.836Z,,,,,,,,,,,,,,,,,,,,,,,,,,,,,,,4912.080000000002,,completion,,,,,,,,,2,,,,,,,,O,S,I,,53362,53353,48437.26,48438,48440.92,53363.58,,,
Sounds,html.Screen,1_3_3_0,2022-05-02T11:15:30.085Z,,,,,,,,,,,,,,,,,,,,,,,,,,,,,,,4249.779999999999,,timeout,,,,,,,,,1,,,,,,,,S,O,I,,57610,57609.2,53360.78,53362,53363.58,57613.36,,,
Judgement,html.Screen,1_3_3_1,2022-05-02T11:15:30.734Z,,,,,,,,,,,,,,,,,,,,,,,,,,,,true,1,,629.6399999999994,,response,,,,,,,,,1,,1,click #choice-1,,,,,S,O,I,,58259,58243,57609.2,57610,57613.36,58259.2,,,
Trial,flow.Sequence,1_3_3,2022-05-02T11:15:30.734Z,,,,,,,,,,,,,,,,,,,,,,,,,,,,,,,4879.419999999998,,completion,,,,,,,,,1,,,,,,,,S,O,I,,58259,58243,53360.78,53362,53363.58,58259.2,,,
Sounds,html.Screen,1_3_4_0,2022-05-02T11:15:34.981Z,,,,,,,,,,,,,,,,,,,,,,,,,,,,,,,4249.840000000004,,timeout,,,,,,,,,2,,,,,,,,I,S,O,,62506,62504.86,58258.4,58260,58259.2,62509.04,,,
Judgement,html.Screen,1_3_4_1,2022-05-02T11:15:35.580Z,,,,,,,,,,,,,,,,,,,,,,,,,,,,true,2,,593.9599999999991,,response,,,,,,,,,2,,2,click #choice-2,,,,,I,S,O,,63105,63103,62504.86,62506,62509.04,63104.86,,,
Trial,flow.Sequence,1_3_4,2022-05-02T11:15:35.580Z,,,,,,,,,,,,,,,,,,,,,,,,,,,,,,,4843.800000000003,,completion,,,,,,,,,2,,,,,,,,I,S,O,,63105,63103,58258.4,58260,58259.2,63104.86,,,
Sounds,html.Screen,1_3_5_0,2022-05-02T11:15:39.827Z,,,,,,,,,,,,,,,,,,,,,,,,,,,,,,,4251.819999999992,,timeout,,,,,,,,,3,,,,,,,,I,O,S,,67352,67352.52,63104.7,63105,63104.86,67356.68,,,
Judgement,html.Screen,1_3_5_1,2022-05-02T11:15:40.375Z,,,,,,,,,,,,,,,,,,,,,,,,,,,,true,3,,528.320000000007,,response,,,,,,,,,3,,3,click #choice-3,,,,,I,O,S,,67899,67885,67352.52,67353,67356.68,67902.52,,,
Trial,flow.Sequence,1_3_5,2022-05-02T11:15:40.375Z,,,,,,,,,,,,,,,,,,,,,,,,,,,,,,,4780.139999999999,,completion,,,,,,,,,3,,,,,,,,I,O,S,,67900,67885,63104.7,63105,63104.86,67902.52,,,
Task,flow.Loop,1_3,2022-05-02T11:15:40.375Z,,,,,,,,,,,,,,,,,,,,,,,,,,,,,,,30170.78,,completion,,,1,,,,,,,,,,,,,,,,,,67900,67885,37712.12,37713,37714.22,67902.52,,,
Trap,html.Screen,1_4,2022-05-02T11:15:40.377Z,,,,,,,,,,,,,,,,,,,,,,,,,,,,,,,NaN,,skipped,,,,,,,,,,,,,,,,,,,,,67902,67885,,67902,,67902.52,,,
Thanks,html.Screen,1_5,2022-05-02T11:15:44.642Z,,,,,,,,,,,,,,,,,,,,,,,,,,,,,,,4263.479999999996,,response,,,,,,,,,,,continue,click button,,,,,,,,,72167,72166,67899.32,67902,67902.52,77010.46,,,
Headphone screening,flow.Sequence,1,2022-05-02T11:15:44.642Z,,,,,,,,,,,,,,,,,,,,,,,,,,,,,,,61273.479999999996,,completion,,,,,,,,,,,,,,,,,,,,,72168,72166,10890.96,10893,10892.52,77010.46,,,
Instructions,html.Page,2_0,2022-05-02T11:16:11.216Z,,,,,,,,,,,,,,,,,,,,,,,,,,,,,,,21731.539999999994,,form submission,,,,,,,,,,,,,,,,,,,,,98742,98742,77006.3,77006,77010.46,98740.78,,,
Holding screen,html.Screen,2_1_0_0,2022-05-02T11:16:21.214Z,,,,,,,,,,,,,,,,,,,,,,,,,,,,,,,10001.660000000003,,timeout,,,,,,,,,,,,,,,,,,,,,108739,108738.28,98739.72,98742,98740.78,108742.44,,,
screen,html.Screen,2_1_0_1_0,2022-05-02T11:16:23.159Z,,,,,,,,,,,,,,,,,53,,,,,,,,,,,,,,1938.5599999999977,,response,,,,99,,,,,,,Space,keypress(Space),,,,,,,,When -- ----- -- ------ - ------- --- ----------<br>------------- ------ ------ ---- ---- ------- ----- -- ----<br>-------- ------- -- ---------- --- - --- ----- ----- ----<br>---- --- --- ----- --- ---- ---- ------- ----- ---- -------<br>--- --- -- ----- -- --- ---- -- --- ---- -- ------ ------<br>--- ----- -- ----,110685,110681,108738.28,108739,108742.44,110686.12,,0,When
screen,html.Screen,2_1_0_1_1,2022-05-02T11:16:24.741Z,,,,,,,,,,,,,,,,,53,,,,,,,,,,,,,,1573.8800000000047,,response,,,,99,,,,,,,Space,keypress(Space),,,,,,,,---- it ----- -- ------ - ------- --- ----------<br>------------- ------ ------ ---- ---- ------- ----- -- ----<br>-------- ------- -- ---------- --- - --- ----- ----- ----<br>---- --- --- ----- --- ---- ---- ------- ----- ---- -------<br>--- --- -- ----- -- --- ---- -- --- ---- -- ------ ------<br>--- ----- -- ----,112266,112260,110685.24,110686,110686.12,112269.46,,1,it
screen,html.Screen,2_1_0_1_2,2022-05-02T11:16:25.821Z,,,,,,,,,,,,,,,,,53,,,,,,,,,,,,,,1067.5399999999936,,response,,,,99,,,,,,,Space,keypress(Space),,,,,,,,---- -- comes -- ------ - ------- --- ----------<br>------------- ------ ------ ---- ---- ------- ----- -- ----<br>-------- ------- -- ---------- --- - --- ----- ----- ----<br>---- --- --- ----- --- ---- ---- ------- ----- ---- -------<br>--- --- -- ----- -- --- ---- -- --- ---- -- ------ ------<br>--- ----- -- ----,113346,113337,112266.38,112266,112269.46,113346.44,,2,comes
screen,html.Screen,2_1_0_1_3,2022-05-02T11:16:26.908Z,,,,,,,,,,,,,,,,,53,,,,,,,,,,,,,,1084.5599999999977,,response,,,,99,,,,,,,Space,keypress(Space),,,,,,,,---- -- ----- to ------ - ------- --- ----------<br>------------- ------ ------ ---- ---- ------- ----- -- ----<br>-------- ------- -- ---------- --- - --- ----- ----- ----<br>---- --- --- ----- --- ---- ---- ------- ----- ---- -------<br>--- --- -- ----- -- --- ---- -- --- ---- -- ------ ------<br>--- ----- -- ----,114434,114431,113346.34,113346,113346.44,114435.94,,3,to
screen,html.Screen,2_1_0_1_4,2022-05-02T11:16:27.869Z,,,,,,,,,,,,,,,,,53,,,,,,,,,,,,,,948.0599999999977,,response,,,,99,,,,,,,Space,keypress(Space),,,,,,,,---- -- ----- -- having - ------- --- ----------<br>------------- ------ ------ ---- ---- ------- ----- -- ----<br>-------- ------- -- ---------- --- - --- ----- ----- ----<br>---- --- --- ----- --- ---- ---- ------- ----- ---- -------<br>--- --- -- ----- -- --- ---- -- --- ---- -- ------ ------<br>--- ----- -- ----,115394,115384,114434.4,114435,114435.94,115398.44,,4,having
screen,html.Screen,2_1_0_1_5,2022-05-02T11:16:28.661Z,,,,,,,,,,,,,,,,,53,,,,,,,,,,,,,,782.5599999999977,,response,,,,99,,,,,,,Space,keypress(Space),,,,,,,,---- -- ----- -- ------ a ------- --- ----------<br>------------- ------ ------ ---- ---- ------- ----- -- ----<br>-------- ------- -- ---------- --- - --- ----- ----- ----<br>---- --- --- ----- --- ---- ---- ------- ----- ---- -------<br>--- --- -- ----- -- --- ---- -- --- ---- -- ------ ------<br>--- ----- -- ----,116187,116181,115394.48,115394,115398.44,116190.12,,5,a
screen,html.Screen,2_1_0_1_6,2022-05-02T11:16:29.469Z,,,,,,,,,,,,,,,,,53,,,,,,,,,,,,,,787.8800000000047,,response,,,,99,,,,,,,Space,keypress(Space),,,,,,,,---- -- ----- -- ------ - lasting --- ----------<br>------------- ------ ------ ---- ---- ------- ----- -- ----<br>-------- ------- -- ---------- --- - --- ----- ----- ----<br>---- --- --- ----- --- ---- ---- ------- ----- ---- -------<br>--- --- -- ----- -- --- ---- -- --- ---- -- ------ ------<br>--- ----- -- ----,116994,116978,116186.58,116187,116190.12,116996.28,,6,lasting
screen,html.Screen,2_1_0_1_7,2022-05-02T11:16:30.341Z,,,,,,,,,,,,,,,,,53,,,,,,,,,,,,,,856.7200000000012,,response,,,,99,,,,,,,Space,keypress(Space),,,,,,,,---- -- ----- -- ------ - ------- and ----------<br>------------- ------ ------ ---- ---- ------- ----- -- ----<br>-------- ------- -- ---------- --- - --- ----- ----- ----<br>---- --- --- ----- --- ---- ---- ------- ----- ---- -------<br>--- --- -- ----- -- --- ---- -- --- ---- -- ------ ------<br>--- ----- -- ----,117866,117853,116994.26,116995,116996.28,117867.12,,7,and
screen,html.Screen,2_1_0_1_8,2022-05-02T11:16:31.317Z,,,,,,,,,,,,,,,,,53,,,,,,,,,,,,,,969.8800000000047,,response,,,,99,,,,,,,Space,keypress(Space),,,,,,,,---- -- ----- -- ------ - ------- --- fulfilling<br>------------- ------ ------ ---- ---- ------- ----- -- ----<br>-------- ------- -- ---------- --- - --- ----- ----- ----<br>---- --- --- ----- --- ---- ---- ------- ----- ---- -------<br>--- --- -- ----- -- --- ---- -- --- ---- -- ------ ------<br>--- ----- -- ----,118842,118837,117866.28,117867,117867.12,118844.12,,8,fulfilling
screen,html.Screen,2_1_0_1_9,2022-05-02T11:16:32.532Z,,,,,,,,,,,,,,,,,53,,,,,,,,,,,,,,1211.8800000000047,,response,,,,99,,,,,,,Space,keypress(Space),,,,,,,,"---- -- ----- -- ------ - ------- --- ----------<br>relationship, ------ ------ ---- ---- ------- ----- -- ----<br>-------- ------- -- ---------- --- - --- ----- ----- ----<br>---- --- --- ----- --- ---- ---- ------- ----- ---- -------<br>--- --- -- ----- -- --- ---- -- --- ---- -- ------ ------<br>--- ----- -- ----",120058,120056,118842.42,118843,118844.12,120060.78,,9,"relationship,"
screen,html.Screen,2_1_0_1_10,2022-05-02T11:16:33.325Z,,,,,,,,,,,,,,,,,53,,,,,,,,,,,,,,776.2200000000012,,response,,,,99,,,,,,,Space,keypress(Space),,,,,,,,---- -- ----- -- ------ - ------- --- ----------<br>------------- common ------ ---- ---- ------- ----- -- ----<br>-------- ------- -- ---------- --- - --- ----- ----- ----<br>---- --- --- ----- --- ---- ---- ------- ----- ---- -------<br>--- --- -- ----- -- --- ---- -- --- ---- -- ------ ------<br>--- ----- -- ----,120850,120837,120058.18,120058,120060.78,120850.28,,10,common
screen,html.Screen,2_1_0_1_11,2022-05-02T11:16:34.157Z,,,,,,,,,,,,,,,,,53,,,,,,,,,,,,,,814.7200000000012,,response,,,,99,,,,,,,Space,keypress(Space),,,,,,,,---- -- ----- -- ------ - ------- --- ----------<br>------------- ------ wisdom ---- ---- ------- ----- -- ----<br>-------- ------- -- ---------- --- - --- ----- ----- ----<br>---- --- --- ----- --- ---- ---- ------- ----- ---- -------<br>--- --- -- ----- -- --- ---- -- --- ---- -- ------ ------<br>--- ----- -- ----,121682,121665,120850.1,120850,120850.28,121683.62,,11,wisdom
screen,html.Screen,2_1_0_1_12,2022-05-02T11:16:34.881Z,,,,,,,,,,,,,,,,,53,,,,,,,,,,,,,,717.3800000000047,,response,,,,99,,,,,,,Space,keypress(Space),,,,,,,,---- -- ----- -- ------ - ------- --- ----------<br>------------- ------ ------ says ---- ------- ----- -- ----<br>-------- ------- -- ---------- --- - --- ----- ----- ----<br>---- --- --- ----- --- ---- ---- ------- ----- ---- -------<br>--- --- -- ----- -- --- ---- -- --- ---- -- ------ ------<br>--- ----- -- ----,122407,122401,121682.2,121682,121683.62,122408.62,,12,says
screen,html.Screen,2_1_0_1_13,2022-05-02T11:16:35.765Z,,,,,,,,,,,,,,,,,53,,,,,,,,,,,,,,867.3800000000047,,response,,,,99,,,,,,,Space,keypress(Space),,,,,,,,---- -- ----- -- ------ - ------- --- ----------<br>------------- ------ ------ ---- that ------- ----- -- ----<br>-------- ------- -- ---------- --- - --- ----- ----- ----<br>---- --- --- ----- --- ---- ---- ------- ----- ---- -------<br>--- --- -- ----- -- --- ---- -- --- ---- -- ------ ------<br>--- ----- -- ----,123290,123276,122406.22,122407,122408.62,123293.96,,13,that
screen,html.Screen,2_1_0_1_14,2022-05-02T11:16:36.429Z,,,,,,,,,,,,,,,,,53,,,,,,,,,,,,,,653.0399999999936,,response,,,,99,,,,,,,Space,keypress(Space),,,,,,,,---- -- ----- -- ------ - ------- --- ----------<br>------------- ------ ------ ---- ---- feeling ----- -- ----<br>-------- ------- -- ---------- --- - --- ----- ----- ----<br>---- --- --- ----- --- ---- ---- ------- ----- ---- -------<br>--- --- -- ----- -- --- ---- -- --- ---- -- ------ ------<br>--- ----- -- ----,123954,123947,123290.14,123290,123293.96,123956.46,,14,feeling
screen,html.Screen,2_1_0_1_15,2022-05-02T11:16:37.109Z,,,,,,,,,,,,,,,,,53,,,,,,,,,,,,,,661.5399999999936,,response,,,,99,,,,,,,Space,keypress(Space),,,,,,,,---- -- ----- -- ------ - ------- --- ----------<br>------------- ------ ------ ---- ---- ------- close -- ----<br>-------- ------- -- ---------- --- - --- ----- ----- ----<br>---- --- --- ----- --- ---- ---- ------- ----- ---- -------<br>--- --- -- ----- -- --- ---- -- --- ---- -- ------ ------<br>--- ----- -- ----,124634,124618,123954.16,123954,123956.46,124637.62,,15,close
screen,html.Screen,2_1_0_1_16,2022-05-02T11:16:37.828Z,,,,,,,,,,,,,,,,,53,,,,,,,,,,,,,,715.3800000000047,,response,,,,99,,,,,,,Space,keypress(Space),,,,,,,,---- -- ----- -- ------ - ------- --- ----------<br>------------- ------ ------ ---- ---- ------- ----- to ----<br>-------- ------- -- ---------- --- - --- ----- ----- ----<br>---- --- --- ----- --- ---- ---- ------- ----- ---- -------<br>--- --- -- ----- -- --- ---- -- --- ---- -- ------ ------<br>--- ----- -- ----,125354,125353,124634.24,124634,124637.62,125354.28,,16,to
screen,html.Screen,2_1_0_1_17,2022-05-02T11:16:38.396Z,,,,,,,,,,,,,,,,,53,,,,,,,,,,,,,,560.7200000000012,,response,,,,99,,,,,,,Space,keypress(Space),,,,,,,,---- -- ----- -- ------ - ------- --- ----------<br>------------- ------ ------ ---- ---- ------- ----- -- your<br>-------- ------- -- ---------- --- - --- ----- ----- ----<br>---- --- --- ----- --- ---- ---- ------- ----- ---- -------<br>--- --- -- ----- -- --- ---- -- --- ---- -- ------ ------<br>--- ----- -- ----,125922,125915,125354.12,125355,125354.28,125925.12,,17,your
screen,html.Screen,2_1_0_1_18,2022-05-02T11:16:39.205Z,,,,,,,,,,,,,,,,,53,,,,,,,,,,,,,,802.8800000000047,,response,,,,99,,,,,,,Space,keypress(Space),,,,,,,,---- -- ----- -- ------ - ------- --- ----------<br>------------- ------ ------ ---- ---- ------- ----- -- ----<br>romantic ------- -- ---------- --- - --- ----- ----- ----<br>---- --- --- ----- --- ---- ---- ------- ----- ---- -------<br>--- --- -- ----- -- --- ---- -- --- ---- -- ------ ------<br>--- ----- -- ----,126730,126728,125922.14,125922,125925.12,126731.28,,18,romantic
screen,html.Screen,2_1_0_1_19,2022-05-02T11:16:39.909Z,,,,,,,,,,,,,,,,,53,,,,,,,,,,,,,,699.7200000000012,,response,,,,99,,,,,,,Space,keypress(Space),,,,,,,,---- -- ----- -- ------ - ------- --- ----------<br>------------- ------ ------ ---- ---- ------- ----- -- ----<br>-------- partner -- ---------- --- - --- ----- ----- ----<br>---- --- --- ----- --- ---- ---- ------- ----- ---- -------<br>--- --- -- ----- -- --- ---- -- --- ---- -- ------ ------<br>--- ----- -- ----,127434,127431,126730.12,126730,126731.28,127435.46,,19,partner
screen,html.Screen,2_1_0_1_20,2022-05-02T11:16:40.440Z,,,,,,,,,,,,,,,,,53,,,,,,,,,,,,,,526.5399999999936,,response,,,,99,,,,,,,Space,keypress(Space),,,,,,,,---- -- ----- -- ------ - ------- --- ----------<br>------------- ------ ------ ---- ---- ------- ----- -- ----<br>-------- ------- is ---------- --- - --- ----- ----- ----<br>---- --- --- ----- --- ---- ---- ------- ----- ---- -------<br>--- --- -- ----- -- --- ---- -- --- ---- -- ------ ------<br>--- ----- -- ----,127966,127962,127434.16,127434,127435.46,127968.78,,20,is
screen,html.Screen,2_1_0_1_21,2022-05-02T11:16:41.756Z,,,,,,,,,,,,,,,,,53,,,,,,,,,,,,,,1306.2200000000012,,response,,,,99,,,,,,,Space,keypress(Space),,,,,,,,---- -- ----- -- ------ - ------- --- ----------<br>------------- ------ ------ ---- ---- ------- ----- -- ----<br>-------- ------- -- paramount. --- - --- ----- ----- ----<br>---- --- --- ----- --- ---- ---- ------- ----- ---- -------<br>--- --- -- ----- -- --- ---- -- --- ---- -- ------ ------<br>--- ----- -- ----,129282,129275,127965.96,127966,127968.78,129283.3,,21,paramount.
screen,html.Screen,2_1_0_1_22,2022-05-02T11:16:42.316Z,,,,,,,,,,,,,,,,,53,,,,,,,,,,,,,,553.6999999999971,,response,,,,99,,,,,,,Space,keypress(Space),,,,,,,,---- -- ----- -- ------ - ------- --- ----------<br>------------- ------ ------ ---- ---- ------- ----- -- ----<br>-------- ------- -- ---------- But - --- ----- ----- ----<br>---- --- --- ----- --- ---- ---- ------- ----- ---- -------<br>--- --- -- ----- -- --- ---- -- --- ---- -- ------ ------<br>--- ----- -- ----,129842,129837,129282.36,129282,129283.3,129845.8,,22,But
screen,html.Screen,2_1_0_1_23,2022-05-02T11:16:42.797Z,,,,,,,,,,,,,,,,,53,,,,,,,,,,,,,,460.1999999999971,,response,,,,99,,,,,,,Space,keypress(Space),,,,,,,,---- -- ----- -- ------ - ------- --- ----------<br>------------- ------ ------ ---- ---- ------- ----- -- ----<br>-------- ------- -- ---------- --- a --- ----- ----- ----<br>---- --- --- ----- --- ---- ---- ------- ----- ---- -------<br>--- --- -- ----- -- --- ---- -- --- ---- -- ------ ------<br>--- ----- -- ----,130322,130306,129842.18,129842,129845.8,130324.96,,23,a
screen,html.Screen,2_1_0_1_24,2022-05-02T11:16:43.437Z,,,,,,,,,,,,,,,,,53,,,,,,,,,,,,,,622.0399999999936,,response,,,,99,,,,,,,Space,keypress(Space),,,,,,,,---- -- ----- -- ------ - ------- --- ----------<br>------------- ------ ------ ---- ---- ------- ----- -- ----<br>-------- ------- -- ---------- --- - new ----- ----- ----<br>---- --- --- ----- --- ---- ---- ------- ----- ---- -------<br>--- --- -- ----- -- --- ---- -- --- ---- -- ------ ------<br>--- ----- -- ----,130962,130947,130322.36,130322,130324.96,130964.48,,24,new
screen,html.Screen,2_1_0_1_25,2022-05-02T11:16:43.966Z,,,,,,,,,,,,,,,,,53,,,,,,,,,,,,,,513.5200000000041,,response,,,,99,,,,,,,Space,keypress(Space),,,,,,,,---- -- ----- -- ------ - ------- --- ----------<br>------------- ------ ------ ---- ---- ------- ----- -- ----<br>-------- ------- -- ---------- --- - --- study ----- ----<br>---- --- --- ----- --- ---- ---- ------- ----- ---- -------<br>--- --- -- ----- -- --- ---- -- --- ---- -- ------ ------<br>--- ----- -- ----,131492,131478,130962.1,130962,130964.48,131493.64,,25,study
screen,html.Screen,2_1_0_1_26,2022-05-02T11:16:44.412Z,,,,,,,,,,,,,,,,,53,,,,,,,,,,,,,,438.35999999998603,,response,,,,99,,,,,,,Space,keypress(Space),,,,,,,,---- -- ----- -- ------ - ------- --- ----------<br>------------- ------ ------ ---- ---- ------- ----- -- ----<br>-------- ------- -- ---------- --- - --- ----- finds ----<br>---- --- --- ----- --- ---- ---- ------- ----- ---- -------<br>--- --- -- ----- -- --- ---- -- --- ---- -- ------ ------<br>--- ----- -- ----,131938,131932,131491.66,131492,131493.64,131939.48,,26,finds
screen,html.Screen,2_1_0_1_27,2022-05-02T11:16:44.860Z,,,,,,,,,,,,,,,,,53,,,,,,,,,,,,,,444.5199999999895,,response,,,,99,,,,,,,Space,keypress(Space),,,,,,,,---- -- ----- -- ------ - ------- --- ----------<br>------------- ------ ------ ---- ---- ------- ----- -- ----<br>-------- ------- -- ---------- --- - --- ----- ----- that<br>---- --- --- ----- --- ---- ---- ------- ----- ---- -------<br>--- --- -- ----- -- --- ---- -- --- ---- -- ------ ------<br>--- ----- -- ----,132386,132384,131938.18,131938,131939.48,132389.48,,27,that
screen,html.Screen,2_1_0_1_28,2022-05-02T11:16:45.469Z,,,,,,,,,,,,,,,,,53,,,,,,,,,,,,,,589.5199999999895,,response,,,,99,,,,,,,Space,keypress(Space),,,,,,,,---- -- ----- -- ------ - ------- --- ----------<br>------------- ------ ------ ---- ---- ------- ----- -- ----<br>-------- ------- -- ---------- --- - --- ----- ----- ----<br>it's --- --- ----- --- ---- ---- ------- ----- ---- -------<br>--- --- -- ----- -- --- ---- -- --- ---- -- ------ ------<br>--- ----- -- ----,132994,132979,132386.1,132386,132389.48,132995.64,,28,it's
screen,html.Screen,2_1_0_1_29,2022-05-02T11:16:46.220Z,,,,,,,,,,,,,,,,,53,,,,,,,,,,,,,,747.359999999986,,response,,,,99,,,,,,,Space,keypress(Space),,,,,,,,---- -- ----- -- ------ - ------- --- ----------<br>------------- ------ ------ ---- ---- ------- ----- -- ----<br>-------- ------- -- ---------- --- - --- ----- ----- ----<br>---- not --- ----- --- ---- ---- ------- ----- ---- -------<br>--- --- -- ----- -- --- ---- -- --- ---- -- ------ ------<br>--- ----- -- ----,133746,133743,132994.1,132995,132995.64,133749.8,,29,not
screen,html.Screen,2_1_0_1_30,2022-05-02T11:16:46.750Z,,,,,,,,,,,,,,,,,53,,,,,,,,,,,,,,509.20000000001164,,response,,,,99,,,,,,,Space,keypress(Space),,,,,,,,---- -- ----- -- ------ - ------- --- ----------<br>------------- ------ ------ ---- ---- ------- ----- -- ----<br>-------- ------- -- ---------- --- - --- ----- ----- ----<br>---- --- how ----- --- ---- ---- ------- ----- ---- -------<br>--- --- -- ----- -- --- ---- -- --- ---- -- ------ ------<br>--- ----- -- ----,134276,134259,133746.22,133746,133749.8,134278.98,,30,how
screen,html.Screen,2_1_0_1_31,2022-05-02T11:16:47.357Z,,,,,,,,,,,,,,,,,53,,,,,,,,,,,,,,589.0199999999895,,response,,,,99,,,,,,,Space,keypress(Space),,,,,,,,---- -- ----- -- ------ - ------- --- ----------<br>------------- ------ ------ ---- ---- ------- ----- -- ----<br>-------- ------- -- ---------- --- - --- ----- ----- ----<br>---- --- --- close --- ---- ---- ------- ----- ---- -------<br>--- --- -- ----- -- --- ---- -- --- ---- -- ------ ------<br>--- ----- -- ----,134882,134868,134275.76,134276,134278.98,134885.14,,31,close
screen,html.Screen,2_1_0_1_32,2022-05-02T11:16:47.780Z,,,,,,,,,,,,,,,,,53,,,,,,,,,,,,,,404.85999999998603,,response,,,,99,,,,,,,Space,keypress(Space),,,,,,,,---- -- ----- -- ------ - ------- --- ----------<br>------------- ------ ------ ---- ---- ------- ----- -- ----<br>-------- ------- -- ---------- --- - --- ----- ----- ----<br>---- --- --- ----- you ---- ---- ------- ----- ---- -------<br>--- --- -- ----- -- --- ---- -- --- ---- -- ------ ------<br>--- ----- -- ----,135306,135290,134882.28,134882,134885.14,135310.14,,32,you
screen,html.Screen,2_1_0_1_33,2022-05-02T11:16:48.220Z,,,,,,,,,,,,,,,,,53,,,,,,,,,,,,,,432.85999999998603,,response,,,,99,,,,,,,Space,keypress(Space),,,,,,,,---- -- ----- -- ------ - ------- --- ----------<br>------------- ------ ------ ---- ---- ------- ----- -- ----<br>-------- ------- -- ---------- --- - --- ----- ----- ----<br>---- --- --- ----- --- feel ---- ------- ----- ---- -------<br>--- --- -- ----- -- --- ---- -- --- ---- -- ------ ------<br>--- ----- -- ----,135746,135743,135306.14,135307,135310.14,135747.64,,33,feel
screen,html.Screen,2_1_0_1_34,2022-05-02T11:16:48.820Z,,,,,,,,,,,,,,,,,53,,,,,,,,,,,,,,589.359999999986,,response,,,,99,,,,,,,Space,keypress(Space),,,,,,,,---- -- ----- -- ------ - ------- --- ----------<br>------------- ------ ------ ---- ---- ------- ----- -- ----<br>-------- ------- -- ---------- --- - --- ----- ----- ----<br>---- --- --- ----- --- ---- that ------- ----- ---- -------<br>--- --- -- ----- -- --- ---- -- --- ---- -- ------ ------<br>--- ----- -- ----,136346,136337,135746.06,135746,135747.64,136347.64,,34,that
screen,html.Screen,2_1_0_1_35,2022-05-02T11:16:49.349Z,,,,,,,,,,,,,,,,,53,,,,,,,,,,,,,,521.359999999986,,response,,,,99,,,,,,,Space,keypress(Space),,,,,,,,---- -- ----- -- ------ - ------- --- ----------<br>------------- ------ ------ ---- ---- ------- ----- -- ----<br>-------- ------- -- ---------- --- - --- ----- ----- ----<br>---- --- --- ----- --- ---- ---- matters ----- ---- -------<br>--- --- -- ----- -- --- ---- -- --- ---- -- ------ ------<br>--- ----- -- ----,136874,136869,136346.06,136346,136347.64,136874.64,,35,matters
screen,html.Screen,2_1_0_1_36,2022-05-02T11:16:50.029Z,,,,,,,,,,,,,,,,,53,,,,,,,,,,,,,,665.359999999986,,response,,,,99,,,,,,,Space,keypress(Space),,,,,,,,"---- -- ----- -- ------ - ------- --- ----------<br>------------- ------ ------ ---- ---- ------- ----- -- ----<br>-------- ------- -- ---------- --- - --- ----- ----- ----<br>---- --- --- ----- --- ---- ---- ------- most, ---- -------<br>--- --- -- ----- -- --- ---- -- --- ---- -- ------ ------<br>--- ----- -- ----",137554,137540,136874.12,136874,136874.64,137557.98,,36,"most,"
screen,html.Screen,2_1_0_1_37,2022-05-02T11:16:50.964Z,,,,,,,,,,,,,,,,,53,,,,,,,,,,,,,,920.0199999999895,,response,,,,99,,,,,,,Space,keypress(Space),,,,,,,,---- -- ----- -- ------ - ------- --- ----------<br>------------- ------ ------ ---- ---- ------- ----- -- ----<br>-------- ------- -- ---------- --- - --- ----- ----- ----<br>---- --- --- ----- --- ---- ---- ------- ----- it's -------<br>--- --- -- ----- -- --- ---- -- --- ---- -- ------ ------<br>--- ----- -- ----,138490,138478,137554.08,137554,137557.98,138491.3,,37,it's
screen,html.Screen,2_1_0_1_38,2022-05-02T11:16:51.493Z,,,,,,,,,,,,,,,,,53,,,,,,,,,,,,,,518.7000000000116,,response,,,,99,,,,,,,Space,keypress(Space),,,,,,,,---- -- ----- -- ------ - ------- --- ----------<br>------------- ------ ------ ---- ---- ------- ----- -- ----<br>-------- ------- -- ---------- --- - --- ----- ----- ----<br>---- --- --- ----- --- ---- ---- ------- ----- ---- whether<br>--- --- -- ----- -- --- ---- -- --- ---- -- ------ ------<br>--- ----- -- ----,139018,139010,138490.24,138491,138491.3,139018.3,,38,whether
screen,html.Screen,2_1_0_1_39,2022-05-02T11:16:52.013Z,,,,,,,,,,,,,,,,,53,,,,,,,,,,,,,,506.70000000001164,,response,,,,99,,,,,,,Space,keypress(Space),,,,,,,,---- -- ----- -- ------ - ------- --- ----------<br>------------- ------ ------ ---- ---- ------- ----- -- ----<br>-------- ------- -- ---------- --- - --- ----- ----- ----<br>---- --- --- ----- --- ---- ---- ------- ----- ---- -------<br>you --- -- ----- -- --- ---- -- --- ---- -- ------ ------<br>--- ----- -- ----,139538,139525,139018.18,139018,139018.3,139539.14,,39,you
screen,html.Screen,2_1_0_1_40,2022-05-02T11:16:52.488Z,,,,,,,,,,,,,,,,,53,,,,,,,,,,,,,,469.85999999998603,,response,,,,99,,,,,,,Space,keypress(Space),,,,,,,,---- -- ----- -- ------ - ------- --- ----------<br>------------- ------ ------ ---- ---- ------- ----- -- ----<br>-------- ------- -- ---------- --- - --- ----- ----- ----<br>---- --- --- ----- --- ---- ---- ------- ----- ---- -------<br>--- are -- ----- -- --- ---- -- --- ---- -- ------ ------<br>--- ----- -- ----,140013,140009,139538.1,139538,139539.14,140014.14,,40,are
screen,html.Screen,2_1_0_1_41,2022-05-02T11:16:52.941Z,,,,,,,,,,,,,,,,,53,,,,,,,,,,,,,,447.85999999998603,,response,,,,99,,,,,,,Space,keypress(Space),,,,,,,,---- -- ----- -- ------ - ------- --- ----------<br>------------- ------ ------ ---- ---- ------- ----- -- ----<br>-------- ------- -- ---------- --- - --- ----- ----- ----<br>---- --- --- ----- --- ---- ---- ------- ----- ---- -------<br>--- --- as ----- -- --- ---- -- --- ---- -- ------ ------<br>--- ----- -- ----,140466,140462,140013.06,140013,140014.14,140468.3,,41,as
screen,html.Screen,2_1_0_1_42,2022-05-02T11:16:53.477Z,,,,,,,,,,,,,,,,,53,,,,,,,,,,,,,,524.7000000000116,,response,,,,99,,,,,,,Space,keypress(Space),,,,,,,,---- -- ----- -- ------ - ------- --- ----------<br>------------- ------ ------ ---- ---- ------- ----- -- ----<br>-------- ------- -- ---------- --- - --- ----- ----- ----<br>---- --- --- ----- --- ---- ---- ------- ----- ---- -------<br>--- --- -- close -- --- ---- -- --- ---- -- ------ ------<br>--- ----- -- ----,141002,140993,140466.14,140466,140468.3,141003.64,,42,close
screen,html.Screen,2_1_0_1_43,2022-05-02T11:16:54.045Z,,,,,,,,,,,,,,,,,53,,,,,,,,,,,,,,552.359999999986,,response,,,,99,,,,,,,Space,keypress(Space),,,,,,,,---- -- ----- -- ------ - ------- --- ----------<br>------------- ------ ------ ---- ---- ------- ----- -- ----<br>-------- ------- -- ---------- --- - --- ----- ----- ----<br>---- --- --- ----- --- ---- ---- ------- ----- ---- -------<br>--- --- -- ----- as --- ---- -- --- ---- -- ------ ------<br>--- ----- -- ----,141570,141556,141002.3,141002,141003.64,141570.32,,43,as
screen,html.Screen,2_1_0_1_44,2022-05-02T11:16:54.620Z,,,,,,,,,,,,,,,,,53,,,,,,,,,,,,,,563.679999999993,,response,,,,99,,,,,,,Space,keypress(Space),,,,,,,,---- -- ----- -- ------ - ------- --- ----------<br>------------- ------ ------ ---- ---- ------- ----- -- ----<br>-------- ------- -- ---------- --- - --- ----- ----- ----<br>---- --- --- ----- --- ---- ---- ------- ----- ---- -------<br>--- --- -- ----- -- you ---- -- --- ---- -- ------ ------<br>--- ----- -- ----,142146,142134,141570.16,141570,141570.32,142149.48,,44,you
screen,html.Screen,2_1_0_1_45,2022-05-02T11:16:55.117Z,,,,,,,,,,,,,,,,,53,,,,,,,,,,,,,,484.5199999999895,,response,,,,99,,,,,,,Space,keypress(Space),,,,,,,,---- -- ----- -- ------ - ------- --- ----------<br>------------- ------ ------ ---- ---- ------- ----- -- ----<br>-------- ------- -- ---------- --- - --- ----- ----- ----<br>---- --- --- ----- --- ---- ---- ------- ----- ---- -------<br>--- --- -- ----- -- --- want -- --- ---- -- ------ ------<br>--- ----- -- ----,142642,142634,142146.16,142146,142149.48,142645.32,,45,want
screen,html.Screen,2_1_0_1_46,2022-05-02T11:16:55.684Z,,,,,,,,,,,,,,,,,53,,,,,,,,,,,,,,550.679999999993,,response,,,,99,,,,,,,Space,keypress(Space),,,,,,,,---- -- ----- -- ------ - ------- --- ----------<br>------------- ------ ------ ---- ---- ------- ----- -- ----<br>-------- ------- -- ---------- --- - --- ----- ----- ----<br>---- --- --- ----- --- ---- ---- ------- ----- ---- -------<br>--- --- -- ----- -- --- ---- to --- ---- -- ------ ------<br>--- ----- -- ----,143210,143196,142642.12,142642,142645.32,143213.98,,46,to
screen,html.Screen,2_1_0_1_47,2022-05-02T11:16:56.148Z,,,,,,,,,,,,,,,,,53,,,,,,,,,,,,,,451.0199999999895,,response,,,,99,,,,,,,Space,keypress(Space),,,,,,,,"---- -- ----- -- ------ - ------- --- ----------<br>------------- ------ ------ ---- ---- ------- ----- -- ----<br>-------- ------- -- ---------- --- - --- ----- ----- ----<br>---- --- --- ----- --- ---- ---- ------- ----- ---- -------<br>--- --- -- ----- -- --- ---- -- be, ---- -- ------ ------<br>--- ----- -- ----",143674,143665,143210.18,143210,143213.98,143676.48,,47,"be,"
screen,html.Screen,2_1_0_1_48,2022-05-02T11:16:56.669Z,,,,,,,,,,,,,,,,,53,,,,,,,,,,,,,,504.5199999999895,,response,,,,99,,,,,,,Space,keypress(Space),,,,,,,,---- -- ----- -- ------ - ------- --- ----------<br>------------- ------ ------ ---- ---- ------- ----- -- ----<br>-------- ------- -- ---------- --- - --- ----- ----- ----<br>---- --- --- ----- --- ---- ---- ------- ----- ---- -------<br>--- --- -- ----- -- --- ---- -- --- even -- ------ ------<br>--- ----- -- ----,144194,144181,143674.08,143674,143676.48,144197.32,,48,even
screen,html.Screen,2_1_0_1_49,2022-05-02T11:16:57.196Z,,,,,,,,,,,,,,,,,53,,,,,,,,,,,,,,514.679999999993,,response,,,,99,,,,,,,Space,keypress(Space),,,,,,,,---- -- ----- -- ------ - ------- --- ----------<br>------------- ------ ------ ---- ---- ------- ----- -- ----<br>-------- ------- -- ---------- --- - --- ----- ----- ----<br>---- --- --- ----- --- ---- ---- ------- ----- ---- -------<br>--- --- -- ----- -- --- ---- -- --- ---- if ------ ------<br>--- ----- -- ----,144722,144712,144194.1,144194,144197.32,144722.32,,49,if
screen,html.Screen,2_1_0_1_50,2022-05-02T11:16:57.669Z,,,,,,,,,,,,,,,,,53,,,,,,,,,,,,,,458.679999999993,,response,,,,99,,,,,,,Space,keypress(Space),,,,,,,,---- -- ----- -- ------ - ------- --- ----------<br>------------- ------ ------ ---- ---- ------- ----- -- ----<br>-------- ------- -- ---------- --- - --- ----- ----- ----<br>---- --- --- ----- --- ---- ---- ------- ----- ---- -------<br>--- --- -- ----- -- --- ---- -- --- ---- -- that's ------<br>--- ----- -- ----,145194,145181,144722.08,144722,144722.32,145195.16,,50,that's
screen,html.Screen,2_1_0_1_51,2022-05-02T11:16:58.170Z,,,,,,,,,,,,,,,,,53,,,,,,,,,,,,,,486.8399999999965,,response,,,,99,,,,,,,Space,keypress(Space),,,,,,,,---- -- ----- -- ------ - ------- --- ----------<br>------------- ------ ------ ---- ---- ------- ----- -- ----<br>-------- ------- -- ---------- --- - --- ----- ----- ----<br>---- --- --- ----- --- ---- ---- ------- ----- ---- -------<br>--- --- -- ----- -- --- ---- -- --- ---- -- ------ really<br>--- ----- -- ----,145695,145682,145194.04,145194,145195.16,145699.32,,51,really
screen,html.Screen,2_1_0_1_52,2022-05-02T11:16:58.693Z,,,,,,,,,,,,,,,,,53,,,,,,,,,,,,,,512.679999999993,,response,,,,99,,,,,,,Space,keypress(Space),,,,,,,,---- -- ----- -- ------ - ------- --- ----------<br>------------- ------ ------ ---- ---- ------- ----- -- ----<br>-------- ------- -- ---------- --- - --- ----- ----- ----<br>---- --- --- ----- --- ---- ---- ------- ----- ---- -------<br>--- --- -- ----- -- --- ---- -- --- ---- -- ------ ------<br>not ----- -- ----,146218,146212,145695.54,145695,145699.32,146220.16,,52,not
screen,html.Screen,2_1_0_1_53,2022-05-02T11:16:59.221Z,,,,,,,,,,,,,,,,,53,,,,,,,,,,,,,,522.8399999999965,,response,,,,99,,,,,,,Space,keypress(Space),,,,,,,,---- -- ----- -- ------ - ------- --- ----------<br>------------- ------ ------ ---- ---- ------- ----- -- ----<br>-------- ------- -- ---------- --- - --- ----- ----- ----<br>---- --- --- ----- --- ---- ---- ------- ----- ---- -------<br>--- --- -- ----- -- --- ---- -- --- ---- -- ------ ------<br>--- close -- ----,146746,146743,146218.08,146218,146220.16,146749.32,,53,close
screen,html.Screen,2_1_0_1_54,2022-05-02T11:16:59.604Z,,,,,,,,,,,,,,,,,53,,,,,,,,,,,,,,368.679999999993,,response,,,,99,,,,,,,Space,keypress(Space),,,,,,,,---- -- ----- -- ------ - ------- --- ----------<br>------------- ------ ------ ---- ---- ------- ----- -- ----<br>-------- ------- -- ---------- --- - --- ----- ----- ----<br>---- --- --- ----- --- ---- ---- ------- ----- ---- -------<br>--- --- -- ----- -- --- ---- -- --- ---- -- ------ ------<br>--- ----- at ----,147130,147118,146746.2,146747,146749.32,147130.5,,54,at
screen,html.Screen,2_1_0_1_55,2022-05-02T11:17:00.885Z,,,,,,,,,,,,,,,,,53,,,,,,,,,,,,,,1269.5,,response,,,,99,,,,,,,Space,keypress(Space),,,,,,,,---- -- ----- -- ------ - ------- --- ----------<br>------------- ------ ------ ---- ---- ------- ----- -- ----<br>-------- ------- -- ---------- --- - --- ----- ----- ----<br>---- --- --- ----- --- ---- ---- ------- ----- ---- -------<br>--- --- -- ----- -- --- ---- -- --- ---- -- ------ ------<br>--- ----- -- all.,148410,148400,147130.14,147130,147130.5,148413.82,,55,all.
Item 99,flow.Loop,2_1_0_1,2022-05-02T11:17:00.885Z,,,,,,,,,,,,,,,,,,,,,,,,,,,,,,,39657.56,,completion,,,,,F,,,,,,,,,,,silence,,,,,148410,148400,108738.28,108739,108742.44,148413.82,,,
Question 1,html.Screen,2_1_0_2,2022-05-02T11:17:08.132Z,,,,,,,,,,,,,,,,,,,,,,,,,,,,true,FALSE,,7236.179999999993,,response,,,,99,F,,,,,,FALSE,click #choice-2,,,,silence,,,,,155658,155650,148410.36,148410,148413.82,155659.34,,,
Question 2,html.Screen,2_1_0_3,2022-05-02T11:17:15.882Z,,,,,,,,,,,,,,,,,,,,,,,,,,,,true,TRUE,,7740.6600000000035,,response,,,,99,F,,,,,,TRUE,click #choice-1,,,,silence,,,,,163408,163400,155657.16,155658,155659.34,163407.02,,,
Item 99,flow.Sequence,2_1_0,2022-05-02T11:17:15.882Z,,,,,,,,,,,,,,,,,,,,,,,,,,,,,,,64659.22,,completion,,,,,,,,,,,,,,,,,,,,,163408,163400,98739.72,98742,98740.78,163407.02,,,
Holding screen,html.Screen,2_1_1_0,2022-05-02T11:17:25.881Z,,,,,,,,,,,,,,,,,,,,,,,,,,,,,,,10001.660000000003,,timeout,,,,,,,,,,,,,,,,,,,,,173407,173404.5,163406.82,163408,163407.02,173408.68,,,
screen,html.Screen,2_1_1_1_0,2022-05-02T11:17:27.077Z,,,,,,,,,,,,,,,,,54,,,,,,,,,,,,,,1178.320000000007,,response,,,,100,,,,,,,Space,keypress(Space),,,,,,,,At --- ---- --- ------ ----- ------- ---- -- --- ------- --<br>------- ---------- ------ -- ----- -- ----- -- ---- ------<br>--- ----- --- --- ------ -------- ----- --- ------ ----- --<br>----- ----- ---------- --- --- ------ ------ ---- -- ------<br>------- --- ------ ----- --- ---- ------- -- ---- --- --<br>------- ------,174602,174587,173404.5,173407,173408.68,174606.52,,0,At
screen,html.Screen,2_1_1_1_1,2022-05-02T11:17:28.325Z,,,,,,,,,,,,,,,,,54,,,,,,,,,,,,,,1230.4800000000105,,response,,,,100,,,,,,,Space,keypress(Space),,,,,,,,-- the ---- --- ------ ----- ------- ---- -- --- ------- --<br>------- ---------- ------ -- ----- -- ----- -- ---- ------<br>--- ----- --- --- ------ -------- ----- --- ------ ----- --<br>----- ----- ---------- --- --- ------ ------ ---- -- ------<br>------- --- ------ ----- --- ---- ------- -- ---- --- --<br>------- ------,175850,175837,174602.36,174602,174606.52,175854.34,,1,the
screen,html.Screen,2_1_1_1_2,2022-05-02T11:17:29.117Z,,,,,,,,,,,,,,,,,54,,,,,,,,,,,,,,779.6600000000035,,response,,,,100,,,,,,,Space,keypress(Space),,,,,,,,-- --- time --- ------ ----- ------- ---- -- --- ------- --<br>------- ---------- ------ -- ----- -- ----- -- ---- ------<br>--- ----- --- --- ------ -------- ----- --- ------ ----- --<br>----- ----- ---------- --- --- ------ ------ ---- -- ------<br>------- --- ------ ----- --- ---- ------- -- ---- --- --<br>------- ------,176642,176634,175850.18,175850,175854.34,176646.02,,2,time
screen,html.Screen,2_1_1_1_3,2022-05-02T11:17:29.965Z,,,,,,,,,,,,,,,,,54,,,,,,,,,,,,,,831.9800000000105,,response,,,,100,,,,,,,Space,keypress(Space),,,,,,,,-- --- ---- the ------ ----- ------- ---- -- --- ------- --<br>------- ---------- ------ -- ----- -- ----- -- ---- ------<br>--- ----- --- --- ------ -------- ----- --- ------ ----- --<br>----- ----- ---------- --- --- ------ ------ ---- -- ------<br>------- --- ------ ----- --- ---- ------- -- ---- --- --<br>------- ------,177490,177478,176642.16,176642,176646.02,177491.84,,3,the
screen,html.Screen,2_1_1_1_4,2022-05-02T11:17:30.941Z,,,,,,,,,,,,,,,,,54,,,,,,,,,,,,,,971.1600000000035,,response,,,,100,,,,,,,Space,keypress(Space),,,,,,,,-- --- ---- --- French ----- ------- ---- -- --- ------- --<br>------- ---------- ------ -- ----- -- ----- -- ---- ------<br>--- ----- --- --- ------ -------- ----- --- ------ ----- --<br>----- ----- ---------- --- --- ------ ------ ---- -- ------<br>------- --- ------ ----- --- ---- ------- -- ---- --- --<br>------- ------,178466,178463,177490.26,177490,177491.84,178468.86,,4,French
screen,html.Screen,2_1_1_1_5,2022-05-02T11:17:31.796Z,,,,,,,,,,,,,,,,,54,,,,,,,,,,,,,,837.140000000014,,response,,,,100,,,,,,,Space,keypress(Space),,,,,,,,-- --- ---- --- ------ crown ------- ---- -- --- ------- --<br>------- ---------- ------ -- ----- -- ----- -- ---- ------<br>--- ----- --- --- ------ -------- ----- --- ------ ----- --<br>----- ----- ---------- --- --- ------ ------ ---- -- ------<br>------- --- ------ ----- --- ---- ------- -- ---- --- --<br>------- ------,179322,179306,178466.46,178467,178468.86,179323.02,,5,crown
screen,html.Screen,2_1_1_1_6,2022-05-02T11:17:32.597Z,,,,,,,,,,,,,,,,,54,,,,,,,,,,,,,,794.9800000000105,,response,,,,100,,,,,,,Space,keypress(Space),,,,,,,,-- --- ---- --- ------ ----- secured ---- -- --- ------- --<br>------- ---------- ------ -- ----- -- ----- -- ---- ------<br>--- ----- --- --- ------ -------- ----- --- ------ ----- --<br>----- ----- ---------- --- --- ------ ------ ---- -- ------<br>------- --- ------ ----- --- ---- ------- -- ---- --- --<br>------- ------,180122,180118,179322.08,179322,179323.02,180125.02,,6,secured
screen,html.Screen,2_1_1_1_7,2022-05-02T11:17:33.268Z,,,,,,,,,,,,,,,,,54,,,,,,,,,,,,,,665.9800000000105,,response,,,,100,,,,,,,Space,keypress(Space),,,,,,,,-- --- ---- --- ------ ----- ------- much -- --- ------- --<br>------- ---------- ------ -- ----- -- ----- -- ---- ------<br>--- ----- --- --- ------ -------- ----- --- ------ ----- --<br>----- ----- ---------- --- --- ------ ------ ---- -- ------<br>------- --- ------ ----- --- ---- ------- -- ---- --- --<br>------- ------,180794,180791,180122.1,180122,180125.02,180795.86,,7,much
screen,html.Screen,2_1_1_1_8,2022-05-02T11:17:33.892Z,,,,,,,,,,,,,,,,,54,,,,,,,,,,,,,,619.140000000014,,response,,,,100,,,,,,,Space,keypress(Space),,,,,,,,-- --- ---- --- ------ ----- ------- ---- of --- ------- --<br>------- ---------- ------ -- ----- -- ----- -- ---- ------<br>--- ----- --- --- ------ -------- ----- --- ------ ----- --<br>----- ----- ---------- --- --- ------ ------ ---- -- ------<br>------- --- ------ ----- --- ---- ------- -- ---- --- --<br>------- ------,181418,181415,180794.18,180794,180795.86,181420.86,,8,of
screen,html.Screen,2_1_1_1_9,2022-05-02T11:17:34.517Z,,,,,,,,,,,,,,,,,54,,,,,,,,,,,,,,619.140000000014,,response,,,,100,,,,,,,Space,keypress(Space),,,,,,,,-- --- ---- --- ------ ----- ------- ---- -- its ------- --<br>------- ---------- ------ -- ----- -- ----- -- ---- ------<br>--- ----- --- --- ------ -------- ----- --- ------ ----- --<br>----- ----- ---------- --- --- ------ ------ ---- -- ------<br>------- --- ------ ----- --- ---- ------- -- ---- --- --<br>------- ------,182042,182040,181418.18,181418,181420.86,182043.68,,9,its
screen,html.Screen,2_1_1_1_10,2022-05-02T11:17:35.461Z,,,,,,,,,,,,,,,,,54,,,,,,,,,,,,,,934.320000000007,,response,,,,100,,,,,,,Space,keypress(Space),,,,,,,,-- --- ---- --- ------ ----- ------- ---- -- --- revenue --<br>------- ---------- ------ -- ----- -- ----- -- ---- ------<br>--- ----- --- --- ------ -------- ----- --- ------ ----- --<br>----- ----- ---------- --- --- ------ ------ ---- -- ------<br>------- --- ------ ----- --- ---- ------- -- ---- --- --<br>------- ------,182986,182978,182042.28,182042,182043.68,182989.52,,10,revenue
screen,html.Screen,2_1_1_1_11,2022-05-02T11:17:36.037Z,,,,,,,,,,,,,,,,,54,,,,,,,,,,,,,,567.4800000000105,,response,,,,100,,,,,,,Space,keypress(Space),,,,,,,,-- --- ---- --- ------ ----- ------- ---- -- --- ------- by<br>------- ---------- ------ -- ----- -- ----- -- ---- ------<br>--- ----- --- --- ------ -------- ----- --- ------ ----- --<br>----- ----- ---------- --- --- ------ ------ ---- -- ------<br>------- --- ------ ----- --- ---- ------- -- ---- --- --<br>------- ------,183562,183557,182986.18,182986,182989.52,183564.52,,11,by
screen,html.Screen,2_1_1_1_12,2022-05-02T11:17:36.757Z,,,,,,,,,,,,,,,,,54,,,,,,,,,,,,,,710.4800000000105,,response,,,,100,,,,,,,Space,keypress(Space),,,,,,,,-- --- ---- --- ------ ----- ------- ---- -- --- ------- --<br>issuing ---------- ------ -- ----- -- ----- -- ---- ------<br>--- ----- --- --- ------ -------- ----- --- ------ ----- --<br>----- ----- ---------- --- --- ------ ------ ---- -- ------<br>------- --- ------ ----- --- ---- ------- -- ---- --- --<br>------- ------,184282,184275,183562.32,183562,183564.52,184283.2,,12,issuing
screen,html.Screen,2_1_1_1_13,2022-05-02T11:17:37.525Z,,,,,,,,,,,,,,,,,54,,,,,,,,,,,,,,756.7999999999884,,response,,,,100,,,,,,,Space,keypress(Space),,,,,,,,-- --- ---- --- ------ ----- ------- ---- -- --- ------- --<br>------- government ------ -- ----- -- ----- -- ---- ------<br>--- ----- --- --- ------ -------- ----- --- ------ ----- --<br>----- ----- ---------- --- --- ------ ------ ---- -- ------<br>------- --- ------ ----- --- ---- ------- -- ---- --- --<br>------- ------,185050,185040,184282.14,184282,184283.2,185054.02,,13,government
screen,html.Screen,2_1_1_1_14,2022-05-02T11:17:38.701Z,,,,,,,,,,,,,,,,,54,,,,,,,,,,,,,,1157.9800000000105,,response,,,,100,,,,,,,Space,keypress(Space),,,,,,,,-- --- ---- --- ------ ----- ------- ---- -- --- ------- --<br>------- ---------- bonds. -- ----- -- ----- -- ---- ------<br>--- ----- --- --- ------ -------- ----- --- ------ ----- --<br>----- ----- ---------- --- --- ------ ------ ---- -- ------<br>------- --- ------ ----- --- ---- ------- -- ---- --- --<br>------- ------,186227,186212,185050.1,185050,185054.02,186226.88,,14,bonds.
screen,html.Screen,2_1_1_1_15,2022-05-02T11:17:39.692Z,,,,,,,,,,,,,,,,,54,,,,,,,,,,,,,,985.1199999999953,,response,,,,100,,,,,,,Space,keypress(Space),,,,,,,,-- --- ---- --- ------ ----- ------- ---- -- --- ------- --<br>------- ---------- ------ In ----- -- ----- -- ---- ------<br>--- ----- --- --- ------ -------- ----- --- ------ ----- --<br>----- ----- ---------- --- --- ------ ------ ---- -- ------<br>------- --- ------ ----- --- ---- ------- -- ---- --- --<br>------- ------,187218,187212,186226.32,186227,186226.88,187218.54,,15,In
screen,html.Screen,2_1_1_1_16,2022-05-02T11:17:41.309Z,,,,,,,,,,,,,,,,,54,,,,,,,,,,,,,,1602.4599999999919,,response,,,,100,,,,,,,Space,keypress(Space),,,,,,,,"-- --- ---- --- ------ ----- ------- ---- -- --- ------- --<br>------- ---------- ------ -- 1727, -- ----- -- ---- ------<br>--- ----- --- --- ------ -------- ----- --- ------ ----- --<br>----- ----- ---------- --- --- ------ ------ ---- -- ------<br>------- --- ------ ----- --- ---- ------- -- ---- --- --<br>------- ------",188834,188821,187218.3,187219,187218.54,188837.18,,16,"1727,"
screen,html.Screen,2_1_1_1_17,2022-05-02T11:17:42.100Z,,,,,,,,,,,,,,,,,54,,,,,,,,,,,,,,780.820000000007,,response,,,,100,,,,,,,Space,keypress(Space),,,,,,,,-- --- ---- --- ------ ----- ------- ---- -- --- ------- --<br>------- ---------- ------ -- ----- in ----- -- ---- ------<br>--- ----- --- --- ------ -------- ----- --- ------ ----- --<br>----- ----- ---------- --- --- ------ ------ ---- -- ------<br>------- --- ------ ----- --- ---- ------- -- ---- --- --<br>------- ------,189626,189618,188834.12,188834,188837.18,189628.86,,17,in
screen,html.Screen,2_1_1_1_18,2022-05-02T11:17:42.692Z,,,,,,,,,,,,,,,,,54,,,,,,,,,,,,,,583.140000000014,,response,,,,100,,,,,,,Space,keypress(Space),,,,,,,,-- --- ---- --- ------ ----- ------- ---- -- --- ------- --<br>------- ---------- ------ -- ----- -- order -- ---- ------<br>--- ----- --- --- ------ -------- ----- --- ------ ----- --<br>----- ----- ---------- --- --- ------ ------ ---- -- ------<br>------- --- ------ ----- --- ---- ------- -- ---- --- --<br>------- ------,190218,190212,189626.12,189626,189628.86,190218.36,,18,order
screen,html.Screen,2_1_1_1_19,2022-05-02T11:17:43.324Z,,,,,,,,,,,,,,,,,54,,,,,,,,,,,,,,618.640000000014,,response,,,,100,,,,,,,Space,keypress(Space),,,,,,,,-- --- ---- --- ------ ----- ------- ---- -- --- ------- --<br>------- ---------- ------ -- ----- -- ----- to ---- ------<br>--- ----- --- --- ------ -------- ----- --- ------ ----- --<br>----- ----- ---------- --- --- ------ ------ ---- -- ------<br>------- --- ------ ----- --- ---- ------- -- ---- --- --<br>------- ------,190850,190837,190218.06,190218,190218.36,190851.7,,19,to
screen,html.Screen,2_1_1_1_20,2022-05-02T11:17:43.844Z,,,,,,,,,,,,,,,,,54,,,,,,,,,,,,,,516.2999999999884,,response,,,,100,,,,,,,Space,keypress(Space),,,,,,,,-- --- ---- --- ------ ----- ------- ---- -- --- ------- --<br>------- ---------- ------ -- ----- -- ----- -- save ------<br>--- ----- --- --- ------ -------- ----- --- ------ ----- --<br>----- ----- ---------- --- --- ------ ------ ---- -- ------<br>------- --- ------ ----- --- ---- ------- -- ---- --- --<br>------- ------,191370,191368,190850,190850,190851.7,191372.52,,20,save
screen,html.Screen,2_1_1_1_21,2022-05-02T11:17:44.596Z,,,,,,,,,,,,,,,,,54,,,,,,,,,,,,,,746.4800000000105,,response,,,,100,,,,,,,Space,keypress(Space),,,,,,,,"-- --- ---- --- ------ ----- ------- ---- -- --- ------- --<br>------- ---------- ------ -- ----- -- ----- -- ---- money,<br>--- ----- --- --- ------ -------- ----- --- ------ ----- --<br>----- ----- ---------- --- --- ------ ------ ---- -- ------<br>------- --- ------ ----- --- ---- ------- -- ---- --- --<br>------- ------",192122,192119,191370.16,191371,191372.52,192122.52,,21,"money,"
screen,html.Screen,2_1_1_1_22,2022-05-02T11:17:45.269Z,,,,,,,,,,,,,,,,,54,,,,,,,,,,,,,,667.4800000000105,,response,,,,100,,,,,,,Space,keypress(Space),,,,,,,,-- --- ---- --- ------ ----- ------- ---- -- --- ------- --<br>------- ---------- ------ -- ----- -- ----- -- ---- ------<br>the ----- --- --- ------ -------- ----- --- ------ ----- --<br>----- ----- ---------- --- --- ------ ------ ---- -- ------<br>------- --- ------ ----- --- ---- ------- -- ---- --- --<br>------- ------,192794,192790,192122.18,192122,192122.52,192795.34,,22,the
screen,html.Screen,2_1_1_1_23,2022-05-02T11:17:45.949Z,,,,,,,,,,,,,,,,,54,,,,,,,,,,,,,,666.6600000000035,,response,,,,100,,,,,,,Space,keypress(Space),,,,,,,,-- --- ---- --- ------ ----- ------- ---- -- --- ------- --<br>------- ---------- ------ -- ----- -- ----- -- ---- ------<br>--- state --- --- ------ -------- ----- --- ------ ----- --<br>----- ----- ---------- --- --- ------ ------ ---- -- ------<br>------- --- ------ ----- --- ---- ------- -- ---- --- --<br>------- ------,193474,193462,192794.12,192794,192795.34,193474.5,,23,state
screen,html.Screen,2_1_1_1_24,2022-05-02T11:17:46.644Z,,,,,,,,,,,,,,,,,54,,,,,,,,,,,,,,690.5,,response,,,,100,,,,,,,Space,keypress(Space),,,,,,,,-- --- ---- --- ------ ----- ------- ---- -- --- ------- --<br>------- ---------- ------ -- ----- -- ----- -- ---- ------<br>--- ----- cut --- ------ -------- ----- --- ------ ----- --<br>----- ----- ---------- --- --- ------ ------ ---- -- ------<br>------- --- ------ ----- --- ---- ------- -- ---- --- --<br>------- ------,194170,194165,193474.22,193474,193474.5,194172.34,,24,cut
screen,html.Screen,2_1_1_1_25,2022-05-02T11:17:47.437Z,,,,,,,,,,,,,,,,,54,,,,,,,,,,,,,,773.6600000000035,,response,,,,100,,,,,,,Space,keypress(Space),,,,,,,,-- --- ---- --- ------ ----- ------- ---- -- --- ------- --<br>------- ---------- ------ -- ----- -- ----- -- ---- ------<br>--- ----- --- the ------ -------- ----- --- ------ ----- --<br>----- ----- ---------- --- --- ------ ------ ---- -- ------<br>------- --- ------ ----- --- ---- ------- -- ---- --- --<br>------- ------,194962,194946,194170.14,194170,194172.34,194964.02,,25,the
screen,html.Screen,2_1_1_1_26,2022-05-02T11:17:48.068Z,,,,,,,,,,,,,,,,,54,,,,,,,,,,,,,,622.9800000000105,,response,,,,100,,,,,,,Space,keypress(Space),,,,,,,,-- --- ---- --- ------ ----- ------- ---- -- --- ------- --<br>------- ---------- ------ -- ----- -- ----- -- ---- ------<br>--- ----- --- --- bonds' -------- ----- --- ------ ----- --<br>----- ----- ---------- --- --- ------ ------ ---- -- ------<br>------- --- ------ ----- --- ---- ------- -- ---- --- --<br>------- ------,195594,195587,194962.08,194962,194964.02,195597.34,,26,bonds'
screen,html.Screen,2_1_1_1_27,2022-05-02T11:17:48.621Z,,,,,,,,,,,,,,,,,54,,,,,,,,,,,,,,536.6600000000035,,response,,,,100,,,,,,,Space,keypress(Space),,,,,,,,-- --- ---- --- ------ ----- ------- ---- -- --- ------- --<br>------- ---------- ------ -- ----- -- ----- -- ---- ------<br>--- ----- --- --- ------ interest ----- --- ------ ----- --<br>----- ----- ---------- --- --- ------ ------ ---- -- ------<br>------- --- ------ ----- --- ---- ------- -- ---- --- --<br>------- ------,196146,196134,195594.06,195594,195597.34,196147.34,,27,interest
screen,html.Screen,2_1_1_1_28,2022-05-02T11:17:49.158Z,,,,,,,,,,,,,,,,,54,,,,,,,,,,,,,,534.6600000000035,,response,,,,100,,,,,,,Space,keypress(Space),,,,,,,,-- --- ---- --- ------ ----- ------- ---- -- --- ------- --<br>------- ---------- ------ -- ----- -- ----- -- ---- ------<br>--- ----- --- --- ------ -------- rate. --- ------ ----- --<br>----- ----- ---------- --- --- ------ ------ ---- -- ------<br>------- --- ------ ----- --- ---- ------- -- ---- --- --<br>------- ------,196684,196682,196146.06,196146,196147.34,196686.86,,28,rate.
screen,html.Screen,2_1_1_1_29,2022-05-02T11:17:49.957Z,,,,,,,,,,,,,,,,,54,,,,,,,,,,,,,,791.140000000014,,response,,,,100,,,,,,,Space,keypress(Space),,,,,,,,-- --- ---- --- ------ ----- ------- ---- -- --- ------- --<br>------- ---------- ------ -- ----- -- ----- -- ---- ------<br>--- ----- --- --- ------ -------- ----- The ------ ----- --<br>----- ----- ---------- --- --- ------ ------ ---- -- ------<br>------- --- ------ ----- --- ---- ------- -- ---- --- --<br>------- ------,197482,197478,196683.82,196684,196686.86,197482.68,,29,The
screen,html.Screen,2_1_1_1_30,2022-05-02T11:17:50.500Z,,,,,,,,,,,,,,,,,54,,,,,,,,,,,,,,542.320000000007,,response,,,,100,,,,,,,Space,keypress(Space),,,,,,,,-- --- ---- --- ------ ----- ------- ---- -- --- ------- --<br>------- ---------- ------ -- ----- -- ----- -- ---- ------<br>--- ----- --- --- ------ -------- ----- --- market ----- --<br>----- ----- ---------- --- --- ------ ------ ---- -- ------<br>------- --- ------ ----- --- ---- ------- -- ---- --- --<br>------- ------,198026,198025,197482.26,197482,197482.68,198028.52,,30,market
screen,html.Screen,2_1_1_1_31,2022-05-02T11:17:50.917Z,,,,,,,,,,,,,,,,,54,,,,,,,,,,,,,,403.4800000000105,,response,,,,100,,,,,,,Space,keypress(Space),,,,,,,,-- --- ---- --- ------ ----- ------- ---- -- --- ------- --<br>------- ---------- ------ -- ----- -- ----- -- ---- ------<br>--- ----- --- --- ------ -------- ----- --- ------ value --<br>----- ----- ---------- --- --- ------ ------ ---- -- ------<br>------- --- ------ ----- --- ---- ------- -- ---- --- --<br>------- ------,198442,198432,198026.12,198026,198028.52,198443.02,,31,value
screen,html.Screen,2_1_1_1_32,2022-05-02T11:17:51.381Z,,,,,,,,,,,,,,,,,54,,,,,,,,,,,,,,456.9800000000105,,response,,,,100,,,,,,,Space,keypress(Space),,,,,,,,-- --- ---- --- ------ ----- ------- ---- -- --- ------- --<br>------- ---------- ------ -- ----- -- ----- -- ---- ------<br>--- ----- --- --- ------ -------- ----- --- ------ ----- of<br>----- ----- ---------- --- --- ------ ------ ---- -- ------<br>------- --- ------ ----- --- ---- ------- -- ---- --- --<br>------- ------,198906,198900,198442.18,198442,198443.02,198909.68,,32,of
screen,html.Screen,2_1_1_1_33,2022-05-02T11:17:51.805Z,,,,,,,,,,,,,,,,,54,,,,,,,,,,,,,,411.320000000007,,response,,,,100,,,,,,,Space,keypress(Space),,,,,,,,-- --- ---- --- ------ ----- ------- ---- -- --- ------- --<br>------- ---------- ------ -- ----- -- ----- -- ---- ------<br>--- ----- --- --- ------ -------- ----- --- ------ ----- --<br>these ----- ---------- --- --- ------ ------ ---- -- ------<br>------- --- ------ ----- --- ---- ------- -- ---- --- --<br>------- ------,199330,199321,198906.14,198906,198909.68,199330.52,,33,these
screen,html.Screen,2_1_1_1_34,2022-05-02T11:17:52.261Z,,,,,,,,,,,,,,,,,54,,,,,,,,,,,,,,445.4800000000105,,response,,,,100,,,,,,,Space,keypress(Space),,,,,,,,-- --- ---- --- ------ ----- ------- ---- -- --- ------- --<br>------- ---------- ------ -- ----- -- ----- -- ---- ------<br>--- ----- --- --- ------ -------- ----- --- ------ ----- --<br>----- bonds ---------- --- --- ------ ------ ---- -- ------<br>------- --- ------ ----- --- ---- ------- -- ---- --- --<br>------- ------,199786,199776,199330.06,199330,199330.52,199788.86,,34,bonds
screen,html.Screen,2_1_1_1_35,2022-05-02T11:17:52.901Z,,,,,,,,,,,,,,,,,54,,,,,,,,,,,,,,627.140000000014,,response,,,,100,,,,,,,Space,keypress(Space),,,,,,,,"-- --- ---- --- ------ ----- ------- ---- -- --- ------- --<br>------- ---------- ------ -- ----- -- ----- -- ---- ------<br>--- ----- --- --- ------ -------- ----- --- ------ ----- --<br>----- ----- plummeted, --- --- ------ ------ ---- -- ------<br>------- --- ------ ----- --- ---- ------- -- ---- --- --<br>------- ------",200426,200416,199786.02,199786,199788.86,200428.36,,35,"plummeted,"
screen,html.Screen,2_1_1_1_36,2022-05-02T11:17:53.341Z,,,,,,,,,,,,,,,,,54,,,,,,,,,,,,,,424.64000000001397,,response,,,,100,,,,,,,Space,keypress(Space),,,,,,,,-- --- ---- --- ------ ----- ------- ---- -- --- ------- --<br>------- ---------- ------ -- ----- -- ----- -- ---- ------<br>--- ----- --- --- ------ -------- ----- --- ------ ----- --<br>----- ----- ---------- and --- ------ ------ ---- -- ------<br>------- --- ------ ----- --- ---- ------- -- ---- --- --<br>------- ------,200866,200853,200426.08,200426,200428.36,200870.02,,36,and
screen,html.Screen,2_1_1_1_37,2022-05-02T11:17:53.725Z,,,,,,,,,,,,,,,,,54,,,,,,,,,,,,,,372.9800000000105,,response,,,,100,,,,,,,Space,keypress(Space),,,,,,,,-- --- ---- --- ------ ----- ------- ---- -- --- ------- --<br>------- ---------- ------ -- ----- -- ----- -- ---- ------<br>--- ----- --- --- ------ -------- ----- --- ------ ----- --<br>----- ----- ---------- --- the ------ ------ ---- -- ------<br>------- --- ------ ----- --- ---- ------- -- ---- --- --<br>------- ------,201250,201243,200866.4,200867,200870.02,201253.36,,37,the
screen,html.Screen,2_1_1_1_38,2022-05-02T11:17:54.453Z,,,,,,,,,,,,,,,,,54,,,,,,,,,,,,,,708.640000000014,,response,,,,100,,,,,,,Space,keypress(Space),,,,,,,,-- --- ---- --- ------ ----- ------- ---- -- --- ------- --<br>------- ---------- ------ -- ----- -- ----- -- ---- ------<br>--- ----- --- --- ------ -------- ----- --- ------ ----- --<br>----- ----- ---------- --- --- market ------ ---- -- ------<br>------- --- ------ ----- --- ---- ------- -- ---- --- --<br>------- ------,201978,201962,201250.18,201250,201253.36,201978.36,,38,market
screen,html.Screen,2_1_1_1_39,2022-05-02T11:17:54.997Z,,,,,,,,,,,,,,,,,54,,,,,,,,,,,,,,531.640000000014,,response,,,,100,,,,,,,Space,keypress(Space),,,,,,,,-- --- ---- --- ------ ----- ------- ---- -- --- ------- --<br>------- ---------- ------ -- ----- -- ----- -- ---- ------<br>--- ----- --- --- ------ -------- ----- --- ------ ----- --<br>----- ----- ---------- --- --- ------ became ---- -- ------<br>------- --- ------ ----- --- ---- ------- -- ---- --- --<br>------- ------,202522,202510,201978.08,201978,201978.36,202526.18,,39,became
screen,html.Screen,2_1_1_1_40,2022-05-02T11:17:55.463Z,,,,,,,,,,,,,,,,,54,,,,,,,,,,,,,,451.820000000007,,response,,,,100,,,,,,,Space,keypress(Space),,,,,,,,-- --- ---- --- ------ ----- ------- ---- -- --- ------- --<br>------- ---------- ------ -- ----- -- ----- -- ---- ------<br>--- ----- --- --- ------ -------- ----- --- ------ ----- --<br>----- ----- ---------- --- --- ------ ------ wary -- ------<br>------- --- ------ ----- --- ---- ------- -- ---- --- --<br>------- ------,202989,202978,202522.16,202522,202526.18,202992.84,,40,wary
screen,html.Screen,2_1_1_1_41,2022-05-02T11:17:55.877Z,,,,,,,,,,,,,,,,,54,,,,,,,,,,,,,,407.1600000000035,,response,,,,100,,,,,,,Space,keypress(Space),,,,,,,,-- --- ---- --- ------ ----- ------- ---- -- --- ------- --<br>------- ---------- ------ -- ----- -- ----- -- ---- ------<br>--- ----- --- --- ------ -------- ----- --- ------ ----- --<br>----- ----- ---------- --- --- ------ ------ ---- of ------<br>------- --- ------ ----- --- ---- ------- -- ---- --- --<br>------- ------,203402,203400,202988.9,202989,202992.84,203405.34,,41,of
screen,html.Screen,2_1_1_1_42,2022-05-02T11:17:56.293Z,,,,,,,,,,,,,,,,,54,,,,,,,,,,,,,,401.6600000000035,,response,,,,100,,,,,,,Space,keypress(Space),,,,,,,,-- --- ---- --- ------ ----- ------- ---- -- --- ------- --<br>------- ---------- ------ -- ----- -- ----- -- ---- ------<br>--- ----- --- --- ------ -------- ----- --- ------ ----- --<br>----- ----- ---------- --- --- ------ ------ ---- -- French<br>------- --- ------ ----- --- ---- ------- -- ---- --- --<br>------- ------,203818,203807,203402.04,203402,203405.34,203822.02,,42,French
screen,html.Screen,2_1_1_1_43,2022-05-02T11:17:56.708Z,,,,,,,,,,,,,,,,,54,,,,,,,,,,,,,,405.9800000000105,,response,,,,100,,,,,,,Space,keypress(Space),,,,,,,,-- --- ---- --- ------ ----- ------- ---- -- --- ------- --<br>------- ---------- ------ -- ----- -- ----- -- ---- ------<br>--- ----- --- --- ------ -------- ----- --- ------ ----- --<br>----- ----- ---------- --- --- ------ ------ ---- -- ------<br>credit. --- ------ ----- --- ---- ------- -- ---- --- --<br>------- ------,204234,204228,203818.2,203818,203822.02,204234.52,,43,credit.
screen,html.Screen,2_1_1_1_44,2022-05-02T11:17:57.101Z,,,,,,,,,,,,,,,,,54,,,,,,,,,,,,,,383.4800000000105,,response,,,,100,,,,,,,Space,keypress(Space),,,,,,,,-- --- ---- --- ------ ----- ------- ---- -- --- ------- --<br>------- ---------- ------ -- ----- -- ----- -- ---- ------<br>--- ----- --- --- ------ -------- ----- --- ------ ----- --<br>----- ----- ---------- --- --- ------ ------ ---- -- ------<br>------- The ------ ----- --- ---- ------- -- ---- --- --<br>------- ------,204626,204618,204234.12,204235,204234.52,204628.18,,44,The
screen,html.Screen,2_1_1_1_45,2022-05-02T11:17:57.573Z,,,,,,,,,,,,,,,,,54,,,,,,,,,,,,,,459.820000000007,,response,,,,100,,,,,,,Space,keypress(Space),,,,,,,,-- --- ---- --- ------ ----- ------- ---- -- --- ------- --<br>------- ---------- ------ -- ----- -- ----- -- ---- ------<br>--- ----- --- --- ------ -------- ----- --- ------ ----- --<br>----- ----- ---------- --- --- ------ ------ ---- -- ------<br>------- --- French ----- --- ---- ------- -- ---- --- --<br>------- ------,205098,205088,204626.12,204626,204628.18,205099.02,,45,French
screen,html.Screen,2_1_1_1_46,2022-05-02T11:17:57.956Z,,,,,,,,,,,,,,,,,54,,,,,,,,,,,,,,378.9800000000105,,response,,,,100,,,,,,,Space,keypress(Space),,,,,,,,-- --- ---- --- ------ ----- ------- ---- -- --- ------- --<br>------- ---------- ------ -- ----- -- ----- -- ---- ------<br>--- ----- --- --- ------ -------- ----- --- ------ ----- --<br>----- ----- ---------- --- --- ------ ------ ---- -- ------<br>------- --- ------ state --- ---- ------- -- ---- --- --<br>------- ------,205482,205478,205098.18,205099,205099.02,205482.36,,46,state
screen,html.Screen,2_1_1_1_47,2022-05-02T11:17:58.349Z,,,,,,,,,,,,,,,,,54,,,,,,,,,,,,,,385.64000000001397,,response,,,,100,,,,,,,Space,keypress(Space),,,,,,,,-- --- ---- --- ------ ----- ------- ---- -- --- ------- --<br>------- ---------- ------ -- ----- -- ----- -- ---- ------<br>--- ----- --- --- ------ -------- ----- --- ------ ----- --<br>----- ----- ---------- --- --- ------ ------ ---- -- ------<br>------- --- ------ ----- was ---- ------- -- ---- --- --<br>------- ------,205874,205868,205482.08,205482,205482.36,205878.18,,47,was
screen,html.Screen,2_1_1_1_48,2022-05-02T11:17:58.732Z,,,,,,,,,,,,,,,,,54,,,,,,,,,,,,,,365.820000000007,,response,,,,100,,,,,,,Space,keypress(Space),,,,,,,,-- --- ---- --- ------ ----- ------- ---- -- --- ------- --<br>------- ---------- ------ -- ----- -- ----- -- ---- ------<br>--- ----- --- --- ------ -------- ----- --- ------ ----- --<br>----- ----- ---------- --- --- ------ ------ ---- -- ------<br>------- --- ------ ----- --- left ------- -- ---- --- --<br>------- ------,206257,206244,205874.24,205874,205878.18,206261.52,,48,left
screen,html.Screen,2_1_1_1_49,2022-05-02T11:17:59.124Z,,,,,,,,,,,,,,,,,54,,,,,,,,,,,,,,372.4800000000105,,response,,,,100,,,,,,,Space,keypress(Space),,,,,,,,-- --- ---- --- ------ ----- ------- ---- -- --- ------- --<br>------- ---------- ------ -- ----- -- ----- -- ---- ------<br>--- ----- --- --- ------ -------- ----- --- ------ ----- --<br>----- ----- ---------- --- --- ------ ------ ---- -- ------<br>------- --- ------ ----- --- ---- without -- ---- --- --<br>------- ------,206650,206634,206258.06,206258,206261.52,206651.02,,49,without
screen,html.Screen,2_1_1_1_50,2022-05-02T11:17:59.508Z,,,,,,,,,,,,,,,,,54,,,,,,,,,,,,,,373.9800000000105,,response,,,,100,,,,,,,Space,keypress(Space),,,,,,,,-- --- ---- --- ------ ----- ------- ---- -- --- ------- --<br>------- ---------- ------ -- ----- -- ----- -- ---- ------<br>--- ----- --- --- ------ -------- ----- --- ------ ----- --<br>----- ----- ---------- --- --- ------ ------ ---- -- ------<br>------- --- ------ ----- --- ---- ------- an ---- --- --<br>------- ------,207034,207025,206650.08,206650,206651.02,207034.36,,50,an
screen,html.Screen,2_1_1_1_51,2022-05-02T11:18:00.149Z,,,,,,,,,,,,,,,,,54,,,,,,,,,,,,,,630.640000000014,,response,,,,100,,,,,,,Space,keypress(Space),,,,,,,,-- --- ---- --- ------ ----- ------- ---- -- --- ------- --<br>------- ---------- ------ -- ----- -- ----- -- ---- ------<br>--- ----- --- --- ------ -------- ----- --- ------ ----- --<br>----- ----- ---------- --- --- ------ ------ ---- -- ------<br>------- --- ------ ----- --- ---- ------- -- easy --- --<br>------- ------,207674,207665,207034.04,207034,207034.36,207676.02,,51,easy
screen,html.Screen,2_1_1_1_52,2022-05-02T11:18:00.548Z,,,,,,,,,,,,,,,,,54,,,,,,,,,,,,,,394.9800000000105,,response,,,,100,,,,,,,Space,keypress(Space),,,,,,,,-- --- ---- --- ------ ----- ------- ---- -- --- ------- --<br>------- ---------- ------ -- ----- -- ----- -- ---- ------<br>--- ----- --- --- ------ -------- ----- --- ------ ----- --<br>----- ----- ---------- --- --- ------ ------ ---- -- ------<br>------- --- ------ ----- --- ---- ------- -- ---- way --<br>------- ------,208074,208071,207674.06,207674,207676.02,208076.02,,52,way
screen,html.Screen,2_1_1_1_53,2022-05-02T11:18:01.021Z,,,,,,,,,,,,,,,,,54,,,,,,,,,,,,,,464.9800000000105,,response,,,,100,,,,,,,Space,keypress(Space),,,,,,,,-- --- ---- --- ------ ----- ------- ---- -- --- ------- --<br>------- ---------- ------ -- ----- -- ----- -- ---- ------<br>--- ----- --- --- ------ -------- ----- --- ------ ----- --<br>----- ----- ---------- --- --- ------ ------ ---- -- ------<br>------- --- ------ ----- --- ---- ------- -- ---- --- of<br>------- ------,208546,208541,208074.06,208074,208076.02,208548.84,,53,of
screen,html.Screen,2_1_1_1_54,2022-05-02T11:18:01.485Z,,,,,,,,,,,,,,,,,54,,,,,,,,,,,,,,445.1600000000035,,response,,,,100,,,,,,,Space,keypress(Space),,,,,,,,-- --- ---- --- ------ ----- ------- ---- -- --- ------- --<br>------- ---------- ------ -- ----- -- ----- -- ---- ------<br>--- ----- --- --- ------ -------- ----- --- ------ ----- --<br>----- ----- ---------- --- --- ------ ------ ---- -- ------<br>------- --- ------ ----- --- ---- ------- -- ---- --- --<br>raising ------,209010,208994,208546.28,208546,208548.84,209011.34,,54,raising
screen,html.Screen,2_1_1_1_55,2022-05-02T11:18:02.677Z,,,,,,,,,,,,,,,,,54,,,,,,,,,,,,,,1184.6600000000035,,response,,,,100,,,,,,,Space,keypress(Space),,,,,,,,-- --- ---- --- ------ ----- ------- ---- -- --- ------- --<br>------- ---------- ------ -- ----- -- ----- -- ---- ------<br>--- ----- --- --- ------ -------- ----- --- ------ ----- --<br>----- ----- ---------- --- --- ------ ------ ---- -- ------<br>------- --- ------ ----- --- ---- ------- -- ---- --- --<br>------- money.,210202,210196,209010.1,209010,209011.34,210207.18,,55,money.
Item 100,flow.Loop,2_1_1_1,2022-05-02T11:18:02.677Z,,,,,,,,,,,,,,,,,,,,,,,,,,,,,,,36787.32000000001,,completion,,,,,F,,,,,,,,,,,silence,,,,,210202,210196,173404.5,173407,173408.68,210207.18,,,
Question 1,html.Screen,2_1_1_2,2022-05-02T11:18:06.657Z,,,,,,,,,,,,,,,,,,,,,,,,,,,,true,TRUE,,3973.820000000007,,response,,,,100,F,,,,,,TRUE,click #choice-1,,,,silence,,,,,214183,214181,210203,210202,210207.18,214186.18,,,
Question 2,html.Screen,2_1_1_3,2022-05-02T11:18:10.037Z,,,,,,,,,,,,,,,,,,,,,,,,,,,,true,FALSE,,3369.820000000007,,response,,,,100,F,,,,,,FALSE,click #choice-2,,,,silence,,,,,217562,217556,214182.48,214183,214186.18,217565.16,,,
Item 100,flow.Sequence,2_1_1,2022-05-02T11:18:10.037Z,,,,,,,,,,,,,,,,,,,,,,,,,,,,,,,54148.98000000001,,completion,,,,,,,,,,,,,,,,,,,,,217562,217556,163406.82,163408,163407.02,217565.16,,,
End of Practice,html.Page,2_1_2,2022-05-02T11:18:15.305Z,,,,,,,,,,,,,,,,,,,,,,,,,,,,,,,5264.8399999999965,,form submission,,,,,,,,,,,,,,,,,,,,,222830,222830,217561.92,217563,217565.16,222829.5,,,
Practice,flow.Sequence,2_1,2022-05-02T11:18:15.305Z,,,,,,,,,,,,,,,,,,,,,,,,,,,,,,,124089.22,,completion,,,,,,,,,,,,,,,,,,,,,222830,222830,98739.72,98742,98740.78,222829.5,,,
Trap_instruction,html.Page,2_2_0,2022-05-02T11:18:19.997Z,,,,,,,,,,,,,,,,,,,,,,,,,,,,,,,4692.5,,form submission,,,,,,,,,,,,,,,,,,,,,227522,227522,222828.44,222830,222829.5,227529.32,,,
trap_trial,html.Screen,2_2_1,2022-05-02T11:18:22.994Z,,,,,,,,,,,,,,,,,,,,,,,,,,,,true,1,,2980.679999999993,,response,,,,,,,,,,,1,click #choice-1,,,,,,,,,230520,230510,227520.92,227522,227529.32,230522.98,,,
end of trap trial,html.Page,2_2_2,2022-05-02T11:18:25.118Z,,,,,,,,,,,,,,,,,,,,,,,,,,,,,,,2121.0199999999895,,form submission,,,,,,,,,,,,,,,,,,,,,232644,232644,230519.44,230520,230522.98,232645.82,,,
Trap 1,flow.Sequence,2_2,2022-05-02T11:18:25.118Z,,,,,,,,,,,,,,,,,,,,,,,,,,,,,,,9814.5,,completion,,,,,,,,,,,,,,,,,,,,,232644,232644,222828.44,222830,222829.5,232645.82,,,
Standby,html.Page,2_3_0,2022-05-02T11:18:33.117Z,,,,,,,,,,,,,,,,,,,,,,,,,,,,,,,7999.6999999999825,,timeout,,,,,,,,,,,,,,,,,,,,,240643,240641.34,232642.66,232645,232645.82,240645.52,,,
Holding screen,html.Screen,2_3_1_0_0,2022-05-02T11:18:40.116Z,,,,,,,,,,,,,,,,,,,,,,,,,,,,,,,6999.680000000022,,timeout,,,,,,,,,,,,,,,,,,,,,247641,247641.02,240641.34,240643,240645.52,247645.2,,,
screen,html.Screen,2_3_1_0_1_0,2022-05-02T11:18:41.085Z,,,,,,,,,,,,,,,,,12,,,,,,,,,,,,,,958.7999999999884,,response,,,,5,F,,,,,,Space,keypress(Space),,,,lyrical,,,,Some ------ ------ ------- ------ --- ------- -----------<br>-- ----- --- ---- -- --- ------ ---- - ---- -- ----------<br>-- ------ ---- --- ---- --- --- --- ----- -- -------- ---<br>------ ------- -------- --- ---- -- ------- ------------ --<br>------ -- ---- -- --- ---- -- -------- -- --- ------ ------,248610,248604,247641.02,247641,247645.2,248611.86,,0,Some
screen,html.Screen,2_3_1_0_1_1,2022-05-02T11:18:41.831Z,,,,,,,,,,,,,,,,,12,,,,,,,,,,,,,,742.140000000014,,response,,,,5,F,,,,,,Space,keypress(Space),,,,lyrical,,,,---- months ------ ------- ------ --- ------- -----------<br>-- ----- --- ---- -- --- ------ ---- - ---- -- ----------<br>-- ------ ---- --- ---- --- --- --- ----- -- -------- ---<br>------ ------- -------- --- ---- -- ------- ------------ --<br>------ -- ---- -- --- ---- -- -------- -- --- ------ ------,249356,249354,248610.54,248611,248611.86,249357.7,,1,months
screen,html.Screen,2_3_1_0_1_2,2022-05-02T11:18:42.901Z,,,,,,,,,,,,,,,,,12,,,,,,,,,,,,,,1057.2999999999884,,response,,,,5,F,,,,,,Space,keypress(Space),,,,lyrical,,,,"---- ------ later, ------- ------ --- ------- -----------<br>-- ----- --- ---- -- --- ------ ---- - ---- -- ----------<br>-- ------ ---- --- ---- --- --- --- ----- -- -------- ---<br>------ ------- -------- --- ---- -- ------- ------------ --<br>------ -- ---- -- --- ---- -- -------- -- --- ------ ------",250426,250415,249356.04,249356,249357.7,250426.36,,2,"later,"
screen,html.Screen,2_3_1_0_1_3,2022-05-02T11:18:43.716Z,,,,,,,,,,,,,,,,,12,,,,,,,,,,,,,,802.640000000014,,response,,,,5,F,,,,,,Space,keypress(Space),,,,lyrical,,,,---- ------ ------ Michael ------ --- ------- -----------<br>-- ----- --- ---- -- --- ------ ---- - ---- -- ----------<br>-- ------ ---- --- ---- --- --- --- ----- -- -------- ---<br>------ ------- -------- --- ---- -- ------- ------------ --<br>------ -- ---- -- --- ---- -- -------- -- --- ------ ------,251242,251229,250426.12,250426,250426.36,251243.04,,3,Michael
screen,html.Screen,2_3_1_0_1_4,2022-05-02T11:18:44.637Z,,,,,,,,,,,,,,,,,12,,,,,,,,,,,,,,906.9599999999919,,response,,,,5,F,,,,,,Space,keypress(Space),,,,lyrical,,,,---- ------ ------ ------- Larson --- ------- -----------<br>-- ----- --- ---- -- --- ------ ---- - ---- -- ----------<br>-- ------ ---- --- ---- --- --- --- ----- -- -------- ---<br>------ ------- -------- --- ---- -- ------- ------------ --<br>------ -- ---- -- --- ---- -- -------- -- --- ------ ------,252162,252150,251242.2,251242,251243.04,252165.88,,4,Larson
screen,html.Screen,2_3_1_0_1_5,2022-05-02T11:18:45.285Z,,,,,,,,,,,,,,,,,12,,,,,,,,,,,,,,640.1199999999953,,response,,,,5,F,,,,,,Space,keypress(Space),,,,lyrical,,,,---- ------ ------ ------- ------ saw ------- -----------<br>-- ----- --- ---- -- --- ------ ---- - ---- -- ----------<br>-- ------ ---- --- ---- --- --- --- ----- -- -------- ---<br>------ ------- -------- --- ---- -- ------- ------------ --<br>------ -- ---- -- --- ---- -- -------- -- --- ------ ------,252810,252806,252162.12,252162,252165.88,252811.7,,5,saw
screen,html.Screen,2_3_1_0_1_6,2022-05-02T11:18:45.885Z,,,,,,,,,,,,,,,,,12,,,,,,,,,,,,,,588.2999999999884,,response,,,,5,F,,,,,,Space,keypress(Space),,,,lyrical,,,,---- ------ ------ ------- ------ --- another -----------<br>-- ----- --- ---- -- --- ------ ---- - ---- -- ----------<br>-- ------ ---- --- ---- --- --- --- ----- -- -------- ---<br>------ ------- -------- --- ---- -- ------- ------------ --<br>------ -- ---- -- --- ---- -- -------- -- --- ------ ------,253410,253400,252810.28,252810,252811.7,253411.7,,6,another
screen,html.Screen,2_3_1_0_1_7,2022-05-02T11:18:46.644Z,,,,,,,,,,,,,,,,,12,,,,,,,,,,,,,,753.2999999999884,,response,,,,5,F,,,,,,Space,keypress(Space),,,,lyrical,,,,---- ------ ------ ------- ------ --- ------- opportunity<br>-- ----- --- ---- -- --- ------ ---- - ---- -- ----------<br>-- ------ ---- --- ---- --- --- --- ----- -- -------- ---<br>------ ------- -------- --- ---- -- ------- ------------ --<br>------ -- ---- -- --- ---- -- -------- -- --- ------ ------,254171,254165,253410.16,253410,253411.7,254172.04,,7,opportunity
screen,html.Screen,2_3_1_0_1_8,2022-05-02T11:18:47.093Z,,,,,,,,,,,,,,,,,12,,,,,,,,,,,,,,430.95999999999185,,response,,,,5,F,,,,,,Space,keypress(Space),,,,lyrical,,,,---- ------ ------ ------- ------ --- ------- -----------<br>to ----- --- ---- -- --- ------ ---- - ---- -- ----------<br>-- ------ ---- --- ---- --- --- --- ----- -- -------- ---<br>------ ------- -------- --- ---- -- ------- ------------ --<br>------ -- ---- -- --- ---- -- -------- -- --- ------ ------,254618,254603,254170.22,254171,254172.04,254622.04,,8,to
screen,html.Screen,2_3_1_0_1_9,2022-05-02T11:18:47.769Z,,,,,,,,,,,,,,,,,12,,,,,,,,,,,,,,667.9599999999919,,response,,,,5,F,,,,,,Space,keypress(Space),,,,lyrical,,,,---- ------ ------ ------- ------ --- ------- -----------<br>-- stack --- ---- -- --- ------ ---- - ---- -- ----------<br>-- ------ ---- --- ---- --- --- --- ----- -- -------- ---<br>------ ------- -------- --- ---- -- ------- ------------ --<br>------ -- ---- -- --- ---- -- -------- -- --- ------ ------,255294,255290,254618.08,254618,254622.04,255297.04,,9,stack
screen,html.Screen,2_3_1_0_1_10,2022-05-02T11:18:48.333Z,,,,,,,,,,,,,,,,,12,,,,,,,,,,,,,,555.9599999999919,,response,,,,5,F,,,,,,Space,keypress(Space),,,,lyrical,,,,---- ------ ------ ------- ------ --- ------- -----------<br>-- ----- the ---- -- --- ------ ---- - ---- -- ----------<br>-- ------ ---- --- ---- --- --- --- ----- -- -------- ---<br>------ ------- -------- --- ---- -- ------- ------------ --<br>------ -- ---- -- --- ---- -- -------- -- --- ------ ------,255858,255853,255294.16,255294,255297.04,255861.56,,10,the
screen,html.Screen,2_3_1_0_1_11,2022-05-02T11:18:48.948Z,,,,,,,,,,,,,,,,,12,,,,,,,,,,,,,,601.4400000000023,,response,,,,5,F,,,,,,Space,keypress(Space),,,,lyrical,,,,---- ------ ------ ------- ------ --- ------- -----------<br>-- ----- --- odds -- --- ------ ---- - ---- -- ----------<br>-- ------ ---- --- ---- --- --- --- ----- -- -------- ---<br>------ ------- -------- --- ---- -- ------- ------------ --<br>------ -- ---- -- --- ---- -- -------- -- --- ------ ------,256474,256463,255858.22,255858,255861.56,256478.22,,11,odds
screen,html.Screen,2_3_1_0_1_12,2022-05-02T11:18:49.397Z,,,,,,,,,,,,,,,,,12,,,,,,,,,,,,,,436.77999999999884,,response,,,,5,F,,,,,,Space,keypress(Space),,,,lyrical,,,,---- ------ ------ ------- ------ --- ------- -----------<br>-- ----- --- ---- in --- ------ ---- - ---- -- ----------<br>-- ------ ---- --- ---- --- --- --- ----- -- -------- ---<br>------ ------- -------- --- ---- -- ------- ------------ --<br>------ -- ---- -- --- ---- -- -------- -- --- ------ ------,256922,256915,256474.08,256474,256478.22,256924.06,,12,in
screen,html.Screen,2_3_1_0_1_13,2022-05-02T11:18:49.861Z,,,,,,,,,,,,,,,,,12,,,,,,,,,,,,,,459.9400000000023,,response,,,,5,F,,,,,,Space,keypress(Space),,,,lyrical,,,,---- ------ ------ ------- ------ --- ------- -----------<br>-- ----- --- ---- -- his ------ ---- - ---- -- ----------<br>-- ------ ---- --- ---- --- --- --- ----- -- -------- ---<br>------ ------- -------- --- ---- -- ------- ------------ --<br>------ -- ---- -- --- ---- -- -------- -- --- ------ ------,257386,257384,256922.2,256922,256924.06,257386.56,,13,his
screen,html.Screen,2_3_1_0_1_14,2022-05-02T11:18:50.501Z,,,,,,,,,,,,,,,,,12,,,,,,,,,,,,,,638.4400000000023,,response,,,,5,F,,,,,,Space,keypress(Space),,,,lyrical,,,,---- ------ ------ ------- ------ --- ------- -----------<br>-- ----- --- ---- -- --- favour ---- - ---- -- ----------<br>-- ------ ---- --- ---- --- --- --- ----- -- -------- ---<br>------ ------- -------- --- ---- -- ------- ------------ --<br>------ -- ---- -- --- ---- -- -------- -- --- ------ ------,258026,258025,257386.32,257386,257386.56,258030.22,,14,favour
screen,html.Screen,2_3_1_0_1_15,2022-05-02T11:18:50.997Z,,,,,,,,,,,,,,,,,12,,,,,,,,,,,,,,478.77999999999884,,response,,,,5,F,,,,,,Space,keypress(Space),,,,lyrical,,,,---- ------ ------ ------- ------ --- ------- -----------<br>-- ----- --- ---- -- --- ------ with - ---- -- ----------<br>-- ------ ---- --- ---- --- --- --- ----- -- -------- ---<br>------ ------- -------- --- ---- -- ------- ------------ --<br>------ -- ---- -- --- ---- -- -------- -- --- ------ ------,258522,258509,258026.12,258026,258030.22,258526.06,,15,with
screen,html.Screen,2_3_1_0_1_16,2022-05-02T11:18:51.477Z,,,,,,,,,,,,,,,,,12,,,,,,,,,,,,,,466.9400000000023,,response,,,,5,F,,,,,,Space,keypress(Space),,,,lyrical,,,,---- ------ ------ ------- ------ --- ------- -----------<br>-- ----- --- ---- -- --- ------ ---- a ---- -- ----------<br>-- ------ ---- --- ---- --- --- --- ----- -- -------- ---<br>------ ------- -------- --- ---- -- ------- ------------ --<br>------ -- ---- -- --- ---- -- -------- -- --- ------ ------,259002,258993,258522.1,258522,258526.06,259005.22,,16,a
screen,html.Screen,2_3_1_0_1_17,2022-05-02T11:18:52.085Z,,,,,,,,,,,,,,,,,12,,,,,,,,,,,,,,597.7799999999988,,response,,,,5,F,,,,,,Space,keypress(Space),,,,lyrical,,,,---- ------ ------ ------- ------ --- ------- -----------<br>-- ----- --- ---- -- --- ------ ---- - dash -- ----------<br>-- ------ ---- --- ---- --- --- --- ----- -- -------- ---<br>------ ------- -------- --- ---- -- ------- ------------ --<br>------ -- ---- -- --- ---- -- -------- -- --- ------ ------,259610,259603,259002.2,259003,259005.22,259613.56,,17,dash
screen,html.Screen,2_3_1_0_1_18,2022-05-02T11:18:52.533Z,,,,,,,,,,,,,,,,,12,,,,,,,,,,,,,,443.4400000000023,,response,,,,5,F,,,,,,Space,keypress(Space),,,,lyrical,,,,---- ------ ------ ------- ------ --- ------- -----------<br>-- ----- --- ---- -- --- ------ ---- - ---- of ----------<br>-- ------ ---- --- ---- --- --- --- ----- -- -------- ---<br>------ ------- -------- --- ---- -- ------- ------------ --<br>------ -- ---- -- --- ---- -- -------- -- --- ------ ------,260058,260057,259610.2,259610,259613.56,260061.4,,18,of
screen,html.Screen,2_3_1_0_1_19,2022-05-02T11:18:53.588Z,,,,,,,,,,,,,,,,,12,,,,,,,,,,,,,,1041.6000000000058,,response,,,,5,F,,,,,,Space,keypress(Space),,,,lyrical,,,,---- ------ ------ ------- ------ --- ------- -----------<br>-- ----- --- ---- -- --- ------ ---- - ---- -- ingenuity.<br>-- ------ ---- --- ---- --- --- --- ----- -- -------- ---<br>------ ------- -------- --- ---- -- ------- ------------ --<br>------ -- ---- -- --- ---- -- -------- -- --- ------ ------,261115,261103,260058.16,260058,260061.4,261115.56,,19,ingenuity.
screen,html.Screen,2_3_1_0_1_20,2022-05-02T11:18:54.052Z,,,,,,,,,,,,,,,,,12,,,,,,,,,,,,,,455.4400000000023,,response,,,,5,F,,,,,,Space,keypress(Space),,,,lyrical,,,,---- ------ ------ ------- ------ --- ------- -----------<br>-- ----- --- ---- -- --- ------ ---- - ---- -- ----------<br>He ------ ---- --- ---- --- --- --- ----- -- -------- ---<br>------ ------- -------- --- ---- -- ------- ------------ --<br>------ -- ---- -- --- ---- -- -------- -- --- ------ ------,261579,261571,261114.16,261115,261115.56,261582.22,,20,He
screen,html.Screen,2_3_1_0_1_21,2022-05-02T11:18:54.598Z,,,,,,,,,,,,,,,,,12,,,,,,,,,,,,,,535.7799999999988,,response,,,,5,F,,,,,,Space,keypress(Space),,,,lyrical,,,,---- ------ ------ ------- ------ --- ------- -----------<br>-- ----- --- ---- -- --- ------ ---- - ---- -- ----------<br>-- walked ---- --- ---- --- --- --- ----- -- -------- ---<br>------ ------- -------- --- ---- -- ------- ------------ --<br>------ -- ---- -- --- ---- -- -------- -- --- ------ ------,262123,262118,261578.24,261579,261582.22,262125.9,,21,walked
screen,html.Screen,2_3_1_0_1_22,2022-05-02T11:18:55.117Z,,,,,,,,,,,,,,,,,12,,,,,,,,,,,,,,508.1000000000058,,response,,,,5,F,,,,,,Space,keypress(Space),,,,lyrical,,,,---- ------ ------ ------- ------ --- ------- -----------<br>-- ----- --- ---- -- --- ------ ---- - ---- -- ----------<br>-- ------ into --- ---- --- --- --- ----- -- -------- ---<br>------ ------- -------- --- ---- -- ------- ------------ --<br>------ -- ---- -- --- ---- -- -------- -- --- ------ ------,262642,262634,262123.5,262123,262125.9,262642.56,,22,into
screen,html.Screen,2_3_1_0_1_23,2022-05-02T11:18:55.541Z,,,,,,,,,,,,,,,,,12,,,,,,,,,,,,,,413.4400000000023,,response,,,,5,F,,,,,,Space,keypress(Space),,,,lyrical,,,,---- ------ ------ ------- ------ --- ------- -----------<br>-- ----- --- ---- -- --- ------ ---- - ---- -- ----------<br>-- ------ ---- his ---- --- --- --- ----- -- -------- ---<br>------ ------- -------- --- ---- -- ------- ------------ --<br>------ -- ---- -- --- ---- -- -------- -- --- ------ ------,263066,263056,262642.14,262643,262642.56,263067.56,,23,his
screen,html.Screen,2_3_1_0_1_24,2022-05-02T11:18:56.060Z,,,,,,,,,,,,,,,,,12,,,,,,,,,,,,,,503.4400000000023,,response,,,,5,F,,,,,,Space,keypress(Space),,,,lyrical,,,,---- ------ ------ ------- ------ --- ------- -----------<br>-- ----- --- ---- -- --- ------ ---- - ---- -- ----------<br>-- ------ ---- --- bank --- --- --- ----- -- -------- ---<br>------ ------- -------- --- ---- -- ------- ------------ --<br>------ -- ---- -- --- ---- -- -------- -- --- ------ ------,263586,263571,263066.16,263067,263067.56,263588.4,,24,bank
screen,html.Screen,2_3_1_0_1_25,2022-05-02T11:18:56.461Z,,,,,,,,,,,,,,,,,12,,,,,,,,,,,,,,389.5999999999767,,response,,,,5,F,,,,,,Space,keypress(Space),,,,lyrical,,,,---- ------ ------ ------- ------ --- ------- -----------<br>-- ----- --- ---- -- --- ------ ---- - ---- -- ----------<br>-- ------ ---- --- ---- one --- --- ----- -- -------- ---<br>------ ------- -------- --- ---- -- ------- ------------ --<br>------ -- ---- -- --- ---- -- -------- -- --- ------ ------,263986,263978,263586.14,263586,263588.4,263986.22,,25,one
screen,html.Screen,2_3_1_0_1_26,2022-05-02T11:18:56.909Z,,,,,,,,,,,,,,,,,12,,,,,,,,,,,,,,445.78000000002794,,response,,,,5,F,,,,,,Space,keypress(Space),,,,lyrical,,,,---- ------ ------ ------- ------ --- ------- -----------<br>-- ----- --- ---- -- --- ------ ---- - ---- -- ----------<br>-- ------ ---- --- ---- --- day --- ----- -- -------- ---<br>------ ------- -------- --- ---- -- ------- ------------ --<br>------ -- ---- -- --- ---- -- -------- -- --- ------ ------,264434,264432,263986.1,263987,263986.22,264436.22,,26,day
screen,html.Screen,2_3_1_0_1_27,2022-05-02T11:18:57.308Z,,,,,,,,,,,,,,,,,12,,,,,,,,,,,,,,384.78000000002794,,response,,,,5,F,,,,,,Space,keypress(Space),,,,lyrical,,,,---- ------ ------ ------- ------ --- ------- -----------<br>-- ----- --- ---- -- --- ------ ---- - ---- -- ----------<br>-- ------ ---- --- ---- --- --- and ----- -- -------- ---<br>------ ------- -------- --- ---- -- ------- ------------ --<br>------ -- ---- -- --- ---- -- -------- -- --- ------ ------,264834,264821,264434.14,264434,264436.22,264836.22,,27,and
screen,html.Screen,2_3_1_0_1_28,2022-05-02T11:18:57.813Z,,,,,,,,,,,,,,,,,12,,,,,,,,,,,,,,484.78000000002794,,response,,,,5,F,,,,,,Space,keypress(Space),,,,lyrical,,,,---- ------ ------ ------- ------ --- ------- -----------<br>-- ----- --- ---- -- --- ------ ---- - ---- -- ----------<br>-- ------ ---- --- ---- --- --- --- asked -- -------- ---<br>------ ------- -------- --- ---- -- ------- ------------ --<br>------ -- ---- -- --- ---- -- -------- -- --- ------ ------,265338,265321,264834.06,264834,264836.22,265340.4,,28,asked
screen,html.Screen,2_3_1_0_1_29,2022-05-02T11:18:58.317Z,,,,,,,,,,,,,,,,,12,,,,,,,,,,,,,,496.5999999999767,,response,,,,5,F,,,,,,Space,keypress(Space),,,,lyrical,,,,---- ------ ------ ------- ------ --- ------- -----------<br>-- ----- --- ---- -- --- ------ ---- - ---- -- ----------<br>-- ------ ---- --- ---- --- --- --- ----- to -------- ---<br>------ ------- -------- --- ---- -- ------- ------------ --<br>------ -- ---- -- --- ---- -- -------- -- --- ------ ------,265842,265837,265338.12,265338,265340.4,265842.4,,29,to
screen,html.Screen,2_3_1_0_1_30,2022-05-02T11:18:58.925Z,,,,,,,,,,,,,,,,,12,,,,,,,,,,,,,,603.5999999999767,,response,,,,5,F,,,,,,Space,keypress(Space),,,,lyrical,,,,---- ------ ------ ------- ------ --- ------- -----------<br>-- ----- --- ---- -- --- ------ ---- - ---- -- ----------<br>-- ------ ---- --- ---- --- --- --- ----- -- withdraw ---<br>------ ------- -------- --- ---- -- ------- ------------ --<br>------ -- ---- -- --- ---- -- -------- -- --- ------ ------,266450,266446,265842.1,265842,265842.4,266450.72,,30,withdraw
screen,html.Screen,2_3_1_0_1_31,2022-05-02T11:18:59.404Z,,,,,,,,,,,,,,,,,12,,,,,,,,,,,,,,465.28000000002794,,response,,,,5,F,,,,,,Space,keypress(Space),,,,lyrical,,,,---- ------ ------ ------- ------ --- ------- -----------<br>-- ----- --- ---- -- --- ------ ---- - ---- -- ----------<br>-- ------ ---- --- ---- --- --- --- ----- -- -------- his<br>------ ------- -------- --- ---- -- ------- ------------ --<br>------ -- ---- -- --- ---- -- -------- -- --- ------ ------,266930,266916,266450.12,266450,266450.72,266934.06,,31,his
screen,html.Screen,2_3_1_0_1_32,2022-05-02T11:19:00.044Z,,,,,,,,,,,,,,,,,12,,,,,,,,,,,,,,621.9400000000023,,response,,,,5,F,,,,,,Space,keypress(Space),,,,lyrical,,,,---- ------ ------ ------- ------ --- ------- -----------<br>-- ----- --- ---- -- --- ------ ---- - ---- -- ----------<br>-- ------ ---- --- ---- --- --- --- ----- -- -------- ---<br>entire ------- -------- --- ---- -- ------- ------------ --<br>------ -- ---- -- --- ---- -- -------- -- --- ------ ------,267570,267556,266930.22,266930,266934.06,267571.56,,32,entire
screen,html.Screen,2_3_1_0_1_33,2022-05-02T11:19:00.781Z,,,,,,,,,,,,,,,,,12,,,,,,,,,,,,,,718.4400000000023,,response,,,,5,F,,,,,,Space,keypress(Space),,,,lyrical,,,,---- ------ ------ ------- ------ --- ------- -----------<br>-- ----- --- ---- -- --- ------ ---- - ---- -- ----------<br>-- ------ ---- --- ---- --- --- --- ----- -- -------- ---<br>------ account -------- --- ---- -- ------- ------------ --<br>------ -- ---- -- --- ---- -- -------- -- --- ------ ------,268306,268290,267570.16,267570,267571.56,268306.9,,33,account
screen,html.Screen,2_3_1_0_1_34,2022-05-02T11:19:01.309Z,,,,,,,,,,,,,,,,,12,,,,,,,,,,,,,,515.0999999999767,,response,,,,5,F,,,,,,Space,keypress(Space),,,,lyrical,,,,"---- ------ ------ ------- ------ --- ------- -----------<br>-- ----- --- ---- -- --- ------ ---- - ---- -- ----------<br>-- ------ ---- --- ---- --- --- --- ----- -- -------- ---<br>------ ------- balance, --- ---- -- ------- ------------ --<br>------ -- ---- -- --- ---- -- -------- -- --- ------ ------",268834,268822,268306.2,268306,268306.9,268836.06,,34,"balance,"
screen,html.Screen,2_3_1_0_1_35,2022-05-02T11:19:01.725Z,,,,,,,,,,,,,,,,,12,,,,,,,,,,,,,,406.9400000000023,,response,,,,5,F,,,,,,Space,keypress(Space),,,,lyrical,,,,---- ------ ------ ------- ------ --- ------- -----------<br>-- ----- --- ---- -- --- ------ ---- - ---- -- ----------<br>-- ------ ---- --- ---- --- --- --- ----- -- -------- ---<br>------ ------- -------- but ---- -- ------- ------------ --<br>------ -- ---- -- --- ---- -- -------- -- --- ------ ------,269250,269243,268834.12,268834,268836.06,269252.74,,35,but
screen,html.Screen,2_3_1_0_1_36,2022-05-02T11:19:02.173Z,,,,,,,,,,,,,,,,,12,,,,,,,,,,,,,,444.2600000000093,,response,,,,5,F,,,,,,Space,keypress(Space),,,,lyrical,,,,---- ------ ------ ------- ------ --- ------- -----------<br>-- ----- --- ---- -- --- ------ ---- - ---- -- ----------<br>-- ------ ---- --- ---- --- --- --- ----- -- -------- ---<br>------ ------- -------- --- with -- ------- ------------ --<br>------ -- ---- -- --- ---- -- -------- -- --- ------ ------,269698,269697,269250.1,269250,269252.74,269698.56,,36,with
screen,html.Screen,2_3_1_0_1_37,2022-05-02T11:19:02.540Z,,,,,,,,,,,,,,,,,12,,,,,,,,,,,,,,357.4400000000023,,response,,,,5,F,,,,,,Space,keypress(Space),,,,lyrical,,,,---- ------ ------ ------- ------ --- ------- -----------<br>-- ----- --- ---- -- --- ------ ---- - ---- -- ----------<br>-- ------ ---- --- ---- --- --- --- ----- -- -------- ---<br>------ ------- -------- --- ---- an ------- ------------ --<br>------ -- ---- -- --- ---- -- -------- -- --- ------ ------,270066,270056,269698.18,269698,269698.56,270067.22,,37,an
screen,html.Screen,2_3_1_0_1_38,2022-05-02T11:19:03.140Z,,,,,,,,,,,,,,,,,12,,,,,,,,,,,,,,582.7800000000279,,response,,,,5,F,,,,,,Space,keypress(Space),,,,lyrical,,,,---- ------ ------ ------- ------ --- ------- -----------<br>-- ----- --- ---- -- --- ------ ---- - ---- -- ----------<br>-- ------ ---- --- ---- --- --- --- ----- -- -------- ---<br>------ ------- -------- --- ---- -- unusual ------------ --<br>------ -- ---- -- --- ---- -- -------- -- --- ------ ------,270666,270650,270066.1,270066,270067.22,270667.22,,38,unusual
screen,html.Screen,2_3_1_0_1_39,2022-05-02T11:19:04.044Z,,,,,,,,,,,,,,,,,12,,,,,,,,,,,,,,888.7800000000279,,response,,,,5,F,,,,,,Space,keypress(Space),,,,lyrical,,,,---- ------ ------ ------- ------ --- ------- -----------<br>-- ----- --- ---- -- --- ------ ---- - ---- -- ----------<br>-- ------ ---- --- ---- --- --- --- ----- -- -------- ---<br>------ ------- -------- --- ---- -- ------- stipulation: --<br>------ -- ---- -- --- ---- -- -------- -- --- ------ ------,271570,271556,270666.22,270666,270667.22,271571.38,,39,stipulation:
screen,html.Screen,2_3_1_0_1_40,2022-05-02T11:19:04.583Z,,,,,,,,,,,,,,,,,12,,,,,,,,,,,,,,531.6199999999953,,response,,,,5,F,,,,,,Space,keypress(Space),,,,lyrical,,,,---- ------ ------ ------- ------ --- ------- -----------<br>-- ----- --- ---- -- --- ------ ---- - ---- -- ----------<br>-- ------ ---- --- ---- --- --- --- ----- -- -------- ---<br>------ ------- -------- --- ---- -- ------- ------------ He<br>------ -- ---- -- --- ---- -- -------- -- --- ------ ------,272109,272103,271570.12,271570,271571.38,272110.88,,40,He
screen,html.Screen,2_3_1_0_1_41,2022-05-02T11:19:05.138Z,,,,,,,,,,,,,,,,,12,,,,,,,,,,,,,,539.1199999999953,,response,,,,5,F,,,,,,Space,keypress(Space),,,,lyrical,,,,---- ------ ------ ------- ------ --- ------- -----------<br>-- ----- --- ---- -- --- ------ ---- - ---- -- ----------<br>-- ------ ---- --- ---- --- --- --- ----- -- -------- ---<br>------ ------- -------- --- ---- -- ------- ------------ --<br>wanted -- ---- -- --- ---- -- -------- -- --- ------ ------,272663,272650,272108.98,272109,272110.88,272665.06,,41,wanted
screen,html.Screen,2_3_1_0_1_42,2022-05-02T11:19:05.669Z,,,,,,,,,,,,,,,,,12,,,,,,,,,,,,,,515.9400000000023,,response,,,,5,F,,,,,,Space,keypress(Space),,,,lyrical,,,,---- ------ ------ ------- ------ --- ------- -----------<br>-- ----- --- ---- -- --- ------ ---- - ---- -- ----------<br>-- ------ ---- --- ---- --- --- --- ----- -- -------- ---<br>------ ------- -------- --- ---- -- ------- ------------ --<br>------ as ---- -- --- ---- -- -------- -- --- ------ ------,273194,273181,272663.24,272663,272665.06,273194.22,,42,as
screen,html.Screen,2_3_1_0_1_43,2022-05-02T11:19:06.469Z,,,,,,,,,,,,,,,,,12,,,,,,,,,,,,,,783.7800000000279,,response,,,,5,F,,,,,,Space,keypress(Space),,,,lyrical,,,,---- ------ ------ ------- ------ --- ------- -----------<br>-- ----- --- ---- -- --- ------ ---- - ---- -- ----------<br>-- ------ ---- --- ---- --- --- --- ----- -- -------- ---<br>------ ------- -------- --- ---- -- ------- ------------ --<br>------ -- much -- --- ---- -- -------- -- --- ------ ------,273994,273978,273194.2,273194,273194.22,273996.22,,43,much
screen,html.Screen,2_3_1_0_1_44,2022-05-02T11:19:06.916Z,,,,,,,,,,,,,,,,,12,,,,,,,,,,,,,,434.78000000002794,,response,,,,5,F,,,,,,Space,keypress(Space),,,,lyrical,,,,---- ------ ------ ------- ------ --- ------- -----------<br>-- ----- --- ---- -- --- ------ ---- - ---- -- ----------<br>-- ------ ---- --- ---- --- --- --- ----- -- -------- ---<br>------ ------- -------- --- ---- -- ------- ------------ --<br>------ -- ---- of --- ---- -- -------- -- --- ------ ------,274442,274431,273994.12,273994,273996.22,274446.22,,44,of
screen,html.Screen,2_3_1_0_1_45,2022-05-02T11:19:07.532Z,,,,,,,,,,,,,,,,,12,,,,,,,,,,,,,,609.7800000000279,,response,,,,5,F,,,,,,Space,keypress(Space),,,,lyrical,,,,---- ------ ------ ------- ------ --- ------- -----------<br>-- ----- --- ---- -- --- ------ ---- - ---- -- ----------<br>-- ------ ---- --- ---- --- --- --- ----- -- -------- ---<br>------ ------- -------- --- ---- -- ------- ------------ --<br>------ -- ---- -- the ---- -- -------- -- --- ------ ------,275058,275056,274442.12,274442,274446.22,275058.72,,45,the
screen,html.Screen,2_3_1_0_1_46,2022-05-02T11:19:08.437Z,,,,,,,,,,,,,,,,,12,,,,,,,,,,,,,,887.2800000000279,,response,,,,5,F,,,,,,Space,keypress(Space),,,,lyrical,,,,---- ------ ------ ------- ------ --- ------- -----------<br>-- ----- --- ---- -- --- ------ ---- - ---- -- ----------<br>-- ------ ---- --- ---- --- --- --- ----- -- -------- ---<br>------ ------- -------- --- ---- -- ------- ------------ --<br>------ -- ---- -- --- cash -- -------- -- --- ------ ------,275962,275946,275058.12,275058,275058.72,275962.9,,46,cash
screen,html.Screen,2_3_1_0_1_47,2022-05-02T11:19:08.933Z,,,,,,,,,,,,,,,,,12,,,,,,,,,,,,,,483.0999999999767,,response,,,,5,F,,,,,,Space,keypress(Space),,,,lyrical,,,,---- ------ ------ ------- ------ --- ------- -----------<br>-- ----- --- ---- -- --- ------ ---- - ---- -- ----------<br>-- ------ ---- --- ---- --- --- --- ----- -- -------- ---<br>------ ------- -------- --- ---- -- ------- ------------ --<br>------ -- ---- -- --- ---- as -------- -- --- ------ ------,276458,276446,275962.12,275962,275962.9,276460.72,,47,as
screen,html.Screen,2_3_1_0_1_48,2022-05-02T11:19:09.766Z,,,,,,,,,,,,,,,,,12,,,,,,,,,,,,,,829.2800000000279,,response,,,,5,F,,,,,,Space,keypress(Space),,,,lyrical,,,,---- ------ ------ ------- ------ --- ------- -----------<br>-- ----- --- ---- -- --- ------ ---- - ---- -- ----------<br>-- ------ ---- --- ---- --- --- --- ----- -- -------- ---<br>------ ------- -------- --- ---- -- ------- ------------ --<br>------ -- ---- -- --- ---- -- possible -- --- ------ ------,277292,277290,276458.24,276458,276460.72,277294.06,,48,possible
screen,html.Screen,2_3_1_0_1_49,2022-05-02T11:19:10.237Z,,,,,,,,,,,,,,,,,12,,,,,,,,,,,,,,464.9400000000023,,response,,,,5,F,,,,,,Space,keypress(Space),,,,lyrical,,,,---- ------ ------ ------- ------ --- ------- -----------<br>-- ----- --- ---- -- --- ------ ---- - ---- -- ----------<br>-- ------ ---- --- ---- --- --- --- ----- -- -------- ---<br>------ ------- -------- --- ---- -- ------- ------------ --<br>------ -- ---- -- --- ---- -- -------- in --- ------ ------,277762,277759,277292.16,277292,277294.06,277764.9,,49,in
screen,html.Screen,2_3_1_0_1_50,2022-05-02T11:19:10.941Z,,,,,,,,,,,,,,,,,12,,,,,,,,,,,,,,697.0999999999767,,response,,,,5,F,,,,,,Space,keypress(Space),,,,lyrical,,,,---- ------ ------ ------- ------ --- ------- -----------<br>-- ----- --- ---- -- --- ------ ---- - ---- -- ----------<br>-- ------ ---- --- ---- --- --- --- ----- -- -------- ---<br>------ ------- -------- --- ---- -- ------- ------------ --<br>------ -- ---- -- --- ---- -- -------- -- one ------ ------,278467,278462,277762.2,277762,277764.9,278466.88,,50,one
screen,html.Screen,2_3_1_0_1_51,2022-05-02T11:19:11.493Z,,,,,,,,,,,,,,,,,12,,,,,,,,,,,,,,542.1199999999953,,response,,,,5,F,,,,,,Space,keypress(Space),,,,lyrical,,,,---- ------ ------ ------- ------ --- ------- -----------<br>-- ----- --- ---- -- --- ------ ---- - ---- -- ----------<br>-- ------ ---- --- ---- --- --- --- ----- -- -------- ---<br>------ ------- -------- --- ---- -- ------- ------------ --<br>------ -- ---- -- --- ---- -- -------- -- --- dollar ------,279018,279009,278466.48,278467,278466.88,279021.06,,51,dollar
screen,html.Screen,2_3_1_0_1_52,2022-05-02T11:19:12.957Z,,,,,,,,,,,,,,,,,12,,,,,,,,,,,,,,1456.9400000000023,,response,,,,5,F,,,,,,Space,keypress(Space),,,,lyrical,,,,---- ------ ------ ------- ------ --- ------- -----------<br>-- ----- --- ---- -- --- ------ ---- - ---- -- ----------<br>-- ------ ---- --- ---- --- --- --- ----- -- -------- ---<br>------ ------- -------- --- ---- -- ------- ------------ --<br>------ -- ---- -- --- ---- -- -------- -- --- ------ notes.,280482,280478,279018.2,279018,279021.06,280485.56,,52,notes.
Item 5,flow.Loop,2_3_1_0_1,2022-05-02T11:19:12.957Z,,,,,,,,,,,,,,,,,,,,,,,,,,,,,,,32832.79999999999,,completion,,,,,,,,,,,,,,,,,,,,,280483,280478,247641.02,247641,247645.2,280485.56,,,
Question 1,html.Screen,2_3_1_0_2,2022-05-02T11:19:15.709Z,,,,,,,,,,,,,,,,,,,,,,,,,,,,true,TRUE,,2742.4400000000023,,response,,,,5,F,,,,,,TRUE,click #choice-1,,,,lyrical,,,,,283234,283228,280482.4,280483,280485.56,283237.56,,,
Question 2,html.Screen,2_3_1_0_3,2022-05-02T11:19:19.776Z,,,,,,,,,,,,,,,,,,,,,,,,,,,,true,TRUE,,4052.4400000000023,,response,,,,5,F,,,,,,TRUE,click #choice-1,,,,lyrical,,,,,287301,287290,283233.66,283234,283237.56,287308.22,,,
Item 5,flow.Sequence,2_3_1_0,2022-05-02T11:19:19.776Z,,,,,,,,,,,,,,,,,,,,,,,,,,,,,,,46644.48000000001,,completion,,,,,,,,,,,,,,,,,,,,,287302,287290,240641.34,240643,240645.52,287308.22,,,
Holding screen,html.Screen,2_3_1_1_0,2022-05-02T11:19:26.783Z,,,,,,,,,,,,,,,,,,,,,,,,,,,,,,,7001.820000000007,,timeout,,,,,,,,,,,,,,,,,,,,,294308,294305.88,287304.06,287302,287308.22,294310.04,,,
screen,html.Screen,2_3_1_1_1_0,2022-05-02T11:19:28.029Z,,,,,,,,,,,,,,,,,2,,,,,,,,,,,,,,1229.960000000021,,response,,,,1,F,,,,,,Space,keypress(Space),,,,lyrical,,,,Two ---- ------ --- ------- ---------- ------- ----------<br>--- --------- --- ----------- ------- ----- ------- ---<br>--------- ---- -- --- ---- -- --------- -- ---- -------<br>-- --------- ------ --- ----- ------ ---- --- --------- --<br>------ - ---- -- --- ----------- ------- ---- ----- -----<br>--- -------- - ------ ---- -- ----- ---- --- --- -----------<br>-- -------,295554,295540,294305.88,294308,294310.04,295557.88,,0,Two
