sender,sender_type,sender_id,timestamp,meta,,Blues,Classical,Country,Dance,Electronic,Folk,Gospel,Hip-Hop,Jazz,Latin,Musical/Film,New-age,Pop,Prolific_id,Provo_ID,R&B,Rap,Reggae,Religious,Rock,Soul,Swing,Traditional,age,artist_name,correct,correctResponse,distraction,duration,education,ended_on,familiarity,gender,headphone_check_performance,item,list,music_frequency,offensiveness,pleasantness,position_correct,preference,response,response_action,snippet_file,song_name,song_rating,sound,stimulus_1,stimulus_2,stimulus_3,text,time_commit,time_end,time_render,time_run,time_show,time_switch,url,word,word_ID
Prolific ID,html.Form,0,2022-04-28T10:29:45.668Z,"{""labjs_version"":""20.2.2"",""labjs_build"":{""flavor"":""production"",""commit"":""a25486e0c714a0ae2ce03ff94b7bb6896854dcfa""},""location"":""https://run.pavlovia.org/mvasilev/prolific3_music_d/"",""userAgent"":""Mozilla/5.0 (Windows NT 10.0; Win64; x64) AppleWebKit/537.36 (KHTML, like Gecko) Chrome/101.0.4951.41 Safari/537.36"",""platform"":""Win32"",""language"":""en-GB"",""locale"":""en-GB"",""timeZone"":""Europe/London"",""timezoneOffset"":-60,""screen_width"":1920,""screen_height"":1080,""scroll_width"":1920,""scroll_height"":893,""window_innerWidth"":1920,""window_innerHeight"":941,""devicePixelRatio"":1}",,,,,,,,,,,,,,,5effa70455b1f209ae25a233,,,,,,,,,,,,,,,5813.72400000149,,form submission,,,,,,,,,,,,,,,,,,,,,22019.10000000149,22018.60000000149,16153.338,16163.20000000298,16204.876,22021.35,{},,
Introduction,html.Screen,1_0,2022-04-28T10:29:49.977Z,,,,,,,,,,,,,,,,,,,,,,,,,,,,,,,4304.549999998511,,response,,,,,,,,,,,continue,click button,,,,,,,,,26328.20000000298,26325.89999999851,22004.623,22019.39999999851,22021.35,26338.294,,,
Volume calibration,html.Screen,1_1,2022-04-28T10:30:22.942Z,,,,,,,,,,,,,,,,,,,,,,,,,,,,,,,32951.10599999851,,response,,,,,,,,,,,continue,click button,,,,,,,,,59293.79999999702,59289.39999999851,26321.609,26328.29999999702,26338.294,59313.641,,,
Task instructions,html.Screen,1_2,2022-04-28T10:30:28.077Z,,,,,,,,,,,,,,,,,,,,,,,,,,,,,,,5113.559000002977,,response,,,,,,,,,,,continue,click button,,,,,,,,,64428.20000000298,64427.20000000298,59273.649,59293.89999999851,59313.641,64440.634,,,
Sounds,html.Screen,1_3_0_0,2022-04-28T10:30:32.325Z,,,,,,,,,,,,,,,,,,,,,,,,,,,,,,,4250.265999999996,,timeout,,,,,,,,,3,,,,,,,,O,I,S,,68676.5,68674.362,64424.101,64428.5,64440.634,68690.9,,,
Judgement,html.Screen,1_3_0_1,2022-04-28T10:30:33.990Z,,,,,,,,,,,,,,,,,,,,,,,,,,,,true,3,,1649.300000002986,,response,,,,,,,,,3,,3,click #choice-3,,,,,O,I,S,,70341.29999999702,70340.20000000298,68674.362,68676.60000000149,68690.9,70363.57,,,
Trial,flow.Sequence,1_3_0,2022-04-28T10:30:33.990Z,,,,,,,,,,,,,,,,,,,,,,,,,,,,,,,5899.566000002982,,completion,,,,,,,,,3,,,,,,,,O,I,S,,70341.89999999851,70340.20000000298,64424.101,64428.5,64440.634,70363.57,,,
Sounds,html.Screen,1_3_1_0,2022-04-28T10:30:38.241Z,,,,,,,,,,,,,,,,,,,,,,,,,,,,,,,4244.478999999992,,timeout,,,,,,,,,2,,,,,,,,O,S,I,,74592.60000000149,74591.566,70324.451,70342.29999999702,70363.57,74608.049,,,
Judgement,html.Screen,1_3_1_1,2022-04-28T10:30:38.660Z,,,,,,,,,,,,,,,,,,,,,,,,,,,,true,2,,402.05100000149105,,response,,,,,,,,,2,,2,click #choice-2,,,,,O,S,I,,75011.39999999851,75010.10000000149,74591.566,74592.70000000298,74608.049,75024.637,,,
Trial,flow.Sequence,1_3_1,2022-04-28T10:30:38.660Z,,,,,,,,,,,,,,,,,,,,,,,,,,,,,,,4646.530000001483,,completion,,,,,,,,,2,,,,,,,,O,S,I,,75011.60000000149,75010.10000000149,70324.451,70342,70363.57,75024.637,,,
Sounds,html.Screen,1_3_2_0,2022-04-28T10:30:42.909Z,,,,,,,,,,,,,,,,,,,,,,,,,,,,,,,4250.262999999992,,timeout,,,,,,,,,3,,,,,,,,I,O,S,,79260.39999999851,79258.247,75007.937,75011.89999999851,75024.637,79274.9,,,
Judgement,html.Screen,1_3_2_1,2022-04-28T10:30:43.358Z,,,,,,,,,,,,,,,,,,,,,,,,,,,,true,3,,434.20000000149594,,response,,,,,,,,,3,,3,click #choice-3,,,,,I,O,S,,79709.89999999851,79709.10000000149,79258.247,79260.60000000149,79274.9,79741.85,,,
Trial,flow.Sequence,1_3_2,2022-04-28T10:30:43.359Z,,,,,,,,,,,,,,,,,,,,,,,,,,,,,,,4684.463000001488,,completion,,,,,,,,,3,,,,,,,,I,O,S,,79710.39999999851,79709.10000000149,75007.937,75011.79999999702,75024.637,79741.85,,,
Sounds,html.Screen,1_3_3_0,2022-04-28T10:30:47.625Z,,,,,,,,,,,,,,,,,,,,,,,,,,,,,,,4250.027999999991,,timeout,,,,,,,,,2,,,,,,,,I,S,O,,83976.29999999702,83975.208,79725.105,79710.5,79741.85,83991.878,,,
Judgement,html.Screen,1_3_3_1,2022-04-28T10:30:48.621Z,,,,,,,,,,,,,,,,,,,,,,,,,,,,false,2,,980.0219999985129,,response,,,,,,,,,2,,1,click #choice-1,,,,,I,S,O,,84972.79999999702,84971.89999999851,83975.208,83976.29999999702,83991.878,84975.316,,,
Trial,flow.Sequence,1_3_3,2022-04-28T10:30:48.622Z,,,,,,,,,,,,,,,,,,,,,,,,,,,,,,,5230.049999998504,,completion,,,,,,,,,2,,,,,,,,I,S,O,,84973.10000000149,84971.89999999851,79725.105,79710.39999999851,79741.85,84975.316,,,
Sounds,html.Screen,1_3_4_0,2022-04-28T10:30:52.858Z,,,,,,,,,,,,,,,,,,,,,,,,,,,,,,,4250.208999999988,,timeout,,,,,,,,,1,,,,,,,,S,I,O,,89209.39999999851,89208.888,84958.589,84973.10000000149,84975.316,89225.525,,,
Judgement,html.Screen,1_3_4_1,2022-04-28T10:30:53.247Z,,,,,,,,,,,,,,,,,,,,,,,,,,,,true,1,,372.07500000149594,,response,,,,,,,,,1,,1,click #choice-1,,,,,S,I,O,,89598.89999999851,89597.60000000149,89208.888,89209.60000000149,89225.525,89608.961,,,
Trial,flow.Sequence,1_3_4,2022-04-28T10:30:53.248Z,,,,,,,,,,,,,,,,,,,,,,,,,,,,,,,4622.284000001484,,completion,,,,,,,,,1,,,,,,,,S,I,O,,89599.10000000149,89597.60000000149,84958.589,84973.10000000149,84975.316,89608.961,,,
Sounds,html.Screen,1_3_5_0,2022-04-28T10:30:57.492Z,,,,,,,,,,,,,,,,,,,,,,,,,,,,,,,4250.262000000002,,timeout,,,,,,,,,1,,,,,,,,S,O,I,,93843.5,93842.513,89592.211,89599.29999999702,89608.961,93859.223,,,
Judgement,html.Screen,1_3_5_1,2022-04-28T10:30:57.913Z,,,,,,,,,,,,,,,,,,,,,,,,,,,,true,1,,404.377000001492,,response,,,,,,,,,1,,1,click #choice-1,,,,,S,O,I,,94264.5,94263.60000000149,93842.513,93843.70000000298,93859.223,94275.893,,,
Trial,flow.Sequence,1_3_5,2022-04-28T10:30:57.913Z,,,,,,,,,,,,,,,,,,,,,,,,,,,,,,,4654.639000001494,,completion,,,,,,,,,1,,,,,,,,S,O,I,,94264.70000000298,94263.60000000149,89592.211,89599.10000000149,89608.961,94275.893,,,
Task,flow.Loop,1_3,2022-04-28T10:30:57.918Z,,,,,,,,,,,,,,,,,,,,,,,,,,,,,,,29822.966000001492,,completion,,,0.8333333333333334,,,,,,,,,,,,,,,,,,94269.10000000149,94263.60000000149,64424.101,64428.29999999702,64440.634,94275.893,,,
Trap,html.Screen,1_4,2022-04-28T10:30:57.919Z,,,,,,,,,,,,,,,,,,,,,,,,,,,,,,,NaN,,skipped,,,,,,,,,,,,,,,,,,,,,94270.10000000149,94263.60000000149,,94270,,94275.893,,,
Thanks,html.Screen,1_5,2022-04-28T10:31:00.460Z,,,,,,,,,,,,,,,,,,,,,,,,,,,,,,,2534.5069999985135,,response,,,,,,,,,,,continue,click button,,,,,,,,,96811.5,96810.39999999851,94259.157,94270.10000000149,94275.893,98509.528,,,
Headphone screening,flow.Sequence,1,2022-04-28T10:31:00.460Z,,,,,,,,,,,,,,,,,,,,,,,,,,,,,,,74789.0499999985,,completion,,,,,,,,,,,,,,,,,,,,,96811.60000000149,96810.39999999851,22004.623,22019.39999999851,22021.35,98509.528,,,
Instructions,html.Page,2_0,2022-04-28T10:31:15.482Z,,,,,,,,,,,,,,,,,,,,,,,,,,,,,,,13323.771999997014,,form submission,,,,,,,,,,,,,,,,,,,,,111833.79999999702,111833.29999999702,98492.859,98514.20000000298,98509.528,111843.626,,,
Holding screen,html.Screen,2_1_0_0,2022-04-28T10:31:25.477Z,,,,,,,,,,,,,,,,,,,,,,,,,,,,,,,10000.66799999999,,timeout,,,,,,,,,,,,,,,,,,,,,121828,121827.646,111826.944,111834,111843.626,121844.294,,,
screen,html.Screen,2_1_0_1_0,2022-04-28T10:31:26.521Z,,,,,,,,,,,,,,,,,53,,,,,,,,,,,,,,1026.4060000029858,,response,,,,99,,,,,,,Space,keypress(Space),,,,,,,,When -- ----- -- ------ - ------- --- ----------<br>------------- ------ ------ ---- ---- ------- ----- -- ----<br>-------- ------- -- ---------- --- - --- ----- ----- ----<br>---- --- --- ----- --- ---- ---- ------- ----- ---- -------<br>--- --- -- ----- -- --- ---- -- --- ---- -- ------ ------<br>--- ----- -- ----,122872.79999999702,122870.70000000298,121827.646,121828.20000000298,121844.294,122877.749,,0,When
screen,html.Screen,2_1_0_1_1,2022-04-28T10:31:27.088Z,,,,,,,,,,,,,,,,,53,,,,,,,,,,,,,,561.4510000029841,,response,,,,99,,,,,,,Space,keypress(Space),,,,,,,,---- it ----- -- ------ - ------- --- ----------<br>------------- ------ ------ ---- ---- ------- ----- -- ----<br>-------- ------- -- ---------- --- - --- ----- ----- ----<br>---- --- --- ----- --- ---- ---- ------- ----- ---- -------<br>--- --- -- ----- -- --- ---- -- --- ---- -- ------ ------<br>--- ----- -- ----,123439.89999999851,123439.20000000298,122860.908,122873,122877.749,123444.485,,1,it
screen,html.Screen,2_1_0_1_2,2022-04-28T10:31:27.583Z,,,,,,,,,,,,,,,,,53,,,,,,,,,,,,,,489.4149999985093,,response,,,,99,,,,,,,Space,keypress(Space),,,,,,,,---- -- comes -- ------ - ------- --- ----------<br>------------- ------ ------ ---- ---- ------- ----- -- ----<br>-------- ------- -- ---------- --- - --- ----- ----- ----<br>---- --- --- ----- --- ---- ---- ------- ----- ---- -------<br>--- --- -- ----- -- --- ---- -- --- ---- -- ------ ------<br>--- ----- -- ----,123934.39999999851,123933.89999999851,123427.692,123439.89999999851,123444.485,123944.604,,2,comes
screen,html.Screen,2_1_0_1_3,2022-04-28T10:31:28.051Z,,,,,,,,,,,,,,,,,53,,,,,,,,,,,,,,457.39599999999336,,response,,,,99,,,,,,,Space,keypress(Space),,,,,,,,---- -- ----- to ------ - ------- --- ----------<br>------------- ------ ------ ---- ---- ------- ----- -- ----<br>-------- ------- -- ---------- --- - --- ----- ----- ----<br>---- --- --- ----- --- ---- ---- ------- ----- ---- -------<br>--- --- -- ----- -- --- ---- -- --- ---- -- ------ ------<br>--- ----- -- ----,124402.5,124402,123927.733,123934.5,123944.604,124411.234,,3,to
screen,html.Screen,2_1_0_1_4,2022-04-28T10:31:28.513Z,,,,,,,,,,,,,,,,,53,,,,,,,,,,,,,,452.66599999851314,,response,,,,99,,,,,,,Space,keypress(Space),,,,,,,,---- -- ----- -- having - ------- --- ----------<br>------------- ------ ------ ---- ---- ------- ----- -- ----<br>-------- ------- -- ---------- --- - --- ----- ----- ----<br>---- --- --- ----- --- ---- ---- ------- ----- ---- -------<br>--- --- -- ----- -- --- ---- -- --- ---- -- ------ ------<br>--- ----- -- ----,124864.39999999851,124863.89999999851,124394.405,124402.60000000149,124411.234,124877.841,,4,having
screen,html.Screen,2_1_0_1_5,2022-04-28T10:31:28.933Z,,,,,,,,,,,,,,,,,53,,,,,,,,,,,,,,406.05899999850953,,response,,,,99,,,,,,,Space,keypress(Space),,,,,,,,---- -- ----- -- ------ a ------- --- ----------<br>------------- ------ ------ ---- ---- ------- ----- -- ----<br>-------- ------- -- ---------- --- - --- ----- ----- ----<br>---- --- --- ----- --- ---- ---- ------- ----- ---- -------<br>--- --- -- ----- -- --- ---- -- --- ---- -- ------ ------<br>--- ----- -- ----,125284.5,125283.89999999851,124861.394,124864.5,124877.841,125294.513,,5,a
screen,html.Screen,2_1_0_1_6,2022-04-28T10:31:29.385Z,,,,,,,,,,,,,,,,,53,,,,,,,,,,,,,,441.4869999999937,,response,,,,99,,,,,,,Space,keypress(Space),,,,,,,,---- -- ----- -- ------ - lasting --- ----------<br>------------- ------ ------ ---- ---- ------- ----- -- ----<br>-------- ------- -- ---------- --- - --- ----- ----- ----<br>---- --- --- ----- --- ---- ---- ------- ----- ---- -------<br>--- --- -- ----- -- --- ---- -- --- ---- -- ------ ------<br>--- ----- -- ----,125736.5,125736,125277.981,125284.60000000149,125294.513,125744.749,,6,lasting
screen,html.Screen,2_1_0_1_7,2022-04-28T10:31:29.832Z,,,,,,,,,,,,,,,,,53,,,,,,,,,,,,,,438.1509999985137,,response,,,,99,,,,,,,Space,keypress(Space),,,,,,,,---- -- ----- -- ------ - ------- and ----------<br>------------- ------ ------ ---- ---- ------- ----- -- ----<br>-------- ------- -- ---------- --- - --- ----- ----- ----<br>---- --- --- ----- --- ---- ---- ------- ----- ---- -------<br>--- --- -- ----- -- --- ---- -- --- ---- -- ------ ------<br>--- ----- -- ----,126183.5,126182.89999999851,125727.871,125736.60000000149,125744.749,126194.578,,7,and
screen,html.Screen,2_1_0_1_8,2022-04-28T10:31:30.321Z,,,,,,,,,,,,,,,,,53,,,,,,,,,,,,,,477.8219999985158,,response,,,,99,,,,,,,Space,keypress(Space),,,,,,,,---- -- ----- -- ------ - ------- --- fulfilling<br>------------- ------ ------ ---- ---- ------- ----- -- ----<br>-------- ------- -- ---------- --- - --- ----- ----- ----<br>---- --- --- ----- --- ---- ---- ------- ----- ---- -------<br>--- --- -- ----- -- --- ---- -- --- ---- -- ------ ------<br>--- ----- -- ----,126673,126672.39999999851,126177.835,126183.60000000149,126194.578,126677.908,,8,fulfilling
screen,html.Screen,2_1_0_1_9,2022-04-28T10:31:30.837Z,,,,,,,,,,,,,,,,,53,,,,,,,,,,,,,,510.0920000000042,,response,,,,99,,,,,,,Space,keypress(Space),,,,,,,,"---- -- ----- -- ------ - ------- --- ----------<br>relationship, ------ ------ ---- ---- ------- ----- -- ----<br>-------- ------- -- ---------- --- - --- ----- ----- ----<br>---- --- --- ----- --- ---- ---- ------- ----- ---- -------<br>--- --- -- ----- -- --- ---- -- --- ---- -- ------ ------<br>--- ----- -- ----",127188.60000000149,127188,126661.174,126673.10000000149,126677.908,127194.613,,9,"relationship,"
screen,html.Screen,2_1_0_1_10,2022-04-28T10:31:31.545Z,,,,,,,,,,,,,,,,,53,,,,,,,,,,,,,,701.6869999970222,,response,,,,99,,,,,,,Space,keypress(Space),,,,,,,,---- -- ----- -- ------ - ------- --- ----------<br>------------- common ------ ---- ---- ------- ----- -- ----<br>-------- ------- -- ---------- --- - --- ----- ----- ----<br>---- --- --- ----- --- ---- ---- ------- ----- ---- -------<br>--- --- -- ----- -- --- ---- -- --- ---- -- ------ ------<br>--- ----- -- ----,127896.89999999851,127896.29999999702,127177.895,127188.60000000149,127194.613,127911.824,,10,common
screen,html.Screen,2_1_0_1_11,2022-04-28T10:31:32.012Z,,,,,,,,,,,,,,,,,53,,,,,,,,,,,,,,451.07599999851664,,response,,,,99,,,,,,,Space,keypress(Space),,,,,,,,---- -- ----- -- ------ - ------- --- ----------<br>------------- ------ wisdom ---- ---- ------- ----- -- ----<br>-------- ------- -- ---------- --- - --- ----- ----- ----<br>---- --- --- ----- --- ---- ---- ------- ----- ---- -------<br>--- --- -- ----- -- --- ---- -- --- ---- -- ------ ------<br>--- ----- -- ----,128363.39999999851,128362.89999999851,127894.559,127897,127911.824,128378.034,,11,wisdom
screen,html.Screen,2_1_0_1_12,2022-04-28T10:31:32.449Z,,,,,,,,,,,,,,,,,53,,,,,,,,,,,,,,421.96600000000035,,response,,,,99,,,,,,,Space,keypress(Space),,,,,,,,---- -- ----- -- ------ - ------- --- ----------<br>------------- ------ ------ says ---- ------- ----- -- ----<br>-------- ------- -- ---------- --- - --- ----- ----- ----<br>---- --- --- ----- --- ---- ---- ------- ----- ---- -------<br>--- --- -- ----- -- --- ---- -- --- ---- -- ------ ------<br>--- ----- -- ----,128800.39999999851,128800,128361.348,128363.39999999851,128378.034,128811.398,,12,says
screen,html.Screen,2_1_0_1_13,2022-04-28T10:31:32.933Z,,,,,,,,,,,,,,,,,53,,,,,,,,,,,,,,472.8020000029792,,response,,,,99,,,,,,,Space,keypress(Space),,,,,,,,---- -- ----- -- ------ - ------- --- ----------<br>------------- ------ ------ ---- that ------- ----- -- ----<br>-------- ------- -- ---------- --- - --- ----- ----- ----<br>---- --- --- ----- --- ---- ---- ------- ----- ---- -------<br>--- --- -- ----- -- --- ---- -- --- ---- -- ------ ------<br>--- ----- -- ----,129284.70000000298,129284.20000000298,128795.014,128800.60000000149,128811.398,129294.732,,13,that
screen,html.Screen,2_1_0_1_14,2022-04-28T10:31:33.374Z,,,,,,,,,,,,,,,,,53,,,,,,,,,,,,,,430.2679999999964,,response,,,,99,,,,,,,Space,keypress(Space),,,,,,,,---- -- ----- -- ------ - ------- --- ----------<br>------------- ------ ------ ---- ---- feeling ----- -- ----<br>-------- ------- -- ---------- --- - --- ----- ----- ----<br>---- --- --- ----- --- ---- ---- ------- ----- ---- -------<br>--- --- -- ----- -- --- ---- -- --- ---- -- ------ ------<br>--- ----- -- ----,129725.5,129725,129278.085,129284.89999999851,129294.732,129728.092,,14,feeling
screen,html.Screen,2_1_0_1_15,2022-04-28T10:31:33.805Z,,,,,,,,,,,,,,,,,53,,,,,,,,,,,,,,428.0080000014859,,response,,,,99,,,,,,,Space,keypress(Space),,,,,,,,---- -- ----- -- ------ - ------- --- ----------<br>------------- ------ ------ ---- ---- ------- close -- ----<br>-------- ------- -- ---------- --- - --- ----- ----- ----<br>---- --- --- ----- --- ---- ---- ------- ----- ---- -------<br>--- --- -- ----- -- --- ---- -- --- ---- -- ------ ------<br>--- ----- -- ----,130156.60000000149,130156.10000000149,129711.369,129725.5,129728.092,130161.7,,15,close
screen,html.Screen,2_1_0_1_16,2022-04-28T10:31:34.166Z,,,,,,,,,,,,,,,,,53,,,,,,,,,,,,,,355.400000001493,,response,,,,99,,,,,,,Space,keypress(Space),,,,,,,,---- -- ----- -- ------ - ------- --- ----------<br>------------- ------ ------ ---- ---- ------- ----- to ----<br>-------- ------- -- ---------- --- - --- ----- ----- ----<br>---- --- --- ----- --- ---- ---- ------- ----- ---- -------<br>--- --- -- ----- -- --- ---- -- --- ---- -- ------ ------<br>--- ----- -- ----,130517.5,130517.10000000149,130145.094,130156.79999999702,130161.7,130528.17,,16,to
screen,html.Screen,2_1_0_1_17,2022-04-28T10:31:34.602Z,,,,,,,,,,,,,,,,,53,,,,,,,,,,,,,,424.530000002982,,response,,,,99,,,,,,,Space,keypress(Space),,,,,,,,---- -- ----- -- ------ - ------- --- ----------<br>------------- ------ ------ ---- ---- ------- ----- -- your<br>-------- ------- -- ---------- --- - --- ----- ----- ----<br>---- --- --- ----- --- ---- ---- ------- ----- ---- -------<br>--- --- -- ----- -- --- ---- -- --- ---- -- ------ ------<br>--- ----- -- ----,130953.39999999851,130952.70000000298,130511.525,130517.60000000149,130528.17,130961.608,,17,your
screen,html.Screen,2_1_0_1_18,2022-04-28T10:31:35.023Z,,,,,,,,,,,,,,,,,53,,,,,,,,,,,,,,412.19199999702687,,response,,,,99,,,,,,,Space,keypress(Space),,,,,,,,---- -- ----- -- ------ - ------- --- ----------<br>------------- ------ ------ ---- ---- ------- ----- -- ----<br>romantic ------- -- ---------- --- - --- ----- ----- ----<br>---- --- --- ----- --- ---- ---- ------- ----- ---- -------<br>--- --- -- ----- -- --- ---- -- --- ---- -- ------ ------<br>--- ----- -- ----,131374.29999999702,131373.79999999702,130945.018,130953.5,130961.608,131378.174,,18,romantic
screen,html.Screen,2_1_0_1_19,2022-04-28T10:31:35.480Z,,,,,,,,,,,,,,,,,53,,,,,,,,,,,,,,452.82600000000093,,response,,,,99,,,,,,,Space,keypress(Space),,,,,,,,---- -- ----- -- ------ - ------- --- ----------<br>------------- ------ ------ ---- ---- ------- ----- -- ----<br>-------- partner -- ---------- --- - --- ----- ----- ----<br>---- --- --- ----- --- ---- ---- ------- ----- ---- -------<br>--- --- -- ----- -- --- ---- -- --- ---- -- ------ ------<br>--- ----- -- ----,131831.70000000298,131831,131361.504,131374.3999999985,131378.174,131844.91,,19,partner
screen,html.Screen,2_1_0_1_20,2022-04-28T10:31:35.889Z,,,,,,,,,,,,,,,,,53,,,,,,,,,,,,,,394.8899999970163,,response,,,,99,,,,,,,Space,keypress(Space),,,,,,,,---- -- ----- -- ------ - ------- --- ----------<br>------------- ------ ------ ---- ---- ------- ----- -- ----<br>-------- ------- is ---------- --- - --- ----- ----- ----<br>---- --- --- ----- --- ---- ---- ------- ----- ---- -------<br>--- --- -- ----- -- --- ---- -- --- ---- -- ------ ------<br>--- ----- -- ----,132240.20000000298,132239.79999999702,131828.504,131831.8999999985,131844.91,132244.915,,20,is
screen,html.Screen,2_1_0_1_21,2022-04-28T10:31:36.320Z,,,,,,,,,,,,,,,,,53,,,,,,,,,,,,,,425.8849999970116,,response,,,,99,,,,,,,Space,keypress(Space),,,,,,,,---- -- ----- -- ------ - ------- --- ----------<br>------------- ------ ------ ---- ---- ------- ----- -- ----<br>-------- ------- -- paramount. --- - --- ----- ----- ----<br>---- --- --- ----- --- ---- ---- ------- ----- ---- -------<br>--- --- -- ----- -- --- ---- -- --- ---- -- ------ ------<br>--- ----- -- ----,132671.20000000298,132670.79999999702,132228.315,132240.29999999702,132244.915,132678.299,,21,paramount.
screen,html.Screen,2_1_0_1_22,2022-04-28T10:31:36.746Z,,,,,,,,,,,,,,,,,53,,,,,,,,,,,,,,419.20100000000093,,response,,,,99,,,,,,,Space,keypress(Space),,,,,,,,---- -- ----- -- ------ - ------- --- ----------<br>------------- ------ ------ ---- ---- ------- ----- -- ----<br>-------- ------- -- ---------- But - --- ----- ----- ----<br>---- --- --- ----- --- ---- ---- ------- ----- ---- -------<br>--- --- -- ----- -- --- ---- -- --- ---- -- ------ ------<br>--- ----- -- ----,133098,133097.5,132661.684,132671.3999999985,132678.299,133111.803,,22,But
screen,html.Screen,2_1_0_1_23,2022-04-28T10:31:37.176Z,,,,,,,,,,,,,,,,,53,,,,,,,,,,,,,,414.99699999700533,,response,,,,99,,,,,,,Space,keypress(Space),,,,,,,,---- -- ----- -- ------ - ------- --- ----------<br>------------- ------ ------ ---- ---- ------- ----- -- ----<br>-------- ------- -- ---------- --- a --- ----- ----- ----<br>---- --- --- ----- --- ---- ---- ------- ----- ---- -------<br>--- --- -- ----- -- --- ---- -- --- ---- -- ------ ------<br>--- ----- -- ----,133527.29999999702,133526.79999999702,133094.957,133098.1000000015,133111.803,133545.377,,23,a
screen,html.Screen,2_1_0_1_24,2022-04-28T10:31:37.581Z,,,,,,,,,,,,,,,,,53,,,,,,,,,,,,,,386.6229999999923,,response,,,,99,,,,,,,Space,keypress(Space),,,,,,,,---- -- ----- -- ------ - ------- --- ----------<br>------------- ------ ------ ---- ---- ------- ----- -- ----<br>-------- ------- -- ---------- --- - new ----- ----- ----<br>---- --- --- ----- --- ---- ---- ------- ----- ---- -------<br>--- --- -- ----- -- --- ---- -- --- ---- -- ------ ------<br>--- ----- -- ----,133932.6000000015,133932,133511.608,133527.3999999985,133545.377,133945.117,,24,new
screen,html.Screen,2_1_0_1_25,2022-04-28T10:31:37.969Z,,,,,,,,,,,,,,,,,53,,,,,,,,,,,,,,374.48300000149175,,response,,,,99,,,,,,,Space,keypress(Space),,,,,,,,---- -- ----- -- ------ - ------- --- ----------<br>------------- ------ ------ ---- ---- ------- ----- -- ----<br>-------- ------- -- ---------- --- - --- study ----- ----<br>---- --- --- ----- --- ---- ---- ------- ----- ---- -------<br>--- --- -- ----- -- --- ---- -- --- ---- -- ------ ------<br>--- ----- -- ----,134320.20000000298,134319.6000000015,133928.339,133932.70000000298,133945.117,134328.578,,25,study
screen,html.Screen,2_1_0_1_26,2022-04-28T10:31:38.352Z,,,,,,,,,,,,,,,,,53,,,,,,,,,,,,,,374.1220000029716,,response,,,,99,,,,,,,Space,keypress(Space),,,,,,,,---- -- ----- -- ------ - ------- --- ----------<br>------------- ------ ------ ---- ---- ------- ----- -- ----<br>-------- ------- -- ---------- --- - --- ----- finds ----<br>---- --- --- ----- --- ---- ---- ------- ----- ---- -------<br>--- --- -- ----- -- --- ---- -- --- ---- -- ------ ------<br>--- ----- -- ----,134703.29999999702,134702.70000000298,134311.839,134320.20000000298,134328.578,134711.924,,26,finds
screen,html.Screen,2_1_0_1_27,2022-04-28T10:31:38.719Z,,,,,,,,,,,,,,,,,53,,,,,,,,,,,,,,357.77600000298116,,response,,,,99,,,,,,,Space,keypress(Space),,,,,,,,---- -- ----- -- ------ - ------- --- ----------<br>------------- ------ ------ ---- ---- ------- ----- -- ----<br>-------- ------- -- ---------- --- - --- ----- ----- that<br>---- --- --- ----- --- ---- ---- ------- ----- ---- -------<br>--- --- -- ----- -- --- ---- -- --- ---- -- ------ ------<br>--- ----- -- ----,135070.20000000298,135069.70000000298,134695.159,134703.3999999985,134711.924,135078.455,,27,that
screen,html.Screen,2_1_0_1_28,2022-04-28T10:31:39.139Z,,,,,,,,,,,,,,,,,53,,,,,,,,,,,,,,411.4449999985227,,response,,,,99,,,,,,,Space,keypress(Space),,,,,,,,---- -- ----- -- ------ - ------- --- ----------<br>------------- ------ ------ ---- ---- ------- ----- -- ----<br>-------- ------- -- ---------- --- - --- ----- ----- ----<br>it's --- --- ----- --- ---- ---- ------- ----- ---- -------<br>--- --- -- ----- -- --- ---- -- --- ---- -- ------ ------<br>--- ----- -- ----,135490.3999999985,135489.8999999985,135061.757,135070.3999999985,135078.455,135495.149,,28,it's
screen,html.Screen,2_1_0_1_29,2022-04-28T10:31:39.527Z,,,,,,,,,,,,,,,,,53,,,,,,,,,,,,,,382.750999998505,,response,,,,99,,,,,,,Space,keypress(Space),,,,,,,,---- -- ----- -- ------ - ------- --- ----------<br>------------- ------ ------ ---- ---- ------- ----- -- ----<br>-------- ------- -- ---------- --- - --- ----- ----- ----<br>---- not --- ----- --- ---- ---- ------- ----- ---- -------<br>--- --- -- ----- -- --- ---- -- --- ---- -- ------ ------<br>--- ----- -- ----,135878.5,135877.8999999985,135478.592,135490.5,135495.149,135895.16,,29,not
screen,html.Screen,2_1_0_1_30,2022-04-28T10:31:39.926Z,,,,,,,,,,,,,,,,,53,,,,,,,,,,,,,,381.6399999970163,,response,,,,99,,,,,,,Space,keypress(Space),,,,,,,,---- -- ----- -- ------ - ------- --- ----------<br>------------- ------ ------ ---- ---- ------- ----- -- ----<br>-------- ------- -- ---------- --- - --- ----- ----- ----<br>---- --- how ----- --- ---- ---- ------- ----- ---- -------<br>--- --- -- ----- -- --- ---- -- --- ---- -- ------ ------<br>--- ----- -- ----,136277.3999999985,136276.79999999702,135878.593,135878.70000000298,135895.16,136305.683,,30,how
screen,html.Screen,2_1_0_1_31,2022-04-28T10:31:40.261Z,,,,,,,,,,,,,,,,,53,,,,,,,,,,,,,,306.1169999970298,,response,,,,99,,,,,,,Space,keypress(Space),,,,,,,,---- -- ----- -- ------ - ------- --- ----------<br>------------- ------ ------ ---- ---- ------- ----- -- ----<br>-------- ------- -- ---------- --- - --- ----- ----- ----<br>---- --- --- close --- ---- ---- ------- ----- ---- -------<br>--- --- -- ----- -- --- ---- -- --- ---- -- ------ ------<br>--- ----- -- ----,136612.3999999985,136611.79999999702,136261.958,136277.3999999985,136305.683,136628.606,,31,close
screen,html.Screen,2_1_0_1_32,2022-04-28T10:31:40.639Z,,,,,,,,,,,,,,,,,53,,,,,,,,,,,,,,359.99400000149035,,response,,,,99,,,,,,,Space,keypress(Space),,,,,,,,---- -- ----- -- ------ - ------- --- ----------<br>------------- ------ ------ ---- ---- ------- ----- -- ----<br>-------- ------- -- ---------- --- - --- ----- ----- ----<br>---- --- --- ----- you ---- ---- ------- ----- ---- -------<br>--- --- -- ----- -- --- ---- -- --- ---- -- ------ ------<br>--- ----- -- ----,136989.79999999702,136988.6000000015,136611.987,136612.5,136628.606,136995.269,,32,you
screen,html.Screen,2_1_0_1_33,2022-04-28T10:31:41.011Z,,,,,,,,,,,,,,,,,53,,,,,,,,,,,,,,366.63099999850965,,response,,,,99,,,,,,,Space,keypress(Space),,,,,,,,---- -- ----- -- ------ - ------- --- ----------<br>------------- ------ ------ ---- ---- ------- ----- -- ----<br>-------- ------- -- ---------- --- - --- ----- ----- ----<br>---- --- --- ----- --- feel ---- ------- ----- ---- -------<br>--- --- -- ----- -- --- ---- -- --- ---- -- ------ ------<br>--- ----- -- ----,137362.3999999985,137361.8999999985,136978.571,136990,136995.269,137378.736,,33,feel
screen,html.Screen,2_1_0_1_34,2022-04-28T10:31:41.335Z,,,,,,,,,,,,,,,,,53,,,,,,,,,,,,,,307.06399999701534,,response,,,,99,,,,,,,Space,keypress(Space),,,,,,,,---- -- ----- -- ------ - ------- --- ----------<br>------------- ------ ------ ---- ---- ------- ----- -- ----<br>-------- ------- -- ---------- --- - --- ----- ----- ----<br>---- --- --- ----- --- ---- that ------- ----- ---- -------<br>--- --- -- ----- -- --- ---- -- --- ---- -- ------ ------<br>--- ----- -- ----,137686.29999999702,137685.79999999702,137361.905,137362.5,137378.736,137695.287,,34,that
screen,html.Screen,2_1_0_1_35,2022-04-28T10:31:41.707Z,,,,,,,,,,,,,,,,,53,,,,,,,,,,,,,,362.41300000296906,,response,,,,99,,,,,,,Space,keypress(Space),,,,,,,,---- -- ----- -- ------ - ------- --- ----------<br>------------- ------ ------ ---- ---- ------- ----- -- ----<br>-------- ------- -- ---------- --- - --- ----- ----- ----<br>---- --- --- ----- --- ---- ---- matters ----- ---- -------<br>--- --- -- ----- -- --- ---- -- --- ---- -- ------ ------<br>--- ----- -- ----,138058.20000000298,138057.70000000298,137678.588,137686.3999999985,137695.287,138062.026,,35,matters
screen,html.Screen,2_1_0_1_36,2022-04-28T10:31:42.048Z,,,,,,,,,,,,,,,,,53,,,,,,,,,,,,,,336.67400000296766,,response,,,,99,,,,,,,Space,keypress(Space),,,,,,,,"---- -- ----- -- ------ - ------- --- ----------<br>------------- ------ ------ ---- ---- ------- ----- -- ----<br>-------- ------- -- ---------- --- - --- ----- ----- ----<br>---- --- --- ----- --- ---- ---- ------- most, ---- -------<br>--- --- -- ----- -- --- ---- -- --- ---- -- ------ ------<br>--- ----- -- ----",138399.20000000298,138398.70000000298,138045.264,138058.29999999702,138062.026,138412.006,,36,"most,"
screen,html.Screen,2_1_0_1_37,2022-04-28T10:31:42.468Z,,,,,,,,,,,,,,,,,53,,,,,,,,,,,,,,406.6940000029863,,response,,,,99,,,,,,,Space,keypress(Space),,,,,,,,---- -- ----- -- ------ - ------- --- ----------<br>------------- ------ ------ ---- ---- ------- ----- -- ----<br>-------- ------- -- ---------- --- - --- ----- ----- ----<br>---- --- --- ----- --- ---- ---- ------- ----- it's -------<br>--- --- -- ----- -- --- ---- -- --- ---- -- ------ ------<br>--- ----- -- ----,138819.20000000298,138818.70000000298,138395.4,138399.20000000298,138412.006,138828.755,,37,it's
screen,html.Screen,2_1_0_1_38,2022-04-28T10:31:42.814Z,,,,,,,,,,,,,,,,,53,,,,,,,,,,,,,,336.0449999970151,,response,,,,99,,,,,,,Space,keypress(Space),,,,,,,,---- -- ----- -- ------ - ------- --- ----------<br>------------- ------ ------ ---- ---- ------- ----- -- ----<br>-------- ------- -- ---------- --- - --- ----- ----- ----<br>---- --- --- ----- --- ---- ---- ------- ----- ---- whether<br>--- --- -- ----- -- --- ---- -- --- ---- -- ------ ------<br>--- ----- -- ----,139165.29999999702,139164.79999999702,138812.075,138819.20000000298,138828.755,139178.736,,38,whether
screen,html.Screen,2_1_0_1_39,2022-04-28T10:31:43.175Z,,,,,,,,,,,,,,,,,53,,,,,,,,,,,,,,347.06399999701534,,response,,,,99,,,,,,,Space,keypress(Space),,,,,,,,---- -- ----- -- ------ - ------- --- ----------<br>------------- ------ ------ ---- ---- ------- ----- -- ----<br>-------- ------- -- ---------- --- - --- ----- ----- ----<br>---- --- --- ----- --- ---- ---- ------- ----- ---- -------<br>you --- -- ----- -- --- ---- -- --- ---- -- ------ ------<br>--- ----- -- ----,139526.20000000298,139525.79999999702,139161.997,139165.29999999702,139178.736,139528.729,,39,you
screen,html.Screen,2_1_0_1_40,2022-04-28T10:31:43.542Z,,,,,,,,,,,,,,,,,53,,,,,,,,,,,,,,363.7710000000079,,response,,,,99,,,,,,,Space,keypress(Space),,,,,,,,---- -- ----- -- ------ - ------- --- ----------<br>------------- ------ ------ ---- ---- ------- ----- -- ----<br>-------- ------- -- ---------- --- - --- ----- ----- ----<br>---- --- --- ----- --- ---- ---- ------- ----- ---- -------<br>--- are -- ----- -- --- ---- -- --- ---- -- ------ ------<br>--- ----- -- ----,139893.20000000298,139892.5,139512.019,139526.29999999702,139528.729,139895.433,,40,are
screen,html.Screen,2_1_0_1_41,2022-04-28T10:31:43.925Z,,,,,,,,,,,,,,,,,53,,,,,,,,,,,,,,380.1670000015001,,response,,,,99,,,,,,,Space,keypress(Space),,,,,,,,---- -- ----- -- ------ - ------- --- ----------<br>------------- ------ ------ ---- ---- ------- ----- -- ----<br>-------- ------- -- ---------- --- - --- ----- ----- ----<br>---- --- --- ----- --- ---- ---- ------- ----- ---- -------<br>--- --- as ----- -- --- ---- -- --- ---- -- ------ ------<br>--- ----- -- ----,140276.20000000298,140275.6000000015,139878.719,139893.29999999702,139895.433,140278.799,,41,as
screen,html.Screen,2_1_0_1_42,2022-04-28T10:31:44.287Z,,,,,,,,,,,,,,,,,53,,,,,,,,,,,,,,358.90100000298116,,response,,,,99,,,,,,,Space,keypress(Space),,,,,,,,---- -- ----- -- ------ - ------- --- ----------<br>------------- ------ ------ ---- ---- ------- ----- -- ----<br>-------- ------- -- ---------- --- - --- ----- ----- ----<br>---- --- --- ----- --- ---- ---- ------- ----- ---- -------<br>--- --- -- close -- --- ---- -- --- ---- -- ------ ------<br>--- ----- -- ----,140638.1000000015,140637.70000000298,140262.038,140276.29999999702,140278.799,140645.756,,42,close
screen,html.Screen,2_1_0_1_43,2022-04-28T10:31:44.648Z,,,,,,,,,,,,,,,,,53,,,,,,,,,,,,,,352.74400000000605,,response,,,,99,,,,,,,Space,keypress(Space),,,,,,,,---- -- ----- -- ------ - ------- --- ----------<br>------------- ------ ------ ---- ---- ------- ----- -- ----<br>-------- ------- -- ---------- --- - --- ----- ----- ----<br>---- --- --- ----- --- ---- ---- ------- ----- ---- -------<br>--- --- -- ----- as --- ---- -- --- ---- -- ------ ------<br>--- ----- -- ----,140999.1000000015,140998.5,140628.75,140638.29999999702,140645.756,141012.171,,43,as
screen,html.Screen,2_1_0_1_44,2022-04-28T10:31:45.021Z,,,,,,,,,,,,,,,,,53,,,,,,,,,,,,,,359.8289999999979,,response,,,,99,,,,,,,Space,keypress(Space),,,,,,,,---- -- ----- -- ------ - ------- --- ----------<br>------------- ------ ------ ---- ---- ------- ----- -- ----<br>-------- ------- -- ---------- --- - --- ----- ----- ----<br>---- --- --- ----- --- ---- ---- ------- ----- ---- -------<br>--- --- -- ----- -- you ---- -- --- ---- -- ------ ------<br>--- ----- -- ----,141372.6000000015,141372,140995.555,140999.20000000298,141012.171,141378.848,,44,you
screen,html.Screen,2_1_0_1_45,2022-04-28T10:31:45.377Z,,,,,,,,,,,,,,,,,53,,,,,,,,,,,,,,348.752000001492,,response,,,,99,,,,,,,Space,keypress(Space),,,,,,,,---- -- ----- -- ------ - ------- --- ----------<br>------------- ------ ------ ---- ---- ------- ----- -- ----<br>-------- ------- -- ---------- --- - --- ----- ----- ----<br>---- --- --- ----- --- ---- ---- ------- ----- ---- -------<br>--- --- -- ----- -- --- want -- --- ---- -- ------ ------<br>--- ----- -- ----,141728.20000000298,141727.6000000015,141362.401,141372.70000000298,141378.848,141751.849,,45,want
screen,html.Screen,2_1_0_1_46,2022-04-28T10:31:45.717Z,,,,,,,,,,,,,,,,,53,,,,,,,,,,,,,,316.05099999852246,,response,,,,99,,,,,,,Space,keypress(Space),,,,,,,,---- -- ----- -- ------ - ------- --- ----------<br>------------- ------ ------ ---- ---- ------- ----- -- ----<br>-------- ------- -- ---------- --- - --- ----- ----- ----<br>---- --- --- ----- --- ---- ---- ------- ----- ---- -------<br>--- --- -- ----- -- --- ---- to --- ---- -- ------ ------<br>--- ----- -- ----,142068.29999999702,142067.8999999985,141712.161,141728.20000000298,141751.849,142078.936,,46,to
screen,html.Screen,2_1_0_1_47,2022-04-28T10:31:46.026Z,,,,,,,,,,,,,,,,,53,,,,,,,,,,,,,,297.76400000299327,,response,,,,99,,,,,,,Space,keypress(Space),,,,,,,,"---- -- ----- -- ------ - ------- --- ----------<br>------------- ------ ------ ---- ---- ------- ----- -- ----<br>-------- ------- -- ---------- --- - --- ----- ----- ----<br>---- --- --- ----- --- ---- ---- ------- ----- ---- -------<br>--- --- -- ----- -- --- ---- -- be, ---- -- ------ ------<br>--- ----- -- ----",142377.20000000298,142376.70000000298,142062.195,142068.3999999985,142078.936,142378.902,,47,"be,"
screen,html.Screen,2_1_0_1_48,2022-04-28T10:31:46.361Z,,,,,,,,,,,,,,,,,53,,,,,,,,,,,,,,332.79800000297837,,response,,,,99,,,,,,,Space,keypress(Space),,,,,,,,---- -- ----- -- ------ - ------- --- ----------<br>------------- ------ ------ ---- ---- ------- ----- -- ----<br>-------- ------- -- ---------- --- - --- ----- ----- ----<br>---- --- --- ----- --- ---- ---- ------- ----- ---- -------<br>--- --- -- ----- -- --- ---- -- --- even -- ------ ------<br>--- ----- -- ----,142712.20000000298,142711.70000000298,142362.207,142377.29999999702,142378.902,142728.941,,48,even
screen,html.Screen,2_1_0_1_49,2022-04-28T10:31:46.717Z,,,,,,,,,,,,,,,,,53,,,,,,,,,,,,,,338.5590000000084,,response,,,,99,,,,,,,Space,keypress(Space),,,,,,,,---- -- ----- -- ------ - ------- --- ----------<br>------------- ------ ------ ---- ---- ------- ----- -- ----<br>-------- ------- -- ---------- --- - --- ----- ----- ----<br>---- --- --- ----- --- ---- ---- ------- ----- ---- -------<br>--- --- -- ----- -- --- ---- -- --- ---- if ------ ------<br>--- ----- -- ----,143068.1000000015,143067.5,142712.28,142712.29999999702,142728.941,143078.948,,49,if
screen,html.Screen,2_1_0_1_50,2022-04-28T10:31:47.036Z,,,,,,,,,,,,,,,,,53,,,,,,,,,,,,,,308.15200000148616,,response,,,,99,,,,,,,Space,keypress(Space),,,,,,,,---- -- ----- -- ------ - ------- --- ----------<br>------------- ------ ------ ---- ---- ------- ----- -- ----<br>-------- ------- -- ---------- --- - --- ----- ----- ----<br>---- --- --- ----- --- ---- ---- ------- ----- ---- -------<br>--- --- -- ----- -- --- ---- -- --- ---- -- that's ------<br>--- ----- -- ----,143387.70000000298,143387.1000000015,143062.271,143068.20000000298,143078.948,143395.688,,50,that's
screen,html.Screen,2_1_0_1_51,2022-04-28T10:31:47.366Z,,,,,,,,,,,,,,,,,53,,,,,,,,,,,,,,320.91200000149547,,response,,,,99,,,,,,,Space,keypress(Space),,,,,,,,---- -- ----- -- ------ - ------- --- ----------<br>------------- ------ ------ ---- ---- ------- ----- -- ----<br>-------- ------- -- ---------- --- - --- ----- ----- ----<br>---- --- --- ----- --- ---- ---- ------- ----- ---- -------<br>--- --- -- ----- -- --- ---- -- --- ---- -- ------ really<br>--- ----- -- ----,143717.20000000298,143716.6000000015,143379.056,143387.70000000298,143395.688,143729.001,,51,really
screen,html.Screen,2_1_0_1_52,2022-04-28T10:31:47.717Z,,,,,,,,,,,,,,,,,53,,,,,,,,,,,,,,338.5990000015008,,response,,,,99,,,,,,,Space,keypress(Space),,,,,,,,---- -- ----- -- ------ - ------- --- ----------<br>------------- ------ ------ ---- ---- ------- ----- -- ----<br>-------- ------- -- ---------- --- - --- ----- ----- ----<br>---- --- --- ----- --- ---- ---- ------- ----- ---- -------<br>--- --- -- ----- -- --- ---- -- --- ---- -- ------ ------<br>not ----- -- ----,144068,144067.6000000015,143712.266,143717.29999999702,143729.001,144079.023,,52,not
screen,html.Screen,2_1_0_1_53,2022-04-28T10:31:48.041Z,,,,,,,,,,,,,,,,,53,,,,,,,,,,,,,,312.5770000015036,,response,,,,99,,,,,,,Space,keypress(Space),,,,,,,,---- -- ----- -- ------ - ------- --- ----------<br>------------- ------ ------ ---- ---- ------- ----- -- ----<br>-------- ------- -- ---------- --- - --- ----- ----- ----<br>---- --- --- ----- --- ---- ---- ------- ----- ---- -------<br>--- --- -- ----- -- --- ---- -- --- ---- -- ------ ------<br>--- close -- ----,144392.1000000015,144391.6000000015,144062.306,144068.1000000015,144079.023,144395.688,,53,close
screen,html.Screen,2_1_0_1_54,2022-04-28T10:31:48.399Z,,,,,,,,,,,,,,,,,53,,,,,,,,,,,,,,352.91200000149547,,response,,,,99,,,,,,,Space,keypress(Space),,,,,,,,---- -- ----- -- ------ - ------- --- ----------<br>------------- ------ ------ ---- ---- ------- ----- -- ----<br>-------- ------- -- ---------- --- - --- ----- ----- ----<br>---- --- --- ----- --- ---- ---- ------- ----- ---- -------<br>--- --- -- ----- -- --- ---- -- --- ---- -- ------ ------<br>--- ----- at ----,144750,144748.6000000015,144379.058,144392.20000000298,144395.688,144762.452,,54,at
screen,html.Screen,2_1_0_1_55,2022-04-28T10:31:48.796Z,,,,,,,,,,,,,,,,,53,,,,,,,,,,,,,,384.1480000014999,,response,,,,99,,,,,,,Space,keypress(Space),,,,,,,,---- -- ----- -- ------ - ------- --- ----------<br>------------- ------ ------ ---- ---- ------- ----- -- ----<br>-------- ------- -- ---------- --- - --- ----- ----- ----<br>---- --- --- ----- --- ---- ---- ------- ----- ---- -------<br>--- --- -- ----- -- --- ---- -- --- ---- -- ------ ------<br>--- ----- -- all.,145147.1000000015,145146.6000000015,144745.788,144750.1000000015,144762.452,145162.441,,55,all.
Item 99,flow.Loop,2_1_0_1,2022-04-28T10:31:48.796Z,,,,,,,,,,,,,,,,,,,,,,,,,,,,,,,23302.306000001496,,completion,,,,,D,,,,,,,,,,,silence,,,,,145147.20000000298,145146.6000000015,121827.646,121828.10000000149,121844.294,145162.441,,,
Question 1,html.Screen,2_1_0_2,2022-04-28T10:31:58.389Z,,,,,,,,,,,,,,,,,,,,,,,,,,,,true,FALSE,,9576.858999997028,,response,,,,99,D,,,,,,FALSE,click #choice-2,,,,silence,,,,,154740.29999999702,154739.29999999702,145145.836,145147.3999999985,145162.441,154746.456,,,
Question 2,html.Screen,2_1_0_3,2022-04-28T10:32:01.165Z,,,,,,,,,,,,,,,,,,,,,,,,,,,,true,TRUE,,2768.9439999985043,,response,,,,99,D,,,,,,TRUE,click #choice-1,,,,silence,,,,,157516.29999999702,157515.3999999985,154729.759,154740.3999999985,154746.456,157529.885,,,
Item 99,flow.Sequence,2_1_0,2022-04-28T10:32:01.165Z,,,,,,,,,,,,,,,,,,,,,,,,,,,,,,,45671.773999998506,,completion,,,,,,,,,,,,,,,,,,,,,157516.5,157515.3999999985,111826.944,111834,111843.626,157529.885,,,
Holding screen,html.Screen,2_1_1_0,2022-04-28T10:32:11.163Z,,,,,,,,,,,,,,,,,,,,,,,,,,,,,,,10000.630999999994,,timeout,,,,,,,,,,,,,,,,,,,,,167514.3999999985,167513.855,157513.184,157516.70000000298,157529.885,167530.516,,,
screen,html.Screen,2_1_1_1_0,2022-04-28T10:32:12.446Z,,,,,,,,,,,,,,,,,54,,,,,,,,,,,,,,1265.8839999985066,,response,,,,100,,,,,,,Space,keypress(Space),,,,,,,,At --- ---- --- ------ ----- ------- ---- -- --- ------- --<br>------- ---------- ------ -- ----- -- ----- -- ---- ------<br>--- ----- --- --- ------ -------- ----- --- ------ ----- --<br>----- ----- ---------- --- --- ------ ------ ---- -- ------<br>------- --- ------ ----- --- ---- ------- -- ---- --- --<br>------- ------,168796.8999999985,168796.3999999985,167513.855,167514.5,167530.516,168830.6,,0,At
screen,html.Screen,2_1_1_1_1,2022-04-28T10:32:12.806Z,,,,,,,,,,,,,,,,,54,,,,,,,,,,,,,,326.6000000029744,,response,,,,100,,,,,,,Space,keypress(Space),,,,,,,,-- the ---- --- ------ ----- ------- ---- -- --- ------- --<br>------- ---------- ------ -- ----- -- ----- -- ---- ------<br>--- ----- --- --- ------ -------- ----- --- ------ ----- --<br>----- ----- ---------- --- --- ------ ------ ---- -- ------<br>------- --- ------ ----- --- ---- ------- -- ---- --- --<br>------- ------,169157.70000000298,169157.20000000298,168813.935,168796.8999999985,168830.6,169164.071,,1,the
screen,html.Screen,2_1_1_1_2,2022-04-28T10:32:13.136Z,,,,,,,,,,,,,,,,,54,,,,,,,,,,,,,,323.02900000149384,,response,,,,100,,,,,,,Space,keypress(Space),,,,,,,,-- --- time --- ------ ----- ------- ---- -- --- ------- --<br>------- ---------- ------ -- ----- -- ----- -- ---- ------<br>--- ----- --- --- ------ -------- ----- --- ------ ----- --<br>----- ----- ---------- --- --- ------ ------ ---- -- ------<br>------- --- ------ ----- --- ---- ------- -- ---- --- --<br>------- ------,169487.70000000298,169487.1000000015,169147.485,169157.79999999702,169164.071,169497.561,,2,time
screen,html.Screen,2_1_1_1_3,2022-04-28T10:32:13.509Z,,,,,,,,,,,,,,,,,54,,,,,,,,,,,,,,361.93900000001304,,response,,,,100,,,,,,,Space,keypress(Space),,,,,,,,-- --- ---- the ------ ----- ------- ---- -- --- ------- --<br>------- ---------- ------ -- ----- -- ----- -- ---- ------<br>--- ----- --- --- ------ -------- ----- --- ------ ----- --<br>----- ----- ---------- --- --- ------ ------ ---- -- ------<br>------- --- ------ ----- --- ---- ------- -- ---- --- --<br>------- ------,169860.20000000298,169859.5,169480.876,169487.79999999702,169497.561,169863.985,,3,the
screen,html.Screen,2_1_1_1_4,2022-04-28T10:32:13.876Z,,,,,,,,,,,,,,,,,54,,,,,,,,,,,,,,362.6150000015041,,response,,,,100,,,,,,,Space,keypress(Space),,,,,,,,-- --- ---- --- French ----- ------- ---- -- --- ------- --<br>------- ---------- ------ -- ----- -- ----- -- ---- ------<br>--- ----- --- --- ------ -------- ----- --- ------ ----- --<br>----- ----- ---------- --- --- ------ ------ ---- -- ------<br>------- --- ------ ----- --- ---- ------- -- ---- --- --<br>------- ------,170227,170226.6000000015,169847.313,169860.29999999702,169863.985,170230.665,,4,French
screen,html.Screen,2_1_1_1_5,2022-04-28T10:32:14.221Z,,,,,,,,,,,,,,,,,54,,,,,,,,,,,,,,341.5350000029721,,response,,,,100,,,,,,,Space,keypress(Space),,,,,,,,-- --- ---- --- ------ crown ------- ---- -- --- ------- --<br>------- ---------- ------ -- ----- -- ----- -- ---- ------<br>--- ----- --- --- ------ -------- ----- --- ------ ----- --<br>----- ----- ---------- --- --- ------ ------ ---- -- ------<br>------- --- ------ ----- --- ---- ------- -- ---- --- --<br>------- ------,170572.79999999702,170572.20000000298,170214.051,170227.20000000298,170230.665,170580.9,,5,crown
screen,html.Screen,2_1_1_1_6,2022-04-28T10:32:14.577Z,,,,,,,,,,,,,,,,,54,,,,,,,,,,,,,,347.30000000298605,,response,,,,100,,,,,,,Space,keypress(Space),,,,,,,,-- --- ---- --- ------ ----- secured ---- -- --- ------- --<br>------- ---------- ------ -- ----- -- ----- -- ---- ------<br>--- ----- --- --- ------ -------- ----- --- ------ ----- --<br>----- ----- ---------- --- --- ------ ------ ---- -- ------<br>------- --- ------ ----- --- ---- ------- -- ---- --- --<br>------- ------,170928.70000000298,170928.20000000298,170564.085,170572.8999999985,170580.9,170930.718,,6,secured
screen,html.Screen,2_1_1_1_7,2022-04-28T10:32:14.944Z,,,,,,,,,,,,,,,,,54,,,,,,,,,,,,,,364.38200000149664,,response,,,,100,,,,,,,Space,keypress(Space),,,,,,,,-- --- ---- --- ------ ----- ------- much -- --- ------- --<br>------- ---------- ------ -- ----- -- ----- -- ---- ------<br>--- ----- --- --- ------ -------- ----- --- ------ ----- --<br>----- ----- ---------- --- --- ------ ------ ---- -- ------<br>------- --- ------ ----- --- ---- ------- -- ---- --- --<br>------- ------,171295.6000000015,171295.1000000015,170913.966,170928.79999999702,170930.718,171297.433,,7,much
screen,html.Screen,2_1_1_1_8,2022-04-28T10:32:15.333Z,,,,,,,,,,,,,,,,,54,,,,,,,,,,,,,,386.6670000015001,,response,,,,100,,,,,,,Space,keypress(Space),,,,,,,,-- --- ---- --- ------ ----- ------- ---- of --- ------- --<br>------- ---------- ------ -- ----- -- ----- -- ---- ------<br>--- ----- --- --- ------ -------- ----- --- ------ ----- --<br>----- ----- ---------- --- --- ------ ------ ---- -- ------<br>------- --- ------ ----- --- ---- ------- -- ---- --- --<br>------- ------,171684.6000000015,171684.1000000015,171280.754,171295.70000000298,171297.433,171697.615,,8,of
screen,html.Screen,2_1_1_1_9,2022-04-28T10:32:15.684Z,,,,,,,,,,,,,,,,,54,,,,,,,,,,,,,,337.58500000298955,,response,,,,100,,,,,,,Space,keypress(Space),,,,,,,,-- --- ---- --- ------ ----- ------- ---- -- its ------- --<br>------- ---------- ------ -- ----- -- ----- -- ---- ------<br>--- ----- --- --- ------ -------- ----- --- ------ ----- --<br>----- ----- ---------- --- --- ------ ------ ---- -- ------<br>------- --- ------ ----- --- ---- ------- -- ---- --- --<br>------- ------,172035.6000000015,172035.20000000298,171680.729,171684.70000000298,171697.615,172047.547,,9,its
screen,html.Screen,2_1_1_1_10,2022-04-28T10:32:16.045Z,,,,,,,,,,,,,,,,,54,,,,,,,,,,,,,,348.4530000000086,,response,,,,100,,,,,,,Space,keypress(Space),,,,,,,,-- --- ---- --- ------ ----- ------- ---- -- --- revenue --<br>------- ---------- ------ -- ----- -- ----- -- ---- ------<br>--- ----- --- --- ------ -------- ----- --- ------ ----- --<br>----- ----- ---------- --- --- ------ ------ ---- -- ------<br>------- --- ------ ----- --- ---- ------- -- ---- --- --<br>------- ------,172396.5,172396,172030.844,172035.79999999702,172047.547,172415.542,,10,revenue
screen,html.Screen,2_1_1_1_11,2022-04-28T10:32:16.386Z,,,,,,,,,,,,,,,,,54,,,,,,,,,,,,,,321.6580000029935,,response,,,,100,,,,,,,Space,keypress(Space),,,,,,,,-- --- ---- --- ------ ----- ------- ---- -- --- ------- by<br>------- ---------- ------ -- ----- -- ----- -- ---- ------<br>--- ----- --- --- ------ -------- ----- --- ------ ----- --<br>----- ----- ---------- --- --- ------ ------ ---- -- ------<br>------- --- ------ ----- --- ---- ------- -- ---- --- --<br>------- ------,172737.79999999702,172737.20000000298,172380.794,172396.6000000015,172415.542,172747.52,,11,by
screen,html.Screen,2_1_1_1_12,2022-04-28T10:32:16.768Z,,,,,,,,,,,,,,,,,54,,,,,,,,,,,,,,371.6800000029907,,response,,,,100,,,,,,,Space,keypress(Space),,,,,,,,-- --- ---- --- ------ ----- ------- ---- -- --- ------- --<br>issuing ---------- ------ -- ----- -- ----- -- ---- ------<br>--- ----- --- --- ------ -------- ----- --- ------ ----- --<br>----- ----- ---------- --- --- ------ ------ ---- -- ------<br>------- --- ------ ----- --- ---- ------- -- ---- --- --<br>------- ------,173119.70000000298,173119.20000000298,172730.906,172737.8999999985,172747.52,173131.059,,12,issuing
screen,html.Screen,2_1_1_1_13,2022-04-28T10:32:17.157Z,,,,,,,,,,,,,,,,,54,,,,,,,,,,,,,,377.04100000148173,,response,,,,100,,,,,,,Space,keypress(Space),,,,,,,,-- --- ---- --- ------ ----- ------- ---- -- --- ------- --<br>------- government ------ -- ----- -- ----- -- ---- ------<br>--- ----- --- --- ------ -------- ----- --- ------ ----- --<br>----- ----- ---------- --- --- ------ ------ ---- -- ------<br>------- --- ------ ----- --- ---- ------- -- ---- --- --<br>------- ------,173508.6000000015,173508.1000000015,173114.285,173119.79999999702,173131.059,173514.32,,13,government
screen,html.Screen,2_1_1_1_14,2022-04-28T10:32:17.503Z,,,,,,,,,,,,,,,,,54,,,,,,,,,,,,,,338.78000000148313,,response,,,,100,,,,,,,Space,keypress(Space),,,,,,,,-- --- ---- --- ------ ----- ------- ---- -- --- ------- --<br>------- ---------- bonds. -- ----- -- ----- -- ---- ------<br>--- ----- --- --- ------ -------- ----- --- ------ ----- --<br>----- ----- ---------- --- --- ------ ------ ---- -- ------<br>------- --- ------ ----- --- ---- ------- -- ---- --- --<br>------- ------,173853.8999999985,173853.1000000015,173497.603,173508.70000000298,173514.32,173864.374,,14,bonds.
screen,html.Screen,2_1_1_1_15,2022-04-28T10:32:17.885Z,,,,,,,,,,,,,,,,,54,,,,,,,,,,,,,,371.8260000029695,,response,,,,100,,,,,,,Space,keypress(Space),,,,,,,,-- --- ---- --- ------ ----- ------- ---- -- --- ------- --<br>------- ---------- ------ In ----- -- ----- -- ---- ------<br>--- ----- --- --- ------ -------- ----- --- ------ ----- --<br>----- ----- ---------- --- --- ------ ------ ---- -- ------<br>------- --- ------ ----- --- ---- ------- -- ---- --- --<br>------- ------,174236.70000000298,174236.20000000298,173847.531,173854,173864.374,174247.828,,15,In
screen,html.Screen,2_1_1_1_16,2022-04-28T10:32:18.284Z,,,,,,,,,,,,,,,,,54,,,,,,,,,,,,,,387.3720000029716,,response,,,,100,,,,,,,Space,keypress(Space),,,,,,,,"-- --- ---- --- ------ ----- ------- ---- -- --- ------- --<br>------- ---------- ------ -- 1727, -- ----- -- ---- ------<br>--- ----- --- --- ------ -------- ----- --- ------ ----- --<br>----- ----- ---------- --- --- ------ ------ ---- -- ------<br>------- --- ------ ----- --- ---- ------- -- ---- --- --<br>------- ------",174635.70000000298,174635.20000000298,174231.029,174236.79999999702,174247.828,174647.786,,16,"1727,"
screen,html.Screen,2_1_1_1_17,2022-04-28T10:32:18.816Z,,,,,,,,,,,,,,,,,54,,,,,,,,,,,,,,519.2140000000072,,response,,,,100,,,,,,,Space,keypress(Space),,,,,,,,-- --- ---- --- ------ ----- ------- ---- -- --- ------- --<br>------- ---------- ------ -- ----- in ----- -- ---- ------<br>--- ----- --- --- ------ -------- ----- --- ------ ----- --<br>----- ----- ---------- --- --- ------ ------ ---- -- ------<br>------- --- ------ ----- --- ---- ------- -- ---- --- --<br>------- ------,175167.5,175167,174630.956,174635.79999999702,174647.786,175181.179,,17,in
screen,html.Screen,2_1_1_1_18,2022-04-28T10:32:19.529Z,,,,,,,,,,,,,,,,,54,,,,,,,,,,,,,,698.8209999999963,,response,,,,100,,,,,,,Space,keypress(Space),,,,,,,,-- --- ---- --- ------ ----- ------- ---- -- --- ------- --<br>------- ---------- ------ -- ----- -- order -- ---- ------<br>--- ----- --- --- ------ -------- ----- --- ------ ----- --<br>----- ----- ---------- --- --- ------ ------ ---- -- ------<br>------- --- ------ ----- --- ---- ------- -- ---- --- --<br>------- ------,175880.5,175880,175164.317,175167.6000000015,175181.179,175907.703,,18,order
screen,html.Screen,2_1_1_1_19,2022-04-28T10:32:19.986Z,,,,,,,,,,,,,,,,,54,,,,,,,,,,,,,,429.3970000014815,,response,,,,100,,,,,,,Space,keypress(Space),,,,,,,,-- --- ---- --- ------ ----- ------- ---- -- --- ------- --<br>------- ---------- ------ -- ----- -- ----- to ---- ------<br>--- ----- --- --- ------ -------- ----- --- ------ ----- --<br>----- ----- ---------- --- --- ------ ------ ---- -- ------<br>------- --- ------ ----- --- ---- ------- -- ---- --- --<br>------- ------,176337.6000000015,176337.1000000015,175864.325,175880.6000000015,175907.703,176347.813,,19,to
screen,html.Screen,2_1_1_1_20,2022-04-28T10:32:20.342Z,,,,,,,,,,,,,,,,,54,,,,,,,,,,,,,,345.18700000000536,,response,,,,100,,,,,,,Space,keypress(Space),,,,,,,,-- --- ---- --- ------ ----- ------- ---- -- --- ------- --<br>------- ---------- ------ -- ----- -- ----- -- save ------<br>--- ----- --- --- ------ -------- ----- --- ------ ----- --<br>----- ----- ---------- --- --- ------ ------ ---- -- ------<br>------- --- ------ ----- --- ---- ------- -- ---- --- --<br>------- ------,176693.3999999985,176693,176331.369,176337.70000000298,176347.813,176697.74,,20,save
screen,html.Screen,2_1_1_1_21,2022-04-28T10:32:20.699Z,,,,,,,,,,,,,,,,,54,,,,,,,,,,,,,,352.2600000000093,,response,,,,100,,,,,,,Space,keypress(Space),,,,,,,,"-- --- ---- --- ------ ----- ------- ---- -- --- ------- --<br>------- ---------- ------ -- ----- -- ----- -- ---- money,<br>--- ----- --- --- ------ -------- ----- --- ------ ----- --<br>----- ----- ---------- --- --- ------ ------ ---- -- ------<br>------- --- ------ ----- --- ---- ------- -- ---- --- --<br>------- ------",177050.6000000015,177050,176681.036,176693.6000000015,176697.74,177064.489,,21,"money,"
screen,html.Screen,2_1_1_1_22,2022-04-28T10:32:21.012Z,,,,,,,,,,,,,,,,,54,,,,,,,,,,,,,,298.5109999999986,,response,,,,100,,,,,,,Space,keypress(Space),,,,,,,,-- --- ---- --- ------ ----- ------- ---- -- --- ------- --<br>------- ---------- ------ -- ----- -- ----- -- ---- ------<br>the ----- --- --- ------ -------- ----- --- ------ ----- --<br>----- ----- ---------- --- --- ------ ------ ---- -- ------<br>------- --- ------ ----- --- ---- ------- -- ---- --- --<br>------- ------,177363.5,177363,177047.758,177050.70000000298,177064.489,177388.386,,22,the
screen,html.Screen,2_1_1_1_23,2022-04-28T10:32:21.331Z,,,,,,,,,,,,,,,,,54,,,,,,,,,,,,,,293.7140000014915,,response,,,,100,,,,,,,Space,keypress(Space),,,,,,,,-- --- ---- --- ------ ----- ------- ---- -- --- ------- --<br>------- ---------- ------ -- ----- -- ----- -- ---- ------<br>--- state --- --- ------ -------- ----- --- ------ ----- --<br>----- ----- ---------- --- --- ------ ------ ---- -- ------<br>------- --- ------ ----- --- ---- ------- -- ---- --- --<br>------- ------,177682.6000000015,177682.1000000015,177347.804,177363.6000000015,177388.386,177697.823,,23,state
screen,html.Screen,2_1_1_1_24,2022-04-28T10:32:21.651Z,,,,,,,,,,,,,,,,,54,,,,,,,,,,,,,,303.27700000148616,,response,,,,100,,,,,,,Space,keypress(Space),,,,,,,,-- --- ---- --- ------ ----- ------- ---- -- --- ------- --<br>------- ---------- ------ -- ----- -- ----- -- ---- ------<br>--- ----- cut --- ------ -------- ----- --- ------ ----- --<br>----- ----- ---------- --- --- ------ ------ ---- -- ------<br>------- --- ------ ----- --- ---- ------- -- ---- --- --<br>------- ------,178001.79999999702,178001.1000000015,177681.187,177682.79999999702,177697.823,178014.683,,24,cut
screen,html.Screen,2_1_1_1_25,2022-04-28T10:32:21.970Z,,,,,,,,,,,,,,,,,54,,,,,,,,,,,,,,306.31700000001,,response,,,,100,,,,,,,Space,keypress(Space),,,,,,,,-- --- ---- --- ------ ----- ------- ---- -- --- ------- --<br>------- ---------- ------ -- ----- -- ----- -- ---- ------<br>--- ----- --- the ------ -------- ----- --- ------ ----- --<br>----- ----- ---------- --- --- ------ ------ ---- -- ------<br>------- --- ------ ----- --- ---- ------- -- ---- --- --<br>------- ------,178321.5,178321,177997.8,178001.8999999985,178014.683,178331.182,,25,the
screen,html.Screen,2_1_1_1_26,2022-04-28T10:32:22.262Z,,,,,,,,,,,,,,,,,54,,,,,,,,,,,,,,282.01800000297953,,response,,,,100,,,,,,,Space,keypress(Space),,,,,,,,-- --- ---- --- ------ ----- ------- ---- -- --- ------- --<br>------- ---------- ------ -- ----- -- ----- -- ---- ------<br>--- ----- --- --- bonds' -------- ----- --- ------ ----- --<br>----- ----- ---------- --- --- ------ ------ ---- -- ------<br>------- --- ------ ----- --- ---- ------- -- ---- --- --<br>------- ------,178613.79999999702,178613.20000000298,178314.478,178321.6000000015,178331.182,178614.528,,26,bonds'
screen,html.Screen,2_1_1_1_27,2022-04-28T10:32:22.549Z,,,,,,,,,,,,,,,,,54,,,,,,,,,,,,,,285.57200000149896,,response,,,,100,,,,,,,Space,keypress(Space),,,,,,,,-- --- ---- --- ------ ----- ------- ---- -- --- ------- --<br>------- ---------- ------ -- ----- -- ----- -- ---- ------<br>--- ----- --- --- ------ interest ----- --- ------ ----- --<br>----- ----- ---------- --- --- ------ ------ ---- -- ------<br>------- --- ------ ----- --- ---- ------- -- ---- --- --<br>------- ------,178900.6000000015,178900.1000000015,178597.894,178613.8999999985,178614.528,178914.643,,27,interest
screen,html.Screen,2_1_1_1_28,2022-04-28T10:32:22.858Z,,,,,,,,,,,,,,,,,54,,,,,,,,,,,,,,294.35699999998906,,response,,,,100,,,,,,,Space,keypress(Space),,,,,,,,-- --- ---- --- ------ ----- ------- ---- -- --- ------- --<br>------- ---------- ------ -- ----- -- ----- -- ---- ------<br>--- ----- --- --- ------ -------- rate. --- ------ ----- --<br>----- ----- ---------- --- --- ------ ------ ---- -- ------<br>------- --- ------ ----- --- ---- ------- -- ---- --- --<br>------- ------,179209.6000000015,179209,178897.861,178900.70000000298,178914.643,179214.596,,28,rate.
screen,html.Screen,2_1_1_1_29,2022-04-28T10:32:23.246Z,,,,,,,,,,,,,,,,,54,,,,,,,,,,,,,,382.30399999851943,,response,,,,100,,,,,,,Space,keypress(Space),,,,,,,,-- --- ---- --- ------ ----- ------- ---- -- --- ------- --<br>------- ---------- ------ -- ----- -- ----- -- ---- ------<br>--- ----- --- --- ------ -------- ----- The ------ ----- --<br>----- ----- ---------- --- --- ------ ------ ---- -- ------<br>------- --- ------ ----- --- ---- ------- -- ---- --- --<br>------- ------,179597.29999999702,179596.8999999985,179197.893,179209.70000000298,179214.596,179614.686,,29,The
screen,html.Screen,2_1_1_1_30,2022-04-28T10:32:23.645Z,,,,,,,,,,,,,,,,,54,,,,,,,,,,,,,,381.41400000150315,,response,,,,100,,,,,,,Space,keypress(Space),,,,,,,,-- --- ---- --- ------ ----- ------- ---- -- --- ------- --<br>------- ---------- ------ -- ----- -- ----- -- ---- ------<br>--- ----- --- --- ------ -------- ----- --- market ----- --<br>----- ----- ---------- --- --- ------ ------ ---- -- ------<br>------- --- ------ ----- --- ---- ------- -- ---- --- --<br>------- ------,179996.79999999702,179996.1000000015,179581.206,179597.3999999985,179614.686,180017.596,,30,market
screen,html.Screen,2_1_1_1_31,2022-04-28T10:32:23.746Z,,,,,,,,,,,,,,,,,54,,,,,,,,,,,,,,79.50400000149966,,response,,,,100,,,,,,,Space,keypress(Space),,,,,,,,-- --- ---- --- ------ ----- ------- ---- -- --- ------- --<br>------- ---------- ------ -- ----- -- ----- -- ---- ------<br>--- ----- --- --- ------ -------- ----- --- ------ value --<br>----- ----- ---------- --- --- ------ ------ ---- -- ------<br>------- --- ------ ----- --- ---- ------- -- ---- --- --<br>------- ------,180097.5,180097.1000000015,179981.255,179996.8999999985,180017.596,180131.539,,31,value
screen,html.Screen,2_1_1_1_32,2022-04-28T10:32:24.139Z,,,,,,,,,,,,,,,,,54,,,,,,,,,,,,,,358.36099999852013,,response,,,,100,,,,,,,Space,keypress(Space),,,,,,,,-- --- ---- --- ------ ----- ------- ---- -- --- ------- --<br>------- ---------- ------ -- ----- -- ----- -- ---- ------<br>--- ----- --- --- ------ -------- ----- --- ------ ----- of<br>----- ----- ---------- --- --- ------ ------ ---- -- ------<br>------- --- ------ ----- --- ---- ------- -- ---- --- --<br>------- ------,180490.3999999985,180489.8999999985,180114.667,180097.6000000015,180131.539,180497.996,,32,of
screen,html.Screen,2_1_1_1_33,2022-04-28T10:32:24.571Z,,,,,,,,,,,,,,,,,54,,,,,,,,,,,,,,423.2040000029665,,response,,,,100,,,,,,,Space,keypress(Space),,,,,,,,-- --- ---- --- ------ ----- ------- ---- -- --- ------- --<br>------- ---------- ------ -- ----- -- ----- -- ---- ------<br>--- ----- --- --- ------ -------- ----- --- ------ ----- --<br>these ----- ---------- --- --- ------ ------ ---- -- ------<br>------- --- ------ ----- --- ---- ------- -- ---- --- --<br>------- ------,180921.8999999985,180921.20000000298,180481.317,180490.5,180497.996,180931.444,,33,these
screen,html.Screen,2_1_1_1_34,2022-04-28T10:32:24.932Z,,,,,,,,,,,,,,,,,54,,,,,,,,,,,,,,351.5560000000114,,response,,,,100,,,,,,,Space,keypress(Space),,,,,,,,-- --- ---- --- ------ ----- ------- ---- -- --- ------- --<br>------- ---------- ------ -- ----- -- ----- -- ---- ------<br>--- ----- --- --- ------ -------- ----- --- ------ ----- --<br>----- bonds ---------- --- --- ------ ------ ---- -- ------<br>------- --- ------ ----- --- ---- ------- -- ---- --- --<br>------- ------,181283.5,181283,180914.693,180922.79999999702,180931.444,181298.08,,34,bonds
screen,html.Screen,2_1_1_1_35,2022-04-28T10:32:25.299Z,,,,,,,,,,,,,,,,,54,,,,,,,,,,,,,,352.0200000015029,,response,,,,100,,,,,,,Space,keypress(Space),,,,,,,,"-- --- ---- --- ------ ----- ------- ---- -- --- ------- --<br>------- ---------- ------ -- ----- -- ----- -- ---- ------<br>--- ----- --- --- ------ -------- ----- --- ------ ----- --<br>----- ----- plummeted, --- --- ------ ------ ---- -- ------<br>------- --- ------ ----- --- ---- ------- -- ---- --- --<br>------- ------",181650.70000000298,181650.1000000015,181281.368,181283.5,181298.08,181664.841,,35,"plummeted,"
screen,html.Screen,2_1_1_1_36,2022-04-28T10:32:25.682Z,,,,,,,,,,,,,,,,,54,,,,,,,,,,,,,,367.85900000299443,,response,,,,100,,,,,,,Space,keypress(Space),,,,,,,,-- --- ---- --- ------ ----- ------- ---- -- --- ------- --<br>------- ---------- ------ -- ----- -- ----- -- ---- ------<br>--- ----- --- --- ------ -------- ----- --- ------ ----- --<br>----- ----- ---------- and --- ------ ------ ---- -- ------<br>------- --- ------ ----- --- ---- ------- -- ---- --- --<br>------- ------,182033.29999999702,182032.70000000298,181648.297,181650.70000000298,181664.841,182048.156,,36,and
screen,html.Screen,2_1_1_1_37,2022-04-28T10:32:26.022Z,,,,,,,,,,,,,,,,,54,,,,,,,,,,,,,,324.74399999852176,,response,,,,100,,,,,,,Space,keypress(Space),,,,,,,,-- --- ---- --- ------ ----- ------- ---- -- --- ------- --<br>------- ---------- ------ -- ----- -- ----- -- ---- ------<br>--- ----- --- --- ------ -------- ----- --- ------ ----- --<br>----- ----- ---------- --- the ------ ------ ---- -- ------<br>------- --- ------ ----- --- ---- ------- -- ---- --- --<br>------- ------,182373.29999999702,182372.8999999985,182031.38,182033.29999999702,182048.156,182381.747,,37,the
screen,html.Screen,2_1_1_1_38,2022-04-28T10:32:26.394Z,,,,,,,,,,,,,,,,,54,,,,,,,,,,,,,,363.15299999850686,,response,,,,100,,,,,,,Space,keypress(Space),,,,,,,,-- --- ---- --- ------ ----- ------- ---- -- --- ------- --<br>------- ---------- ------ -- ----- -- ----- -- ---- ------<br>--- ----- --- --- ------ -------- ----- --- ------ ----- --<br>----- ----- ---------- --- --- market ------ ---- -- ------<br>------- --- ------ ----- --- ---- ------- -- ---- --- --<br>------- ------,182745.5,182744.8999999985,182364.813,182373.3999999985,182381.747,182748.12,,38,market
screen,html.Screen,2_1_1_1_39,2022-04-28T10:32:26.687Z,,,,,,,,,,,,,,,,,54,,,,,,,,,,,,,,289.6799999970244,,response,,,,100,,,,,,,Space,keypress(Space),,,,,,,,-- --- ---- --- ------ ----- ------- ---- -- --- ------- --<br>------- ---------- ------ -- ----- -- ----- -- ---- ------<br>--- ----- --- --- ------ -------- ----- --- ------ ----- --<br>----- ----- ---------- --- --- ------ became ---- -- ------<br>------- --- ------ ----- --- ---- ------- -- ---- --- --<br>------- ------,183038.3999999985,183037.79999999702,182731.413,182745.6000000015,182748.12,183048.158,,39,became
screen,html.Screen,2_1_1_1_40,2022-04-28T10:32:27.048Z,,,,,,,,,,,,,,,,,54,,,,,,,,,,,,,,350.64199999702396,,response,,,,100,,,,,,,Space,keypress(Space),,,,,,,,-- --- ---- --- ------ ----- ------- ---- -- --- ------- --<br>------- ---------- ------ -- ----- -- ----- -- ---- ------<br>--- ----- --- --- ------ -------- ----- --- ------ ----- --<br>----- ----- ---------- --- --- ------ ------ wary -- ------<br>------- --- ------ ----- --- ---- ------- -- ---- --- --<br>------- ------,183399.29999999702,183398.79999999702,183031.452,183038.5,183048.158,183414.94,,40,wary
screen,html.Screen,2_1_1_1_41,2022-04-28T10:32:27.373Z,,,,,,,,,,,,,,,,,54,,,,,,,,,,,,,,308.95999999850756,,response,,,,100,,,,,,,Space,keypress(Space),,,,,,,,-- --- ---- --- ------ ----- ------- ---- -- --- ------- --<br>------- ---------- ------ -- ----- -- ----- -- ---- ------<br>--- ----- --- --- ------ -------- ----- --- ------ ----- --<br>----- ----- ---------- --- --- ------ ------ ---- of ------<br>------- --- ------ ----- --- ---- ------- -- ---- --- --<br>------- ------,183724.3999999985,183723.8999999985,183398.224,183399.29999999702,183414.94,183731.604,,41,of
screen,html.Screen,2_1_1_1_42,2022-04-28T10:32:27.729Z,,,,,,,,,,,,,,,,,54,,,,,,,,,,,,,,348.1959999970277,,response,,,,100,,,,,,,Space,keypress(Space),,,,,,,,-- --- ---- --- ------ ----- ------- ---- -- --- ------- --<br>------- ---------- ------ -- ----- -- ----- -- ---- ------<br>--- ----- --- --- ------ -------- ----- --- ------ ----- --<br>----- ----- ---------- --- --- ------ ------ ---- -- French<br>------- --- ------ ----- --- ---- ------- -- ---- --- --<br>------- ------,184080.29999999702,184079.79999999702,183714.84,183724.5,183731.604,184113.459,,42,French
screen,html.Screen,2_1_1_1_43,2022-04-28T10:32:28.107Z,,,,,,,,,,,,,,,,,54,,,,,,,,,,,,,,344.24100000297767,,response,,,,100,,,,,,,Space,keypress(Space),,,,,,,,-- --- ---- --- ------ ----- ------- ---- -- --- ------- --<br>------- ---------- ------ -- ----- -- ----- -- ---- ------<br>--- ----- --- --- ------ -------- ----- --- ------ ----- --<br>----- ----- ---------- --- --- ------ ------ ---- -- ------<br>credit. --- ------ ----- --- ---- ------- -- ---- --- --<br>------- ------,184458.29999999702,184457.70000000298,184064.864,184080.29999999702,184113.459,184464.918,,43,credit.
screen,html.Screen,2_1_1_1_44,2022-04-28T10:32:28.500Z,,,,,,,,,,,,,,,,,54,,,,,,,,,,,,,,385.88199999701465,,response,,,,100,,,,,,,Space,keypress(Space),,,,,,,,-- --- ---- --- ------ ----- ------- ---- -- --- ------- --<br>------- ---------- ------ -- ----- -- ----- -- ---- ------<br>--- ----- --- --- ------ -------- ----- --- ------ ----- --<br>----- ----- ---------- --- --- ------ ------ ---- -- ------<br>------- The ------ ----- --- ---- ------- -- ---- --- --<br>------- ------,184851.3999999985,184850.79999999702,184448.378,184458.3999999985,184464.918,184864.964,,44,The
screen,html.Screen,2_1_1_1_45,2022-04-28T10:32:28.841Z,,,,,,,,,,,,,,,,,54,,,,,,,,,,,,,,327.1360000014829,,response,,,,100,,,,,,,Space,keypress(Space),,,,,,,,-- --- ---- --- ------ ----- ------- ---- -- --- ------- --<br>------- ---------- ------ -- ----- -- ----- -- ---- ------<br>--- ----- --- --- ------ -------- ----- --- ------ ----- --<br>----- ----- ---------- --- --- ------ ------ ---- -- ------<br>------- --- French ----- --- ---- ------- -- ---- --- --<br>------- ------,185192.79999999702,185192.1000000015,184848.301,184851.5,184864.964,185198.442,,45,French
screen,html.Screen,2_1_1_1_46,2022-04-28T10:32:29.202Z,,,,,,,,,,,,,,,,,54,,,,,,,,,,,,,,354.35799999700976,,response,,,,100,,,,,,,Space,keypress(Space),,,,,,,,-- --- ---- --- ------ ----- ------- ---- -- --- ------- --<br>------- ---------- ------ -- ----- -- ----- -- ---- ------<br>--- ----- --- --- ------ -------- ----- --- ------ ----- --<br>----- ----- ---------- --- --- ------ ------ ---- -- ------<br>------- --- ------ state --- ---- ------- -- ---- --- --<br>------- ------,185553.29999999702,185552.79999999702,185181.657,185192.8999999985,185198.442,185565.062,,46,state
screen,html.Screen,2_1_1_1_47,2022-04-28T10:32:29.581Z,,,,,,,,,,,,,,,,,54,,,,,,,,,,,,,,365.7379999970144,,response,,,,100,,,,,,,Space,keypress(Space),,,,,,,,-- --- ---- --- ------ ----- ------- ---- -- --- ------- --<br>------- ---------- ------ -- ----- -- ----- -- ---- ------<br>--- ----- --- --- ------ -------- ----- --- ------ ----- --<br>----- ----- ---------- --- --- ------ ------ ---- -- ------<br>------- --- ------ ----- was ---- ------- -- ---- --- --<br>------- ------,185932.3999999985,185930.79999999702,185548.256,185553.5,185565.062,185948.401,,47,was
screen,html.Screen,2_1_1_1_48,2022-04-28T10:32:29.867Z,,,,,,,,,,,,,,,,,54,,,,,,,,,,,,,,269.29900000296766,,response,,,,100,,,,,,,Space,keypress(Space),,,,,,,,-- --- ---- --- ------ ----- ------- ---- -- --- ------- --<br>------- ---------- ------ -- ----- -- ----- -- ---- ------<br>--- ----- --- --- ------ -------- ----- --- ------ ----- --<br>----- ----- ---------- --- --- ------ ------ ---- -- ------<br>------- --- ------ ----- --- left ------- -- ---- --- --<br>------- ------,186218.20000000298,186217.70000000298,185931.841,185933,185948.401,186231.701,,48,left
screen,html.Screen,2_1_1_1_49,2022-04-28T10:32:30.234Z,,,,,,,,,,,,,,,,,54,,,,,,,,,,,,,,353.19899999850895,,response,,,,100,,,,,,,Space,keypress(Space),,,,,,,,-- --- ---- --- ------ ----- ------- ---- -- --- ------- --<br>------- ---------- ------ -- ----- -- ----- -- ---- ------<br>--- ----- --- --- ------ -------- ----- --- ------ ----- --<br>----- ----- ---------- --- --- ------ ------ ---- -- ------<br>------- --- ------ ----- --- ---- without -- ---- --- --<br>------- ------,186585.3999999985,186584.8999999985,186215.009,186218.29999999702,186231.701,186598.705,,49,without
screen,html.Screen,2_1_1_1_50,2022-04-28T10:32:30.526Z,,,,,,,,,,,,,,,,,54,,,,,,,,,,,,,,278.0949999970326,,response,,,,100,,,,,,,Space,keypress(Space),,,,,,,,-- --- ---- --- ------ ----- ------- ---- -- --- ------- --<br>------- ---------- ------ -- ----- -- ----- -- ---- ------<br>--- ----- --- --- ------ -------- ----- --- ------ ----- --<br>----- ----- ---------- --- --- ------ ------ ---- -- ------<br>------- --- ------ ----- --- ---- ------- an ---- --- --<br>------- ------,186877.20000000298,186876.79999999702,186581.642,186585.3999999985,186598.705,186881.804,,50,an
screen,html.Screen,2_1_1_1_51,2022-04-28T10:32:30.845Z,,,,,,,,,,,,,,,,,54,,,,,,,,,,,,,,314.09599999850616,,response,,,,100,,,,,,,Space,keypress(Space),,,,,,,,-- --- ---- --- ------ ----- ------- ---- -- --- ------- --<br>------- ---------- ------ -- ----- -- ----- -- ---- ------<br>--- ----- --- --- ------ -------- ----- --- ------ ----- --<br>----- ----- ---------- --- --- ------ ------ ---- -- ------<br>------- --- ------ ----- --- ---- ------- -- easy --- --<br>------- ------,187196.3999999985,187195.8999999985,186865.007,186877.29999999702,186881.804,187198.541,,51,easy
screen,html.Screen,2_1_1_1_52,2022-04-28T10:32:31.122Z,,,,,,,,,,,,,,,,,54,,,,,,,,,,,,,,274.1590000029828,,response,,,,100,,,,,,,Space,keypress(Space),,,,,,,,-- --- ---- --- ------ ----- ------- ---- -- --- ------- --<br>------- ---------- ------ -- ----- -- ----- -- ---- ------<br>--- ----- --- --- ------ -------- ----- --- ------ ----- --<br>----- ----- ---------- --- --- ------ ------ ---- -- ------<br>------- --- ------ ----- --- ---- ------- -- ---- way --<br>------- ------,187473.3999999985,187472.70000000298,187181.715,187196.5,187198.541,187481.838,,52,way
screen,html.Screen,2_1_1_1_53,2022-04-28T10:32:31.388Z,,,,,,,,,,,,,,,,,54,,,,,,,,,,,,,,256.8620000029914,,response,,,,100,,,,,,,Space,keypress(Space),,,,,,,,-- --- ---- --- ------ ----- ------- ---- -- --- ------- --<br>------- ---------- ------ -- ----- -- ----- -- ---- ------<br>--- ----- --- --- ------ -------- ----- --- ------ ----- --<br>----- ----- ---------- --- --- ------ ------ ---- -- ------<br>------- --- ------ ----- --- ---- ------- -- ---- --- of<br>------- ------,187739.29999999702,187738.70000000298,187465.068,187473.5,187481.838,187748.668,,53,of
screen,html.Screen,2_1_1_1_54,2022-04-28T10:32:31.696Z,,,,,,,,,,,,,,,,,54,,,,,,,,,,,,,,298.0320000029751,,response,,,,100,,,,,,,Space,keypress(Space),,,,,,,,-- --- ---- --- ------ ----- ------- ---- -- --- ------- --<br>------- ---------- ------ -- ----- -- ----- -- ---- ------<br>--- ----- --- --- ------ -------- ----- --- ------ ----- --<br>----- ----- ---------- --- --- ------ ------ ---- -- ------<br>------- --- ------ ----- --- ---- ------- -- ---- --- --<br>raising ------,188047.20000000298,188046.70000000298,187731.811,187739.3999999985,187748.668,188076.036,,54,raising
screen,html.Screen,2_1_1_1_55,2022-04-28T10:32:32.101Z,,,,,,,,,,,,,,,,,54,,,,,,,,,,,,,,374.9640000000072,,response,,,,100,,,,,,,Space,keypress(Space),,,,,,,,-- --- ---- --- ------ ----- ------- ---- -- --- ------- --<br>------- ---------- ------ -- ----- -- ----- -- ---- ------<br>--- ----- --- --- ------ -------- ----- --- ------ ----- --<br>----- ----- ---------- --- --- ------ ------ ---- -- ------<br>------- --- ------ ----- --- ---- ------- -- ---- --- --<br>------- money.,188451.8999999985,188451,188031.772,188047.29999999702,188076.036,188465.153,,55,money.
Item 100,flow.Loop,2_1_1_1,2022-04-28T10:32:32.101Z,,,,,,,,,,,,,,,,,,,,,,,,,,,,,,,20920.483999999997,,completion,,,,,D,,,,,,,,,,,silence,,,,,188452.5,188451,167513.855,167514.5,167530.516,188465.153,,,
Question 1,html.Screen,2_1_1_2,2022-04-28T10:32:34.394Z,,,,,,,,,,,,,,,,,,,,,,,,,,,,true,TRUE,,2279.7469999985187,,response,,,,100,D,,,,,,TRUE,click #choice-1,,,,silence,,,,,190745.79999999702,190744.8999999985,188448.465,188452.5,188465.153,190765.324,,,
Question 2,html.Screen,2_1_1_3,2022-04-28T10:32:36.180Z,,,,,,,,,,,,,,,,,,,,,,,,,,,,true,FALSE,,1765.376000002987,,response,,,,100,D,,,,,,FALSE,click #choice-2,,,,silence,,,,,192531.6000000015,192530.70000000298,190748.658,190745.8999999985,190765.324,192551.597,,,
Item 100,flow.Sequence,2_1_1,2022-04-28T10:32:36.181Z,,,,,,,,,,,,,,,,,,,,,,,,,,,,,,,35000.81500000297,,completion,,,,,,,,,,,,,,,,,,,,,192532,192530.70000000298,157513.184,157516.70000000298,157529.885,192551.597,,,
End of Practice,html.Page,2_1_2,2022-04-28T10:32:39.542Z,,,,,,,,,,,,,,,,,,,,,,,,,,,,,,,3341.5030000014813,,form submission,,,,,,,,,,,,,,,,,,,,,195893.3999999985,195893.1000000015,192515.666,192532.29999999702,192551.597,195898.975,,,
Practice,flow.Sequence,2_1,2022-04-28T10:32:39.542Z,,,,,,,,,,,,,,,,,,,,,,,,,,,,,,,84049.47400000149,,completion,,,,,,,,,,,,,,,,,,,,,195893.6000000015,195893.1000000015,111826.944,111833.89999999851,111843.626,195898.975,,,
Trap_instruction,html.Page,2_2_0,2022-04-28T10:32:43.457Z,,,,,,,,,,,,,,,,,,,,,,,,,,,,,,,3908.6250000014843,,form submission,,,,,,,,,,,,,,,,,,,,,199807.8999999985,199807.6000000015,195882.4,195893.70000000298,195898.975,199815.875,,,
trap_trial,html.Screen,2_2_1,2022-04-28T10:32:46.633Z,,,,,,,,,,,,,,,,,,,,,,,,,,,,true,1,,3166.8250000029802,,response,,,,,,,,,,,1,click #choice-1,,,,,,,,,202983.70000000298,202982.70000000298,199799.218,199808,199815.875,202999.564,,,
end of trap trial,html.Page,2_2_2,2022-04-28T10:32:47.890Z,,,,,,,,,,,,,,,,,,,,,,,,,,,,,,,1240.935999999987,,form submission,,,,,,,,,,,,,,,,,,,,,204240.70000000298,204240.5,202982.743,202983.79999999702,202999.564,204249.724,,,
Trap 1,flow.Sequence,2_2,2022-04-28T10:32:47.890Z,,,,,,,,,,,,,,,,,,,,,,,,,,,,,,,8341.524999999994,,completion,,,,,,,,,,,,,,,,,,,,,204241,204240.5,195882.4,195893.6000000015,195898.975,204249.724,,,
Standby,html.Page,2_3_0,2022-04-28T10:32:55.883Z,,,,,,,,,,,,,,,,,,,,,,,,,,,,,,,8000.3369999999995,,timeout,,,,,,,,,,,,,,,,,,,,,212234,212233.301,204232.813,204241.1000000015,204249.724,212250.061,,,
Holding screen,html.Screen,2_3_1_0_0,2022-04-28T10:33:02.883Z,,,,,,,,,,,,,,,,,,,,,,,,,,,,,,,7000.421000000002,,timeout,,,,,,,,,,,,,,,,,,,,,219234.3999999985,219233.903,212233.301,212234.1000000015,212250.061,219250.482,,,
screen,html.Screen,2_3_1_0_1_0,2022-04-28T10:33:03.841Z,,,,,,,,,,,,,,,,,40,,,,,,,,,,,,,,939.6180000015011,,response,,,,9,D,,,,,,Space,keypress(Space),,,,speech,,,,Police -- ------- ---- ---- ---- - -------- ----- --- --<br>----- ----- ------ -- ---- -- --- - ---- -- - ----- -----<br>------ ---- ------ ---- - -------- ------- -- --- --------<br>-------- ----------- ---- ------ ---- ------ ---- --- ---<br>-------- --- -----,220191.79999999702,220190.1000000015,219233.903,219234.6000000015,219250.482,220200.565,,0,Police
screen,html.Screen,2_3_1_0_1_1,2022-04-28T10:33:04.227Z,,,,,,,,,,,,,,,,,40,,,,,,,,,,,,,,376.73499999701744,,response,,,,9,D,,,,,,Space,keypress(Space),,,,speech,,,,------ in ------- ---- ---- ---- - -------- ----- --- --<br>----- ----- ------ -- ---- -- --- - ---- -- - ----- -----<br>------ ---- ------ ---- - -------- ------- -- --- --------<br>-------- ----------- ---- ------ ---- ------ ---- --- ---<br>-------- --- -----,220577.70000000298,220577.29999999702,220183.874,220191.8999999985,220200.565,220583.9,,1,in
screen,html.Screen,2_3_1_0_1_2,2022-04-28T10:33:04.541Z,,,,,,,,,,,,,,,,,40,,,,,,,,,,,,,,307.20000000149594,,response,,,,9,D,,,,,,Space,keypress(Space),,,,speech,,,,------ -- Georgia ---- ---- ---- - -------- ----- --- --<br>----- ----- ------ -- ---- -- --- - ---- -- - ----- -----<br>------ ---- ------ ---- - -------- ------- -- --- --------<br>-------- ----------- ---- ------ ---- ------ ---- --- ---<br>-------- --- -----,220891.8999999985,220891.1000000015,220567.147,220577.8999999985,220583.9,220900.625,,2,Georgia
screen,html.Screen,2_3_1_0_1_3,2022-04-28T10:33:04.961Z,,,,,,,,,,,,,,,,,40,,,,,,,,,,,,,,410.57500000298023,,response,,,,9,D,,,,,,Space,keypress(Space),,,,speech,,,,------ -- ------- have ---- ---- - -------- ----- --- --<br>----- ----- ------ -- ---- -- --- - ---- -- - ----- -----<br>------ ---- ------ ---- - -------- ------- -- --- --------<br>-------- ----------- ---- ------ ---- ------ ---- --- ---<br>-------- --- -----,221312.1000000015,221311.20000000298,220883.837,220892.1000000015,220900.625,221317.328,,3,have
screen,html.Screen,2_3_1_0_1_4,2022-04-28T10:33:05.333Z,,,,,,,,,,,,,,,,,40,,,,,,,,,,,,,,365.7720000014815,,response,,,,9,D,,,,,,Space,keypress(Space),,,,speech,,,,------ -- ------- ---- shut ---- - -------- ----- --- --<br>----- ----- ------ -- ---- -- --- - ---- -- - ----- -----<br>------ ---- ------ ---- - -------- ------- -- --- --------<br>-------- ----------- ---- ------ ---- ------ ---- --- ---<br>-------- --- -----,221683.6000000015,221683.1000000015,221300.502,221312.1000000015,221317.328,221700.651,,4,shut
screen,html.Screen,2_3_1_0_1_5,2022-04-28T10:33:05.737Z,,,,,,,,,,,,,,,,,40,,,,,,,,,,,,,,386.54900000296766,,response,,,,9,D,,,,,,Space,keypress(Space),,,,speech,,,,------ -- ------- ---- ---- down - -------- ----- --- --<br>----- ----- ------ -- ---- -- --- - ---- -- - ----- -----<br>------ ---- ------ ---- - -------- ------- -- --- --------<br>-------- ----------- ---- ------ ---- ------ ---- --- ---<br>-------- --- -----,222087.70000000298,222087.20000000298,221684.015,221683.70000000298,221700.651,222100.688,,5,down
screen,html.Screen,2_3_1_0_1_6,2022-04-28T10:33:06.078Z,,,,,,,,,,,,,,,,,40,,,,,,,,,,,,,,327.5120000029856,,response,,,,9,D,,,,,,Space,keypress(Space),,,,speech,,,,------ -- ------- ---- ---- ---- a -------- ----- --- --<br>----- ----- ------ -- ---- -- --- - ---- -- - ----- -----<br>------ ---- ------ ---- - -------- ------- -- --- --------<br>-------- ----------- ---- ------ ---- ------ ---- --- ---<br>-------- --- -----,222428.70000000298,222428.20000000298,222084.047,222087.79999999702,222100.688,222434.069,,6,a
screen,html.Screen,2_3_1_0_1_7,2022-04-28T10:33:06.428Z,,,,,,,,,,,,,,,,,40,,,,,,,,,,,,,,345.13100000299164,,response,,,,9,D,,,,,,Space,keypress(Space),,,,speech,,,,------ -- ------- ---- ---- ---- - lemonade ----- --- --<br>----- ----- ------ -- ---- -- --- - ---- -- - ----- -----<br>------ ---- ------ ---- - -------- ------- -- --- --------<br>-------- ----------- ---- ------ ---- ------ ---- --- ---<br>-------- --- -----,222779.6000000015,222779.20000000298,222417.376,222428.79999999702,222434.069,222784.024,,7,lemonade
screen,html.Screen,2_3_1_0_1_8,2022-04-28T10:33:06.790Z,,,,,,,,,,,,,,,,,40,,,,,,,,,,,,,,355.9759999999951,,response,,,,9,D,,,,,,Space,keypress(Space),,,,speech,,,,------ -- ------- ---- ---- ---- - -------- stand --- --<br>----- ----- ------ -- ---- -- --- - ---- -- - ----- -----<br>------ ---- ------ ---- - -------- ------- -- --- --------<br>-------- ----------- ---- ------ ---- ------ ---- --- ---<br>-------- --- -----,223140.79999999702,223140,222767.279,222779.70000000298,222784.024,223150.778,,8,stand
screen,html.Screen,2_3_1_0_1_9,2022-04-28T10:33:07.109Z,,,,,,,,,,,,,,,,,40,,,,,,,,,,,,,,308.32200000149896,,response,,,,9,D,,,,,,Space,keypress(Space),,,,speech,,,,------ -- ------- ---- ---- ---- - -------- ----- run --<br>----- ----- ------ -- ---- -- --- - ---- -- - ----- -----<br>------ ---- ------ ---- - -------- ------- -- --- --------<br>-------- ----------- ---- ------ ---- ------ ---- --- ---<br>-------- --- -----,223459.70000000298,223459.1000000015,223134.094,223140.8999999985,223150.778,223467.456,,9,run
screen,html.Screen,2_3_1_0_1_10,2022-04-28T10:33:07.487Z,,,,,,,,,,,,,,,,,40,,,,,,,,,,,,,,369.4439999985043,,response,,,,9,D,,,,,,Space,keypress(Space),,,,speech,,,,------ -- ------- ---- ---- ---- - -------- ----- --- by<br>----- ----- ------ -- ---- -- --- - ---- -- - ----- -----<br>------ ---- ------ ---- - -------- ------- -- --- --------<br>-------- ----------- ---- ------ ---- ------ ---- --- ---<br>-------- --- -----,223837.70000000298,223836.8999999985,223450.858,223459.79999999702,223467.456,223850.847,,10,by
screen,html.Screen,2_3_1_0_1_11,2022-04-28T10:33:07.838Z,,,,,,,,,,,,,,,,,40,,,,,,,,,,,,,,337.25300000148127,,response,,,,9,D,,,,,,Space,keypress(Space),,,,speech,,,,------ -- ------- ---- ---- ---- - -------- ----- --- --<br>three ----- ------ -- ---- -- --- - ---- -- - ----- -----<br>------ ---- ------ ---- - -------- ------- -- --- --------<br>-------- ----------- ---- ------ ---- ------ ---- --- ---<br>-------- --- -----,224188.70000000298,224188.1000000015,223834.011,223837.70000000298,223850.847,224200.8,,11,three
screen,html.Screen,2_3_1_0_1_12,2022-04-28T10:33:08.237Z,,,,,,,,,,,,,,,,,40,,,,,,,,,,,,,,386.4000000029919,,response,,,,9,D,,,,,,Space,keypress(Space),,,,speech,,,,------ -- ------- ---- ---- ---- - -------- ----- --- --<br>----- girls ------ -- ---- -- --- - ---- -- - ----- -----<br>------ ---- ------ ---- - -------- ------- -- --- --------<br>-------- ----------- ---- ------ ---- ------ ---- --- ---<br>-------- --- -----,224587.8999999985,224587.20000000298,224184.044,224188.79999999702,224200.8,224600.896,,12,girls
screen,html.Screen,2_3_1_0_1_13,2022-04-28T10:33:08.624Z,,,,,,,,,,,,,,,,,40,,,,,,,,,,,,,,374.00399999850197,,response,,,,9,D,,,,,,Space,keypress(Space),,,,speech,,,,------ -- ------- ---- ---- ---- - -------- ----- --- --<br>----- ----- trying -- ---- -- --- - ---- -- - ----- -----<br>------ ---- ------ ---- - -------- ------- -- --- --------<br>-------- ----------- ---- ------ ---- ------ ---- --- ---<br>-------- --- -----,224975.5,224974.8999999985,224584.046,224588.1000000015,224600.896,224984.367,,13,trying
screen,html.Screen,2_3_1_0_1_14,2022-04-28T10:33:08.948Z,,,,,,,,,,,,,,,,,40,,,,,,,,,,,,,,314.5329999985115,,response,,,,9,D,,,,,,Space,keypress(Space),,,,speech,,,,------ -- ------- ---- ---- ---- - -------- ----- --- --<br>----- ----- ------ to ---- -- --- - ---- -- - ----- -----<br>------ ---- ------ ---- - -------- ------- -- --- --------<br>-------- ----------- ---- ------ ---- ------ ---- --- ---<br>-------- --- -----,225299.3999999985,225298.8999999985,224967.518,224975.6000000015,224984.367,225300.839,,14,to
screen,html.Screen,2_3_1_0_1_15,2022-04-28T10:33:09.326Z,,,,,,,,,,,,,,,,,40,,,,,,,,,,,,,,376.2610000014829,,response,,,,9,D,,,,,,Space,keypress(Space),,,,speech,,,,------ -- ------- ---- ---- ---- - -------- ----- --- --<br>----- ----- ------ -- save -- --- - ---- -- - ----- -----<br>------ ---- ------ ---- - -------- ------- -- --- --------<br>-------- ----------- ---- ------ ---- ------ ---- --- ---<br>-------- --- -----,225677.6000000015,225677.1000000015,225284.138,225299.5,225300.839,225684.208,,15,save
screen,html.Screen,2_3_1_0_1_16,2022-04-28T10:33:09.710Z,,,,,,,,,,,,,,,,,40,,,,,,,,,,,,,,376.0919999970065,,response,,,,9,D,,,,,,Space,keypress(Space),,,,speech,,,,------ -- ------- ---- ---- ---- - -------- ----- --- --<br>----- ----- ------ -- ---- up --- - ---- -- - ----- -----<br>------ ---- ------ ---- - -------- ------- -- --- --------<br>-------- ----------- ---- ------ ---- ------ ---- --- ---<br>-------- --- -----,226060.79999999702,226060.29999999702,225667.483,225677.70000000298,225684.208,226067.734,,16,up
screen,html.Screen,2_3_1_0_1_17,2022-04-28T10:33:10.102Z,,,,,,,,,,,,,,,,,40,,,,,,,,,,,,,,385.3660000014934,,response,,,,9,D,,,,,,Space,keypress(Space),,,,speech,,,,------ -- ------- ---- ---- ---- - -------- ----- --- --<br>----- ----- ------ -- ---- -- for - ---- -- - ----- -----<br>------ ---- ------ ---- - -------- ------- -- --- --------<br>-------- ----------- ---- ------ ---- ------ ---- --- ---<br>-------- --- -----,226453.6000000015,226453.1000000015,226050.999,226060.8999999985,226067.734,226467.671,,17,for
screen,html.Screen,2_3_1_0_1_18,2022-04-28T10:33:10.539Z,,,,,,,,,,,,,,,,,40,,,,,,,,,,,,,,422.3289999999979,,response,,,,9,D,,,,,,Space,keypress(Space),,,,speech,,,,------ -- ------- ---- ---- ---- - -------- ----- --- --<br>----- ----- ------ -- ---- -- --- a ---- -- - ----- -----<br>------ ---- ------ ---- - -------- ------- -- --- --------<br>-------- ----------- ---- ------ ---- ------ ---- --- ---<br>-------- --- -----,226890.5,226890,226450.841,226453.70000000298,226467.671,226901.006,,18,a
screen,html.Screen,2_3_1_0_1_19,2022-04-28T10:33:10.933Z,,,,,,,,,,,,,,,,,40,,,,,,,,,,,,,,382.09400000149617,,response,,,,9,D,,,,,,Space,keypress(Space),,,,speech,,,,------ -- ------- ---- ---- ---- - -------- ----- --- --<br>----- ----- ------ -- ---- -- --- - trip -- - ----- -----<br>------ ---- ------ ---- - -------- ------- -- --- --------<br>-------- ----------- ---- ------ ---- ------ ---- --- ---<br>-------- --- -----,227283.70000000298,227283.1000000015,226884.242,226890.6000000015,226901.006,227301.015,,19,trip
screen,html.Screen,2_3_1_0_1_20,2022-04-28T10:33:11.300Z,,,,,,,,,,,,,,,,,40,,,,,,,,,,,,,,349.08500000147615,,response,,,,9,D,,,,,,Space,keypress(Space),,,,speech,,,,------ -- ------- ---- ---- ---- - -------- ----- --- --<br>----- ----- ------ -- ---- -- --- - ---- to - ----- -----<br>------ ---- ------ ---- - -------- ------- -- --- --------<br>-------- ----------- ---- ------ ---- ------ ---- --- ---<br>-------- --- -----,227650.79999999702,227650.1000000015,227267.619,227283.70000000298,227301.015,227667.756,,20,to
screen,html.Screen,2_3_1_0_1_21,2022-04-28T10:33:11.651Z,,,,,,,,,,,,,,,,,40,,,,,,,,,,,,,,333.14399999851594,,response,,,,9,D,,,,,,Space,keypress(Space),,,,speech,,,,------ -- ------- ---- ---- ---- - -------- ----- --- --<br>----- ----- ------ -- ---- -- --- - ---- -- a ----- -----<br>------ ---- ------ ---- - -------- ------- -- --- --------<br>-------- ----------- ---- ------ ---- ------ ---- --- ---<br>-------- --- -----,228001.70000000298,228000.8999999985,227651.09,227650.8999999985,227667.756,228017.678,,21,a
screen,html.Screen,2_3_1_0_1_22,2022-04-28T10:33:12.061Z,,,,,,,,,,,,,,,,,40,,,,,,,,,,,,,,393.62199999700533,,response,,,,9,D,,,,,,Space,keypress(Space),,,,speech,,,,------ -- ------- ---- ---- ---- - -------- ----- --- --<br>----- ----- ------ -- ---- -- --- - ---- -- - water -----<br>------ ---- ------ ---- - -------- ------- -- --- --------<br>-------- ----------- ---- ------ ---- ------ ---- --- ---<br>-------- --- -----,228412,228411.29999999702,228001,228001.79999999702,228017.678,228417.735,,22,water
screen,html.Screen,2_3_1_0_1_23,2022-04-28T10:33:12.453Z,,,,,,,,,,,,,,,,,40,,,,,,,,,,,,,,386.3650000015041,,response,,,,9,D,,,,,,Space,keypress(Space),,,,speech,,,,"------ -- ------- ---- ---- ---- - -------- ----- --- --<br>----- ----- ------ -- ---- -- --- - ---- -- - ----- park,<br>------ ---- ------ ---- - -------- ------- -- --- --------<br>-------- ----------- ---- ------ ---- ------ ---- --- ---<br>-------- --- -----",228804.6000000015,228804.1000000015,228401.045,228412.1000000015,228417.735,228817.725,,23,"park,"
screen,html.Screen,2_3_1_0_1_24,2022-04-28T10:33:12.848Z,,,,,,,,,,,,,,,,,40,,,,,,,,,,,,,,380.3750000014843,,response,,,,9,D,,,,,,Space,keypress(Space),,,,speech,,,,------ -- ------- ---- ---- ---- - -------- ----- --- --<br>----- ----- ------ -- ---- -- --- - ---- -- - ----- -----<br>saying ---- ------ ---- - -------- ------- -- --- --------<br>-------- ----------- ---- ------ ---- ------ ---- --- ---<br>-------- --- -----,229198.8999999985,229198.1000000015,228800.99,228804.70000000298,228817.725,229201.087,,24,saying
screen,html.Screen,2_3_1_0_1_25,2022-04-28T10:33:13.208Z,,,,,,,,,,,,,,,,,40,,,,,,,,,,,,,,357.91300000000047,,response,,,,9,D,,,,,,Space,keypress(Space),,,,speech,,,,------ -- ------- ---- ---- ---- - -------- ----- --- --<br>----- ----- ------ -- ---- -- --- - ---- -- - ----- -----<br>------ they ------ ---- - -------- ------- -- --- --------<br>-------- ----------- ---- ------ ---- ------ ---- --- ---<br>-------- --- -----,229559.70000000298,229559,229184.636,229198.8999999985,229201.087,229567.801,,25,they
screen,html.Screen,2_3_1_0_1_26,2022-04-28T10:33:13.597Z,,,,,,,,,,,,,,,,,40,,,,,,,,,,,,,,379.3990000029735,,response,,,,9,D,,,,,,Space,keypress(Space),,,,speech,,,,------ -- ------- ---- ---- ---- - -------- ----- --- --<br>----- ----- ------ -- ---- -- --- - ---- -- - ----- -----<br>------ ---- didn't ---- - -------- ------- -- --- --------<br>-------- ----------- ---- ------ ---- ------ ---- --- ---<br>-------- --- -----,229947.79999999702,229947.20000000298,229551.251,229559.70000000298,229567.801,229951.166,,26,didn't
screen,html.Screen,2_3_1_0_1_27,2022-04-28T10:33:13.975Z,,,,,,,,,,,,,,,,,40,,,,,,,,,,,,,,374.33400000000256,,response,,,,9,D,,,,,,Space,keypress(Space),,,,speech,,,,------ -- ------- ---- ---- ---- - -------- ----- --- --<br>----- ----- ------ -- ---- -- --- - ---- -- - ----- -----<br>------ ---- ------ have - -------- ------- -- --- --------<br>-------- ----------- ---- ------ ---- ------ ---- --- ---<br>-------- --- -----,230326.1000000015,230325.5,229934.629,229947.8999999985,229951.166,230334.622,,27,have
screen,html.Screen,2_3_1_0_1_28,2022-04-28T10:33:14.342Z,,,,,,,,,,,,,,,,,40,,,,,,,,,,,,,,357.377999999997,,response,,,,9,D,,,,,,Space,keypress(Space),,,,speech,,,,------ -- ------- ---- ---- ---- - -------- ----- --- --<br>----- ----- ------ -- ---- -- --- - ---- -- - ----- -----<br>------ ---- ------ ---- a -------- ------- -- --- --------<br>-------- ----------- ---- ------ ---- ------ ---- --- ---<br>-------- --- -----,230692.8999999985,230692,230317.925,230326.20000000298,230334.622,230701.424,,28,a
screen,html.Screen,2_3_1_0_1_29,2022-04-28T10:33:14.708Z,,,,,,,,,,,,,,,,,40,,,,,,,,,,,,,,357.4759999985108,,response,,,,9,D,,,,,,Space,keypress(Space),,,,speech,,,,------ -- ------- ---- ---- ---- - -------- ----- --- --<br>----- ----- ------ -- ---- -- --- - ---- -- - ----- -----<br>------ ---- ------ ---- - business ------- -- --- --------<br>-------- ----------- ---- ------ ---- ------ ---- --- ---<br>-------- --- -----,231059.29999999702,231058.8999999985,230684.458,230693.6000000015,230701.424,231067.861,,29,business
screen,html.Screen,2_3_1_0_1_30,2022-04-28T10:33:15.123Z,,,,,,,,,,,,,,,,,40,,,,,,,,,,,,,,406.03899999850546,,response,,,,9,D,,,,,,Space,keypress(Space),,,,speech,,,,------ -- ------- ---- ---- ---- - -------- ----- --- --<br>----- ----- ------ -- ---- -- --- - ---- -- - ----- -----<br>------ ---- ------ ---- - -------- license -- --- --------<br>-------- ----------- ---- ------ ---- ------ ---- --- ---<br>-------- --- -----,231474.29999999702,231473.8999999985,231051.194,231059.5,231067.861,231484.737,,30,license
screen,html.Screen,2_3_1_0_1_31,2022-04-28T10:33:15.543Z,,,,,,,,,,,,,,,,,40,,,,,,,,,,,,,,409.16299999851617,,response,,,,9,D,,,,,,Space,keypress(Space),,,,speech,,,,------ -- ------- ---- ---- ---- - -------- ----- --- --<br>----- ----- ------ -- ---- -- --- - ---- -- - ----- -----<br>------ ---- ------ ---- - -------- ------- or --- --------<br>-------- ----------- ---- ------ ---- ------ ---- --- ---<br>-------- --- -----,231894.3999999985,231893.8999999985,231467.973,231474.5,231484.737,231901.303,,31,or
screen,html.Screen,2_3_1_0_1_32,2022-04-28T10:33:15.953Z,,,,,,,,,,,,,,,,,40,,,,,,,,,,,,,,401.8970000029658,,response,,,,9,D,,,,,,Space,keypress(Space),,,,speech,,,,------ -- ------- ---- ---- ---- - -------- ----- --- --<br>----- ----- ------ -- ---- -- --- - ---- -- - ----- -----<br>------ ---- ------ ---- - -------- ------- -- the --------<br>-------- ----------- ---- ------ ---- ------ ---- --- ---<br>-------- --- -----,232303.70000000298,232303.20000000298,231884.505,231894.5,231901.303,232318.095,,32,the
screen,html.Screen,2_3_1_0_1_33,2022-04-28T10:33:16.452Z,,,,,,,,,,,,,,,,,40,,,,,,,,,,,,,,484.90499999999884,,response,,,,9,D,,,,,,Space,keypress(Space),,,,speech,,,,------ -- ------- ---- ---- ---- - -------- ----- --- --<br>----- ----- ------ -- ---- -- --- - ---- -- - ----- -----<br>------ ---- ------ ---- - -------- ------- -- --- required<br>-------- ----------- ---- ------ ---- ------ ---- --- ---<br>-------- --- -----,232803.6000000015,232803,232301.301,232303.79999999702,232318.095,232817.982,,33,required
screen,html.Screen,2_3_1_0_1_34,2022-04-28T10:33:16.894Z,,,,,,,,,,,,,,,,,40,,,,,,,,,,,,,,427.01800000001094,,response,,,,9,D,,,,,,Space,keypress(Space),,,,speech,,,,------ -- ------- ---- ---- ---- - -------- ----- --- --<br>----- ----- ------ -- ---- -- --- - ---- -- - ----- -----<br>------ ---- ------ ---- - -------- ------- -- --- --------<br>permits. ----------- ---- ------ ---- ------ ---- --- ---<br>-------- --- -----,233245.5,233245,232801.277,232803.6000000015,232817.982,233251.573,,34,permits.
screen,html.Screen,2_3_1_0_1_35,2022-04-28T10:33:17.314Z,,,,,,,,,,,,,,,,,40,,,,,,,,,,,,,,413.2269999970158,,response,,,,9,D,,,,,,Space,keypress(Space),,,,speech,,,,------ -- ------- ---- ---- ---- - -------- ----- --- --<br>----- ----- ------ -- ---- -- --- - ---- -- - ----- -----<br>------ ---- ------ ---- - -------- ------- -- --- --------<br>-------- Morningstar ---- ------ ---- ------ ---- --- ---<br>-------- --- -----,233665.29999999702,233664.79999999702,233234.594,233245.6000000015,233251.573,233668.021,,35,Morningstar
screen,html.Screen,2_3_1_0_1_36,2022-04-28T10:33:17.734Z,,,,,,,,,,,,,,,,,40,,,,,,,,,,,,,,416.87899999850197,,response,,,,9,D,,,,,,Space,keypress(Space),,,,speech,,,,------ -- ------- ---- ---- ---- - -------- ----- --- --<br>----- ----- ------ -- ---- -- --- - ---- -- - ----- -----<br>------ ---- ------ ---- - -------- ------- -- --- --------<br>-------- ----------- says ------ ---- ------ ---- --- ---<br>-------- --- -----,234085.5,234084.8999999985,233651.302,233665.3999999985,233668.021,234101.406,,36,says
screen,html.Screen,2_3_1_0_1_37,2022-04-28T10:33:18.143Z,,,,,,,,,,,,,,,,,40,,,,,,,,,,,,,,392.39399999703164,,response,,,,9,D,,,,,,Space,keypress(Space),,,,speech,,,,------ -- ------- ---- ---- ---- - -------- ----- --- --<br>----- ----- ------ -- ---- -- --- - ---- -- - ----- -----<br>------ ---- ------ ---- - -------- ------- -- --- --------<br>-------- ----------- ---- police ---- ------ ---- --- ---<br>-------- --- -----,234494.29999999702,234493.79999999702,234084.661,234085.6000000015,234101.406,234501.429,,37,police
screen,html.Screen,2_3_1_0_1_38,2022-04-28T10:33:18.511Z,,,,,,,,,,,,,,,,,40,,,,,,,,,,,,,,359.47099999850616,,response,,,,9,D,,,,,,Space,keypress(Space),,,,speech,,,,------ -- ------- ---- ---- ---- - -------- ----- --- --<br>----- ----- ------ -- ---- -- --- - ---- -- - ----- -----<br>------ ---- ------ ---- - -------- ------- -- --- --------<br>-------- ----------- ---- ------ also ------ ---- --- ---<br>-------- --- -----,234861.8999999985,234860.8999999985,234484.775,234494.3999999985,234501.429,234868.13,,38,also
screen,html.Screen,2_3_1_0_1_39,2022-04-28T10:33:18.910Z,,,,,,,,,,,,,,,,,40,,,,,,,,,,,,,,391.86999999999534,,response,,,,9,D,,,,,,Space,keypress(Space),,,,speech,,,,------ -- ------- ---- ---- ---- - -------- ----- --- --<br>----- ----- ------ -- ---- -- --- - ---- -- - ----- -----<br>------ ---- ------ ---- - -------- ------- -- --- --------<br>-------- ----------- ---- ------ ---- didn't ---- --- ---<br>-------- --- -----,235260.70000000298,235260,234851.412,234862,234868.13,235268.175,,39,didn't
screen,html.Screen,2_3_1_0_1_40,2022-04-28T10:33:19.297Z,,,,,,,,,,,,,,,,,40,,,,,,,,,,,,,,379.82500000001164,,response,,,,9,D,,,,,,Space,keypress(Space),,,,speech,,,,------ -- ------- ---- ---- ---- - -------- ----- --- --<br>----- ----- ------ -- ---- -- --- - ---- -- - ----- -----<br>------ ---- ------ ---- - -------- ------- -- --- --------<br>-------- ----------- ---- ------ ---- ------ know --- ---<br>-------- --- -----,235648.5,235648,235251.548,235260.79999999702,235268.175,235651.498,,40,know
screen,html.Screen,2_3_1_0_1_41,2022-04-28T10:33:19.643Z,,,,,,,,,,,,,,,,,40,,,,,,,,,,,,,,342.30199999702745,,response,,,,9,D,,,,,,Space,keypress(Space),,,,speech,,,,------ -- ------- ---- ---- ---- - -------- ----- --- --<br>----- ----- ------ -- ---- -- --- - ---- -- - ----- -----<br>------ ---- ------ ---- - -------- ------- -- --- --------<br>-------- ----------- ---- ------ ---- ------ ---- how ---<br>-------- --- -----,235994.29999999702,235993.79999999702,235634.887,235648.6000000015,235651.498,236001.515,,41,how
screen,html.Screen,2_3_1_0_1_42,2022-04-28T10:33:19.990Z,,,,,,,,,,,,,,,,,40,,,,,,,,,,,,,,338.48499999998603,,response,,,,9,D,,,,,,Space,keypress(Space),,,,speech,,,,------ -- ------- ---- ---- ---- - -------- ----- --- --<br>----- ----- ------ -- ---- -- --- - ---- -- - ----- -----<br>------ ---- ------ ---- - -------- ------- -- --- --------<br>-------- ----------- ---- ------ ---- ------ ---- --- the<br>-------- --- -----,236340.70000000298,236340,235984.798,235994.3999999985,236001.515,236351.585,,42,the
screen,html.Screen,2_3_1_0_1_43,2022-04-28T10:33:20.393Z,,,,,,,,,,,,,,,,,40,,,,,,,,,,,,,,392.31499999851803,,response,,,,9,D,,,,,,Space,keypress(Space),,,,speech,,,,------ -- ------- ---- ---- ---- - -------- ----- --- --<br>----- ----- ------ -- ---- -- --- - ---- -- - ----- -----<br>------ ---- ------ ---- - -------- ------- -- --- --------<br>-------- ----------- ---- ------ ---- ------ ---- --- ---<br>lemonade --- -----,236744.29999999702,236743.8999999985,236334.902,236340.70000000298,236351.585,236751.594,,43,lemonade
screen,html.Screen,2_3_1_0_1_44,2022-04-28T10:33:20.749Z,,,,,,,,,,,,,,,,,40,,,,,,,,,,,,,,348.4059999999881,,response,,,,9,D,,,,,,Space,keypress(Space),,,,speech,,,,------ -- ------- ---- ---- ---- - -------- ----- --- --<br>----- ----- ------ -- ---- -- --- - ---- -- - ----- -----<br>------ ---- ------ ---- - -------- ------- -- --- --------<br>-------- ----------- ---- ------ ---- ------ ---- --- ---<br>-------- was -----,237100.5,237100,236734.899,236744.3999999985,236751.594,237121.621,,44,was
screen,html.Screen,2_3_1_0_1_45,2022-04-28T10:33:21.159Z,,,,,,,,,,,,,,,,,40,,,,,,,,,,,,,,388.17899999700603,,response,,,,9,D,,,,,,Space,keypress(Space),,,,speech,,,,------ -- ------- ---- ---- ---- - -------- ----- --- --<br>----- ----- ------ -- ---- -- --- - ---- -- - ----- -----<br>------ ---- ------ ---- - -------- ------- -- --- --------<br>-------- ----------- ---- ------ ---- ------ ---- --- ---<br>-------- --- made.,237510.29999999702,237509.79999999702,237084.853,237100.6000000015,237121.621,237518.38,,45,made.
Item 9,flow.Loop,2_3_1_0_1,2022-04-28T10:33:21.159Z,,,,,,,,,,,,,,,,,,,,,,,,,,,,,,,18259.31799999703,,completion,,,,,,,,,,,,,,,,,,,,,237510.5,237509.79999999702,219233.903,219234.6000000015,219250.482,237518.38,,,
Question 1,html.Screen,2_3_1_0_2,2022-04-28T10:33:23.748Z,,,,,,,,,,,,,,,,,,,,,,,,,,,,false,FALSE,,2579.6199999999953,,response,,,,9,D,,,,,,TRUE,click #choice-1,,,,speech,,,,,240098.8999999985,240098,237501.733,237510.70000000298,237518.38,240101.817,,,
Question 2,html.Screen,2_3_1_0_3,2022-04-28T10:33:25.607Z,,,,,,,,,,,,,,,,,,,,,,,,,,,,true,FALSE,,1854.8830000029702,,response,,,,9,D,,,,,,FALSE,click #choice-2,,,,speech,,,,,241957.70000000298,241956.70000000298,240085.071,240099,240101.817,241968.822,,,
