sender,sender_type,sender_id,timestamp,meta,,Blues,Classical,Country,Dance,Electronic,Folk,Gospel,Hip-Hop,Jazz,Latin,Musical/Film,New-age,Pop,Prolific_id,Provo_ID,R&B,Rap,Reggae,Religious,Rock,Soul,Swing,Traditional,age,artist_name,correct,correctResponse,distraction,duration,education,ended_on,familiarity,gender,headphone_check_performance,item,list,music_frequency,offensiveness,pleasantness,position_correct,preference,response,response_action,snippet_file,song_name,song_rating,sound,stimulus_1,stimulus_2,stimulus_3,text,time_commit,time_end,time_render,time_run,time_show,time_switch,url,word,word_ID
Prolific ID,html.Form,0,2022-04-28T12:33:24.415Z,"{""labjs_version"":""20.2.2"",""labjs_build"":{""flavor"":""production"",""commit"":""a25486e0c714a0ae2ce03ff94b7bb6896854dcfa""},""location"":""https://run.pavlovia.org/mvasilev/prolific3_music_d/"",""userAgent"":""Mozilla/5.0 (Windows NT 10.0; Win64; x64) AppleWebKit/537.36 (KHTML, like Gecko) Chrome/100.0.4896.127 Safari/537.36"",""platform"":""Win32"",""language"":""en-GB"",""locale"":""en-GB"",""timeZone"":""Europe/London"",""timezoneOffset"":-60,""screen_width"":1280,""screen_height"":720,""scroll_width"":1280,""scroll_height"":553,""window_innerWidth"":1280,""window_innerHeight"":601,""devicePixelRatio"":1.5}",,,,,,,,,,,,,,,60cf53070c7467ba72354616,,,,,,,,,,,,,,,3077.787999994038,,form submission,,,,,,,,,,,,,,,,,,,,,21727.5,21726.59999999404,18511.634,18504.40000000596,18648.812,21748.49,{},,
Introduction,html.Screen,1_0,2022-04-28T12:33:28.181Z,,,,,,,,,,,,,,,,,,,,,,,,,,,,,,,3742.109999994038,,response,,,,,,,,,,,continue,click button,,,,,,,,,25492.80000001192,25490.59999999404,21715.219,21727.90000000596,21748.49,25497.938,,,
Volume calibration,html.Screen,1_1,2022-04-28T12:33:40.630Z,,,,,,,,,,,,,,,,,,,,,,,,,,,,,,,12441.462000005962,,response,,,,,,,,,,,continue,click button,,,,,,,,,37942.40000000596,37939.40000000596,25481.389,25493,25497.938,37946.365,,,
Task instructions,html.Screen,1_2,2022-04-28T12:33:44.068Z,,,,,,,,,,,,,,,,,,,,,,,,,,,,,,,3432.635000000002,,response,,,,,,,,,,,continue,click button,,,,,,,,,41379.90000000596,41379,37929.733,37942.5,37946.365,41395.934,,,
Sounds,html.Screen,1_3_0_0,2022-04-28T12:33:48.321Z,,,,,,,,,,,,,,,,,,,,,,,,,,,,,,,4249.5999999999985,,timeout,,,,,,,,,2,,,,,,,,O,S,I,,45633.5,45628.759,41379.293,41380,41395.934,45645.534,,,
Judgement,html.Screen,1_3_0_1,2022-04-28T12:33:49.127Z,,,,,,,,,,,,,,,,,,,,,,,,,,,,true,2,,792.6660000178817,,response,,,,,,,,,2,,2,click #choice-2,,,,,O,S,I,,46439,46438.20000001788,45628.759,45633.59999999404,45645.534,46445.404,,,
Trial,flow.Sequence,1_3_0,2022-04-28T12:33:49.127Z,,,,,,,,,,,,,,,,,,,,,,,,,,,,,,,5042.26600001788,,completion,,,,,,,,,2,,,,,,,,O,S,I,,46439.20000001788,46438.20000001788,41379.293,41380,41395.934,46445.404,,,
Sounds,html.Screen,1_3_1_0,2022-04-28T12:33:53.366Z,,,,,,,,,,,,,,,,,,,,,,,,,,,,,,,4249.343000000001,,timeout,,,,,,,,,2,,,,,,,,I,S,O,,50678.80000001192,50678.212,46428.586,46439.20000001788,46445.404,50694.747,,,
Judgement,html.Screen,1_3_1_1,2022-04-28T12:33:54.071Z,,,,,,,,,,,,,,,,,,,,,,,,,,,,true,2,,687.4530000178784,,response,,,,,,,,,2,,2,click #choice-2,,,,,I,S,O,,51383.59999999404,51382.20000001788,50678.212,50678.90000000596,50694.747,51394.735,,,
Trial,flow.Sequence,1_3_1,2022-04-28T12:33:54.072Z,,,,,,,,,,,,,,,,,,,,,,,,,,,,,,,4936.796000017879,,completion,,,,,,,,,2,,,,,,,,I,S,O,,51384.30000001192,51382.20000001788,46428.586,46439.20000001788,46445.404,51394.735,,,
Sounds,html.Screen,1_3_2_0,2022-04-28T12:33:58.316Z,,,,,,,,,,,,,,,,,,,,,,,,,,,,,,,4249.745000000003,,timeout,,,,,,,,,1,,,,,,,,S,I,O,,55628,55627.455,51378.13,51384.30000001192,51394.735,55644.48,,,
Judgement,html.Screen,1_3_2_1,2022-04-28T12:33:59.080Z,,,,,,,,,,,,,,,,,,,,,,,,,,,,true,1,,746.4200000059573,,response,,,,,,,,,1,,1,click #choice-1,,,,,S,I,O,,56392.09999999404,56390.90000000596,55627.455,55628.20000001788,55644.48,56394.072,,,
Trial,flow.Sequence,1_3_2,2022-04-28T12:33:59.080Z,,,,,,,,,,,,,,,,,,,,,,,,,,,,,,,4996.16500000596,,completion,,,,,,,,,1,,,,,,,,S,I,O,,56392.40000000596,56390.90000000596,51378.13,51384.30000001192,51394.735,56394.072,,,
Sounds,html.Screen,1_3_3_0,2022-04-28T12:34:03.316Z,,,,,,,,,,,,,,,,,,,,,,,,,,,,,,,4249.404000000002,,timeout,,,,,,,,,3,,,,,,,,O,I,S,,60627.59999999404,60626.917,56377.176,56392.5,56394.072,60643.476,,,
Judgement,html.Screen,1_3_3_1,2022-04-28T12:34:04.031Z,,,,,,,,,,,,,,,,,,,,,,,,,,,,true,3,,698.5239999999976,,response,,,,,,,,,3,,3,click #choice-3,,,,,O,I,S,,61343,61342,60626.917,60627.70000001788,60643.476,61372.608,,,
Trial,flow.Sequence,1_3_3,2022-04-28T12:34:04.031Z,,,,,,,,,,,,,,,,,,,,,,,,,,,,,,,4947.928,,completion,,,,,,,,,3,,,,,,,,O,I,S,,61343.09999999404,61342,56377.176,56392.5,56394.072,61372.608,,,
Sounds,html.Screen,1_3_4_0,2022-04-28T12:34:08.299Z,,,,,,,,,,,,,,,,,,,,,,,,,,,,,,,4253.568000000007,,timeout,,,,,,,,,1,,,,,,,,S,O,I,,65610.20000001788,65609.521,61326.757,61343.09999999404,61372.608,65626.176,,,
Judgement,html.Screen,1_3_4_1,2022-04-28T12:34:09.004Z,,,,,,,,,,,,,,,,,,,,,,,,,,,,true,1,,688.8239999999932,,response,,,,,,,,,1,,1,click #choice-1,,,,,S,O,I,,66315.80000001192,66315,65609.521,65610.30000001192,65626.176,66326.158,,,
Trial,flow.Sequence,1_3_4,2022-04-28T12:34:09.004Z,,,,,,,,,,,,,,,,,,,,,,,,,,,,,,,4942.392,,completion,,,,,,,,,1,,,,,,,,S,O,I,,66315.90000000596,66315,61326.757,61343.09999999404,61372.608,66326.158,,,
Sounds,html.Screen,1_3_5_0,2022-04-28T12:34:13.248Z,,,,,,,,,,,,,,,,,,,,,,,,,,,,,,,4249.406000000003,,timeout,,,,,,,,,3,,,,,,,,I,O,S,,70559.40000000596,70558.877,66309.322,66316.09999999404,66326.158,70575.564,,,
Judgement,html.Screen,1_3_5_1,2022-04-28T12:34:13.889Z,,,,,,,,,,,,,,,,,,,,,,,,,,,,true,3,,624.1360000178829,,response,,,,,,,,,3,,3,click #choice-3,,,,,I,O,S,,71200.80000001192,71199.70000001788,70558.877,70559.5,70575.564,71208.81,,,
Trial,flow.Sequence,1_3_5,2022-04-28T12:34:13.889Z,,,,,,,,,,,,,,,,,,,,,,,,,,,,,,,4873.542000017886,,completion,,,,,,,,,3,,,,,,,,I,O,S,,71201.09999999404,71199.70000001788,66309.322,66316,66326.158,71208.81,,,
Task,flow.Loop,1_3,2022-04-28T12:34:13.893Z,,,,,,,,,,,,,,,,,,,,,,,,,,,,,,,29803.76600001788,,completion,,,1,,,,,,,,,,,,,,,,,,71205,71199.70000001788,41379.293,41380,41395.934,71208.81,,,
Trap,html.Screen,1_4,2022-04-28T12:34:13.896Z,,,,,,,,,,,,,,,,,,,,,,,,,,,,,,,NaN,,skipped,,,,,,,,,,,,,,,,,,,,,71208.20000001788,71199.70000001788,,71208.09999999404,,71208.81,,,
Thanks,html.Screen,1_5,2022-04-28T12:34:16.920Z,,,,,,,,,,,,,,,,,,,,,,,,,,,,,,,3021.4900000119233,,response,,,,,,,,,,,continue,click button,,,,,,,,,74231.30000001192,74230.30000001192,71192.113,71208.20000001788,71208.81,76941.474,,,
Headphone screening,flow.Sequence,1,2022-04-28T12:34:16.920Z,,,,,,,,,,,,,,,,,,,,,,,,,,,,,,,52481.810000011916,,completion,,,,,,,,,,,,,,,,,,,,,74231.40000000596,74230.30000001192,21715.219,21727.90000000596,21748.49,76941.474,,,
Instructions,html.Page,2_0,2022-04-28T12:34:36.857Z,,,,,,,,,,,,,,,,,,,,,,,,,,,,,,,17226.72600001788,,form submission,,,,,,,,,,,,,,,,,,,,,94168.40000000596,94168.20000001788,76891.443,76924.30000001192,76941.474,94172.619,,,
Holding screen,html.Screen,2_1_0_0,2022-04-28T12:34:46.844Z,,,,,,,,,,,,,,,,,,,,,,,,,,,,,,,9998.740999999995,,timeout,,,,,,,,,,,,,,,,,,,,,104155.20000001788,104154.743,94155.948,94168.5,94172.619,104171.36,,,
screen,html.Screen,2_1_0_1_0,2022-04-28T12:34:47.668Z,,,,,,,,,,,,,,,,,53,,,,,,,,,,,,,,805.8400000178808,,response,,,,99,,,,,,,Space,keypress(Space),,,,,,,,When -- ----- -- ------ - ------- --- ----------<br>------------- ------ ------ ---- ---- ------- ----- -- ----<br>-------- ------- -- ---------- --- - --- ----- ----- ----<br>---- --- --- ----- --- ---- ---- ------- ----- ---- -------<br>--- --- -- ----- -- --- ---- -- --- ---- -- ------ ------<br>--- ----- -- ----,104980.09999999404,104977.20000001788,104154.743,104155.40000000596,104171.36,104987.884,,0,When
screen,html.Screen,2_1_0_1_1,2022-04-28T12:34:48.050Z,,,,,,,,,,,,,,,,,53,,,,,,,,,,,,,,372.71599999403406,,response,,,,99,,,,,,,Space,keypress(Space),,,,,,,,---- it ----- -- ------ - ------- --- ----------<br>------------- ------ ------ ---- ---- ------- ----- -- ----<br>-------- ------- -- ---------- --- - --- ----- ----- ----<br>---- --- --- ----- --- ---- ---- ------- ----- ---- -------<br>--- --- -- ----- -- --- ---- -- --- ---- -- ------ ------<br>--- ----- -- ----,105361.20000001788,105360.59999999404,104970.863,104980.20000001788,104987.884,105371.149,,1,it
screen,html.Screen,2_1_0_1_2,2022-04-28T12:34:48.421Z,,,,,,,,,,,,,,,,,53,,,,,,,,,,,,,,360.5510000178765,,response,,,,99,,,,,,,Space,keypress(Space),,,,,,,,---- -- comes -- ------ - ------- --- ----------<br>------------- ------ ------ ---- ---- ------- ----- -- ----<br>-------- ------- -- ---------- --- - --- ----- ----- ----<br>---- --- --- ----- --- ---- ---- ------- ----- ---- -------<br>--- --- -- ----- -- --- ---- -- --- ---- -- ------ ------<br>--- ----- -- ----,105732.20000001788,105731.70000001788,105354.321,105361.30000001192,105371.149,105738.083,,2,comes
screen,html.Screen,2_1_0_1_3,2022-04-28T12:34:48.779Z,,,,,,,,,,,,,,,,,53,,,,,,,,,,,,,,352.1170000178827,,response,,,,99,,,,,,,Space,keypress(Space),,,,,,,,---- -- ----- to ------ - ------- --- ----------<br>------------- ------ ------ ---- ---- ------- ----- -- ----<br>-------- ------- -- ---------- --- - --- ----- ----- ----<br>---- --- --- ----- --- ---- ---- ------- ----- ---- -------<br>--- --- -- ----- -- --- ---- -- --- ---- -- ------ ------<br>--- ----- -- ----,106090.59999999404,106090.20000001788,105721.007,105732.40000000596,105738.083,106104.399,,3,to
screen,html.Screen,2_1_0_1_4,2022-04-28T12:34:49.182Z,,,,,,,,,,,,,,,,,53,,,,,,,,,,,,,,388.90100001191604,,response,,,,99,,,,,,,Space,keypress(Space),,,,,,,,---- -- ----- -- having - ------- --- ----------<br>------------- ------ ------ ---- ---- ------- ----- -- ----<br>-------- ------- -- ---------- --- - --- ----- ----- ----<br>---- --- --- ----- --- ---- ---- ------- ----- ---- -------<br>--- --- -- ----- -- --- ---- -- --- ---- -- ------ ------<br>--- ----- -- ----,106493.80000001192,106493.30000001192,106087.611,106090.59999999404,106104.399,106504.415,,4,having
screen,html.Screen,2_1_0_1_5,2022-04-28T12:34:49.520Z,,,,,,,,,,,,,,,,,53,,,,,,,,,,,,,,326.7850000178878,,response,,,,99,,,,,,,Space,keypress(Space),,,,,,,,---- -- ----- -- ------ a ------- --- ----------<br>------------- ------ ------ ---- ---- ------- ----- -- ----<br>-------- ------- -- ---------- --- - --- ----- ----- ----<br>---- --- --- ----- --- ---- ---- ------- ----- ---- -------<br>--- --- -- ----- -- --- ---- -- --- ---- -- ------ ------<br>--- ----- -- ----,106831.59999999404,106831.20000001788,106487.517,106494,106504.415,106837.736,,5,a
screen,html.Screen,2_1_0_1_6,2022-04-28T12:34:49.864Z,,,,,,,,,,,,,,,,,53,,,,,,,,,,,,,,336.96400001787697,,response,,,,99,,,,,,,Space,keypress(Space),,,,,,,,---- -- ----- -- ------ - lasting --- ----------<br>------------- ------ ------ ---- ---- ------- ----- -- ----<br>-------- ------- -- ---------- --- - --- ----- ----- ----<br>---- --- --- ----- --- ---- ---- ------- ----- ---- -------<br>--- --- -- ----- -- --- ---- -- --- ---- -- ------ ------<br>--- ----- -- ----,107175.20000001788,107174.70000001788,106820.856,106831.59999999404,106837.736,107187.59,,6,lasting
screen,html.Screen,2_1_0_1_7,2022-04-28T12:34:50.228Z,,,,,,,,,,,,,,,,,53,,,,,,,,,,,,,,351.2100000119244,,response,,,,99,,,,,,,Space,keypress(Space),,,,,,,,---- -- ----- -- ------ - ------- and ----------<br>------------- ------ ------ ---- ---- ------- ----- -- ----<br>-------- ------- -- ---------- --- - --- ----- ----- ----<br>---- --- --- ----- --- ---- ---- ------- ----- ---- -------<br>--- --- -- ----- -- --- ---- -- --- ---- -- ------ ------<br>--- ----- -- ----,107539.20000001788,107538.80000001192,107170.86,107175.30000001192,107187.59,107554.341,,7,and
screen,html.Screen,2_1_0_1_8,2022-04-28T12:34:50.555Z,,,,,,,,,,,,,,,,,53,,,,,,,,,,,,,,311.85900001788104,,response,,,,99,,,,,,,Space,keypress(Space),,,,,,,,---- -- ----- -- ------ - ------- --- fulfilling<br>------------- ------ ------ ---- ---- ------- ----- -- ----<br>-------- ------- -- ---------- --- - --- ----- ----- ----<br>---- --- --- ----- --- ---- ---- ------- ----- ---- -------<br>--- --- -- ----- -- --- ---- -- --- ---- -- ------ ------<br>--- ----- -- ----,107866.80000001192,107866.20000001788,107537.455,107539.30000001192,107554.341,107870.875,,8,fulfilling
screen,html.Screen,2_1_0_1_9,2022-04-28T12:34:50.913Z,,,,,,,,,,,,,,,,,53,,,,,,,,,,,,,,353.02500000596046,,response,,,,99,,,,,,,Space,keypress(Space),,,,,,,,"---- -- ----- -- ------ - ------- --- ----------<br>relationship, ------ ------ ---- ---- ------- ----- -- ----<br>-------- ------- -- ---------- --- - --- ----- ----- ----<br>---- --- --- ----- --- ---- ---- ------- ----- ---- -------<br>--- --- -- ----- -- --- ---- -- --- ---- -- ------ ------<br>--- ----- -- ----",108224.20000001788,108223.90000000596,107854.044,107866.90000000596,107870.875,108237.567,,9,"relationship,"
screen,html.Screen,2_1_0_1_10,2022-04-28T12:34:51.294Z,,,,,,,,,,,,,,,,,53,,,,,,,,,,,,,,367.833000005965,,response,,,,99,,,,,,,Space,keypress(Space),,,,,,,,---- -- ----- -- ------ - ------- --- ----------<br>------------- common ------ ---- ---- ------- ----- -- ----<br>-------- ------- -- ---------- --- - --- ----- ----- ----<br>---- --- --- ----- --- ---- ---- ------- ----- ---- -------<br>--- --- -- ----- -- --- ---- -- --- ---- -- ------ ------<br>--- ----- -- ----,108605.80000001192,108605.40000000596,108220.653,108224.30000001192,108237.567,108620.814,,10,common
screen,html.Screen,2_1_0_1_11,2022-04-28T12:34:51.658Z,,,,,,,,,,,,,,,,,53,,,,,,,,,,,,,,348.3860000178829,,response,,,,99,,,,,,,Space,keypress(Space),,,,,,,,---- -- ----- -- ------ - ------- --- ----------<br>------------- ------ wisdom ---- ---- ------- ----- -- ----<br>-------- ------- -- ---------- --- - --- ----- ----- ----<br>---- --- --- ----- --- ---- ---- ------- ----- ---- -------<br>--- --- -- ----- -- --- ---- -- --- ---- -- ------ ------<br>--- ----- -- ----,108969.80000001192,108969.20000001788,108603.963,108605.90000000596,108620.814,108993.986,,11,wisdom
screen,html.Screen,2_1_0_1_12,2022-04-28T12:34:52.003Z,,,,,,,,,,,,,,,,,53,,,,,,,,,,,,,,319.8140000119165,,response,,,,99,,,,,,,Space,keypress(Space),,,,,,,,---- -- ----- -- ------ - ------- --- ----------<br>------------- ------ ------ says ---- ------- ----- -- ----<br>-------- ------- -- ---------- --- - --- ----- ----- ----<br>---- --- --- ----- --- ---- ---- ------- ----- ---- -------<br>--- --- -- ----- -- --- ---- -- --- ---- -- ------ ------<br>--- ----- -- ----,109314.20000001788,109313.80000001192,108953.929,108969.90000000596,108993.986,109320.618,,12,says
screen,html.Screen,2_1_0_1_13,2022-04-28T12:34:52.340Z,,,,,,,,,,,,,,,,,53,,,,,,,,,,,,,,330.5820000178792,,response,,,,99,,,,,,,Space,keypress(Space),,,,,,,,---- -- ----- -- ------ - ------- --- ----------<br>------------- ------ ------ ---- that ------- ----- -- ----<br>-------- ------- -- ---------- --- - --- ----- ----- ----<br>---- --- --- ----- --- ---- ---- ------- ----- ---- -------<br>--- --- -- ----- -- --- ---- -- --- ---- -- ------ ------<br>--- ----- -- ----,109651.70000001788,109651.20000001788,109303.909,109314.30000001192,109320.618,109653.919,,13,that
screen,html.Screen,2_1_0_1_14,2022-04-28T12:34:52.665Z,,,,,,,,,,,,,,,,,53,,,,,,,,,,,,,,321.8810000119265,,response,,,,99,,,,,,,Space,keypress(Space),,,,,,,,---- -- ----- -- ------ - ------- --- ----------<br>------------- ------ ------ ---- ---- feeling ----- -- ----<br>-------- ------- -- ---------- --- - --- ----- ----- ----<br>---- --- --- ----- --- ---- ---- ------- ----- ---- -------<br>--- --- -- ----- -- --- ---- -- --- ---- -- ------ ------<br>--- ----- -- ----,109976.40000000596,109975.80000001192,109637.145,109651.90000000596,109653.919,109987.259,,14,feeling
screen,html.Screen,2_1_0_1_15,2022-04-28T12:34:53.015Z,,,,,,,,,,,,,,,,,53,,,,,,,,,,,,,,339.04100001191546,,response,,,,99,,,,,,,Space,keypress(Space),,,,,,,,---- -- ----- -- ------ - ------- --- ----------<br>------------- ------ ------ ---- ---- ------- close -- ----<br>-------- ------- -- ---------- --- - --- ----- ----- ----<br>---- --- --- ----- --- ---- ---- ------- ----- ---- -------<br>--- --- -- ----- -- --- ---- -- --- ---- -- ------ ------<br>--- ----- -- ----,110326.80000001192,110326.30000001192,109970.477,109976.5,109987.259,110337.289,,15,close
screen,html.Screen,2_1_0_1_16,2022-04-28T12:34:53.367Z,,,,,,,,,,,,,,,,,53,,,,,,,,,,,,,,341.2109999999957,,response,,,,99,,,,,,,Space,keypress(Space),,,,,,,,---- -- ----- -- ------ - ------- --- ----------<br>------------- ------ ------ ---- ---- ------- ----- to ----<br>-------- ------- -- ---------- --- - --- ----- ----- ----<br>---- --- --- ----- --- ---- ---- ------- ----- ---- -------<br>--- --- -- ----- -- --- ---- -- --- ---- -- ------ ------<br>--- ----- -- ----,110678.90000000596,110678.5,110320.389,110326.80000001192,110337.289,110687.154,,16,to
screen,html.Screen,2_1_0_1_17,2022-04-28T12:34:53.708Z,,,,,,,,,,,,,,,,,53,,,,,,,,,,,,,,332.14600001192593,,response,,,,99,,,,,,,Space,keypress(Space),,,,,,,,---- -- ----- -- ------ - ------- --- ----------<br>------------- ------ ------ ---- ---- ------- ----- -- your<br>-------- ------- -- ---------- --- - --- ----- ----- ----<br>---- --- --- ----- --- ---- ---- ------- ----- ---- -------<br>--- --- -- ----- -- --- ---- -- --- ---- -- ------ ------<br>--- ----- -- ----,111019.80000001192,111019.30000001192,110670.341,110678.90000000596,110687.154,111049.437,,17,your
screen,html.Screen,2_1_0_1_18,2022-04-28T12:34:54.089Z,,,,,,,,,,,,,,,,,53,,,,,,,,,,,,,,350.56299999999464,,response,,,,99,,,,,,,Space,keypress(Space),,,,,,,,---- -- ----- -- ------ - ------- --- ----------<br>------------- ------ ------ ---- ---- ------- ----- -- ----<br>romantic ------- -- ---------- --- - --- ----- ----- ----<br>---- --- --- ----- --- ---- ---- ------- ----- ---- -------<br>--- --- -- ----- -- --- ---- -- --- ---- -- ------ ------<br>--- ----- -- ----,111400.40000000596,111400,111003.672,111019.90000000596,111049.437,111403.76,,18,romantic
screen,html.Screen,2_1_0_1_19,2022-04-28T12:34:54.448Z,,,,,,,,,,,,,,,,,53,,,,,,,,,,,,,,355.6400000059657,,response,,,,99,,,,,,,Space,keypress(Space),,,,,,,,---- -- ----- -- ------ - ------- --- ----------<br>------------- ------ ------ ---- ---- ------- ----- -- ----<br>-------- partner -- ---------- --- - --- ----- ----- ----<br>---- --- --- ----- --- ---- ---- ------- ----- ---- -------<br>--- --- -- ----- -- --- ---- -- --- ---- -- ------ ------<br>--- ----- -- ----,111760,111759.40000000596,111386.987,111400.5,111403.76,111770.317,,19,partner
screen,html.Screen,2_1_0_1_20,2022-04-28T12:34:54.844Z,,,,,,,,,,,,,,,,,53,,,,,,,,,,,,,,384.98300001192547,,response,,,,99,,,,,,,Space,keypress(Space),,,,,,,,---- -- ----- -- ------ - ------- --- ----------<br>------------- ------ ------ ---- ---- ------- ----- -- ----<br>-------- ------- is ---------- --- - --- ----- ----- ----<br>---- --- --- ----- --- ---- ---- ------- ----- ---- -------<br>--- --- -- ----- -- --- ---- -- --- ---- -- ------ ------<br>--- ----- -- ----,112155.70000001788,112155.30000001192,111753.588,111760,111770.317,112170.374,,20,is
screen,html.Screen,2_1_0_1_21,2022-04-28T12:34:55.185Z,,,,,,,,,,,,,,,,,53,,,,,,,,,,,,,,326.32600001788524,,response,,,,99,,,,,,,Space,keypress(Space),,,,,,,,---- -- ----- -- ------ - ------- --- ----------<br>------------- ------ ------ ---- ---- ------- ----- -- ----<br>-------- ------- -- paramount. --- - --- ----- ----- ----<br>---- --- --- ----- --- ---- ---- ------- ----- ---- -------<br>--- --- -- ----- -- --- ---- -- --- ---- -- ------ ------<br>--- ----- -- ----,112497.09999999404,112496.70000001788,112153.488,112155.70000001788,112170.374,112503.754,,21,paramount.
screen,html.Screen,2_1_0_1_22,2022-04-28T12:34:55.549Z,,,,,,,,,,,,,,,,,53,,,,,,,,,,,,,,356.8459999940387,,response,,,,99,,,,,,,Space,keypress(Space),,,,,,,,---- -- ----- -- ------ - ------- --- ----------<br>------------- ------ ------ ---- ---- ------- ----- -- ----<br>-------- ------- -- ---------- But - --- ----- ----- ----<br>---- --- --- ----- --- ---- ---- ------- ----- ---- -------<br>--- --- -- ----- -- --- ---- -- --- ---- -- ------ ------<br>--- ----- -- ----,112861.09999999404,112860.59999999404,112486.792,112497.20000001788,112503.754,112870.241,,22,But
screen,html.Screen,2_1_0_1_23,2022-04-28T12:34:55.874Z,,,,,,,,,,,,,,,,,53,,,,,,,,,,,,,,315.0590000119264,,response,,,,99,,,,,,,Space,keypress(Space),,,,,,,,---- -- ----- -- ------ - ------- --- ----------<br>------------- ------ ------ ---- ---- ------- ----- -- ----<br>-------- ------- -- ---------- --- a --- ----- ----- ----<br>---- --- --- ----- --- ---- ---- ------- ----- ---- -------<br>--- --- -- ----- -- --- ---- -- --- ---- -- ------ ------<br>--- ----- -- ----,113185.70000001788,113185.30000001192,112853.444,112861.20000001788,112870.241,113204.35,,23,a
screen,html.Screen,2_1_0_1_24,2022-04-28T12:34:56.228Z,,,,,,,,,,,,,,,,,53,,,,,,,,,,,,,,335.2499999940337,,response,,,,99,,,,,,,Space,keypress(Space),,,,,,,,---- -- ----- -- ------ - ------- --- ----------<br>------------- ------ ------ ---- ---- ------- ----- -- ----<br>-------- ------- -- ---------- --- - new ----- ----- ----<br>---- --- --- ----- --- ---- ---- ------- ----- ---- -------<br>--- --- -- ----- -- --- ---- -- --- ---- -- ------ ------<br>--- ----- -- ----,113540,113539.59999999404,113170.079,113185.80000001192,113204.35,113553.451,,24,new
screen,html.Screen,2_1_0_1_25,2022-04-28T12:34:56.579Z,,,,,,,,,,,,,,,,,53,,,,,,,,,,,,,,336.94900000595953,,response,,,,99,,,,,,,Space,keypress(Space),,,,,,,,---- -- ----- -- ------ - ------- --- ----------<br>------------- ------ ------ ---- ---- ------- ----- -- ----<br>-------- ------- -- ---------- --- - --- study ----- ----<br>---- --- --- ----- --- ---- ---- ------- ----- ---- -------<br>--- --- -- ----- -- --- ---- -- --- ---- -- ------ ------<br>--- ----- -- ----,113890.90000000596,113890.40000000596,113536.645,113540.09999999404,113553.451,113903.422,,25,study
screen,html.Screen,2_1_0_1_26,2022-04-28T12:34:56.942Z,,,,,,,,,,,,,,,,,53,,,,,,,,,,,,,,350.1779999940336,,response,,,,99,,,,,,,Space,keypress(Space),,,,,,,,---- -- ----- -- ------ - ------- --- ----------<br>------------- ------ ------ ---- ---- ------- ----- -- ----<br>-------- ------- -- ---------- --- - --- ----- finds ----<br>---- --- --- ----- --- ---- ---- ------- ----- ---- -------<br>--- --- -- ----- -- --- ---- -- --- ---- -- ------ ------<br>--- ----- -- ----,114254.20000001788,114253.59999999404,113886.681,113890.90000000596,113903.422,114270.079,,26,finds
screen,html.Screen,2_1_0_1_27,2022-04-28T12:34:57.311Z,,,,,,,,,,,,,,,,,53,,,,,,,,,,,,,,351.9210000000021,,response,,,,99,,,,,,,Space,keypress(Space),,,,,,,,---- -- ----- -- ------ - ------- --- ----------<br>------------- ------ ------ ---- ---- ------- ----- -- ----<br>-------- ------- -- ---------- --- - --- ----- ----- that<br>---- --- --- ----- --- ---- ---- ------- ----- ---- -------<br>--- --- -- ----- -- --- ---- -- --- ---- -- ------ ------<br>--- ----- -- ----,114622.70000001788,114622,114253.266,114254.90000000596,114270.079,114636.66,,27,that
screen,html.Screen,2_1_0_1_28,2022-04-28T12:34:57.687Z,,,,,,,,,,,,,,,,,53,,,,,,,,,,,,,,361.240000005957,,response,,,,99,,,,,,,Space,keypress(Space),,,,,,,,---- -- ----- -- ------ - ------- --- ----------<br>------------- ------ ------ ---- ---- ------- ----- -- ----<br>-------- ------- -- ---------- --- - --- ----- ----- ----<br>it's --- --- ----- --- ---- ---- ------- ----- ---- -------<br>--- --- -- ----- -- --- ---- -- --- ---- -- ------ ------<br>--- ----- -- ----,114998.20000001788,114997.90000000596,114619.879,114622.70000001788,114636.66,115003.611,,28,it's
screen,html.Screen,2_1_0_1_29,2022-04-28T12:34:58.053Z,,,,,,,,,,,,,,,,,53,,,,,,,,,,,,,,360.1890000119165,,response,,,,99,,,,,,,Space,keypress(Space),,,,,,,,---- -- ----- -- ------ - ------- --- ----------<br>------------- ------ ------ ---- ---- ------- ----- -- ----<br>-------- ------- -- ---------- --- - --- ----- ----- ----<br>---- not --- ----- --- ---- ---- ------- ----- ---- -------<br>--- --- -- ----- -- --- ---- -- --- ---- -- ------ ------<br>--- ----- -- ----,115364.30000001192,115363.80000001192,114986.485,114998.40000000596,115003.611,115370.267,,29,not
screen,html.Screen,2_1_0_1_30,2022-04-28T12:34:58.521Z,,,,,,,,,,,,,,,,,53,,,,,,,,,,,,,,461.7329999999929,,response,,,,99,,,,,,,Space,keypress(Space),,,,,,,,---- -- ----- -- ------ - ------- --- ----------<br>------------- ------ ------ ---- ---- ------- ----- -- ----<br>-------- ------- -- ---------- --- - --- ----- ----- ----<br>---- --- how ----- --- ---- ---- ------- ----- ---- -------<br>--- --- -- ----- -- --- ---- -- --- ---- -- ------ ------<br>--- ----- -- ----,115832.40000000596,115832,115353.116,115364.40000000596,115370.267,115836.713,,30,how
screen,html.Screen,2_1_0_1_31,2022-04-28T12:34:58.846Z,,,,,,,,,,,,,,,,,53,,,,,,,,,,,,,,320.487000017878,,response,,,,99,,,,,,,Space,keypress(Space),,,,,,,,---- -- ----- -- ------ - ------- --- ----------<br>------------- ------ ------ ---- ---- ------- ----- -- ----<br>-------- ------- -- ---------- --- - --- ----- ----- ----<br>---- --- --- close --- ---- ---- ------- ----- ---- -------<br>--- --- -- ----- -- --- ---- -- --- ---- -- ------ ------<br>--- ----- -- ----,116157.70000001788,116157.20000001788,115819.687,115832.5,115836.713,116169.854,,31,close
screen,html.Screen,2_1_0_1_32,2022-04-28T12:34:59.152Z,,,,,,,,,,,,,,,,,53,,,,,,,,,,,,,,293.04600000595383,,response,,,,99,,,,,,,Space,keypress(Space),,,,,,,,---- -- ----- -- ------ - ------- --- ----------<br>------------- ------ ------ ---- ---- ------- ----- -- ----<br>-------- ------- -- ---------- --- - --- ----- ----- ----<br>---- --- --- ----- you ---- ---- ------- ----- ---- -------<br>--- --- -- ----- -- --- ---- -- --- ---- -- ------ ------<br>--- ----- -- ----,116463.30000001192,116462.90000000596,116153.02,116157.70000001788,116169.854,116469.721,,32,you
screen,html.Screen,2_1_0_1_33,2022-04-28T12:34:59.463Z,,,,,,,,,,,,,,,,,53,,,,,,,,,,,,,,304.9790000178764,,response,,,,99,,,,,,,Space,keypress(Space),,,,,,,,---- -- ----- -- ------ - ------- --- ----------<br>------------- ------ ------ ---- ---- ------- ----- -- ----<br>-------- ------- -- ---------- --- - --- ----- ----- ----<br>---- --- --- ----- --- feel ---- ------- ----- ---- -------<br>--- --- -- ----- -- --- ---- -- --- ---- -- ------ ------<br>--- ----- -- ----,116775.09999999404,116774.70000001788,116453.036,116463.40000000596,116469.721,116786.372,,33,feel
screen,html.Screen,2_1_0_1_34,2022-04-28T12:34:59.773Z,,,,,,,,,,,,,,,,,53,,,,,,,,,,,,,,298.127999999997,,response,,,,99,,,,,,,Space,keypress(Space),,,,,,,,---- -- ----- -- ------ - ------- --- ----------<br>------------- ------ ------ ---- ---- ------- ----- -- ----<br>-------- ------- -- ---------- --- - --- ----- ----- ----<br>---- --- --- ----- --- ---- that ------- ----- ---- -------<br>--- --- -- ----- -- --- ---- -- --- ---- -- ------ ------<br>--- ----- -- ----,117085,117084.5,116769.623,116775.20000001788,116786.372,117111.279,,34,that
screen,html.Screen,2_1_0_1_35,2022-04-28T12:35:00.093Z,,,,,,,,,,,,,,,,,53,,,,,,,,,,,,,,293.32099999404454,,response,,,,99,,,,,,,Space,keypress(Space),,,,,,,,---- -- ----- -- ------ - ------- --- ----------<br>------------- ------ ------ ---- ---- ------- ----- -- ----<br>-------- ------- -- ---------- --- - --- ----- ----- ----<br>---- --- --- ----- --- ---- ---- matters ----- ---- -------<br>--- --- -- ----- -- --- ---- -- --- ---- -- ------ ------<br>--- ----- -- ----,117405.09999999404,117404.59999999404,117069.582,117085,117111.279,117419.716,,35,matters
screen,html.Screen,2_1_0_1_36,2022-04-28T12:35:00.405Z,,,,,,,,,,,,,,,,,53,,,,,,,,,,,,,,296.48400001788104,,response,,,,99,,,,,,,Space,keypress(Space),,,,,,,,"---- -- ----- -- ------ - ------- --- ----------<br>------------- ------ ------ ---- ---- ------- ----- -- ----<br>-------- ------- -- ---------- --- - --- ----- ----- ----<br>---- --- --- ----- --- ---- ---- ------- most, ---- -------<br>--- --- -- ----- -- --- ---- -- --- ---- -- ------ ------<br>--- ----- -- ----",117716.59999999404,117716.20000001788,117402.835,117405.20000001788,117419.716,117719.551,,36,"most,"
screen,html.Screen,2_1_0_1_37,2022-04-28T12:35:00.791Z,,,,,,,,,,,,,,,,,53,,,,,,,,,,,,,,382.5489999940328,,response,,,,99,,,,,,,Space,keypress(Space),,,,,,,,---- -- ----- -- ------ - ------- --- ----------<br>------------- ------ ------ ---- ---- ------- ----- -- ----<br>-------- ------- -- ---------- --- - --- ----- ----- ----<br>---- --- --- ----- --- ---- ---- ------- ----- it's -------<br>--- --- -- ----- -- --- ---- -- --- ---- -- ------ ------<br>--- ----- -- ----,118102.59999999404,118102.09999999404,117702.765,117716.70000001788,117719.551,118119.597,,37,it's
screen,html.Screen,2_1_0_1_38,2022-04-28T12:35:01.156Z,,,,,,,,,,,,,,,,,53,,,,,,,,,,,,,,348.00299999404524,,response,,,,99,,,,,,,Space,keypress(Space),,,,,,,,---- -- ----- -- ------ - ------- --- ----------<br>------------- ------ ------ ---- ---- ------- ----- -- ----<br>-------- ------- -- ---------- --- - --- ----- ----- ----<br>---- --- --- ----- --- ---- ---- ------- ----- ---- whether<br>--- --- -- ----- -- --- ---- -- --- ---- -- ------ ------<br>--- ----- -- ----,118468,118467.59999999404,118102.74,118102.59999999404,118119.597,118469.489,,38,whether
screen,html.Screen,2_1_0_1_39,2022-04-28T12:35:01.511Z,,,,,,,,,,,,,,,,,53,,,,,,,,,,,,,,352.61099999403814,,response,,,,99,,,,,,,Space,keypress(Space),,,,,,,,---- -- ----- -- ------ - ------- --- ----------<br>------------- ------ ------ ---- ---- ------- ----- -- ----<br>-------- ------- -- ---------- --- - --- ----- ----- ----<br>---- --- --- ----- --- ---- ---- ------- ----- ---- -------<br>you --- -- ----- -- --- ---- -- --- ---- -- ------ ------<br>--- ----- -- ----,118822.59999999404,118822.09999999404,118452.761,118468,118469.489,118836.136,,39,you
screen,html.Screen,2_1_0_1_40,2022-04-28T12:35:01.857Z,,,,,,,,,,,,,,,,,53,,,,,,,,,,,,,,331.6640000119223,,response,,,,99,,,,,,,Space,keypress(Space),,,,,,,,---- -- ----- -- ------ - ------- --- ----------<br>------------- ------ ------ ---- ---- ------- ----- -- ----<br>-------- ------- -- ---------- --- - --- ----- ----- ----<br>---- --- --- ----- --- ---- ---- ------- ----- ---- -------<br>--- are -- ----- -- --- ---- -- --- ---- -- ------ ------<br>--- ----- -- ----,119168.20000001788,119167.80000001192,118819.342,118822.59999999404,118836.136,119191.026,,40,are
screen,html.Screen,2_1_0_1_41,2022-04-28T12:35:02.202Z,,,,,,,,,,,,,,,,,53,,,,,,,,,,,,,,321.7740000119229,,response,,,,99,,,,,,,Space,keypress(Space),,,,,,,,---- -- ----- -- ------ - ------- --- ----------<br>------------- ------ ------ ---- ---- ------- ----- -- ----<br>-------- ------- -- ---------- --- - --- ----- ----- ----<br>---- --- --- ----- --- ---- ---- ------- ----- ---- -------<br>--- --- as ----- -- --- ---- -- --- ---- -- ------ ------<br>--- ----- -- ----,119513.20000001788,119512.80000001192,119152.621,119168.30000001192,119191.026,119519.384,,41,as
screen,html.Screen,2_1_0_1_42,2022-04-28T12:35:02.542Z,,,,,,,,,,,,,,,,,53,,,,,,,,,,,,,,333.61599999999453,,response,,,,99,,,,,,,Space,keypress(Space),,,,,,,,---- -- ----- -- ------ - ------- --- ----------<br>------------- ------ ------ ---- ---- ------- ----- -- ----<br>-------- ------- -- ---------- --- - --- ----- ----- ----<br>---- --- --- ----- --- ---- ---- ------- ----- ---- -------<br>--- --- -- close -- --- ---- -- --- ---- -- ------ ------<br>--- ----- -- ----,119853.59999999404,119853,119502.592,119513.30000001192,119519.384,119869.341,,42,close
screen,html.Screen,2_1_0_1_43,2022-04-28T12:35:02.880Z,,,,,,,,,,,,,,,,,53,,,,,,,,,,,,,,322.65899999999965,,response,,,,99,,,,,,,Space,keypress(Space),,,,,,,,---- -- ----- -- ------ - ------- --- ----------<br>------------- ------ ------ ---- ---- ------- ----- -- ----<br>-------- ------- -- ---------- --- - --- ----- ----- ----<br>---- --- --- ----- --- ---- ---- ------- ----- ---- -------<br>--- --- -- ----- as --- ---- -- --- ---- -- ------ ------<br>--- ----- -- ----,120192.5,120192,119852.551,119853.59999999404,119869.341,120202.674,,43,as
screen,html.Screen,2_1_0_1_44,2022-04-28T12:35:03.212Z,,,,,,,,,,,,,,,,,53,,,,,,,,,,,,,,320.5260000178823,,response,,,,99,,,,,,,Space,keypress(Space),,,,,,,,---- -- ----- -- ------ - ------- --- ----------<br>------------- ------ ------ ---- ---- ------- ----- -- ----<br>-------- ------- -- ---------- --- - --- ----- ----- ----<br>---- --- --- ----- --- ---- ---- ------- ----- ---- -------<br>--- --- -- ----- -- you ---- -- --- ---- -- ------ ------<br>--- ----- -- ----,120523.59999999404,120523.20000001788,120185.857,120192.59999999404,120202.674,120535.873,,44,you
screen,html.Screen,2_1_0_1_45,2022-04-28T12:35:03.546Z,,,,,,,,,,,,,,,,,53,,,,,,,,,,,,,,321.72699999403267,,response,,,,99,,,,,,,Space,keypress(Space),,,,,,,,---- -- ----- -- ------ - ------- --- ----------<br>------------- ------ ------ ---- ---- ------- ----- -- ----<br>-------- ------- -- ---------- --- - --- ----- ----- ----<br>---- --- --- ----- --- ---- ---- ------- ----- ---- -------<br>--- --- -- ----- -- --- want -- --- ---- -- ------ ------<br>--- ----- -- ----,120858,120857.59999999404,120519.142,120523.70000001788,120535.873,120869.22,,45,want
screen,html.Screen,2_1_0_1_46,2022-04-28T12:35:03.840Z,,,,,,,,,,,,,,,,,53,,,,,,,,,,,,,,282.27999999999884,,response,,,,99,,,,,,,Space,keypress(Space),,,,,,,,---- -- ----- -- ------ - ------- --- ----------<br>------------- ------ ------ ---- ---- ------- ----- -- ----<br>-------- ------- -- ---------- --- - --- ----- ----- ----<br>---- --- --- ----- --- ---- ---- ------- ----- ---- -------<br>--- --- -- ----- -- --- ---- to --- ---- -- ------ ------<br>--- ----- -- ----,121152,121151.5,120852.437,120858.09999999404,120869.22,121185.935,,46,to
screen,html.Screen,2_1_0_1_47,2022-04-28T12:35:04.152Z,,,,,,,,,,,,,,,,,53,,,,,,,,,,,,,,277.86500001192326,,response,,,,99,,,,,,,Space,keypress(Space),,,,,,,,"---- -- ----- -- ------ - ------- --- ----------<br>------------- ------ ------ ---- ---- ------- ----- -- ----<br>-------- ------- -- ---------- --- - --- ----- ----- ----<br>---- --- --- ----- --- ---- ---- ------- ----- ---- -------<br>--- --- -- ----- -- --- ---- -- be, ---- -- ------ ------<br>--- ----- -- ----",121464.40000000596,121463.80000001192,121169.215,121152,121185.935,121469.225,,47,"be,"
screen,html.Screen,2_1_0_1_48,2022-04-28T12:35:04.492Z,,,,,,,,,,,,,,,,,53,,,,,,,,,,,,,,334.2749999999942,,response,,,,99,,,,,,,Space,keypress(Space),,,,,,,,---- -- ----- -- ------ - ------- --- ----------<br>------------- ------ ------ ---- ---- ------- ----- -- ----<br>-------- ------- -- ---------- --- - --- ----- ----- ----<br>---- --- --- ----- --- ---- ---- ------- ----- ---- -------<br>--- --- -- ----- -- --- ---- -- --- even -- ------ ------<br>--- ----- -- ----,121803.90000000596,121803.5,121452.377,121464.40000000596,121469.225,121819.06,,48,even
screen,html.Screen,2_1_0_1_49,2022-04-28T12:35:04.822Z,,,,,,,,,,,,,,,,,53,,,,,,,,,,,,,,314.03999999404186,,response,,,,99,,,,,,,Space,keypress(Space),,,,,,,,---- -- ----- -- ------ - ------- --- ----------<br>------------- ------ ------ ---- ---- ------- ----- -- ----<br>-------- ------- -- ---------- --- - --- ----- ----- ----<br>---- --- --- ----- --- ---- ---- ------- ----- ---- -------<br>--- --- -- ----- -- --- ---- -- --- ---- if ------ ------<br>--- ----- -- ----,122133.70000001788,122133.09999999404,121802.224,121803.90000000596,121819.06,122135.675,,49,if
screen,html.Screen,2_1_0_1_50,2022-04-28T12:35:05.154Z,,,,,,,,,,,,,,,,,53,,,,,,,,,,,,,,330.125000011918,,response,,,,99,,,,,,,Space,keypress(Space),,,,,,,,---- -- ----- -- ------ - ------- --- ----------<br>------------- ------ ------ ---- ---- ------- ----- -- ----<br>-------- ------- -- ---------- --- - --- ----- ----- ----<br>---- --- --- ----- --- ---- ---- ------- ----- ---- -------<br>--- --- -- ----- -- --- ---- -- --- ---- -- that's ------<br>--- ----- -- ----,122466.40000000596,122465.80000001192,122118.879,122133.80000001192,122135.675,122469.035,,50,that's
screen,html.Screen,2_1_0_1_51,2022-04-28T12:35:05.465Z,,,,,,,,,,,,,,,,,53,,,,,,,,,,,,,,307.6650000178779,,response,,,,99,,,,,,,Space,keypress(Space),,,,,,,,---- -- ----- -- ------ - ------- --- ----------<br>------------- ------ ------ ---- ---- ------- ----- -- ----<br>-------- ------- -- ---------- --- - --- ----- ----- ----<br>---- --- --- ----- --- ---- ---- ------- ----- ---- -------<br>--- --- -- ----- -- --- ---- -- --- ---- -- ------ really<br>--- ----- -- ----,122777.09999999404,122776.70000001788,122452.224,122466.5,122469.035,122785.643,,51,really
screen,html.Screen,2_1_0_1_52,2022-04-28T12:35:05.805Z,,,,,,,,,,,,,,,,,53,,,,,,,,,,,,,,330.65700001192454,,response,,,,99,,,,,,,Space,keypress(Space),,,,,,,,---- -- ----- -- ------ - ------- --- ----------<br>------------- ------ ------ ---- ---- ------- ----- -- ----<br>-------- ------- -- ---------- --- - --- ----- ----- ----<br>---- --- --- ----- --- ---- ---- ------- ----- ---- -------<br>--- --- -- ----- -- --- ---- -- --- ---- -- ------ ------<br>not ----- -- ----,123116.70000001788,123116.30000001192,122768.89,122777.20000001788,122785.643,123118.878,,52,not
screen,html.Screen,2_1_0_1_53,2022-04-28T12:35:06.146Z,,,,,,,,,,,,,,,,,53,,,,,,,,,,,,,,338.5220000059635,,response,,,,99,,,,,,,Space,keypress(Space),,,,,,,,---- -- ----- -- ------ - ------- --- ----------<br>------------- ------ ------ ---- ---- ------- ----- -- ----<br>-------- ------- -- ---------- --- - --- ----- ----- ----<br>---- --- --- ----- --- ---- ---- ------- ----- ---- -------<br>--- --- -- ----- -- --- ---- -- --- ---- -- ------ ------<br>--- close -- ----,123457.90000000596,123457.40000000596,123102.169,123116.80000001192,123118.878,123468.866,,53,close
screen,html.Screen,2_1_0_1_54,2022-04-28T12:35:06.474Z,,,,,,,,,,,,,,,,,53,,,,,,,,,,,,,,316.53400000596594,,response,,,,99,,,,,,,Space,keypress(Space),,,,,,,,---- -- ----- -- ------ - ------- --- ----------<br>------------- ------ ------ ---- ---- ------- ----- -- ----<br>-------- ------- -- ---------- --- - --- ----- ----- ----<br>---- --- --- ----- --- ---- ---- ------- ----- ---- -------<br>--- --- -- ----- -- --- ---- -- --- ---- -- ------ ------<br>--- ----- at ----,123786.20000001788,123785.40000000596,123452.099,123458,123468.866,123802.139,,54,at
screen,html.Screen,2_1_0_1_55,2022-04-28T12:35:06.848Z,,,,,,,,,,,,,,,,,53,,,,,,,,,,,,,,357.2610000059649,,response,,,,99,,,,,,,Space,keypress(Space),,,,,,,,---- -- ----- -- ------ - ------- --- ----------<br>------------- ------ ------ ---- ---- ------- ----- -- ----<br>-------- ------- -- ---------- --- - --- ----- ----- ----<br>---- --- --- ----- --- ---- ---- ------- ----- ---- -------<br>--- --- -- ----- -- --- ---- -- --- ---- -- ------ ------<br>--- ----- -- all.,124159.90000000596,124159.40000000596,123785.348,123786.30000001192,123802.139,124168.762,,55,all.
Item 99,flow.Loop,2_1_0_1,2022-04-28T12:35:06.848Z,,,,,,,,,,,,,,,,,,,,,,,,,,,,,,,19988.04000000596,,completion,,,,,D,,,,,,,,,,,silence,,,,,124160.09999999404,124159.40000000596,104154.743,104155.40000000596,104171.36,124168.762,,,
Question 1,html.Screen,2_1_0_2,2022-04-28T12:35:10.980Z,,,,,,,,,,,,,,,,,,,,,,,,,,,,true,FALSE,,4122.638000005958,,response,,,,99,D,,,,,,FALSE,click #choice-2,,,,silence,,,,,128292.20000001788,128291.40000000596,124151.985,124160.20000001788,124168.762,128301.66,,,
Question 2,html.Screen,2_1_0_3,2022-04-28T12:35:15.187Z,,,,,,,,,,,,,,,,,,,,,,,,,,,,true,TRUE,,4196.3399999999965,,response,,,,99,D,,,,,,TRUE,click #choice-1,,,,silence,,,,,132498.70000001788,132498,128284.923,128292.30000001192,128301.66,132501.121,,,
Item 99,flow.Sequence,2_1_0,2022-04-28T12:35:15.187Z,,,,,,,,,,,,,,,,,,,,,,,,,,,,,,,38325.380999999994,,completion,,,,,,,,,,,,,,,,,,,,,132498.90000000596,132498,94155.948,94168.5,94172.619,132501.121,,,
Holding screen,html.Screen,2_1_1_0,2022-04-28T12:35:25.172Z,,,,,,,,,,,,,,,,,,,,,,,,,,,,,,,9998.713999999978,,timeout,,,,,,,,,,,,,,,,,,,,,142483.70000001788,142483.189,132484.337,132499,132501.121,142499.835,,,
screen,html.Screen,2_1_1_1_0,2022-04-28T12:35:25.824Z,,,,,,,,,,,,,,,,,54,,,,,,,,,,,,,,635.9650000119291,,response,,,,100,,,,,,,Space,keypress(Space),,,,,,,,At --- ---- --- ------ ----- ------- ---- -- --- ------- --<br>------- ---------- ------ -- ----- -- ----- -- ---- ------<br>--- ----- --- --- ------ -------- ----- --- ------ ----- --<br>----- ----- ---------- --- --- ------ ------ ---- -- ------<br>------- --- ------ ----- --- ---- ------- -- ---- --- --<br>------- ------,143136.40000000596,143135.80000001192,142483.189,142483.80000001192,142499.835,143149.671,,0,At
screen,html.Screen,2_1_1_1_1,2022-04-28T12:35:26.253Z,,,,,,,,,,,,,,,,,54,,,,,,,,,,,,,,414.72900000595837,,response,,,,100,,,,,,,Space,keypress(Space),,,,,,,,-- the ---- --- ------ ----- ------- ---- -- --- ------- --<br>------- ---------- ------ -- ----- -- ----- -- ---- ------<br>--- ----- --- --- ------ -------- ----- --- ------ ----- --<br>----- ----- ---------- --- --- ------ ------ ---- -- ------<br>------- --- ------ ----- --- ---- ------- -- ---- --- --<br>------- ------,143564.90000000596,143564.40000000596,143132.77,143136.40000000596,143149.671,143587.988,,1,the
screen,html.Screen,2_1_1_1_2,2022-04-28T12:35:26.660Z,,,,,,,,,,,,,,,,,54,,,,,,,,,,,,,,383.6119999940274,,response,,,,100,,,,,,,Space,keypress(Space),,,,,,,,-- --- time --- ------ ----- ------- ---- -- --- ------- --<br>------- ---------- ------ -- ----- -- ----- -- ---- ------<br>--- ----- --- --- ------ -------- ----- --- ------ ----- --<br>----- ----- ---------- --- --- ------ ------ ---- -- ------<br>------- --- ------ ----- --- ---- ------- -- ---- --- --<br>------- ------,143972,143971.59999999404,143549.547,143565,143587.988,143982.956,,2,time
screen,html.Screen,2_1_1_1_3,2022-04-28T12:35:27.070Z,,,,,,,,,,,,,,,,,54,,,,,,,,,,,,,,398.14399999403395,,response,,,,100,,,,,,,Space,keypress(Space),,,,,,,,-- --- ---- the ------ ----- ------- ---- -- --- ------- --<br>------- ---------- ------ -- ----- -- ----- -- ---- ------<br>--- ----- --- --- ------ -------- ----- --- ------ ----- --<br>----- ----- ---------- --- --- ------ ------ ---- -- ------<br>------- --- ------ ----- --- ---- ------- -- ---- --- --<br>------- ------,144381.59999999404,144381.09999999404,143966.181,143972.09999999404,143982.956,144412.169,,3,the
screen,html.Screen,2_1_1_1_4,2022-04-28T12:35:27.595Z,,,,,,,,,,,,,,,,,54,,,,,,,,,,,,,,494.3310000000056,,response,,,,100,,,,,,,Space,keypress(Space),,,,,,,,-- --- ---- --- French ----- ------- ---- -- --- ------- --<br>------- ---------- ------ -- ----- -- ----- -- ---- ------<br>--- ----- --- --- ------ -------- ----- --- ------ ----- --<br>----- ----- ---------- --- --- ------ ------ ---- -- ------<br>------- --- ------ ----- --- ---- ------- -- ---- --- --<br>------- ------,144907,144906.5,144366.076,144381.70000001788,144412.169,144916.137,,4,French
screen,html.Screen,2_1_1_1_5,2022-04-28T12:35:27.941Z,,,,,,,,,,,,,,,,,54,,,,,,,,,,,,,,336.8630000000121,,response,,,,100,,,,,,,Space,keypress(Space),,,,,,,,-- --- ---- --- ------ crown ------- ---- -- --- ------- --<br>------- ---------- ------ -- ----- -- ----- -- ---- ------<br>--- ----- --- --- ------ -------- ----- --- ------ ----- --<br>----- ----- ---------- --- --- ------ ------ ---- -- ------<br>------- --- ------ ----- --- ---- ------- -- ---- --- --<br>------- ------,145253.40000000596,145253,144899.325,144907,144916.137,145266.082,,5,crown
screen,html.Screen,2_1_1_1_6,2022-04-28T12:35:28.350Z,,,,,,,,,,,,,,,,,54,,,,,,,,,,,,,,395.51799999404466,,response,,,,100,,,,,,,Space,keypress(Space),,,,,,,,-- --- ---- --- ------ ----- secured ---- -- --- ------- --<br>------- ---------- ------ -- ----- -- ----- -- ---- ------<br>--- ----- --- --- ------ -------- ----- --- ------ ----- --<br>----- ----- ---------- --- --- ------ ------ ---- -- ------<br>------- --- ------ ----- --- ---- ------- -- ---- --- --<br>------- ------,145662.09999999404,145661.59999999404,145249.361,145253.5,145266.082,145666.308,,6,secured
screen,html.Screen,2_1_1_1_7,2022-04-28T12:35:28.787Z,,,,,,,,,,,,,,,,,54,,,,,,,,,,,,,,432.5920000059705,,response,,,,100,,,,,,,Space,keypress(Space),,,,,,,,-- --- ---- --- ------ ----- ------- much -- --- ------- --<br>------- ---------- ------ -- ----- -- ----- -- ---- ------<br>--- ----- --- --- ------ -------- ----- --- ------ ----- --<br>----- ----- ---------- --- --- ------ ------ ---- -- ------<br>------- --- ------ ----- --- ---- ------- -- ---- --- --<br>------- ------,146099.40000000596,146098.90000000596,145649.174,145662.20000001788,145666.308,146115.974,,7,much
screen,html.Screen,2_1_1_1_8,2022-04-28T12:35:29.282Z,,,,,,,,,,,,,,,,,54,,,,,,,,,,,,,,477.42600000597304,,response,,,,100,,,,,,,Space,keypress(Space),,,,,,,,-- --- ---- --- ------ ----- ------- ---- of --- ------- --<br>------- ---------- ------ -- ----- -- ----- -- ---- ------<br>--- ----- --- --- ------ -------- ----- --- ------ ----- --<br>----- ----- ---------- --- --- ------ ------ ---- -- ------<br>------- --- ------ ----- --- ---- ------- -- ---- --- --<br>------- ------,146593.90000000596,146593.40000000596,146099.192,146099.5,146115.974,146599.471,,8,of
screen,html.Screen,2_1_1_1_9,2022-04-28T12:35:29.724Z,,,,,,,,,,,,,,,,,54,,,,,,,,,,,,,,436.52900000000955,,response,,,,100,,,,,,,Space,keypress(Space),,,,,,,,-- --- ---- --- ------ ----- ------- ---- -- its ------- --<br>------- ---------- ------ -- ----- -- ----- -- ---- ------<br>--- ----- --- --- ------ -------- ----- --- ------ ----- --<br>----- ----- ---------- --- --- ------ ------ ---- -- ------<br>------- --- ------ ----- --- ---- ------- -- ---- --- --<br>------- ------,147036.40000000596,147036,146582.437,146594,146599.471,147049.187,,9,its
screen,html.Screen,2_1_1_1_10,2022-04-28T12:35:30.196Z,,,,,,,,,,,,,,,,,54,,,,,,,,,,,,,,458.51300001787604,,response,,,,100,,,,,,,Space,keypress(Space),,,,,,,,-- --- ---- --- ------ ----- ------- ---- -- --- revenue --<br>------- ---------- ------ -- ----- -- ----- -- ---- ------<br>--- ----- --- --- ------ -------- ----- --- ------ ----- --<br>----- ----- ---------- --- --- ------ ------ ---- -- ------<br>------- --- ------ ----- --- ---- ------- -- ---- --- --<br>------- ------,147508.09999999404,147507.70000001788,147032.378,147036.5,147049.187,147515.982,,10,revenue
screen,html.Screen,2_1_1_1_11,2022-04-28T12:35:30.685Z,,,,,,,,,,,,,,,,,54,,,,,,,,,,,,,,480.1179999940505,,response,,,,100,,,,,,,Space,keypress(Space),,,,,,,,-- --- ---- --- ------ ----- ------- ---- -- --- ------- by<br>------- ---------- ------ -- ----- -- ----- -- ---- ------<br>--- ----- --- --- ------ -------- ----- --- ------ ----- --<br>----- ----- ---------- --- --- ------ ------ ---- -- ------<br>------- --- ------ ----- --- ---- ------- -- ---- --- --<br>------- ------,147996.59999999404,147996.09999999404,147498.95,147508.09999999404,147515.982,147999.065,,11,by
screen,html.Screen,2_1_1_1_12,2022-04-28T12:35:31.123Z,,,,,,,,,,,,,,,,,54,,,,,,,,,,,,,,435.7350000119186,,response,,,,100,,,,,,,Space,keypress(Space),,,,,,,,-- --- ---- --- ------ ----- ------- ---- -- --- ------- --<br>issuing ---------- ------ -- ----- -- ----- -- ---- ------<br>--- ----- --- --- ------ -------- ----- --- ------ ----- --<br>----- ----- ---------- --- --- ------ ------ ---- -- ------<br>------- --- ------ ----- --- ---- ------- -- ---- --- --<br>------- ------,148435.20000001788,148434.80000001192,147982.445,147996.70000001788,147999.065,148449.115,,12,issuing
screen,html.Screen,2_1_1_1_13,2022-04-28T12:35:31.563Z,,,,,,,,,,,,,,,,,54,,,,,,,,,,,,,,425.7850000059698,,response,,,,100,,,,,,,Space,keypress(Space),,,,,,,,-- --- ---- --- ------ ----- ------- ---- -- --- ------- --<br>------- government ------ -- ----- -- ----- -- ---- ------<br>--- ----- --- --- ------ -------- ----- --- ------ ----- --<br>----- ----- ---------- --- --- ------ ------ ---- -- ------<br>------- --- ------ ----- --- ---- ------- -- ---- --- --<br>------- ------,148875.40000000596,148874.90000000596,148432.208,148435.30000001192,148449.115,148882.547,,13,government
screen,html.Screen,2_1_1_1_14,2022-04-28T12:35:31.997Z,,,,,,,,,,,,,,,,,54,,,,,,,,,,,,,,426.05299999404815,,response,,,,100,,,,,,,Space,keypress(Space),,,,,,,,-- --- ---- --- ------ ----- ------- ---- -- --- ------- --<br>------- ---------- bonds. -- ----- -- ----- -- ---- ------<br>--- ----- --- --- ------ -------- ----- --- ------ ----- --<br>----- ----- ---------- --- --- ------ ------ ---- -- ------<br>------- --- ------ ----- --- ---- ------- -- ---- --- --<br>------- ------,149309.20000001788,149308.59999999404,148865.449,148875.5,148882.547,149315.733,,14,bonds.
screen,html.Screen,2_1_1_1_15,2022-04-28T12:35:32.468Z,,,,,,,,,,,,,,,,,54,,,,,,,,,,,,,,463.667000005953,,response,,,,100,,,,,,,Space,keypress(Space),,,,,,,,-- --- ---- --- ------ ----- ------- ---- -- --- ------- --<br>------- ---------- ------ In ----- -- ----- -- ---- ------<br>--- ----- --- --- ------ -------- ----- --- ------ ----- --<br>----- ----- ---------- --- --- ------ ------ ---- -- ------<br>------- --- ------ ----- --- ---- ------- -- ---- --- --<br>------- ------,149779.90000000596,149779.40000000596,149298.75,149309.30000001192,149315.733,149782.221,,15,In
screen,html.Screen,2_1_1_1_16,2022-04-28T12:35:32.889Z,,,,,,,,,,,,,,,,,54,,,,,,,,,,,,,,418.17900000597,,response,,,,100,,,,,,,Space,keypress(Space),,,,,,,,"-- --- ---- --- ------ ----- ------- ---- -- --- ------- --<br>------- ---------- ------ -- 1727, -- ----- -- ---- ------<br>--- ----- --- --- ------ -------- ----- --- ------ ----- --<br>----- ----- ---------- --- --- ------ ------ ---- -- ------<br>------- --- ------ ----- --- ---- ------- -- ---- --- --<br>------- ------",150201,150200.40000000596,149765.342,149779.90000000596,149782.221,150215.543,,16,"1727,"
screen,html.Screen,2_1_1_1_17,2022-04-28T12:35:34.370Z,,,,,,,,,,,,,,,,,54,,,,,,,,,,,,,,1465.9569999999949,,response,,,,100,,,,,,,Space,keypress(Space),,,,,,,,-- --- ---- --- ------ ----- ------- ---- -- --- ------- --<br>------- ---------- ------ -- ----- in ----- -- ---- ------<br>--- ----- --- --- ------ -------- ----- --- ------ ----- --<br>----- ----- ---------- --- --- ------ ------ ---- -- ------<br>------- --- ------ ----- --- ---- ------- -- ---- --- --<br>------- ------,151681.90000000596,151681.5,150198.655,150201.09999999404,150215.543,151698.601,,17,in
screen,html.Screen,2_1_1_1_18,2022-04-28T12:35:34.826Z,,,,,,,,,,,,,,,,,54,,,,,,,,,,,,,,439.1990000119258,,response,,,,100,,,,,,,Space,keypress(Space),,,,,,,,-- --- ---- --- ------ ----- ------- ---- -- --- ------- --<br>------- ---------- ------ -- ----- -- order -- ---- ------<br>--- ----- --- --- ------ -------- ----- --- ------ ----- --<br>----- ----- ---------- --- --- ------ ------ ---- -- ------<br>------- --- ------ ----- --- ---- ------- -- ---- --- --<br>------- ------,152138.30000001192,152137.80000001192,151681.251,151682,151698.601,152148.528,,18,order
screen,html.Screen,2_1_1_1_19,2022-04-28T12:35:35.383Z,,,,,,,,,,,,,,,,,54,,,,,,,,,,,,,,545.5719999940484,,response,,,,100,,,,,,,Space,keypress(Space),,,,,,,,-- --- ---- --- ------ ----- ------- ---- -- --- ------- --<br>------- ---------- ------ -- ----- -- ----- to ---- ------<br>--- ----- --- --- ------ -------- ----- --- ------ ----- --<br>----- ----- ---------- --- --- ------ ------ ---- -- ------<br>------- --- ------ ----- --- ---- ------- -- ---- --- --<br>------- ------,152694.59999999404,152694.09999999404,152131.741,152138.30000001192,152148.528,152698.652,,19,to
screen,html.Screen,2_1_1_1_20,2022-04-28T12:35:35.957Z,,,,,,,,,,,,,,,,,54,,,,,,,,,,,,,,569.6480000119191,,response,,,,100,,,,,,,Space,keypress(Space),,,,,,,,-- --- ---- --- ------ ----- ------- ---- -- --- ------- --<br>------- ---------- ------ -- ----- -- ----- -- save ------<br>--- ----- --- --- ------ -------- ----- --- ------ ----- --<br>----- ----- ---------- --- --- ------ ------ ---- -- ------<br>------- --- ------ ----- --- ---- ------- -- ---- --- --<br>------- ------,153268.80000001192,153268.30000001192,152681.628,152694.59999999404,152698.652,153281.751,,20,save
screen,html.Screen,2_1_1_1_21,2022-04-28T12:35:36.452Z,,,,,,,,,,,,,,,,,54,,,,,,,,,,,,,,482.34899999405025,,response,,,,100,,,,,,,Space,keypress(Space),,,,,,,,"-- --- ---- --- ------ ----- ------- ---- -- --- ------- --<br>------- ---------- ------ -- ----- -- ----- -- ---- money,<br>--- ----- --- --- ------ -------- ----- --- ------ ----- --<br>----- ----- ---------- --- --- ------ ------ ---- -- ------<br>------- --- ------ ----- --- ---- ------- -- ---- --- --<br>------- ------",153764.59999999404,153764.09999999404,153264.849,153268.80000001192,153281.751,153798.347,,21,"money,"
screen,html.Screen,2_1_1_1_22,2022-04-28T12:35:36.874Z,,,,,,,,,,,,,,,,,54,,,,,,,,,,,,,,386.7529999940307,,response,,,,100,,,,,,,Space,keypress(Space),,,,,,,,-- --- ---- --- ------ ----- ------- ---- -- --- ------- --<br>------- ---------- ------ -- ----- -- ----- -- ---- ------<br>the ----- --- --- ------ -------- ----- --- ------ ----- --<br>----- ----- ---------- --- --- ------ ------ ---- -- ------<br>------- --- ------ ----- --- ---- ------- -- ---- --- --<br>------- ------,154185.59999999404,154185.09999999404,153789.107,153764.59999999404,153798.347,154198.271,,22,the
screen,html.Screen,2_1_1_1_23,2022-04-28T12:35:37.259Z,,,,,,,,,,,,,,,,,54,,,,,,,,,,,,,,372.3289999940316,,response,,,,100,,,,,,,Space,keypress(Space),,,,,,,,-- --- ---- --- ------ ----- ------- ---- -- --- ------- --<br>------- ---------- ------ -- ----- -- ----- -- ---- ------<br>--- state --- --- ------ -------- ----- --- ------ ----- --<br>----- ----- ---------- --- --- ------ ------ ---- -- ------<br>------- --- ------ ----- --- ---- ------- -- ---- --- --<br>------- ------,154571.30000001192,154570.59999999404,154181.477,154185.70000001788,154198.271,154581.58,,23,state
screen,html.Screen,2_1_1_1_24,2022-04-28T12:35:37.680Z,,,,,,,,,,,,,,,,,54,,,,,,,,,,,,,,409.82000000597327,,response,,,,100,,,,,,,Space,keypress(Space),,,,,,,,-- --- ---- --- ------ ----- ------- ---- -- --- ------- --<br>------- ---------- ------ -- ----- -- ----- -- ---- ------<br>--- ----- cut --- ------ -------- ----- --- ------ ----- --<br>----- ----- ---------- --- --- ------ ------ ---- -- ------<br>------- --- ------ ----- --- ---- ------- -- ---- --- --<br>------- ------,154992,154991.40000000596,154564.75,154571.30000001192,154581.58,154998.397,,24,cut
screen,html.Screen,2_1_1_1_25,2022-04-28T12:35:38.034Z,,,,,,,,,,,,,,,,,54,,,,,,,,,,,,,,347.20299999404233,,response,,,,100,,,,,,,Space,keypress(Space),,,,,,,,-- --- ---- --- ------ ----- ------- ---- -- --- ------- --<br>------- ---------- ------ -- ----- -- ----- -- ---- ------<br>--- ----- --- the ------ -------- ----- --- ------ ----- --<br>----- ----- ---------- --- --- ------ ------ ---- -- ------<br>------- --- ------ ----- --- ---- ------- -- ---- --- --<br>------- ------,155346.09999999404,155345.59999999404,154981.31,154992.09999999404,154998.397,155348.116,,25,the
screen,html.Screen,2_1_1_1_26,2022-04-28T12:35:38.394Z,,,,,,,,,,,,,,,,,54,,,,,,,,,,,,,,357.5840000178723,,response,,,,100,,,,,,,Space,keypress(Space),,,,,,,,-- --- ---- --- ------ ----- ------- ---- -- --- ------- --<br>------- ---------- ------ -- ----- -- ----- -- ---- ------<br>--- ----- --- --- bonds' -------- ----- --- ------ ----- --<br>----- ----- ---------- --- --- ------ ------ ---- -- ------<br>------- --- ------ ----- --- ---- ------- -- ---- --- --<br>------- ------,155706.5,155705.70000001788,155331.297,155346.20000001788,155348.116,155714.81,,26,bonds'
screen,html.Screen,2_1_1_1_27,2022-04-28T12:35:38.764Z,,,,,,,,,,,,,,,,,54,,,,,,,,,,,,,,360.1900000000023,,response,,,,100,,,,,,,Space,keypress(Space),,,,,,,,-- --- ---- --- ------ ----- ------- ---- -- --- ------- --<br>------- ---------- ------ -- ----- -- ----- -- ---- ------<br>--- ----- --- --- ------ interest ----- --- ------ ----- --<br>----- ----- ---------- --- --- ------ ------ ---- -- ------<br>------- --- ------ ----- --- ---- ------- -- ---- --- --<br>------- ------,156075.59999999404,156075,155697.978,155706.59999999404,155714.81,156081.668,,27,interest
screen,html.Screen,2_1_1_1_28,2022-04-28T12:35:39.141Z,,,,,,,,,,,,,,,,,54,,,,,,,,,,,,,,371.1320000119158,,response,,,,100,,,,,,,Space,keypress(Space),,,,,,,,-- --- ---- --- ------ ----- ------- ---- -- --- ------- --<br>------- ---------- ------ -- ----- -- ----- -- ---- ------<br>--- ----- --- --- ------ -------- rate. --- ------ ----- --<br>----- ----- ---------- --- --- ------ ------ ---- -- ------<br>------- --- ------ ----- --- ---- ------- -- ---- --- --<br>------- ------,156453.30000001192,156452.80000001192,156064.545,156075.70000001788,156081.668,156464.669,,28,rate.
screen,html.Screen,2_1_1_1_29,2022-04-28T12:35:39.640Z,,,,,,,,,,,,,,,,,54,,,,,,,,,,,,,,486.6310000119265,,response,,,,100,,,,,,,Space,keypress(Space),,,,,,,,-- --- ---- --- ------ ----- ------- ---- -- --- ------- --<br>------- ---------- ------ -- ----- -- ----- -- ---- ------<br>--- ----- --- --- ------ -------- ----- The ------ ----- --<br>----- ----- ---------- --- --- ------ ------ ---- -- ------<br>------- --- ------ ----- --- ---- ------- -- ---- --- --<br>------- ------,156951.70000001788,156951.30000001192,156447.847,156453.40000000596,156464.669,156964.632,,29,The
screen,html.Screen,2_1_1_1_30,2022-04-28T12:35:40.064Z,,,,,,,,,,,,,,,,,54,,,,,,,,,,,,,,410.86799999998766,,response,,,,100,,,,,,,Space,keypress(Space),,,,,,,,-- --- ---- --- ------ ----- ------- ---- -- --- ------- --<br>------- ---------- ------ -- ----- -- ----- -- ---- ------<br>--- ----- --- --- ------ -------- ----- --- market ----- --<br>----- ----- ---------- --- --- ------ ------ ---- -- ------<br>------- --- ------ ----- --- ---- ------- -- ---- --- --<br>------- ------,157376.09999999404,157375.5,156947.694,156951.70000001788,156964.632,157381.572,,30,market
screen,html.Screen,2_1_1_1_31,2022-04-28T12:35:40.499Z,,,,,,,,,,,,,,,,,54,,,,,,,,,,,,,,429.02799999405397,,response,,,,100,,,,,,,Space,keypress(Space),,,,,,,,-- --- ---- --- ------ ----- ------- ---- -- --- ------- --<br>------- ---------- ------ -- ----- -- ----- -- ---- ------<br>--- ----- --- --- ------ -------- ----- --- ------ value --<br>----- ----- ---------- --- --- ------ ------ ---- -- ------<br>------- --- ------ ----- --- ---- ------- -- ---- --- --<br>------- ------,157811,157810.59999999404,157364.438,157376.09999999404,157381.572,157814.576,,31,value
screen,html.Screen,2_1_1_1_32,2022-04-28T12:35:40.874Z,,,,,,,,,,,,,,,,,54,,,,,,,,,,,,,,371.32400000595953,,response,,,,100,,,,,,,Space,keypress(Space),,,,,,,,-- --- ---- --- ------ ----- ------- ---- -- --- ------- --<br>------- ---------- ------ -- ----- -- ----- -- ---- ------<br>--- ----- --- --- ------ -------- ----- --- ------ ----- of<br>----- ----- ---------- --- --- ------ ------ ---- -- ------<br>------- --- ------ ----- --- ---- ------- -- ---- --- --<br>------- ------,158186.5,158185.90000000596,157797.729,157811,157814.576,158197.784,,32,of
screen,html.Screen,2_1_1_1_33,2022-04-28T12:35:41.273Z,,,,,,,,,,,,,,,,,54,,,,,,,,,,,,,,387.11600000594626,,response,,,,100,,,,,,,Space,keypress(Space),,,,,,,,-- --- ---- --- ------ ----- ------- ---- -- --- ------- --<br>------- ---------- ------ -- ----- -- ----- -- ---- ------<br>--- ----- --- --- ------ -------- ----- --- ------ ----- --<br>these ----- ---------- --- --- ------ ------ ---- -- ------<br>------- --- ------ ----- --- ---- ------- -- ---- --- --<br>------- ------,158585.40000000596,158584.90000000596,158181.015,158186.59999999404,158197.784,158597.717,,33,these
screen,html.Screen,2_1_1_1_34,2022-04-28T12:35:41.816Z,,,,,,,,,,,,,,,,,54,,,,,,,,,,,,,,530.2829999999958,,response,,,,100,,,,,,,Space,keypress(Space),,,,,,,,-- --- ---- --- ------ ----- ------- ---- -- --- ------- --<br>------- ---------- ------ -- ----- -- ----- -- ---- ------<br>--- ----- --- --- ------ -------- ----- --- ------ ----- --<br>----- bonds ---------- --- --- ------ ------ ---- -- ------<br>------- --- ------ ----- --- ---- ------- -- ---- --- --<br>------- ------,159128.5,159128,158580.946,158585.5,158597.717,159131.011,,34,bonds
screen,html.Screen,2_1_1_1_35,2022-04-28T12:35:42.200Z,,,,,,,,,,,,,,,,,54,,,,,,,,,,,,,,380.1890000178828,,response,,,,100,,,,,,,Space,keypress(Space),,,,,,,,"-- --- ---- --- ------ ----- ------- ---- -- --- ------- --<br>------- ---------- ------ -- ----- -- ----- -- ---- ------<br>--- ----- --- --- ------ -------- ----- --- ------ ----- --<br>----- ----- plummeted, --- --- ------ ------ ---- -- ------<br>------- --- ------ ----- --- ---- ------- -- ---- --- --<br>------- ------",159511.70000001788,159511.20000001788,159114.053,159128.70000001788,159131.011,159514.244,,35,"plummeted,"
screen,html.Screen,2_1_1_1_36,2022-04-28T12:35:42.552Z,,,,,,,,,,,,,,,,,54,,,,,,,,,,,,,,349.5560000119149,,response,,,,100,,,,,,,Space,keypress(Space),,,,,,,,-- --- ---- --- ------ ----- ------- ---- -- --- ------- --<br>------- ---------- ------ -- ----- -- ----- -- ---- ------<br>--- ----- --- --- ------ -------- ----- --- ------ ----- --<br>----- ----- ---------- and --- ------ ------ ---- -- ------<br>------- --- ------ ----- --- ---- ------- -- ---- --- --<br>------- ------,159864.30000001192,159863.80000001192,159497.435,159511.80000001192,159514.244,159880.974,,36,and
screen,html.Screen,2_1_1_1_37,2022-04-28T12:35:42.903Z,,,,,,,,,,,,,,,,,54,,,,,,,,,,,,,,333.3260000119335,,response,,,,100,,,,,,,Space,keypress(Space),,,,,,,,-- --- ---- --- ------ ----- ------- ---- -- --- ------- --<br>------- ---------- ------ -- ----- -- ----- -- ---- ------<br>--- ----- --- --- ------ -------- ----- --- ------ ----- --<br>----- ----- ---------- --- the ------ ------ ---- -- ------<br>------- --- ------ ----- --- ---- ------- -- ---- --- --<br>------- ------,160214.80000001192,160214.30000001192,159864.083,159864.40000000596,159880.974,160230.824,,37,the
screen,html.Screen,2_1_1_1_38,2022-04-28T12:35:43.244Z,,,,,,,,,,,,,,,,,54,,,,,,,,,,,,,,324.67600000000675,,response,,,,100,,,,,,,Space,keypress(Space),,,,,,,,-- --- ---- --- ------ ----- ------- ---- -- --- ------- --<br>------- ---------- ------ -- ----- -- ----- -- ---- ------<br>--- ----- --- --- ------ -------- ----- --- ------ ----- --<br>----- ----- ---------- --- --- market ------ ---- -- ------<br>------- --- ------ ----- --- ---- ------- -- ---- --- --<br>------- ------,160556,160555.5,160214.104,160214.90000000596,160230.824,160564.178,,38,market
screen,html.Screen,2_1_1_1_39,2022-04-28T12:35:43.599Z,,,,,,,,,,,,,,,,,54,,,,,,,,,,,,,,346.02200001786696,,response,,,,100,,,,,,,Space,keypress(Space),,,,,,,,-- --- ---- --- ------ ----- ------- ---- -- --- ------- --<br>------- ---------- ------ -- ----- -- ----- -- ---- ------<br>--- ----- --- --- ------ -------- ----- --- ------ ----- --<br>----- ----- ---------- --- --- ------ became ---- -- ------<br>------- --- ------ ----- --- ---- ------- -- ---- --- --<br>------- ------,160910.59999999404,160910.20000001788,160547.374,160556,160564.178,160914.138,,39,became
screen,html.Screen,2_1_1_1_40,2022-04-28T12:35:43.978Z,,,,,,,,,,,,,,,,,54,,,,,,,,,,,,,,375.5620000178751,,response,,,,100,,,,,,,Space,keypress(Space),,,,,,,,-- --- ---- --- ------ ----- ------- ---- -- --- ------- --<br>------- ---------- ------ -- ----- -- ----- -- ---- ------<br>--- ----- --- --- ------ -------- ----- --- ------ ----- --<br>----- ----- ---------- --- --- ------ ------ wary -- ------<br>------- --- ------ ----- --- ---- ------- -- ---- --- --<br>------- ------,161290.20000001788,161289.70000001788,160897.297,160910.70000001788,160914.138,161297.391,,40,wary
screen,html.Screen,2_1_1_1_41,2022-04-28T12:35:44.324Z,,,,,,,,,,,,,,,,,54,,,,,,,,,,,,,,338.0090000059572,,response,,,,100,,,,,,,Space,keypress(Space),,,,,,,,-- --- ---- --- ------ ----- ------- ---- -- --- ------- --<br>------- ---------- ------ -- ----- -- ----- -- ---- ------<br>--- ----- --- --- ------ -------- ----- --- ------ ----- --<br>----- ----- ---------- --- --- ------ ------ ---- of ------<br>------- --- ------ ----- --- ---- ------- -- ---- --- --<br>------- ------,161635.90000000596,161635.40000000596,161280.615,161290.20000001788,161297.391,161647.441,,41,of
screen,html.Screen,2_1_1_1_42,2022-04-28T12:35:44.663Z,,,,,,,,,,,,,,,,,54,,,,,,,,,,,,,,327.45900000596885,,response,,,,100,,,,,,,Space,keypress(Space),,,,,,,,-- --- ---- --- ------ ----- ------- ---- -- --- ------- --<br>------- ---------- ------ -- ----- -- ----- -- ---- ------<br>--- ----- --- --- ------ -------- ----- --- ------ ----- --<br>----- ----- ---------- --- --- ------ ------ ---- -- French<br>------- --- ------ ----- --- ---- ------- -- ---- --- --<br>------- ------,161975.30000001192,161974.90000000596,161630.584,161636,161647.441,161980.991,,42,French
screen,html.Screen,2_1_1_1_43,2022-04-28T12:35:45.031Z,,,,,,,,,,,,,,,,,54,,,,,,,,,,,,,,361.7090000178723,,response,,,,100,,,,,,,Space,keypress(Space),,,,,,,,-- --- ---- --- ------ ----- ------- ---- -- --- ------- --<br>------- ---------- ------ -- ----- -- ----- -- ---- ------<br>--- ----- --- --- ------ -------- ----- --- ------ ----- --<br>----- ----- ---------- --- --- ------ ------ ---- -- ------<br>credit. --- ------ ----- --- ---- ------- -- ---- --- --<br>------- ------,162343.09999999404,162342.70000001788,161964.192,161975.40000000596,161980.991,162347.61,,43,credit.
screen,html.Screen,2_1_1_1_44,2022-04-28T12:35:45.401Z,,,,,,,,,,,,,,,,,54,,,,,,,,,,,,,,365.1900000119349,,response,,,,100,,,,,,,Space,keypress(Space),,,,,,,,-- --- ---- --- ------ ----- ------- ---- -- --- ------- --<br>------- ---------- ------ -- ----- -- ----- -- ---- ------<br>--- ----- --- --- ------ -------- ----- --- ------ ----- --<br>----- ----- ---------- --- --- ------ ------ ---- -- ------<br>------- The ------ ----- --- ---- ------- -- ---- --- --<br>------- ------,162713.20000001788,162712.80000001192,162330.398,162343.09999999404,162347.61,162737.179,,44,The
screen,html.Screen,2_1_1_1_45,2022-04-28T12:35:45.750Z,,,,,,,,,,,,,,,,,54,,,,,,,,,,,,,,324.4209999940358,,response,,,,100,,,,,,,Space,keypress(Space),,,,,,,,-- --- ---- --- ------ ----- ------- ---- -- --- ------- --<br>------- ---------- ------ -- ----- -- ----- -- ---- ------<br>--- ----- --- --- ------ -------- ----- --- ------ ----- --<br>----- ----- ---------- --- --- ------ ------ ---- -- ------<br>------- --- French ----- --- ---- ------- -- ---- --- --<br>------- ------,163062.09999999404,163061.59999999404,162697.02,162713.30000001192,162737.179,163063.806,,45,French
screen,html.Screen,2_1_1_1_46,2022-04-28T12:35:46.092Z,,,,,,,,,,,,,,,,,54,,,,,,,,,,,,,,339.89400001787,,response,,,,100,,,,,,,Space,keypress(Space),,,,,,,,-- --- ---- --- ------ ----- ------- ---- -- --- ------- --<br>------- ---------- ------ -- ----- -- ----- -- ---- ------<br>--- ----- --- --- ------ -------- ----- --- ------ ----- --<br>----- ----- ---------- --- --- ------ ------ ---- -- ------<br>------- --- ------ state --- ---- ------- -- ---- --- --<br>------- ------,163404.20000001788,163403.70000001788,163047.07,163062.20000001788,163063.806,163413.776,,46,state
screen,html.Screen,2_1_1_1_47,2022-04-28T12:35:46.458Z,,,,,,,,,,,,,,,,,54,,,,,,,,,,,,,,355.9240000178688,,response,,,,100,,,,,,,Space,keypress(Space),,,,,,,,-- --- ---- --- ------ ----- ------- ---- -- --- ------- --<br>------- ---------- ------ -- ----- -- ----- -- ---- ------<br>--- ----- --- --- ------ -------- ----- --- ------ ----- --<br>----- ----- ---------- --- --- ------ ------ ---- -- ------<br>------- --- ------ ----- was ---- ------- -- ---- --- --<br>------- ------,163770.20000001788,163769.70000001788,163396.985,163404.30000001192,163413.776,163780.395,,47,was
screen,html.Screen,2_1_1_1_48,2022-04-28T12:35:46.799Z,,,,,,,,,,,,,,,,,54,,,,,,,,,,,,,,330.4050000119314,,response,,,,100,,,,,,,Space,keypress(Space),,,,,,,,-- --- ---- --- ------ ----- ------- ---- -- --- ------- --<br>------- ---------- ------ -- ----- -- ----- -- ---- ------<br>--- ----- --- --- ------ -------- ----- --- ------ ----- --<br>----- ----- ---------- --- --- ------ ------ ---- -- ------<br>------- --- ------ ----- --- left ------- -- ---- --- --<br>------- ------,164111.20000001788,164110.80000001192,163763.64,163770.40000000596,163780.395,164113.668,,48,left
screen,html.Screen,2_1_1_1_49,2022-04-28T12:35:47.136Z,,,,,,,,,,,,,,,,,54,,,,,,,,,,,,,,333.9319999940344,,response,,,,100,,,,,,,Space,keypress(Space),,,,,,,,-- --- ---- --- ------ ----- ------- ---- -- --- ------- --<br>------- ---------- ------ -- ----- -- ----- -- ---- ------<br>--- ----- --- --- ------ -------- ----- --- ------ ----- --<br>----- ----- ---------- --- --- ------ ------ ---- -- ------<br>------- --- ------ ----- --- ---- without -- ---- --- --<br>------- ------,164448,164447.59999999404,164096.962,164111.30000001192,164113.668,164463.753,,49,without
screen,html.Screen,2_1_1_1_50,2022-04-28T12:35:47.501Z,,,,,,,,,,,,,,,,,54,,,,,,,,,,,,,,348.54700001192396,,response,,,,100,,,,,,,Space,keypress(Space),,,,,,,,-- --- ---- --- ------ ----- ------- ---- -- --- ------- --<br>------- ---------- ------ -- ----- -- ----- -- ---- ------<br>--- ----- --- --- ------ -------- ----- --- ------ ----- --<br>----- ----- ---------- --- --- ------ ------ ---- -- ------<br>------- --- ------ ----- --- ---- ------- an ---- --- --<br>------- ------,164812.70000001788,164812.30000001192,164446.821,164448,164463.753,164831.043,,50,an
screen,html.Screen,2_1_1_1_51,2022-04-28T12:35:47.916Z,,,,,,,,,,,,,,,,,54,,,,,,,,,,,,,,396.35700000595534,,response,,,,100,,,,,,,Space,keypress(Space),,,,,,,,-- --- ---- --- ------ ----- ------- ---- -- --- ------- --<br>------- ---------- ------ -- ----- -- ----- -- ---- ------<br>--- ----- --- --- ------ -------- ----- --- ------ ----- --<br>----- ----- ---------- --- --- ------ ------ ---- -- ------<br>------- --- ------ ----- --- ---- ------- -- easy --- --<br>------- ------,165227.80000001192,165227.40000000596,164796.842,164812.70000001788,164831.043,165230.258,,51,easy
screen,html.Screen,2_1_1_1_52,2022-04-28T12:35:48.288Z,,,,,,,,,,,,,,,,,54,,,,,,,,,,,,,,369.64200000595883,,response,,,,100,,,,,,,Space,keypress(Space),,,,,,,,-- --- ---- --- ------ ----- ------- ---- -- --- ------- --<br>------- ---------- ------ -- ----- -- ----- -- ---- ------<br>--- ----- --- --- ------ -------- ----- --- ------ ----- --<br>----- ----- ---------- --- --- ------ ------ ---- -- ------<br>------- --- ------ ----- --- ---- ------- -- ---- way --<br>------- ------,165600.30000001192,165599.90000000596,165213.417,165228,165230.258,165613.58,,52,way
screen,html.Screen,2_1_1_1_53,2022-04-28T12:35:48.754Z,,,,,,,,,,,,,,,,,54,,,,,,,,,,,,,,451.9200000000128,,response,,,,100,,,,,,,Space,keypress(Space),,,,,,,,-- --- ---- --- ------ ----- ------- ---- -- --- ------- --<br>------- ---------- ------ -- ----- -- ----- -- ---- ------<br>--- ----- --- --- ------ -------- ----- --- ------ ----- --<br>----- ----- ---------- --- --- ------ ------ ---- -- ------<br>------- --- ------ ----- --- ---- ------- -- ---- --- of<br>------- ------,166066.09999999404,166065.5,165596.729,165600.40000000596,165613.58,166080.168,,53,of
screen,html.Screen,2_1_1_1_54,2022-04-28T12:35:49.149Z,,,,,,,,,,,,,,,,,54,,,,,,,,,,,,,,380.9319999940344,,response,,,,100,,,,,,,Space,keypress(Space),,,,,,,,-- --- ---- --- ------ ----- ------- ---- -- --- ------- --<br>------- ---------- ------ -- ----- -- ----- -- ---- ------<br>--- ----- --- --- ------ -------- ----- --- ------ ----- --<br>----- ----- ---------- --- --- ------ ------ ---- -- ------<br>------- --- ------ ----- --- ---- ------- -- ---- --- --<br>raising ------,166461.5,166461.09999999404,166063.286,166066.09999999404,166080.168,166463.362,,54,raising
screen,html.Screen,2_1_1_1_55,2022-04-28T12:35:49.808Z,,,,,,,,,,,,,,,,,54,,,,,,,,,,,,,,655.8380000178877,,response,,,,100,,,,,,,Space,keypress(Space),,,,,,,,-- --- ---- --- ------ ----- ------- ---- -- --- ------- --<br>------- ---------- ------ -- ----- -- ----- -- ---- ------<br>--- ----- --- --- ------ -------- ----- --- ------ ----- --<br>----- ----- ---------- --- --- ------ ------ ---- -- ------<br>------- --- ------ ----- --- ---- ------- -- ---- --- --<br>------- money.,167119.80000001192,167119.20000001788,166446.609,166461.59999999404,166463.362,167130.131,,55,money.
Item 100,flow.Loop,2_1_1_1,2022-04-28T12:35:49.808Z,,,,,,,,,,,,,,,,,,,,,,,,,,,,,,,24619.36500001789,,completion,,,,,D,,,,,,,,,,,silence,,,,,167120,167119.20000001788,142483.189,142483.80000001192,142499.835,167130.131,,,
Question 1,html.Screen,2_1_1_2,2022-04-28T12:35:52.508Z,,,,,,,,,,,,,,,,,,,,,,,,,,,,true,TRUE,,2688.869000000006,,response,,,,100,D,,,,,,TRUE,click #choice-1,,,,silence,,,,,169819.90000000596,169819,167113.075,167120,167130.131,169829.699,,,
Question 2,html.Screen,2_1_1_3,2022-04-28T12:35:54.471Z,,,,,,,,,,,,,,,,,,,,,,,,,,,,true,FALSE,,1952.9009999940463,,response,,,,100,D,,,,,,FALSE,click #choice-2,,,,silence,,,,,171783.5,171782.59999999404,169812.941,169819.90000000596,169829.699,171796.03,,,
Item 100,flow.Sequence,2_1_1,2022-04-28T12:35:54.472Z,,,,,,,,,,,,,,,,,,,,,,,,,,,,,,,39281.478999994026,,completion,,,,,,,,,,,,,,,,,,,,,171783.59999999404,171782.59999999404,132484.337,132498.90000000596,132501.121,171796.03,,,
End of Practice,html.Page,2_1_2,2022-04-28T12:35:57.207Z,,,,,,,,,,,,,,,,,,,,,,,,,,,,,,,2722.970000000001,,form submission,,,,,,,,,,,,,,,,,,,,,174519.20000001788,174519,171779.277,171783.59999999404,171796.03,174529.011,,,
Practice,flow.Sequence,2_1,2022-04-28T12:35:57.207Z,,,,,,,,,,,,,,,,,,,,,,,,,,,,,,,80346.381,,completion,,,,,,,,,,,,,,,,,,,,,174519.40000000596,174519,94155.948,94168.5,94172.619,174529.011,,,
Trap_instruction,html.Page,2_2_0,2022-04-28T12:36:00.677Z,,,,,,,,,,,,,,,,,,,,,,,,,,,,,,,3459.9890000000014,,form submission,,,,,,,,,,,,,,,,,,,,,177989.20000001788,177989,174512.377,174519.40000000596,174529.011,178011.913,,,
trap_trial,html.Screen,2_2_1,2022-04-28T12:36:04.066Z,,,,,,,,,,,,,,,,,,,,,,,,,,,,true,1,,3365.3870000119205,,response,,,,,,,,,,,1,click #choice-1,,,,,,,,,181378.09999999404,181377.30000001192,177978.593,177989.20000001788,178011.913,181407.895,,,
end of trap trial,html.Page,2_2_2,2022-04-28T12:36:05.745Z,,,,,,,,,,,,,,,,,,,,,,,,,,,,,,,1648.8050000178919,,form submission,,,,,,,,,,,,,,,,,,,,,183056.90000000596,183056.70000001788,181361.481,181378.20000001788,181407.895,183061.329,,,
Trap 1,flow.Sequence,2_2,2022-04-28T12:36:05.745Z,,,,,,,,,,,,,,,,,,,,,,,,,,,,,,,8527.689000017883,,completion,,,,,,,,,,,,,,,,,,,,,183057,183056.70000001788,174512.377,174519.40000000596,174529.011,183061.329,,,
Standby,html.Page,2_3_0,2022-04-28T12:36:13.732Z,,,,,,,,,,,,,,,,,,,,,,,,,,,,,,,7998.918000000005,,timeout,,,,,,,,,,,,,,,,,,,,,191044.09999999404,191043.695,183044.668,183057.09999999404,183061.329,191060.247,,,
Holding screen,html.Screen,2_3_1_0_0,2022-04-28T12:36:20.731Z,,,,,,,,,,,,,,,,,,,,,,,,,,,,,,,6999.236000000004,,timeout,,,,,,,,,,,,,,,,,,,,,198043.20000001788,198042.771,191043.695,191044.20000001788,191060.247,198059.483,,,
screen,html.Screen,2_3_1_0_1_0,2022-04-28T12:36:21.331Z,,,,,,,,,,,,,,,,,12,,,,,,,,,,,,,,583.2170000178739,,response,,,,5,D,,,,,,Space,keypress(Space),,,,speech,,,,Some ------ ------ ------- ------ --- ------- -----------<br>-- ----- --- ---- -- --- ------ ---- - ---- -- ----------<br>-- ------ ---- --- ---- --- --- --- ----- -- -------- ---<br>------ ------- -------- --- ---- -- ------- ------------ --<br>------ -- ---- -- --- ---- -- -------- -- --- ------ ------,198643.20000001788,198642.70000001788,198042.771,198043.30000001192,198059.483,198659.391,,0,Some
screen,html.Screen,2_3_1_0_1_1,2022-04-28T12:36:21.865Z,,,,,,,,,,,,,,,,,12,,,,,,,,,,,,,,516.4090000119177,,response,,,,5,D,,,,,,Space,keypress(Space),,,,speech,,,,---- months ------ ------- ------ --- ------- -----------<br>-- ----- --- ---- -- --- ------ ---- - ---- -- ----------<br>-- ------ ---- --- ---- --- --- --- ----- -- -------- ---<br>------ ------- -------- --- ---- -- ------- ------------ --<br>------ -- ---- -- --- ---- -- -------- -- --- ------ ------,199176.5,199175.80000001192,198642.436,198643.40000000596,198659.391,199192.637,,1,months
screen,html.Screen,2_3_1_0_1_2,2022-04-28T12:36:22.180Z,,,,,,,,,,,,,,,,,12,,,,,,,,,,,,,,298.7630000059726,,response,,,,5,D,,,,,,Space,keypress(Space),,,,speech,,,,"---- ------ later, ------- ------ --- ------- -----------<br>-- ----- --- ---- -- --- ------ ---- - ---- -- ----------<br>-- ------ ---- --- ---- --- --- --- ----- -- -------- ---<br>------ ------- -------- --- ---- -- ------- ------------ --<br>------ -- ---- -- --- ---- -- -------- -- --- ------ ------",199492,199491.40000000596,199175.72,199176.59999999404,199192.637,199511.112,,2,"later,"
screen,html.Screen,2_3_1_0_1_3,2022-04-28T12:36:22.635Z,,,,,,,,,,,,,,,,,12,,,,,,,,,,,,,,434.8880000000063,,response,,,,5,D,,,,,,Space,keypress(Space),,,,speech,,,,---- ------ ------ Michael ------ --- ------- -----------<br>-- ----- --- ---- -- --- ------ ---- - ---- -- ----------<br>-- ------ ---- --- ---- --- --- --- ----- -- -------- ---<br>------ ------- -------- --- ---- -- ------- ------------ --<br>------ -- ---- -- --- ---- -- -------- -- --- ------ ------,199946.40000000596,199946,199475.798,199492.09999999404,199511.112,199959.194,,3,Michael
screen,html.Screen,2_3_1_0_1_4,2022-04-28T12:36:22.994Z,,,,,,,,,,,,,,,,,12,,,,,,,,,,,,,,345.90599999405094,,response,,,,5,D,,,,,,Space,keypress(Space),,,,speech,,,,---- ------ ------ ------- Larson --- ------- -----------<br>-- ----- --- ---- -- --- ------ ---- - ---- -- ----------<br>-- ------ ---- --- ---- --- --- --- ----- -- -------- ---<br>------ ------- -------- --- ---- -- ------- ------------ --<br>------ -- ---- -- --- ---- -- -------- -- --- ------ ------,200305.59999999404,200305.09999999404,199942.378,199946.5,199959.194,200309.26,,4,Larson
screen,html.Screen,2_3_1_0_1_5,2022-04-28T12:36:23.353Z,,,,,,,,,,,,,,,,,12,,,,,,,,,,,,,,355.4400000178721,,response,,,,5,D,,,,,,Space,keypress(Space),,,,speech,,,,---- ------ ------ ------- ------ saw ------- -----------<br>-- ----- --- ---- -- --- ------ ---- - ---- -- ----------<br>-- ------ ---- --- ---- --- --- --- ----- -- -------- ---<br>------ ------- -------- --- ---- -- ------- ------------ --<br>------ -- ---- -- --- ---- -- -------- -- --- ------ ------,200665.20000001788,200664.70000001788,200292.3,200305.59999999404,200309.26,200675.789,,5,saw
screen,html.Screen,2_3_1_0_1_6,2022-04-28T12:36:23.740Z,,,,,,,,,,,,,,,,,12,,,,,,,,,,,,,,375.6110000059707,,response,,,,5,D,,,,,,Space,keypress(Space),,,,speech,,,,---- ------ ------ ------- ------ --- another -----------<br>-- ----- --- ---- -- --- ------ ---- - ---- -- ----------<br>-- ------ ---- --- ---- --- --- --- ----- -- -------- ---<br>------ ------- -------- --- ---- -- ------- ------------ --<br>------ -- ---- -- --- ---- -- -------- -- --- ------ ------,201051.80000001192,201051.40000000596,200658.898,200665.30000001192,200675.789,201059.07,,6,another
screen,html.Screen,2_3_1_0_1_7,2022-04-28T12:36:24.188Z,,,,,,,,,,,,,,,,,12,,,,,,,,,,,,,,440.6300000178744,,response,,,,5,D,,,,,,Space,keypress(Space),,,,speech,,,,---- ------ ------ ------- ------ --- ------- opportunity<br>-- ----- --- ---- -- --- ------ ---- - ---- -- ----------<br>-- ------ ---- --- ---- --- --- --- ----- -- -------- ---<br>------ ------- -------- --- ---- -- ------- ------------ --<br>------ -- ---- -- --- ---- -- -------- -- --- ------ ------,201500.09999999404,201499.70000001788,201042.258,201051.90000000596,201059.07,201508.947,,7,opportunity
screen,html.Screen,2_3_1_0_1_8,2022-04-28T12:36:24.585Z,,,,,,,,,,,,,,,,,12,,,,,,,,,,,,,,387.65299999405397,,response,,,,5,D,,,,,,Space,keypress(Space),,,,speech,,,,---- ------ ------ ------- ------ --- ------- -----------<br>to ----- --- ---- -- --- ------ ---- - ---- -- ----------<br>-- ------ ---- --- ---- --- --- --- ----- -- -------- ---<br>------ ------- -------- --- ---- -- ------- ------------ --<br>------ -- ---- -- --- ---- -- -------- -- --- ------ ------,201897,201896.59999999404,201492.151,201500.20000001788,201508.947,201908.882,,8,to
screen,html.Screen,2_3_1_0_1_9,2022-04-28T12:36:24.942Z,,,,,,,,,,,,,,,,,12,,,,,,,,,,,,,,344.7179999940272,,response,,,,5,D,,,,,,Space,keypress(Space),,,,speech,,,,---- ------ ------ ------- ------ --- ------- -----------<br>-- stack --- ---- -- --- ------ ---- - ---- -- ----------<br>-- ------ ---- --- ---- --- --- --- ----- -- -------- ---<br>------ ------- -------- --- ---- -- ------- ------------ --<br>------ -- ---- -- --- ---- -- -------- -- --- ------ ------,202254,202253.59999999404,201892.027,201897.09999999404,201908.882,202259.062,,9,stack
screen,html.Screen,2_3_1_0_1_10,2022-04-28T12:36:25.342Z,,,,,,,,,,,,,,,,,12,,,,,,,,,,,,,,394.2380000119156,,response,,,,5,D,,,,,,Space,keypress(Space),,,,speech,,,,---- ------ ------ ------- ------ --- ------- -----------<br>-- ----- the ---- -- --- ------ ---- - ---- -- ----------<br>-- ------ ---- --- ---- --- --- --- ----- -- -------- ---<br>------ ------- -------- --- ---- -- ------- ------------ --<br>------ -- ---- -- --- ---- -- -------- -- --- ------ ------,202653.80000001192,202653.30000001192,202242.048,202254,202259.062,202659.002,,10,the
screen,html.Screen,2_3_1_0_1_11,2022-04-28T12:36:25.696Z,,,,,,,,,,,,,,,,,12,,,,,,,,,,,,,,348.8980000059528,,response,,,,5,D,,,,,,Space,keypress(Space),,,,speech,,,,---- ------ ------ ------- ------ --- ------- -----------<br>-- ----- --- odds -- --- ------ ---- - ---- -- ----------<br>-- ------ ---- --- ---- --- --- --- ----- -- -------- ---<br>------ ------- -------- --- ---- -- ------- ------------ --<br>------ -- ---- -- --- ---- -- -------- -- --- ------ ------,203008.30000001192,203007.90000000596,202641.996,202653.90000000596,202659.002,203042.152,,11,odds
screen,html.Screen,2_3_1_0_1_12,2022-04-28T12:36:26.050Z,,,,,,,,,,,,,,,,,12,,,,,,,,,,,,,,319.14800001191907,,response,,,,5,D,,,,,,Space,keypress(Space),,,,speech,,,,---- ------ ------ ------- ------ --- ------- -----------<br>-- ----- --- ---- in --- ------ ---- - ---- -- ----------<br>-- ------ ---- --- ---- --- --- --- ----- -- -------- ---<br>------ ------- -------- --- ---- -- ------- ------------ --<br>------ -- ---- -- --- ---- -- -------- -- --- ------ ------,203361.80000001192,203361.30000001192,203025.479,203008.30000001192,203042.152,203375.478,,12,in
screen,html.Screen,2_3_1_0_1_13,2022-04-28T12:36:26.419Z,,,,,,,,,,,,,,,,,12,,,,,,,,,,,,,,354.82200001191813,,response,,,,5,D,,,,,,Space,keypress(Space),,,,speech,,,,---- ------ ------ ------- ------ --- ------- -----------<br>-- ----- --- ---- -- his ------ ---- - ---- -- ----------<br>-- ------ ---- --- ---- --- --- --- ----- -- -------- ---<br>------ ------- -------- --- ---- -- ------- ------------ --<br>------ -- ---- -- --- ---- -- -------- -- --- ------ ------,203730.70000001788,203730.30000001192,203358.561,203361.90000000596,203375.478,203742.108,,13,his
screen,html.Screen,2_3_1_0_1_14,2022-04-28T12:36:26.738Z,,,,,,,,,,,,,,,,,12,,,,,,,,,,,,,,307.09200001787394,,response,,,,5,D,,,,,,Space,keypress(Space),,,,speech,,,,---- ------ ------ ------- ------ --- ------- -----------<br>-- ----- --- ---- -- --- favour ---- - ---- -- ----------<br>-- ------ ---- --- ---- --- --- --- ----- -- -------- ---<br>------ ------- -------- --- ---- -- ------- ------------ --<br>------ -- ---- -- --- ---- -- -------- -- --- ------ ------,204049.59999999404,204049.20000001788,203725.207,203730.90000000596,203742.108,204058.579,,14,favour
screen,html.Screen,2_3_1_0_1_15,2022-04-28T12:36:27.096Z,,,,,,,,,,,,,,,,,12,,,,,,,,,,,,,,348.721000011923,,response,,,,5,D,,,,,,Space,keypress(Space),,,,speech,,,,---- ------ ------ ------- ------ --- ------- -----------<br>-- ----- --- ---- -- --- ------ with - ---- -- ----------<br>-- ------ ---- --- ---- --- --- --- ----- -- -------- ---<br>------ ------- -------- --- ---- -- ------- ------------ --<br>------ -- ---- -- --- ---- -- -------- -- --- ------ ------,204407.80000001192,204407.30000001192,204041.907,204049.70000001788,204058.579,204432.322,,15,with
screen,html.Screen,2_3_1_0_1_16,2022-04-28T12:36:27.398Z,,,,,,,,,,,,,,,,,12,,,,,,,,,,,,,,277.17800000001444,,response,,,,5,D,,,,,,Space,keypress(Space),,,,speech,,,,---- ------ ------ ------- ------ --- ------- -----------<br>-- ----- --- ---- -- --- ------ ---- a ---- -- ----------<br>-- ------ ---- --- ---- --- --- --- ----- -- -------- ---<br>------ ------- -------- --- ---- -- ------- ------------ --<br>------ -- ---- -- --- ---- -- -------- -- --- ------ ------,204710.09999999404,204709.5,204391.747,204407.90000000596,204432.322,204725.265,,16,a
screen,html.Screen,2_3_1_0_1_17,2022-04-28T12:36:27.718Z,,,,,,,,,,,,,,,,,12,,,,,,,,,,,,,,303.73499999998603,,response,,,,5,D,,,,,,Space,keypress(Space),,,,speech,,,,---- ------ ------ ------- ------ --- ------- -----------<br>-- ----- --- ---- -- --- ------ ---- - dash -- ----------<br>-- ------ ---- --- ---- --- --- --- ----- -- -------- ---<br>------ ------- -------- --- ---- -- ------- ------------ --<br>------ -- ---- -- --- ---- -- -------- -- --- ------ ------,205029.59999999404,205029,204708.468,204710.20000001788,204725.265,205041.813,,17,dash
screen,html.Screen,2_3_1_0_1_18,2022-04-28T12:36:28.060Z,,,,,,,,,,,,,,,,,12,,,,,,,,,,,,,,329.7869999940449,,response,,,,5,D,,,,,,Space,keypress(Space),,,,speech,,,,---- ------ ------ ------- ------ --- ------- -----------<br>-- ----- --- ---- -- --- ------ ---- - ---- of ----------<br>-- ------ ---- --- ---- --- --- --- ----- -- -------- ---<br>------ ------- -------- --- ---- -- ------- ------------ --<br>------ -- ---- -- --- ---- -- -------- -- --- ------ ------,205372.30000001192,205371.59999999404,205025.078,205029.70000001788,205041.813,205375.101,,18,of
screen,html.Screen,2_3_1_0_1_19,2022-04-28T12:36:28.434Z,,,,,,,,,,,,,,,,,12,,,,,,,,,,,,,,370.5990000178863,,response,,,,5,D,,,,,,Space,keypress(Space),,,,speech,,,,---- ------ ------ ------- ------ --- ------- -----------<br>-- ----- --- ---- -- --- ------ ---- - ---- -- ingenuity.<br>-- ------ ---- --- ---- --- --- --- ----- -- -------- ---<br>------ ------- -------- --- ---- -- ------- ------------ --<br>------ -- ---- -- --- ---- -- -------- -- --- ------ ------,205746.20000001788,205745.70000001788,205358.328,205372.30000001192,205375.101,205758.498,,19,ingenuity.
screen,html.Screen,2_3_1_0_1_20,2022-04-28T12:36:28.823Z,,,,,,,,,,,,,,,,,12,,,,,,,,,,,,,,375.7020000178891,,response,,,,5,D,,,,,,Space,keypress(Space),,,,speech,,,,---- ------ ------ ------- ------ --- ------- -----------<br>-- ----- --- ---- -- --- ------ ---- - ---- -- ----------<br>He ------ ---- --- ---- --- --- --- ----- -- -------- ---<br>------ ------- -------- --- ---- -- ------- ------------ --<br>------ -- ---- -- --- ---- -- -------- -- --- ------ ------,206134.59999999404,206134.20000001788,205741.549,205749.5,205758.498,206141.746,,20,He
screen,html.Screen,2_3_1_0_1_21,2022-04-28T12:36:29.151Z,,,,,,,,,,,,,,,,,12,,,,,,,,,,,,,,320.6540000059467,,response,,,,5,D,,,,,,Space,keypress(Space),,,,speech,,,,---- ------ ------ ------- ------ --- ------- -----------<br>-- ----- --- ---- -- --- ------ ---- - ---- -- ----------<br>-- walked ---- --- ---- --- --- --- ----- -- -------- ---<br>------ ------- -------- --- ---- -- ------- ------------ --<br>------ -- ---- -- --- ---- -- -------- -- --- ------ ------,206462.90000000596,206462.40000000596,206124.856,206134.70000001788,206141.746,206475.008,,21,walked
screen,html.Screen,2_3_1_0_1_22,2022-04-28T12:36:29.453Z,,,,,,,,,,,,,,,,,12,,,,,,,,,,,,,,289.69200001787976,,response,,,,5,D,,,,,,Space,keypress(Space),,,,speech,,,,---- ------ ------ ------- ------ --- ------- -----------<br>-- ----- --- ---- -- --- ------ ---- - ---- -- ----------<br>-- ------ into --- ---- --- --- --- ----- -- -------- ---<br>------ ------- -------- --- ---- -- ------- ------------ --<br>------ -- ---- -- --- ---- -- -------- -- --- ------ ------,206765.09999999404,206764.70000001788,206458.224,206462.90000000596,206475.008,206775.006,,22,into
screen,html.Screen,2_3_1_0_1_23,2022-04-28T12:36:29.704Z,,,,,,,,,,,,,,,,,12,,,,,,,,,,,,,,240.79400001192698,,response,,,,5,D,,,,,,Space,keypress(Space),,,,speech,,,,---- ------ ------ ------- ------ --- ------- -----------<br>-- ----- --- ---- -- --- ------ ---- - ---- -- ----------<br>-- ------ ---- his ---- --- --- --- ----- -- -------- ---<br>------ ------- -------- --- ---- -- ------- ------------ --<br>------ -- ---- -- --- ---- -- -------- -- --- ------ ------,207016.30000001192,207015.80000001192,206758.211,206765.20000001788,206775.006,207024.916,,23,his
screen,html.Screen,2_3_1_0_1_24,2022-04-28T12:36:30.027Z,,,,,,,,,,,,,,,,,12,,,,,,,,,,,,,,313.3840000119235,,response,,,,5,D,,,,,,Space,keypress(Space),,,,speech,,,,---- ------ ------ ------- ------ --- ------- -----------<br>-- ----- --- ---- -- --- ------ ---- - ---- -- ----------<br>-- ------ ---- --- bank --- --- --- ----- -- -------- ---<br>------ ------- -------- --- ---- -- ------- ------------ --<br>------ -- ---- -- --- ---- -- -------- -- --- ------ ------,207338.90000000596,207338.30000001192,207008.216,207016.30000001192,207024.916,207341.52,,24,bank
screen,html.Screen,2_3_1_0_1_25,2022-04-28T12:36:30.345Z,,,,,,,,,,,,,,,,,12,,,,,,,,,,,,,,314.68000001789187,,response,,,,5,D,,,,,,Space,keypress(Space),,,,speech,,,,---- ------ ------ ------- ------ --- ------- -----------<br>-- ----- --- ---- -- --- ------ ---- - ---- -- ----------<br>-- ------ ---- --- ---- one --- --- ----- -- -------- ---<br>------ ------- -------- --- ---- -- ------- ------------ --<br>------ -- ---- -- --- ---- -- -------- -- --- ------ ------,207656.59999999404,207656.20000001788,207324.808,207339,207341.52,207658.127,,25,one
screen,html.Screen,2_3_1_0_1_26,2022-04-28T12:36:30.674Z,,,,,,,,,,,,,,,,,12,,,,,,,,,,,,,,327.0730000178737,,response,,,,5,D,,,,,,Space,keypress(Space),,,,speech,,,,---- ------ ------ ------- ------ --- ------- -----------<br>-- ----- --- ---- -- --- ------ ---- - ---- -- ----------<br>-- ------ ---- --- ---- --- day --- ----- -- -------- ---<br>------ ------- -------- --- ---- -- ------- ------------ --<br>------ -- ---- -- --- ---- -- -------- -- --- ------ ------,207985.59999999404,207985.20000001788,207641.421,207656.70000001788,207658.127,207991.483,,26,day
screen,html.Screen,2_3_1_0_1_27,2022-04-28T12:36:30.997Z,,,,,,,,,,,,,,,,,12,,,,,,,,,,,,,,316.51699999999255,,response,,,,5,D,,,,,,Space,keypress(Space),,,,speech,,,,---- ------ ------ ------- ------ --- ------- -----------<br>-- ----- --- ---- -- --- ------ ---- - ---- -- ----------<br>-- ------ ---- --- ---- --- --- and ----- -- -------- ---<br>------ ------- -------- --- ---- -- ------- ------------ --<br>------ -- ---- -- --- ---- -- -------- -- --- ------ ------,208308.5,208308,207974.712,207985.70000001788,207991.483,208324.837,,27,and
screen,html.Screen,2_3_1_0_1_28,2022-04-28T12:36:31.344Z,,,,,,,,,,,,,,,,,12,,,,,,,,,,,,,,330.26299999404,,response,,,,5,D,,,,,,Space,keypress(Space),,,,speech,,,,---- ------ ------ ------- ------ --- ------- -----------<br>-- ----- --- ---- -- --- ------ ---- - ---- -- ----------<br>-- ------ ---- --- ---- --- --- --- asked -- -------- ---<br>------ ------- -------- --- ---- -- ------- ------------ --<br>------ -- ---- -- --- ---- -- -------- -- --- ------ ------,208655.5,208655.09999999404,208308.005,208308.5,208324.837,208658.086,,28,asked
screen,html.Screen,2_3_1_0_1_29,2022-04-28T12:36:31.681Z,,,,,,,,,,,,,,,,,12,,,,,,,,,,,,,,334.7140000119107,,response,,,,5,D,,,,,,Space,keypress(Space),,,,speech,,,,---- ------ ------ ------- ------ --- ------- -----------<br>-- ----- --- ---- -- --- ------ ---- - ---- -- ----------<br>-- ------ ---- --- ---- --- --- --- ----- to -------- ---<br>------ ------- -------- --- ---- -- ------- ------------ --<br>------ -- ---- -- --- ---- -- -------- -- --- ------ ------,208993.30000001192,208992.80000001192,208641.309,208655.59999999404,208658.086,209007.987,,29,to
screen,html.Screen,2_3_1_0_1_30,2022-04-28T12:36:32.042Z,,,,,,,,,,,,,,,,,12,,,,,,,,,,,,,,345.0130000000063,,response,,,,5,D,,,,,,Space,keypress(Space),,,,speech,,,,---- ------ ------ ------- ------ --- ------- -----------<br>-- ----- --- ---- -- --- ------ ---- - ---- -- ----------<br>-- ------ ---- --- ---- --- --- --- ----- -- withdraw ---<br>------ ------- -------- --- ---- -- ------- ------------ --<br>------ -- ---- -- --- ---- -- -------- -- --- ------ ------,209353.40000000596,209353,208991.211,208993.40000000596,209007.987,209358.101,,30,withdraw
screen,html.Screen,2_3_1_0_1_31,2022-04-28T12:36:32.379Z,,,,,,,,,,,,,,,,,12,,,,,,,,,,,,,,332.1990000119258,,response,,,,5,D,,,,,,Space,keypress(Space),,,,speech,,,,---- ------ ------ ------- ------ --- ------- -----------<br>-- ----- --- ---- -- --- ------ ---- - ---- -- ----------<br>-- ------ ---- --- ---- --- --- --- ----- -- -------- his<br>------ ------- -------- --- ---- -- ------- ------------ --<br>------ -- ---- -- --- ---- -- -------- -- --- ------ ------,209690.90000000596,209690.30000001192,209341.139,209353.59999999404,209358.101,209707.984,,31,his
screen,html.Screen,2_3_1_0_1_32,2022-04-28T12:36:32.700Z,,,,,,,,,,,,,,,,,12,,,,,,,,,,,,,,303.8160000119242,,response,,,,5,D,,,,,,Space,keypress(Space),,,,speech,,,,---- ------ ------ ------- ------ --- ------- -----------<br>-- ----- --- ---- -- --- ------ ---- - ---- -- ----------<br>-- ------ ---- --- ---- --- --- --- ----- -- -------- ---<br>entire ------- -------- --- ---- -- ------- ------------ --<br>------ -- ---- -- --- ---- -- -------- -- --- ------ ------,210012.20000001788,210011.80000001192,209691.153,209691,209707.984,210024.599,,32,entire
screen,html.Screen,2_3_1_0_1_33,2022-04-28T12:36:33.048Z,,,,,,,,,,,,,,,,,12,,,,,,,,,,,,,,335.10100001789397,,response,,,,5,D,,,,,,Space,keypress(Space),,,,speech,,,,---- ------ ------ ------- ------ --- ------- -----------<br>-- ----- --- ---- -- --- ------ ---- - ---- -- ----------<br>-- ------ ---- --- ---- --- --- --- ----- -- -------- ---<br>------ account -------- --- ---- -- ------- ------------ --<br>------ -- ---- -- --- ---- -- -------- -- --- ------ ------,210360.20000001788,210359.70000001788,210007.785,210012.30000001192,210024.599,210374.477,,33,account
screen,html.Screen,2_3_1_0_1_34,2022-04-28T12:36:33.365Z,,,,,,,,,,,,,,,,,12,,,,,,,,,,,,,,301.42300000594696,,response,,,,5,D,,,,,,Space,keypress(Space),,,,speech,,,,"---- ------ ------ ------- ------ --- ------- -----------<br>-- ----- --- ---- -- --- ------ ---- - ---- -- ----------<br>-- ------ ---- --- ---- --- --- --- ----- -- -------- ---<br>------ ------- balance, --- ---- -- ------- ------------ --<br>------ -- ---- -- --- ---- -- -------- -- --- ------ ------",210676.40000000596,210675.90000000596,210357.653,210360.30000001192,210374.477,210691.176,,34,"balance,"
screen,html.Screen,2_3_1_0_1_35,2022-04-28T12:36:33.714Z,,,,,,,,,,,,,,,,,12,,,,,,,,,,,,,,333.52400001787464,,response,,,,5,D,,,,,,Space,keypress(Space),,,,speech,,,,---- ------ ------ ------- ------ --- ------- -----------<br>-- ----- --- ---- -- --- ------ ---- - ---- -- ----------<br>-- ------ ---- --- ---- --- --- --- ----- -- -------- ---<br>------ ------- -------- but ---- -- ------- ------------ --<br>------ -- ---- -- --- ---- -- -------- -- --- ------ ------,211025.30000001192,211024.70000001788,210674.381,210676.5,210691.176,211041.147,,35,but
screen,html.Screen,2_3_1_0_1_36,2022-04-28T12:36:34.075Z,,,,,,,,,,,,,,,,,12,,,,,,,,,,,,,,345.5530000178842,,response,,,,5,D,,,,,,Space,keypress(Space),,,,speech,,,,---- ------ ------ ------- ------ --- ------- -----------<br>-- ----- --- ---- -- --- ------ ---- - ---- -- ----------<br>-- ------ ---- --- ---- --- --- --- ----- -- -------- ---<br>------ ------- -------- --- with -- ------- ------------ --<br>------ -- ---- -- --- ---- -- -------- -- --- ------ ------,211387.20000001788,211386.70000001788,211024.324,211025.40000000596,211041.147,211391.243,,36,with
screen,html.Screen,2_3_1_0_1_37,2022-04-28T12:36:34.408Z,,,,,,,,,,,,,,,,,12,,,,,,,,,,,,,,328.1570000059728,,response,,,,5,D,,,,,,Space,keypress(Space),,,,speech,,,,---- ------ ------ ------- ------ --- ------- -----------<br>-- ----- --- ---- -- --- ------ ---- - ---- -- ----------<br>-- ------ ---- --- ---- --- --- --- ----- -- -------- ---<br>------ ------- -------- --- ---- an ------- ------------ --<br>------ -- ---- -- --- ---- -- -------- -- --- ------ ------,211720.09999999404,211719.40000000596,211374.184,211387.30000001192,211391.243,211724.539,,37,an
screen,html.Screen,2_3_1_0_1_38,2022-04-28T12:36:34.767Z,,,,,,,,,,,,,,,,,12,,,,,,,,,,,,,,353.5609999940498,,response,,,,5,D,,,,,,Space,keypress(Space),,,,speech,,,,---- ------ ------ ------- ------ --- ------- -----------<br>-- ----- --- ---- -- --- ------ ---- - ---- -- ----------<br>-- ------ ---- --- ---- --- --- --- ----- -- -------- ---<br>------ ------- -------- --- ---- -- unusual ------------ --<br>------ -- ---- -- --- ---- -- -------- -- --- ------ ------,212078.59999999404,212078.09999999404,211707.57,211720.30000001192,211724.539,212091.03,,38,unusual
screen,html.Screen,2_3_1_0_1_39,2022-04-28T12:36:35.141Z,,,,,,,,,,,,,,,,,12,,,,,,,,,,,,,,361.37000000596163,,response,,,,5,D,,,,,,Space,keypress(Space),,,,speech,,,,---- ------ ------ ------- ------ --- ------- -----------<br>-- ----- --- ---- -- --- ------ ---- - ---- -- ----------<br>-- ------ ---- --- ---- --- --- --- ----- -- -------- ---<br>------ ------- -------- --- ---- -- ------- stipulation: --<br>------ -- ---- -- --- ---- -- -------- -- --- ------ ------,212453,212452.40000000596,212074.167,212078.70000001788,212091.03,212457.901,,39,stipulation:
screen,html.Screen,2_3_1_0_1_40,2022-04-28T12:36:35.614Z,,,,,,,,,,,,,,,,,12,,,,,,,,,,,,,,467.69899999402696,,response,,,,5,D,,,,,,Space,keypress(Space),,,,speech,,,,---- ------ ------ ------- ------ --- ------- -----------<br>-- ----- --- ---- -- --- ------ ---- - ---- -- ----------<br>-- ------ ---- --- ---- --- --- --- ----- -- -------- ---<br>------ ------- -------- --- ---- -- ------- ------------ He<br>------ -- ---- -- --- ---- -- -------- -- --- ------ ------,212926,212925.59999999404,212440.804,212453.09999999404,212457.901,212940.909,,40,He
screen,html.Screen,2_3_1_0_1_41,2022-04-28T12:36:36.006Z,,,,,,,,,,,,,,,,,12,,,,,,,,,,,,,,375.8910000119067,,response,,,,5,D,,,,,,Space,keypress(Space),,,,speech,,,,---- ------ ------ ------- ------ --- ------- -----------<br>-- ----- --- ---- -- --- ------ ---- - ---- -- ----------<br>-- ------ ---- --- ---- --- --- --- ----- -- -------- ---<br>------ ------- -------- --- ---- -- ------- ------------ --<br>wanted -- ---- -- --- ---- -- -------- -- --- ------ ------,213317.30000001192,213316.80000001192,212923.987,212926.20000001788,212940.909,213324.147,,41,wanted
screen,html.Screen,2_3_1_0_1_42,2022-04-28T12:36:36.367Z,,,,,,,,,,,,,,,,,12,,,,,,,,,,,,,,353.75300000596326,,response,,,,5,D,,,,,,Space,keypress(Space),,,,speech,,,,---- ------ ------ ------- ------ --- ------- -----------<br>-- ----- --- ---- -- --- ------ ---- - ---- -- ----------<br>-- ------ ---- --- ---- --- --- --- ----- -- -------- ---<br>------ ------- -------- --- ---- -- ------- ------------ --<br>------ as ---- -- --- ---- -- -------- -- --- ------ ------,213678.30000001192,213677.90000000596,213307.338,213317.40000000596,213324.147,213690.762,,42,as
