sender,sender_type,sender_id,timestamp,meta,,Blues,Classical,Country,Dance,Electronic,Folk,Gospel,Hip-Hop,Jazz,Latin,Musical/Film,New-age,Pop,Prolific_id,Provo_ID,R&B,Rap,Reggae,Religious,Rock,Soul,Swing,Traditional,age,artist_name,correct,correctResponse,distraction,duration,education,ended_on,familiarity,gender,headphone_check_performance,item,list,music_frequency,offensiveness,pleasantness,position_correct,preference,response,response_action,snippet_file,song_name,song_rating,sound,stimulus_1,stimulus_2,stimulus_3,text,time_commit,time_end,time_render,time_run,time_show,time_switch,url,word,word_ID
Prolific ID,html.Form,0,2022-05-10T20:47:06.636Z,"{""labjs_version"":""20.2.2"",""labjs_build"":{""flavor"":""production"",""commit"":""a25486e0c714a0ae2ce03ff94b7bb6896854dcfa""},""location"":""https://run.pavlovia.org/mvasilev/prolific3_music_b/"",""userAgent"":""Mozilla/5.0 (Macintosh; Intel Mac OS X 10.15; rv:99.0) Gecko/20100101 Firefox/99.0"",""platform"":""MacIntel"",""language"":""en-US"",""locale"":""en-GB"",""timeZone"":""Europe/London"",""timezoneOffset"":-60,""screen_width"":1920,""screen_height"":1080,""scroll_width"":1822,""scroll_height"":905,""window_innerWidth"":1822,""window_innerHeight"":953,""devicePixelRatio"":1}",,,,,,,,,,,,,,,574c19047fd0ec0006b655ec,,,,,,,,,,,,,,,9311.16,,form submission,,,,,,,,,,,,,,,,,,,,,22192,22191,12879.02,12879,12879.84,22257.62,{},,
Introduction,html.Screen,1_0,2022-05-10T20:47:10.445Z,,,,,,,,,,,,,,,,,,,,,,,,,,,,,,,3739.380000000001,,response,,,,,,,,,,,continue,click button,,,,,,,,,26000,25997,22185.12,22192,22257.62,25999.46,,,
Volume calibration,html.Screen,1_1,2022-05-10T20:47:25.531Z,,,,,,,,,,,,,,,,,,,,,,,,,,,,,,,15085.54,,response,,,,,,,,,,,continue,click button,,,,,,,,,41087,41085,25999.02,26000,25999.46,41094.68,,,
Task instructions,html.Screen,1_2,2022-05-10T20:47:37.412Z,,,,,,,,,,,,,,,,,,,,,,,,,,,,,,,11871.32,,response,,,,,,,,,,,continue,click button,,,,,,,,,52968,52966,41085.98,41087,41094.68,52967.22,,,
Sounds,html.Screen,1_3_0_0,2022-05-10T20:47:41.641Z,,,,,,,,,,,,,,,,,,,,,,,,,,,,,,,4246.580000000002,,timeout,,,,,,,,,2,,,,,,,,I,S,O,,57197,57197.1,52966.76,52969,52967.22,57213.8,,,
Judgement,html.Screen,1_3_0_1,2022-05-10T20:47:42.721Z,,,,,,,,,,,,,,,,,,,,,,,,,,,,true,2,,1061.199999999997,,response,,,,,,,,,2,,2,click #choice-2,,,,,I,S,O,,58277,58275,57197.1,57198,57213.8,58277.34,,,
Trial,flow.Sequence,1_3_0,2022-05-10T20:47:42.722Z,,,,,,,,,,,,,,,,,,,,,,,,,,,,,,,5307.779999999999,,completion,,,,,,,,,2,,,,,,,,I,S,O,,58278,58275,52966.76,52968,52967.22,58277.34,,,
Sounds,html.Screen,1_3_1_0,2022-05-10T20:47:46.947Z,,,,,,,,,,,,,,,,,,,,,,,,,,,,,,,4242.480000000003,,timeout,,,,,,,,,1,,,,,,,,S,I,O,,62504,62503.12,58276.9,58279,58277.34,62519.82,,,
Judgement,html.Screen,1_3_1_1,2022-05-10T20:47:48.031Z,,,,,,,,,,,,,,,,,,,,,,,,,,,,true,1,,1066.1800000000003,,response,,,,,,,,,1,,1,click #choice-1,,,,,S,I,O,,63588,63586,62503.12,62504,62519.82,63587.7,,,
Trial,flow.Sequence,1_3_1,2022-05-10T20:47:48.031Z,,,,,,,,,,,,,,,,,,,,,,,,,,,,,,,5308.6600000000035,,completion,,,,,,,,,1,,,,,,,,S,I,O,,63589,63586,58276.9,58279,58277.34,63587.7,,,
Sounds,html.Screen,1_3_2_0,2022-05-10T20:47:52.269Z,,,,,,,,,,,,,,,,,,,,,,,,,,,,,,,4253.820000000007,,timeout,,,,,,,,,3,,,,,,,,I,O,S,,67827,67825.78,63587.24,63589,63587.7,67841.52,,,
Judgement,html.Screen,1_3_2_1,2022-05-10T20:47:53.183Z,,,,,,,,,,,,,,,,,,,,,,,,,,,,true,3,,897.4799999999959,,response,,,,,,,,,3,,3,click #choice-3,,,,,I,O,S,,68741,68739,67825.78,67827,67841.52,68740.42,,,
Trial,flow.Sequence,1_3_2,2022-05-10T20:47:53.184Z,,,,,,,,,,,,,,,,,,,,,,,,,,,,,,,5151.300000000003,,completion,,,,,,,,,3,,,,,,,,I,O,S,,68741,68739,63587.24,63589,63587.7,68740.42,,,
Sounds,html.Screen,1_3_3_0,2022-05-10T20:47:57.425Z,,,,,,,,,,,,,,,,,,,,,,,,,,,,,,,4257.800000000003,,timeout,,,,,,,,,3,,,,,,,,O,I,S,,72982,72981.48,68739.98,68742,68740.42,72998.22,,,
Judgement,html.Screen,1_3_3_1,2022-05-10T20:47:57.897Z,,,,,,,,,,,,,,,,,,,,,,,,,,,,true,3,,454.77999999999884,,response,,,,,,,,,3,,3,click #choice-3,,,,,O,I,S,,73455,73453,72981.48,72982,72998.22,73454.24,,,
Trial,flow.Sequence,1_3_3,2022-05-10T20:47:57.897Z,,,,,,,,,,,,,,,,,,,,,,,,,,,,,,,4712.580000000002,,completion,,,,,,,,,3,,,,,,,,O,I,S,,73455,73453,68739.98,68742,68740.42,73454.24,,,
Sounds,html.Screen,1_3_4_0,2022-05-10T20:48:02.130Z,,,,,,,,,,,,,,,,,,,,,,,,,,,,,,,4249.3399999999965,,timeout,,,,,,,,,2,,,,,,,,O,S,I,,77688,77686.76,73453.82,73455,73454.24,77703.58,,,
Judgement,html.Screen,1_3_4_1,2022-05-10T20:48:02.747Z,,,,,,,,,,,,,,,,,,,,,,,,,,,,true,2,,598.4199999999983,,response,,,,,,,,,2,,2,click #choice-2,,,,,O,S,I,,78304,78302,77686.76,77689,77703.58,78303.4,,,
Trial,flow.Sequence,1_3_4,2022-05-10T20:48:02.747Z,,,,,,,,,,,,,,,,,,,,,,,,,,,,,,,4847.759999999995,,completion,,,,,,,,,2,,,,,,,,O,S,I,,78305,78302,73453.82,73455,73454.24,78303.4,,,
Sounds,html.Screen,1_3_5_0,2022-05-10T20:48:06.985Z,,,,,,,,,,,,,,,,,,,,,,,,,,,,,,,4255.639999999999,,timeout,,,,,,,,,1,,,,,,,,S,O,I,,82543,82542.28,78303,78306,78303.4,82559.04,,,
Judgement,html.Screen,1_3_5_1,2022-05-10T20:48:07.628Z,,,,,,,,,,,,,,,,,,,,,,,,,,,,true,1,,624.9600000000064,,response,,,,,,,,,1,,1,click #choice-1,,,,,S,O,I,,83187,83184,82542.28,82543,82559.04,83186.14,,,
Trial,flow.Sequence,1_3_5,2022-05-10T20:48:07.629Z,,,,,,,,,,,,,,,,,,,,,,,,,,,,,,,4880.600000000006,,completion,,,,,,,,,1,,,,,,,,S,O,I,,83187,83184,78303,78306,78303.4,83186.14,,,
Task,flow.Loop,1_3,2022-05-10T20:48:07.630Z,,,,,,,,,,,,,,,,,,,,,,,,,,,,,,,30216.78,,completion,,,1,,,,,,,,,,,,,,,,,,83188,83184,52966.76,52968,52967.22,83186.14,,,
Trap,html.Screen,1_4,2022-05-10T20:48:07.633Z,,,,,,,,,,,,,,,,,,,,,,,,,,,,,,,NaN,,skipped,,,,,,,,,,,,,,,,,,,,,83191,83184,,83191,,83186.14,,,
Thanks,html.Screen,1_5,2022-05-10T20:48:28.735Z,,,,,,,,,,,,,,,,,,,,,,,,,,,,,,,21105.86,,response,,,,,,,,,,,continue,click button,,,,,,,,,104294,104292,83185.68,83191,83186.14,106435.4,,,
Headphone screening,flow.Sequence,1,2022-05-10T20:48:28.736Z,,,,,,,,,,,,,,,,,,,,,,,,,,,,,,,82034.38,,completion,,,,,,,,,,,,,,,,,,,,,104295,104292,22185.12,22192,22257.62,106435.4,,,
Instructions,html.Page,2_0,2022-05-10T20:48:40.312Z,,,,,,,,,,,,,,,,,,,,,,,,,,,,,,,9436.600000000006,,form submission,,,,,,,,,,,,,,,,,,,,,115873,115872,106409.38,106409,106435.4,115869.3,,,
Holding screen,html.Screen,2_1_0_0,2022-05-10T20:48:50.298Z,,,,,,,,,,,,,,,,,,,,,,,,,,,,,,,10038.699999999997,,timeout,,,,,,,,,,,,,,,,,,,,,125858,125858.04,115868.72,115873,115869.3,125908,,,
screen,html.Screen,2_1_0_1_0,2022-05-10T20:48:51.105Z,,,,,,,,,,,,,,,,,53,,,,,,,,,,,,,,752,,response,,,,99,,,,,,,Space,keypress(Space),,,,,,,,When -- ----- -- ------ - ------- --- ----------<br>------------- ------ ------ ---- ---- ------- ----- -- ----<br>-------- ------- -- ---------- --- - --- ----- ----- ----<br>---- --- --- ----- --- ---- ---- ------- ----- ---- -------<br>--- --- -- ----- -- --- ---- -- --- ---- -- ------ ------<br>--- ----- -- ----,126666,126660,125858.04,125858,125908,126666.2,,0,When
screen,html.Screen,2_1_0_1_1,2022-05-10T20:48:51.455Z,,,,,,,,,,,,,,,,,53,,,,,,,,,,,,,,342.8000000000029,,response,,,,99,,,,,,,Space,keypress(Space),,,,,,,,---- it ----- -- ------ - ------- --- ----------<br>------------- ------ ------ ---- ---- ------- ----- -- ----<br>-------- ------- -- ---------- --- - --- ----- ----- ----<br>---- --- --- ----- --- ---- ---- ------- ----- ---- -------<br>--- --- -- ----- -- --- ---- -- --- ---- -- ------ ------<br>--- ----- -- ----,127015,127009,126665.5,126666,126666.2,127015.76,,1,it
screen,html.Screen,2_1_0_1_2,2022-05-10T20:48:51.677Z,,,,,,,,,,,,,,,,,53,,,,,,,,,,,,,,219.24000000000524,,response,,,,99,,,,,,,Space,keypress(Space),,,,,,,,---- -- comes -- ------ - ------- --- ----------<br>------------- ------ ------ ---- ---- ------- ----- -- ----<br>-------- ------- -- ---------- --- - --- ----- ----- ----<br>---- --- --- ----- --- ---- ---- ------- ----- ---- -------<br>--- --- -- ----- -- --- ---- -- --- ---- -- ------ ------<br>--- ----- -- ----,127237,127235,127015.1,127015,127015.76,127238.26,,2,comes
screen,html.Screen,2_1_0_1_3,2022-05-10T20:48:51.870Z,,,,,,,,,,,,,,,,,53,,,,,,,,,,,,,,186.74000000000524,,response,,,,99,,,,,,,Space,keypress(Space),,,,,,,,---- -- ----- to ------ - ------- --- ----------<br>------------- ------ ------ ---- ---- ------- ----- -- ----<br>-------- ------- -- ---------- --- - --- ----- ----- ----<br>---- --- --- ----- --- ---- ---- ------- ----- ---- -------<br>--- --- -- ----- -- --- ---- -- --- ---- -- ------ ------<br>--- ----- -- ----,127431,127425,127237.6,127237,127238.26,127443.12,,3,to
screen,html.Screen,2_1_0_1_4,2022-05-10T20:48:52.071Z,,,,,,,,,,,,,,,,,53,,,,,,,,,,,,,,184.88000000000466,,response,,,,99,,,,,,,Space,keypress(Space),,,,,,,,---- -- ----- -- having - ------- --- ----------<br>------------- ------ ------ ---- ---- ------- ----- -- ----<br>-------- ------- -- ---------- --- - --- ----- ----- ----<br>---- --- --- ----- --- ---- ---- ------- ----- ---- -------<br>--- --- -- ----- -- --- ---- -- --- ---- -- ------ ------<br>--- ----- -- ----,127631,127628,127430.62,127431,127443.12,127643.38,,4,having
screen,html.Screen,2_1_0_1_5,2022-05-10T20:48:52.298Z,,,,,,,,,,,,,,,,,53,,,,,,,,,,,,,,209.61999999999534,,response,,,,99,,,,,,,Space,keypress(Space),,,,,,,,---- -- ----- -- ------ a ------- --- ----------<br>------------- ------ ------ ---- ---- ------- ----- -- ----<br>-------- ------- -- ---------- --- - --- ----- ----- ----<br>---- --- --- ----- --- ---- ---- ------- ----- ---- -------<br>--- --- -- ----- -- --- ---- -- --- ---- -- ------ ------<br>--- ----- -- ----,127858,127853,127631.56,127632,127643.38,127858.94,,5,a
screen,html.Screen,2_1_0_1_6,2022-05-10T20:48:52.510Z,,,,,,,,,,,,,,,,,53,,,,,,,,,,,,,,208.05999999999767,,response,,,,99,,,,,,,Space,keypress(Space),,,,,,,,---- -- ----- -- ------ - lasting --- ----------<br>------------- ------ ------ ---- ---- ------- ----- -- ----<br>-------- ------- -- ---------- --- - --- ----- ----- ----<br>---- --- --- ----- --- ---- ---- ------- ----- ---- -------<br>--- --- -- ----- -- --- ---- -- --- ---- -- ------ ------<br>--- ----- -- ----,128070,128067,127858.34,127859,127858.94,128076.98,,6,lasting
screen,html.Screen,2_1_0_1_7,2022-05-10T20:48:52.725Z,,,,,,,,,,,,,,,,,53,,,,,,,,,,,,,,204.02000000000407,,response,,,,99,,,,,,,Space,keypress(Space),,,,,,,,---- -- ----- -- ------ - ------- and ----------<br>------------- ------ ------ ---- ---- ------- ----- -- ----<br>-------- ------- -- ---------- --- - --- ----- ----- ----<br>---- --- --- ----- --- ---- ---- ------- ----- ---- -------<br>--- --- -- ----- -- --- ---- -- --- ---- -- ------ ------<br>--- ----- -- ----,128286,128281,128070.44,128070,128076.98,128286.58,,7,and
screen,html.Screen,2_1_0_1_8,2022-05-10T20:48:52.915Z,,,,,,,,,,,,,,,,,53,,,,,,,,,,,,,,184.41999999999825,,response,,,,99,,,,,,,Space,keypress(Space),,,,,,,,---- -- ----- -- ------ - ------- --- fulfilling<br>------------- ------ ------ ---- ---- ------- ----- -- ----<br>-------- ------- -- ---------- --- - --- ----- ----- ----<br>---- --- --- ----- --- ---- ---- ------- ----- ---- -------<br>--- --- -- ----- -- --- ---- -- --- ---- -- ------ ------<br>--- ----- -- ----,128475,128471,128285.98,128286,128286.58,128476.9,,8,fulfilling
screen,html.Screen,2_1_0_1_9,2022-05-10T20:48:53.400Z,,,,,,,,,,,,,,,,,53,,,,,,,,,,,,,,478.1000000000058,,response,,,,99,,,,,,,Space,keypress(Space),,,,,,,,"---- -- ----- -- ------ - ------- --- ----------<br>relationship, ------ ------ ---- ---- ------- ----- -- ----<br>-------- ------- -- ---------- --- - --- ----- ----- ----<br>---- --- --- ----- --- ---- ---- ------- ----- ---- -------<br>--- --- -- ----- -- --- ---- -- --- ---- -- ------ ------<br>--- ----- -- ----",128961,128955,128475.12,128475,128476.9,128961.84,,9,"relationship,"
screen,html.Screen,2_1_0_1_10,2022-05-10T20:48:53.578Z,,,,,,,,,,,,,,,,,53,,,,,,,,,,,,,,174.1600000000035,,response,,,,99,,,,,,,Space,keypress(Space),,,,,,,,---- -- ----- -- ------ - ------- --- ----------<br>------------- common ------ ---- ---- ------- ----- -- ----<br>-------- ------- -- ---------- --- - --- ----- ----- ----<br>---- --- --- ----- --- ---- ---- ------- ----- ---- -------<br>--- --- -- ----- -- --- ---- -- --- ---- -- ------ ------<br>--- ----- -- ----,129139,129136,128961.22,128962,128961.84,129145.1,,10,common
screen,html.Screen,2_1_0_1_11,2022-05-10T20:48:53.952Z,,,,,,,,,,,,,,,,,53,,,,,,,,,,,,,,360.8999999999942,,response,,,,99,,,,,,,Space,keypress(Space),,,,,,,,---- -- ----- -- ------ - ------- --- ----------<br>------------- ------ wisdom ---- ---- ------- ----- -- ----<br>-------- ------- -- ---------- --- - --- ----- ----- ----<br>---- --- --- ----- --- ---- ---- ------- ----- ---- -------<br>--- --- -- ----- -- --- ---- -- --- ---- -- ------ ------<br>--- ----- -- ----,129512,129506,129138.96,129139,129145.1,129513.04,,11,wisdom
screen,html.Screen,2_1_0_1_12,2022-05-10T20:48:54.130Z,,,,,,,,,,,,,,,,,53,,,,,,,,,,,,,,173.9600000000064,,response,,,,99,,,,,,,Space,keypress(Space),,,,,,,,---- -- ----- -- ------ - ------- --- ----------<br>------------- ------ ------ says ---- ------- ----- -- ----<br>-------- ------- -- ---------- --- - --- ----- ----- ----<br>---- --- --- ----- --- ---- ---- ------- ----- ---- -------<br>--- --- -- ----- -- --- ---- -- --- ---- -- ------ ------<br>--- ----- -- ----,129690,129687,129512.44,129512,129513.04,129695.76,,12,says
screen,html.Screen,2_1_0_1_13,2022-05-10T20:48:54.481Z,,,,,,,,,,,,,,,,,53,,,,,,,,,,,,,,339.24000000000524,,response,,,,99,,,,,,,Space,keypress(Space),,,,,,,,---- -- ----- -- ------ - ------- --- ----------<br>------------- ------ ------ ---- that ------- ----- -- ----<br>-------- ------- -- ---------- --- - --- ----- ----- ----<br>---- --- --- ----- --- ---- ---- ------- ----- ---- -------<br>--- --- -- ----- -- --- ---- -- --- ---- -- ------ ------<br>--- ----- -- ----,130041,130035,129690.08,129690,129695.76,130041.86,,13,that
screen,html.Screen,2_1_0_1_14,2022-05-10T20:48:54.636Z,,,,,,,,,,,,,,,,,53,,,,,,,,,,,,,,152.13999999999942,,response,,,,99,,,,,,,Space,keypress(Space),,,,,,,,---- -- ----- -- ------ - ------- --- ----------<br>------------- ------ ------ ---- ---- feeling ----- -- ----<br>-------- ------- -- ---------- --- - --- ----- ----- ----<br>---- --- --- ----- --- ---- ---- ------- ----- ---- -------<br>--- --- -- ----- -- --- ---- -- --- ---- -- ------ ------<br>--- ----- -- ----,130196,130194,130041.26,130041,130041.86,130212.98,,14,feeling
screen,html.Screen,2_1_0_1_15,2022-05-10T20:48:55.032Z,,,,,,,,,,,,,,,,,53,,,,,,,,,,,,,,374.0200000000041,,response,,,,99,,,,,,,Space,keypress(Space),,,,,,,,---- -- ----- -- ------ - ------- --- ----------<br>------------- ------ ------ ---- ---- ------- close -- ----<br>-------- ------- -- ---------- --- - --- ----- ----- ----<br>---- --- --- ----- --- ---- ---- ------- ----- ---- -------<br>--- --- -- ----- -- --- ---- -- --- ---- -- ------ ------<br>--- ----- -- ----,130592,130587,130196.5,130196,130212.98,130593.2,,15,close
screen,html.Screen,2_1_0_1_16,2022-05-10T20:48:55.300Z,,,,,,,,,,,,,,,,,53,,,,,,,,,,,,,,263.8000000000029,,response,,,,99,,,,,,,Space,keypress(Space),,,,,,,,---- -- ----- -- ------ - ------- --- ----------<br>------------- ------ ------ ---- ---- ------- ----- to ----<br>-------- ------- -- ---------- --- - --- ----- ----- ----<br>---- --- --- ----- --- ---- ---- ------- ----- ---- -------<br>--- --- -- ----- -- --- ---- -- --- ---- -- ------ ------<br>--- ----- -- ----,130861,130857,130592.58,130592,130593.2,130861.2,,16,to
screen,html.Screen,2_1_0_1_17,2022-05-10T20:48:55.538Z,,,,,,,,,,,,,,,,,53,,,,,,,,,,,,,,231.8000000000029,,response,,,,99,,,,,,,Space,keypress(Space),,,,,,,,---- -- ----- -- ------ - ------- --- ----------<br>------------- ------ ------ ---- ---- ------- ----- -- your<br>-------- ------- -- ---------- --- - --- ----- ----- ----<br>---- --- --- ----- --- ---- ---- ------- ----- ---- -------<br>--- --- -- ----- -- --- ---- -- --- ---- -- ------ ------<br>--- ----- -- ----,131098,131093,130860.52,130861,130861.2,131099.38,,17,your
screen,html.Screen,2_1_0_1_18,2022-05-10T20:48:55.907Z,,,,,,,,,,,,,,,,,53,,,,,,,,,,,,,,365.61999999999534,,response,,,,99,,,,,,,Space,keypress(Space),,,,,,,,---- -- ----- -- ------ - ------- --- ----------<br>------------- ------ ------ ---- ---- ------- ----- -- ----<br>romantic ------- -- ---------- --- - --- ----- ----- ----<br>---- --- --- ----- --- ---- ---- ------- ----- ---- -------<br>--- --- -- ----- -- --- ---- -- --- ---- -- ------ ------<br>--- ----- -- ----,131468,131465,131098.76,131099,131099.38,131468.66,,18,romantic
screen,html.Screen,2_1_0_1_19,2022-05-10T20:48:56.112Z,,,,,,,,,,,,,,,,,53,,,,,,,,,,,,,,198.3399999999965,,response,,,,99,,,,,,,Space,keypress(Space),,,,,,,,---- -- ----- -- ------ - ------- --- ----------<br>------------- ------ ------ ---- ---- ------- ----- -- ----<br>-------- partner -- ---------- --- - --- ----- ----- ----<br>---- --- --- ----- --- ---- ---- ------- ----- ---- -------<br>--- --- -- ----- -- --- ---- -- --- ---- -- ------ ------<br>--- ----- -- ----,131673,131667,131468.06,131468,131468.66,131680.38,,19,partner
screen,html.Screen,2_1_0_1_20,2022-05-10T20:48:56.290Z,,,,,,,,,,,,,,,,,53,,,,,,,,,,,,,,166.61999999999534,,response,,,,99,,,,,,,Space,keypress(Space),,,,,,,,---- -- ----- -- ------ - ------- --- ----------<br>------------- ------ ------ ---- ---- ------- ----- -- ----<br>-------- ------- is ---------- --- - --- ----- ----- ----<br>---- --- --- ----- --- ---- ---- ------- ----- ---- -------<br>--- --- -- ----- -- --- ---- -- --- ---- -- ------ ------<br>--- ----- -- ----,131850,131847,131672.48,131673,131680.38,131864.06,,20,is
screen,html.Screen,2_1_0_1_21,2022-05-10T20:48:56.460Z,,,,,,,,,,,,,,,,,53,,,,,,,,,,,,,,150.94000000000233,,response,,,,99,,,,,,,Space,keypress(Space),,,,,,,,---- -- ----- -- ------ - ------- --- ----------<br>------------- ------ ------ ---- ---- ------- ----- -- ----<br>-------- ------- -- paramount. --- - --- ----- ----- ----<br>---- --- --- ----- --- ---- ---- ------- ----- ---- -------<br>--- --- -- ----- -- --- ---- -- --- ---- -- ------ ------<br>--- ----- -- ----,132021,132015,131850.38,131850,131864.06,132031.1,,21,paramount.
screen,html.Screen,2_1_0_1_22,2022-05-10T20:48:56.864Z,,,,,,,,,,,,,,,,,53,,,,,,,,,,,,,,389.8999999999942,,response,,,,99,,,,,,,Space,keypress(Space),,,,,,,,---- -- ----- -- ------ - ------- --- ----------<br>------------- ------ ------ ---- ---- ------- ----- -- ----<br>-------- ------- -- ---------- But - --- ----- ----- ----<br>---- --- --- ----- --- ---- ---- ------- ----- ---- -------<br>--- --- -- ----- -- --- ---- -- --- ---- -- ------ ------<br>--- ----- -- ----,132424,132421,132021.14,132021,132031.1,132424.74,,22,But
screen,html.Screen,2_1_0_1_23,2022-05-10T20:48:57.147Z,,,,,,,,,,,,,,,,,53,,,,,,,,,,,,,,277.2600000000093,,response,,,,99,,,,,,,Space,keypress(Space),,,,,,,,---- -- ----- -- ------ - ------- --- ----------<br>------------- ------ ------ ---- ---- ------- ----- -- ----<br>-------- ------- -- ---------- --- a --- ----- ----- ----<br>---- --- --- ----- --- ---- ---- ------- ----- ---- -------<br>--- --- -- ----- -- --- ---- -- --- ---- -- ------ ------<br>--- ----- -- ----,132708,132702,132424.12,132424,132424.74,132707.94,,23,a
screen,html.Screen,2_1_0_1_24,2022-05-10T20:48:57.336Z,,,,,,,,,,,,,,,,,53,,,,,,,,,,,,,,185.05999999999767,,response,,,,99,,,,,,,Space,keypress(Space),,,,,,,,---- -- ----- -- ------ - ------- --- ----------<br>------------- ------ ------ ---- ---- ------- ----- -- ----<br>-------- ------- -- ---------- --- - new ----- ----- ----<br>---- --- --- ----- --- ---- ---- ------- ----- ---- -------<br>--- --- -- ----- -- --- ---- -- --- ---- -- ------ ------<br>--- ----- -- ----,132897,132893,132707.36,132708,132707.94,132898.34,,24,new
screen,html.Screen,2_1_0_1_25,2022-05-10T20:48:57.541Z,,,,,,,,,,,,,,,,,53,,,,,,,,,,,,,,197.6600000000035,,response,,,,99,,,,,,,Space,keypress(Space),,,,,,,,---- -- ----- -- ------ - ------- --- ----------<br>------------- ------ ------ ---- ---- ------- ----- -- ----<br>-------- ------- -- ---------- --- - --- study ----- ----<br>---- --- --- ----- --- ---- ---- ------- ----- ---- -------<br>--- --- -- ----- -- --- ---- -- --- ---- -- ------ ------<br>--- ----- -- ----,133101,133096,132896.62,132897,132898.34,133101.94,,25,study
screen,html.Screen,2_1_0_1_26,2022-05-10T20:48:57.729Z,,,,,,,,,,,,,,,,,53,,,,,,,,,,,,,,185.05999999999767,,response,,,,99,,,,,,,Space,keypress(Space),,,,,,,,---- -- ----- -- ------ - ------- --- ----------<br>------------- ------ ------ ---- ---- ------- ----- -- ----<br>-------- ------- -- ---------- --- - --- ----- finds ----<br>---- --- --- ----- --- ---- ---- ------- ----- ---- -------<br>--- --- -- ----- -- --- ---- -- --- ---- -- ------ ------<br>--- ----- -- ----,133290,133287,133101.3,133101,133101.94,133299.8,,26,finds
screen,html.Screen,2_1_0_1_27,2022-05-10T20:48:58.205Z,,,,,,,,,,,,,,,,,53,,,,,,,,,,,,,,460.20000000001164,,response,,,,99,,,,,,,Space,keypress(Space),,,,,,,,---- -- ----- -- ------ - ------- --- ----------<br>------------- ------ ------ ---- ---- ------- ----- -- ----<br>-------- ------- -- ---------- --- - --- ----- ----- that<br>---- --- --- ----- --- ---- ---- ------- ----- ---- -------<br>--- --- -- ----- -- --- ---- -- --- ---- -- ------ ------<br>--- ----- -- ----,133765,133760,133290.24,133290,133299.8,133765.78,,27,that
screen,html.Screen,2_1_0_1_28,2022-05-10T20:48:58.450Z,,,,,,,,,,,,,,,,,53,,,,,,,,,,,,,,241.22000000000116,,response,,,,99,,,,,,,Space,keypress(Space),,,,,,,,---- -- ----- -- ------ - ------- --- ----------<br>------------- ------ ------ ---- ---- ------- ----- -- ----<br>-------- ------- -- ---------- --- - --- ----- ----- ----<br>it's --- --- ----- --- ---- ---- ------- ----- ---- -------<br>--- --- -- ----- -- --- ---- -- --- ---- -- ------ ------<br>--- ----- -- ----,134010,134007,133765.16,133765,133765.78,134011.1,,28,it's
screen,html.Screen,2_1_0_1_29,2022-05-10T20:48:58.632Z,,,,,,,,,,,,,,,,,53,,,,,,,,,,,,,,175.89999999999418,,response,,,,99,,,,,,,Space,keypress(Space),,,,,,,,---- -- ----- -- ------ - ------- --- ----------<br>------------- ------ ------ ---- ---- ------- ----- -- ----<br>-------- ------- -- ---------- --- - --- ----- ----- ----<br>---- not --- ----- --- ---- ---- ------- ----- ---- -------<br>--- --- -- ----- -- --- ---- -- --- ---- -- ------ ------<br>--- ----- -- ----,134192,134187,134010.46,134011,134011.1,134200.44,,29,not
screen,html.Screen,2_1_0_1_30,2022-05-10T20:48:58.821Z,,,,,,,,,,,,,,,,,53,,,,,,,,,,,,,,178.55999999999767,,response,,,,99,,,,,,,Space,keypress(Space),,,,,,,,---- -- ----- -- ------ - ------- --- ----------<br>------------- ------ ------ ---- ---- ------- ----- -- ----<br>-------- ------- -- ---------- --- - --- ----- ----- ----<br>---- --- how ----- --- ---- ---- ------- ----- ---- -------<br>--- --- -- ----- -- --- ---- -- --- ---- -- ------ ------<br>--- ----- -- ----,134381,134379,134192.64,134192,134200.44,134383.44,,30,how
screen,html.Screen,2_1_0_1_31,2022-05-10T20:48:58.992Z,,,,,,,,,,,,,,,,,53,,,,,,,,,,,,,,163.55999999999767,,response,,,,99,,,,,,,Space,keypress(Space),,,,,,,,---- -- ----- -- ------ - ------- --- ----------<br>------------- ------ ------ ---- ---- ------- ----- -- ----<br>-------- ------- -- ---------- --- - --- ----- ----- ----<br>---- --- --- close --- ---- ---- ------- ----- ---- -------<br>--- --- -- ----- -- --- ---- -- --- ---- -- ------ ------<br>--- ----- -- ----,134552,134547,134381.82,134381,134383.44,134552.98,,31,close
screen,html.Screen,2_1_0_1_32,2022-05-10T20:48:59.135Z,,,,,,,,,,,,,,,,,53,,,,,,,,,,,,,,140.01999999998952,,response,,,,99,,,,,,,Space,keypress(Space),,,,,,,,---- -- ----- -- ------ - ------- --- ----------<br>------------- ------ ------ ---- ---- ------- ----- -- ----<br>-------- ------- -- ---------- --- - --- ----- ----- ----<br>---- --- --- ----- you ---- ---- ------- ----- ---- -------<br>--- --- -- ----- -- --- ---- -- --- ---- -- ------ ------<br>--- ----- -- ----,134696,134693,134552.36,134552,134552.98,134700.46,,32,you
screen,html.Screen,2_1_0_1_33,2022-05-10T20:48:59.577Z,,,,,,,,,,,,,,,,,53,,,,,,,,,,,,,,431.54000000000815,,response,,,,99,,,,,,,Space,keypress(Space),,,,,,,,---- -- ----- -- ------ - ------- --- ----------<br>------------- ------ ------ ---- ---- ------- ----- -- ----<br>-------- ------- -- ---------- --- - --- ----- ----- ----<br>---- --- --- ----- --- feel ---- ------- ----- ---- -------<br>--- --- -- ----- -- --- ---- -- --- ---- -- ------ ------<br>--- ----- -- ----,135138,135132,134696.62,134696,134700.46,135138.5,,33,feel
screen,html.Screen,2_1_0_1_34,2022-05-10T20:48:59.890Z,,,,,,,,,,,,,,,,,53,,,,,,,,,,,,,,308.5,,response,,,,99,,,,,,,Space,keypress(Space),,,,,,,,---- -- ----- -- ------ - ------- --- ----------<br>------------- ------ ------ ---- ---- ------- ----- -- ----<br>-------- ------- -- ---------- --- - --- ----- ----- ----<br>---- --- --- ----- --- ---- that ------- ----- ---- -------<br>--- --- -- ----- -- --- ---- -- --- ---- -- ------ ------<br>--- ----- -- ----,135450,135447,135137.88,135138,135138.5,135451.42,,34,that
screen,html.Screen,2_1_0_1_35,2022-05-10T20:49:00.173Z,,,,,,,,,,,,,,,,,53,,,,,,,,,,,,,,277.5799999999872,,response,,,,99,,,,,,,Space,keypress(Space),,,,,,,,---- -- ----- -- ------ - ------- --- ----------<br>------------- ------ ------ ---- ---- ------- ----- -- ----<br>-------- ------- -- ---------- --- - --- ----- ----- ----<br>---- --- --- ----- --- ---- ---- matters ----- ---- -------<br>--- --- -- ----- -- --- ---- -- --- ---- -- ------ ------<br>--- ----- -- ----,135733,135729,135450.8,135450,135451.42,135734.24,,35,matters
screen,html.Screen,2_1_0_1_36,2022-05-10T20:49:00.497Z,,,,,,,,,,,,,,,,,53,,,,,,,,,,,,,,320.7600000000093,,response,,,,99,,,,,,,Space,keypress(Space),,,,,,,,"---- -- ----- -- ------ - ------- --- ----------<br>------------- ------ ------ ---- ---- ------- ----- -- ----<br>-------- ------- -- ---------- --- - --- ----- ----- ----<br>---- --- --- ----- --- ---- ---- ------- most, ---- -------<br>--- --- -- ----- -- --- ---- -- --- ---- -- ------ ------<br>--- ----- -- ----",136058,136055,135733.62,135733,135734.24,136058.68,,36,"most,"
screen,html.Screen,2_1_0_1_37,2022-05-10T20:49:00.803Z,,,,,,,,,,,,,,,,,53,,,,,,,,,,,,,,299.320000000007,,response,,,,99,,,,,,,Space,keypress(Space),,,,,,,,---- -- ----- -- ------ - ------- --- ----------<br>------------- ------ ------ ---- ---- ------- ----- -- ----<br>-------- ------- -- ---------- --- - --- ----- ----- ----<br>---- --- --- ----- --- ---- ---- ------- ----- it's -------<br>--- --- -- ----- -- --- ---- -- --- ---- -- ------ ------<br>--- ----- -- ----,136364,136358,136058.08,136058,136058.68,136364.44,,37,it's
screen,html.Screen,2_1_0_1_38,2022-05-10T20:49:01.071Z,,,,,,,,,,,,,,,,,53,,,,,,,,,,,,,,263.5599999999977,,response,,,,99,,,,,,,Space,keypress(Space),,,,,,,,---- -- ----- -- ------ - ------- --- ----------<br>------------- ------ ------ ---- ---- ------- ----- -- ----<br>-------- ------- -- ---------- --- - --- ----- ----- ----<br>---- --- --- ----- --- ---- ---- ------- ----- ---- whether<br>--- --- -- ----- -- --- ---- -- --- ---- -- ------ ------<br>--- ----- -- ----,136631,136628,136363.84,136364,136364.44,136632.5,,38,whether
screen,html.Screen,2_1_0_1_39,2022-05-10T20:49:01.309Z,,,,,,,,,,,,,,,,,53,,,,,,,,,,,,,,232.5,,response,,,,99,,,,,,,Space,keypress(Space),,,,,,,,---- -- ----- -- ------ - ------- --- ----------<br>------------- ------ ------ ---- ---- ------- ----- -- ----<br>-------- ------- -- ---------- --- - --- ----- ----- ----<br>---- --- --- ----- --- ---- ---- ------- ----- ---- -------<br>you --- -- ----- -- --- ---- -- --- ---- -- ------ ------<br>--- ----- -- ----,136869,136865,136631.9,136631,136632.5,136870.5,,39,you
screen,html.Screen,2_1_0_1_40,2022-05-10T20:49:01.532Z,,,,,,,,,,,,,,,,,53,,,,,,,,,,,,,,219.5,,response,,,,99,,,,,,,Space,keypress(Space),,,,,,,,---- -- ----- -- ------ - ------- --- ----------<br>------------- ------ ------ ---- ---- ------- ----- -- ----<br>-------- ------- -- ---------- --- - --- ----- ----- ----<br>---- --- --- ----- --- ---- ---- ------- ----- ---- -------<br>--- are -- ----- -- --- ---- -- --- ---- -- ------ ------<br>--- ----- -- ----,137093,137090,136869.92,136870,136870.5,137093.72,,40,are
screen,html.Screen,2_1_0_1_41,2022-05-10T20:49:01.714Z,,,,,,,,,,,,,,,,,53,,,,,,,,,,,,,,176.27999999999884,,response,,,,99,,,,,,,Space,keypress(Space),,,,,,,,---- -- ----- -- ------ - ------- --- ----------<br>------------- ------ ------ ---- ---- ------- ----- -- ----<br>-------- ------- -- ---------- --- - --- ----- ----- ----<br>---- --- --- ----- --- ---- ---- ------- ----- ---- -------<br>--- --- as ----- -- --- ---- -- --- ---- -- ------ ------<br>--- ----- -- ----,137275,137270,137093.12,137093,137093.72,137287.6,,41,as
screen,html.Screen,2_1_0_1_42,2022-05-10T20:49:01.903Z,,,,,,,,,,,,,,,,,53,,,,,,,,,,,,,,173.39999999999418,,response,,,,99,,,,,,,Space,keypress(Space),,,,,,,,---- -- ----- -- ------ - ------- --- ----------<br>------------- ------ ------ ---- ---- ------- ----- -- ----<br>-------- ------- -- ---------- --- - --- ----- ----- ----<br>---- --- --- ----- --- ---- ---- ------- ----- ---- -------<br>--- --- -- close -- --- ---- -- --- ---- -- ------ ------<br>--- ----- -- ----,137464,137461,137274.92,137275,137287.6,137471.08,,42,close
screen,html.Screen,2_1_0_1_43,2022-05-10T20:49:02.108Z,,,,,,,,,,,,,,,,,53,,,,,,,,,,,,,,191.9200000000128,,response,,,,99,,,,,,,Space,keypress(Space),,,,,,,,---- -- ----- -- ------ - ------- --- ----------<br>------------- ------ ------ ---- ---- ------- ----- -- ----<br>-------- ------- -- ---------- --- - --- ----- ----- ----<br>---- --- --- ----- --- ---- ---- ------- ----- ---- -------<br>--- --- -- ----- as --- ---- -- --- ---- -- ------ ------<br>--- ----- -- ----,137669,137663,137464.16,137464,137471.08,137670.38,,43,as
screen,html.Screen,2_1_0_1_44,2022-05-10T20:49:02.286Z,,,,,,,,,,,,,,,,,53,,,,,,,,,,,,,,172.61999999999534,,response,,,,99,,,,,,,Space,keypress(Space),,,,,,,,---- -- ----- -- ------ - ------- --- ----------<br>------------- ------ ------ ---- ---- ------- ----- -- ----<br>-------- ------- -- ---------- --- - --- ----- ----- ----<br>---- --- --- ----- --- ---- ---- ------- ----- ---- -------<br>--- --- -- ----- -- you ---- -- --- ---- -- ------ ------<br>--- ----- -- ----,137846,137843,137668.92,137669,137670.38,137847.24,,44,you
screen,html.Screen,2_1_0_1_45,2022-05-10T20:49:02.468Z,,,,,,,,,,,,,,,,,53,,,,,,,,,,,,,,176.7600000000093,,response,,,,99,,,,,,,Space,keypress(Space),,,,,,,,---- -- ----- -- ------ - ------- --- ----------<br>------------- ------ ------ ---- ---- ------- ----- -- ----<br>-------- ------- -- ---------- --- - --- ----- ----- ----<br>---- --- --- ----- --- ---- ---- ------- ----- ---- -------<br>--- --- -- ----- -- --- want -- --- ---- -- ------ ------<br>--- ----- -- ----,138029,138024,137846.6,137847,137847.24,138038.34,,45,want
screen,html.Screen,2_1_0_1_46,2022-05-10T20:49:02.803Z,,,,,,,,,,,,,,,,,53,,,,,,,,,,,,,,322.6600000000035,,response,,,,99,,,,,,,Space,keypress(Space),,,,,,,,---- -- ----- -- ------ - ------- --- ----------<br>------------- ------ ------ ---- ---- ------- ----- -- ----<br>-------- ------- -- ---------- --- - --- ----- ----- ----<br>---- --- --- ----- --- ---- ---- ------- ----- ---- -------<br>--- --- -- ----- -- --- ---- to --- ---- -- ------ ------<br>--- ----- -- ----,138364,138361,138028.86,138029,138038.34,138365.02,,46,to
screen,html.Screen,2_1_0_1_47,2022-05-10T20:49:03.064Z,,,,,,,,,,,,,,,,,53,,,,,,,,,,,,,,254.98000000001048,,response,,,,99,,,,,,,Space,keypress(Space),,,,,,,,"---- -- ----- -- ------ - ------- --- ----------<br>------------- ------ ------ ---- ---- ------- ----- -- ----<br>-------- ------- -- ---------- --- - --- ----- ----- ----<br>---- --- --- ----- --- ---- ---- ------- ----- ---- -------<br>--- --- -- ----- -- --- ---- -- be, ---- -- ------ ------<br>--- ----- -- ----",138625,138620,138364.42,138365,138365.02,138625.76,,47,"be,"
screen,html.Screen,2_1_0_1_48,2022-05-10T20:49:03.265Z,,,,,,,,,,,,,,,,,53,,,,,,,,,,,,,,197.2399999999907,,response,,,,99,,,,,,,Space,keypress(Space),,,,,,,,---- -- ----- -- ------ - ------- --- ----------<br>------------- ------ ------ ---- ---- ------- ----- -- ----<br>-------- ------- -- ---------- --- - --- ----- ----- ----<br>---- --- --- ----- --- ---- ---- ------- ----- ---- -------<br>--- --- -- ----- -- --- ---- -- --- even -- ------ ------<br>--- ----- -- ----,138825,138823,138625.18,138625,138625.76,138839.4,,48,even
screen,html.Screen,2_1_0_1_49,2022-05-10T20:49:03.480Z,,,,,,,,,,,,,,,,,53,,,,,,,,,,,,,,196.60000000000582,,response,,,,99,,,,,,,Space,keypress(Space),,,,,,,,---- -- ----- -- ------ - ------- --- ----------<br>------------- ------ ------ ---- ---- ------- ----- -- ----<br>-------- ------- -- ---------- --- - --- ----- ----- ----<br>---- --- --- ----- --- ---- ---- ------- ----- ---- -------<br>--- --- -- ----- -- --- ---- -- --- ---- if ------ ------<br>--- ----- -- ----,139041,139036,138825.54,138826,138839.4,139042.06,,49,if
screen,html.Screen,2_1_0_1_50,2022-05-10T20:49:03.670Z,,,,,,,,,,,,,,,,,53,,,,,,,,,,,,,,185.94000000000233,,response,,,,99,,,,,,,Space,keypress(Space),,,,,,,,---- -- ----- -- ------ - ------- --- ----------<br>------------- ------ ------ ---- ---- ------- ----- -- ----<br>-------- ------- -- ---------- --- - --- ----- ----- ----<br>---- --- --- ----- --- ---- ---- ------- ----- ---- -------<br>--- --- -- ----- -- --- ---- -- --- ---- -- that's ------<br>--- ----- -- ----,139231,139228,139041.48,139041,139042.06,139239.92,,50,that's
screen,html.Screen,2_1_0_1_51,2022-05-10T20:49:03.930Z,,,,,,,,,,,,,,,,,53,,,,,,,,,,,,,,246.0799999999872,,response,,,,99,,,,,,,Space,keypress(Space),,,,,,,,---- -- ----- -- ------ - ------- --- ----------<br>------------- ------ ------ ---- ---- ------- ----- -- ----<br>-------- ------- -- ---------- --- - --- ----- ----- ----<br>---- --- --- ----- --- ---- ---- ------- ----- ---- -------<br>--- --- -- ----- -- --- ---- -- --- ---- -- ------ really<br>--- ----- -- ----,139492,139486,139230.64,139231,139239.92,139492.18,,51,really
screen,html.Screen,2_1_0_1_52,2022-05-10T20:49:04.266Z,,,,,,,,,,,,,,,,,53,,,,,,,,,,,,,,331.820000000007,,response,,,,99,,,,,,,Space,keypress(Space),,,,,,,,---- -- ----- -- ------ - ------- --- ----------<br>------------- ------ ------ ---- ---- ------- ----- -- ----<br>-------- ------- -- ---------- --- - --- ----- ----- ----<br>---- --- --- ----- --- ---- ---- ------- ----- ---- -------<br>--- --- -- ----- -- --- ---- -- --- ---- -- ------ ------<br>not ----- -- ----,139827,139824,139491.56,139492,139492.18,139827.4,,52,not
screen,html.Screen,2_1_0_1_53,2022-05-10T20:49:04.481Z,,,,,,,,,,,,,,,,,53,,,,,,,,,,,,,,209.60000000000582,,response,,,,99,,,,,,,Space,keypress(Space),,,,,,,,---- -- ----- -- ------ - ------- --- ----------<br>------------- ------ ------ ---- ---- ------- ----- -- ----<br>-------- ------- -- ---------- --- - --- ----- ----- ----<br>---- --- --- ----- --- ---- ---- ------- ----- ---- -------<br>--- --- -- ----- -- --- ---- -- --- ---- -- ------ ------<br>--- close -- ----,140043,140037,139826.76,139827,139827.4,140043.24,,53,close
screen,html.Screen,2_1_0_1_54,2022-05-10T20:49:04.784Z,,,,,,,,,,,,,,,,,53,,,,,,,,,,,,,,298.7600000000093,,response,,,,99,,,,,,,Space,keypress(Space),,,,,,,,---- -- ----- -- ------ - ------- --- ----------<br>------------- ------ ------ ---- ---- ------- ----- -- ----<br>-------- ------- -- ---------- --- - --- ----- ----- ----<br>---- --- --- ----- --- ---- ---- ------- ----- ---- -------<br>--- --- -- ----- -- --- ---- -- --- ---- -- ------ ------<br>--- ----- at ----,140345,140342,140042.64,140043,140043.24,140357.44,,54,at
screen,html.Screen,2_1_0_1_55,2022-05-10T20:49:05.056Z,,,,,,,,,,,,,,,,,53,,,,,,,,,,,,,,254.55999999999767,,response,,,,99,,,,,,,Space,keypress(Space),,,,,,,,---- -- ----- -- ------ - ------- --- ----------<br>------------- ------ ------ ---- ---- ------- ----- -- ----<br>-------- ------- -- ---------- --- - --- ----- ----- ----<br>---- --- --- ----- --- ---- ---- ------- ----- ---- -------<br>--- --- -- ----- -- --- ---- -- --- ---- -- ------ ------<br>--- ----- -- all.,140617,140612,140344.6,140345,140357.44,140617.58,,55,all.
Item 99,flow.Loop,2_1_0_1,2022-05-10T20:49:05.056Z,,,,,,,,,,,,,,,,,,,,,,,,,,,,,,,14704,,completion,,,,,B,,,,,,,,,,,silence,,,,,140617,140612,125858.04,125858,125908,140617.58,,,
Question 1,html.Screen,2_1_0_2,2022-05-10T20:49:08.064Z,,,,,,,,,,,,,,,,,,,,,,,,,,,,true,FALSE,,3005.420000000013,,response,,,,99,B,,,,,,FALSE,click #choice-2,,,,silence,,,,,143625,143623,140616.98,140617,140617.58,143623.46,,,
Question 2,html.Screen,2_1_0_3,2022-05-10T20:49:10.909Z,,,,,,,,,,,,,,,,,,,,,,,,,,,,true,TRUE,,2845.540000000008,,response,,,,99,B,,,,,,TRUE,click #choice-1,,,,silence,,,,,146471,146469,143622.68,143625,143623.46,146470.46,,,
Item 99,flow.Sequence,2_1_0,2022-05-10T20:49:10.910Z,,,,,,,,,,,,,,,,,,,,,,,,,,,,,,,30599.699999999997,,completion,,,,,,,,,,,,,,,,,,,,,146471,146469,115868.72,115873,115869.3,146470.46,,,
Holding screen,html.Screen,2_1_1_0,2022-05-10T20:49:20.898Z,,,,,,,,,,,,,,,,,,,,,,,,,,,,,,,10005.559999999998,,timeout,,,,,,,,,,,,,,,,,,,,,156460,156459.28,146470.12,146471,146470.46,156476.02,,,
screen,html.Screen,2_1_1_1_0,2022-05-10T20:49:21.682Z,,,,,,,,,,,,,,,,,54,,,,,,,,,,,,,,762.9800000000105,,response,,,,100,,,,,,,Space,keypress(Space),,,,,,,,At --- ---- --- ------ ----- ------- ---- -- --- ------- --<br>------- ---------- ------ -- ----- -- ----- -- ---- ------<br>--- ----- --- --- ------ -------- ----- --- ------ ----- --<br>----- ----- ---------- --- --- ------ ------ ---- -- ------<br>------- --- ------ ----- --- ---- ------- -- ---- --- --<br>------- ------,157244,157239,156459.28,156460,156476.02,157244.88,,0,At
screen,html.Screen,2_1_1_1_1,2022-05-10T20:49:22.426Z,,,,,,,,,,,,,,,,,54,,,,,,,,,,,,,,737.1199999999953,,response,,,,100,,,,,,,Space,keypress(Space),,,,,,,,-- the ---- --- ------ ----- ------- ---- -- --- ------- --<br>------- ---------- ------ -- ----- -- ----- -- ---- ------<br>--- ----- --- --- ------ -------- ----- --- ------ ----- --<br>----- ----- ---------- --- --- ------ ------ ---- -- ------<br>------- --- ------ ----- --- ---- ------- -- ---- --- --<br>------- ------,157987,157982,157244.22,157244,157244.88,157988.16,,1,the
screen,html.Screen,2_1_1_1_2,2022-05-10T20:49:22.593Z,,,,,,,,,,,,,,,,,54,,,,,,,,,,,,,,162.8399999999965,,response,,,,100,,,,,,,Space,keypress(Space),,,,,,,,-- --- time --- ------ ----- ------- ---- -- --- ------- --<br>------- ---------- ------ -- ----- -- ----- -- ---- ------<br>--- ----- --- --- ------ -------- ----- --- ------ ----- --<br>----- ----- ---------- --- --- ------ ------ ---- -- ------<br>------- --- ------ ----- --- ---- ------- -- ---- --- --<br>------- ------,158154,158151,157987.52,157987,157988.16,158161.16,,2,time
screen,html.Screen,2_1_1_1_3,2022-05-10T20:49:22.752Z,,,,,,,,,,,,,,,,,54,,,,,,,,,,,,,,147.8399999999965,,response,,,,100,,,,,,,Space,keypress(Space),,,,,,,,-- --- ---- the ------ ----- ------- ---- -- --- ------- --<br>------- ---------- ------ -- ----- -- ----- -- ---- ------<br>--- ----- --- --- ------ -------- ----- --- ------ ----- --<br>----- ----- ---------- --- --- ------ ------ ---- -- ------<br>------- --- ------ ----- --- ---- ------- -- ---- --- --<br>------- ------,158313,158309,158154.28,158154,158161.16,158328.1,,3,the
screen,html.Screen,2_1_1_1_4,2022-05-10T20:49:23.493Z,,,,,,,,,,,,,,,,,54,,,,,,,,,,,,,,722.8999999999942,,response,,,,100,,,,,,,Space,keypress(Space),,,,,,,,-- --- ---- --- French ----- ------- ---- -- --- ------- --<br>------- ---------- ------ -- ----- -- ----- -- ---- ------<br>--- ----- --- --- ------ -------- ----- --- ------ ----- --<br>----- ----- ---------- --- --- ------ ------ ---- -- ------<br>------- --- ------ ----- --- ---- ------- -- ---- --- --<br>------- ------,159054,159051,158313.62,158314,158328.1,159055.02,,4,French
screen,html.Screen,2_1_1_1_5,2022-05-10T20:49:23.787Z,,,,,,,,,,,,,,,,,54,,,,,,,,,,,,,,287.9800000000105,,response,,,,100,,,,,,,Space,keypress(Space),,,,,,,,-- --- ---- --- ------ crown ------- ---- -- --- ------- --<br>------- ---------- ------ -- ----- -- ----- -- ---- ------<br>--- ----- --- --- ------ -------- ----- --- ------ ----- --<br>----- ----- ---------- --- --- ------ ------ ---- -- ------<br>------- --- ------ ----- --- ---- ------- -- ---- --- --<br>------- ------,159348,159343,159054.38,159054,159055.02,159379.26,,5,crown
screen,html.Screen,2_1_1_1_6,2022-05-10T20:49:24.235Z,,,,,,,,,,,,,,,,,54,,,,,,,,,,,,,,414.7399999999907,,response,,,,100,,,,,,,Space,keypress(Space),,,,,,,,-- --- ---- --- ------ ----- secured ---- -- --- ------- --<br>------- ---------- ------ -- ----- -- ----- -- ---- ------<br>--- ----- --- --- ------ -------- ----- --- ------ ----- --<br>----- ----- ---------- --- --- ------ ------ ---- -- ------<br>------- --- ------ ----- --- ---- ------- -- ---- --- --<br>------- ------,159796,159794,159348.7,159349,159379.26,159797.4,,6,secured
screen,html.Screen,2_1_1_1_7,2022-05-10T20:49:24.653Z,,,,,,,,,,,,,,,,,54,,,,,,,,,,,,,,412.6000000000058,,response,,,,100,,,,,,,Space,keypress(Space),,,,,,,,-- --- ---- --- ------ ----- ------- much -- --- ------- --<br>------- ---------- ------ -- ----- -- ----- -- ---- ------<br>--- ----- --- --- ------ -------- ----- --- ------ ----- --<br>----- ----- ---------- --- --- ------ ------ ---- -- ------<br>------- --- ------ ----- --- ---- ------- -- ---- --- --<br>------- ------,160215,160210,159796.78,159796,159797.4,160216,,7,much
screen,html.Screen,2_1_1_1_8,2022-05-10T20:49:25.023Z,,,,,,,,,,,,,,,,,54,,,,,,,,,,,,,,365,,response,,,,100,,,,,,,Space,keypress(Space),,,,,,,,-- --- ---- --- ------ ----- ------- ---- of --- ------- --<br>------- ---------- ------ -- ----- -- ----- -- ---- ------<br>--- ----- --- --- ------ -------- ----- --- ------ ----- --<br>----- ----- ---------- --- --- ------ ------ ---- -- ------<br>------- --- ------ ----- --- ---- ------- -- ---- --- --<br>------- ------,160584,160581,160215.38,160216,160216,160585,,8,of
screen,html.Screen,2_1_1_1_9,2022-05-10T20:49:25.384Z,,,,,,,,,,,,,,,,,54,,,,,,,,,,,,,,356,,response,,,,100,,,,,,,Space,keypress(Space),,,,,,,,-- --- ---- --- ------ ----- ------- ---- -- its ------- --<br>------- ---------- ------ -- ----- -- ----- -- ---- ------<br>--- ----- --- --- ------ -------- ----- --- ------ ----- --<br>----- ----- ---------- --- --- ------ ------ ---- -- ------<br>------- --- ------ ----- --- ---- ------- -- ---- --- --<br>------- ------,160945,160941,160584.38,160584,160585,160946.7,,9,its
screen,html.Screen,2_1_1_1_10,2022-05-10T20:49:25.731Z,,,,,,,,,,,,,,,,,54,,,,,,,,,,,,,,343.29999999998836,,response,,,,100,,,,,,,Space,keypress(Space),,,,,,,,-- --- ---- --- ------ ----- ------- ---- -- --- revenue --<br>------- ---------- ------ -- ----- -- ----- -- ---- ------<br>--- ----- --- --- ------ -------- ----- --- ------ ----- --<br>----- ----- ---------- --- --- ------ ------ ---- -- ------<br>------- --- ------ ----- --- ---- ------- -- ---- --- --<br>------- ------,161293,161290,160946.12,160946,160946.7,161293.88,,10,revenue
screen,html.Screen,2_1_1_1_11,2022-05-10T20:49:26.116Z,,,,,,,,,,,,,,,,,54,,,,,,,,,,,,,,379.11999999999534,,response,,,,100,,,,,,,Space,keypress(Space),,,,,,,,-- --- ---- --- ------ ----- ------- ---- -- --- ------- by<br>------- ---------- ------ -- ----- -- ----- -- ---- ------<br>--- ----- --- --- ------ -------- ----- --- ------ ----- --<br>----- ----- ---------- --- --- ------ ------ ---- -- ------<br>------- --- ------ ----- --- ---- ------- -- ---- --- --<br>------- ------,161677,161673,161293.24,161294,161293.88,161678.1,,11,by
screen,html.Screen,2_1_1_1_12,2022-05-10T20:49:26.541Z,,,,,,,,,,,,,,,,,54,,,,,,,,,,,,,,421.8999999999942,,response,,,,100,,,,,,,Space,keypress(Space),,,,,,,,-- --- ---- --- ------ ----- ------- ---- -- --- ------- --<br>issuing ---------- ------ -- ----- -- ----- -- ---- ------<br>--- ----- --- --- ------ -------- ----- --- ------ ----- --<br>----- ----- ---------- --- --- ------ ------ ---- -- ------<br>------- --- ------ ----- --- ---- ------- -- ---- --- --<br>------- ------,162103,162100,161677.5,161678,161678.1,162103.8,,12,issuing
screen,html.Screen,2_1_1_1_13,2022-05-10T20:49:27.027Z,,,,,,,,,,,,,,,,,54,,,,,,,,,,,,,,480.20000000001164,,response,,,,100,,,,,,,Space,keypress(Space),,,,,,,,-- --- ---- --- ------ ----- ------- ---- -- --- ------- --<br>------- government ------ -- ----- -- ----- -- ---- ------<br>--- ----- --- --- ------ -------- ----- --- ------ ----- --<br>----- ----- ---------- --- --- ------ ------ ---- -- ------<br>------- --- ------ ----- --- ---- ------- -- ---- --- --<br>------- ------,162589,162584,162103.2,162103,162103.8,162589.66,,13,government
screen,html.Screen,2_1_1_1_14,2022-05-10T20:49:27.520Z,,,,,,,,,,,,,,,,,54,,,,,,,,,,,,,,489.3399999999965,,response,,,,100,,,,,,,Space,keypress(Space),,,,,,,,-- --- ---- --- ------ ----- ------- ---- -- --- ------- --<br>------- ---------- bonds. -- ----- -- ----- -- ---- ------<br>--- ----- --- --- ------ -------- ----- --- ------ ----- --<br>----- ----- ---------- --- --- ------ ------ ---- -- ------<br>------- --- ------ ----- --- ---- ------- -- ---- --- --<br>------- ------,163082,163079,162589.04,162589,162589.66,163082.68,,14,bonds.
screen,html.Screen,2_1_1_1_15,2022-05-10T20:49:28.017Z,,,,,,,,,,,,,,,,,54,,,,,,,,,,,,,,491.320000000007,,response,,,,100,,,,,,,Space,keypress(Space),,,,,,,,-- --- ---- --- ------ ----- ------- ---- -- --- ------- --<br>------- ---------- ------ In ----- -- ----- -- ---- ------<br>--- ----- --- --- ------ -------- ----- --- ------ ----- --<br>----- ----- ---------- --- --- ------ ------ ---- -- ------<br>------- --- ------ ----- --- ---- ------- -- ---- --- --<br>------- ------,163579,163574,163082.04,163082,163082.68,163579.84,,15,In
screen,html.Screen,2_1_1_1_16,2022-05-10T20:49:28.386Z,,,,,,,,,,,,,,,,,54,,,,,,,,,,,,,,365.1600000000035,,response,,,,100,,,,,,,Space,keypress(Space),,,,,,,,"-- --- ---- --- ------ ----- ------- ---- -- --- ------- --<br>------- ---------- ------ -- 1727, -- ----- -- ---- ------<br>--- ----- --- --- ------ -------- ----- --- ------ ----- --<br>----- ----- ---------- --- --- ------ ------ ---- -- ------<br>------- --- ------ ----- --- ---- ------- -- ---- --- --<br>------- ------",163948,163945,163579.26,163579,163579.84,163948.9,,16,"1727,"
screen,html.Screen,2_1_1_1_17,2022-05-10T20:49:28.759Z,,,,,,,,,,,,,,,,,54,,,,,,,,,,,,,,367.1000000000058,,response,,,,100,,,,,,,Space,keypress(Space),,,,,,,,-- --- ---- --- ------ ----- ------- ---- -- --- ------- --<br>------- ---------- ------ -- ----- in ----- -- ---- ------<br>--- ----- --- --- ------ -------- ----- --- ------ ----- --<br>----- ----- ---------- --- --- ------ ------ ---- -- ------<br>------- --- ------ ----- --- ---- ------- -- ---- --- --<br>------- ------,164322,164316,163948.26,163948,163948.9,164322.26,,17,in
screen,html.Screen,2_1_1_1_18,2022-05-10T20:49:29.117Z,,,,,,,,,,,,,,,,,54,,,,,,,,,,,,,,353.7399999999907,,response,,,,100,,,,,,,Space,keypress(Space),,,,,,,,-- --- ---- --- ------ ----- ------- ---- -- --- ------- --<br>------- ---------- ------ -- ----- -- order -- ---- ------<br>--- ----- --- --- ------ -------- ----- --- ------ ----- --<br>----- ----- ---------- --- --- ------ ------ ---- -- ------<br>------- --- ------ ----- --- ---- ------- -- ---- --- --<br>------- ------,164679,164676,164321.66,164322,164322.26,164680.3,,18,order
screen,html.Screen,2_1_1_1_19,2022-05-10T20:49:29.581Z,,,,,,,,,,,,,,,,,54,,,,,,,,,,,,,,456.70000000001164,,response,,,,100,,,,,,,Space,keypress(Space),,,,,,,,-- --- ---- --- ------ ----- ------- ---- -- --- ------- --<br>------- ---------- ------ -- ----- -- ----- to ---- ------<br>--- ----- --- --- ------ -------- ----- --- ------ ----- --<br>----- ----- ---------- --- --- ------ ------ ---- -- ------<br>------- --- ------ ----- --- ---- ------- -- ---- --- --<br>------- ------,165143,165137,164679.66,164680,164680.3,165143.98,,19,to
screen,html.Screen,2_1_1_1_20,2022-05-10T20:49:30.017Z,,,,,,,,,,,,,,,,,54,,,,,,,,,,,,,,432.0199999999895,,response,,,,100,,,,,,,Space,keypress(Space),,,,,,,,-- --- ---- --- ------ ----- ------- ---- -- --- ------- --<br>------- ---------- ------ -- ----- -- ----- -- save ------<br>--- ----- --- --- ------ -------- ----- --- ------ ----- --<br>----- ----- ---------- --- --- ------ ------ ---- -- ------<br>------- --- ------ ----- --- ---- ------- -- ---- --- --<br>------- ------,165580,165576,165143.36,165143,165143.98,165580.36,,20,save
screen,html.Screen,2_1_1_1_21,2022-05-10T20:49:30.233Z,,,,,,,,,,,,,,,,,54,,,,,,,,,,,,,,209.64000000001397,,response,,,,100,,,,,,,Space,keypress(Space),,,,,,,,"-- --- ---- --- ------ ----- ------- ---- -- --- ------- --<br>------- ---------- ------ -- ----- -- ----- -- ---- money,<br>--- ----- --- --- ------ -------- ----- --- ------ ----- --<br>----- ----- ---------- --- --- ------ ------ ---- -- ------<br>------- --- ------ ----- --- ---- ------- -- ---- --- --<br>------- ------",165795,165790,165579.76,165580,165580.36,165803.16,,21,"money,"
screen,html.Screen,2_1_1_1_22,2022-05-10T20:49:30.749Z,,,,,,,,,,,,,,,,,54,,,,,,,,,,,,,,504.8399999999965,,response,,,,100,,,,,,,Space,keypress(Space),,,,,,,,-- --- ---- --- ------ ----- ------- ---- -- --- ------- --<br>------- ---------- ------ -- ----- -- ----- -- ---- ------<br>the ----- --- --- ------ -------- ----- --- ------ ----- --<br>----- ----- ---------- --- --- ------ ------ ---- -- ------<br>------- --- ------ ----- --- ---- ------- -- ---- --- --<br>------- ------,166310,166308,165795.34,165795,165803.16,166311.6,,22,the
screen,html.Screen,2_1_1_1_23,2022-05-10T20:49:30.930Z,,,,,,,,,,,,,,,,,54,,,,,,,,,,,,,,175.39999999999418,,response,,,,100,,,,,,,Space,keypress(Space),,,,,,,,-- --- ---- --- ------ ----- ------- ---- -- --- ------- --<br>------- ---------- ------ -- ----- -- ----- -- ---- ------<br>--- state --- --- ------ -------- ----- --- ------ ----- --<br>----- ----- ---------- --- --- ------ ------ ---- -- ------<br>------- --- ------ ----- --- ---- ------- -- ---- --- --<br>------- ------,166492,166487,166310.98,166311,166311.6,166503.12,,23,state
screen,html.Screen,2_1_1_1_24,2022-05-10T20:49:31.266Z,,,,,,,,,,,,,,,,,54,,,,,,,,,,,,,,321.88000000000466,,response,,,,100,,,,,,,Space,keypress(Space),,,,,,,,-- --- ---- --- ------ ----- ------- ---- -- --- ------- --<br>------- ---------- ------ -- ----- -- ----- -- ---- ------<br>--- ----- cut --- ------ -------- ----- --- ------ ----- --<br>----- ----- ---------- --- --- ------ ------ ---- -- ------<br>------- --- ------ ----- --- ---- ------- -- ---- --- --<br>------- ------,166829,166825,166492.68,166492,166503.12,166829.34,,24,cut
screen,html.Screen,2_1_1_1_25,2022-05-10T20:49:31.516Z,,,,,,,,,,,,,,,,,54,,,,,,,,,,,,,,243.6600000000035,,response,,,,100,,,,,,,Space,keypress(Space),,,,,,,,-- --- ---- --- ------ ----- ------- ---- -- --- ------- --<br>------- ---------- ------ -- ----- -- ----- -- ---- ------<br>--- ----- --- the ------ -------- ----- --- ------ ----- --<br>----- ----- ---------- --- --- ------ ------ ---- -- ------<br>------- --- ------ ----- --- ---- ------- -- ---- --- --<br>------- ------,167078,167073,166828.66,166829,166829.34,167078.94,,25,the
screen,html.Screen,2_1_1_1_26,2022-05-10T20:49:31.694Z,,,,,,,,,,,,,,,,,54,,,,,,,,,,,,,,173.05999999999767,,response,,,,100,,,,,,,Space,keypress(Space),,,,,,,,-- --- ---- --- ------ ----- ------- ---- -- --- ------- --<br>------- ---------- ------ -- ----- -- ----- -- ---- ------<br>--- ----- --- --- bonds' -------- ----- --- ------ ----- --<br>----- ----- ---------- --- --- ------ ------ ---- -- ------<br>------- --- ------ ----- --- ---- ------- -- ---- --- --<br>------- ------,167256,167252,167078.34,167078,167078.94,167271.5,,26,bonds'
screen,html.Screen,2_1_1_1_27,2022-05-10T20:49:31.899Z,,,,,,,,,,,,,,,,,54,,,,,,,,,,,,,,183.5,,response,,,,100,,,,,,,Space,keypress(Space),,,,,,,,-- --- ---- --- ------ ----- ------- ---- -- --- ------- --<br>------- ---------- ------ -- ----- -- ----- -- ---- ------<br>--- ----- --- --- ------ interest ----- --- ------ ----- --<br>----- ----- ---------- --- --- ------ ------ ---- -- ------<br>------- --- ------ ----- --- ---- ------- -- ---- --- --<br>------- ------,167461,167455,167256.58,167257,167271.5,167470.88,,27,interest
screen,html.Screen,2_1_1_1_28,2022-05-10T20:49:32.369Z,,,,,,,,,,,,,,,,,54,,,,,,,,,,,,,,456.11999999999534,,response,,,,100,,,,,,,Space,keypress(Space),,,,,,,,-- --- ---- --- ------ ----- ------- ---- -- --- ------- --<br>------- ---------- ------ -- ----- -- ----- -- ---- ------<br>--- ----- --- --- ------ -------- rate. --- ------ ----- --<br>----- ----- ---------- --- --- ------ ------ ---- -- ------<br>------- --- ------ ----- --- ---- ------- -- ---- --- --<br>------- ------,167931,167927,167460.66,167461,167470.88,167931.54,,28,rate.
screen,html.Screen,2_1_1_1_29,2022-05-10T20:49:32.731Z,,,,,,,,,,,,,,,,,54,,,,,,,,,,,,,,356.45999999999185,,response,,,,100,,,,,,,Space,keypress(Space),,,,,,,,-- --- ---- --- ------ ----- ------- ---- -- --- ------- --<br>------- ---------- ------ -- ----- -- ----- -- ---- ------<br>--- ----- --- --- ------ -------- ----- The ------ ----- --<br>----- ----- ---------- --- --- ------ ------ ---- -- ------<br>------- --- ------ ----- --- ---- ------- -- ---- --- --<br>------- ------,168293,168288,167930.92,167931,167931.54,168293.58,,29,The
screen,html.Screen,2_1_1_1_30,2022-05-10T20:49:32.920Z,,,,,,,,,,,,,,,,,54,,,,,,,,,,,,,,185.4200000000128,,response,,,,100,,,,,,,Space,keypress(Space),,,,,,,,-- --- ---- --- ------ ----- ------- ---- -- --- ------- --<br>------- ---------- ------ -- ----- -- ----- -- ---- ------<br>--- ----- --- --- ------ -------- ----- --- market ----- --<br>----- ----- ---------- --- --- ------ ------ ---- -- ------<br>------- --- ------ ----- --- ---- ------- -- ---- --- --<br>------- ------,168482,168479,168292.98,168293,168293.58,168489.64,,30,market
screen,html.Screen,2_1_1_1_31,2022-05-10T20:49:33.259Z,,,,,,,,,,,,,,,,,54,,,,,,,,,,,,,,326.35999999998603,,response,,,,100,,,,,,,Space,keypress(Space),,,,,,,,-- --- ---- --- ------ ----- ------- ---- -- --- ------- --<br>------- ---------- ------ -- ----- -- ----- -- ---- ------<br>--- ----- --- --- ------ -------- ----- --- ------ value --<br>----- ----- ---------- --- --- ------ ------ ---- -- ------<br>------- --- ------ ----- --- ---- ------- -- ---- --- --<br>------- ------,168822,168816,168482.34,168482,168489.64,168822.32,,31,value
screen,html.Screen,2_1_1_1_32,2022-05-10T20:49:33.448Z,,,,,,,,,,,,,,,,,54,,,,,,,,,,,,,,185.67999999999302,,response,,,,100,,,,,,,Space,keypress(Space),,,,,,,,-- --- ---- --- ------ ----- ------- ---- -- --- ------- --<br>------- ---------- ------ -- ----- -- ----- -- ---- ------<br>--- ----- --- --- ------ -------- ----- --- ------ ----- of<br>----- ----- ---------- --- --- ------ ------ ---- -- ------<br>------- --- ------ ----- --- ---- ------- -- ---- --- --<br>------- ------,169011,169008,168821.68,168822,168822.32,169023.6,,32,of
screen,html.Screen,2_1_1_1_33,2022-05-10T20:49:33.889Z,,,,,,,,,,,,,,,,,54,,,,,,,,,,,,,,422.3999999999942,,response,,,,100,,,,,,,Space,keypress(Space),,,,,,,,-- --- ---- --- ------ ----- ------- ---- -- --- ------- --<br>------- ---------- ------ -- ----- -- ----- -- ---- ------<br>--- ----- --- --- ------ -------- ----- --- ------ ----- --<br>these ----- ---------- --- --- ------ ------ ---- -- ------<br>------- --- ------ ----- --- ---- ------- -- ---- --- --<br>------- ------,169452,169446,169011.14,169011,169023.6,169452.26,,33,these
screen,html.Screen,2_1_1_1_34,2022-05-10T20:49:34.034Z,,,,,,,,,,,,,,,,,54,,,,,,,,,,,,,,140.7399999999907,,response,,,,100,,,,,,,Space,keypress(Space),,,,,,,,-- --- ---- --- ------ ----- ------- ---- -- --- ------- --<br>------- ---------- ------ -- ----- -- ----- -- ---- ------<br>--- ----- --- --- ------ -------- ----- --- ------ ----- --<br>----- bonds ---------- --- --- ------ ------ ---- -- ------<br>------- --- ------ ----- --- ---- ------- -- ---- --- --<br>------- ------,169596,169593,169451.64,169452,169452.26,169606.78,,34,bonds
screen,html.Screen,2_1_1_1_35,2022-05-10T20:49:34.440Z,,,,,,,,,,,,,,,,,54,,,,,,,,,,,,,,391.22000000000116,,response,,,,100,,,,,,,Space,keypress(Space),,,,,,,,"-- --- ---- --- ------ ----- ------- ---- -- --- ------- --<br>------- ---------- ------ -- ----- -- ----- -- ---- ------<br>--- ----- --- --- ------ -------- ----- --- ------ ----- --<br>----- ----- plummeted, --- --- ------ ------ ---- -- ------<br>------- --- ------ ----- --- ---- ------- -- ---- --- --<br>------- ------",170002,169998,169595.94,169596,169606.78,170003.62,,35,"plummeted,"
screen,html.Screen,2_1_1_1_36,2022-05-10T20:49:34.821Z,,,,,,,,,,,,,,,,,54,,,,,,,,,,,,,,377.38000000000466,,response,,,,100,,,,,,,Space,keypress(Space),,,,,,,,-- --- ---- --- ------ ----- ------- ---- -- --- ------- --<br>------- ---------- ------ -- ----- -- ----- -- ---- ------<br>--- ----- --- --- ------ -------- ----- --- ------ ----- --<br>----- ----- ---------- and --- ------ ------ ---- -- ------<br>------- --- ------ ----- --- ---- ------- -- ---- --- --<br>------- ------,170383,170381,170003.04,170003,170003.62,170391.72,,36,and
screen,html.Screen,2_1_1_1_37,2022-05-10T20:49:35.014Z,,,,,,,,,,,,,,,,,54,,,,,,,,,,,,,,180.27999999999884,,response,,,,100,,,,,,,Space,keypress(Space),,,,,,,,-- --- ---- --- ------ ----- ------- ---- -- --- ------- --<br>------- ---------- ------ -- ----- -- ----- -- ---- ------<br>--- ----- --- --- ------ -------- ----- --- ------ ----- --<br>----- ----- ---------- --- the ------ ------ ---- -- ------<br>------- --- ------ ----- --- ---- ------- -- ---- --- --<br>------- ------,170576,170572,170383.72,170383,170391.72,170577.16,,37,the
screen,html.Screen,2_1_1_1_38,2022-05-10T20:49:35.316Z,,,,,,,,,,,,,,,,,54,,,,,,,,,,,,,,297.8399999999965,,response,,,,100,,,,,,,Space,keypress(Space),,,,,,,,-- --- ---- --- ------ ----- ------- ---- -- --- ------- --<br>------- ---------- ------ -- ----- -- ----- -- ---- ------<br>--- ----- --- --- ------ -------- ----- --- ------ ----- --<br>----- ----- ---------- --- --- market ------ ---- -- ------<br>------- --- ------ ----- --- ---- ------- -- ---- --- --<br>------- ------,170878,170875,170576.6,170576,170577.16,170879.26,,38,market
screen,html.Screen,2_1_1_1_39,2022-05-10T20:49:35.667Z,,,,,,,,,,,,,,,,,54,,,,,,,,,,,,,,344.7399999999907,,response,,,,100,,,,,,,Space,keypress(Space),,,,,,,,-- --- ---- --- ------ ----- ------- ---- -- --- ------- --<br>------- ---------- ------ -- ----- -- ----- -- ---- ------<br>--- ----- --- --- ------ -------- ----- --- ------ ----- --<br>----- ----- ---------- --- --- ------ became ---- -- ------<br>------- --- ------ ----- --- ---- ------- -- ---- --- --<br>------- ------,171229,171224,170878.58,170878,170879.26,171230.2,,39,became
screen,html.Screen,2_1_1_1_40,2022-05-10T20:49:35.968Z,,,,,,,,,,,,,,,,,54,,,,,,,,,,,,,,297.79999999998836,,response,,,,100,,,,,,,Space,keypress(Space),,,,,,,,-- --- ---- --- ------ ----- ------- ---- -- --- ------- --<br>------- ---------- ------ -- ----- -- ----- -- ---- ------<br>--- ----- --- --- ------ -------- ----- --- ------ ----- --<br>----- ----- ---------- --- --- ------ ------ wary -- ------<br>------- --- ------ ----- --- ---- ------- -- ---- --- --<br>------- ------,171531,171528,171229.52,171229,171230.2,171531.66,,40,wary
screen,html.Screen,2_1_1_1_41,2022-05-10T20:49:36.241Z,,,,,,,,,,,,,,,,,54,,,,,,,,,,,,,,266.3399999999965,,response,,,,100,,,,,,,Space,keypress(Space),,,,,,,,-- --- ---- --- ------ ----- ------- ---- -- --- ------- --<br>------- ---------- ------ -- ----- -- ----- -- ---- ------<br>--- ----- --- --- ------ -------- ----- --- ------ ----- --<br>----- ----- ---------- --- --- ------ ------ ---- of ------<br>------- --- ------ ----- --- ---- ------- -- ---- --- --<br>------- ------,171803,171798,171531.04,171531,171531.66,171803.76,,41,of
screen,html.Screen,2_1_1_1_42,2022-05-10T20:49:36.564Z,,,,,,,,,,,,,,,,,54,,,,,,,,,,,,,,320.2399999999907,,response,,,,100,,,,,,,Space,keypress(Space),,,,,,,,-- --- ---- --- ------ ----- ------- ---- -- --- ------- --<br>------- ---------- ------ -- ----- -- ----- -- ---- ------<br>--- ----- --- --- ------ -------- ----- --- ------ ----- --<br>----- ----- ---------- --- --- ------ ------ ---- -- French<br>------- --- ------ ----- --- ---- ------- -- ---- --- --<br>------- ------,172127,172124,171803.16,171803,171803.76,172128.02,,42,French
screen,html.Screen,2_1_1_1_43,2022-05-10T20:49:36.893Z,,,,,,,,,,,,,,,,,54,,,,,,,,,,,,,,321.9800000000105,,response,,,,100,,,,,,,Space,keypress(Space),,,,,,,,-- --- ---- --- ------ ----- ------- ---- -- --- ------- --<br>------- ---------- ------ -- ----- -- ----- -- ---- ------<br>--- ----- --- --- ------ -------- ----- --- ------ ----- --<br>----- ----- ---------- --- --- ------ ------ ---- -- ------<br>credit. --- ------ ----- --- ---- ------- -- ---- --- --<br>------- ------,172455,172450,172127.42,172127,172128.02,172456.26,,43,credit.
screen,html.Screen,2_1_1_1_44,2022-05-10T20:49:37.071Z,,,,,,,,,,,,,,,,,54,,,,,,,,,,,,,,173.7399999999907,,response,,,,100,,,,,,,Space,keypress(Space),,,,,,,,-- --- ---- --- ------ ----- ------- ---- -- --- ------- --<br>------- ---------- ------ -- ----- -- ----- -- ---- ------<br>--- ----- --- --- ------ -------- ----- --- ------ ----- --<br>----- ----- ---------- --- --- ------ ------ ---- -- ------<br>------- The ------ ----- --- ---- ------- -- ---- --- --<br>------- ------,172633,172630,172455.64,172455,172456.26,172644.16,,44,The
screen,html.Screen,2_1_1_1_45,2022-05-10T20:49:37.388Z,,,,,,,,,,,,,,,,,54,,,,,,,,,,,,,,301.8399999999965,,response,,,,100,,,,,,,Space,keypress(Space),,,,,,,,-- --- ---- --- ------ ----- ------- ---- -- --- ------- --<br>------- ---------- ------ -- ----- -- ----- -- ---- ------<br>--- ----- --- --- ------ -------- ----- --- ------ ----- --<br>----- ----- ---------- --- --- ------ ------ ---- -- ------<br>------- --- French ----- --- ---- ------- -- ---- --- --<br>------- ------,172950,172946,172633.56,172634,172644.16,172951.16,,45,French
screen,html.Screen,2_1_1_1_46,2022-05-10T20:49:37.555Z,,,,,,,,,,,,,,,,,54,,,,,,,,,,,,,,163.8399999999965,,response,,,,100,,,,,,,Space,keypress(Space),,,,,,,,-- --- ---- --- ------ ----- ------- ---- -- --- ------- --<br>------- ---------- ------ -- ----- -- ----- -- ---- ------<br>--- ----- --- --- ------ -------- ----- --- ------ ----- --<br>----- ----- ---------- --- --- ------ ------ ---- -- ------<br>------- --- ------ state --- ---- ------- -- ---- --- --<br>------- ------,173118,173115,172950.58,172950,172951.16,173127.98,,46,state
screen,html.Screen,2_1_1_1_47,2022-05-10T20:49:37.917Z,,,,,,,,,,,,,,,,,54,,,,,,,,,,,,,,346.0199999999895,,response,,,,100,,,,,,,Space,keypress(Space),,,,,,,,-- --- ---- --- ------ ----- ------- ---- -- --- ------- --<br>------- ---------- ------ -- ----- -- ----- -- ---- ------<br>--- ----- --- --- ------ -------- ----- --- ------ ----- --<br>----- ----- ---------- --- --- ------ ------ ---- -- ------<br>------- --- ------ ----- was ---- ------- -- ---- --- --<br>------- ------,173480,173474,173117.5,173118,173127.98,173480.12,,47,was
screen,html.Screen,2_1_1_1_48,2022-05-10T20:49:38.196Z,,,,,,,,,,,,,,,,,54,,,,,,,,,,,,,,275.88000000000466,,response,,,,100,,,,,,,Space,keypress(Space),,,,,,,,-- --- ---- --- ------ ----- ------- ---- -- --- ------- --<br>------- ---------- ------ -- ----- -- ----- -- ---- ------<br>--- ----- --- --- ------ -------- ----- --- ------ ----- --<br>----- ----- ---------- --- --- ------ ------ ---- -- ------<br>------- --- ------ ----- --- left ------- -- ---- --- --<br>------- ------,173759,173756,173479.52,173480,173480.12,173759.38,,48,left
screen,html.Screen,2_1_1_1_49,2022-05-10T20:49:38.401Z,,,,,,,,,,,,,,,,,54,,,,,,,,,,,,,,198.61999999999534,,response,,,,100,,,,,,,Space,keypress(Space),,,,,,,,-- --- ---- --- ------ ----- ------- ---- -- --- ------- --<br>------- ---------- ------ -- ----- -- ----- -- ---- ------<br>--- ----- --- --- ------ -------- ----- --- ------ ----- --<br>----- ----- ---------- --- --- ------ ------ ---- -- ------<br>------- --- ------ ----- --- ---- without -- ---- --- --<br>------- ------,173963,173958,173758.76,173759,173759.38,173979.06,,49,without
screen,html.Screen,2_1_1_1_50,2022-05-10T20:49:38.691Z,,,,,,,,,,,,,,,,,54,,,,,,,,,,,,,,271.9400000000023,,response,,,,100,,,,,,,Space,keypress(Space),,,,,,,,-- --- ---- --- ------ ----- ------- ---- -- --- ------- --<br>------- ---------- ------ -- ----- -- ----- -- ---- ------<br>--- ----- --- --- ------ -------- ----- --- ------ ----- --<br>----- ----- ---------- --- --- ------ ------ ---- -- ------<br>------- --- ------ ----- --- ---- ------- an ---- --- --<br>------- ------,174254,174251,173962.98,173963,173979.06,174254.36,,50,an
screen,html.Screen,2_1_1_1_51,2022-05-10T20:49:38.952Z,,,,,,,,,,,,,,,,,54,,,,,,,,,,,,,,254.64000000001397,,response,,,,100,,,,,,,Space,keypress(Space),,,,,,,,-- --- ---- --- ------ ----- ------- ---- -- --- ------- --<br>------- ---------- ------ -- ----- -- ----- -- ---- ------<br>--- ----- --- --- ------ -------- ----- --- ------ ----- --<br>----- ----- ---------- --- --- ------ ------ ---- -- ------<br>------- --- ------ ----- --- ---- ------- -- easy --- --<br>------- ------,174514,174509,174253.76,174254,174254.36,174515.12,,51,easy
screen,html.Screen,2_1_1_1_52,2022-05-10T20:49:39.321Z,,,,,,,,,,,,,,,,,54,,,,,,,,,,,,,,364.88000000000466,,response,,,,100,,,,,,,Space,keypress(Space),,,,,,,,-- --- ---- --- ------ ----- ------- ---- -- --- ------- --<br>------- ---------- ------ -- ----- -- ----- -- ---- ------<br>--- ----- --- --- ------ -------- ----- --- ------ ----- --<br>----- ----- ---------- --- --- ------ ------ ---- -- ------<br>------- --- ------ ----- --- ---- ------- -- ---- way --<br>------- ------,174883,174880,174514.54,174515,174515.12,174884.36,,52,way
screen,html.Screen,2_1_1_1_53,2022-05-10T20:49:39.570Z,,,,,,,,,,,,,,,,,54,,,,,,,,,,,,,,243.64000000001397,,response,,,,100,,,,,,,Space,keypress(Space),,,,,,,,-- --- ---- --- ------ ----- ------- ---- -- --- ------- --<br>------- ---------- ------ -- ----- -- ----- -- ---- ------<br>--- ----- --- --- ------ -------- ----- --- ------ ----- --<br>----- ----- ---------- --- --- ------ ------ ---- -- ------<br>------- --- ------ ----- --- ---- ------- -- ---- --- of<br>------- ------,175133,175128,174883.76,174884,174884.36,175133.9,,53,of
screen,html.Screen,2_1_1_1_54,2022-05-10T20:49:40.007Z,,,,,,,,,,,,,,,,,54,,,,,,,,,,,,,,433.1000000000058,,response,,,,100,,,,,,,Space,keypress(Space),,,,,,,,-- --- ---- --- ------ ----- ------- ---- -- --- ------- --<br>------- ---------- ------ -- ----- -- ----- -- ---- ------<br>--- ----- --- --- ------ -------- ----- --- ------ ----- --<br>----- ----- ---------- --- --- ------ ------ ---- -- ------<br>------- --- ------ ----- --- ---- ------- -- ---- --- --<br>raising ------,175570,175567,175133.24,175134,175133.9,175570.66,,54,raising
screen,html.Screen,2_1_1_1_55,2022-05-10T20:49:40.346Z,,,,,,,,,,,,,,,,,54,,,,,,,,,,,,,,333.3399999999965,,response,,,,100,,,,,,,Space,keypress(Space),,,,,,,,-- --- ---- --- ------ ----- ------- ---- -- --- ------- --<br>------- ---------- ------ -- ----- -- ----- -- ---- ------<br>--- ----- --- --- ------ -------- ----- --- ------ ----- --<br>----- ----- ---------- --- --- ------ ------ ---- -- ------<br>------- --- ------ ----- --- ---- ------- -- ---- --- --<br>------- money.,175909,175904,175570.06,175570,175570.66,175910.22,,55,money.
Item 100,flow.Loop,2_1_1_1,2022-05-10T20:49:40.346Z,,,,,,,,,,,,,,,,,,,,,,,,,,,,,,,19427.98000000001,,completion,,,,,B,,,,,,,,,,,silence,,,,,175910,175904,156459.28,156460,156476.02,175910.22,,,
Question 1,html.Screen,2_1_1_2,2022-05-10T20:49:43.085Z,,,,,,,,,,,,,,,,,,,,,,,,,,,,true,TRUE,,2734.779999999999,,response,,,,100,B,,,,,,TRUE,click #choice-1,,,,silence,,,,,178648,178645,175909.62,175910,175910.22,178647.2,,,
Question 2,html.Screen,2_1_1_3,2022-05-10T20:49:44.919Z,,,,,,,,,,,,,,,,,,,,,,,,,,,,true,FALSE,,1831.7999999999884,,response,,,,100,B,,,,,,FALSE,click #choice-2,,,,silence,,,,,180481,180479,178646.78,178648,178647.2,180481,,,
Item 100,flow.Sequence,2_1_1,2022-05-10T20:49:44.919Z,,,,,,,,,,,,,,,,,,,,,,,,,,,,,,,34008.54000000001,,completion,,,,,,,,,,,,,,,,,,,,,180481,180479,146470.12,146471,146470.46,180481,,,
End of Practice,html.Page,2_1_2,2022-05-10T20:49:48.599Z,,,,,,,,,,,,,,,,,,,,,,,,,,,,,,,3681,,form submission,,,,,,,,,,,,,,,,,,,,,184162,184162,180480.6,180482,180481,184160.2,,,
Practice,flow.Sequence,2_1,2022-05-10T20:49:48.599Z,,,,,,,,,,,,,,,,,,,,,,,,,,,,,,,68292.7,,completion,,,,,,,,,,,,,,,,,,,,,184162,184162,115868.72,115873,115869.3,184160.2,,,
Trap_instruction,html.Page,2_2_0,2022-05-10T20:49:51.873Z,,,,,,,,,,,,,,,,,,,,,,,,,,,,,,,3275.7999999999884,,form submission,,,,,,,,,,,,,,,,,,,,,187436,187436,184159.78,184163,184160.2,187460.88,,,
trap_trial,html.Screen,2_2_1,2022-05-10T20:49:55.178Z,,,,,,,,,,,,,,,,,,,,,,,,,,,,true,1,,3279.1199999999953,,response,,,,,,,,,,,1,click #choice-1,,,,,,,,,190742,190740,187433.54,187436,187460.88,190741.52,,,
end of trap trial,html.Page,2_2_2,2022-05-10T20:49:57.520Z,,,,,,,,,,,,,,,,,,,,,,,,,,,,,,,2341.4800000000105,,form submission,,,,,,,,,,,,,,,,,,,,,193083,193083,190741.12,190742,190741.52,193083.76,,,
Trap 1,flow.Sequence,2_2,2022-05-10T20:49:57.521Z,,,,,,,,,,,,,,,,,,,,,,,,,,,,,,,8922.799999999988,,completion,,,,,,,,,,,,,,,,,,,,,193084,193083,184159.78,184163,184160.2,193083.76,,,
Standby,html.Page,2_3_0,2022-05-10T20:50:05.497Z,,,,,,,,,,,,,,,,,,,,,,,,,,,,,,,7992.6600000000035,,timeout,,,,,,,,,,,,,,,,,,,,,201060,201059.74,193081.4,193084,193083.76,201076.42,,,
Holding screen,html.Screen,2_3_1_0_0,2022-05-10T20:50:12.504Z,,,,,,,,,,,,,,,,,,,,,,,,,,,,,,,7007.879999999976,,timeout,,,,,,,,,,,,,,,,,,,,,208068,208067.64,201059.74,201060,201076.42,208084.3,,,
screen,html.Screen,2_3_1_0_1_0,2022-05-10T20:50:13.545Z,,,,,,,,,,,,,,,,,51,,,,,,,,,,,,,,1019.7000000000116,,response,,,,13,B,,,,,,Space,keypress(Space),,,,lyrical,,,,American -------- --- --- ---- --- --- ------ -- --------<br>---- --------- --- ------- ------------ ---------- ---------<br>--- ---------- ------- ---------- ------- -- -------- ----<br>---- --- ------ ----- ------ -- ---- --- ----- -- - -------<br>-------- -- --- --- -- ----- ----------- ----- -----------<br>---- --- ---------- --- ---- --- -- ----------,209109,209104,208067.64,208068,208084.3,209110.06,,0,American
screen,html.Screen,2_3_1_0_1_1,2022-05-10T20:50:13.872Z,,,,,,,,,,,,,,,,,51,,,,,,,,,,,,,,320.9400000000023,,response,,,,13,B,,,,,,Space,keypress(Space),,,,lyrical,,,,-------- industry --- --- ---- --- --- ------ -- --------<br>---- --------- --- ------- ------------ ---------- ---------<br>--- ---------- ------- ---------- ------- -- -------- ----<br>---- --- ------ ----- ------ -- ---- --- ----- -- - -------<br>-------- -- --- --- -- ----- ----------- ----- -----------<br>---- --- ---------- --- ---- --- -- ----------,209436,209431,209109.48,209110,209110.06,209452.54,,1,industry
screen,html.Screen,2_3_1_0_1_2,2022-05-10T20:50:14.342Z,,,,,,,,,,,,,,,,,51,,,,,,,,,,,,,,451.45999999999185,,response,,,,13,B,,,,,,Space,keypress(Space),,,,lyrical,,,,-------- -------- may --- ---- --- --- ------ -- --------<br>---- --------- --- ------- ------------ ---------- ---------<br>--- ---------- ------- ---------- ------- -- -------- ----<br>---- --- ------ ----- ------ -- ---- --- ----- -- - -------<br>-------- -- --- --- -- ----- ----------- ----- -----------<br>---- --- ---------- --- ---- --- -- ----------,209906,209904,209436.38,209436,209452.54,209907.58,,2,may
screen,html.Screen,2_3_1_0_1_3,2022-05-10T20:50:14.581Z,,,,,,,,,,,,,,,,,51,,,,,,,,,,,,,,232.4200000000128,,response,,,,13,B,,,,,,Space,keypress(Space),,,,lyrical,,,,-------- -------- --- not ---- --- --- ------ -- --------<br>---- --------- --- ------- ------------ ---------- ---------<br>--- ---------- ------- ---------- ------- -- -------- ----<br>---- --- ------ ----- ------ -- ---- --- ----- -- - -------<br>-------- -- --- --- -- ----- ----------- ----- -----------<br>---- --- ---------- --- ---- --- -- ----------,210145,210140,209907,209907,209907.58,210145.84,,3,not
screen,html.Screen,2_3_1_0_1_4,2022-05-10T20:50:14.748Z,,,,,,,,,,,,,,,,,51,,,,,,,,,,,,,,162.1600000000035,,response,,,,13,B,,,,,,Space,keypress(Space),,,,lyrical,,,,-------- -------- --- --- know --- --- ------ -- --------<br>---- --------- --- ------- ------------ ---------- ---------<br>--- ---------- ------- ---------- ------- -- -------- ----<br>---- --- ------ ----- ------ -- ---- --- ----- -- - -------<br>-------- -- --- --- -- ----- ----------- ----- -----------<br>---- --- ---------- --- ---- --- -- ----------,210312,210308,210145.26,210145,210145.84,210320.2,,4,know
screen,html.Screen,2_3_1_0_1_5,2022-05-10T20:50:15.109Z,,,,,,,,,,,,,,,,,51,,,,,,,,,,,,,,347.79999999998836,,response,,,,13,B,,,,,,Space,keypress(Space),,,,lyrical,,,,"-------- -------- --- --- ---- it, --- ------ -- --------<br>---- --------- --- ------- ------------ ---------- ---------<br>--- ---------- ------- ---------- ------- -- -------- ----<br>---- --- ------ ----- ------ -- ---- --- ----- -- - -------<br>-------- -- --- --- -- ----- ----------- ----- -----------<br>---- --- ---------- --- ---- --- -- ----------",210673,210668,210311.78,210312,210320.2,210674.28,,5,"it,"
screen,html.Screen,2_3_1_0_1_6,2022-05-10T20:50:15.276Z,,,,,,,,,,,,,,,,,51,,,,,,,,,,,,,,163.72000000000116,,response,,,,13,B,,,,,,Space,keypress(Space),,,,lyrical,,,,-------- -------- --- --- ---- --- but ------ -- --------<br>---- --------- --- ------- ------------ ---------- ---------<br>--- ---------- ------- ---------- ------- -- -------- ----<br>---- --- ------ ----- ------ -- ---- --- ----- -- - -------<br>-------- -- --- --- -- ----- ----------- ----- -----------<br>---- --- ---------- --- ---- --- -- ----------,210841,210838,210673.72,210673,210674.28,210854.12,,6,but
screen,html.Screen,2_3_1_0_1_7,2022-05-10T20:50:15.626Z,,,,,,,,,,,,,,,,,51,,,,,,,,,,,,,,331.88000000000466,,response,,,,13,B,,,,,,Space,keypress(Space),,,,lyrical,,,,-------- -------- --- --- ---- --- --- debate -- --------<br>---- --------- --- ------- ------------ ---------- ---------<br>--- ---------- ------- ---------- ------- -- -------- ----<br>---- --- ------ ----- ------ -- ---- --- ----- -- - -------<br>-------- -- --- --- -- ----- ----------- ----- -----------<br>---- --- ---------- --- ---- --- -- ----------,211191,211186,210840.5,210841,210854.12,211191.96,,7,debate
screen,html.Screen,2_3_1_0_1_8,2022-05-10T20:50:15.827Z,,,,,,,,,,,,,,,,,51,,,,,,,,,,,,,,197.04000000000815,,response,,,,13,B,,,,,,Space,keypress(Space),,,,lyrical,,,,-------- -------- --- --- ---- --- --- ------ in --------<br>---- --------- --- ------- ------------ ---------- ---------<br>--- ---------- ------- ---------- ------- -- -------- ----<br>---- --- ------ ----- ------ -- ---- --- ----- -- - -------<br>-------- -- --- --- -- ----- ----------- ----- -----------<br>---- --- ---------- --- ---- --- -- ----------,211392,211389,211191.36,211191,211191.96,211403.9,,8,in
screen,html.Screen,2_3_1_0_1_9,2022-05-10T20:50:16.111Z,,,,,,,,,,,,,,,,,51,,,,,,,,,,,,,,266.1000000000058,,response,,,,13,B,,,,,,Space,keypress(Space),,,,lyrical,,,,-------- -------- --- --- ---- --- --- ------ -- Congress<br>---- --------- --- ------- ------------ ---------- ---------<br>--- ---------- ------- ---------- ------- -- -------- ----<br>---- --- ------ ----- ------ -- ---- --- ----- -- - -------<br>-------- -- --- --- -- ----- ----------- ----- -----------<br>---- --- ---------- --- ---- --- -- ----------,211676,211670,211392.04,211392,211403.9,211675.86,,9,Congress
screen,html.Screen,2_3_1_0_1_10,2022-05-10T20:50:16.570Z,,,,,,,,,,,,,,,,,51,,,,,,,,,,,,,,455.14000000001397,,response,,,,13,B,,,,,,Space,keypress(Space),,,,lyrical,,,,-------- -------- --- --- ---- --- --- ------ -- --------<br>over --------- --- ------- ------------ ---------- ---------<br>--- ---------- ------- ---------- ------- -- -------- ----<br>---- --- ------ ----- ------ -- ---- --- ----- -- - -------<br>-------- -- --- --- -- ----- ----------- ----- -----------<br>---- --- ---------- --- ---- --- -- ----------,212135,212131,211675.24,211676,211675.86,212135.22,,10,over
screen,html.Screen,2_3_1_0_1_11,2022-05-10T20:50:16.898Z,,,,,,,,,,,,,,,,,51,,,,,,,,,,,,,,322.77999999999884,,response,,,,13,B,,,,,,Space,keypress(Space),,,,lyrical,,,,-------- -------- --- --- ---- --- --- ------ -- --------<br>---- reforming --- ------- ------------ ---------- ---------<br>--- ---------- ------- ---------- ------- -- -------- ----<br>---- --- ------ ----- ------ -- ---- --- ----- -- - -------<br>-------- -- --- --- -- ----- ----------- ----- -----------<br>---- --- ---------- --- ---- --- -- ----------,212463,212458,212134.62,212135,212135.22,212463.28,,11,reforming
screen,html.Screen,2_3_1_0_1_12,2022-05-10T20:50:17.166Z,,,,,,,,,,,,,,,,,51,,,,,,,,,,,,,,263.72000000000116,,response,,,,13,B,,,,,,Space,keypress(Space),,,,lyrical,,,,-------- -------- --- --- ---- --- --- ------ -- --------<br>---- --------- the ------- ------------ ---------- ---------<br>--- ---------- ------- ---------- ------- -- -------- ----<br>---- --- ------ ----- ------ -- ---- --- ----- -- - -------<br>-------- -- --- --- -- ----- ----------- ----- -----------<br>---- --- ---------- --- ---- --- -- ----------,212730,212727,212462.72,212463,212463.28,212731.5,,12,the
screen,html.Screen,2_3_1_0_1_13,2022-05-10T20:50:17.336Z,,,,,,,,,,,,,,,,,51,,,,,,,,,,,,,,164.5,,response,,,,13,B,,,,,,Space,keypress(Space),,,,lyrical,,,,-------- -------- --- --- ---- --- --- ------ -- --------<br>---- --------- --- federal ------------ ---------- ---------<br>--- ---------- ------- ---------- ------- -- -------- ----<br>---- --- ------ ----- ------ -- ---- --- ----- -- - -------<br>-------- -- --- --- -- ----- ----------- ----- -----------<br>---- --- ---------- --- ---- --- -- ----------,212901,212896,212730.9,212731,212731.5,212905.8,,13,federal
screen,html.Screen,2_3_1_0_1_14,2022-05-10T20:50:17.785Z,,,,,,,,,,,,,,,,,51,,,,,,,,,,,,,,440.20000000001164,,response,,,,13,B,,,,,,Space,keypress(Space),,,,lyrical,,,,-------- -------- --- --- ---- --- --- ------ -- --------<br>---- --------- --- ------- government's ---------- ---------<br>--- ---------- ------- ---------- ------- -- -------- ----<br>---- --- ------ ----- ------ -- ---- --- ----- -- - -------<br>-------- -- --- --- -- ----- ----------- ----- -----------<br>---- --- ---------- --- ---- --- -- ----------,213350,213346,212901.36,212901,212905.8,213350.34,,14,government's
screen,html.Screen,2_3_1_0_1_15,2022-05-10T20:50:18.069Z,,,,,,,,,,,,,,,,,51,,,,,,,,,,,,,,276.6600000000035,,response,,,,13,B,,,,,,Space,keypress(Space),,,,lyrical,,,,-------- -------- --- --- ---- --- --- ------ -- --------<br>---- --------- --- ------- ------------ regulatory ---------<br>--- ---------- ------- ---------- ------- -- -------- ----<br>---- --- ------ ----- ------ -- ---- --- ----- -- - -------<br>-------- -- --- --- -- ----- ----------- ----- -----------<br>---- --- ---------- --- ---- --- -- ----------,213633,213627,213349.7,213350,213350.34,213633.4,,15,regulatory
screen,html.Screen,2_3_1_0_1_16,2022-05-10T20:50:18.426Z,,,,,,,,,,,,,,,,,51,,,,,,,,,,,,,,353.6000000000058,,response,,,,13,B,,,,,,Space,keypress(Space),,,,lyrical,,,,-------- -------- --- --- ---- --- --- ------ -- --------<br>---- --------- --- ------- ------------ ---------- apparatus<br>--- ---------- ------- ---------- ------- -- -------- ----<br>---- --- ------ ----- ------ -- ---- --- ----- -- - -------<br>-------- -- --- --- -- ----- ----------- ----- -----------<br>---- --- ---------- --- ---- --- -- ----------,213990,213987,213632.82,213633,213633.4,213991.4,,16,apparatus
screen,html.Screen,2_3_1_0_1_17,2022-05-10T20:50:18.867Z,,,,,,,,,,,,,,,,,51,,,,,,,,,,,,,,434.6000000000058,,response,,,,13,B,,,,,,Space,keypress(Space),,,,lyrical,,,,-------- -------- --- --- ---- --- --- ------ -- --------<br>---- --------- --- ------- ------------ ---------- ---------<br>may ---------- ------- ---------- ------- -- -------- ----<br>---- --- ------ ----- ------ -- ---- --- ----- -- - -------<br>-------- -- --- --- -- ----- ----------- ----- -----------<br>---- --- ---------- --- ---- --- -- ----------,214432,214426,213990.8,213991,213991.4,214432.96,,17,may
screen,html.Screen,2_3_1_0_1_18,2022-05-10T20:50:19.337Z,,,,,,,,,,,,,,,,,51,,,,,,,,,,,,,,466.04000000000815,,response,,,,13,B,,,,,,Space,keypress(Space),,,,lyrical,,,,-------- -------- --- --- ---- --- --- ------ -- --------<br>---- --------- --- ------- ------------ ---------- ---------<br>--- profoundly ------- ---------- ------- -- -------- ----<br>---- --- ------ ----- ------ -- ---- --- ----- -- - -------<br>-------- -- --- --- -- ----- ----------- ----- -----------<br>---- --- ---------- --- ---- --- -- ----------,214902,214899,214431.58,214432,214432.96,214902.92,,18,profoundly
screen,html.Screen,2_3_1_0_1_19,2022-05-10T20:50:19.655Z,,,,,,,,,,,,,,,,,51,,,,,,,,,,,,,,311.0799999999872,,response,,,,13,B,,,,,,Space,keypress(Space),,,,lyrical,,,,-------- -------- --- --- ---- --- --- ------ -- --------<br>---- --------- --- ------- ------------ ---------- ---------<br>--- ---------- improve ---------- ------- -- -------- ----<br>---- --- ------ ----- ------ -- ---- --- ----- -- - -------<br>-------- -- --- --- -- ----- ----------- ----- -----------<br>---- --- ---------- --- ---- --- -- ----------,215219,215214,214902.26,214903,214902.92,215219.82,,19,improve
screen,html.Screen,2_3_1_0_1_20,2022-05-10T20:50:19.934Z,,,,,,,,,,,,,,,,,51,,,,,,,,,,,,,,275.179999999993,,response,,,,13,B,,,,,,Space,keypress(Space),,,,lyrical,,,,-------- -------- --- --- ---- --- --- ------ -- --------<br>---- --------- --- ------- ------------ ---------- ---------<br>--- ---------- ------- companies' ------- -- -------- ----<br>---- --- ------ ----- ------ -- ---- --- ----- -- - -------<br>-------- -- --- --- -- ----- ----------- ----- -----------<br>---- --- ---------- --- ---- --- -- ----------,215498,215495,215219.24,215219,215219.82,215499.12,,20,companies'
screen,html.Screen,2_3_1_0_1_21,2022-05-10T20:50:20.261Z,,,,,,,,,,,,,,,,,51,,,,,,,,,,,,,,321.88000000000466,,response,,,,13,B,,,,,,Space,keypress(Space),,,,lyrical,,,,-------- -------- --- --- ---- --- --- ------ -- --------<br>---- --------- --- ------- ------------ ---------- ---------<br>--- ---------- ------- ---------- ability -- -------- ----<br>---- --- ------ ----- ------ -- ---- --- ----- -- - -------<br>-------- -- --- --- -- ----- ----------- ----- -----------<br>---- --- ---------- --- ---- --- -- ----------,215826,215821,215498.48,215498,215499.12,215827.08,,21,ability
screen,html.Screen,2_3_1_0_1_22,2022-05-10T20:50:20.822Z,,,,,,,,,,,,,,,,,51,,,,,,,,,,,,,,556.9200000000128,,response,,,,13,B,,,,,,Space,keypress(Space),,,,lyrical,,,,-------- -------- --- --- ---- --- --- ------ -- --------<br>---- --------- --- ------- ------------ ---------- ---------<br>--- ---------- ------- ---------- ------- to -------- ----<br>---- --- ------ ----- ------ -- ---- --- ----- -- - -------<br>-------- -- --- --- -- ----- ----------- ----- -----------<br>---- --- ---------- --- ---- --- -- ----------,216388,216384,215826.5,215826,215827.08,216388.06,,22,to
screen,html.Screen,2_3_1_0_1_23,2022-05-10T20:50:21.151Z,,,,,,,,,,,,,,,,,51,,,,,,,,,,,,,,321.9400000000023,,response,,,,13,B,,,,,,Space,keypress(Space),,,,lyrical,,,,-------- -------- --- --- ---- --- --- ------ -- --------<br>---- --------- --- ------- ------------ ---------- ---------<br>--- ---------- ------- ---------- ------- -- survive. ----<br>---- --- ------ ----- ------ -- ---- --- ----- -- - -------<br>-------- -- --- --- -- ----- ----------- ----- -----------<br>---- --- ---------- --- ---- --- -- ----------,216716,216710,216387.42,216388,216388.06,216716.58,,23,survive.
screen,html.Screen,2_3_1_0_1_24,2022-05-10T20:50:21.779Z,,,,,,,,,,,,,,,,,51,,,,,,,,,,,,,,623.4200000000128,,response,,,,13,B,,,,,,Space,keypress(Space),,,,lyrical,,,,-------- -------- --- --- ---- --- --- ------ -- --------<br>---- --------- --- ------- ------------ ---------- ---------<br>--- ---------- ------- ---------- ------- -- -------- This<br>---- --- ------ ----- ------ -- ---- --- ----- -- - -------<br>-------- -- --- --- -- ----- ----------- ----- -----------<br>---- --- ---------- --- ---- --- -- ----------,217343,217340,216715.9,216716,216716.58,217344.14,,24,This
screen,html.Screen,2_3_1_0_1_25,2022-05-10T20:50:21.984Z,,,,,,,,,,,,,,,,,51,,,,,,,,,,,,,,197.85999999998603,,response,,,,13,B,,,,,,Space,keypress(Space),,,,lyrical,,,,-------- -------- --- --- ---- --- --- ------ -- --------<br>---- --------- --- ------- ------------ ---------- ---------<br>--- ---------- ------- ---------- ------- -- -------- ----<br>week --- ------ ----- ------ -- ---- --- ----- -- - -------<br>-------- -- --- --- -- ----- ----------- ----- -----------<br>---- --- ---------- --- ---- --- -- ----------,217548,217542,217343.54,217344,217344.14,217560.76,,25,week
screen,html.Screen,2_3_1_0_1_26,2022-05-10T20:50:22.330Z,,,,,,,,,,,,,,,,,51,,,,,,,,,,,,,,331.2399999999907,,response,,,,13,B,,,,,,Space,keypress(Space),,,,lyrical,,,,-------- -------- --- --- ---- --- --- ------ -- --------<br>---- --------- --- ------- ------------ ---------- ---------<br>--- ---------- ------- ---------- ------- -- -------- ----<br>---- the ------ ----- ------ -- ---- --- ----- -- - -------<br>-------- -- --- --- -- ----- ----------- ----- -----------<br>---- --- ---------- --- ---- --- -- ----------,217895,217892,217548.24,217548,217560.76,217895.54,,26,the
screen,html.Screen,2_3_1_0_1_27,2022-05-10T20:50:22.515Z,,,,,,,,,,,,,,,,,51,,,,,,,,,,,,,,176.45999999999185,,response,,,,13,B,,,,,,Space,keypress(Space),,,,lyrical,,,,-------- -------- --- --- ---- --- --- ------ -- --------<br>---- --------- --- ------- ------------ ---------- ---------<br>--- ---------- ------- ---------- ------- -- -------- ----<br>---- --- Senate ----- ------ -- ---- --- ----- -- - -------<br>-------- -- --- --- -- ----- ----------- ----- -----------<br>---- --- ---------- --- ---- --- -- ----------,218080,218072,217894.94,217895,217895.54,218094.88,,27,Senate
screen,html.Screen,2_3_1_0_1_28,2022-05-10T20:50:22.712Z,,,,,,,,,,,,,,,,,51,,,,,,,,,,,,,,179.11999999999534,,response,,,,13,B,,,,,,Space,keypress(Space),,,,lyrical,,,,-------- -------- --- --- ---- --- --- ------ -- --------<br>---- --------- --- ------- ------------ ---------- ---------<br>--- ---------- ------- ---------- ------- -- -------- ----<br>---- --- ------ seems ------ -- ---- --- ----- -- - -------<br>-------- -- --- --- -- ----- ----------- ----- -----------<br>---- --- ---------- --- ---- --- -- ----------,218277,218274,218079.68,218080,218094.88,218277.7,,28,seems
screen,html.Screen,2_3_1_0_1_29,2022-05-10T20:50:23.130Z,,,,,,,,,,,,,,,,,51,,,,,,,,,,,,,,412.29999999998836,,response,,,,13,B,,,,,,Space,keypress(Space),,,,lyrical,,,,-------- -------- --- --- ---- --- --- ------ -- --------<br>---- --------- --- ------- ------------ ---------- ---------<br>--- ---------- ------- ---------- ------- -- -------- ----<br>---- --- ------ ----- poised -- ---- --- ----- -- - -------<br>-------- -- --- --- -- ----- ----------- ----- -----------<br>---- --- ---------- --- ---- --- -- ----------,218695,218690,218277.12,218277,218277.7,218696.2,,29,poised
screen,html.Screen,2_3_1_0_1_30,2022-05-10T20:50:23.455Z,,,,,,,,,,,,,,,,,51,,,,,,,,,,,,,,320.79999999998836,,response,,,,13,B,,,,,,Space,keypress(Space),,,,lyrical,,,,-------- -------- --- --- ---- --- --- ------ -- --------<br>---- --------- --- ------- ------------ ---------- ---------<br>--- ---------- ------- ---------- ------- -- -------- ----<br>---- --- ------ ----- ------ to ---- --- ----- -- - -------<br>-------- -- --- --- -- ----- ----------- ----- -----------<br>---- --- ---------- --- ---- --- -- ----------,219019,219017,218695.58,218695,218696.2,219020.44,,30,to
screen,html.Screen,2_3_1_0_1_31,2022-05-10T20:50:23.649Z,,,,,,,,,,,,,,,,,51,,,,,,,,,,,,,,187.55999999999767,,response,,,,13,B,,,,,,Space,keypress(Space),,,,lyrical,,,,-------- -------- --- --- ---- --- --- ------ -- --------<br>---- --------- --- ------- ------------ ---------- ---------<br>--- ---------- ------- ---------- ------- -- -------- ----<br>---- --- ------ ----- ------ -- join --- ----- -- - -------<br>-------- -- --- --- -- ----- ----------- ----- -----------<br>---- --- ---------- --- ---- --- -- ----------,219213,219208,219019.84,219020,219020.44,219213.66,,31,join
screen,html.Screen,2_3_1_0_1_32,2022-05-10T20:50:23.827Z,,,,,,,,,,,,,,,,,51,,,,,,,,,,,,,,173.3399999999965,,response,,,,13,B,,,,,,Space,keypress(Space),,,,lyrical,,,,-------- -------- --- --- ---- --- --- ------ -- --------<br>---- --------- --- ------- ------------ ---------- ---------<br>--- ---------- ------- ---------- ------- -- -------- ----<br>---- --- ------ ----- ------ -- ---- the ----- -- - -------<br>-------- -- --- --- -- ----- ----------- ----- -----------<br>---- --- ---------- --- ---- --- -- ----------,219391,219387,219213.12,219213,219213.66,219391.88,,32,the
screen,html.Screen,2_3_1_0_1_33,2022-05-10T20:50:24.020Z,,,,,,,,,,,,,,,,,51,,,,,,,,,,,,,,187.11999999999534,,response,,,,13,B,,,,,,Space,keypress(Space),,,,lyrical,,,,-------- -------- --- --- ---- --- --- ------ -- --------<br>---- --------- --- ------- ------------ ---------- ---------<br>--- ---------- ------- ---------- ------- -- -------- ----<br>---- --- ------ ----- ------ -- ---- --- House -- - -------<br>-------- -- --- --- -- ----- ----------- ----- -----------<br>---- --- ---------- --- ---- --- -- ----------,219584,219579,219391.3,219391,219391.88,219597.44,,33,House
screen,html.Screen,2_3_1_0_1_34,2022-05-10T20:50:24.378Z,,,,,,,,,,,,,,,,,51,,,,,,,,,,,,,,341.5599999999977,,response,,,,13,B,,,,,,Space,keypress(Space),,,,lyrical,,,,-------- -------- --- --- ---- --- --- ------ -- --------<br>---- --------- --- ------- ------------ ---------- ---------<br>--- ---------- ------- ---------- ------- -- -------- ----<br>---- --- ------ ----- ------ -- ---- --- ----- in - -------<br>-------- -- --- --- -- ----- ----------- ----- -----------<br>---- --- ---------- --- ---- --- -- ----------,219942,219939,219584.54,219584,219597.44,219943,,34,in
screen,html.Screen,2_3_1_0_1_35,2022-05-10T20:50:24.728Z,,,,,,,,,,,,,,,,,51,,,,,,,,,,,,,,345,,response,,,,13,B,,,,,,Space,keypress(Space),,,,lyrical,,,,-------- -------- --- --- ---- --- --- ------ -- --------<br>---- --------- --- ------- ------------ ---------- ---------<br>--- ---------- ------- ---------- ------- -- -------- ----<br>---- --- ------ ----- ------ -- ---- --- ----- -- a -------<br>-------- -- --- --- -- ----- ----------- ----- -----------<br>---- --- ---------- --- ---- --- -- ----------,220293,220288,219942.38,219942,219943,220293.66,,35,a
screen,html.Screen,2_3_1_0_1_36,2022-05-10T20:50:24.952Z,,,,,,,,,,,,,,,,,51,,,,,,,,,,,,,,219.3399999999965,,response,,,,13,B,,,,,,Space,keypress(Space),,,,lyrical,,,,-------- -------- --- --- ---- --- --- ------ -- --------<br>---- --------- --- ------- ------------ ---------- ---------<br>--- ---------- ------- ---------- ------- -- -------- ----<br>---- --- ------ ----- ------ -- ---- --- ----- -- - massive<br>-------- -- --- --- -- ----- ----------- ----- -----------<br>---- --- ---------- --- ---- --- -- ----------,220517,220513,220293.06,220293,220293.66,220516.84,,36,massive
screen,html.Screen,2_3_1_0_1_37,2022-05-10T20:50:25.391Z,,,,,,,,,,,,,,,,,51,,,,,,,,,,,,,,434.1600000000035,,response,,,,13,B,,,,,,Space,keypress(Space),,,,lyrical,,,,-------- -------- --- --- ---- --- --- ------ -- --------<br>---- --------- --- ------- ------------ ---------- ---------<br>--- ---------- ------- ---------- ------- -- -------- ----<br>---- --- ------ ----- ------ -- ---- --- ----- -- - -------<br>overhaul -- --- --- -- ----- ----------- ----- -----------<br>---- --- ---------- --- ---- --- -- ----------,220957,220951,220516.26,220517,220516.84,220957.54,,37,overhaul
screen,html.Screen,2_3_1_0_1_38,2022-05-10T20:50:25.795Z,,,,,,,,,,,,,,,,,51,,,,,,,,,,,,,,399.45999999999185,,response,,,,13,B,,,,,,Space,keypress(Space),,,,lyrical,,,,-------- -------- --- --- ---- --- --- ------ -- --------<br>---- --------- --- ------- ------------ ---------- ---------<br>--- ---------- ------- ---------- ------- -- -------- ----<br>---- --- ------ ----- ------ -- ---- --- ----- -- - -------<br>-------- of --- --- -- ----- ----------- ----- -----------<br>---- --- ---------- --- ---- --- -- ----------,221360,221357,220956.96,220957,220957.54,221361.04,,38,of
screen,html.Screen,2_3_1_0_1_39,2022-05-10T20:50:25.977Z,,,,,,,,,,,,,,,,,51,,,,,,,,,,,,,,174.95999999999185,,response,,,,13,B,,,,,,Space,keypress(Space),,,,lyrical,,,,-------- -------- --- --- ---- --- --- ------ -- --------<br>---- --------- --- ------- ------------ ---------- ---------<br>--- ---------- ------- ---------- ------- -- -------- ----<br>---- --- ------ ----- ------ -- ---- --- ----- -- - -------<br>-------- -- the --- -- ----- ----------- ----- -----------<br>---- --- ---------- --- ---- --- -- ----------,221542,221536,221360.4,221360,221361.04,221548.68,,39,the
screen,html.Screen,2_3_1_0_1_40,2022-05-10T20:50:26.110Z,,,,,,,,,,,,,,,,,51,,,,,,,,,,,,,,122.32000000000698,,response,,,,13,B,,,,,,Space,keypress(Space),,,,lyrical,,,,-------- -------- --- --- ---- --- --- ------ -- --------<br>---- --------- --- ------- ------------ ---------- ---------<br>--- ---------- ------- ---------- ------- -- -------- ----<br>---- --- ------ ----- ------ -- ---- --- ----- -- - -------<br>-------- -- --- way -- ----- ----------- ----- -----------<br>---- --- ---------- --- ---- --- -- ----------,221675,221671,221541.8,221542,221548.68,221683.04,,40,way
screen,html.Screen,2_3_1_0_1_41,2022-05-10T20:50:26.449Z,,,,,,,,,,,,,,,,,51,,,,,,,,,,,,,,325.95999999999185,,response,,,,13,B,,,,,,Space,keypress(Space),,,,lyrical,,,,-------- -------- --- --- ---- --- --- ------ -- --------<br>---- --------- --- ------- ------------ ---------- ---------<br>--- ---------- ------- ---------- ------- -- -------- ----<br>---- --- ------ ----- ------ -- ---- --- ----- -- - -------<br>-------- -- --- --- in ----- ----------- ----- -----------<br>---- --- ---------- --- ---- --- -- ----------,222014,222009,221674.92,221675,221683.04,222015.16,,41,in
screen,html.Screen,2_3_1_0_1_42,2022-05-10T20:50:26.662Z,,,,,,,,,,,,,,,,,51,,,,,,,,,,,,,,207.8399999999965,,response,,,,13,B,,,,,,Space,keypress(Space),,,,lyrical,,,,-------- -------- --- --- ---- --- --- ------ -- --------<br>---- --------- --- ------- ------------ ---------- ---------<br>--- ---------- ------- ---------- ------- -- -------- ----<br>---- --- ------ ----- ------ -- ---- --- ----- -- - -------<br>-------- -- --- --- -- which ----------- ----- -----------<br>---- --- ---------- --- ---- --- -- ----------,222226,222223,222014.58,222014,222015.16,222233.64,,42,which
screen,html.Screen,2_3_1_0_1_43,2022-05-10T20:50:26.978Z,,,,,,,,,,,,,,,,,51,,,,,,,,,,,,,,304.35999999998603,,response,,,,13,B,,,,,,Space,keypress(Space),,,,lyrical,,,,-------- -------- --- --- ---- --- --- ------ -- --------<br>---- --------- --- ------- ------------ ---------- ---------<br>--- ---------- ------- ---------- ------- -- -------- ----<br>---- --- ------ ----- ------ -- ---- --- ----- -- - -------<br>-------- -- --- --- -- ----- bureaucrats ----- -----------<br>---- --- ---------- --- ---- --- -- ----------,222543,222538,222226.18,222226,222233.64,222543.88,,43,bureaucrats
screen,html.Screen,2_3_1_0_1_44,2022-05-10T20:50:27.348Z,,,,,,,,,,,,,,,,,51,,,,,,,,,,,,,,366.11999999999534,,response,,,,13,B,,,,,,Space,keypress(Space),,,,lyrical,,,,-------- -------- --- --- ---- --- --- ------ -- --------<br>---- --------- --- ------- ------------ ---------- ---------<br>--- ---------- ------- ---------- ------- -- -------- ----<br>---- --- ------ ----- ------ -- ---- --- ----- -- - -------<br>-------- -- --- --- -- ----- ----------- enact -----------<br>---- --- ---------- --- ---- --- -- ----------,222913,222910,222543.32,222543,222543.88,222913.24,,44,enact
screen,html.Screen,2_3_1_0_1_45,2022-05-10T20:50:27.530Z,,,,,,,,,,,,,,,,,51,,,,,,,,,,,,,,175.7600000000093,,response,,,,13,B,,,,,,Space,keypress(Space),,,,lyrical,,,,-------- -------- --- --- ---- --- --- ------ -- --------<br>---- --------- --- ------- ------------ ---------- ---------<br>--- ---------- ------- ---------- ------- -- -------- ----<br>---- --- ------ ----- ------ -- ---- --- ----- -- - -------<br>-------- -- --- --- -- ----- ----------- ----- regulations<br>---- --- ---------- --- ---- --- -- ----------,223094,223089,222912.62,222913,222913.24,223101.26,,45,regulations
screen,html.Screen,2_3_1_0_1_46,2022-05-10T20:50:28.012Z,,,,,,,,,,,,,,,,,51,,,,,,,,,,,,,,471.7399999999907,,response,,,,13,B,,,,,,Space,keypress(Space),,,,lyrical,,,,-------- -------- --- --- ---- --- --- ------ -- --------<br>---- --------- --- ------- ------------ ---------- ---------<br>--- ---------- ------- ---------- ------- -- -------- ----<br>---- --- ------ ----- ------ -- ---- --- ----- -- - -------<br>-------- -- --- --- -- ----- ----------- ----- -----------<br>that --- ---------- --- ---- --- -- ----------,223577,223573,223094.6,223095,223101.26,223577.2,,46,that
screen,html.Screen,2_3_1_0_1_47,2022-05-10T20:50:28.193Z,,,,,,,,,,,,,,,,,51,,,,,,,,,,,,,,175.79999999998836,,response,,,,13,B,,,,,,Space,keypress(Space),,,,lyrical,,,,-------- -------- --- --- ---- --- --- ------ -- --------<br>---- --------- --- ------- ------------ ---------- ---------<br>--- ---------- ------- ---------- ------- -- -------- ----<br>---- --- ------ ----- ------ -- ---- --- ----- -- - -------<br>-------- -- --- --- -- ----- ----------- ----- -----------<br>---- are ---------- --- ---- --- -- ----------,223758,223753,223576.56,223577,223577.2,223768.78,,47,are
screen,html.Screen,2_3_1_0_1_48,2022-05-10T20:50:28.359Z,,,,,,,,,,,,,,,,,51,,,,,,,,,,,,,,153.22000000000116,,response,,,,13,B,,,,,,Space,keypress(Space),,,,lyrical,,,,-------- -------- --- --- ---- --- --- ------ -- --------<br>---- --------- --- ------- ------------ ---------- ---------<br>--- ---------- ------- ---------- ------- -- -------- ----<br>---- --- ------ ----- ------ -- ---- --- ----- -- - -------<br>-------- -- --- --- -- ----- ----------- ----- -----------<br>---- --- strangling --- ---- --- -- ----------,223925,223922,223758.22,223758,223768.78,223934.76,,48,strangling
screen,html.Screen,2_3_1_0_1_49,2022-05-10T20:50:28.947Z,,,,,,,,,,,,,,,,,51,,,,,,,,,,,,,,572.2399999999907,,response,,,,13,B,,,,,,Space,keypress(Space),,,,lyrical,,,,-------- -------- --- --- ---- --- --- ------ -- --------<br>---- --------- --- ------- ------------ ---------- ---------<br>--- ---------- ------- ---------- ------- -- -------- ----<br>---- --- ------ ----- ------ -- ---- --- ----- -- - -------<br>-------- -- --- --- -- ----- ----------- ----- -----------<br>---- --- ---------- the ---- --- -- ----------,224512,224507,223925.06,223925,223934.76,224512.68,,49,the
screen,html.Screen,2_3_1_0_1_50,2022-05-10T20:50:29.260Z,,,,,,,,,,,,,,,,,51,,,,,,,,,,,,,,309.320000000007,,response,,,,13,B,,,,,,Space,keypress(Space),,,,lyrical,,,,-------- -------- --- --- ---- --- --- ------ -- --------<br>---- --------- --- ------- ------------ ---------- ---------<br>--- ---------- ------- ---------- ------- -- -------- ----<br>---- --- ------ ----- ------ -- ---- --- ----- -- - -------<br>-------- -- --- --- -- ----- ----------- ----- -----------<br>---- --- ---------- --- life --- -- ----------,224824,224822,224512.1,224512,224512.68,224825.64,,50,life
