sender,sender_type,sender_id,timestamp,meta,,Blues,Classical,Country,Dance,Electronic,Folk,Gospel,Hip-Hop,Jazz,Latin,Musical/Film,New-age,Pop,Prolific_id,Provo_ID,R&B,Rap,Reggae,Religious,Rock,Soul,Swing,Traditional,age,artist_name,correct,correctResponse,distraction,duration,education,ended_on,familiarity,gender,headphone_check_performance,item,list,music_frequency,offensiveness,pleasantness,position_correct,preference,response,response_action,snippet_file,song_name,song_rating,sound,stimulus_1,stimulus_2,stimulus_3,text,time_commit,time_end,time_render,time_run,time_show,time_switch,url,word,word_ID
Prolific ID,html.Form,0,2022-05-09T14:53:07.690Z,"{""labjs_version"":""20.2.2"",""labjs_build"":{""flavor"":""production"",""commit"":""a25486e0c714a0ae2ce03ff94b7bb6896854dcfa""},""location"":""https://run.pavlovia.org/mvasilev/prolific3_music_f/"",""userAgent"":""Mozilla/5.0 (Windows NT 10.0; Win64; x64) AppleWebKit/537.36 (KHTML, like Gecko) Chrome/101.0.4951.54 Safari/537.36 Edg/101.0.1210.39"",""platform"":""Win32"",""language"":""en-GB"",""locale"":""en-GB"",""timeZone"":""Europe/London"",""timezoneOffset"":-60,""screen_width"":1920,""screen_height"":1080,""scroll_width"":1920,""scroll_height"":913,""window_innerWidth"":1920,""window_innerHeight"":961,""devicePixelRatio"":1}",,,,,,,,,,,,,,,615751428f5b982adf71384e,,,,,,,,,,,,,,,8413.015999928475,,form submission,,,,,,,,,,,,,,,,,,,,,19847,19846.699999928474,11417.969,11428.099999904633,11433.684,19850.332,{},,
Introduction,html.Screen,1_0,2022-05-09T14:53:13.101Z,,,,,,,,,,,,,,,,,,,,,,,,,,,,,,,5405.767999904634,,response,,,,,,,,,,,continue,click button,,,,,,,,,25258.299999952316,25256.099999904633,19833.669,19847.099999904633,19850.332,25266.989,,,
Volume calibration,html.Screen,1_1,2022-05-09T14:53:48.223Z,,,,,,,,,,,,,,,,,,,,,,,,,,,,,,,35109.11099990463,,response,,,,,,,,,,,continue,click button,,,,,,,,,60379.39999997616,60376.09999990463,25250.488,25258.399999976158,25266.989,60383.685,,,
Task instructions,html.Screen,1_2,2022-05-09T14:54:01.370Z,,,,,,,,,,,,,,,,,,,,,,,,,,,,,,,13142.414999904635,,response,,,,,,,,,,,continue,click button,,,,,,,,,73526.79999995232,73526.09999990463,60367.07,60379.5,60383.685,73533.732,,,
Sounds,html.Screen,1_3_0_0,2022-05-09T14:54:05.616Z,,,,,,,,,,,,,,,,,,,,,,,,,,,,,,,4266.873999999996,,timeout,,,,,,,,,1,,,,,,,,S,O,I,,77773,77767.242,73517.28,73527,73533.732,77800.606,,,
Judgement,html.Screen,1_3_0_1,2022-05-09T14:54:06.254Z,,,,,,,,,,,,,,,,,,,,,,,,,,,,true,1,,609.3940000000002,,response,,,,,,,,,1,,1,click #choice-1,,,,,S,O,I,,78411,78410,77767.242,77773.39999997616,77800.606,78417.052,,,
Trial,flow.Sequence,1_3_0,2022-05-09T14:54:06.254Z,,,,,,,,,,,,,,,,,,,,,,,,,,,,,,,4876.267999999996,,completion,,,,,,,,,1,,,,,,,,S,O,I,,78411.29999995232,78410,73517.28,73527,73533.732,78417.052,,,
Sounds,html.Screen,1_3_1_0,2022-05-09T14:54:10.495Z,,,,,,,,,,,,,,,,,,,,,,,,,,,,,,,4250.04800000001,,timeout,,,,,,,,,3,,,,,,,,O,I,S,,82651.79999995232,82650.432,78400.562,78411.5,78417.052,82667.1,,,
Judgement,html.Screen,1_3_1_1,2022-05-09T14:54:10.926Z,,,,,,,,,,,,,,,,,,,,,,,,,,,,true,3,,414.99999990462675,,response,,,,,,,,,3,,3,click #choice-3,,,,,O,I,S,,83083,83082.09999990463,82650.432,82652.29999995232,82667.1,83100.376,,,
Trial,flow.Sequence,1_3_1,2022-05-09T14:54:10.926Z,,,,,,,,,,,,,,,,,,,,,,,,,,,,,,,4665.0479999046365,,completion,,,,,,,,,3,,,,,,,,O,I,S,,83083.29999995232,83082.09999990463,78400.562,78411.39999997616,78417.052,83100.376,,,
Sounds,html.Screen,1_3_2_0,2022-05-09T14:54:15.178Z,,,,,,,,,,,,,,,,,,,,,,,,,,,,,,,4250.059999999998,,timeout,,,,,,,,,2,,,,,,,,O,S,I,,87335.19999992847,87333.787,83083.726,83083.39999997616,83100.376,87350.436,,,
Judgement,html.Screen,1_3_2_1,2022-05-09T14:54:15.530Z,,,,,,,,,,,,,,,,,,,,,,,,,,,,true,2,,335.46399997615663,,response,,,,,,,,,2,,2,click #choice-2,,,,,O,S,I,,87686.59999990463,87685.89999997616,87333.787,87335.5,87350.436,87700.59,,,
Trial,flow.Sequence,1_3_2,2022-05-09T14:54:15.530Z,,,,,,,,,,,,,,,,,,,,,,,,,,,,,,,4585.523999976154,,completion,,,,,,,,,2,,,,,,,,O,S,I,,87686.79999995232,87685.89999997616,83083.726,83083.39999997616,83100.376,87700.59,,,
Sounds,html.Screen,1_3_3_0,2022-05-09T14:54:19.778Z,,,,,,,,,,,,,,,,,,,,,,,,,,,,,,,4249.986000000004,,timeout,,,,,,,,,2,,,,,,,,I,S,O,,91935.19999992847,91933.768,87683.847,87687,87700.59,91950.576,,,
Judgement,html.Screen,1_3_3_1,2022-05-09T14:54:20.265Z,,,,,,,,,,,,,,,,,,,,,,,,,,,,true,2,,471.3239999761572,,response,,,,,,,,,2,,2,click #choice-2,,,,,I,S,O,,92422.29999995232,92421.89999997616,91933.768,91935.39999997616,91950.576,92450.595,,,
Trial,flow.Sequence,1_3_3,2022-05-09T14:54:20.266Z,,,,,,,,,,,,,,,,,,,,,,,,,,,,,,,4721.309999976162,,completion,,,,,,,,,2,,,,,,,,I,S,O,,92422.39999997616,92421.89999997616,87683.847,87686.89999997616,87700.59,92450.595,,,
Sounds,html.Screen,1_3_4_0,2022-05-09T14:54:24.529Z,,,,,,,,,,,,,,,,,,,,,,,,,,,,,,,4250.053,,timeout,,,,,,,,,3,,,,,,,,I,O,S,,96685.59999990463,96684.017,92433.687,92422.5,92450.595,96700.648,,,
Judgement,html.Screen,1_3_4_1,2022-05-09T14:54:24.932Z,,,,,,,,,,,,,,,,,,,,,,,,,,,,true,3,,387.35199999999895,,response,,,,,,,,,3,,3,click #choice-3,,,,,I,O,S,,97088.79999995232,97088,96684.017,96685.89999997616,96700.648,97117.079,,,
Trial,flow.Sequence,1_3_4,2022-05-09T14:54:24.932Z,,,,,,,,,,,,,,,,,,,,,,,,,,,,,,,4637.404999999999,,completion,,,,,,,,,3,,,,,,,,I,O,S,,97088.89999997616,97088,92433.687,92422.5,92450.595,97117.079,,,
Sounds,html.Screen,1_3_5_0,2022-05-09T14:54:29.196Z,,,,,,,,,,,,,,,,,,,,,,,,,,,,,,,4250.034,,timeout,,,,,,,,,1,,,,,,,,S,I,O,,101352.89999997616,101350.437,97100.42,97089,97117.079,101367.113,,,
Judgement,html.Screen,1_3_5_1,2022-05-09T14:54:29.576Z,,,,,,,,,,,,,,,,,,,,,,,,,,,,true,1,,364.88700000000244,,response,,,,,,,,,1,,1,click #choice-1,,,,,S,I,O,,101733,101732,101350.437,101353.19999992847,101367.113,101755.269,,,
Trial,flow.Sequence,1_3_5,2022-05-09T14:54:29.576Z,,,,,,,,,,,,,,,,,,,,,,,,,,,,,,,4614.921000000002,,completion,,,,,,,,,1,,,,,,,,S,I,O,,101733.09999990463,101732,97100.42,97089,97117.079,101755.269,,,
Task,flow.Loop,1_3,2022-05-09T14:54:29.581Z,,,,,,,,,,,,,,,,,,,,,,,,,,,,,,,28198.267999999996,,completion,,,1,,,,,,,,,,,,,,,,,,101737.69999992847,101732,73517.28,73527,73533.732,101755.269,,,
Trap,html.Screen,1_4,2022-05-09T14:54:29.581Z,,,,,,,,,,,,,,,,,,,,,,,,,,,,,,,NaN,,skipped,,,,,,,,,,,,,,,,,,,,,101738.29999995232,101732,,101738.19999992847,,101755.269,,,
Thanks,html.Screen,1_5,2022-05-09T14:54:34.556Z,,,,,,,,,,,,,,,,,,,,,,,,,,,,,,,4956.731,,response,,,,,,,,,,,continue,click button,,,,,,,,,106712.79999995232,106712,101717.189,101738.39999997616,101755.269,109567.031,,,
Headphone screening,flow.Sequence,1,2022-05-09T14:54:34.556Z,,,,,,,,,,,,,,,,,,,,,,,,,,,,,,,86861.668,,completion,,,,,,,,,,,,,,,,,,,,,106713,106712,19833.669,19847.099999904633,19850.332,109567.031,,,
Instructions,html.Page,2_0,2022-05-09T14:54:46.002Z,,,,,,,,,,,,,,,,,,,,,,,,,,,,,,,8591.768999952314,,form submission,,,,,,,,,,,,,,,,,,,,,118159,118158.79999995232,109550.607,109562.19999992847,109567.031,118167.054,,,
Holding screen,html.Screen,2_1_0_0,2022-05-09T14:54:55.994Z,,,,,,,,,,,,,,,,,,,,,,,,,,,,,,,10016.73599999999,,timeout,,,,,,,,,,,,,,,,,,,,,128151.89999997616,128150.637,118150.575,118159.19999992847,118167.054,128183.79,,,
screen,html.Screen,2_1_0_1_0,2022-05-09T14:54:57.281Z,,,,,,,,,,,,,,,,,53,,,,,,,,,,,,,,1249.6099999761645,,response,,,,99,,,,,,,Space,keypress(Space),,,,,,,,When -- ----- -- ------ - ------- --- ----------<br>------------- ------ ------ ---- ---- ------- ----- -- ----<br>-------- ------- -- ---------- --- - --- ----- ----- ----<br>---- --- --- ----- --- ---- ---- ------- ----- ---- -------<br>--- --- -- ----- -- --- ---- -- --- ---- -- ------ ------<br>--- ----- -- ----,129438.5,129433.39999997616,128150.637,128152.29999995232,128183.79,129450.637,,0,When
screen,html.Screen,2_1_0_1_1,2022-05-09T14:54:57.664Z,,,,,,,,,,,,,,,,,53,,,,,,,,,,,,,,370.2629999761557,,response,,,,99,,,,,,,Space,keypress(Space),,,,,,,,---- it ----- -- ------ - ------- --- ----------<br>------------- ------ ------ ---- ---- ------- ----- -- ----<br>-------- ------- -- ---------- --- - --- ----- ----- ----<br>---- --- --- ----- --- ---- ---- ------- ----- ---- -------<br>--- --- -- ----- -- --- ---- -- --- ---- -- ------ ------<br>--- ----- -- ----,129821.79999995232,129820.89999997616,129434.153,129438.89999997616,129450.637,129834.001,,1,it
screen,html.Screen,2_1_0_1_2,2022-05-09T14:54:58.048Z,,,,,,,,,,,,,,,,,53,,,,,,,,,,,,,,371.0989999046287,,response,,,,99,,,,,,,Space,keypress(Space),,,,,,,,---- -- comes -- ------ - ------- --- ----------<br>------------- ------ ------ ---- ---- ------- ----- -- ----<br>-------- ------- -- ---------- --- - --- ----- ----- ----<br>---- --- --- ----- --- ---- ---- ------- ----- ---- -------<br>--- --- -- ----- -- --- ---- -- --- ---- -- ------ ------<br>--- ----- -- ----,130206,130205.09999990463,129817.366,129822.09999990463,129834.001,130217.307,,2,comes
screen,html.Screen,2_1_0_1_3,2022-05-09T14:54:58.432Z,,,,,,,,,,,,,,,,,53,,,,,,,,,,,,,,371.8929999284737,,response,,,,99,,,,,,,Space,keypress(Space),,,,,,,,---- -- ----- to ------ - ------- --- ----------<br>------------- ------ ------ ---- ---- ------- ----- -- ----<br>-------- ------- -- ---------- --- - --- ----- ----- ----<br>---- --- --- ----- --- ---- ---- ------- ----- ---- -------<br>--- --- -- ----- -- --- ---- -- --- ---- -- ------ ------<br>--- ----- -- ----,130590,130589.19999992847,130200.598,130206.19999992847,130217.307,130600.509,,3,to
screen,html.Screen,2_1_0_1_4,2022-05-09T14:54:58.808Z,,,,,,,,,,,,,,,,,53,,,,,,,,,,,,,,364.5909999046271,,response,,,,99,,,,,,,Space,keypress(Space),,,,,,,,---- -- ----- -- having - ------- --- ----------<br>------------- ------ ------ ---- ---- ------- ----- -- ----<br>-------- ------- -- ---------- --- - --- ----- ----- ----<br>---- --- --- ----- --- ---- ---- ------- ----- ---- -------<br>--- --- -- ----- -- --- ---- -- --- ---- -- ------ ------<br>--- ----- -- ----,130966.09999990463,130965.09999990463,130583.99,130590.29999995232,130600.509,131000.632,,4,having
screen,html.Screen,2_1_0_1_5,2022-05-09T14:54:59.208Z,,,,,,,,,,,,,,,,,53,,,,,,,,,,,,,,364.56799992847664,,response,,,,99,,,,,,,Space,keypress(Space),,,,,,,,---- -- ----- -- ------ a ------- --- ----------<br>------------- ------ ------ ---- ---- ------- ----- -- ----<br>-------- ------- -- ---------- --- - --- ----- ----- ----<br>---- --- --- ----- --- ---- ---- ------- ----- ---- -------<br>--- --- -- ----- -- --- ---- -- --- ---- -- ------ ------<br>--- ----- -- ----,131366.09999990463,131365.19999992847,130983.982,130966.39999997616,131000.632,131400.663,,5,a
screen,html.Screen,2_1_0_1_6,2022-05-09T14:54:59.600Z,,,,,,,,,,,,,,,,,53,,,,,,,,,,,,,,356.4369999046321,,response,,,,99,,,,,,,Space,keypress(Space),,,,,,,,---- -- ----- -- ------ - lasting --- ----------<br>------------- ------ ------ ---- ---- ------- ----- -- ----<br>-------- ------- -- ---------- --- - --- ----- ----- ----<br>---- --- --- ----- --- ---- ---- ------- ----- ---- -------<br>--- --- -- ----- -- --- ---- -- --- ---- -- ------ ------<br>--- ----- -- ----,131758.09999990463,131757.09999990463,131384.007,131366.29999995232,131400.663,131767.138,,6,lasting
screen,html.Screen,2_1_0_1_7,2022-05-09T14:55:00.008Z,,,,,,,,,,,,,,,,,53,,,,,,,,,,,,,,397.76199997615186,,response,,,,99,,,,,,,Space,keypress(Space),,,,,,,,---- -- ----- -- ------ - ------- and ----------<br>------------- ------ ------ ---- ---- ------- ----- -- ----<br>-------- ------- -- ---------- --- - --- ----- ----- ----<br>---- --- --- ----- --- ---- ---- ------- ----- ---- -------<br>--- --- -- ----- -- --- ---- -- --- ---- -- ------ ------<br>--- ----- -- ----,132166,132164.89999997616,131750.72,131758.39999997616,131767.138,132183.757,,7,and
screen,html.Screen,2_1_0_1_8,2022-05-09T14:55:00.552Z,,,,,,,,,,,,,,,,,53,,,,,,,,,,,,,,525.3429999046202,,response,,,,99,,,,,,,Space,keypress(Space),,,,,,,,---- -- ----- -- ------ - ------- --- fulfilling<br>------------- ------ ------ ---- ---- ------- ----- -- ----<br>-------- ------- -- ---------- --- - --- ----- ----- ----<br>---- --- --- ----- --- ---- ---- ------- ----- ---- -------<br>--- --- -- ----- -- --- ---- -- --- ---- -- ------ ------<br>--- ----- -- ----,132710.09999990463,132709.09999990463,132167.277,132166.29999995232,132183.757,132717.091,,8,fulfilling
screen,html.Screen,2_1_0_1_9,2022-05-09T14:55:01.024Z,,,,,,,,,,,,,,,,,53,,,,,,,,,,,,,,464.00899990464677,,response,,,,99,,,,,,,Space,keypress(Space),,,,,,,,"---- -- ----- -- ------ - ------- --- ----------<br>relationship, ------ ------ ---- ---- ------- ----- -- ----<br>-------- ------- -- ---------- --- - --- ----- ----- ----<br>---- --- --- ----- --- ---- ---- ------- ----- ---- -------<br>--- --- -- ----- -- --- ---- -- --- ---- -- ------ ------<br>--- ----- -- ----",133182.09999990463,133181.09999990463,132700.444,132710.39999997616,132717.091,133213.245,,9,"relationship,"
screen,html.Screen,2_1_0_1_10,2022-05-09T14:55:01.640Z,,,,,,,,,,,,,,,,,53,,,,,,,,,,,,,,583.9549999284791,,response,,,,99,,,,,,,Space,keypress(Space),,,,,,,,---- -- ----- -- ------ - ------- --- ----------<br>------------- common ------ ---- ---- ------- ----- -- ----<br>-------- ------- -- ---------- --- - --- ----- ----- ----<br>---- --- --- ----- --- ---- ---- ------- ----- ---- -------<br>--- --- -- ----- -- --- ---- -- --- ---- -- ------ ------<br>--- ----- -- ----,133798.09999990463,133797.19999992847,133167.363,133182.39999997616,133213.245,133822.347,,10,common
screen,html.Screen,2_1_0_1_11,2022-05-09T14:55:02.048Z,,,,,,,,,,,,,,,,,53,,,,,,,,,,,,,,382.7529999046237,,response,,,,99,,,,,,,Space,keypress(Space),,,,,,,,---- -- ----- -- ------ - ------- --- ----------<br>------------- ------ wisdom ---- ---- ------- ----- -- ----<br>-------- ------- -- ---------- --- - --- ----- ----- ----<br>---- --- --- ----- --- ---- ---- ------- ----- ---- -------<br>--- --- -- ----- -- --- ---- -- --- ---- -- ------ ------<br>--- ----- -- ----,134206,134205.09999990463,133784.092,133798.39999997616,133822.347,134217.184,,11,wisdom
screen,html.Screen,2_1_0_1_12,2022-05-09T14:55:02.448Z,,,,,,,,,,,,,,,,,53,,,,,,,,,,,,,,387.9159999046242,,response,,,,99,,,,,,,Space,keypress(Space),,,,,,,,---- -- ----- -- ------ - ------- --- ----------<br>------------- ------ ------ says ---- ------- ----- -- ----<br>-------- ------- -- ---------- --- - --- ----- ----- ----<br>---- --- --- ----- --- ---- ---- ------- ----- ---- -------<br>--- --- -- ----- -- --- ---- -- --- ---- -- ------ ------<br>--- ----- -- ----,134606.19999992847,134605.09999990463,134200.512,134206.19999992847,134217.184,134617.131,,12,says
screen,html.Screen,2_1_0_1_13,2022-05-09T14:55:02.817Z,,,,,,,,,,,,,,,,,53,,,,,,,,,,,,,,355.9689999046386,,response,,,,99,,,,,,,Space,keypress(Space),,,,,,,,---- -- ----- -- ------ - ------- --- ----------<br>------------- ------ ------ ---- that ------- ----- -- ----<br>-------- ------- -- ---------- --- - --- ----- ----- ----<br>---- --- --- ----- --- ---- ---- ------- ----- ---- -------<br>--- --- -- ----- -- --- ---- -- --- ---- -- ------ ------<br>--- ----- -- ----,134974.19999992847,134973.09999990463,134600.667,134606.59999990463,134617.131,134983.871,,13,that
screen,html.Screen,2_1_0_1_14,2022-05-09T14:55:03.192Z,,,,,,,,,,,,,,,,,53,,,,,,,,,,,,,,365.12899999998626,,response,,,,99,,,,,,,Space,keypress(Space),,,,,,,,---- -- ----- -- ------ - ------- --- ----------<br>------------- ------ ------ ---- ---- feeling ----- -- ----<br>-------- ------- -- ---------- --- - --- ----- ----- ----<br>---- --- --- ----- --- ---- ---- ------- ----- ---- -------<br>--- --- -- ----- -- --- ---- -- --- ---- -- ------ ------<br>--- ----- -- ----,135349.89999997616,135349,134967.235,134974.5,134983.871,135367.272,,14,feeling
screen,html.Screen,2_1_0_1_15,2022-05-09T14:55:03.584Z,,,,,,,,,,,,,,,,,53,,,,,,,,,,,,,,373.7280000000028,,response,,,,99,,,,,,,Space,keypress(Space),,,,,,,,---- -- ----- -- ------ - ------- --- ----------<br>------------- ------ ------ ---- ---- ------- close -- ----<br>-------- ------- -- ---------- --- - --- ----- ----- ----<br>---- --- --- ----- --- ---- ---- ------- ----- ---- -------<br>--- --- -- ----- -- --- ---- -- --- ---- -- ------ ------<br>--- ----- -- ----,135741.89999997616,135741,135350.63,135350.19999992847,135367.272,135750.511,,15,close
screen,html.Screen,2_1_0_1_16,2022-05-09T14:55:03.952Z,,,,,,,,,,,,,,,,,53,,,,,,,,,,,,,,358.4890000000014,,response,,,,99,,,,,,,Space,keypress(Space),,,,,,,,---- -- ----- -- ------ - ------- --- ----------<br>------------- ------ ------ ---- ---- ------- ----- to ----<br>-------- ------- -- ---------- --- - --- ----- ----- ----<br>---- --- --- ----- --- ---- ---- ------- ----- ---- -------<br>--- --- -- ----- -- --- ---- -- --- ---- -- ------ ------<br>--- ----- -- ----,136110,136109,135734.034,135742.19999992847,135750.511,136117.122,,16,to
screen,html.Screen,2_1_0_1_17,2022-05-09T14:55:04.272Z,,,,,,,,,,,,,,,,,53,,,,,,,,,,,,,,311.877999999997,,response,,,,99,,,,,,,Space,keypress(Space),,,,,,,,---- -- ----- -- ------ - ------- --- ----------<br>------------- ------ ------ ---- ---- ------- ----- -- your<br>-------- ------- -- ---------- --- - --- ----- ----- ----<br>---- --- --- ----- --- ---- ---- ------- ----- ---- -------<br>--- --- -- ----- -- --- ---- -- --- ---- -- ------ ------<br>--- ----- -- ----,136430,136429,136100.616,136110.19999992847,136117.122,136433.79,,17,your
screen,html.Screen,2_1_0_1_18,2022-05-09T14:55:04.688Z,,,,,,,,,,,,,,,,,53,,,,,,,,,,,,,,411.3099999046244,,response,,,,99,,,,,,,Space,keypress(Space),,,,,,,,---- -- ----- -- ------ - ------- --- ----------<br>------------- ------ ------ ---- ---- ------- ----- -- ----<br>romantic ------- -- ---------- --- - --- ----- ----- ----<br>---- --- --- ----- --- ---- ---- ------- ----- ---- -------<br>--- --- -- ----- -- --- ---- -- --- ---- -- ------ ------<br>--- ----- -- ----,136846,136845.09999990463,136417.175,136430.19999992847,136433.79,136850.452,,18,romantic
screen,html.Screen,2_1_0_1_19,2022-05-09T14:55:05.056Z,,,,,,,,,,,,,,,,,53,,,,,,,,,,,,,,362.64799990464235,,response,,,,99,,,,,,,Space,keypress(Space),,,,,,,,---- -- ----- -- ------ - ------- --- ----------<br>------------- ------ ------ ---- ---- ------- ----- -- ----<br>-------- partner -- ---------- --- - --- ----- ----- ----<br>---- --- --- ----- --- ---- ---- ------- ----- ---- -------<br>--- --- -- ----- -- --- ---- -- --- ---- -- ------ ------<br>--- ----- -- ----,137214.09999990463,137213.09999990463,136833.989,136846.19999992847,136850.452,137217.118,,19,partner
screen,html.Screen,2_1_0_1_20,2022-05-09T14:55:05.440Z,,,,,,,,,,,,,,,,,53,,,,,,,,,,,,,,379.9819999046449,,response,,,,99,,,,,,,Space,keypress(Space),,,,,,,,---- -- ----- -- ------ - ------- --- ----------<br>------------- ------ ------ ---- ---- ------- ----- -- ----<br>-------- ------- is ---------- --- - --- ----- ----- ----<br>---- --- --- ----- --- ---- ---- ------- ----- ---- -------<br>--- --- -- ----- -- --- ---- -- --- ---- -- ------ ------<br>--- ----- -- ----,137598.09999990463,137597.09999990463,137200.536,137214.29999995232,137217.118,137600.451,,20,is
screen,html.Screen,2_1_0_1_21,2022-05-09T14:55:05.824Z,,,,,,,,,,,,,,,,,53,,,,,,,,,,,,,,380.64899990463164,,response,,,,99,,,,,,,Space,keypress(Space),,,,,,,,---- -- ----- -- ------ - ------- --- ----------<br>------------- ------ ------ ---- ---- ------- ----- -- ----<br>-------- ------- -- paramount. --- - --- ----- ----- ----<br>---- --- --- ----- --- ---- ---- ------- ----- ---- -------<br>--- --- -- ----- -- --- ---- -- --- ---- -- ------ ------<br>--- ----- -- ----,137982.09999990463,137981.09999990463,137584,137598.29999995232,137600.451,138012.443,,21,paramount.
screen,html.Screen,2_1_0_1_22,2022-05-09T14:55:06.320Z,,,,,,,,,,,,,,,,,53,,,,,,,,,,,,,,464.5570000000007,,response,,,,99,,,,,,,Space,keypress(Space),,,,,,,,---- -- ----- -- ------ - ------- --- ----------<br>------------- ------ ------ ---- ---- ------- ----- -- ----<br>-------- ------- -- ---------- But - --- ----- ----- ----<br>---- --- --- ----- --- ---- ---- ------- ----- ---- -------<br>--- --- -- ----- -- --- ---- -- --- ---- -- ------ ------<br>--- ----- -- ----,138478,138477,137967.377,137982.29999995232,138012.443,138483.79,,22,But
screen,html.Screen,2_1_0_1_23,2022-05-09T14:55:06.688Z,,,,,,,,,,,,,,,,,53,,,,,,,,,,,,,,361.3099999046244,,response,,,,99,,,,,,,Space,keypress(Space),,,,,,,,---- -- ----- -- ------ - ------- --- ----------<br>------------- ------ ------ ---- ---- ------- ----- -- ----<br>-------- ------- -- ---------- --- a --- ----- ----- ----<br>---- --- --- ----- --- ---- ---- ------- ----- ---- -------<br>--- --- -- ----- -- --- ---- -- --- ---- -- ------ ------<br>--- ----- -- ----,138846,138845.09999990463,138467.377,138478.19999992847,138483.79,138850.429,,23,a
screen,html.Screen,2_1_0_1_24,2022-05-09T14:55:07.048Z,,,,,,,,,,,,,,,,,53,,,,,,,,,,,,,,354.67099990462884,,response,,,,99,,,,,,,Space,keypress(Space),,,,,,,,---- -- ----- -- ------ - ------- --- ----------<br>------------- ------ ------ ---- ---- ------- ----- -- ----<br>-------- ------- -- ---------- --- - new ----- ----- ----<br>---- --- --- ----- --- ---- ---- ------- ----- ---- -------<br>--- --- -- ----- -- --- ---- -- --- ---- -- ------ ------<br>--- ----- -- ----,139206.09999990463,139205.09999990463,138833.876,138846.19999992847,138850.429,139217.129,,24,new
screen,html.Screen,2_1_0_1_25,2022-05-09T14:55:07.405Z,,,,,,,,,,,,,,,,,53,,,,,,,,,,,,,,344.4709999046463,,response,,,,99,,,,,,,Space,keypress(Space),,,,,,,,---- -- ----- -- ------ - ------- --- ----------<br>------------- ------ ------ ---- ---- ------- ----- -- ----<br>-------- ------- -- ---------- --- - --- study ----- ----<br>---- --- --- ----- --- ---- ---- ------- ----- ---- -------<br>--- --- -- ----- -- --- ---- -- --- ---- -- ------ ------<br>--- ----- -- ----,139562.5,139561.59999990463,139200.729,139206.29999995232,139217.129,139567.112,,25,study
screen,html.Screen,2_1_0_1_26,2022-05-09T14:55:07.784Z,,,,,,,,,,,,,,,,,53,,,,,,,,,,,,,,373.8880000000063,,response,,,,99,,,,,,,Space,keypress(Space),,,,,,,,---- -- ----- -- ------ - ------- --- ----------<br>------------- ------ ------ ---- ---- ------- ----- -- ----<br>-------- ------- -- ---------- --- - --- ----- finds ----<br>---- --- --- ----- --- ---- ---- ------- ----- ---- -------<br>--- --- -- ----- -- --- ---- -- --- ---- -- ------ ------<br>--- ----- -- ----,139942,139941,139550.537,139562.79999995232,139567.112,139950.478,,26,finds
screen,html.Screen,2_1_0_1_27,2022-05-09T14:55:08.168Z,,,,,,,,,,,,,,,,,53,,,,,,,,,,,,,,374.6219999046298,,response,,,,99,,,,,,,Space,keypress(Space),,,,,,,,---- -- ----- -- ------ - ------- --- ----------<br>------------- ------ ------ ---- ---- ------- ----- -- ----<br>-------- ------- -- ---------- --- - --- ----- ----- that<br>---- --- --- ----- --- ---- ---- ------- ----- ---- -------<br>--- --- -- ----- -- --- ---- -- --- ---- -- ------ ------<br>--- ----- -- ----,140326,140325.09999990463,139933.934,139942.19999992847,139950.478,140333.789,,27,that
screen,html.Screen,2_1_0_1_28,2022-05-09T14:55:08.608Z,,,,,,,,,,,,,,,,,53,,,,,,,,,,,,,,431.1109999761684,,response,,,,99,,,,,,,Space,keypress(Space),,,,,,,,---- -- ----- -- ------ - ------- --- ----------<br>------------- ------ ------ ---- ---- ------- ----- -- ----<br>-------- ------- -- ---------- --- - --- ----- ----- ----<br>it's --- --- ----- --- ---- ---- ------- ----- ---- -------<br>--- --- -- ----- -- --- ---- -- --- ---- -- ------ ------<br>--- ----- -- ----,140765.69999992847,140764.89999997616,140317.376,140326.29999995232,140333.789,140783.984,,28,it's
screen,html.Screen,2_1_0_1_29,2022-05-09T14:55:09.024Z,,,,,,,,,,,,,,,,,53,,,,,,,,,,,,,,397.1159999046358,,response,,,,99,,,,,,,Space,keypress(Space),,,,,,,,---- -- ----- -- ------ - ------- --- ----------<br>------------- ------ ------ ---- ---- ------- ----- -- ----<br>-------- ------- -- ---------- --- - --- ----- ----- ----<br>---- not --- ----- --- ---- ---- ------- ----- ---- -------<br>--- --- -- ----- -- --- ---- -- --- ---- -- ------ ------<br>--- ----- -- ----,141182.09999990463,141181.09999990463,140750.551,140766,140783.984,141201.613,,29,not
screen,html.Screen,2_1_0_1_30,2022-05-09T14:55:09.432Z,,,,,,,,,,,,,,,,,53,,,,,,,,,,,,,,387.3869999999879,,response,,,,99,,,,,,,Space,keypress(Space),,,,,,,,---- -- ----- -- ------ - ------- --- ----------<br>------------- ------ ------ ---- ---- ------- ----- -- ----<br>-------- ------- -- ---------- --- - --- ----- ----- ----<br>---- --- how ----- --- ---- ---- ------- ----- ---- -------<br>--- --- -- ----- -- --- ---- -- --- ---- -- ------ ------<br>--- ----- -- ----,141589.89999997616,141589,141167.296,141182.29999995232,141201.613,141600.651,,30,how
screen,html.Screen,2_1_0_1_31,2022-05-09T14:55:09.816Z,,,,,,,,,,,,,,,,,53,,,,,,,,,,,,,,372.1489999523037,,response,,,,99,,,,,,,Space,keypress(Space),,,,,,,,---- -- ----- -- ------ - ------- --- ----------<br>------------- ------ ------ ---- ---- ------- ----- -- ----<br>-------- ------- -- ---------- --- - --- ----- ----- ----<br>---- --- --- close --- ---- ---- ------- ----- ---- -------<br>--- --- -- ----- -- --- ---- -- --- ---- -- ------ ------<br>--- ----- -- ----,141973.69999992847,141972.79999995232,141583.945,141590.19999992847,141600.651,141983.974,,31,close
screen,html.Screen,2_1_0_1_32,2022-05-09T14:55:10.184Z,,,,,,,,,,,,,,,,,53,,,,,,,,,,,,,,357.12599990464514,,response,,,,99,,,,,,,Space,keypress(Space),,,,,,,,---- -- ----- -- ------ - ------- --- ----------<br>------------- ------ ------ ---- ---- ------- ----- -- ----<br>-------- ------- -- ---------- --- - --- ----- ----- ----<br>---- --- --- ----- you ---- ---- ------- ----- ---- -------<br>--- --- -- ----- -- --- ---- -- --- ---- -- ------ ------<br>--- ----- -- ----,142341.89999997616,142341.09999990463,141967.249,141974,141983.974,142350.586,,32,you
screen,html.Screen,2_1_0_1_33,2022-05-09T14:55:10.648Z,,,,,,,,,,,,,,,,,53,,,,,,,,,,,,,,454.3139999761479,,response,,,,99,,,,,,,Space,keypress(Space),,,,,,,,---- -- ----- -- ------ - ------- --- ----------<br>------------- ------ ------ ---- ---- ------- ----- -- ----<br>-------- ------- -- ---------- --- - --- ----- ----- ----<br>---- --- --- ----- --- feel ---- ------- ----- ---- -------<br>--- --- -- ----- -- --- ---- -- --- ---- -- ------ ------<br>--- ----- -- ----,142805.89999997616,142804.89999997616,142333.946,142342.19999992847,142350.586,142817.183,,33,feel
screen,html.Screen,2_1_0_1_34,2022-05-09T14:55:11.048Z,,,,,,,,,,,,,,,,,53,,,,,,,,,,,,,,387.6169999523263,,response,,,,99,,,,,,,Space,keypress(Space),,,,,,,,---- -- ----- -- ------ - ------- --- ----------<br>------------- ------ ------ ---- ---- ------- ----- -- ----<br>-------- ------- -- ---------- --- - --- ----- ----- ----<br>---- --- --- ----- --- ---- that ------- ----- ---- -------<br>--- --- -- ----- -- --- ---- -- --- ---- -- ------ ------<br>--- ----- -- ----,143205.79999995232,143204.79999995232,142800.572,142806.09999990463,142817.183,143217.198,,34,that
screen,html.Screen,2_1_0_1_35,2022-05-09T14:55:11.480Z,,,,,,,,,,,,,,,,,53,,,,,,,,,,,,,,419.50199992847047,,response,,,,99,,,,,,,Space,keypress(Space),,,,,,,,---- -- ----- -- ------ - ------- --- ----------<br>------------- ------ ------ ---- ---- ------- ----- -- ----<br>-------- ------- -- ---------- --- - --- ----- ----- ----<br>---- --- --- ----- --- ---- ---- matters ----- ---- -------<br>--- --- -- ----- -- --- ---- -- --- ---- -- ------ ------<br>--- ----- -- ----,143637.69999992847,143636.69999992847,143200.722,143206,143217.198,143650.636,,35,matters
screen,html.Screen,2_1_0_1_36,2022-05-09T14:55:11.880Z,,,,,,,,,,,,,,,,,53,,,,,,,,,,,,,,386.3640000000014,,response,,,,99,,,,,,,Space,keypress(Space),,,,,,,,"---- -- ----- -- ------ - ------- --- ----------<br>------------- ------ ------ ---- ---- ------- ----- -- ----<br>-------- ------- -- ---------- --- - --- ----- ----- ----<br>---- --- --- ----- --- ---- ---- ------- most, ---- -------<br>--- --- -- ----- -- --- ---- -- --- ---- -- ------ ------<br>--- ----- -- ----",144037.89999997616,144037,143634.042,143637.89999997616,143650.636,144050.665,,36,"most,"
screen,html.Screen,2_1_0_1_37,2022-05-09T14:55:12.256Z,,,,,,,,,,,,,,,,,53,,,,,,,,,,,,,,362.4349999046244,,response,,,,99,,,,,,,Space,keypress(Space),,,,,,,,---- -- ----- -- ------ - ------- --- ----------<br>------------- ------ ------ ---- ---- ------- ----- -- ----<br>-------- ------- -- ---------- --- - --- ----- ----- ----<br>---- --- --- ----- --- ---- ---- ------- ----- it's -------<br>--- --- -- ----- -- --- ---- -- --- ---- -- ------ ------<br>--- ----- -- ----,144414.09999990463,144413.09999990463,144033.853,144038.19999992847,144050.665,144417.126,,37,it's
screen,html.Screen,2_1_0_1_38,2022-05-09T14:55:12.728Z,,,,,,,,,,,,,,,,,53,,,,,,,,,,,,,,467.9739999046433,,response,,,,99,,,,,,,Space,keypress(Space),,,,,,,,---- -- ----- -- ------ - ------- --- ----------<br>------------- ------ ------ ---- ---- ------- ----- -- ----<br>-------- ------- -- ---------- --- - --- ----- ----- ----<br>---- --- --- ----- --- ---- ---- ------- ----- ---- whether<br>--- --- -- ----- -- --- ---- -- --- ---- -- ------ ------<br>--- ----- -- ----,144886,144885.09999990463,144400.732,144414.39999997616,144417.126,144900.673,,38,whether
screen,html.Screen,2_1_0_1_39,2022-05-09T14:55:13.144Z,,,,,,,,,,,,,,,,,53,,,,,,,,,,,,,,400.4269999046228,,response,,,,99,,,,,,,Space,keypress(Space),,,,,,,,---- -- ----- -- ------ - ------- --- ----------<br>------------- ------ ------ ---- ---- ------- ----- -- ----<br>-------- ------- -- ---------- --- - --- ----- ----- ----<br>---- --- --- ----- --- ---- ---- ------- ----- ---- -------<br>you --- -- ----- -- --- ---- -- --- ---- -- ------ ------<br>--- ----- -- ----,145301.89999997616,145301.09999990463,144883.893,144886.19999992847,144900.673,145317.208,,39,you
screen,html.Screen,2_1_0_1_40,2022-05-09T14:55:13.512Z,,,,,,,,,,,,,,,,,53,,,,,,,,,,,,,,351.69199997614487,,response,,,,99,,,,,,,Space,keypress(Space),,,,,,,,---- -- ----- -- ------ - ------- --- ----------<br>------------- ------ ------ ---- ---- ------- ----- -- ----<br>-------- ------- -- ---------- --- - --- ----- ----- ----<br>---- --- --- ----- --- ---- ---- ------- ----- ---- -------<br>--- are -- ----- -- --- ---- -- --- ---- -- ------ ------<br>--- ----- -- ----,145669.79999995232,145668.89999997616,145300.553,145302.19999992847,145317.208,145683.758,,40,are
screen,html.Screen,2_1_0_1_41,2022-05-09T14:55:13.936Z,,,,,,,,,,,,,,,,,53,,,,,,,,,,,,,,409.34199990463094,,response,,,,99,,,,,,,Space,keypress(Space),,,,,,,,---- -- ----- -- ------ - ------- --- ----------<br>------------- ------ ------ ---- ---- ------- ----- -- ----<br>-------- ------- -- ---------- --- - --- ----- ----- ----<br>---- --- --- ----- --- ---- ---- ------- ----- ---- -------<br>--- --- as ----- -- --- ---- -- --- ---- -- ------ ------<br>--- ----- -- ----,146094.09999990463,146093.09999990463,145667.207,145670,145683.758,146100.47,,41,as
screen,html.Screen,2_1_0_1_42,2022-05-09T14:55:14.296Z,,,,,,,,,,,,,,,,,53,,,,,,,,,,,,,,352.6299999046314,,response,,,,99,,,,,,,Space,keypress(Space),,,,,,,,---- -- ----- -- ------ - ------- --- ----------<br>------------- ------ ------ ---- ---- ------- ----- -- ----<br>-------- ------- -- ---------- --- - --- ----- ----- ----<br>---- --- --- ----- --- ---- ---- ------- ----- ---- -------<br>--- --- -- close -- --- ---- -- --- ---- -- ------ ------<br>--- ----- -- ----,146454,146453.09999990463,146083.808,146094.39999997616,146100.47,146467.211,,42,close
screen,html.Screen,2_1_0_1_43,2022-05-09T14:55:14.592Z,,,,,,,,,,,,,,,,,53,,,,,,,,,,,,,,281.6889999761479,,response,,,,99,,,,,,,Space,keypress(Space),,,,,,,,---- -- ----- -- ------ - ------- --- ----------<br>------------- ------ ------ ---- ---- ------- ----- -- ----<br>-------- ------- -- ---------- --- - --- ----- ----- ----<br>---- --- --- ----- --- ---- ---- ------- ----- ---- -------<br>--- --- -- ----- as --- ---- -- --- ---- -- ------ ------<br>--- ----- -- ----,146749.79999995232,146748.89999997616,146450.615,146454.19999992847,146467.211,146767.181,,43,as
screen,html.Screen,2_1_0_1_44,2022-05-09T14:55:14.920Z,,,,,,,,,,,,,,,,,53,,,,,,,,,,,,,,309.8189999999886,,response,,,,99,,,,,,,Space,keypress(Space),,,,,,,,---- -- ----- -- ------ - ------- --- ----------<br>------------- ------ ------ ---- ---- ------- ----- -- ----<br>-------- ------- -- ---------- --- - --- ----- ----- ----<br>---- --- --- ----- --- ---- ---- ------- ----- ---- -------<br>--- --- -- ----- -- you ---- -- --- ---- -- ------ ------<br>--- ----- -- ----,147077.89999997616,147077,146750.515,146750.09999990463,146767.181,147083.81,,44,you
screen,html.Screen,2_1_0_1_45,2022-05-09T14:55:15.280Z,,,,,,,,,,,,,,,,,53,,,,,,,,,,,,,,353.2899999046349,,response,,,,99,,,,,,,Space,keypress(Space),,,,,,,,---- -- ----- -- ------ - ------- --- ----------<br>------------- ------ ------ ---- ---- ------- ----- -- ----<br>-------- ------- -- ---------- --- - --- ----- ----- ----<br>---- --- --- ----- --- ---- ---- ------- ----- ---- -------<br>--- --- -- ----- -- --- want -- --- ---- -- ------ ------<br>--- ----- -- ----,147438,147437.09999990463,147067.346,147078.19999992847,147083.81,147450.658,,45,want
screen,html.Screen,2_1_0_1_46,2022-05-09T14:55:15.592Z,,,,,,,,,,,,,,,,,53,,,,,,,,,,,,,,298.3420000000042,,response,,,,99,,,,,,,Space,keypress(Space),,,,,,,,---- -- ----- -- ------ - ------- --- ----------<br>------------- ------ ------ ---- ---- ------- ----- -- ----<br>-------- ------- -- ---------- --- - --- ----- ----- ----<br>---- --- --- ----- --- ---- ---- ------- ----- ---- -------<br>--- --- -- ----- -- --- ---- to --- ---- -- ------ ------<br>--- ----- -- ----,147749.89999997616,147749,147433.873,147438.19999992847,147450.658,147767.186,,46,to
screen,html.Screen,2_1_0_1_47,2022-05-09T14:55:15.952Z,,,,,,,,,,,,,,,,,53,,,,,,,,,,,,,,341.81400000001304,,response,,,,99,,,,,,,Space,keypress(Space),,,,,,,,"---- -- ----- -- ------ - ------- --- ----------<br>------------- ------ ------ ---- ---- ------- ----- -- ----<br>-------- ------- -- ---------- --- - --- ----- ----- ----<br>---- --- --- ----- --- ---- ---- ------- ----- ---- -------<br>--- --- -- ----- -- --- ---- -- be, ---- -- ------ ------<br>--- ----- -- ----",148110,148109,147750.532,147750.09999990463,147767.186,148117.135,,47,"be,"
screen,html.Screen,2_1_0_1_48,2022-05-09T14:55:16.376Z,,,,,,,,,,,,,,,,,53,,,,,,,,,,,,,,415.96499990462326,,response,,,,99,,,,,,,Space,keypress(Space),,,,,,,,---- -- ----- -- ------ - ------- --- ----------<br>------------- ------ ------ ---- ---- ------- ----- -- ----<br>-------- ------- -- ---------- --- - --- ----- ----- ----<br>---- --- --- ----- --- ---- ---- ------- ----- ---- -------<br>--- --- -- ----- -- --- ---- -- --- even -- ------ ------<br>--- ----- -- ----,148533.89999997616,148533.09999990463,148100.589,148110.19999992847,148117.135,148550.756,,48,even
screen,html.Screen,2_1_0_1_49,2022-05-09T14:55:16.784Z,,,,,,,,,,,,,,,,,53,,,,,,,,,,,,,,390.24400000000605,,response,,,,99,,,,,,,Space,keypress(Space),,,,,,,,---- -- ----- -- ------ - ------- --- ----------<br>------------- ------ ------ ---- ---- ------- ----- -- ----<br>-------- ------- -- ---------- --- - --- ----- ----- ----<br>---- --- --- ----- --- ---- ---- ------- ----- ---- -------<br>--- --- -- ----- -- --- ---- -- --- ---- if ------ ------<br>--- ----- -- ----,148941.89999997616,148941,148534.037,148534.29999995232,148550.756,148950.632,,49,if
screen,html.Screen,2_1_0_1_50,2022-05-09T14:55:17.135Z,,,,,,,,,,,,,,,,,53,,,,,,,,,,,,,,341.86799999998766,,response,,,,99,,,,,,,Space,keypress(Space),,,,,,,,---- -- ----- -- ------ - ------- --- ----------<br>------------- ------ ------ ---- ---- ------- ----- -- ----<br>-------- ------- -- ---------- --- - --- ----- ----- ----<br>---- --- --- ----- --- ---- ---- ------- ----- ---- -------<br>--- --- -- ----- -- --- ---- -- --- ---- -- that's ------<br>--- ----- -- ----,149293.19999992847,149292.5,148934.016,148942.09999990463,148950.632,149300.46,,50,that's
screen,html.Screen,2_1_0_1_51,2022-05-09T14:55:17.549Z,,,,,,,,,,,,,,,,,53,,,,,,,,,,,,,,405.04000000000815,,response,,,,99,,,,,,,Space,keypress(Space),,,,,,,,---- -- ----- -- ------ - ------- --- ----------<br>------------- ------ ------ ---- ---- ------- ----- -- ----<br>-------- ------- -- ---------- --- - --- ----- ----- ----<br>---- --- --- ----- --- ---- ---- ------- ----- ---- -------<br>--- --- -- ----- -- --- ---- -- --- ---- -- ------ really<br>--- ----- -- ----,149706.39999997616,149705.5,149284.058,149293.39999997616,149300.46,149717.142,,51,really
screen,html.Screen,2_1_0_1_52,2022-05-09T14:55:17.936Z,,,,,,,,,,,,,,,,,53,,,,,,,,,,,,,,375.85800000000745,,response,,,,99,,,,,,,Space,keypress(Space),,,,,,,,---- -- ----- -- ------ - ------- --- ----------<br>------------- ------ ------ ---- ---- ------- ----- -- ----<br>-------- ------- -- ---------- --- - --- ----- ----- ----<br>---- --- --- ----- --- ---- ---- ------- ----- ---- -------<br>--- --- -- ----- -- --- ---- -- --- ---- -- ------ ------<br>not ----- -- ----,150093.89999997616,150093,149700.719,149706.59999990463,149717.142,150100.509,,52,not
screen,html.Screen,2_1_0_1_53,2022-05-09T14:55:18.328Z,,,,,,,,,,,,,,,,,53,,,,,,,,,,,,,,384.6909999284835,,response,,,,99,,,,,,,Space,keypress(Space),,,,,,,,---- -- ----- -- ------ - ------- --- ----------<br>------------- ------ ------ ---- ---- ------- ----- -- ----<br>-------- ------- -- ---------- --- - --- ----- ----- ----<br>---- --- --- ----- --- ---- ---- ------- ----- ---- -------<br>--- --- -- ----- -- --- ---- -- --- ---- -- ------ ------<br>--- close -- ----,150486.19999992847,150485.19999992847,150083.882,150094.19999992847,150100.509,150500.494,,53,close
screen,html.Screen,2_1_0_1_54,2022-05-09T14:55:18.696Z,,,,,,,,,,,,,,,,,53,,,,,,,,,,,,,,352.50599999999395,,response,,,,99,,,,,,,Space,keypress(Space),,,,,,,,---- -- ----- -- ------ - ------- --- ----------<br>------------- ------ ------ ---- ---- ------- ----- -- ----<br>-------- ------- -- ---------- --- - --- ----- ----- ----<br>---- --- --- ----- --- ---- ---- ------- ----- ---- -------<br>--- --- -- ----- -- --- ---- -- --- ---- -- ------ ------<br>--- ----- at ----,150854.09999990463,150853,150483.952,150486.39999997616,150500.494,150867.169,,54,at
screen,html.Screen,2_1_0_1_55,2022-05-09T14:55:19.192Z,,,,,,,,,,,,,,,,,53,,,,,,,,,,,,,,481.8310000000056,,response,,,,99,,,,,,,Space,keypress(Space),,,,,,,,---- -- ----- -- ------ - ------- --- ----------<br>------------- ------ ------ ---- ---- ------- ----- -- ----<br>-------- ------- -- ---------- --- - --- ----- ----- ----<br>---- --- --- ----- --- ---- ---- ------- ----- ---- -------<br>--- --- -- ----- -- --- ---- -- --- ---- -- ------ ------<br>--- ----- -- all.,151349.89999997616,151349,150850.662,150854.29999995232,150867.169,151367.122,,55,all.
Item 99,flow.Loop,2_1_0_1,2022-05-09T14:55:19.193Z,,,,,,,,,,,,,,,,,,,,,,,,,,,,,,,23165.210000000006,,completion,,,,,F,,,,,,,,,,,silence,,,,,151350.39999997616,151349,128150.637,128152.19999992847,128183.79,151367.122,,,
Question 1,html.Screen,2_1_0_2,2022-05-09T14:55:24.947Z,,,,,,,,,,,,,,,,,,,,,,,,,,,,true,FALSE,,5736.877999999997,,response,,,,99,F,,,,,,FALSE,click #choice-2,,,,silence,,,,,157104.79999995232,157104,151350.562,151350.69999992847,151367.122,157117.146,,,
Question 2,html.Screen,2_1_0_3,2022-05-09T14:55:30.571Z,,,,,,,,,,,,,,,,,,,,,,,,,,,,true,TRUE,,5610.75399997615,,response,,,,99,F,,,,,,TRUE,click #choice-1,,,,silence,,,,,162728.69999992847,162727.89999997616,157100.643,157105,157117.146,162733.741,,,
Item 99,flow.Sequence,2_1_0,2022-05-09T14:55:30.571Z,,,,,,,,,,,,,,,,,,,,,,,,,,,,,,,44560.845999976154,,completion,,,,,,,,,,,,,,,,,,,,,162728.79999995232,162727.89999997616,118150.575,118159.19999992847,118167.054,162733.741,,,
Holding screen,html.Screen,2_1_1_0,2022-05-09T14:55:40.561Z,,,,,,,,,,,,,,,,,,,,,,,,,,,,,,,10000.111999999994,,timeout,,,,,,,,,,,,,,,,,,,,,172718.39999997616,172717.224,162717.15,162729,162733.741,172733.853,,,
screen,html.Screen,2_1_1_1_0,2022-05-09T14:55:41.589Z,,,,,,,,,,,,,,,,,54,,,,,,,,,,,,,,1011.5469999761553,,response,,,,100,,,,,,,Space,keypress(Space),,,,,,,,At --- ---- --- ------ ----- ------- ---- -- --- ------- --<br>------- ---------- ------ -- ----- -- ----- -- ---- ------<br>--- ----- --- --- ------ -------- ----- --- ------ ----- --<br>----- ----- ---------- --- --- ------ ------ ---- -- ------<br>------- --- ------ ----- --- ---- ------- -- ---- --- --<br>------- ------,173746.29999995232,173745.39999997616,172717.224,172718.69999992847,172733.853,173750.431,,0,At
screen,html.Screen,2_1_1_1_1,2022-05-09T14:55:41.928Z,,,,,,,,,,,,,,,,,54,,,,,,,,,,,,,,334.5689999999886,,response,,,,100,,,,,,,Space,keypress(Space),,,,,,,,-- the ---- --- ------ ----- ------- ---- -- --- ------- --<br>------- ---------- ------ -- ----- -- ----- -- ---- ------<br>--- ----- --- --- ------ -------- ----- --- ------ ----- --<br>----- ----- ---------- --- --- ------ ------ ---- -- ------<br>------- --- ------ ----- --- ---- ------- -- ---- --- --<br>------- ------,174086,174085,173733.921,173746.59999990463,173750.431,174100.672,,1,the
screen,html.Screen,2_1_1_1_2,2022-05-09T14:55:42.272Z,,,,,,,,,,,,,,,,,54,,,,,,,,,,,,,,328.22799997616676,,response,,,,100,,,,,,,Space,keypress(Space),,,,,,,,-- --- time --- ------ ----- ------- ---- -- --- ------- --<br>------- ---------- ------ -- ----- -- ----- -- ---- ------<br>--- ----- --- --- ------ -------- ----- --- ------ ----- --<br>----- ----- ---------- --- --- ------ ------ ---- -- ------<br>------- --- ------ ----- --- ---- ------- -- ---- --- --<br>------- ------,174429.89999997616,174428.89999997616,174084.017,174086.19999992847,174100.672,174433.766,,2,time
screen,html.Screen,2_1_1_1_3,2022-05-09T14:55:42.592Z,,,,,,,,,,,,,,,,,54,,,,,,,,,,,,,,315.23399999999674,,response,,,,100,,,,,,,Space,keypress(Space),,,,,,,,-- --- ---- the ------ ----- ------- ---- -- --- ------- --<br>------- ---------- ------ -- ----- -- ----- -- ---- ------<br>--- ----- --- --- ------ -------- ----- --- ------ ----- --<br>----- ----- ---------- --- --- ------ ------ ---- -- ------<br>------- --- ------ ----- --- ---- ------- -- ---- --- --<br>------- ------,174749.89999997616,174749,174417.386,174430.09999990463,174433.766,174767.191,,3,the
screen,html.Screen,2_1_1_1_4,2022-05-09T14:55:42.936Z,,,,,,,,,,,,,,,,,54,,,,,,,,,,,,,,325.8090000000084,,response,,,,100,,,,,,,Space,keypress(Space),,,,,,,,-- --- ---- --- French ----- ------- ---- -- --- ------- --<br>------- ---------- ------ -- ----- -- ----- -- ---- ------<br>--- ----- --- --- ------ -------- ----- --- ------ ----- --<br>----- ----- ---------- --- --- ------ ------ ---- -- ------<br>------- --- ------ ----- --- ---- ------- -- ---- --- --<br>------- ------,175093.89999997616,175093,174750.576,174750.09999990463,174767.191,175100.462,,4,French
screen,html.Screen,2_1_1_1_5,2022-05-09T14:55:43.328Z,,,,,,,,,,,,,,,,,54,,,,,,,,,,,,,,384.63799990463303,,response,,,,100,,,,,,,Space,keypress(Space),,,,,,,,-- --- ---- --- ------ crown ------- ---- -- --- ------- --<br>------- ---------- ------ -- ----- -- ----- -- ---- ------<br>--- ----- --- --- ------ -------- ----- --- ------ ----- --<br>----- ----- ---------- --- --- ------ ------ ---- -- ------<br>------- --- ------ ----- --- ---- ------- -- ---- --- --<br>------- ------,175486,175485.09999990463,175083.984,175094.19999992847,175100.462,175500.674,,5,crown
screen,html.Screen,2_1_1_1_6,2022-05-09T14:55:43.856Z,,,,,,,,,,,,,,,,,54,,,,,,,,,,,,,,512.4259999046335,,response,,,,100,,,,,,,Space,keypress(Space),,,,,,,,-- --- ---- --- ------ ----- secured ---- -- --- ------- --<br>------- ---------- ------ -- ----- -- ----- -- ---- ------<br>--- ----- --- --- ------ -------- ----- --- ------ ----- --<br>----- ----- ---------- --- --- ------ ------ ---- -- ------<br>------- --- ------ ----- --- ---- ------- -- ---- --- --<br>------- ------,176014.09999990463,176013.09999990463,175483.946,175486.29999995232,175500.674,176017.129,,6,secured
screen,html.Screen,2_1_1_1_7,2022-05-09T14:55:44.472Z,,,,,,,,,,,,,,,,,54,,,,,,,,,,,,,,611.7709999761719,,response,,,,100,,,,,,,Space,keypress(Space),,,,,,,,-- --- ---- --- ------ ----- ------- much -- --- ------- --<br>------- ---------- ------ -- ----- -- ----- -- ---- ------<br>--- ----- --- --- ------ -------- ----- --- ------ ----- --<br>----- ----- ---------- --- --- ------ ------ ---- -- ------<br>------- --- ------ ----- --- ---- ------- -- ---- --- --<br>------- ------,176629.89999997616,176628.89999997616,176000.567,176014.19999992847,176017.129,176633.797,,7,much
screen,html.Screen,2_1_1_1_8,2022-05-09T14:55:44.864Z,,,,,,,,,,,,,,,,,54,,,,,,,,,,,,,,387.10299997616676,,response,,,,100,,,,,,,Space,keypress(Space),,,,,,,,-- --- ---- --- ------ ----- ------- ---- of --- ------- --<br>------- ---------- ------ -- ----- -- ----- -- ---- ------<br>--- ----- --- --- ------ -------- ----- --- ------ ----- --<br>----- ----- ---------- --- --- ------ ------ ---- -- ------<br>------- --- ------ ----- --- ---- ------- -- ---- --- --<br>------- ------,177021.69999992847,177020.89999997616,176617.158,176630.09999990463,176633.797,177034.131,,8,of
screen,html.Screen,2_1_1_1_9,2022-05-09T14:55:45.216Z,,,,,,,,,,,,,,,,,54,,,,,,,,,,,,,,338.9689999046386,,response,,,,100,,,,,,,Space,keypress(Space),,,,,,,,-- --- ---- --- ------ ----- ------- ---- -- its ------- --<br>------- ---------- ------ -- ----- -- ----- -- ---- ------<br>--- ----- --- --- ------ -------- ----- --- ------ ----- --<br>----- ----- ---------- --- --- ------ ------ ---- -- ------<br>------- --- ------ ----- --- ---- ------- -- ---- --- --<br>------- ------,177373.89999997616,177373.09999990463,177017.152,177021.89999997616,177034.131,177384.015,,9,its
screen,html.Screen,2_1_1_1_10,2022-05-09T14:55:45.584Z,,,,,,,,,,,,,,,,,54,,,,,,,,,,,,,,356.98499999998603,,response,,,,100,,,,,,,Space,keypress(Space),,,,,,,,-- --- ---- --- ------ ----- ------- ---- -- --- revenue --<br>------- ---------- ------ -- ----- -- ----- -- ---- ------<br>--- ----- --- --- ------ -------- ----- --- ------ ----- --<br>----- ----- ---------- --- --- ------ ------ ---- -- ------<br>------- --- ------ ----- --- ---- ------- -- ---- --- --<br>------- ------,177742,177741,177367.43,177374.19999992847,177384.015,177750.453,,10,revenue
screen,html.Screen,2_1_1_1_11,2022-05-09T14:55:46.072Z,,,,,,,,,,,,,,,,,54,,,,,,,,,,,,,,478.5469999999914,,response,,,,100,,,,,,,Space,keypress(Space),,,,,,,,-- --- ---- --- ------ ----- ------- ---- -- --- ------- by<br>------- ---------- ------ -- ----- -- ----- -- ---- ------<br>--- ----- --- --- ------ -------- ----- --- ------ ----- --<br>----- ----- ---------- --- --- ------ ------ ---- -- ------<br>------- --- ------ ----- --- ---- ------- -- ---- --- --<br>------- ------,178229.89999997616,178229,177733.805,177742.19999992847,177750.453,178233.801,,11,by
screen,html.Screen,2_1_1_1_12,2022-05-09T14:55:46.464Z,,,,,,,,,,,,,,,,,54,,,,,,,,,,,,,,387.2989999046258,,response,,,,100,,,,,,,Space,keypress(Space),,,,,,,,-- --- ---- --- ------ ----- ------- ---- -- --- ------- --<br>issuing ---------- ------ -- ----- -- ----- -- ---- ------<br>--- ----- --- --- ------ -------- ----- --- ------ ----- --<br>----- ----- ---------- --- --- ------ ------ ---- -- ------<br>------- --- ------ ----- --- ---- ------- -- ---- --- --<br>------- ------,178621.89999997616,178621.09999990463,178217.178,178230.19999992847,178233.801,178633.92,,12,issuing
screen,html.Screen,2_1_1_1_13,2022-05-09T14:55:46.944Z,,,,,,,,,,,,,,,,,54,,,,,,,,,,,,,,466.8799999523035,,response,,,,100,,,,,,,Space,keypress(Space),,,,,,,,-- --- ---- --- ------ ----- ------- ---- -- --- ------- --<br>------- government ------ -- ----- -- ----- -- ---- ------<br>--- ----- --- --- ------ -------- ----- --- ------ ----- --<br>----- ----- ---------- --- --- ------ ------ ---- -- ------<br>------- --- ------ ----- --- ---- ------- -- ---- --- --<br>------- ------,179101.69999992847,179100.79999995232,178617.171,178622.09999990463,178633.92,179117.199,,13,government
screen,html.Screen,2_1_1_1_14,2022-05-09T14:55:47.304Z,,,,,,,,,,,,,,,,,54,,,,,,,,,,,,,,343.80100000000675,,response,,,,100,,,,,,,Space,keypress(Space),,,,,,,,-- --- ---- --- ------ ----- ------- ---- -- --- ------- --<br>------- ---------- bonds. -- ----- -- ----- -- ---- ------<br>--- ----- --- --- ------ -------- ----- --- ------ ----- --<br>----- ----- ---------- --- --- ------ ------ ---- -- ------<br>------- --- ------ ----- --- ---- ------- -- ---- --- --<br>------- ------,179461.89999997616,179461,179100.574,179101.89999997616,179117.199,179467.132,,14,bonds.
screen,html.Screen,2_1_1_1_15,2022-05-09T14:55:47.808Z,,,,,,,,,,,,,,,,,54,,,,,,,,,,,,,,497.86799999998766,,response,,,,100,,,,,,,Space,keypress(Space),,,,,,,,-- --- ---- --- ------ ----- ------- ---- -- --- ------- --<br>------- ---------- ------ In ----- -- ----- -- ---- ------<br>--- ----- --- --- ------ -------- ----- --- ------ ----- --<br>----- ----- ---------- --- --- ------ ------ ---- -- ------<br>------- --- ------ ----- --- ---- ------- -- ---- --- --<br>------- ------,179965.89999997616,179965,179450.57,179462.09999990463,179467.132,179992.048,,15,In
screen,html.Screen,2_1_1_1_16,2022-05-09T14:55:48.785Z,,,,,,,,,,,,,,,,,54,,,,,,,,,,,,,,948.9519999999902,,response,,,,100,,,,,,,Space,keypress(Space),,,,,,,,"-- --- ---- --- ------ ----- ------- ---- -- --- ------- --<br>------- ---------- ------ -- 1727, -- ----- -- ---- ------<br>--- ----- --- --- ------ -------- ----- --- ------ ----- --<br>----- ----- ---------- --- --- ------ ------ ---- -- ------<br>------- --- ------ ----- --- ---- ------- -- ---- --- --<br>------- ------",180941.89999997616,180941,179950.568,179966.19999992847,179992.048,180950.652,,16,"1727,"
screen,html.Screen,2_1_1_1_17,2022-05-09T14:55:49.241Z,,,,,,,,,,,,,,,,,54,,,,,,,,,,,,,,446.4479999046307,,response,,,,100,,,,,,,Space,keypress(Space),,,,,,,,-- --- ---- --- ------ ----- ------- ---- -- --- ------- --<br>------- ---------- ------ -- ----- in ----- -- ---- ------<br>--- ----- --- --- ------ -------- ----- --- ------ ----- --<br>----- ----- ---------- --- --- ------ ------ ---- -- ------<br>------- --- ------ ----- --- ---- ------- -- ---- --- --<br>------- ------,181398,181397.09999990463,180933.838,180942.19999992847,180950.652,181417.122,,17,in
screen,html.Screen,2_1_1_1_18,2022-05-09T14:55:49.713Z,,,,,,,,,,,,,,,,,54,,,,,,,,,,,,,,451.7779999761551,,response,,,,100,,,,,,,Space,keypress(Space),,,,,,,,-- --- ---- --- ------ ----- ------- ---- -- --- ------- --<br>------- ---------- ------ -- ----- -- order -- ---- ------<br>--- ----- --- --- ------ -------- ----- --- ------ ----- --<br>----- ----- ---------- --- --- ------ ------ ---- -- ------<br>------- --- ------ ----- --- ---- ------- -- ---- --- --<br>------- ------,181869.89999997616,181868.89999997616,181383.992,181399.69999992847,181417.122,181883.874,,18,order
screen,html.Screen,2_1_1_1_19,2022-05-09T14:55:50.025Z,,,,,,,,,,,,,,,,,54,,,,,,,,,,,,,,297.1259999999893,,response,,,,100,,,,,,,Space,keypress(Space),,,,,,,,-- --- ---- --- ------ ----- ------- ---- -- --- ------- --<br>------- ---------- ------ -- ----- -- ----- to ---- ------<br>--- ----- --- --- ------ -------- ----- --- ------ ----- --<br>----- ----- ---------- --- --- ------ ------ ---- -- ------<br>------- --- ------ ----- --- ---- ------- -- ---- --- --<br>------- ------,182181.89999997616,182181,181867.172,181870.09999990463,181883.874,182202.79,,19,to
screen,html.Screen,2_1_1_1_20,2022-05-09T14:55:50.385Z,,,,,,,,,,,,,,,,,54,,,,,,,,,,,,,,338.20999999999185,,response,,,,100,,,,,,,Space,keypress(Space),,,,,,,,-- --- ---- --- ------ ----- ------- ---- -- --- ------- --<br>------- ---------- ------ -- ----- -- ----- -- save ------<br>--- ----- --- --- ------ -------- ----- --- ------ ----- --<br>----- ----- ---------- --- --- ------ ------ ---- -- ------<br>------- --- ------ ----- --- ---- ------- -- ---- --- --<br>------- ------,182541.89999997616,182541,182167.169,182182.19999992847,182202.79,182550.543,,20,save
screen,html.Screen,2_1_1_1_21,2022-05-09T14:55:50.729Z,,,,,,,,,,,,,,,,,54,,,,,,,,,,,,,,334.4569999999949,,response,,,,100,,,,,,,Space,keypress(Space),,,,,,,,"-- --- ---- --- ------ ----- ------- ---- -- --- ------- --<br>------- ---------- ------ -- ----- -- ----- -- ---- money,<br>--- ----- --- --- ------ -------- ----- --- ------ ----- --<br>----- ----- ---------- --- --- ------ ------ ---- -- ------<br>------- --- ------ ----- --- ---- ------- -- ---- --- --<br>------- ------",182886,182885,182533.799,182542.19999992847,182550.543,182900.684,,21,"money,"
screen,html.Screen,2_1_1_1_22,2022-05-09T14:55:51.113Z,,,,,,,,,,,,,,,,,54,,,,,,,,,,,,,,368.3159999999916,,response,,,,100,,,,,,,Space,keypress(Space),,,,,,,,-- --- ---- --- ------ ----- ------- ---- -- --- ------- --<br>------- ---------- ------ -- ----- -- ----- -- ---- ------<br>the ----- --- --- ------ -------- ----- --- ------ ----- --<br>----- ----- ---------- --- --- ------ ------ ---- -- ------<br>------- --- ------ ----- --- ---- ------- -- ---- --- --<br>------- ------,183269.89999997616,183269,182883.953,182886.29999995232,182900.684,183283.937,,22,the
screen,html.Screen,2_1_1_1_23,2022-05-09T14:55:51.661Z,,,,,,,,,,,,,,,,,54,,,,,,,,,,,,,,533.2629999284691,,response,,,,100,,,,,,,Space,keypress(Space),,,,,,,,-- --- ---- --- ------ ----- ------- ---- -- --- ------- --<br>------- ---------- ------ -- ----- -- ----- -- ---- ------<br>--- state --- --- ------ -------- ----- --- ------ ----- --<br>----- ----- ---------- --- --- ------ ------ ---- -- ------<br>------- --- ------ ----- --- ---- ------- -- ---- --- --<br>------- ------,183818.19999992847,183817.19999992847,183267.337,183270.09999990463,183283.937,183834.05,,23,state
screen,html.Screen,2_1_1_1_24,2022-05-09T14:55:52.105Z,,,,,,,,,,,,,,,,,54,,,,,,,,,,,,,,427.0499999046442,,response,,,,100,,,,,,,Space,keypress(Space),,,,,,,,-- --- ---- --- ------ ----- ------- ---- -- --- ------- --<br>------- ---------- ------ -- ----- -- ----- -- ---- ------<br>--- ----- cut --- ------ -------- ----- --- ------ ----- --<br>----- ----- ---------- --- --- ------ ------ ---- -- ------<br>------- --- ------ ----- --- ---- ------- -- ---- --- --<br>------- ------,184262,184261.09999990463,183817.163,183818.39999997616,183834.05,184267.136,,24,cut
screen,html.Screen,2_1_1_1_25,2022-05-09T14:55:52.409Z,,,,,,,,,,,,,,,,,54,,,,,,,,,,,,,,297.8640000000014,,response,,,,100,,,,,,,Space,keypress(Space),,,,,,,,-- --- ---- --- ------ ----- ------- ---- -- --- ------- --<br>------- ---------- ------ -- ----- -- ----- -- ---- ------<br>--- ----- --- the ------ -------- ----- --- ------ ----- --<br>----- ----- ---------- --- --- ------ ------ ---- -- ------<br>------- --- ------ ----- --- ---- ------- -- ---- --- --<br>------- ------,184566,184565,184250.575,184262.19999992847,184267.136,184583.889,,25,the
screen,html.Screen,2_1_1_1_26,2022-05-09T14:55:52.857Z,,,,,,,,,,,,,,,,,54,,,,,,,,,,,,,,429.1110000000044,,response,,,,100,,,,,,,Space,keypress(Space),,,,,,,,-- --- ---- --- ------ ----- ------- ---- -- --- ------- --<br>------- ---------- ------ -- ----- -- ----- -- ---- ------<br>--- ----- --- --- bonds' -------- ----- --- ------ ----- --<br>----- ----- ---------- --- --- ------ ------ ---- -- ------<br>------- --- ------ ----- --- ---- ------- -- ---- --- --<br>------- ------,185013.89999997616,185013,184550.66,184566.19999992847,184583.889,185017.108,,26,bonds'
screen,html.Screen,2_1_1_1_27,2022-05-09T14:55:53.321Z,,,,,,,,,,,,,,,,,54,,,,,,,,,,,,,,459.89199999999255,,response,,,,100,,,,,,,Space,keypress(Space),,,,,,,,-- --- ---- --- ------ ----- ------- ---- -- --- ------- --<br>------- ---------- ------ -- ----- -- ----- -- ---- ------<br>--- ----- --- --- ------ interest ----- --- ------ ----- --<br>----- ----- ---------- --- --- ------ ------ ---- -- ------<br>------- --- ------ ----- --- ---- ------- -- ---- --- --<br>------- ------,185477.89999997616,185477,185000.592,185014.19999992847,185017.108,185483.81,,27,interest
screen,html.Screen,2_1_1_1_28,2022-05-09T14:55:53.769Z,,,,,,,,,,,,,,,,,54,,,,,,,,,,,,,,441.2899999046349,,response,,,,100,,,,,,,Space,keypress(Space),,,,,,,,-- --- ---- --- ------ ----- ------- ---- -- --- ------- --<br>------- ---------- ------ -- ----- -- ----- -- ---- ------<br>--- ----- --- --- ------ -------- rate. --- ------ ----- --<br>----- ----- ---------- --- --- ------ ------ ---- -- ------<br>------- --- ------ ----- --- ---- ------- -- ---- --- --<br>------- ------,185926,185925.09999990463,185467.231,185478.19999992847,185483.81,185933.818,,28,rate.
screen,html.Screen,2_1_1_1_29,2022-05-09T14:55:54.473Z,,,,,,,,,,,,,,,,,54,,,,,,,,,,,,,,695.2819999046333,,response,,,,100,,,,,,,Space,keypress(Space),,,,,,,,-- --- ---- --- ------ ----- ------- ---- -- --- ------- --<br>------- ---------- ------ -- ----- -- ----- -- ---- ------<br>--- ----- --- --- ------ -------- ----- The ------ ----- --<br>----- ----- ---------- --- --- ------ ------ ---- -- ------<br>------- --- ------ ----- --- ---- ------- -- ---- --- --<br>------- ------,186630,186629.09999990463,185917.232,185926.19999992847,185933.818,186633.807,,29,The
screen,html.Screen,2_1_1_1_30,2022-05-09T14:55:54.849Z,,,,,,,,,,,,,,,,,54,,,,,,,,,,,,,,371.1929999999993,,response,,,,100,,,,,,,Space,keypress(Space),,,,,,,,-- --- ---- --- ------ ----- ------- ---- -- --- ------- --<br>------- ---------- ------ -- ----- -- ----- -- ---- ------<br>--- ----- --- --- ------ -------- ----- --- market ----- --<br>----- ----- ---------- --- --- ------ ------ ---- -- ------<br>------- --- ------ ----- --- ---- ------- -- ---- --- --<br>------- ------,187006.09999990463,187005,186617.224,186630.19999992847,186633.807,187017.289,,30,market
screen,html.Screen,2_1_1_1_31,2022-05-09T14:55:55.201Z,,,,,,,,,,,,,,,,,54,,,,,,,,,,,,,,339.71100000001024,,response,,,,100,,,,,,,Space,keypress(Space),,,,,,,,-- --- ---- --- ------ ----- ------- ---- -- --- ------- --<br>------- ---------- ------ -- ----- -- ----- -- ---- ------<br>--- ----- --- --- ------ -------- ----- --- ------ value --<br>----- ----- ---------- --- --- ------ ------ ---- -- ------<br>------- --- ------ ----- --- ---- ------- -- ---- --- --<br>------- ------,187357.89999997616,187357,187000.587,187006.29999995232,187017.289,187367.188,,31,value
screen,html.Screen,2_1_1_1_32,2022-05-09T14:55:55.553Z,,,,,,,,,,,,,,,,,54,,,,,,,,,,,,,,341.7119999761635,,response,,,,100,,,,,,,Space,keypress(Space),,,,,,,,-- --- ---- --- ------ ----- ------- ---- -- --- ------- --<br>------- ---------- ------ -- ----- -- ----- -- ---- ------<br>--- ----- --- --- ------ -------- ----- --- ------ ----- of<br>----- ----- ---------- --- --- ------ ------ ---- -- ------<br>------- --- ------ ----- --- ---- ------- -- ---- --- --<br>------- ------,187709.79999995232,187708.89999997616,187350.667,187358.09999990463,187367.188,187717.147,,32,of
screen,html.Screen,2_1_1_1_33,2022-05-09T14:55:55.913Z,,,,,,,,,,,,,,,,,54,,,,,,,,,,,,,,351.75299997616094,,response,,,,100,,,,,,,Space,keypress(Space),,,,,,,,-- --- ---- --- ------ ----- ------- ---- -- --- ------- --<br>------- ---------- ------ -- ----- -- ----- -- ---- ------<br>--- ----- --- --- ------ -------- ----- --- ------ ----- --<br>these ----- ---------- --- --- ------ ------ ---- -- ------<br>------- --- ------ ----- --- ---- ------- -- ---- --- --<br>------- ------,188069.89999997616,188068.89999997616,187700.655,187710,187717.147,188083.897,,33,these
screen,html.Screen,2_1_1_1_34,2022-05-09T14:55:56.266Z,,,,,,,,,,,,,,,,,54,,,,,,,,,,,,,,337.8029999284772,,response,,,,100,,,,,,,Space,keypress(Space),,,,,,,,-- --- ---- --- ------ ----- ------- ---- -- --- ------- --<br>------- ---------- ------ -- ----- -- ----- -- ---- ------<br>--- ----- --- --- ------ -------- ----- --- ------ ----- --<br>----- bonds ---------- --- --- ------ ------ ---- -- ------<br>------- --- ------ ----- --- ---- ------- -- ---- --- --<br>------- ------,188422.69999992847,188421.69999992847,188067.151,188070,188083.897,188433.983,,34,bonds
screen,html.Screen,2_1_1_1_35,2022-05-09T14:55:56.801Z,,,,,,,,,,,,,,,,,54,,,,,,,,,,,,,,523.1169999046251,,response,,,,100,,,,,,,Space,keypress(Space),,,,,,,,"-- --- ---- --- ------ ----- ------- ---- -- --- ------- --<br>------- ---------- ------ -- ----- -- ----- -- ---- ------<br>--- ----- --- --- ------ -------- ----- --- ------ ----- --<br>----- ----- plummeted, --- --- ------ ------ ---- -- ------<br>------- --- ------ ----- --- ---- ------- -- ---- --- --<br>------- ------",188958.09999990463,188957.09999990463,188417.246,188422.89999997616,188433.983,188967.164,,35,"plummeted,"
screen,html.Screen,2_1_1_1_36,2022-05-09T14:55:57.177Z,,,,,,,,,,,,,,,,,54,,,,,,,,,,,,,,365.83600000001024,,response,,,,100,,,,,,,Space,keypress(Space),,,,,,,,-- --- ---- --- ------ ----- ------- ---- -- --- ------- --<br>------- ---------- ------ -- ----- -- ----- -- ---- ------<br>--- ----- --- --- ------ -------- ----- --- ------ ----- --<br>----- ----- ---------- and --- ------ ------ ---- -- ------<br>------- --- ------ ----- --- ---- ------- -- ---- --- --<br>------- ------,189333.89999997616,189333,188950.442,188958.29999995232,188967.164,189350.518,,36,and
screen,html.Screen,2_1_1_1_37,2022-05-09T14:55:57.537Z,,,,,,,,,,,,,,,,,54,,,,,,,,,,,,,,342.5819999046216,,response,,,,100,,,,,,,Space,keypress(Space),,,,,,,,-- --- ---- --- ------ ----- ------- ---- -- --- ------- --<br>------- ---------- ------ -- ----- -- ----- -- ---- ------<br>--- ----- --- --- ------ -------- ----- --- ------ ----- --<br>----- ----- ---------- --- the ------ ------ ---- -- ------<br>------- --- ------ ----- --- ---- ------- -- ---- --- --<br>------- ------,189694,189693.09999990463,189334.011,189334.09999990463,189350.518,189700.483,,37,the
screen,html.Screen,2_1_1_1_38,2022-05-09T14:55:57.953Z,,,,,,,,,,,,,,,,,54,,,,,,,,,,,,,,408.31699995230883,,response,,,,100,,,,,,,Space,keypress(Space),,,,,,,,-- --- ---- --- ------ ----- ------- ---- -- --- ------- --<br>------- ---------- ------ -- ----- -- ----- -- ---- ------<br>--- ----- --- --- ------ -------- ----- --- ------ ----- --<br>----- ----- ---------- --- --- market ------ ---- -- ------<br>------- --- ------ ----- --- ---- ------- -- ---- --- --<br>------- ------,190109.79999995232,190108.79999995232,189683.961,189694.19999992847,189700.483,190117.202,,38,market
screen,html.Screen,2_1_1_1_39,2022-05-09T14:55:58.297Z,,,,,,,,,,,,,,,,,54,,,,,,,,,,,,,,335.4979999284842,,response,,,,100,,,,,,,Space,keypress(Space),,,,,,,,-- --- ---- --- ------ ----- ------- ---- -- --- ------- --<br>------- ---------- ------ -- ----- -- ----- -- ---- ------<br>--- ----- --- --- ------ -------- ----- --- ------ ----- --<br>----- ----- ---------- --- --- ------ became ---- -- ------<br>------- --- ------ ----- --- ---- ------- -- ---- --- --<br>------- ------,190453.59999990463,190452.69999992847,190100.657,190110,190117.202,190467.253,,39,became
screen,html.Screen,2_1_1_1_40,2022-05-09T14:55:58.633Z,,,,,,,,,,,,,,,,,54,,,,,,,,,,,,,,321.747000000003,,response,,,,100,,,,,,,Space,keypress(Space),,,,,,,,-- --- ---- --- ------ ----- ------- ---- -- --- ------- --<br>------- ---------- ------ -- ----- -- ----- -- ---- ------<br>--- ----- --- --- ------ -------- ----- --- ------ ----- --<br>----- ----- ---------- --- --- ------ ------ wary -- ------<br>------- --- ------ ----- --- ---- ------- -- ---- --- --<br>------- ------,190789.89999997616,190789,190450.515,190453.89999997616,190467.253,190800.671,,40,wary
screen,html.Screen,2_1_1_1_41,2022-05-09T14:55:59.041Z,,,,,,,,,,,,,,,,,54,,,,,,,,,,,,,,396.3289999999979,,response,,,,100,,,,,,,Space,keypress(Space),,,,,,,,-- --- ---- --- ------ ----- ------- ---- -- --- ------- --<br>------- ---------- ------ -- ----- -- ----- -- ---- ------<br>--- ----- --- --- ------ -------- ----- --- ------ ----- --<br>----- ----- ---------- --- --- ------ ------ ---- of ------<br>------- --- ------ ----- --- ---- ------- -- ---- --- --<br>------- ------,191197.89999997616,191197,190783.911,190790.09999990463,190800.671,191200.471,,41,of
screen,html.Screen,2_1_1_1_42,2022-05-09T14:55:59.393Z,,,,,,,,,,,,,,,,,54,,,,,,,,,,,,,,348.728999928484,,response,,,,100,,,,,,,Space,keypress(Space),,,,,,,,-- --- ---- --- ------ ----- ------- ---- -- --- ------- --<br>------- ---------- ------ -- ----- -- ----- -- ---- ------<br>--- ----- --- --- ------ -------- ----- --- ------ ----- --<br>----- ----- ---------- --- --- ------ ------ ---- -- French<br>------- --- ------ ----- --- ---- ------- -- ---- --- --<br>------- ------,191550,191549.19999992847,191183.911,191198.09999990463,191200.471,191567.26,,42,French
screen,html.Screen,2_1_1_1_43,2022-05-09T14:55:59.777Z,,,,,,,,,,,,,,,,,54,,,,,,,,,,,,,,365.83999990462326,,response,,,,100,,,,,,,Space,keypress(Space),,,,,,,,-- --- ---- --- ------ ----- ------- ---- -- --- ------- --<br>------- ---------- ------ -- ----- -- ----- -- ---- ------<br>--- ----- --- --- ------ -------- ----- --- ------ ----- --<br>----- ----- ---------- --- --- ------ ------ ---- -- ------<br>credit. --- ------ ----- --- ---- ------- -- ---- --- --<br>------- ------,191934.19999992847,191933.09999990463,191550.498,191550.29999995232,191567.26,191950.685,,43,credit.
screen,html.Screen,2_1_1_1_44,2022-05-09T14:56:00.232Z,,,,,,,,,,,,,,,,,54,,,,,,,,,,,,,,437.8150000000023,,response,,,,100,,,,,,,Space,keypress(Space),,,,,,,,-- --- ---- --- ------ ----- ------- ---- -- --- ------- --<br>------- ---------- ------ -- ----- -- ----- -- ---- ------<br>--- ----- --- --- ------ -------- ----- --- ------ ----- --<br>----- ----- ---------- --- --- ------ ------ ---- -- ------<br>------- The ------ ----- --- ---- ------- -- ---- --- --<br>------- ------,192389.09999990463,192388.5,191933.997,191934.29999995232,191950.685,192400.484,,44,The
screen,html.Screen,2_1_1_1_45,2022-05-09T14:56:00.609Z,,,,,,,,,,,,,,,,,54,,,,,,,,,,,,,,364.51600000000326,,response,,,,100,,,,,,,Space,keypress(Space),,,,,,,,-- --- ---- --- ------ ----- ------- ---- -- --- ------- --<br>------- ---------- ------ -- ----- -- ----- -- ---- ------<br>--- ----- --- --- ------ -------- ----- --- ------ ----- --<br>----- ----- ---------- --- --- ------ ------ ---- -- ------<br>------- --- French ----- --- ---- ------- -- ---- --- --<br>------- ------,192765.89999997616,192765,192383.895,192389.29999995232,192400.484,192784.011,,45,French
screen,html.Screen,2_1_1_1_46,2022-05-09T14:56:00.921Z,,,,,,,,,,,,,,,,,54,,,,,,,,,,,,,,292.9890000000014,,response,,,,100,,,,,,,Space,keypress(Space),,,,,,,,-- --- ---- --- ------ ----- ------- ---- -- --- ------- --<br>------- ---------- ------ -- ----- -- ----- -- ---- ------<br>--- ----- --- --- ------ -------- ----- --- ------ ----- --<br>----- ----- ---------- --- --- ------ ------ ---- -- ------<br>------- --- ------ state --- ---- ------- -- ---- --- --<br>------- ------,193077.89999997616,193077,192750.596,192766.09999990463,192784.011,193083.825,,46,state
screen,html.Screen,2_1_1_1_47,2022-05-09T14:56:01.361Z,,,,,,,,,,,,,,,,,54,,,,,,,,,,,,,,433.2749999046209,,response,,,,100,,,,,,,Space,keypress(Space),,,,,,,,-- --- ---- --- ------ ----- ------- ---- -- --- ------- --<br>------- ---------- ------ -- ----- -- ----- -- ---- ------<br>--- ----- --- --- ------ -------- ----- --- ------ ----- --<br>----- ----- ---------- --- --- ------ ------ ---- -- ------<br>------- --- ------ ----- was ---- ------- -- ---- --- --<br>------- ------,193517.89999997616,193517.09999990463,193067.266,193078.19999992847,193083.825,193534.003,,47,was
screen,html.Screen,2_1_1_1_48,2022-05-09T14:56:01.789Z,,,,,,,,,,,,,,,,,54,,,,,,,,,,,,,,411.39699997616117,,response,,,,100,,,,,,,Space,keypress(Space),,,,,,,,-- --- ---- --- ------ ----- ------- ---- -- --- ------- --<br>------- ---------- ------ -- ----- -- ----- -- ---- ------<br>--- ----- --- --- ------ -------- ----- --- ------ ----- --<br>----- ----- ---------- --- --- ------ ------ ---- -- ------<br>------- --- ------ ----- --- left ------- -- ---- --- --<br>------- ------,193946.29999995232,193945.39999997616,193517.307,193518.09999990463,193534.003,193950.471,,48,left
screen,html.Screen,2_1_1_1_49,2022-05-09T14:56:02.177Z,,,,,,,,,,,,,,,,,54,,,,,,,,,,,,,,382.52900000000955,,response,,,,100,,,,,,,Space,keypress(Space),,,,,,,,-- --- ---- --- ------ ----- ------- ---- -- --- ------- --<br>------- ---------- ------ -- ----- -- ----- -- ---- ------<br>--- ----- --- --- ------ -------- ----- --- ------ ----- --<br>----- ----- ---------- --- --- ------ ------ ---- -- ------<br>------- --- ------ ----- --- ---- without -- ---- --- --<br>------- ------,194334,194333,193933.843,193946.59999990463,193950.471,194350.69,,49,without
screen,html.Screen,2_1_1_1_50,2022-05-09T14:56:02.545Z,,,,,,,,,,,,,,,,,54,,,,,,,,,,,,,,350.3099999999977,,response,,,,100,,,,,,,Space,keypress(Space),,,,,,,,-- --- ---- --- ------ ----- ------- ---- -- --- ------- --<br>------- ---------- ------ -- ----- -- ----- -- ---- ------<br>--- ----- --- --- ------ -------- ----- --- ------ ----- --<br>----- ----- ---------- --- --- ------ ------ ---- -- ------<br>------- --- ------ ----- --- ---- ------- an ---- --- --<br>------- ------,194701.89999997616,194701,194333.906,194334.19999992847,194350.69,194717.193,,50,an
screen,html.Screen,2_1_1_1_51,2022-05-09T14:56:02.913Z,,,,,,,,,,,,,,,,,54,,,,,,,,,,,,,,351.8070000000007,,response,,,,100,,,,,,,Space,keypress(Space),,,,,,,,-- --- ---- --- ------ ----- ------- ---- -- --- ------- --<br>------- ---------- ------ -- ----- -- ----- -- ---- ------<br>--- ----- --- --- ------ -------- ----- --- ------ ----- --<br>----- ----- ---------- --- --- ------ ------ ---- -- ------<br>------- --- ------ ----- --- ---- ------- -- easy --- --<br>------- ------,195069.89999997616,195069,194700.62,194702.19999992847,194717.193,195084.01,,51,easy
screen,html.Screen,2_1_1_1_52,2022-05-09T14:56:03.297Z,,,,,,,,,,,,,,,,,54,,,,,,,,,,,,,,368.9899999999907,,response,,,,100,,,,,,,Space,keypress(Space),,,,,,,,-- --- ---- --- ------ ----- ------- ---- -- --- ------- --<br>------- ---------- ------ -- ----- -- ----- -- ---- ------<br>--- ----- --- --- ------ -------- ----- --- ------ ----- --<br>----- ----- ---------- --- --- ------ ------ ---- -- ------<br>------- --- ------ ----- --- ---- ------- -- ---- way --<br>------- ------,195453.89999997616,195453,195067.339,195070.09999990463,195084.01,195467.183,,52,way
screen,html.Screen,2_1_1_1_53,2022-05-09T14:56:03.657Z,,,,,,,,,,,,,,,,,54,,,,,,,,,,,,,,345.9169999046426,,response,,,,100,,,,,,,Space,keypress(Space),,,,,,,,-- --- ---- --- ------ ----- ------- ---- -- --- ------- --<br>------- ---------- ------ -- ----- -- ----- -- ---- ------<br>--- ----- --- --- ------ -------- ----- --- ------ ----- --<br>----- ----- ---------- --- --- ------ ------ ---- -- ------<br>------- --- ------ ----- --- ---- ------- -- ---- --- of<br>------- ------,195814.09999990463,195813.09999990463,195450.51,195454.09999990463,195467.183,195817.141,,53,of
screen,html.Screen,2_1_1_1_54,2022-05-09T14:56:03.993Z,,,,,,,,,,,,,,,,,54,,,,,,,,,,,,,,331.85899999999674,,response,,,,100,,,,,,,Space,keypress(Space),,,,,,,,-- --- ---- --- ------ ----- ------- ---- -- --- ------- --<br>------- ---------- ------ -- ----- -- ----- -- ---- ------<br>--- ----- --- --- ------ -------- ----- --- ------ ----- --<br>----- ----- ---------- --- --- ------ ------ ---- -- ------<br>------- --- ------ ----- --- ---- ------- -- ---- --- --<br>raising ------,196149.89999997616,196149,195800.499,195814.29999995232,195817.141,196167.278,,54,raising
screen,html.Screen,2_1_1_1_55,2022-05-09T14:56:04.385Z,,,,,,,,,,,,,,,,,54,,,,,,,,,,,,,,373.8219999046414,,response,,,,100,,,,,,,Space,keypress(Space),,,,,,,,-- --- ---- --- ------ ----- ------- ---- -- --- ------- --<br>------- ---------- ------ -- ----- -- ----- -- ---- ------<br>--- ----- --- --- ------ -------- ----- --- ------ ----- --<br>----- ----- ---------- --- --- ------ ------ ---- -- ------<br>------- --- ------ ----- --- ---- ------- -- ---- --- --<br>------- money.,196541.89999997616,196541.09999990463,196150.66,196150.19999992847,196167.278,196550.476,,55,money.
Item 100,flow.Loop,2_1_1_1,2022-05-09T14:56:04.386Z,,,,,,,,,,,,,,,,,,,,,,,,,,,,,,,23807.24699990463,,completion,,,,,F,,,,,,,,,,,silence,,,,,196542.29999995232,196541.09999990463,172717.224,172718.69999992847,172733.853,196550.476,,,
Question 1,html.Screen,2_1_1_2,2022-05-09T14:56:07.976Z,,,,,,,,,,,,,,,,,,,,,,,,,,,,true,TRUE,,3581.524000000005,,response,,,,100,F,,,,,,TRUE,click #choice-1,,,,silence,,,,,200132.79999995232,200132,196533.995,196542.59999990463,196550.476,200151.654,,,
Question 2,html.Screen,2_1_1_3,2022-05-09T14:56:11.896Z,,,,,,,,,,,,,,,,,,,,,,,,,,,,true,FALSE,,3900.1459999523067,,response,,,,100,F,,,,,,FALSE,click #choice-2,,,,silence,,,,,204052.5,204051.79999995232,200117.249,200132.79999995232,200151.654,204067.229,,,
Item 100,flow.Sequence,2_1_1,2022-05-09T14:56:11.896Z,,,,,,,,,,,,,,,,,,,,,,,,,,,,,,,41318.05899995231,,completion,,,,,,,,,,,,,,,,,,,,,204052.59999990463,204051.79999995232,162717.15,162729,162733.741,204067.229,,,
End of Practice,html.Page,2_1_2,2022-05-09T14:56:15.012Z,,,,,,,,,,,,,,,,,,,,,,,,,,,,,,,3101.4709999284823,,form submission,,,,,,,,,,,,,,,,,,,,,207168.89999997616,207168.69999992847,204050.665,204052.69999992847,204067.229,207183.982,,,
Practice,flow.Sequence,2_1,2022-05-09T14:56:15.012Z,,,,,,,,,,,,,,,,,,,,,,,,,,,,,,,89001.64599992847,,completion,,,,,,,,,,,,,,,,,,,,,207169.09999990463,207168.69999992847,118150.575,118159.19999992847,118167.054,207183.982,,,
Trap_instruction,html.Page,2_2_0,2022-05-09T14:56:19.224Z,,,,,,,,,,,,,,,,,,,,,,,,,,,,,,,4196.817999952327,,form submission,,,,,,,,,,,,,,,,,,,,,211381,211380.79999995232,207167.239,207169.19999992847,207183.982,211383.763,,,
trap_trial,html.Screen,2_2_1,2022-05-09T14:56:24.252Z,,,,,,,,,,,,,,,,,,,,,,,,,,,,true,1,,5024.136999976152,,response,,,,,,,,,,,1,click #choice-1,,,,,,,,,216408.59999990463,216407.89999997616,211367.336,211381.09999990463,211383.763,216417.107,,,
end of trap trial,html.Page,2_2_2,2022-05-09T14:56:25.716Z,,,,,,,,,,,,,,,,,,,,,,,,,,,,,,,1455.6929999523272,,form submission,,,,,,,,,,,,,,,,,,,,,217873.09999990463,217872.79999995232,216400.578,216408.69999992847,216417.107,217883.89,,,
Trap 1,flow.Sequence,2_2,2022-05-09T14:56:25.716Z,,,,,,,,,,,,,,,,,,,,,,,,,,,,,,,10688.817999952327,,completion,,,,,,,,,,,,,,,,,,,,,217873.19999992847,217872.79999995232,207167.239,207169.19999992847,207183.982,217883.89,,,
Standby,html.Page,2_3_0,2022-05-09T14:56:33.712Z,,,,,,,,,,,,,,,,,,,,,,,,,,,,,,,7999.922999999981,,timeout,,,,,,,,,,,,,,,,,,,,,225868.5,225867.274,217867.175,217873.39999997616,217883.89,225883.813,,,
Holding screen,html.Screen,2_3_1_0_0,2022-05-09T14:56:40.712Z,,,,,,,,,,,,,,,,,,,,,,,,,,,,,,,7000.031000000017,,timeout,,,,,,,,,,,,,,,,,,,,,232868.79999995232,232867.162,225867.274,225869,225883.813,232883.844,,,
screen,html.Screen,2_3_1_0_1_0,2022-05-09T14:56:41.379Z,,,,,,,,,,,,,,,,,12,,,,,,,,,,,,,,651.6559999999881,,response,,,,5,F,,,,,,Space,keypress(Space),,,,lyrical,,,,Some ------ ------ ------- ------ --- ------- -----------<br>-- ----- --- ---- -- --- ------ ---- - ---- -- ----------<br>-- ------ ---- --- ---- --- --- --- ----- -- -------- ---<br>------ ------- -------- --- ---- -- ------- ------------ --<br>------ -- ---- -- --- ---- -- -------- -- --- ------ ------,233536.19999992847,233535.5,232867.162,232869.19999992847,232883.844,233550.462,,0,Some
screen,html.Screen,2_3_1_0_1_1,2022-05-09T14:56:41.720Z,,,,,,,,,,,,,,,,,12,,,,,,,,,,,,,,326.13799990463303,,response,,,,5,F,,,,,,Space,keypress(Space),,,,lyrical,,,,---- months ------ ------- ------ --- ------- -----------<br>-- ----- --- ---- -- --- ------ ---- - ---- -- ----------<br>-- ------ ---- --- ---- --- --- --- ----- -- -------- ---<br>------ ------- -------- --- ---- -- ------- ------------ --<br>------ -- ---- -- --- ---- -- -------- -- --- ------ ------,233877.29999995232,233876.59999990463,233533.878,233536.39999997616,233550.462,233883.943,,1,months
screen,html.Screen,2_3_1_0_1_2,2022-05-09T14:56:42.080Z,,,,,,,,,,,,,,,,,12,,,,,,,,,,,,,,352.65699990463327,,response,,,,5,F,,,,,,Space,keypress(Space),,,,lyrical,,,,"---- ------ later, ------- ------ --- ------- -----------<br>-- ----- --- ---- -- --- ------ ---- - ---- -- ----------<br>-- ------ ---- --- ---- --- --- --- ----- -- -------- ---<br>------ ------- -------- --- ---- -- ------- ------------ --<br>------ -- ---- -- --- ---- -- -------- -- --- ------ ------",234237.29999995232,234236.59999990463,233867.168,233877.5,233883.943,234250.512,,2,"later,"
screen,html.Screen,2_3_1_0_1_3,2022-05-09T14:56:42.664Z,,,,,,,,,,,,,,,,,12,,,,,,,,,,,,,,569.8879999761702,,response,,,,5,F,,,,,,Space,keypress(Space),,,,lyrical,,,,---- ------ ------ Michael ------ --- ------- -----------<br>-- ----- --- ---- -- --- ------ ---- - ---- -- ----------<br>-- ------ ---- --- ---- --- --- --- ----- -- -------- ---<br>------ ------- -------- --- ---- -- ------- ------------ --<br>------ -- ---- -- --- ---- -- -------- -- --- ------ ------,234821.09999990463,234820.39999997616,234233.907,234237.39999997616,234250.512,234833.867,,3,Michael
screen,html.Screen,2_3_1_0_1_4,2022-05-09T14:56:43.297Z,,,,,,,,,,,,,,,,,12,,,,,,,,,,,,,,618.7329999046342,,response,,,,5,F,,,,,,Space,keypress(Space),,,,lyrical,,,,---- ------ ------ ------- Larson --- ------- -----------<br>-- ----- --- ---- -- --- ------ ---- - ---- -- ----------<br>-- ------ ---- --- ---- --- --- --- ----- -- -------- ---<br>------ ------- -------- --- ---- -- ------- ------------ --<br>------ -- ---- -- --- ---- -- -------- -- --- ------ ------,235453.29999995232,235452.59999990463,234817.249,234821.19999992847,234833.867,235467.285,,4,Larson
screen,html.Screen,2_3_1_0_1_5,2022-05-09T14:56:43.730Z,,,,,,,,,,,,,,,,,12,,,,,,,,,,,,,,418.5149999523128,,response,,,,5,F,,,,,,Space,keypress(Space),,,,lyrical,,,,---- ------ ------ ------- ------ saw ------- -----------<br>-- ----- --- ---- -- --- ------ ---- - ---- -- ----------<br>-- ------ ---- --- ---- --- --- --- ----- -- -------- ---<br>------ ------- -------- --- ---- -- ------- ------------ --<br>------ -- ---- -- --- ---- -- -------- -- --- ------ ------,235886.89999997616,235885.79999995232,235450.588,235453.5,235467.285,235900.693,,5,saw
screen,html.Screen,2_3_1_0_1_6,2022-05-09T14:56:44.065Z,,,,,,,,,,,,,,,,,12,,,,,,,,,,,,,,320.20699997615884,,response,,,,5,F,,,,,,Space,keypress(Space),,,,lyrical,,,,---- ------ ------ ------- ------ --- another -----------<br>-- ----- --- ---- -- --- ------ ---- - ---- -- ----------<br>-- ------ ---- --- ---- --- --- --- ----- -- -------- ---<br>------ ------- -------- --- ---- -- ------- ------------ --<br>------ -- ---- -- --- ---- -- -------- -- --- ------ ------,236221.69999992847,236220.89999997616,235883.971,235887.19999992847,235900.693,236233.886,,6,another
screen,html.Screen,2_3_1_0_1_7,2022-05-09T14:56:44.585Z,,,,,,,,,,,,,,,,,12,,,,,,,,,,,,,,507.3139999284758,,response,,,,5,F,,,,,,Space,keypress(Space),,,,lyrical,,,,---- ------ ------ ------- ------ --- ------- opportunity<br>-- ----- --- ---- -- --- ------ ---- - ---- -- ----------<br>-- ------ ---- --- ---- --- --- --- ----- -- -------- ---<br>------ ------- -------- --- ---- -- ------- ------------ --<br>------ -- ---- -- --- ---- -- -------- -- --- ------ ------,236742.19999992847,236741.19999992847,236217.207,236221.89999997616,236233.886,236750.563,,7,opportunity
screen,html.Screen,2_3_1_0_1_8,2022-05-09T14:56:44.969Z,,,,,,,,,,,,,,,,,12,,,,,,,,,,,,,,374.1369999284798,,response,,,,5,F,,,,,,Space,keypress(Space),,,,lyrical,,,,---- ------ ------ ------- ------ --- ------- -----------<br>to ----- --- ---- -- --- ------ ---- - ---- -- ----------<br>-- ------ ---- --- ---- --- --- --- ----- -- -------- ---<br>------ ------- -------- --- ---- -- ------- ------------ --<br>------ -- ---- -- --- ---- -- -------- -- --- ------ ------,237125.59999990463,237124.69999992847,236733.943,236742.5,236750.563,237133.814,,8,to
screen,html.Screen,2_3_1_0_1_9,2022-05-09T14:56:45.330Z,,,,,,,,,,,,,,,,,12,,,,,,,,,,,,,,351.68599999998696,,response,,,,5,F,,,,,,Space,keypress(Space),,,,lyrical,,,,---- ------ ------ ------- ------ --- ------- -----------<br>-- stack --- ---- -- --- ------ ---- - ---- -- ----------<br>-- ------ ---- --- ---- --- --- --- ----- -- -------- ---<br>------ ------- -------- --- ---- -- ------- ------------ --<br>------ -- ---- -- --- ---- -- -------- -- --- ------ ------,237486.39999997616,237485.5,237117.211,237125.79999995232,237133.814,237500.57,,9,stack
screen,html.Screen,2_3_1_0_1_10,2022-05-09T14:56:45.673Z,,,,,,,,,,,,,,,,,12,,,,,,,,,,,,,,328.12999992846744,,response,,,,5,F,,,,,,Space,keypress(Space),,,,lyrical,,,,---- ------ ------ ------- ------ --- ------- -----------<br>-- ----- the ---- -- --- ------ ---- - ---- -- ----------<br>-- ------ ---- --- ---- --- --- --- ----- -- -------- ---<br>------ ------- -------- --- ---- -- ------- ------------ --<br>------ -- ---- -- --- ---- -- -------- -- --- ------ ------,237829.59999990463,237828.69999992847,237483.797,237486.59999990463,237500.57,237833.799,,10,the
screen,html.Screen,2_3_1_0_1_11,2022-05-09T14:56:46.032Z,,,,,,,,,,,,,,,,,12,,,,,,,,,,,,,,354.3009999046335,,response,,,,5,F,,,,,,Space,keypress(Space),,,,lyrical,,,,---- ------ ------ ------- ------ --- ------- -----------<br>-- ----- --- odds -- --- ------ ---- - ---- -- ----------<br>-- ------ ---- --- ---- --- --- --- ----- -- -------- ---<br>------ ------- -------- --- ---- -- ------- ------------ --<br>------ -- ---- -- --- ---- -- -------- -- --- ------ ------,238188.59999990463,238188.09999990463,237817.179,237829.79999995232,237833.799,238200.48,,11,odds
screen,html.Screen,2_3_1_0_1_12,2022-05-09T14:56:46.673Z,,,,,,,,,,,,,,,,,12,,,,,,,,,,,,,,628.6199999046221,,response,,,,5,F,,,,,,Space,keypress(Space),,,,lyrical,,,,---- ------ ------ ------- ------ --- ------- -----------<br>-- ----- --- ---- in --- ------ ---- - ---- -- ----------<br>-- ------ ---- --- ---- --- --- --- ----- -- -------- ---<br>------ ------- -------- --- ---- -- ------- ------------ --<br>------ -- ---- -- --- ---- -- -------- -- --- ------ ------,238829.89999997616,238829.09999990463,238183.866,238188.69999992847,238200.48,238833.797,,12,in
screen,html.Screen,2_3_1_0_1_13,2022-05-09T14:56:46.993Z,,,,,,,,,,,,,,,,,12,,,,,,,,,,,,,,315.0029999523249,,response,,,,5,F,,,,,,Space,keypress(Space),,,,lyrical,,,,---- ------ ------ ------- ------ --- ------- -----------<br>-- ----- --- ---- -- his ------ ---- - ---- -- ----------<br>-- ------ ---- --- ---- --- --- --- ----- -- -------- ---<br>------ ------- -------- --- ---- -- ------- ------------ --<br>------ -- ---- -- --- ---- -- -------- -- --- ------ ------,239149.69999992847,239148.79999995232,238817.106,238830.19999992847,238833.797,239167.282,,13,his
screen,html.Screen,2_3_1_0_1_14,2022-05-09T14:56:47.377Z,,,,,,,,,,,,,,,,,12,,,,,,,,,,,,,,365.81799990462605,,response,,,,5,F,,,,,,Space,keypress(Space),,,,lyrical,,,,---- ------ ------ ------- ------ --- ------- -----------<br>-- ----- --- ---- -- --- favour ---- - ---- -- ----------<br>-- ------ ---- --- ---- --- --- --- ----- -- -------- ---<br>------ ------- -------- --- ---- -- ------- ------------ --<br>------ -- ---- -- --- ---- -- -------- -- --- ------ ------,239534,239533.09999990463,239150.525,239150,239167.282,239550.669,,14,favour
screen,html.Screen,2_3_1_0_1_15,2022-05-09T14:56:47.897Z,,,,,,,,,,,,,,,,,12,,,,,,,,,,,,,,502.3310000000056,,response,,,,5,F,,,,,,Space,keypress(Space),,,,lyrical,,,,---- ------ ------ ------- ------ --- ------- -----------<br>-- ----- --- ---- -- --- ------ with - ---- -- ----------<br>-- ------ ---- --- ---- --- --- --- ----- -- -------- ---<br>------ ------- -------- --- ---- -- ------- ------------ --<br>------ -- ---- -- --- ---- -- -------- -- --- ------ ------,240053.89999997616,240053,239534.035,239534.19999992847,239550.669,240067.244,,15,with
screen,html.Screen,2_3_1_0_1_16,2022-05-09T14:56:48.235Z,,,,,,,,,,,,,,,,,12,,,,,,,,,,,,,,329.75599999999395,,response,,,,5,F,,,,,,Space,keypress(Space),,,,lyrical,,,,---- ------ ------ ------- ------ --- ------- -----------<br>-- ----- --- ---- -- --- ------ ---- a ---- -- ----------<br>-- ------ ---- --- ---- --- --- --- ----- -- -------- ---<br>------ ------- -------- --- ---- -- ------- ------------ --<br>------ -- ---- -- --- ---- -- -------- -- --- ------ ------,240398,240397,240050.504,240054.09999990463,240067.244,240400.509,,16,a
screen,html.Screen,2_3_1_0_1_17,2022-05-09T14:56:48.547Z,,,,,,,,,,,,,,,,,12,,,,,,,,,,,,,,308.1909999284835,,response,,,,5,F,,,,,,Space,keypress(Space),,,,lyrical,,,,---- ------ ------ ------- ------ --- ------- -----------<br>-- ----- --- ---- -- --- ------ ---- - dash -- ----------<br>-- ------ ---- --- ---- --- --- --- ----- -- -------- ---<br>------ ------- -------- --- ---- -- ------- ------------ --<br>------ -- ---- -- --- ---- -- -------- -- --- ------ ------,240709.59999990463,240708.69999992847,240383.911,240398.09999990463,240400.509,240717.274,,17,dash
screen,html.Screen,2_3_1_0_1_18,2022-05-09T14:56:48.859Z,,,,,,,,,,,,,,,,,12,,,,,,,,,,,,,,303.7259999999951,,response,,,,5,F,,,,,,Space,keypress(Space),,,,lyrical,,,,---- ------ ------ ------- ------ --- ------- -----------<br>-- ----- --- ---- -- --- ------ ---- - ---- of ----------<br>-- ------ ---- --- ---- --- --- --- ----- -- -------- ---<br>------ ------- -------- --- ---- -- ------- ------------ --<br>------ -- ---- -- --- ---- -- -------- -- --- ------ ------,241022,241021,240700.516,240709.79999995232,240717.274,241033.937,,18,of
screen,html.Screen,2_3_1_0_1_19,2022-05-09T14:56:49.516Z,,,,,,,,,,,,,,,,,12,,,,,,,,,,,,,,643.4629999761528,,response,,,,5,F,,,,,,Space,keypress(Space),,,,lyrical,,,,---- ------ ------ ------- ------ --- ------- -----------<br>-- ----- --- ---- -- --- ------ ---- - ---- -- ingenuity.<br>-- ------ ---- --- ---- --- --- --- ----- -- -------- ---<br>------ ------- -------- --- ---- -- ------- ------------ --<br>------ -- ---- -- --- ---- -- -------- -- --- ------ ------,241678.39999997616,241677.39999997616,241017.169,241022.29999995232,241033.937,241700.555,,19,ingenuity.
screen,html.Screen,2_3_1_0_1_20,2022-05-09T14:56:50.435Z,,,,,,,,,,,,,,,,,12,,,,,,,,,,,,,,896.3449999761651,,response,,,,5,F,,,,,,Space,keypress(Space),,,,lyrical,,,,---- ------ ------ ------- ------ --- ------- -----------<br>-- ----- --- ---- -- --- ------ ---- - ---- -- ----------<br>He ------ ---- --- ---- --- --- --- ----- -- -------- ---<br>------ ------- -------- --- ---- -- ------- ------------ --<br>------ -- ---- -- --- ---- -- -------- -- --- ------ ------,242597.89999997616,242596.89999997616,241667.204,241678.59999990463,241700.555,242600.497,,20,He
screen,html.Screen,2_3_1_0_1_21,2022-05-09T14:56:50.732Z,,,,,,,,,,,,,,,,,12,,,,,,,,,,,,,,293.002999999997,,response,,,,5,F,,,,,,Space,keypress(Space),,,,lyrical,,,,---- ------ ------ ------- ------ --- ------- -----------<br>-- ----- --- ---- -- --- ------ ---- - ---- -- ----------<br>-- walked ---- --- ---- --- --- --- ----- -- -------- ---<br>------ ------- -------- --- ---- -- ------- ------------ --<br>------ -- ---- -- --- ---- -- -------- -- --- ------ ------,242894.39999997616,242893.5,242583.87,242598.09999990463,242600.497,242900.467,,21,walked
screen,html.Screen,2_3_1_0_1_22,2022-05-09T14:56:51.083Z,,,,,,,,,,,,,,,,,12,,,,,,,,,,,,,,344.3329999523121,,response,,,,5,F,,,,,,Space,keypress(Space),,,,lyrical,,,,---- ------ ------ ------- ------ --- ------- -----------<br>-- ----- --- ---- -- --- ------ ---- - ---- -- ----------<br>-- ------ into --- ---- --- --- --- ----- -- -------- ---<br>------ ------- -------- --- ---- -- ------- ------------ --<br>------ -- ---- -- --- ---- -- -------- -- --- ------ ------,243245.69999992847,243244.79999995232,242883.828,242894.59999990463,242900.467,243267.293,,22,into
screen,html.Screen,2_3_1_0_1_23,2022-05-09T14:56:51.387Z,,,,,,,,,,,,,,,,,12,,,,,,,,,,,,,,281.7069999999949,,response,,,,5,F,,,,,,Space,keypress(Space),,,,lyrical,,,,---- ------ ------ ------- ------ --- ------- -----------<br>-- ----- --- ---- -- --- ------ ---- - ---- -- ----------<br>-- ------ ---- his ---- --- --- --- ----- -- -------- ---<br>------ ------- -------- --- ---- -- ------- ------------ --<br>------ -- ---- -- --- ---- -- -------- -- --- ------ ------,243549.79999995232,243549,243233.853,243245.89999997616,243267.293,243567.274,,23,his
screen,html.Screen,2_3_1_0_1_24,2022-05-09T14:56:51.720Z,,,,,,,,,,,,,,,,,12,,,,,,,,,,,,,,314.0259999523114,,response,,,,5,F,,,,,,Space,keypress(Space),,,,lyrical,,,,---- ------ ------ ------- ------ --- ------- -----------<br>-- ----- --- ---- -- --- ------ ---- - ---- -- ----------<br>-- ------ ---- --- bank --- --- --- ----- -- -------- ---<br>------ ------- -------- --- ---- -- ------- ------------ --<br>------ -- ---- -- --- ---- -- -------- -- --- ------ ------,243882.29999995232,243881.29999995232,243550.516,243550.09999990463,243567.274,243902.513,,24,bank
screen,html.Screen,2_3_1_0_1_25,2022-05-09T14:56:52.051Z,,,,,,,,,,,,,,,,,12,,,,,,,,,,,,,,310.5869999046263,,response,,,,5,F,,,,,,Space,keypress(Space),,,,lyrical,,,,---- ------ ------ ------- ------ --- ------- -----------<br>-- ----- --- ---- -- --- ------ ---- - ---- -- ----------<br>-- ------ ---- --- ---- one --- --- ----- -- -------- ---<br>------ ------- -------- --- ---- -- ------- ------------ --<br>------ -- ---- -- --- ---- -- -------- -- --- ------ ------,244214,244213.09999990463,243867.246,243882.5,243902.513,244217.159,,25,one
screen,html.Screen,2_3_1_0_1_26,2022-05-09T14:56:52.403Z,,,,,,,,,,,,,,,,,12,,,,,,,,,,,,,,347.74099997614394,,response,,,,5,F,,,,,,Space,keypress(Space),,,,lyrical,,,,---- ------ ------ ------- ------ --- ------- -----------<br>-- ----- --- ---- -- --- ------ ---- - ---- -- ----------<br>-- ------ ---- --- ---- --- day --- ----- -- -------- ---<br>------ ------- -------- --- ---- -- ------- ------------ --<br>------ -- ---- -- --- ---- -- -------- -- --- ------ ------,244565.79999995232,244564.89999997616,244200.526,244214.19999992847,244217.159,244583.826,,26,day
screen,html.Screen,2_3_1_0_1_27,2022-05-09T14:56:52.835Z,,,,,,,,,,,,,,,,,12,,,,,,,,,,,,,,413.17399999999907,,response,,,,5,F,,,,,,Space,keypress(Space),,,,lyrical,,,,---- ------ ------ ------- ------ --- ------- -----------<br>-- ----- --- ---- -- --- ------ ---- - ---- -- ----------<br>-- ------ ---- --- ---- --- --- and ----- -- -------- ---<br>------ ------- -------- --- ---- -- ------- ------------ --<br>------ -- ---- -- --- ---- -- -------- -- --- ------ ------,244998,244997,244550.531,244566.09999990463,244583.826,245000.498,,27,and
screen,html.Screen,2_3_1_0_1_28,2022-05-09T14:56:53.203Z,,,,,,,,,,,,,,,,,12,,,,,,,,,,,,,,364.30199995232397,,response,,,,5,F,,,,,,Space,keypress(Space),,,,lyrical,,,,---- ------ ------ ------- ------ --- ------- -----------<br>-- ----- --- ---- -- --- ------ ---- - ---- -- ----------<br>-- ------ ---- --- ---- --- --- --- asked -- -------- ---<br>------ ------- -------- --- ---- -- ------- ------------ --<br>------ -- ---- -- --- ---- -- -------- -- --- ------ ------,245365.69999992847,245364.79999995232,244983.858,244998.09999990463,245000.498,245402.526,,28,asked
screen,html.Screen,2_3_1_0_1_29,2022-05-09T14:56:53.523Z,,,,,,,,,,,,,,,,,12,,,,,,,,,,,,,,282.2739999523037,,response,,,,5,F,,,,,,Space,keypress(Space),,,,lyrical,,,,---- ------ ------ ------- ------ --- ------- -----------<br>-- ----- --- ---- -- --- ------ ---- - ---- -- ----------<br>-- ------ ---- --- ---- --- --- --- ----- to -------- ---<br>------ ------- -------- --- ---- -- ------- ------------ --<br>------ -- ---- -- --- ---- -- -------- -- --- ------ ------,245685.69999992847,245684.79999995232,245350.512,245365.89999997616,245402.526,245700.705,,29,to
screen,html.Screen,2_3_1_0_1_30,2022-05-09T14:56:53.939Z,,,,,,,,,,,,,,,,,12,,,,,,,,,,,,,,400.19499997617095,,response,,,,5,F,,,,,,Space,keypress(Space),,,,lyrical,,,,---- ------ ------ ------- ------ --- ------- -----------<br>-- ----- --- ---- -- --- ------ ---- - ---- -- ----------<br>-- ------ ---- --- ---- --- --- --- ----- -- withdraw ---<br>------ ------- -------- --- ---- -- ------- ------------ --<br>------ -- ---- -- --- ---- -- -------- -- --- ------ ------,246102,246100.89999997616,245683.863,245685.89999997616,245700.705,246117.221,,30,withdraw
screen,html.Screen,2_3_1_0_1_31,2022-05-09T14:56:54.291Z,,,,,,,,,,,,,,,,,12,,,,,,,,,,,,,,335.77900000000955,,response,,,,5,F,,,,,,Space,keypress(Space),,,,lyrical,,,,---- ------ ------ ------- ------ --- ------- -----------<br>-- ----- --- ---- -- --- ------ ---- - ---- -- ----------<br>-- ------ ---- --- ---- --- --- --- ----- -- -------- his<br>------ ------- -------- --- ---- -- ------- ------------ --<br>------ -- ---- -- --- ---- -- -------- -- --- ------ ------,246454,246453,246100.539,246102.19999992847,246117.221,246467.245,,31,his
screen,html.Screen,2_3_1_0_1_32,2022-05-09T14:56:54.779Z,,,,,,,,,,,,,,,,,12,,,,,,,,,,,,,,473.75500000000466,,response,,,,5,F,,,,,,Space,keypress(Space),,,,lyrical,,,,---- ------ ------ ------- ------ --- ------- -----------<br>-- ----- --- ---- -- --- ------ ---- - ---- -- ----------<br>-- ------ ---- --- ---- --- --- --- ----- -- -------- ---<br>entire ------- -------- --- ---- -- ------- ------------ --<br>------ -- ---- -- --- ---- -- -------- -- --- ------ ------,246942.09999990463,246941,246450.678,246454.09999990463,246467.245,246950.62,,32,entire
screen,html.Screen,2_3_1_0_1_33,2022-05-09T14:56:55.107Z,,,,,,,,,,,,,,,,,12,,,,,,,,,,,,,,318.38000000000466,,response,,,,5,F,,,,,,Space,keypress(Space),,,,lyrical,,,,---- ------ ------ ------- ------ --- ------- -----------<br>-- ----- --- ---- -- --- ------ ---- - ---- -- ----------<br>-- ------ ---- --- ---- --- --- --- ----- -- -------- ---<br>------ account -------- --- ---- -- ------- ------------ --<br>------ -- ---- -- --- ---- -- -------- -- --- ------ ------,247269.89999997616,247269,246933.856,246942.29999995232,246950.62,247283.893,,33,account
screen,html.Screen,2_3_1_0_1_34,2022-05-09T14:56:55.907Z,,,,,,,,,,,,,,,,,12,,,,,,,,,,,,,,785.1069999999891,,response,,,,5,F,,,,,,Space,keypress(Space),,,,lyrical,,,,"---- ------ ------ ------- ------ --- ------- -----------<br>-- ----- --- ---- -- --- ------ ---- - ---- -- ----------<br>-- ------ ---- --- ---- --- --- --- ----- -- -------- ---<br>------ ------- balance, --- ---- -- ------- ------------ --<br>------ -- ---- -- --- ---- -- -------- -- --- ------ ------",248070,248069,247267.211,247270.19999992847,247283.893,248083.884,,34,"balance,"
screen,html.Screen,2_3_1_0_1_35,2022-05-09T14:56:56.395Z,,,,,,,,,,,,,,,,,12,,,,,,,,,,,,,,473.1160000000091,,response,,,,5,F,,,,,,Space,keypress(Space),,,,lyrical,,,,---- ------ ------ ------- ------ --- ------- -----------<br>-- ----- --- ---- -- --- ------ ---- - ---- -- ----------<br>-- ------ ---- --- ---- --- --- --- ----- -- -------- ---<br>------ ------- -------- but ---- -- ------- ------------ --<br>------ -- ---- -- --- ---- -- -------- -- --- ------ ------,248557.89999997616,248557,248067.184,248070.19999992847,248083.884,248567.364,,35,but
screen,html.Screen,2_3_1_0_1_36,2022-05-09T14:56:56.827Z,,,,,,,,,,,,,,,,,12,,,,,,,,,,,,,,421.6359999999986,,response,,,,5,F,,,,,,Space,keypress(Space),,,,lyrical,,,,---- ------ ------ ------- ------ --- ------- -----------<br>-- ----- --- ---- -- --- ------ ---- - ---- -- ----------<br>-- ------ ---- --- ---- --- --- --- ----- -- -------- ---<br>------ ------- -------- --- with -- ------- ------------ --<br>------ -- ---- -- --- ---- -- -------- -- --- ------ ------,248990,248989,248550.513,248558.09999990463,248567.364,249000.525,,36,with
screen,html.Screen,2_3_1_0_1_37,2022-05-09T14:56:57.187Z,,,,,,,,,,,,,,,,,12,,,,,,,,,,,,,,348.4750000000058,,response,,,,5,F,,,,,,Space,keypress(Space),,,,lyrical,,,,---- ------ ------ ------- ------ --- ------- -----------<br>-- ----- --- ---- -- --- ------ ---- - ---- -- ----------<br>-- ------ ---- --- ---- --- --- --- ----- -- -------- ---<br>------ ------- -------- --- ---- an ------- ------------ --<br>------ -- ---- -- --- ---- -- -------- -- --- ------ ------,249350,249349,248983.934,248990.19999992847,249000.525,249367.236,,37,an
screen,html.Screen,2_3_1_0_1_38,2022-05-09T14:56:57.603Z,,,,,,,,,,,,,,,,,12,,,,,,,,,,,,,,397.56399995231186,,response,,,,5,F,,,,,,Space,keypress(Space),,,,lyrical,,,,---- ------ ------ ------- ------ --- ------- -----------<br>-- ----- --- ---- -- --- ------ ---- - ---- -- ----------<br>-- ------ ---- --- ---- --- --- --- ----- -- -------- ---<br>------ ------- -------- --- ---- -- unusual ------------ --<br>------ -- ---- -- --- ---- -- -------- -- --- ------ ------,249765.79999995232,249764.79999995232,249350.54,249350.19999992847,249367.236,249783.909,,38,unusual
screen,html.Screen,2_3_1_0_1_39,2022-05-09T14:56:58.195Z,,,,,,,,,,,,,,,,,12,,,,,,,,,,,,,,573.0909999999858,,response,,,,5,F,,,,,,Space,keypress(Space),,,,lyrical,,,,---- ------ ------ ------- ------ --- ------- -----------<br>-- ----- --- ---- -- --- ------ ---- - ---- -- ----------<br>-- ------ ---- --- ---- --- --- --- ----- -- -------- ---<br>------ ------- -------- --- ---- -- ------- stipulation: --<br>------ -- ---- -- --- ---- -- -------- -- --- ------ ------,250358,250357,249750.525,249766,249783.909,250367.348,,39,stipulation:
screen,html.Screen,2_3_1_0_1_40,2022-05-09T14:56:58.587Z,,,,,,,,,,,,,,,,,12,,,,,,,,,,,,,,381.55199997616,,response,,,,5,F,,,,,,Space,keypress(Space),,,,lyrical,,,,---- ------ ------ ------- ------ --- ------- -----------<br>-- ----- --- ---- -- --- ------ ---- - ---- -- ----------<br>-- ------ ---- --- ---- --- --- --- ----- -- -------- ---<br>------ ------- -------- --- ---- -- ------- ------------ He<br>------ -- ---- -- --- ---- -- -------- -- --- ------ ------,250750,250748.89999997616,250350.734,250358.19999992847,250367.348,250767.22,,40,He
screen,html.Screen,2_3_1_0_1_41,2022-05-09T14:56:59.147Z,,,,,,,,,,,,,,,,,12,,,,,,,,,,,,,,541.7799999999988,,response,,,,5,F,,,,,,Space,keypress(Space),,,,lyrical,,,,---- ------ ------ ------- ------ --- ------- -----------<br>-- ----- --- ---- -- --- ------ ---- - ---- -- ----------<br>-- ------ ---- --- ---- --- --- --- ----- -- -------- ---<br>------ ------- -------- --- ---- -- ------- ------------ --<br>wanted -- ---- -- --- ---- -- -------- -- --- ------ ------,251309.89999997616,251309,250750.508,250750.19999992847,250767.22,251317.161,,41,wanted
screen,html.Screen,2_3_1_0_1_42,2022-05-09T14:56:59.515Z,,,,,,,,,,,,,,,,,12,,,,,,,,,,,,,,359.8390000000072,,response,,,,5,F,,,,,,Space,keypress(Space),,,,lyrical,,,,---- ------ ------ ------- ------ --- ------- -----------<br>-- ----- --- ---- -- --- ------ ---- - ---- -- ----------<br>-- ------ ---- --- ---- --- --- --- ----- -- -------- ---<br>------ ------- -------- --- ---- -- ------- ------------ --<br>------ as ---- -- --- ---- -- -------- -- --- ------ ------,251677.89999997616,251677,251300.537,251310.09999990463,251317.161,251683.829,,42,as
screen,html.Screen,2_3_1_0_1_43,2022-05-09T14:56:59.843Z,,,,,,,,,,,,,,,,,12,,,,,,,,,,,,,,320.9709999523184,,response,,,,5,F,,,,,,Space,keypress(Space),,,,lyrical,,,,---- ------ ------ ------- ------ --- ------- -----------<br>-- ----- --- ---- -- --- ------ ---- - ---- -- ----------<br>-- ------ ---- --- ---- --- --- --- ----- -- -------- ---<br>------ ------- -------- --- ---- -- ------- ------------ --<br>------ -- much -- --- ---- -- -------- -- --- ------ ------,252005.69999992847,252004.79999995232,251667.174,251678.19999992847,251683.829,252017.375,,43,much
