sender,sender_type,sender_id,timestamp,meta,,Blues,Classical,Country,Dance,Electronic,Folk,Gospel,Hip-Hop,Jazz,Latin,Musical/Film,New-age,Pop,Prolific_id,Provo_ID,R&B,Rap,Reggae,Religious,Rock,Soul,Swing,Traditional,age,artist_name,correct,correctResponse,distraction,duration,education,ended_on,familiarity,gender,headphone_check_performance,item,list,music_frequency,offensiveness,pleasantness,position_correct,preference,response,response_action,snippet_file,song_name,song_rating,sound,stimulus_1,stimulus_2,stimulus_3,text,time_commit,time_end,time_render,time_run,time_show,time_switch,url,word,word_ID
Prolific ID,html.Form,0,2022-04-28T09:45:52.821Z,"{""labjs_version"":""20.2.2"",""labjs_build"":{""flavor"":""production"",""commit"":""a25486e0c714a0ae2ce03ff94b7bb6896854dcfa""},""location"":""https://run.pavlovia.org/mvasilev/prolific3_music_d/"",""userAgent"":""Mozilla/5.0 (Macintosh; Intel Mac OS X 10.14; rv:99.0) Gecko/20100101 Firefox/99.0"",""platform"":""MacIntel"",""language"":""en-GB"",""locale"":""en-GB"",""timeZone"":""Europe/London"",""timezoneOffset"":-60,""screen_width"":1440,""screen_height"":900,""scroll_width"":1440,""scroll_height"":631,""window_innerWidth"":1440,""window_innerHeight"":679,""devicePixelRatio"":1}",,,,,,,,,,,,,,,5f28431d82be890d2f58a32d,,,,,,,,,,,,,,,15743.8,,form submission,,,,,,,,,,,,,,,,,,,,,26140,26138,10393.46,10393,10394.2,26132.66,{},,
Introduction,html.Screen,1_0,2022-04-28T09:45:57.032Z,,,,,,,,,,,,,,,,,,,,,,,,,,,,,,,4215.34,,response,,,,,,,,,,,continue,click button,,,,,,,,,30351,30348,26127.46,26141,26132.66,30349.94,,,
Volume calibration,html.Screen,1_1,2022-04-28T09:46:25.081Z,,,,,,,,,,,,,,,,,,,,,,,,,,,,,,,28047.06,,response,,,,,,,,,,,continue,click button,,,,,,,,,58400,58397,30349.14,30352,30349.94,58401.6,,,
Task instructions,html.Screen,1_2,2022-04-28T09:50:07.502Z,,,,,,,,,,,,,,,,,,,,,,,,,,,,,,,222415.4,,response,,,,,,,,,,,continue,click button,,,,,,,,,280822,280817,58399.26,58401,58401.6,280819.76,,,
Sounds,html.Screen,1_3_0_0,2022-04-28T09:50:11.734Z,,,,,,,,,,,,,,,,,,,,,,,,,,,,,,,4248.399999999965,,timeout,,,,,,,,,2,,,,,,,,O,S,I,,285053,285051.48,280819.06,280825,280819.76,285068.16,,,
Judgement,html.Screen,1_3_0_1,2022-04-28T09:50:14.401Z,,,,,,,,,,,,,,,,,,,,,,,,,,,,true,2,,2648.8400000000256,,response,,,,,,,,,2,,2,click #choice-2,,,,,O,S,I,,287720,287717,285051.48,285053,285068.16,287735.06,,,
Trial,flow.Sequence,1_3_0,2022-04-28T09:50:14.403Z,,,,,,,,,,,,,,,,,,,,,,,,,,,,,,,6897.239999999991,,completion,,,,,,,,,2,,,,,,,,O,S,I,,287722,287717,280819.06,280824,280819.76,287735.06,,,
Sounds,html.Screen,1_3_1_0,2022-04-28T09:50:18.651Z,,,,,,,,,,,,,,,,,,,,,,,,,,,,,,,4250.200000000012,,timeout,,,,,,,,,1,,,,,,,,S,O,I,,291970,291968.6,287719.08,287723,287735.06,291985.26,,,
Judgement,html.Screen,1_3_1_1,2022-04-28T09:50:19.292Z,,,,,,,,,,,,,,,,,,,,,,,,,,,,true,1,,622.7399999999907,,response,,,,,,,,,1,,1,click #choice-1,,,,,S,O,I,,292611,292608,291968.6,291970,291985.26,292618.64,,,
Trial,flow.Sequence,1_3_1,2022-04-28T09:50:19.293Z,,,,,,,,,,,,,,,,,,,,,,,,,,,,,,,4872.940000000002,,completion,,,,,,,,,1,,,,,,,,S,O,I,,292612,292608,287719.08,287723,287735.06,292618.64,,,
Sounds,html.Screen,1_3_2_0,2022-04-28T09:50:23.535Z,,,,,,,,,,,,,,,,,,,,,,,,,,,,,,,4250.380000000005,,timeout,,,,,,,,,2,,,,,,,,I,S,O,,296854,296852.36,292610.1,292613,292618.64,296869.02,,,
Judgement,html.Screen,1_3_2_1,2022-04-28T09:50:24.489Z,,,,,,,,,,,,,,,,,,,,,,,,,,,,true,2,,935.9799999999814,,response,,,,,,,,,2,,2,click #choice-2,,,,,I,S,O,,297808,297805,296852.36,296854,296869.02,297807.8,,,
Trial,flow.Sequence,1_3_2,2022-04-28T09:50:24.490Z,,,,,,,,,,,,,,,,,,,,,,,,,,,,,,,5186.359999999986,,completion,,,,,,,,,2,,,,,,,,I,S,O,,297809,297805,292610.1,292613,292618.64,297807.8,,,
Sounds,html.Screen,1_3_3_0,2022-04-28T09:50:28.717Z,,,,,,,,,,,,,,,,,,,,,,,,,,,,,,,4244.799999999988,,timeout,,,,,,,,,3,,,,,,,,O,I,S,,302036,302034.86,297807.08,297810,297807.8,302052.6,,,
Judgement,html.Screen,1_3_3_1,2022-04-28T09:50:29.782Z,,,,,,,,,,,,,,,,,,,,,,,,,,,,true,3,,1045.4000000000233,,response,,,,,,,,,3,,3,click #choice-3,,,,,O,I,S,,303101,303098,302034.86,302036,302052.6,303101.08,,,
Trial,flow.Sequence,1_3_3,2022-04-28T09:50:29.783Z,,,,,,,,,,,,,,,,,,,,,,,,,,,,,,,5290.200000000012,,completion,,,,,,,,,3,,,,,,,,O,I,S,,303102,303098,297807.08,297809,297807.8,303101.08,,,
Sounds,html.Screen,1_3_4_0,2022-04-28T09:50:34.017Z,,,,,,,,,,,,,,,,,,,,,,,,,,,,,,,4251.979999999981,,timeout,,,,,,,,,3,,,,,,,,I,O,S,,307336,307335.48,303100.36,303102,303101.08,307353.06,,,
Judgement,html.Screen,1_3_4_1,2022-04-28T09:50:36.209Z,,,,,,,,,,,,,,,,,,,,,,,,,,,,false,3,,2171.9400000000023,,response,,,,,,,,,3,,1,click #choice-1,,,,,I,O,S,,309528,309525,307335.48,307337,307353.06,309536.54,,,
Trial,flow.Sequence,1_3_4,2022-04-28T09:50:36.209Z,,,,,,,,,,,,,,,,,,,,,,,,,,,,,,,6423.919999999984,,completion,,,,,,,,,3,,,,,,,,I,O,S,,309528,309525,303100.36,303102,303101.08,309536.54,,,
Sounds,html.Screen,1_3_5_0,2022-04-28T09:50:40.452Z,,,,,,,,,,,,,,,,,,,,,,,,,,,,,,,4250.300000000047,,timeout,,,,,,,,,1,,,,,,,,S,I,O,,313771,313770.16,309527.28,309529,309536.54,313786.84,,,
Judgement,html.Screen,1_3_5_1,2022-04-28T09:50:41.597Z,,,,,,,,,,,,,,,,,,,,,,,,,,,,true,1,,1126.1599999999744,,response,,,,,,,,,1,,1,click #choice-1,,,,,S,I,O,,314916,314913,313770.16,313772,313786.84,314915.76,,,
Trial,flow.Sequence,1_3_5,2022-04-28T09:50:41.598Z,,,,,,,,,,,,,,,,,,,,,,,,,,,,,,,5376.460000000021,,completion,,,,,,,,,1,,,,,,,,S,I,O,,314917,314913,309527.28,309529,309536.54,314915.76,,,
Task,flow.Loop,1_3,2022-04-28T09:50:41.599Z,,,,,,,,,,,,,,,,,,,,,,,,,,,,,,,34093.23999999999,,completion,,,0.8333333333333334,,,,,,,,,,,,,,,,,,314917,314913,280819.06,280824,280819.76,314915.76,,,
Trap,html.Screen,1_4,2022-04-28T09:50:41.603Z,,,,,,,,,,,,,,,,,,,,,,,,,,,,,,,NaN,,skipped,,,,,,,,,,,,,,,,,,,,,314922,314913,,314922,,314915.76,,,
Thanks,html.Screen,1_5,2022-04-28T09:50:51.394Z,,,,,,,,,,,,,,,,,,,,,,,,,,,,,,,9795.23999999999,,response,,,,,,,,,,,continue,click button,,,,,,,,,324713,324711,314915.04,314922,314915.76,327404.14,,,
Headphone screening,flow.Sequence,1,2022-04-28T09:50:51.395Z,,,,,,,,,,,,,,,,,,,,,,,,,,,,,,,298578.34,,completion,,,,,,,,,,,,,,,,,,,,,324714,324711,26127.46,26141,26132.66,327404.14,,,
Instructions,html.Page,2_0,2022-04-28T09:59:36.024Z,,,,,,,,,,,,,,,,,,,,,,,,,,,,,,,521890.86,,form submission,,,,,,,,,,,,,,,,,,,,,849296,849295,327370.76,327369,327404.14,849287.98,,,
Holding screen,html.Screen,2_1_0_0,2022-04-28T09:59:46.004Z,,,,,,,,,,,,,,,,,,,,,,,,,,,,,,,10002.060000000056,,timeout,,,,,,,,,,,,,,,,,,,,,859276,859274.42,849287.3,849298,849287.98,859290.04,,,
screen,html.Screen,2_1_0_1_0,2022-04-28T09:59:47.568Z,,,,,,,,,,,,,,,,,53,,,,,,,,,,,,,,1541.9599999999627,,response,,,,99,,,,,,,Space,keypress(Space),,,,,,,,When -- ----- -- ------ - ------- --- ----------<br>------------- ------ ------ ---- ---- ------- ----- -- ----<br>-------- ------- -- ---------- --- - --- ----- ----- ----<br>---- --- --- ----- --- ---- ---- ------- ----- ---- -------<br>--- --- -- ----- -- --- ---- -- --- ---- -- ------ ------<br>--- ----- -- ----,860839,860832,859274.42,859277,859290.04,860840.84,,0,When
screen,html.Screen,2_1_0_1_1,2022-04-28T09:59:47.961Z,,,,,,,,,,,,,,,,,53,,,,,,,,,,,,,,385.1600000000326,,response,,,,99,,,,,,,Space,keypress(Space),,,,,,,,---- it ----- -- ------ - ------- --- ----------<br>------------- ------ ------ ---- ---- ------- ----- -- ----<br>-------- ------- -- ---------- --- - --- ----- ----- ----<br>---- --- --- ----- --- ---- ---- ------- ----- ---- -------<br>--- --- -- ----- -- --- ---- -- --- ---- -- ------ ------<br>--- ----- -- ----,861232,861226,860839.6,860839,860840.84,861233.7,,1,it
screen,html.Screen,2_1_0_1_2,2022-04-28T09:59:48.327Z,,,,,,,,,,,,,,,,,53,,,,,,,,,,,,,,359.30000000004657,,response,,,,99,,,,,,,Space,keypress(Space),,,,,,,,---- -- comes -- ------ - ------- --- ----------<br>------------- ------ ------ ---- ---- ------- ----- -- ----<br>-------- ------- -- ---------- --- - --- ----- ----- ----<br>---- --- --- ----- --- ---- ---- ------- ----- ---- -------<br>--- --- -- ----- -- --- ---- -- --- ---- -- ------ ------<br>--- ----- -- ----,861598,861593,861232.38,861232,861233.7,861600.48,,2,comes
screen,html.Screen,2_1_0_1_3,2022-04-28T09:59:48.680Z,,,,,,,,,,,,,,,,,53,,,,,,,,,,,,,,346.5200000000186,,response,,,,99,,,,,,,Space,keypress(Space),,,,,,,,---- -- ----- to ------ - ------- --- ----------<br>------------- ------ ------ ---- ---- ------- ----- -- ----<br>-------- ------- -- ---------- --- - --- ----- ----- ----<br>---- --- --- ----- --- ---- ---- ------- ----- ---- -------<br>--- --- -- ----- -- --- ---- -- --- ---- -- ------ ------<br>--- ----- -- ----,861952,861947,861599.12,861599,861600.48,861953.54,,3,to
screen,html.Screen,2_1_0_1_4,2022-04-28T09:59:49.072Z,,,,,,,,,,,,,,,,,53,,,,,,,,,,,,,,384.45999999996275,,response,,,,99,,,,,,,Space,keypress(Space),,,,,,,,---- -- ----- -- having - ------- --- ----------<br>------------- ------ ------ ---- ---- ------- ----- -- ----<br>-------- ------- -- ---------- --- - --- ----- ----- ----<br>---- --- --- ----- --- ---- ---- ------- ----- ---- -------<br>--- --- -- ----- -- --- ---- -- --- ---- -- ------ ------<br>--- ----- -- ----,862343,862338,861952.32,861952,861953.54,862345.3,,4,having
screen,html.Screen,2_1_0_1_5,2022-04-28T09:59:49.443Z,,,,,,,,,,,,,,,,,53,,,,,,,,,,,,,,363.69999999995343,,response,,,,99,,,,,,,Space,keypress(Space),,,,,,,,---- -- ----- -- ------ a ------- --- ----------<br>------------- ------ ------ ---- ---- ------- ----- -- ----<br>-------- ------- -- ---------- --- - --- ----- ----- ----<br>---- --- --- ----- --- ---- ---- ------- ----- ---- -------<br>--- --- -- ----- -- --- ---- -- --- ---- -- ------ ------<br>--- ----- -- ----,862715,862709,862344.08,862344,862345.3,862716.62,,5,a
screen,html.Screen,2_1_0_1_6,2022-04-28T09:59:49.786Z,,,,,,,,,,,,,,,,,53,,,,,,,,,,,,,,337.38000000000466,,response,,,,99,,,,,,,Space,keypress(Space),,,,,,,,---- -- ----- -- ------ - lasting --- ----------<br>------------- ------ ------ ---- ---- ------- ----- -- ----<br>-------- ------- -- ---------- --- - --- ----- ----- ----<br>---- --- --- ----- --- ---- ---- ------- ----- ---- -------<br>--- --- -- ----- -- --- ---- -- --- ---- -- ------ ------<br>--- ----- -- ----,863058,863054,862715.24,862715,862716.62,863059.78,,6,lasting
screen,html.Screen,2_1_0_1_7,2022-04-28T09:59:50.172Z,,,,,,,,,,,,,,,,,53,,,,,,,,,,,,,,379.21999999997206,,response,,,,99,,,,,,,Space,keypress(Space),,,,,,,,---- -- ----- -- ------ - ------- and ----------<br>------------- ------ ------ ---- ---- ------- ----- -- ----<br>-------- ------- -- ---------- --- - --- ----- ----- ----<br>---- --- --- ----- --- ---- ---- ------- ----- ---- -------<br>--- --- -- ----- -- --- ---- -- --- ---- -- ------ ------<br>--- ----- -- ----,863443,863439,863058.58,863059,863059.78,863444.66,,7,and
screen,html.Screen,2_1_0_1_8,2022-04-28T09:59:50.622Z,,,,,,,,,,,,,,,,,53,,,,,,,,,,,,,,444.3399999999674,,response,,,,99,,,,,,,Space,keypress(Space),,,,,,,,---- -- ----- -- ------ - ------- --- fulfilling<br>------------- ------ ------ ---- ---- ------- ----- -- ----<br>-------- ------- -- ---------- --- - --- ----- ----- ----<br>---- --- --- ----- --- ---- ---- ------- ----- ---- -------<br>--- --- -- ----- -- --- ---- -- --- ---- -- ------ ------<br>--- ----- -- ----,863893,863889,863443.46,863443,863444.66,863895.94,,8,fulfilling
screen,html.Screen,2_1_0_1_9,2022-04-28T09:59:51.035Z,,,,,,,,,,,,,,,,,53,,,,,,,,,,,,,,406.0600000000559,,response,,,,99,,,,,,,Space,keypress(Space),,,,,,,,"---- -- ----- -- ------ - ------- --- ----------<br>relationship, ------ ------ ---- ---- ------- ----- -- ----<br>-------- ------- -- ---------- --- - --- ----- ----- ----<br>---- --- --- ----- --- ---- ---- ------- ----- ---- -------<br>--- --- -- ----- -- --- ---- -- --- ---- -- ------ ------<br>--- ----- -- ----",864307,864302,863894.06,863894,863895.94,864308.36,,9,"relationship,"
screen,html.Screen,2_1_0_1_10,2022-04-28T09:59:51.527Z,,,,,,,,,,,,,,,,,53,,,,,,,,,,,,,,485.64000000001397,,response,,,,99,,,,,,,Space,keypress(Space),,,,,,,,---- -- ----- -- ------ - ------- --- ----------<br>------------- common ------ ---- ---- ------- ----- -- ----<br>-------- ------- -- ---------- --- - --- ----- ----- ----<br>---- --- --- ----- --- ---- ---- ------- ----- ---- -------<br>--- --- -- ----- -- --- ---- -- --- ---- -- ------ ------<br>--- ----- -- ----,864798,864794,864307.1,864307,864308.36,864800.42,,10,common
screen,html.Screen,2_1_0_1_11,2022-04-28T09:59:51.886Z,,,,,,,,,,,,,,,,,53,,,,,,,,,,,,,,352.5799999999581,,response,,,,99,,,,,,,Space,keypress(Space),,,,,,,,---- -- ----- -- ------ - ------- --- ----------<br>------------- ------ wisdom ---- ---- ------- ----- -- ----<br>-------- ------- -- ---------- --- - --- ----- ----- ----<br>---- --- --- ----- --- ---- ---- ------- ----- ---- -------<br>--- --- -- ----- -- --- ---- -- --- ---- -- ------ ------<br>--- ----- -- ----,865157,865153,864798.92,864799,864800.42,865158.8,,11,wisdom
screen,html.Screen,2_1_0_1_12,2022-04-28T09:59:52.250Z,,,,,,,,,,,,,,,,,53,,,,,,,,,,,,,,358.19999999995343,,response,,,,99,,,,,,,Space,keypress(Space),,,,,,,,---- -- ----- -- ------ - ------- --- ----------<br>------------- ------ ------ says ---- ------- ----- -- ----<br>-------- ------- -- ---------- --- - --- ----- ----- ----<br>---- --- --- ----- --- ---- ---- ------- ----- ---- -------<br>--- --- -- ----- -- --- ---- -- --- ---- -- ------ ------<br>--- ----- -- ----,865522,865517,865157.46,865157,865158.8,865522.82,,12,says
screen,html.Screen,2_1_0_1_13,2022-04-28T09:59:52.556Z,,,,,,,,,,,,,,,,,53,,,,,,,,,,,,,,300.1800000000512,,response,,,,99,,,,,,,Space,keypress(Space),,,,,,,,---- -- ----- -- ------ - ------- --- ----------<br>------------- ------ ------ ---- that ------- ----- -- ----<br>-------- ------- -- ---------- --- - --- ----- ----- ----<br>---- --- --- ----- --- ---- ---- ------- ----- ---- -------<br>--- --- -- ----- -- --- ---- -- --- ---- -- ------ ------<br>--- ----- -- ----,865827,865823,865521.64,865522,865522.82,865828.6,,13,that
screen,html.Screen,2_1_0_1_14,2022-04-28T09:59:52.838Z,,,,,,,,,,,,,,,,,53,,,,,,,,,,,,,,276.4000000000233,,response,,,,99,,,,,,,Space,keypress(Space),,,,,,,,---- -- ----- -- ------ - ------- --- ----------<br>------------- ------ ------ ---- ---- feeling ----- -- ----<br>-------- ------- -- ---------- --- - --- ----- ----- ----<br>---- --- --- ----- --- ---- ---- ------- ----- ---- -------<br>--- --- -- ----- -- --- ---- -- --- ---- -- ------ ------<br>--- ----- -- ----,866109,866105,865827.42,865827,865828.6,866110.58,,14,feeling
screen,html.Screen,2_1_0_1_15,2022-04-28T09:59:53.140Z,,,,,,,,,,,,,,,,,53,,,,,,,,,,,,,,297.4200000000419,,response,,,,99,,,,,,,Space,keypress(Space),,,,,,,,---- -- ----- -- ------ - ------- --- ----------<br>------------- ------ ------ ---- ---- ------- close -- ----<br>-------- ------- -- ---------- --- - --- ----- ----- ----<br>---- --- --- ----- --- ---- ---- ------- ----- ---- -------<br>--- --- -- ----- -- --- ---- -- --- ---- -- ------ ------<br>--- ----- -- ----,866412,866408,866109.32,866110,866110.58,866413.68,,15,close
screen,html.Screen,2_1_0_1_16,2022-04-28T09:59:53.464Z,,,,,,,,,,,,,,,,,53,,,,,,,,,,,,,,317.3199999999488,,response,,,,99,,,,,,,Space,keypress(Space),,,,,,,,---- -- ----- -- ------ - ------- --- ----------<br>------------- ------ ------ ---- ---- ------- ----- to ----<br>-------- ------- -- ---------- --- - --- ----- ----- ----<br>---- --- --- ----- --- ---- ---- ------- ----- ---- -------<br>--- --- -- ----- -- --- ---- -- --- ---- -- ------ ------<br>--- ----- -- ----,866735,866731,866412.1,866412,866413.68,866737,,16,to
screen,html.Screen,2_1_0_1_17,2022-04-28T09:59:53.773Z,,,,,,,,,,,,,,,,,53,,,,,,,,,,,,,,303,,response,,,,99,,,,,,,Space,keypress(Space),,,,,,,,---- -- ----- -- ------ - ------- --- ----------<br>------------- ------ ------ ---- ---- ------- ----- -- your<br>-------- ------- -- ---------- --- - --- ----- ----- ----<br>---- --- --- ----- --- ---- ---- ------- ----- ---- -------<br>--- --- -- ----- -- --- ---- -- --- ---- -- ------ ------<br>--- ----- -- ----,867045,867040,866735.82,866735,866737,867046.6,,17,your
screen,html.Screen,2_1_0_1_18,2022-04-28T09:59:54.241Z,,,,,,,,,,,,,,,,,53,,,,,,,,,,,,,,460.4000000000233,,response,,,,99,,,,,,,Space,keypress(Space),,,,,,,,---- -- ----- -- ------ - ------- --- ----------<br>------------- ------ ------ ---- ---- ------- ----- -- ----<br>romantic ------- -- ---------- --- - --- ----- ----- ----<br>---- --- --- ----- --- ---- ---- ------- ----- ---- -------<br>--- --- -- ----- -- --- ---- -- --- ---- -- ------ ------<br>--- ----- -- ----,867512,867507,867045.42,867045,867046.6,867513.74,,18,romantic
screen,html.Screen,2_1_0_1_19,2022-04-28T09:59:54.453Z,,,,,,,,,,,,,,,,,53,,,,,,,,,,,,,,206.2600000000093,,response,,,,99,,,,,,,Space,keypress(Space),,,,,,,,---- -- ----- -- ------ - ------- --- ----------<br>------------- ------ ------ ---- ---- ------- ----- -- ----<br>-------- partner -- ---------- --- - --- ----- ----- ----<br>---- --- --- ----- --- ---- ---- ------- ----- ---- -------<br>--- --- -- ----- -- --- ---- -- --- ---- -- ------ ------<br>--- ----- -- ----,867724,867720,867512.56,867512,867513.74,867724.36,,19,partner
screen,html.Screen,2_1_0_1_20,2022-04-28T09:59:54.747Z,,,,,,,,,,,,,,,,,53,,,,,,,,,,,,,,289.64000000001397,,response,,,,99,,,,,,,Space,keypress(Space),,,,,,,,---- -- ----- -- ------ - ------- --- ----------<br>------------- ------ ------ ---- ---- ------- ----- -- ----<br>-------- ------- is ---------- --- - --- ----- ----- ----<br>---- --- --- ----- --- ---- ---- ------- ----- ---- -------<br>--- --- -- ----- -- --- ---- -- --- ---- -- ------ ------<br>--- ----- -- ----,868018,868014,867723.94,867724,867724.36,868020.26,,20,is
screen,html.Screen,2_1_0_1_21,2022-04-28T09:59:55.021Z,,,,,,,,,,,,,,,,,53,,,,,,,,,,,,,,267.7399999999907,,response,,,,99,,,,,,,Space,keypress(Space),,,,,,,,---- -- ----- -- ------ - ------- --- ----------<br>------------- ------ ------ ---- ---- ------- ----- -- ----<br>-------- ------- -- paramount. --- - --- ----- ----- ----<br>---- --- --- ----- --- ---- ---- ------- ----- ---- -------<br>--- --- -- ----- -- --- ---- -- --- ---- -- ------ ------<br>--- ----- -- ----,868292,868288,868019.08,868019,868020.26,868293.38,,21,paramount.
screen,html.Screen,2_1_0_1_22,2022-04-28T09:59:55.447Z,,,,,,,,,,,,,,,,,53,,,,,,,,,,,,,,420.61999999999534,,response,,,,99,,,,,,,Space,keypress(Space),,,,,,,,---- -- ----- -- ------ - ------- --- ----------<br>------------- ------ ------ ---- ---- ------- ----- -- ----<br>-------- ------- -- ---------- But - --- ----- ----- ----<br>---- --- --- ----- --- ---- ---- ------- ----- ---- -------<br>--- --- -- ----- -- --- ---- -- --- ---- -- ------ ------<br>--- ----- -- ----,868718,868714,868292.2,868292,868293.38,868720.08,,22,But
screen,html.Screen,2_1_0_1_23,2022-04-28T09:59:55.870Z,,,,,,,,,,,,,,,,,53,,,,,,,,,,,,,,417.9200000000419,,response,,,,99,,,,,,,Space,keypress(Space),,,,,,,,---- -- ----- -- ------ - ------- --- ----------<br>------------- ------ ------ ---- ---- ------- ----- -- ----<br>-------- ------- -- ---------- --- a --- ----- ----- ----<br>---- --- --- ----- --- ---- ---- ------- ----- ---- -------<br>--- --- -- ----- -- --- ---- -- --- ---- -- ------ ------<br>--- ----- -- ----,869141,869138,868718.82,868719,868720.08,869143.7,,23,a
screen,html.Screen,2_1_0_1_24,2022-04-28T09:59:56.119Z,,,,,,,,,,,,,,,,,53,,,,,,,,,,,,,,241.30000000004657,,response,,,,99,,,,,,,Space,keypress(Space),,,,,,,,---- -- ----- -- ------ - ------- --- ----------<br>------------- ------ ------ ---- ---- ------- ----- -- ----<br>-------- ------- -- ---------- --- - new ----- ----- ----<br>---- --- --- ----- --- ---- ---- ------- ----- ---- -------<br>--- --- -- ----- -- --- ---- -- --- ---- -- ------ ------<br>--- ----- -- ----,869390,869385,869142.26,869142,869143.7,869391.86,,24,new
screen,html.Screen,2_1_0_1_25,2022-04-28T09:59:56.384Z,,,,,,,,,,,,,,,,,53,,,,,,,,,,,,,,259.14000000001397,,response,,,,99,,,,,,,Space,keypress(Space),,,,,,,,---- -- ----- -- ------ - ------- --- ----------<br>------------- ------ ------ ---- ---- ------- ----- -- ----<br>-------- ------- -- ---------- --- - --- study ----- ----<br>---- --- --- ----- --- ---- ---- ------- ----- ---- -------<br>--- --- -- ----- -- --- ---- -- --- ---- -- ------ ------<br>--- ----- -- ----,869655,869651,869390.56,869390,869391.86,869656.8,,25,study
screen,html.Screen,2_1_0_1_26,2022-04-28T09:59:56.683Z,,,,,,,,,,,,,,,,,53,,,,,,,,,,,,,,292.19999999995343,,response,,,,99,,,,,,,Space,keypress(Space),,,,,,,,---- -- ----- -- ------ - ------- --- ----------<br>------------- ------ ------ ---- ---- ------- ----- -- ----<br>-------- ------- -- ---------- --- - --- ----- finds ----<br>---- --- --- ----- --- ---- ---- ------- ----- ---- -------<br>--- --- -- ----- -- --- ---- -- --- ---- -- ------ ------<br>--- ----- -- ----,869954,869949,869655.54,869656,869656.8,869955.72,,26,finds
screen,html.Screen,2_1_0_1_27,2022-04-28T09:59:57.005Z,,,,,,,,,,,,,,,,,53,,,,,,,,,,,,,,315.28000000002794,,response,,,,99,,,,,,,Space,keypress(Space),,,,,,,,---- -- ----- -- ------ - ------- --- ----------<br>------------- ------ ------ ---- ---- ------- ----- -- ----<br>-------- ------- -- ---------- --- - --- ----- ----- that<br>---- --- --- ----- --- ---- ---- ------- ----- ---- -------<br>--- --- -- ----- -- --- ---- -- --- ---- -- ------ ------<br>--- ----- -- ----,870275,870271,869954.52,869954,869955.72,870277.4,,27,that
screen,html.Screen,2_1_0_1_28,2022-04-28T09:59:57.345Z,,,,,,,,,,,,,,,,,53,,,,,,,,,,,,,,333.5999999999767,,response,,,,99,,,,,,,Space,keypress(Space),,,,,,,,---- -- ----- -- ------ - ------- --- ----------<br>------------- ------ ------ ---- ---- ------- ----- -- ----<br>-------- ------- -- ---------- --- - --- ----- ----- ----<br>it's --- --- ----- --- ---- ---- ------- ----- ---- -------<br>--- --- -- ----- -- --- ---- -- --- ---- -- ------ ------<br>--- ----- -- ----,870616,870611,870276.04,870276,870277.4,870617.42,,28,it's
screen,html.Screen,2_1_0_1_29,2022-04-28T09:59:57.560Z,,,,,,,,,,,,,,,,,53,,,,,,,,,,,,,,208.5799999999581,,response,,,,99,,,,,,,Space,keypress(Space),,,,,,,,---- -- ----- -- ------ - ------- --- ----------<br>------------- ------ ------ ---- ---- ------- ----- -- ----<br>-------- ------- -- ---------- --- - --- ----- ----- ----<br>---- not --- ----- --- ---- ---- ------- ----- ---- -------<br>--- --- -- ----- -- --- ---- -- --- ---- -- ------ ------<br>--- ----- -- ----,870831,870826,870616.18,870616,870617.42,870841.86,,29,not
screen,html.Screen,2_1_0_1_30,2022-04-28T09:59:57.786Z,,,,,,,,,,,,,,,,,53,,,,,,,,,,,,,,211.14000000001397,,response,,,,99,,,,,,,Space,keypress(Space),,,,,,,,---- -- ----- -- ------ - ------- --- ----------<br>------------- ------ ------ ---- ---- ------- ----- -- ----<br>-------- ------- -- ---------- --- - --- ----- ----- ----<br>---- --- how ----- --- ---- ---- ------- ----- ---- -------<br>--- --- -- ----- -- --- ---- -- --- ---- -- ------ ------<br>--- ----- -- ----,871057,871053,870831.34,870831,870841.86,871059.06,,30,how
screen,html.Screen,2_1_0_1_31,2022-04-28T09:59:58.020Z,,,,,,,,,,,,,,,,,53,,,,,,,,,,,,,,226.93999999994412,,response,,,,99,,,,,,,Space,keypress(Space),,,,,,,,---- -- ----- -- ------ - ------- --- ----------<br>------------- ------ ------ ---- ---- ------- ----- -- ----<br>-------- ------- -- ---------- --- - --- ----- ----- ----<br>---- --- --- close --- ---- ---- ------- ----- ---- -------<br>--- --- -- ----- -- --- ---- -- --- ---- -- ------ ------<br>--- ----- -- ----,871290,871286,871057.88,871057,871059.06,871292.34,,31,close
screen,html.Screen,2_1_0_1_32,2022-04-28T09:59:58.231Z,,,,,,,,,,,,,,,,,53,,,,,,,,,,,,,,203.6600000000326,,response,,,,99,,,,,,,Space,keypress(Space),,,,,,,,---- -- ----- -- ------ - ------- --- ----------<br>------------- ------ ------ ---- ---- ------- ----- -- ----<br>-------- ------- -- ---------- --- - --- ----- ----- ----<br>---- --- --- ----- you ---- ---- ------- ----- ---- -------<br>--- --- -- ----- -- --- ---- -- --- ---- -- ------ ------<br>--- ----- -- ----,871501,871496,871291.16,871291,871292.34,871508.58,,32,you
screen,html.Screen,2_1_0_1_33,2022-04-28T09:59:58.454Z,,,,,,,,,,,,,,,,,53,,,,,,,,,,,,,,211.4200000000419,,response,,,,99,,,,,,,Space,keypress(Space),,,,,,,,---- -- ----- -- ------ - ------- --- ----------<br>------------- ------ ------ ---- ---- ------- ----- -- ----<br>-------- ------- -- ---------- --- - --- ----- ----- ----<br>---- --- --- ----- --- feel ---- ------- ----- ---- -------<br>--- --- -- ----- -- --- ---- -- --- ---- -- ------ ------<br>--- ----- -- ----,871725,871720,871502.04,871502,871508.58,871726.52,,33,feel
screen,html.Screen,2_1_0_1_34,2022-04-28T09:59:58.651Z,,,,,,,,,,,,,,,,,53,,,,,,,,,,,,,,191.47999999998137,,response,,,,99,,,,,,,Space,keypress(Space),,,,,,,,---- -- ----- -- ------ - ------- --- ----------<br>------------- ------ ------ ---- ---- ------- ----- -- ----<br>-------- ------- -- ---------- --- - --- ----- ----- ----<br>---- --- --- ----- --- ---- that ------- ----- ---- -------<br>--- --- -- ----- -- --- ---- -- --- ---- -- ------ ------<br>--- ----- -- ----,871923,871918,871725.22,871725,871726.52,871924.44,,34,that
screen,html.Screen,2_1_0_1_35,2022-04-28T09:59:58.874Z,,,,,,,,,,,,,,,,,53,,,,,,,,,,,,,,215.56000000005588,,response,,,,99,,,,,,,Space,keypress(Space),,,,,,,,---- -- ----- -- ------ - ------- --- ----------<br>------------- ------ ------ ---- ---- ------- ----- -- ----<br>-------- ------- -- ---------- --- - --- ----- ----- ----<br>---- --- --- ----- --- ---- ---- matters ----- ---- -------<br>--- --- -- ----- -- --- ---- -- --- ---- -- ------ ------<br>--- ----- -- ----,872144,872140,871922.68,871923,871924.44,872146.24,,35,matters
screen,html.Screen,2_1_0_1_36,2022-04-28T09:59:59.080Z,,,,,,,,,,,,,,,,,53,,,,,,,,,,,,,,200.7600000000093,,response,,,,99,,,,,,,Space,keypress(Space),,,,,,,,"---- -- ----- -- ------ - ------- --- ----------<br>------------- ------ ------ ---- ---- ------- ----- -- ----<br>-------- ------- -- ---------- --- - --- ----- ----- ----<br>---- --- --- ----- --- ---- ---- ------- most, ---- -------<br>--- --- -- ----- -- --- ---- -- --- ---- -- ------ ------<br>--- ----- -- ----",872351,872347,872145.06,872145,872146.24,872358.74,,36,"most,"
screen,html.Screen,2_1_0_1_37,2022-04-28T09:59:59.266Z,,,,,,,,,,,,,,,,,53,,,,,,,,,,,,,,174.2600000000093,,response,,,,99,,,,,,,Space,keypress(Space),,,,,,,,---- -- ----- -- ------ - ------- --- ----------<br>------------- ------ ------ ---- ---- ------- ----- -- ----<br>-------- ------- -- ---------- --- - --- ----- ----- ----<br>---- --- --- ----- --- ---- ---- ------- ----- it's -------<br>--- --- -- ----- -- --- ---- -- --- ---- -- ------ ------<br>--- ----- -- ----,872537,872533,872351.06,872351,872358.74,872541.72,,37,it's
screen,html.Screen,2_1_0_1_38,2022-04-28T09:59:59.531Z,,,,,,,,,,,,,,,,,53,,,,,,,,,,,,,,256.28000000002794,,response,,,,99,,,,,,,Space,keypress(Space),,,,,,,,---- -- ----- -- ------ - ------- --- ----------<br>------------- ------ ------ ---- ---- ------- ----- -- ----<br>-------- ------- -- ---------- --- - --- ----- ----- ----<br>---- --- --- ----- --- ---- ---- ------- ----- ---- whether<br>--- --- -- ----- -- --- ---- -- --- ---- -- ------ ------<br>--- ----- -- ----,872802,872798,872538.12,872538,872541.72,872803.52,,38,whether
screen,html.Screen,2_1_0_1_39,2022-04-28T09:59:59.738Z,,,,,,,,,,,,,,,,,53,,,,,,,,,,,,,,200.47999999998137,,response,,,,99,,,,,,,Space,keypress(Space),,,,,,,,---- -- ----- -- ------ - ------- --- ----------<br>------------- ------ ------ ---- ---- ------- ----- -- ----<br>-------- ------- -- ---------- --- - --- ----- ----- ----<br>---- --- --- ----- --- ---- ---- ------- ----- ---- -------<br>you --- -- ----- -- --- ---- -- --- ---- -- ------ ------<br>--- ----- -- ----,873009,873004,872802.32,872803,872803.52,873025.44,,39,you
screen,html.Screen,2_1_0_1_40,2022-04-28T09:59:59.969Z,,,,,,,,,,,,,,,,,53,,,,,,,,,,,,,,210.56000000005588,,response,,,,99,,,,,,,Space,keypress(Space),,,,,,,,---- -- ----- -- ------ - ------- --- ----------<br>------------- ------ ------ ---- ---- ------- ----- -- ----<br>-------- ------- -- ---------- --- - --- ----- ----- ----<br>---- --- --- ----- --- ---- ---- ------- ----- ---- -------<br>--- are -- ----- -- --- ---- -- --- ---- -- ------ ------<br>--- ----- -- ----,873240,873236,873009.2,873009,873025.44,873242.12,,40,are
screen,html.Screen,2_1_0_1_41,2022-04-28T10:00:00.184Z,,,,,,,,,,,,,,,,,53,,,,,,,,,,,,,,208.88000000000466,,response,,,,99,,,,,,,Space,keypress(Space),,,,,,,,---- -- ----- -- ------ - ------- --- ----------<br>------------- ------ ------ ---- ---- ------- ----- -- ----<br>-------- ------- -- ---------- --- - --- ----- ----- ----<br>---- --- --- ----- --- ---- ---- ------- ----- ---- -------<br>--- --- as ----- -- --- ---- -- --- ---- -- ------ ------<br>--- ----- -- ----,873456,873451,873240.96,873241,873242.12,873458.06,,41,as
screen,html.Screen,2_1_0_1_42,2022-04-28T10:00:00.403Z,,,,,,,,,,,,,,,,,53,,,,,,,,,,,,,,211.93999999994412,,response,,,,99,,,,,,,Space,keypress(Space),,,,,,,,---- -- ----- -- ------ - ------- --- ----------<br>------------- ------ ------ ---- ---- ------- ----- -- ----<br>-------- ------- -- ---------- --- - --- ----- ----- ----<br>---- --- --- ----- --- ---- ---- ------- ----- ---- -------<br>--- --- -- close -- --- ---- -- --- ---- -- ------ ------<br>--- ----- -- ----,873674,873670,873456.2,873457,873458.06,873675.98,,42,close
screen,html.Screen,2_1_0_1_43,2022-04-28T10:00:00.626Z,,,,,,,,,,,,,,,,,53,,,,,,,,,,,,,,217.02000000001863,,response,,,,99,,,,,,,Space,keypress(Space),,,,,,,,---- -- ----- -- ------ - ------- --- ----------<br>------------- ------ ------ ---- ---- ------- ----- -- ----<br>-------- ------- -- ---------- --- - --- ----- ----- ----<br>---- --- --- ----- --- ---- ---- ------- ----- ---- -------<br>--- --- -- ----- as --- ---- -- --- ---- -- ------ ------<br>--- ----- -- ----,873897,873893,873674.8,873675,873675.98,873898.64,,43,as
screen,html.Screen,2_1_0_1_44,2022-04-28T10:00:00.869Z,,,,,,,,,,,,,,,,,53,,,,,,,,,,,,,,237.35999999998603,,response,,,,99,,,,,,,Space,keypress(Space),,,,,,,,---- -- ----- -- ------ - ------- --- ----------<br>------------- ------ ------ ---- ---- ------- ----- -- ----<br>-------- ------- -- ---------- --- - --- ----- ----- ----<br>---- --- --- ----- --- ---- ---- ------- ----- ---- -------<br>--- --- -- ----- -- you ---- -- --- ---- -- ------ ------<br>--- ----- -- ----,874140,874136,873897.46,873897,873898.64,874141.62,,44,you
screen,html.Screen,2_1_0_1_45,2022-04-28T10:00:01.080Z,,,,,,,,,,,,,,,,,53,,,,,,,,,,,,,,204.38000000000466,,response,,,,99,,,,,,,Space,keypress(Space),,,,,,,,---- -- ----- -- ------ - ------- --- ----------<br>------------- ------ ------ ---- ---- ------- ----- -- ----<br>-------- ------- -- ---------- --- - --- ----- ----- ----<br>---- --- --- ----- --- ---- ---- ------- ----- ---- -------<br>--- --- -- ----- -- --- want -- --- ---- -- ------ ------<br>--- ----- -- ----,874351,874346,874140.44,874140,874141.62,874358.86,,45,want
screen,html.Screen,2_1_0_1_46,2022-04-28T10:00:01.281Z,,,,,,,,,,,,,,,,,53,,,,,,,,,,,,,,188.14000000001397,,response,,,,99,,,,,,,Space,keypress(Space),,,,,,,,---- -- ----- -- ------ - ------- --- ----------<br>------------- ------ ------ ---- ---- ------- ----- -- ----<br>-------- ------- -- ---------- --- - --- ----- ----- ----<br>---- --- --- ----- --- ---- ---- ------- ----- ---- -------<br>--- --- -- ----- -- --- ---- to --- ---- -- ------ ------<br>--- ----- -- ----,874552,874547,874351.34,874351,874358.86,874558,,46,to
screen,html.Screen,2_1_0_1_47,2022-04-28T10:00:01.488Z,,,,,,,,,,,,,,,,,53,,,,,,,,,,,,,,197,,response,,,,99,,,,,,,Space,keypress(Space),,,,,,,,"---- -- ----- -- ------ - ------- --- ----------<br>------------- ------ ------ ---- ---- ------- ----- -- ----<br>-------- ------- -- ---------- --- - --- ----- ----- ----<br>---- --- --- ----- --- ---- ---- ------- ----- ---- -------<br>--- --- -- ----- -- --- ---- -- be, ---- -- ------ ------<br>--- ----- -- ----",874759,874755,874551.98,874552,874558,874760.32,,47,"be,"
screen,html.Screen,2_1_0_1_48,2022-04-28T10:00:01.711Z,,,,,,,,,,,,,,,,,53,,,,,,,,,,,,,,216.68000000005122,,response,,,,99,,,,,,,Space,keypress(Space),,,,,,,,---- -- ----- -- ------ - ------- --- ----------<br>------------- ------ ------ ---- ---- ------- ----- -- ----<br>-------- ------- -- ---------- --- - --- ----- ----- ----<br>---- --- --- ----- --- ---- ---- ------- ----- ---- -------<br>--- --- -- ----- -- --- ---- -- --- even -- ------ ------<br>--- ----- -- ----,874982,874977,874759.14,874759,874760.32,874983.34,,48,even
screen,html.Screen,2_1_0_1_49,2022-04-28T10:00:01.927Z,,,,,,,,,,,,,,,,,53,,,,,,,,,,,,,,209.6600000000326,,response,,,,99,,,,,,,Space,keypress(Space),,,,,,,,---- -- ----- -- ------ - ------- --- ----------<br>------------- ------ ------ ---- ---- ------- ----- -- ----<br>-------- ------- -- ---------- --- - --- ----- ----- ----<br>---- --- --- ----- --- ---- ---- ------- ----- ---- -------<br>--- --- -- ----- -- --- ---- -- --- ---- if ------ ------<br>--- ----- -- ----,875198,875193,874982.12,874982,874983.34,875208.92,,49,if
screen,html.Screen,2_1_0_1_50,2022-04-28T10:00:02.153Z,,,,,,,,,,,,,,,,,53,,,,,,,,,,,,,,211.0799999999581,,response,,,,99,,,,,,,Space,keypress(Space),,,,,,,,---- -- ----- -- ------ - ------- --- ----------<br>------------- ------ ------ ---- ---- ------- ----- -- ----<br>-------- ------- -- ---------- --- - --- ----- ----- ----<br>---- --- --- ----- --- ---- ---- ------- ----- ---- -------<br>--- --- -- ----- -- --- ---- -- --- ---- -- that's ------<br>--- ----- -- ----,875424,875420,875197.72,875198,875208.92,875426,,50,that's
screen,html.Screen,2_1_0_1_51,2022-04-28T10:00:02.395Z,,,,,,,,,,,,,,,,,53,,,,,,,,,,,,,,236,,response,,,,99,,,,,,,Space,keypress(Space),,,,,,,,---- -- ----- -- ------ - ------- --- ----------<br>------------- ------ ------ ---- ---- ------- ----- -- ----<br>-------- ------- -- ---------- --- - --- ----- ----- ----<br>---- --- --- ----- --- ---- ---- ------- ----- ---- -------<br>--- --- -- ----- -- --- ---- -- --- ---- -- ------ really<br>--- ----- -- ----,875667,875662,875424.6,875425,875426,875667.88,,51,really
screen,html.Screen,2_1_0_1_52,2022-04-28T10:00:02.586Z,,,,,,,,,,,,,,,,,53,,,,,,,,,,,,,,184.11999999999534,,response,,,,99,,,,,,,Space,keypress(Space),,,,,,,,---- -- ----- -- ------ - ------- --- ----------<br>------------- ------ ------ ---- ---- ------- ----- -- ----<br>-------- ------- -- ---------- --- - --- ----- ----- ----<br>---- --- --- ----- --- ---- ---- ------- ----- ---- -------<br>--- --- -- ----- -- --- ---- -- --- ---- -- ------ ------<br>not ----- -- ----,875856,875852,875666.66,875667,875667.88,875858.64,,52,not
screen,html.Screen,2_1_0_1_53,2022-04-28T10:00:02.843Z,,,,,,,,,,,,,,,,,53,,,,,,,,,,,,,,250.35999999998603,,response,,,,99,,,,,,,Space,keypress(Space),,,,,,,,---- -- ----- -- ------ - ------- --- ----------<br>------------- ------ ------ ---- ---- ------- ----- -- ----<br>-------- ------- -- ---------- --- - --- ----- ----- ----<br>---- --- --- ----- --- ---- ---- ------- ----- ---- -------<br>--- --- -- ----- -- --- ---- -- --- ---- -- ------ ------<br>--- close -- ----,876113,876109,875856.86,875856,875858.64,876115.16,,53,close
screen,html.Screen,2_1_0_1_54,2022-04-28T10:00:03.036Z,,,,,,,,,,,,,,,,,53,,,,,,,,,,,,,,187.8399999999674,,response,,,,99,,,,,,,Space,keypress(Space),,,,,,,,---- -- ----- -- ------ - ------- --- ----------<br>------------- ------ ------ ---- ---- ------- ----- -- ----<br>-------- ------- -- ---------- --- - --- ----- ----- ----<br>---- --- --- ----- --- ---- ---- ------- ----- ---- -------<br>--- --- -- ----- -- --- ---- -- --- ---- -- ------ ------<br>--- ----- at ----,876307,876303,876113.62,876113,876115.16,876307.94,,54,at
screen,html.Screen,2_1_0_1_55,2022-04-28T10:00:03.409Z,,,,,,,,,,,,,,,,,53,,,,,,,,,,,,,,368.0600000000559,,response,,,,99,,,,,,,Space,keypress(Space),,,,,,,,---- -- ----- -- ------ - ------- --- ----------<br>------------- ------ ------ ---- ---- ------- ----- -- ----<br>-------- ------- -- ---------- --- - --- ----- ----- ----<br>---- --- --- ----- --- ---- ---- ------- ----- ---- -------<br>--- --- -- ----- -- --- ---- -- --- ---- -- ------ ------<br>--- ----- -- all.,876680,876676,876307.38,876307,876307.94,876682.64,,55,all.
Item 99,flow.Loop,2_1_0_1,2022-04-28T10:00:03.410Z,,,,,,,,,,,,,,,,,,,,,,,,,,,,,,,17385.959999999963,,completion,,,,,D,,,,,,,,,,,silence,,,,,876681,876676,859274.42,859277,859290.04,876682.64,,,
Question 1,html.Screen,2_1_0_2,2022-04-28T10:00:06.128Z,,,,,,,,,,,,,,,,,,,,,,,,,,,,true,FALSE,,2712.359999999986,,response,,,,99,D,,,,,,FALSE,click #choice-2,,,,silence,,,,,879399,879395,876681.42,876681,876682.64,879398.16,,,
Question 2,html.Screen,2_1_0_3,2022-04-28T10:00:11.166Z,,,,,,,,,,,,,,,,,,,,,,,,,,,,true,TRUE,,5036.839999999967,,response,,,,99,D,,,,,,TRUE,click #choice-1,,,,silence,,,,,884437,884435,879397.46,879399,879398.16,884441.88,,,
Item 99,flow.Sequence,2_1_0,2022-04-28T10:00:11.167Z,,,,,,,,,,,,,,,,,,,,,,,,,,,,,,,35147.02000000002,,completion,,,,,,,,,,,,,,,,,,,,,884438,884435,849287.3,849298,849287.98,884441.88,,,
Holding screen,html.Screen,2_1_1_0,2022-04-28T10:00:21.157Z,,,,,,,,,,,,,,,,,,,,,,,,,,,,,,,10001.599999999977,,timeout,,,,,,,,,,,,,,,,,,,,,894427,894426.82,884436.36,884438,884441.88,894443.48,,,
screen,html.Screen,2_1_1_1_0,2022-04-28T10:00:22.730Z,,,,,,,,,,,,,,,,,54,,,,,,,,,,,,,,1550.5200000000186,,response,,,,100,,,,,,,Space,keypress(Space),,,,,,,,At --- ---- --- ------ ----- ------- ---- -- --- ------- --<br>------- ---------- ------ -- ----- -- ----- -- ---- ------<br>--- ----- --- --- ------ -------- ----- --- ------ ----- --<br>----- ----- ---------- --- --- ------ ------ ---- -- ------<br>------- --- ------ ----- --- ---- ------- -- ---- --- --<br>------- ------,896000,895994,894426.82,894428,894443.48,896002.08,,0,At
screen,html.Screen,2_1_1_1_1,2022-04-28T10:00:22.917Z,,,,,,,,,,,,,,,,,54,,,,,,,,,,,,,,180.9200000000419,,response,,,,100,,,,,,,Space,keypress(Space),,,,,,,,-- the ---- --- ------ ----- ------- ---- -- --- ------- --<br>------- ---------- ------ -- ----- -- ----- -- ---- ------<br>--- ----- --- --- ------ -------- ----- --- ------ ----- --<br>----- ----- ---------- --- --- ------ ------ ---- -- ------<br>------- --- ------ ----- --- ---- ------- -- ---- --- --<br>------- ------,896187,896183,896000.52,896001,896002.08,896193.7,,1,the
screen,html.Screen,2_1_1_1_2,2022-04-28T10:00:23.153Z,,,,,,,,,,,,,,,,,54,,,,,,,,,,,,,,224.30000000004657,,response,,,,100,,,,,,,Space,keypress(Space),,,,,,,,-- --- time --- ------ ----- ------- ---- -- --- ------- --<br>------- ---------- ------ -- ----- -- ----- -- ---- ------<br>--- ----- --- --- ------ -------- ----- --- ------ ----- --<br>----- ----- ---------- --- --- ------ ------ ---- -- ------<br>------- --- ------ ----- --- ---- ------- -- ---- --- --<br>------- ------,896423,896418,896187.28,896187,896193.7,896424.24,,2,time
screen,html.Screen,2_1_1_1_3,2022-04-28T10:00:23.339Z,,,,,,,,,,,,,,,,,54,,,,,,,,,,,,,,180.7600000000093,,response,,,,100,,,,,,,Space,keypress(Space),,,,,,,,-- --- ---- the ------ ----- ------- ---- -- --- ------- --<br>------- ---------- ------ -- ----- -- ----- -- ---- ------<br>--- ----- --- --- ------ -------- ----- --- ------ ----- --<br>----- ----- ---------- --- --- ------ ------ ---- -- ------<br>------- --- ------ ----- --- ---- ------- -- ---- --- --<br>------- ------,896610,896605,896423.06,896423,896424.24,896626.98,,3,the
screen,html.Screen,2_1_1_1_4,2022-04-28T10:00:23.532Z,,,,,,,,,,,,,,,,,54,,,,,,,,,,,,,,170.02000000001863,,response,,,,100,,,,,,,Space,keypress(Space),,,,,,,,-- --- ---- --- French ----- ------- ---- -- --- ------- --<br>------- ---------- ------ -- ----- -- ----- -- ---- ------<br>--- ----- --- --- ------ -------- ----- --- ------ ----- --<br>----- ----- ---------- --- --- ------ ------ ---- -- ------<br>------- --- ------ ----- --- ---- ------- -- ---- --- --<br>------- ------,896802,896797,896610.26,896610,896626.98,896803.58,,4,French
screen,html.Screen,2_1_1_1_5,2022-04-28T10:00:23.727Z,,,,,,,,,,,,,,,,,54,,,,,,,,,,,,,,188.4200000000419,,response,,,,100,,,,,,,Space,keypress(Space),,,,,,,,-- --- ---- --- ------ crown ------- ---- -- --- ------- --<br>------- ---------- ------ -- ----- -- ----- -- ---- ------<br>--- ----- --- --- ------ -------- ----- --- ------ ----- --<br>----- ----- ---------- --- --- ------ ------ ---- -- ------<br>------- --- ------ ----- --- ---- ------- -- ---- --- --<br>------- ------,896997,896992,896802.36,896803,896803.58,897010.32,,5,crown
screen,html.Screen,2_1_1_1_6,2022-04-28T10:00:24.162Z,,,,,,,,,,,,,,,,,54,,,,,,,,,,,,,,416.6800000000512,,response,,,,100,,,,,,,Space,keypress(Space),,,,,,,,-- --- ---- --- ------ ----- secured ---- -- --- ------- --<br>------- ---------- ------ -- ----- -- ----- -- ---- ------<br>--- ----- --- --- ------ -------- ----- --- ------ ----- --<br>----- ----- ---------- --- --- ------ ------ ---- -- ------<br>------- --- ------ ----- --- ---- ------- -- ---- --- --<br>------- ------,897432,897427,896997.16,896997,897010.32,897433.48,,6,secured
screen,html.Screen,2_1_1_1_7,2022-04-28T10:00:24.377Z,,,,,,,,,,,,,,,,,54,,,,,,,,,,,,,,210.52000000001863,,response,,,,100,,,,,,,Space,keypress(Space),,,,,,,,-- --- ---- --- ------ ----- ------- much -- --- ------- --<br>------- ---------- ------ -- ----- -- ----- -- ---- ------<br>--- ----- --- --- ------ -------- ----- --- ------ ----- --<br>----- ----- ---------- --- --- ------ ------ ---- -- ------<br>------- --- ------ ----- --- ---- ------- -- ---- --- --<br>------- ------,897648,897644,897432.26,897432,897433.48,897649.44,,7,much
screen,html.Screen,2_1_1_1_8,2022-04-28T10:00:24.590Z,,,,,,,,,,,,,,,,,54,,,,,,,,,,,,,,206.56000000005588,,response,,,,100,,,,,,,Space,keypress(Space),,,,,,,,-- --- ---- --- ------ ----- ------- ---- of --- ------- --<br>------- ---------- ------ -- ----- -- ----- -- ---- ------<br>--- ----- --- --- ------ -------- ----- --- ------ ----- --<br>----- ----- ---------- --- --- ------ ------ ---- -- ------<br>------- --- ------ ----- --- ---- ------- -- ---- --- --<br>------- ------,897861,897856,897648.26,897648,897649.44,897862.5,,8,of
screen,html.Screen,2_1_1_1_9,2022-04-28T10:00:24.812Z,,,,,,,,,,,,,,,,,54,,,,,,,,,,,,,,215.5,,response,,,,100,,,,,,,Space,keypress(Space),,,,,,,,-- --- ---- --- ------ ----- ------- ---- -- its ------- --<br>------- ---------- ------ -- ----- -- ----- -- ---- ------<br>--- ----- --- --- ------ -------- ----- --- ------ ----- --<br>----- ----- ---------- --- --- ------ ------ ---- -- ------<br>------- --- ------ ----- --- ---- ------- -- ---- --- --<br>------- ------,898082,898078,897861.06,897861,897862.5,898084.38,,9,its
screen,html.Screen,2_1_1_1_10,2022-04-28T10:00:25.024Z,,,,,,,,,,,,,,,,,54,,,,,,,,,,,,,,205.61999999999534,,response,,,,100,,,,,,,Space,keypress(Space),,,,,,,,-- --- ---- --- ------ ----- ------- ---- -- --- revenue --<br>------- ---------- ------ -- ----- -- ----- -- ---- ------<br>--- ----- --- --- ------ -------- ----- --- ------ ----- --<br>----- ----- ---------- --- --- ------ ------ ---- -- ------<br>------- --- ------ ----- --- ---- ------- -- ---- --- --<br>------- ------,898295,898290,898083.16,898083,898084.38,898310.5,,10,revenue
screen,html.Screen,2_1_1_1_11,2022-04-28T10:00:25.250Z,,,,,,,,,,,,,,,,,54,,,,,,,,,,,,,,204.5,,response,,,,100,,,,,,,Space,keypress(Space),,,,,,,,-- --- ---- --- ------ ----- ------- ---- -- --- ------- by<br>------- ---------- ------ -- ----- -- ----- -- ---- ------<br>--- ----- --- --- ------ -------- ----- --- ------ ----- --<br>----- ----- ---------- --- --- ------ ------ ---- -- ------<br>------- --- ------ ----- --- ---- ------- -- ---- --- --<br>------- ------,898521,898515,898295.22,898295,898310.5,898522.28,,11,by
screen,html.Screen,2_1_1_1_12,2022-04-28T10:00:25.479Z,,,,,,,,,,,,,,,,,54,,,,,,,,,,,,,,222.71999999997206,,response,,,,100,,,,,,,Space,keypress(Space),,,,,,,,-- --- ---- --- ------ ----- ------- ---- -- --- ------- --<br>issuing ---------- ------ -- ----- -- ----- -- ---- ------<br>--- ----- --- --- ------ -------- ----- --- ------ ----- --<br>----- ----- ---------- --- --- ------ ------ ---- -- ------<br>------- --- ------ ----- --- ---- ------- -- ---- --- --<br>------- ------,898750,898745,898521,898521,898522.28,898751.12,,12,issuing
screen,html.Screen,2_1_1_1_13,2022-04-28T10:00:25.708Z,,,,,,,,,,,,,,,,,54,,,,,,,,,,,,,,222.88000000000466,,response,,,,100,,,,,,,Space,keypress(Space),,,,,,,,-- --- ---- --- ------ ----- ------- ---- -- --- ------- --<br>------- government ------ -- ----- -- ----- -- ---- ------<br>--- ----- --- --- ------ -------- ----- --- ------ ----- --<br>----- ----- ---------- --- --- ------ ------ ---- -- ------<br>------- --- ------ ----- --- ---- ------- -- ---- --- --<br>------- ------,898979,898974,898749.84,898750,898751.12,898980.44,,13,government
screen,html.Screen,2_1_1_1_14,2022-04-28T10:00:25.939Z,,,,,,,,,,,,,,,,,54,,,,,,,,,,,,,,225.56000000005588,,response,,,,100,,,,,,,Space,keypress(Space),,,,,,,,-- --- ---- --- ------ ----- ------- ---- -- --- ------- --<br>------- ---------- bonds. -- ----- -- ----- -- ---- ------<br>--- ----- --- --- ------ -------- ----- --- ------ ----- --<br>----- ----- ---------- --- --- ------ ------ ---- -- ------<br>------- --- ------ ----- --- ---- ------- -- ---- --- --<br>------- ------,899210,899206,898979.26,898979,898980.44,899211,,14,bonds.
screen,html.Screen,2_1_1_1_15,2022-04-28T10:00:26.170Z,,,,,,,,,,,,,,,,,54,,,,,,,,,,,,,,226,,response,,,,100,,,,,,,Space,keypress(Space),,,,,,,,-- --- ---- --- ------ ----- ------- ---- -- --- ------- --<br>------- ---------- ------ In ----- -- ----- -- ---- ------<br>--- ----- --- --- ------ -------- ----- --- ------ ----- --<br>----- ----- ---------- --- --- ------ ------ ---- -- ------<br>------- --- ------ ----- --- ---- ------- -- ---- --- --<br>------- ------,899441,899437,899209.7,899210,899211,899442.22,,15,In
screen,html.Screen,2_1_1_1_16,2022-04-28T10:00:26.443Z,,,,,,,,,,,,,,,,,54,,,,,,,,,,,,,,267.78000000002794,,response,,,,100,,,,,,,Space,keypress(Space),,,,,,,,"-- --- ---- --- ------ ----- ------- ---- -- --- ------- --<br>------- ---------- ------ -- 1727, -- ----- -- ---- ------<br>--- ----- --- --- ------ -------- ----- --- ------ ----- --<br>----- ----- ---------- --- --- ------ ------ ---- -- ------<br>------- --- ------ ----- --- ---- ------- -- ---- --- --<br>------- ------",899714,899710,899441.02,899441,899442.22,899715.48,,16,"1727,"
screen,html.Screen,2_1_1_1_17,2022-04-28T10:00:26.991Z,,,,,,,,,,,,,,,,,54,,,,,,,,,,,,,,541.5200000000186,,response,,,,100,,,,,,,Space,keypress(Space),,,,,,,,-- --- ---- --- ------ ----- ------- ---- -- --- ------- --<br>------- ---------- ------ -- ----- in ----- -- ---- ------<br>--- ----- --- --- ------ -------- ----- --- ------ ----- --<br>----- ----- ---------- --- --- ------ ------ ---- -- ------<br>------- --- ------ ----- --- ---- ------- -- ---- --- --<br>------- ------,900262,900257,899714.12,899714,899715.48,900263.28,,17,in
screen,html.Screen,2_1_1_1_18,2022-04-28T10:00:27.249Z,,,,,,,,,,,,,,,,,54,,,,,,,,,,,,,,251.71999999997206,,response,,,,100,,,,,,,Space,keypress(Space),,,,,,,,-- --- ---- --- ------ ----- ------- ---- -- --- ------- --<br>------- ---------- ------ -- ----- -- order -- ---- ------<br>--- ----- --- --- ------ -------- ----- --- ------ ----- --<br>----- ----- ---------- --- --- ------ ------ ---- -- ------<br>------- --- ------ ----- --- ---- ------- -- ---- --- --<br>------- ------,900518,900515,900262.08,900262,900263.28,900520.2,,18,order
screen,html.Screen,2_1_1_1_19,2022-04-28T10:00:27.778Z,,,,,,,,,,,,,,,,,54,,,,,,,,,,,,,,522.8000000000466,,response,,,,100,,,,,,,Space,keypress(Space),,,,,,,,-- --- ---- --- ------ ----- ------- ---- -- --- ------- --<br>------- ---------- ------ -- ----- -- ----- to ---- ------<br>--- ----- --- --- ------ -------- ----- --- ------ ----- --<br>----- ----- ---------- --- --- ------ ------ ---- -- ------<br>------- --- ------ ----- --- ---- ------- -- ---- --- --<br>------- ------,901048,901043,900518.88,900518,900520.2,901049.02,,19,to
screen,html.Screen,2_1_1_1_20,2022-04-28T10:00:28.037Z,,,,,,,,,,,,,,,,,54,,,,,,,,,,,,,,252.97999999998137,,response,,,,100,,,,,,,Space,keypress(Space),,,,,,,,-- --- ---- --- ------ ----- ------- ---- -- --- ------- --<br>------- ---------- ------ -- ----- -- ----- -- save ------<br>--- ----- --- --- ------ -------- ----- --- ------ ----- --<br>----- ----- ---------- --- --- ------ ------ ---- -- ------<br>------- --- ------ ----- --- ---- ------- -- ---- --- --<br>------- ------,901306,901302,901047.86,901048,901049.02,901308.04,,20,save
screen,html.Screen,2_1_1_1_21,2022-04-28T10:00:28.295Z,,,,,,,,,,,,,,,,,54,,,,,,,,,,,,,,252.95999999996275,,response,,,,100,,,,,,,Space,keypress(Space),,,,,,,,"-- --- ---- --- ------ ----- ------- ---- -- --- ------- --<br>------- ---------- ------ -- ----- -- ----- -- ---- money,<br>--- ----- --- --- ------ -------- ----- --- ------ ----- --<br>----- ----- ---------- --- --- ------ ------ ---- -- ------<br>------- --- ------ ----- --- ---- ------- -- ---- --- --<br>------- ------",901566,901561,901306.84,901306,901308.04,901567.04,,21,"money,"
screen,html.Screen,2_1_1_1_22,2022-04-28T10:00:28.573Z,,,,,,,,,,,,,,,,,54,,,,,,,,,,,,,,271.95999999996275,,response,,,,100,,,,,,,Space,keypress(Space),,,,,,,,-- --- ---- --- ------ ----- ------- ---- -- --- ------- --<br>------- ---------- ------ -- ----- -- ----- -- ---- ------<br>the ----- --- --- ------ -------- ----- --- ------ ----- --<br>----- ----- ---------- --- --- ------ ------ ---- -- ------<br>------- --- ------ ----- --- ---- ------- -- ---- --- --<br>------- ------,901843,901839,901565.52,901566,901567.04,901844.68,,22,the
screen,html.Screen,2_1_1_1_23,2022-04-28T10:00:28.792Z,,,,,,,,,,,,,,,,,54,,,,,,,,,,,,,,212.31999999994878,,response,,,,100,,,,,,,Space,keypress(Space),,,,,,,,-- --- ---- --- ------ ----- ------- ---- -- --- ------- --<br>------- ---------- ------ -- ----- -- ----- -- ---- ------<br>--- state --- --- ------ -------- ----- --- ------ ----- --<br>----- ----- ---------- --- --- ------ ------ ---- -- ------<br>------- --- ------ ----- --- ---- ------- -- ---- --- --<br>------- ------,902062,902057,901843.48,901843,901844.68,902063.64,,23,state
screen,html.Screen,2_1_1_1_24,2022-04-28T10:00:29.059Z,,,,,,,,,,,,,,,,,54,,,,,,,,,,,,,,260.35999999998603,,response,,,,100,,,,,,,Space,keypress(Space),,,,,,,,-- --- ---- --- ------ ----- ------- ---- -- --- ------- --<br>------- ---------- ------ -- ----- -- ----- -- ---- ------<br>--- ----- cut --- ------ -------- ----- --- ------ ----- --<br>----- ----- ---------- --- --- ------ ------ ---- -- ------<br>------- --- ------ ----- --- ---- ------- -- ---- --- --<br>------- ------,902328,902324,902062.32,902062,902063.64,902330.1,,24,cut
screen,html.Screen,2_1_1_1_25,2022-04-28T10:00:29.561Z,,,,,,,,,,,,,,,,,54,,,,,,,,,,,,,,495.9000000000233,,response,,,,100,,,,,,,Space,keypress(Space),,,,,,,,-- --- ---- --- ------ ----- ------- ---- -- --- ------- --<br>------- ---------- ------ -- ----- -- ----- -- ---- ------<br>--- ----- --- the ------ -------- ----- --- ------ ----- --<br>----- ----- ---------- --- --- ------ ------ ---- -- ------<br>------- --- ------ ----- --- ---- ------- -- ---- --- --<br>------- ------,902831,902826,902328.86,902329,902330.1,902832.44,,25,the
screen,html.Screen,2_1_1_1_26,2022-04-28T10:00:29.770Z,,,,,,,,,,,,,,,,,54,,,,,,,,,,,,,,203.56000000005588,,response,,,,100,,,,,,,Space,keypress(Space),,,,,,,,-- --- ---- --- ------ ----- ------- ---- -- --- ------- --<br>------- ---------- ------ -- ----- -- ----- -- ---- ------<br>--- ----- --- --- bonds' -------- ----- --- ------ ----- --<br>----- ----- ---------- --- --- ------ ------ ---- -- ------<br>------- --- ------ ----- --- ---- ------- -- ---- --- --<br>------- ------,903041,903036,902831.24,902832,902832.44,903043.08,,26,bonds'
screen,html.Screen,2_1_1_1_27,2022-04-28T10:00:30.046Z,,,,,,,,,,,,,,,,,54,,,,,,,,,,,,,,267.9200000000419,,response,,,,100,,,,,,,Space,keypress(Space),,,,,,,,-- --- ---- --- ------ ----- ------- ---- -- --- ------- --<br>------- ---------- ------ -- ----- -- ----- -- ---- ------<br>--- ----- --- --- ------ interest ----- --- ------ ----- --<br>----- ----- ---------- --- --- ------ ------ ---- -- ------<br>------- --- ------ ----- --- ---- ------- -- ---- --- --<br>------- ------,903316,903311,903040.56,903041,903043.08,903318.24,,27,interest
screen,html.Screen,2_1_1_1_28,2022-04-28T10:00:30.288Z,,,,,,,,,,,,,,,,,54,,,,,,,,,,,,,,235.7600000000093,,response,,,,100,,,,,,,Space,keypress(Space),,,,,,,,-- --- ---- --- ------ ----- ------- ---- -- --- ------- --<br>------- ---------- ------ -- ----- -- ----- -- ---- ------<br>--- ----- --- --- ------ -------- rate. --- ------ ----- --<br>----- ----- ---------- --- --- ------ ------ ---- -- ------<br>------- --- ------ ----- --- ---- ------- -- ---- --- --<br>------- ------,903558,903554,903316.78,903317,903318.24,903559.86,,28,rate.
screen,html.Screen,2_1_1_1_29,2022-04-28T10:00:30.535Z,,,,,,,,,,,,,,,,,54,,,,,,,,,,,,,,241.14000000001397,,response,,,,100,,,,,,,Space,keypress(Space),,,,,,,,-- --- ---- --- ------ ----- ------- ---- -- --- ------- --<br>------- ---------- ------ -- ----- -- ----- -- ---- ------<br>--- ----- --- --- ------ -------- ----- The ------ ----- --<br>----- ----- ---------- --- --- ------ ------ ---- -- ------<br>------- --- ------ ----- --- ---- ------- -- ---- --- --<br>------- ------,903805,903801,903558.66,903559,903559.86,903807.02,,29,The
screen,html.Screen,2_1_1_1_30,2022-04-28T10:00:30.873Z,,,,,,,,,,,,,,,,,54,,,,,,,,,,,,,,331.9799999999814,,response,,,,100,,,,,,,Space,keypress(Space),,,,,,,,-- --- ---- --- ------ ----- ------- ---- -- --- ------- --<br>------- ---------- ------ -- ----- -- ----- -- ---- ------<br>--- ----- --- --- ------ -------- ----- --- market ----- --<br>----- ----- ---------- --- --- ------ ------ ---- -- ------<br>------- --- ------ ----- --- ---- ------- -- ---- --- --<br>------- ------,904143,904139,903805.48,903805,903807.02,904144.94,,30,market
screen,html.Screen,2_1_1_1_31,2022-04-28T10:00:31.143Z,,,,,,,,,,,,,,,,,54,,,,,,,,,,,,,,262.0600000000559,,response,,,,100,,,,,,,Space,keypress(Space),,,,,,,,-- --- ---- --- ------ ----- ------- ---- -- --- ------- --<br>------- ---------- ------ -- ----- -- ----- -- ---- ------<br>--- ----- --- --- ------ -------- ----- --- ------ value --<br>----- ----- ---------- --- --- ------ ------ ---- -- ------<br>------- --- ------ ----- --- ---- ------- -- ---- --- --<br>------- ------,904412,904407,904143.76,904144,904144.94,904414.18,,31,value
screen,html.Screen,2_1_1_1_32,2022-04-28T10:00:31.440Z,,,,,,,,,,,,,,,,,54,,,,,,,,,,,,,,290.8199999999488,,response,,,,100,,,,,,,Space,keypress(Space),,,,,,,,-- --- ---- --- ------ ----- ------- ---- -- --- ------- --<br>------- ---------- ------ -- ----- -- ----- -- ---- ------<br>--- ----- --- --- ------ -------- ----- --- ------ ----- of<br>----- ----- ---------- --- --- ------ ------ ---- -- ------<br>------- --- ------ ----- --- ---- ------- -- ---- --- --<br>------- ------,904709,904705,904412.78,904412,904414.18,904711.12,,32,of
screen,html.Screen,2_1_1_1_33,2022-04-28T10:00:31.684Z,,,,,,,,,,,,,,,,,54,,,,,,,,,,,,,,238.88000000000466,,response,,,,100,,,,,,,Space,keypress(Space),,,,,,,,-- --- ---- --- ------ ----- ------- ---- -- --- ------- --<br>------- ---------- ------ -- ----- -- ----- -- ---- ------<br>--- ----- --- --- ------ -------- ----- --- ------ ----- --<br>these ----- ---------- --- --- ------ ------ ---- -- ------<br>------- --- ------ ----- --- ---- ------- -- ---- --- --<br>------- ------,904954,904950,904709.82,904709,904711.12,904956.26,,33,these
screen,html.Screen,2_1_1_1_34,2022-04-28T10:00:31.887Z,,,,,,,,,,,,,,,,,54,,,,,,,,,,,,,,195.7399999999907,,response,,,,100,,,,,,,Space,keypress(Space),,,,,,,,-- --- ---- --- ------ ----- ------- ---- -- --- ------- --<br>------- ---------- ------ -- ----- -- ----- -- ---- ------<br>--- ----- --- --- ------ -------- ----- --- ------ ----- --<br>----- bonds ---------- --- --- ------ ------ ---- -- ------<br>------- --- ------ ----- --- ---- ------- -- ---- --- --<br>------- ------,905157,905152,904955.04,904955,904956.26,905159.88,,34,bonds
screen,html.Screen,2_1_1_1_35,2022-04-28T10:00:32.124Z,,,,,,,,,,,,,,,,,54,,,,,,,,,,,,,,230.11999999999534,,response,,,,100,,,,,,,Space,keypress(Space),,,,,,,,"-- --- ---- --- ------ ----- ------- ---- -- --- ------- --<br>------- ---------- ------ -- ----- -- ----- -- ---- ------<br>--- ----- --- --- ------ -------- ----- --- ------ ----- --<br>----- ----- plummeted, --- --- ------ ------ ---- -- ------<br>------- --- ------ ----- --- ---- ------- -- ---- --- --<br>------- ------",905395,905390,905157.54,905158,905159.88,905396.42,,35,"plummeted,"
screen,html.Screen,2_1_1_1_36,2022-04-28T10:00:32.398Z,,,,,,,,,,,,,,,,,54,,,,,,,,,,,,,,266.5799999999581,,response,,,,100,,,,,,,Space,keypress(Space),,,,,,,,-- --- ---- --- ------ ----- ------- ---- -- --- ------- --<br>------- ---------- ------ -- ----- -- ----- -- ---- ------<br>--- ----- --- --- ------ -------- ----- --- ------ ----- --<br>----- ----- ---------- and --- ------ ------ ---- -- ------<br>------- --- ------ ----- --- ---- ------- -- ---- --- --<br>------- ------,905668,905663,905395.24,905395,905396.42,905670.08,,36,and
screen,html.Screen,2_1_1_1_37,2022-04-28T10:00:32.836Z,,,,,,,,,,,,,,,,,54,,,,,,,,,,,,,,430.9200000000419,,response,,,,100,,,,,,,Space,keypress(Space),,,,,,,,-- --- ---- --- ------ ----- ------- ---- -- --- ------- --<br>------- ---------- ------ -- ----- -- ----- -- ---- ------<br>--- ----- --- --- ------ -------- ----- --- ------ ----- --<br>----- ----- ---------- --- the ------ ------ ---- -- ------<br>------- --- ------ ----- --- ---- ------- -- ---- --- --<br>------- ------,906105,906101,905668.68,905669,905670.08,906106.86,,37,the
screen,html.Screen,2_1_1_1_38,2022-04-28T10:00:33.051Z,,,,,,,,,,,,,,,,,54,,,,,,,,,,,,,,210.14000000001397,,response,,,,100,,,,,,,Space,keypress(Space),,,,,,,,-- --- ---- --- ------ ----- ------- ---- -- --- ------- --<br>------- ---------- ------ -- ----- -- ----- -- ---- ------<br>--- ----- --- --- ------ -------- ----- --- ------ ----- --<br>----- ----- ---------- --- --- market ------ ---- -- ------<br>------- --- ------ ----- --- ---- ------- -- ---- --- --<br>------- ------,906322,906317,906105.68,906106,906106.86,906327.16,,38,market
screen,html.Screen,2_1_1_1_39,2022-04-28T10:00:33.283Z,,,,,,,,,,,,,,,,,54,,,,,,,,,,,,,,221.8399999999674,,response,,,,100,,,,,,,Space,keypress(Space),,,,,,,,-- --- ---- --- ------ ----- ------- ---- -- --- ------- --<br>------- ---------- ------ -- ----- -- ----- -- ---- ------<br>--- ----- --- --- ------ -------- ----- --- ------ ----- --<br>----- ----- ---------- --- --- ------ became ---- -- ------<br>------- --- ------ ----- --- ---- ------- -- ---- --- --<br>------- ------,906554,906549,906321.88,906322,906327.16,906554.98,,39,became
screen,html.Screen,2_1_1_1_40,2022-04-28T10:00:33.548Z,,,,,,,,,,,,,,,,,54,,,,,,,,,,,,,,258.0200000000186,,response,,,,100,,,,,,,Space,keypress(Space),,,,,,,,-- --- ---- --- ------ ----- ------- ---- -- --- ------- --<br>------- ---------- ------ -- ----- -- ----- -- ---- ------<br>--- ----- --- --- ------ -------- ----- --- ------ ----- --<br>----- ----- ---------- --- --- ------ ------ wary -- ------<br>------- --- ------ ----- --- ---- ------- -- ---- --- --<br>------- ------,906819,906813,906553.76,906554,906554.98,906820,,40,wary
screen,html.Screen,2_1_1_1_41,2022-04-28T10:00:33.833Z,,,,,,,,,,,,,,,,,54,,,,,,,,,,,,,,279,,response,,,,100,,,,,,,Space,keypress(Space),,,,,,,,-- --- ---- --- ------ ----- ------- ---- -- --- ------- --<br>------- ---------- ------ -- ----- -- ----- -- ---- ------<br>--- ----- --- --- ------ -------- ----- --- ------ ----- --<br>----- ----- ---------- --- --- ------ ------ ---- of ------<br>------- --- ------ ----- --- ---- ------- -- ---- --- --<br>------- ------,907103,907099,906818.7,906819,906820,907104.8,,41,of
screen,html.Screen,2_1_1_1_42,2022-04-28T10:00:34.051Z,,,,,,,,,,,,,,,,,54,,,,,,,,,,,,,,212.19999999995343,,response,,,,100,,,,,,,Space,keypress(Space),,,,,,,,-- --- ---- --- ------ ----- ------- ---- -- --- ------- --<br>------- ---------- ------ -- ----- -- ----- -- ---- ------<br>--- ----- --- --- ------ -------- ----- --- ------ ----- --<br>----- ----- ---------- --- --- ------ ------ ---- -- French<br>------- --- ------ ----- --- ---- ------- -- ---- --- --<br>------- ------,907322,907317,907103.6,907103,907104.8,907327.3,,42,French
screen,html.Screen,2_1_1_1_43,2022-04-28T10:00:34.312Z,,,,,,,,,,,,,,,,,54,,,,,,,,,,,,,,250.69999999995343,,response,,,,100,,,,,,,Space,keypress(Space),,,,,,,,-- --- ---- --- ------ ----- ------- ---- -- --- ------- --<br>------- ---------- ------ -- ----- -- ----- -- ---- ------<br>--- ----- --- --- ------ -------- ----- --- ------ ----- --<br>----- ----- ---------- --- --- ------ ------ ---- -- ------<br>credit. --- ------ ----- --- ---- ------- -- ---- --- --<br>------- ------,907583,907578,907321.8,907322,907327.3,907583.98,,43,credit.
screen,html.Screen,2_1_1_1_44,2022-04-28T10:00:34.586Z,,,,,,,,,,,,,,,,,54,,,,,,,,,,,,,,268.0200000000186,,response,,,,100,,,,,,,Space,keypress(Space),,,,,,,,-- --- ---- --- ------ ----- ------- ---- -- --- ------- --<br>------- ---------- ------ -- ----- -- ----- -- ---- ------<br>--- ----- --- --- ------ -------- ----- --- ------ ----- --<br>----- ----- ---------- --- --- ------ ------ ---- -- ------<br>------- The ------ ----- --- ---- ------- -- ---- --- --<br>------- ------,907856,907852,907582.66,907583,907583.98,907857.82,,44,The
screen,html.Screen,2_1_1_1_45,2022-04-28T10:00:34.795Z,,,,,,,,,,,,,,,,,54,,,,,,,,,,,,,,204.18000000005122,,response,,,,100,,,,,,,Space,keypress(Space),,,,,,,,-- --- ---- --- ------ ----- ------- ---- -- --- ------- --<br>------- ---------- ------ -- ----- -- ----- -- ---- ------<br>--- ----- --- --- ------ -------- ----- --- ------ ----- --<br>----- ----- ---------- --- --- ------ ------ ---- -- ------<br>------- --- French ----- --- ---- ------- -- ---- --- --<br>------- ------,908064,908062,907856.66,907856,907857.82,908077.72,,45,French
screen,html.Screen,2_1_1_1_46,2022-04-28T10:00:35.316Z,,,,,,,,,,,,,,,,,54,,,,,,,,,,,,,,504.28000000002794,,response,,,,100,,,,,,,Space,keypress(Space),,,,,,,,-- --- ---- --- ------ ----- ------- ---- -- --- ------- --<br>------- ---------- ------ -- ----- -- ----- -- ---- ------<br>--- ----- --- --- ------ -------- ----- --- ------ ----- --<br>----- ----- ---------- --- --- ------ ------ ---- -- ------<br>------- --- ------ state --- ---- ------- -- ---- --- --<br>------- ------,908586,908582,908064.86,908064,908077.72,908587.62,,46,state
screen,html.Screen,2_1_1_1_47,2022-04-28T10:00:35.628Z,,,,,,,,,,,,,,,,,54,,,,,,,,,,,,,,306.38000000000466,,response,,,,100,,,,,,,Space,keypress(Space),,,,,,,,-- --- ---- --- ------ ----- ------- ---- -- --- ------- --<br>------- ---------- ------ -- ----- -- ----- -- ---- ------<br>--- ----- --- --- ------ -------- ----- --- ------ ----- --<br>----- ----- ---------- --- --- ------ ------ ---- -- ------<br>------- --- ------ ----- was ---- ------- -- ---- --- --<br>------- ------,908898,908894,908586.4,908587,908587.62,908899.58,,47,was
screen,html.Screen,2_1_1_1_48,2022-04-28T10:00:36.046Z,,,,,,,,,,,,,,,,,54,,,,,,,,,,,,,,412.4200000000419,,response,,,,100,,,,,,,Space,keypress(Space),,,,,,,,-- --- ---- --- ------ ----- ------- ---- -- --- ------- --<br>------- ---------- ------ -- ----- -- ----- -- ---- ------<br>--- ----- --- --- ------ -------- ----- --- ------ ----- --<br>----- ----- ---------- --- --- ------ ------ ---- -- ------<br>------- --- ------ ----- --- left ------- -- ---- --- --<br>------- ------,909316,909312,908898.44,908899,908899.58,909317.58,,48,left
screen,html.Screen,2_1_1_1_49,2022-04-28T10:00:36.402Z,,,,,,,,,,,,,,,,,54,,,,,,,,,,,,,,349.4200000000419,,response,,,,100,,,,,,,Space,keypress(Space),,,,,,,,-- --- ---- --- ------ ----- ------- ---- -- --- ------- --<br>------- ---------- ------ -- ----- -- ----- -- ---- ------<br>--- ----- --- --- ------ -------- ----- --- ------ ----- --<br>----- ----- ---------- --- --- ------ ------ ---- -- ------<br>------- --- ------ ----- --- ---- without -- ---- --- --<br>------- ------,909672,909667,909316.2,909316,909317.58,909673.44,,49,without
screen,html.Screen,2_1_1_1_50,2022-04-28T10:00:36.781Z,,,,,,,,,,,,,,,,,54,,,,,,,,,,,,,,372.5600000000559,,response,,,,100,,,,,,,Space,keypress(Space),,,,,,,,-- --- ---- --- ------ ----- ------- ---- -- --- ------- --<br>------- ---------- ------ -- ----- -- ----- -- ---- ------<br>--- ----- --- --- ------ -------- ----- --- ------ ----- --<br>----- ----- ---------- --- --- ------ ------ ---- -- ------<br>------- --- ------ ----- --- ---- ------- an ---- --- --<br>------- ------,910051,910046,909672.26,909672,909673.44,910052.42,,50,an
screen,html.Screen,2_1_1_1_51,2022-04-28T10:00:37.153Z,,,,,,,,,,,,,,,,,54,,,,,,,,,,,,,,366.5799999999581,,response,,,,100,,,,,,,Space,keypress(Space),,,,,,,,-- --- ---- --- ------ ----- ------- ---- -- --- ------- --<br>------- ---------- ------ -- ----- -- ----- -- ---- ------<br>--- ----- --- --- ------ -------- ----- --- ------ ----- --<br>----- ----- ---------- --- --- ------ ------ ---- -- ------<br>------- --- ------ ----- --- ---- ------- -- easy --- --<br>------- ------,910423,910419,910051.14,910051,910052.42,910425,,51,easy
screen,html.Screen,2_1_1_1_52,2022-04-28T10:00:37.476Z,,,,,,,,,,,,,,,,,54,,,,,,,,,,,,,,317,,response,,,,100,,,,,,,Space,keypress(Space),,,,,,,,-- --- ---- --- ------ ----- ------- ---- -- --- ------- --<br>------- ---------- ------ -- ----- -- ----- -- ---- ------<br>--- ----- --- --- ------ -------- ----- --- ------ ----- --<br>----- ----- ---------- --- --- ------ ------ ---- -- ------<br>------- --- ------ ----- --- ---- ------- -- ---- way --<br>------- ------,910746,910742,910423.72,910423,910425,910747.52,,52,way
screen,html.Screen,2_1_1_1_53,2022-04-28T10:00:37.778Z,,,,,,,,,,,,,,,,,54,,,,,,,,,,,,,,296.4799999999814,,response,,,,100,,,,,,,Space,keypress(Space),,,,,,,,-- --- ---- --- ------ ----- ------- ---- -- --- ------- --<br>------- ---------- ------ -- ----- -- ----- -- ---- ------<br>--- ----- --- --- ------ -------- ----- --- ------ ----- --<br>----- ----- ---------- --- --- ------ ------ ---- -- ------<br>------- --- ------ ----- --- ---- ------- -- ---- --- of<br>------- ------,911048,911044,910746.34,910746,910747.52,911049.3,,53,of
screen,html.Screen,2_1_1_1_54,2022-04-28T10:00:38.138Z,,,,,,,,,,,,,,,,,54,,,,,,,,,,,,,,353.69999999995343,,response,,,,100,,,,,,,Space,keypress(Space),,,,,,,,-- --- ---- --- ------ ----- ------- ---- -- --- ------- --<br>------- ---------- ------ -- ----- -- ----- -- ---- ------<br>--- ----- --- --- ------ -------- ----- --- ------ ----- --<br>----- ----- ---------- --- --- ------ ------ ---- -- ------<br>------- --- ------ ----- --- ---- ------- -- ---- --- --<br>raising ------,911408,911403,911048.1,911048,911049.3,911409.58,,54,raising
screen,html.Screen,2_1_1_1_55,2022-04-28T10:00:38.570Z,,,,,,,,,,,,,,,,,54,,,,,,,,,,,,,,426.4200000000419,,response,,,,100,,,,,,,Space,keypress(Space),,,,,,,,-- --- ---- --- ------ ----- ------- ---- -- --- ------- --<br>------- ---------- ------ -- ----- -- ----- -- ---- ------<br>--- ----- --- --- ------ -------- ----- --- ------ ----- --<br>----- ----- ---------- --- --- ------ ------ ---- -- ------<br>------- --- ------ ----- --- ---- ------- -- ---- --- --<br>------- money.,911839,911836,911408.4,911408,911409.58,911841.9,,55,money.
Item 100,flow.Loop,2_1_1_1,2022-04-28T10:00:38.570Z,,,,,,,,,,,,,,,,,,,,,,,,,,,,,,,17392.52000000002,,completion,,,,,D,,,,,,,,,,,silence,,,,,911840,911836,894426.82,894428,894443.48,911841.9,,,
Question 1,html.Screen,2_1_1_2,2022-04-28T10:00:41.154Z,,,,,,,,,,,,,,,,,,,,,,,,,,,,true,TRUE,,2580.0999999999767,,response,,,,100,D,,,,,,TRUE,click #choice-1,,,,silence,,,,,914424,914422,911840.38,911840,911841.9,914424.4,,,
Question 2,html.Screen,2_1_1_3,2022-04-28T10:00:43.646Z,,,,,,,,,,,,,,,,,,,,,,,,,,,,true,FALSE,,2488.5999999999767,,response,,,,100,D,,,,,,FALSE,click #choice-2,,,,silence,,,,,916916,916913,914423.68,914424,914424.4,916916.16,,,
Item 100,flow.Sequence,2_1_1,2022-04-28T10:00:43.646Z,,,,,,,,,,,,,,,,,,,,,,,,,,,,,,,32471.119999999995,,completion,,,,,,,,,,,,,,,,,,,,,916917,916913,884436.36,884438,884441.88,916916.16,,,
End of Practice,html.Page,2_1_2,2022-04-28T10:01:03.627Z,,,,,,,,,,,,,,,,,,,,,,,,,,,,,,,19997,,timeout,,,,,,,,,,,,,,,,,,,,,936896,936895.42,916915.52,916917,916916.16,936913.16,,,
Practice,flow.Sequence,2_1,2022-04-28T10:01:03.627Z,,,,,,,,,,,,,,,,,,,,,,,,,,,,,,,87607.44000000006,,completion,,,,,,,,,,,,,,,,,,,,,936896,936895.42,849287.3,849298,849287.98,936913.16,,,
Trap_instruction,html.Page,2_2_0,2022-04-28T10:01:23.630Z,,,,,,,,,,,,,,,,,,,,,,,,,,,,,,,20001.27999999991,,timeout,,,,,,,,,,,,,,,,,,,,,956899,956897.82,936895.42,936896,936913.16,956914.44,,,
trap_trial,html.Screen,2_2_1,2022-04-28T10:01:33.669Z,,,,,,,,,,,,,,,,,,,,,,,,,,,,true,1,,10019.560000000056,,response,,,,,,,,,,,1,click #choice-1,,,,,,,,,966937,966934,956897.82,956899,956914.44,966936.76,,,
end of trap trial,html.Page,2_2_2,2022-04-28T10:01:36.341Z,,,,,,,,,,,,,,,,,,,,,,,,,,,,,,,2672.2399999999907,,form submission,,,,,,,,,,,,,,,,,,,,,969609,969609,966936,966937,966936.76,969614.3,,,
Trap 1,flow.Sequence,2_2,2022-04-28T10:01:36.341Z,,,,,,,,,,,,,,,,,,,,,,,,,,,,,,,32695.839999999967,,completion,,,,,,,,,,,,,,,,,,,,,969609,969609,936895.42,936896,936913.16,969614.3,,,
Standby,html.Page,2_3_0,2022-04-28T10:01:44.331Z,,,,,,,,,,,,,,,,,,,,,,,,,,,,,,,8000.959999999963,,timeout,,,,,,,,,,,,,,,,,,,,,977599,977598.16,969605.08,969609,969614.3,977615.26,,,
Holding screen,html.Screen,2_3_1_0_0,2022-04-28T10:01:51.332Z,,,,,,,,,,,,,,,,,,,,,,,,,,,,,,,7001.179999999935,,timeout,,,,,,,,,,,,,,,,,,,,,984599,984599.22,977598.16,977599,977615.26,984616.44,,,
screen,html.Screen,2_3_1_0_1_0,2022-04-28T10:01:57.580Z,,,,,,,,,,,,,,,,,40,,,,,,,,,,,,,,6225.560000000056,,response,,,,9,D,,,,,,Space,keypress(Space),,,,speech,,,,Police -- ------- ---- ---- ---- - -------- ----- --- --<br>----- ----- ------ -- ---- -- --- - ---- -- - ----- -----<br>------ ---- ------ ---- - -------- ------- -- --- --------<br>-------- ----------- ---- ------ ---- ------ ---- --- ---<br>-------- --- -----,990848,990842,984599.22,984600,984616.44,990849.08,,0,Police
screen,html.Screen,2_3_1_0_1_1,2022-04-28T10:01:57.777Z,,,,,,,,,,,,,,,,,40,,,,,,,,,,,,,,190.9200000000419,,response,,,,9,D,,,,,,Space,keypress(Space),,,,speech,,,,------ in ------- ---- ---- ---- - -------- ----- --- --<br>----- ----- ------ -- ---- -- --- - ---- -- - ----- -----<br>------ ---- ------ ---- - -------- ------- -- --- --------<br>-------- ----------- ---- ------ ---- ------ ---- --- ---<br>-------- --- -----,991044,991040,990847.9,990848,990849.08,991050.14,,1,in
screen,html.Screen,2_3_1_0_1_2,2022-04-28T10:01:57.993Z,,,,,,,,,,,,,,,,,40,,,,,,,,,,,,,,206.85999999998603,,response,,,,9,D,,,,,,Space,keypress(Space),,,,speech,,,,------ -- Georgia ---- ---- ---- - -------- ----- --- --<br>----- ----- ------ -- ---- -- --- - ---- -- - ----- -----<br>------ ---- ------ ---- - -------- ------- -- --- --------<br>-------- ----------- ---- ------ ---- ------ ---- --- ---<br>-------- --- -----,991261,991257,991044.4,991044,991050.14,991262.92,,2,Georgia
screen,html.Screen,2_3_1_0_1_3,2022-04-28T10:01:58.209Z,,,,,,,,,,,,,,,,,40,,,,,,,,,,,,,,210.0799999999581,,response,,,,9,D,,,,,,Space,keypress(Space),,,,speech,,,,------ -- ------- have ---- ---- - -------- ----- --- --<br>----- ----- ------ -- ---- -- --- - ---- -- - ----- -----<br>------ ---- ------ ---- - -------- ------- -- --- --------<br>-------- ----------- ---- ------ ---- ------ ---- --- ---<br>-------- --- -----,991477,991473,991261.42,991262,991262.92,991483.5,,3,have
screen,html.Screen,2_3_1_0_1_4,2022-04-28T10:01:58.409Z,,,,,,,,,,,,,,,,,40,,,,,,,,,,,,,,188.5,,response,,,,9,D,,,,,,Space,keypress(Space),,,,speech,,,,------ -- ------- ---- shut ---- - -------- ----- --- --<br>----- ----- ------ -- ---- -- --- - ---- -- - ----- -----<br>------ ---- ------ ---- - -------- ------- -- --- --------<br>-------- ----------- ---- ------ ---- ------ ---- --- ---<br>-------- --- -----,991676,991672,991477.52,991477,991483.5,991682.48,,4,shut
screen,html.Screen,2_3_1_0_1_5,2022-04-28T10:01:58.612Z,,,,,,,,,,,,,,,,,40,,,,,,,,,,,,,,192.52000000001863,,response,,,,9,D,,,,,,Space,keypress(Space),,,,speech,,,,------ -- ------- ---- ---- down - -------- ----- --- --<br>----- ----- ------ -- ---- -- --- - ---- -- - ----- -----<br>------ ---- ------ ---- - -------- ------- -- --- --------<br>-------- ----------- ---- ------ ---- ------ ---- --- ---<br>-------- --- -----,991879,991875,991676.32,991676,991682.48,991883.52,,5,down
screen,html.Screen,2_3_1_0_1_6,2022-04-28T10:01:58.815Z,,,,,,,,,,,,,,,,,40,,,,,,,,,,,,,,194.47999999998137,,response,,,,9,D,,,,,,Space,keypress(Space),,,,speech,,,,------ -- ------- ---- ---- ---- a -------- ----- --- --<br>----- ----- ------ -- ---- -- --- - ---- -- - ----- -----<br>------ ---- ------ ---- - -------- ------- -- --- --------<br>-------- ----------- ---- ------ ---- ------ ---- --- ---<br>-------- --- -----,992083,992078,991879.4,991880,991883.52,992084.7,,6,a
screen,html.Screen,2_3_1_0_1_7,2022-04-28T10:01:59.015Z,,,,,,,,,,,,,,,,,40,,,,,,,,,,,,,,193.30000000004657,,response,,,,9,D,,,,,,Space,keypress(Space),,,,speech,,,,------ -- ------- ---- ---- ---- - lemonade ----- --- --<br>----- ----- ------ -- ---- -- --- - ---- -- - ----- -----<br>------ ---- ------ ---- - -------- ------- -- --- --------<br>-------- ----------- ---- ------ ---- ------ ---- --- ---<br>-------- --- -----,992283,992278,992083.4,992083,992084.7,992283.62,,7,lemonade
screen,html.Screen,2_3_1_0_1_8,2022-04-28T10:01:59.505Z,,,,,,,,,,,,,,,,,40,,,,,,,,,,,,,,484.38000000000466,,response,,,,9,D,,,,,,Space,keypress(Space),,,,speech,,,,------ -- ------- ---- ---- ---- - -------- stand --- --<br>----- ----- ------ -- ---- -- --- - ---- -- - ----- -----<br>------ ---- ------ ---- - -------- ------- -- --- --------<br>-------- ----------- ---- ------ ---- ------ ---- --- ---<br>-------- --- -----,992772,992768,992282.46,992283,992283.62,992773.72,,8,stand
screen,html.Screen,2_3_1_0_1_9,2022-04-28T10:01:59.729Z,,,,,,,,,,,,,,,,,40,,,,,,,,,,,,,,218.28000000002794,,response,,,,9,D,,,,,,Space,keypress(Space),,,,speech,,,,------ -- ------- ---- ---- ---- - -------- ----- run --<br>----- ----- ------ -- ---- -- --- - ---- -- - ----- -----<br>------ ---- ------ ---- - -------- ------- -- --- --------<br>-------- ----------- ---- ------ ---- ------ ---- --- ---<br>-------- --- -----,992996,992992,992772.4,992772,992773.72,992997.6,,9,run
screen,html.Screen,2_3_1_0_1_10,2022-04-28T10:01:59.916Z,,,,,,,,,,,,,,,,,40,,,,,,,,,,,,,,180.40000000002328,,response,,,,9,D,,,,,,Space,keypress(Space),,,,speech,,,,------ -- ------- ---- ---- ---- - -------- ----- --- by<br>----- ----- ------ -- ---- -- --- - ---- -- - ----- -----<br>------ ---- ------ ---- - -------- ------- -- --- --------<br>-------- ----------- ---- ------ ---- ------ ---- --- ---<br>-------- --- -----,993183,993178,992996.34,992996,992997.6,993199.22,,10,by
screen,html.Screen,2_3_1_0_1_11,2022-04-28T10:02:00.131Z,,,,,,,,,,,,,,,,,40,,,,,,,,,,,,,,194.78000000002794,,response,,,,9,D,,,,,,Space,keypress(Space),,,,speech,,,,------ -- ------- ---- ---- ---- - -------- ----- --- --<br>three ----- ------ -- ---- -- --- - ---- -- - ----- -----<br>------ ---- ------ ---- - -------- ------- -- --- --------<br>-------- ----------- ---- ------ ---- ------ ---- --- ---<br>-------- --- -----,993398,993394,993183.46,993183,993199.22,993399.72,,11,three
screen,html.Screen,2_3_1_0_1_12,2022-04-28T10:02:00.327Z,,,,,,,,,,,,,,,,,40,,,,,,,,,,,,,,190.28000000002794,,response,,,,9,D,,,,,,Space,keypress(Space),,,,speech,,,,------ -- ------- ---- ---- ---- - -------- ----- --- --<br>----- girls ------ -- ---- -- --- - ---- -- - ----- -----<br>------ ---- ------ ---- - -------- ------- -- --- --------<br>-------- ----------- ---- ------ ---- ------ ---- --- ---<br>-------- --- -----,993595,993590,993398.36,993398,993399.72,993600.32,,12,girls
screen,html.Screen,2_3_1_0_1_13,2022-04-28T10:02:00.736Z,,,,,,,,,,,,,,,,,40,,,,,,,,,,,,,,398.6800000000512,,response,,,,9,D,,,,,,Space,keypress(Space),,,,speech,,,,------ -- ------- ---- ---- ---- - -------- ----- --- --<br>----- ----- trying -- ---- -- --- - ---- -- - ----- -----<br>------ ---- ------ ---- - -------- ------- -- --- --------<br>-------- ----------- ---- ------ ---- ------ ---- --- ---<br>-------- --- -----,994004,993999,993595.12,993595,993600.32,994005.48,,13,trying
screen,html.Screen,2_3_1_0_1_14,2022-04-28T10:02:00.909Z,,,,,,,,,,,,,,,,,40,,,,,,,,,,,,,,167.52000000001863,,response,,,,9,D,,,,,,Space,keypress(Space),,,,speech,,,,------ -- ------- ---- ---- ---- - -------- ----- --- --<br>----- ----- ------ to ---- -- --- - ---- -- - ----- -----<br>------ ---- ------ ---- - -------- ------- -- --- --------<br>-------- ----------- ---- ------ ---- ------ ---- --- ---<br>-------- --- -----,994177,994173,994004.24,994004,994005.48,994183.76,,14,to
screen,html.Screen,2_3_1_0_1_15,2022-04-28T10:02:01.081Z,,,,,,,,,,,,,,,,,40,,,,,,,,,,,,,,161.2399999999907,,response,,,,9,D,,,,,,Space,keypress(Space),,,,speech,,,,------ -- ------- ---- ---- ---- - -------- ----- --- --<br>----- ----- ------ -- save -- --- - ---- -- - ----- -----<br>------ ---- ------ ---- - -------- ------- -- --- --------<br>-------- ----------- ---- ------ ---- ------ ---- --- ---<br>-------- --- -----,994349,994345,994177.36,994177,994183.76,994365.92,,15,save
screen,html.Screen,2_3_1_0_1_16,2022-04-28T10:02:01.288Z,,,,,,,,,,,,,,,,,40,,,,,,,,,,,,,,186.0799999999581,,response,,,,9,D,,,,,,Space,keypress(Space),,,,speech,,,,------ -- ------- ---- ---- ---- - -------- ----- --- --<br>----- ----- ------ -- ---- up --- - ---- -- - ----- -----<br>------ ---- ------ ---- - -------- ------- -- --- --------<br>-------- ----------- ---- ------ ---- ------ ---- --- ---<br>-------- --- -----,994556,994552,994349.4,994350,994365.92,994557.28,,16,up
screen,html.Screen,2_3_1_0_1_17,2022-04-28T10:02:01.483Z,,,,,,,,,,,,,,,,,40,,,,,,,,,,,,,,188.71999999997206,,response,,,,9,D,,,,,,Space,keypress(Space),,,,speech,,,,------ -- ------- ---- ---- ---- - -------- ----- --- --<br>----- ----- ------ -- ---- -- for - ---- -- - ----- -----<br>------ ---- ------ ---- - -------- ------- -- --- --------<br>-------- ----------- ---- ------ ---- ------ ---- --- ---<br>-------- --- -----,994750,994746,994556.12,994556,994557.28,994766.06,,17,for
screen,html.Screen,2_3_1_0_1_18,2022-04-28T10:02:01.659Z,,,,,,,,,,,,,,,,,40,,,,,,,,,,,,,,154.93999999994412,,response,,,,9,D,,,,,,Space,keypress(Space),,,,speech,,,,------ -- ------- ---- ---- ---- - -------- ----- --- --<br>----- ----- ------ -- ---- -- --- a ---- -- - ----- -----<br>------ ---- ------ ---- - -------- ------- -- --- --------<br>-------- ----------- ---- ------ ---- ------ ---- --- ---<br>-------- --- -----,994926,994921,994750.56,994750,994766.06,994927.88,,18,a
screen,html.Screen,2_3_1_0_1_19,2022-04-28T10:02:01.853Z,,,,,,,,,,,,,,,,,40,,,,,,,,,,,,,,187.11999999999534,,response,,,,9,D,,,,,,Space,keypress(Space),,,,speech,,,,------ -- ------- ---- ---- ---- - -------- ----- --- --<br>----- ----- ------ -- ---- -- --- - trip -- - ----- -----<br>------ ---- ------ ---- - -------- ------- -- --- --------<br>-------- ----------- ---- ------ ---- ------ ---- --- ---<br>-------- --- -----,995121,995115,994926.62,994927,994927.88,995133.7,,19,trip
screen,html.Screen,2_3_1_0_1_20,2022-04-28T10:02:02.067Z,,,,,,,,,,,,,,,,,40,,,,,,,,,,,,,,196.30000000004657,,response,,,,9,D,,,,,,Space,keypress(Space),,,,speech,,,,------ -- ------- ---- ---- ---- - -------- ----- --- --<br>----- ----- ------ -- ---- -- --- - ---- to - ----- -----<br>------ ---- ------ ---- - -------- ------- -- --- --------<br>-------- ----------- ---- ------ ---- ------ ---- --- ---<br>-------- --- -----,995335,995330,995120.52,995121,995133.7,995335.8,,20,to
screen,html.Screen,2_3_1_0_1_21,2022-04-28T10:02:02.284Z,,,,,,,,,,,,,,,,,40,,,,,,,,,,,,,,211.19999999995343,,response,,,,9,D,,,,,,Space,keypress(Space),,,,speech,,,,------ -- ------- ---- ---- ---- - -------- ----- --- --<br>----- ----- ------ -- ---- -- --- - ---- -- a ----- -----<br>------ ---- ------ ---- - -------- ------- -- --- --------<br>-------- ----------- ---- ------ ---- ------ ---- --- ---<br>-------- --- -----,995551,995547,995334.66,995335,995335.8,995552.88,,21,a
screen,html.Screen,2_3_1_0_1_22,2022-04-28T10:02:02.496Z,,,,,,,,,,,,,,,,,40,,,,,,,,,,,,,,206.11999999999534,,response,,,,9,D,,,,,,Space,keypress(Space),,,,speech,,,,------ -- ------- ---- ---- ---- - -------- ----- --- --<br>----- ----- ------ -- ---- -- --- - ---- -- - water -----<br>------ ---- ------ ---- - -------- ------- -- --- --------<br>-------- ----------- ---- ------ ---- ------ ---- --- ---<br>-------- --- -----,995764,995759,995551.44,995551,995552.88,995767.1,,22,water
screen,html.Screen,2_3_1_0_1_23,2022-04-28T10:02:02.695Z,,,,,,,,,,,,,,,,,40,,,,,,,,,,,,,,191.90000000002328,,response,,,,9,D,,,,,,Space,keypress(Space),,,,speech,,,,"------ -- ------- ---- ---- ---- - -------- ----- --- --<br>----- ----- ------ -- ---- -- --- - ---- -- - ----- park,<br>------ ---- ------ ---- - -------- ------- -- --- --------<br>-------- ----------- ---- ------ ---- ------ ---- --- ---<br>-------- --- -----",995962,995959,995763.98,995764,995767.1,995966.68,,23,"park,"
screen,html.Screen,2_3_1_0_1_24,2022-04-28T10:02:02.939Z,,,,,,,,,,,,,,,,,40,,,,,,,,,,,,,,234.31999999994878,,response,,,,9,D,,,,,,Space,keypress(Space),,,,speech,,,,------ -- ------- ---- ---- ---- - -------- ----- --- --<br>----- ----- ------ -- ---- -- --- - ---- -- - ----- -----<br>saying ---- ------ ---- - -------- ------- -- --- --------<br>-------- ----------- ---- ------ ---- ------ ---- --- ---<br>-------- --- -----,996206,996201,995962.6,995962,995966.68,996207.82,,24,saying
screen,html.Screen,2_3_1_0_1_25,2022-04-28T10:02:03.163Z,,,,,,,,,,,,,,,,,40,,,,,,,,,,,,,,218.18000000005122,,response,,,,9,D,,,,,,Space,keypress(Space),,,,speech,,,,------ -- ------- ---- ---- ---- - -------- ----- --- --<br>----- ----- ------ -- ---- -- --- - ---- -- - ----- -----<br>------ they ------ ---- - -------- ------- -- --- --------<br>-------- ----------- ---- ------ ---- ------ ---- --- ---<br>-------- --- -----,996430,996426,996206.52,996206,996207.82,996433.76,,25,they
screen,html.Screen,2_3_1_0_1_26,2022-04-28T10:02:03.400Z,,,,,,,,,,,,,,,,,40,,,,,,,,,,,,,,229.2399999999907,,response,,,,9,D,,,,,,Space,keypress(Space),,,,speech,,,,------ -- ------- ---- ---- ---- - -------- ----- --- --<br>----- ----- ------ -- ---- -- --- - ---- -- - ----- -----<br>------ ---- didn't ---- - -------- ------- -- --- --------<br>-------- ----------- ---- ------ ---- ------ ---- --- ---<br>-------- --- -----,996668,996663,996430.52,996430,996433.76,996669.34,,26,didn't
screen,html.Screen,2_3_1_0_1_27,2022-04-28T10:02:03.639Z,,,,,,,,,,,,,,,,,40,,,,,,,,,,,,,,232.6600000000326,,response,,,,9,D,,,,,,Space,keypress(Space),,,,speech,,,,------ -- ------- ---- ---- ---- - -------- ----- --- --<br>----- ----- ------ -- ---- -- --- - ---- -- - ----- -----<br>------ ---- ------ have - -------- ------- -- --- --------<br>-------- ----------- ---- ------ ---- ------ ---- --- ---<br>-------- --- -----,996907,996902,996668.14,996668,996669.34,996908.06,,27,have
screen,html.Screen,2_3_1_0_1_28,2022-04-28T10:02:03.844Z,,,,,,,,,,,,,,,,,40,,,,,,,,,,,,,,197.93999999994412,,response,,,,9,D,,,,,,Space,keypress(Space),,,,speech,,,,------ -- ------- ---- ---- ---- - -------- ----- --- --<br>----- ----- ------ -- ---- -- --- - ---- -- - ----- -----<br>------ ---- ------ ---- a -------- ------- -- --- --------<br>-------- ----------- ---- ------ ---- ------ ---- --- ---<br>-------- --- -----,997112,997106,996906.8,996907,996908.06,997117.22,,28,a
screen,html.Screen,2_3_1_0_1_29,2022-04-28T10:02:04.073Z,,,,,,,,,,,,,,,,,40,,,,,,,,,,,,,,217.78000000002794,,response,,,,9,D,,,,,,Space,keypress(Space),,,,speech,,,,------ -- ------- ---- ---- ---- - -------- ----- --- --<br>----- ----- ------ -- ---- -- --- - ---- -- - ----- -----<br>------ ---- ------ ---- - business ------- -- --- --------<br>-------- ----------- ---- ------ ---- ------ ---- --- ---<br>-------- --- -----,997340,997335,997111.64,997112,997117.22,997341.24,,29,business
screen,html.Screen,2_3_1_0_1_30,2022-04-28T10:02:04.285Z,,,,,,,,,,,,,,,,,40,,,,,,,,,,,,,,207.7600000000093,,response,,,,9,D,,,,,,Space,keypress(Space),,,,speech,,,,------ -- ------- ---- ---- ---- - -------- ----- --- --<br>----- ----- ------ -- ---- -- --- - ---- -- - ----- -----<br>------ ---- ------ ---- - -------- license -- --- --------<br>-------- ----------- ---- ------ ---- ------ ---- --- ---<br>-------- --- -----,997553,997549,997340,997340,997341.24,997567.26,,30,license
screen,html.Screen,2_3_1_0_1_31,2022-04-28T10:02:04.487Z,,,,,,,,,,,,,,,,,40,,,,,,,,,,,,,,183.7399999999907,,response,,,,9,D,,,,,,Space,keypress(Space),,,,speech,,,,------ -- ------- ---- ---- ---- - -------- ----- --- --<br>----- ----- ------ -- ---- -- --- - ---- -- - ----- -----<br>------ ---- ------ ---- - -------- ------- or --- --------<br>-------- ----------- ---- ------ ---- ------ ---- --- ---<br>-------- --- -----,997755,997751,997553.18,997553,997567.26,997767.32,,31,or
screen,html.Screen,2_3_1_0_1_32,2022-04-28T10:02:04.711Z,,,,,,,,,,,,,,,,,40,,,,,,,,,,,,,,206.68000000005122,,response,,,,9,D,,,,,,Space,keypress(Space),,,,speech,,,,------ -- ------- ---- ---- ---- - -------- ----- --- --<br>----- ----- ------ -- ---- -- --- - ---- -- - ----- -----<br>------ ---- ------ ---- - -------- ------- -- the --------<br>-------- ----------- ---- ------ ---- ------ ---- --- ---<br>-------- --- -----,997978,997974,997755.26,997755,997767.32,997979.44,,32,the
screen,html.Screen,2_3_1_0_1_33,2022-04-28T10:02:04.929Z,,,,,,,,,,,,,,,,,40,,,,,,,,,,,,,,212.56000000005588,,response,,,,9,D,,,,,,Space,keypress(Space),,,,speech,,,,------ -- ------- ---- ---- ---- - -------- ----- --- --<br>----- ----- ------ -- ---- -- --- - ---- -- - ----- -----<br>------ ---- ------ ---- - -------- ------- -- --- required<br>-------- ----------- ---- ------ ---- ------ ---- --- ---<br>-------- --- -----,998196,998192,997978.26,997978,997979.44,998199.66,,33,required
screen,html.Screen,2_3_1_0_1_34,2022-04-28T10:02:05.141Z,,,,,,,,,,,,,,,,,40,,,,,,,,,,,,,,205.3399999999674,,response,,,,9,D,,,,,,Space,keypress(Space),,,,speech,,,,------ -- ------- ---- ---- ---- - -------- ----- --- --<br>----- ----- ------ -- ---- -- --- - ---- -- - ----- -----<br>------ ---- ------ ---- - -------- ------- -- --- --------<br>permits. ----------- ---- ------ ---- ------ ---- --- ---<br>-------- --- -----,998409,998405,998196.82,998197,998199.66,998410.28,,34,permits.
screen,html.Screen,2_3_1_0_1_35,2022-04-28T10:02:05.362Z,,,,,,,,,,,,,,,,,40,,,,,,,,,,,,,,213.71999999997206,,response,,,,9,D,,,,,,Space,keypress(Space),,,,speech,,,,------ -- ------- ---- ---- ---- - -------- ----- --- --<br>----- ----- ------ -- ---- -- --- - ---- -- - ----- -----<br>------ ---- ------ ---- - -------- ------- -- --- --------<br>-------- Morningstar ---- ------ ---- ------ ---- --- ---<br>-------- --- -----,998629,998624,998409.06,998409,998410.28,998634.1,,35,Morningstar
screen,html.Screen,2_3_1_0_1_36,2022-04-28T10:02:05.836Z,,,,,,,,,,,,,,,,,40,,,,,,,,,,,,,,463.9000000000233,,response,,,,9,D,,,,,,Space,keypress(Space),,,,speech,,,,------ -- ------- ---- ---- ---- - -------- ----- --- --<br>----- ----- ------ -- ---- -- --- - ---- -- - ----- -----<br>------ ---- ------ ---- - -------- ------- -- --- --------<br>-------- ----------- says ------ ---- ------ ---- --- ---<br>-------- --- -----,999103,999098,998630.24,998630,998634.1,999104.52,,36,says
screen,html.Screen,2_3_1_0_1_37,2022-04-28T10:02:06.071Z,,,,,,,,,,,,,,,,,40,,,,,,,,,,,,,,230.47999999998137,,response,,,,9,D,,,,,,Space,keypress(Space),,,,speech,,,,------ -- ------- ---- ---- ---- - -------- ----- --- --<br>----- ----- ------ -- ---- -- --- - ---- -- - ----- -----<br>------ ---- ------ ---- - -------- ------- -- --- --------<br>-------- ----------- ---- police ---- ------ ---- --- ---<br>-------- --- -----,999338,999335,999103.36,999103,999104.52,999339.92,,37,police
screen,html.Screen,2_3_1_0_1_38,2022-04-28T10:02:06.282Z,,,,,,,,,,,,,,,,,40,,,,,,,,,,,,,,205.0799999999581,,response,,,,9,D,,,,,,Space,keypress(Space),,,,speech,,,,------ -- ------- ---- ---- ---- - -------- ----- --- --<br>----- ----- ------ -- ---- -- --- - ---- -- - ----- -----<br>------ ---- ------ ---- - -------- ------- -- --- --------<br>-------- ----------- ---- ------ also ------ ---- --- ---<br>-------- --- -----,999549,999545,999338.76,999338,999339.92,999551.64,,38,also
screen,html.Screen,2_3_1_0_1_39,2022-04-28T10:02:06.523Z,,,,,,,,,,,,,,,,,40,,,,,,,,,,,,,,235.35999999998603,,response,,,,9,D,,,,,,Space,keypress(Space),,,,speech,,,,------ -- ------- ---- ---- ---- - -------- ----- --- --<br>----- ----- ------ -- ---- -- --- - ---- -- - ----- -----<br>------ ---- ------ ---- - -------- ------- -- --- --------<br>-------- ----------- ---- ------ ---- didn't ---- --- ---<br>-------- --- -----,999791,999787,999550.18,999550,999551.64,999792.48,,39,didn't
screen,html.Screen,2_3_1_0_1_40,2022-04-28T10:02:06.787Z,,,,,,,,,,,,,,,,,40,,,,,,,,,,,,,,256.5200000000186,,response,,,,9,D,,,,,,Space,keypress(Space),,,,speech,,,,------ -- ------- ---- ---- ---- - -------- ----- --- --<br>----- ----- ------ -- ---- -- --- - ---- -- - ----- -----<br>------ ---- ------ ---- - -------- ------- -- --- --------<br>-------- ----------- ---- ------ ---- ------ know --- ---<br>-------- --- -----,1000054,1000049,999791.2,999791,999792.48,1000055.42,,40,know
screen,html.Screen,2_3_1_0_1_41,2022-04-28T10:02:07.050Z,,,,,,,,,,,,,,,,,40,,,,,,,,,,,,,,257.5799999999581,,response,,,,9,D,,,,,,Space,keypress(Space),,,,speech,,,,------ -- ------- ---- ---- ---- - -------- ----- --- --<br>----- ----- ------ -- ---- -- --- - ---- -- - ----- -----<br>------ ---- ------ ---- - -------- ------- -- --- --------<br>-------- ----------- ---- ------ ---- ------ ---- how ---<br>-------- --- -----,1000317,1000313,1000053.92,1000054,1000055.42,1000319.18,,41,how
screen,html.Screen,2_3_1_0_1_42,2022-04-28T10:02:07.341Z,,,,,,,,,,,,,,,,,40,,,,,,,,,,,,,,285.8199999999488,,response,,,,9,D,,,,,,Space,keypress(Space),,,,speech,,,,------ -- ------- ---- ---- ---- - -------- ----- --- --<br>----- ----- ------ -- ---- -- --- - ---- -- - ----- -----<br>------ ---- ------ ---- - -------- ------- -- --- --------<br>-------- ----------- ---- ------ ---- ------ ---- --- the<br>-------- --- -----,1000609,1000605,1000317.9,1000318,1000319.18,1000610.34,,42,the
screen,html.Screen,2_3_1_0_1_43,2022-04-28T10:02:07.719Z,,,,,,,,,,,,,,,,,40,,,,,,,,,,,,,,371.6600000000326,,response,,,,9,D,,,,,,Space,keypress(Space),,,,speech,,,,------ -- ------- ---- ---- ---- - -------- ----- --- --<br>----- ----- ------ -- ---- -- --- - ---- -- - ----- -----<br>------ ---- ------ ---- - -------- ------- -- --- --------<br>-------- ----------- ---- ------ ---- ------ ---- --- ---<br>lemonade --- -----,1000987,1000982,1000608.9,1000609,1000610.34,1000988.18,,43,lemonade
screen,html.Screen,2_3_1_0_1_44,2022-04-28T10:02:08.076Z,,,,,,,,,,,,,,,,,40,,,,,,,,,,,,,,349.8199999999488,,response,,,,9,D,,,,,,Space,keypress(Space),,,,speech,,,,------ -- ------- ---- ---- ---- - -------- ----- --- --<br>----- ----- ------ -- ---- -- --- - ---- -- - ----- -----<br>------ ---- ------ ---- - -------- ------- -- --- --------<br>-------- ----------- ---- ------ ---- ------ ---- --- ---<br>-------- was -----,1001342,1001338,1000987,1000987,1000988.18,1001344.02,,44,was
screen,html.Screen,2_3_1_0_1_45,2022-04-28T10:02:08.354Z,,,,,,,,,,,,,,,,,40,,,,,,,,,,,,,,272.9799999999814,,response,,,,9,D,,,,,,Space,keypress(Space),,,,speech,,,,------ -- ------- ---- ---- ---- - -------- ----- --- --<br>----- ----- ------ -- ---- -- --- - ---- -- - ----- -----<br>------ ---- ------ ---- - -------- ------- -- --- --------<br>-------- ----------- ---- ------ ---- ------ ---- --- ---<br>-------- --- made.,1001621,1001617,1001342.8,1001342,1001344.02,1001623.66,,45,made.
Item 9,flow.Loop,2_3_1_0_1,2022-04-28T10:02:08.354Z,,,,,,,,,,,,,,,,,,,,,,,,,,,,,,,17000.560000000056,,completion,,,,,,,,,,,,,,,,,,,,,1001622,1001617,984599.22,984600,984616.44,1001623.66,,,
Question 1,html.Screen,2_3_1_0_2,2022-04-28T10:02:10.133Z,,,,,,,,,,,,,,,,,,,,,,,,,,,,true,FALSE,,1773.3399999999674,,response,,,,9,D,,,,,,FALSE,click #choice-2,,,,speech,,,,,1003400,1003397,1001622.28,1001623,1001623.66,1003399.58,,,
Question 2,html.Screen,2_3_1_0_3,2022-04-28T10:02:11.959Z,,,,,,,,,,,,,,,,,,,,,,,,,,,,true,FALSE,,1824.420000000042,,response,,,,9,D,,,,,,FALSE,click #choice-2,,,,speech,,,,,1005226,1005224,1003398.88,1003400,1003399.58,1005226.32,,,
Item 9,flow.Sequence,2_3_1_0,2022-04-28T10:02:11.960Z,,,,,,,,,,,,,,,,,,,,,,,,,,,,,,,27608.73999999999,,completion,,,,,,,,,,,,,,,,,,,,,1005227,1005224,977598.16,977599,977615.26,1005226.32,,,
Holding screen,html.Screen,2_3_1_1_0,2022-04-28T10:02:18.935Z,,,,,,,,,,,,,,,,,,,,,,,,,,,,,,,6992.040000000037,,timeout,,,,,,,,,,,,,,,,,,,,,1012202,1012201.68,1005225.58,1005228,1005226.32,1012218.36,,,
screen,html.Screen,2_3_1_1_1_0,2022-04-28T10:02:25.936Z,,,,,,,,,,,,,,,,,19,,,,,,,,,,,,,,7000.479999999981,,timeout,,,,17,D,,,,,,,,,,,speech,,,,"Interestingly, --- -------- -------- ---------- ---- -------<br>-- ---------- -- --- ----- ------ ----- ---- --------- ----<br>------- ------ -------- -- ------ ---------- ------ ---<br>------ -- -- ---- -- ---------- -------- ------ ---- -------<br>---- --- --------- ------- ----- --------- ---- ----- --<br>------ -------- -- ------ -- ---- ------------",1019202,1019201.66,1012201.68,1012202,1012218.36,1019218.84,,0,"Interestingly,"
screen,html.Screen,2_3_1_1_1_1,2022-04-28T10:02:30.783Z,,,,,,,,,,,,,,,,,19,,,,,,,,,,,,,,4825.160000000033,,response,,,,17,D,,,,,,Space,keypress(Space),,,,speech,,,,-------------- the -------- -------- ---------- ---- -------<br>-- ---------- -- --- ----- ------ ----- ---- --------- ----<br>------- ------ -------- -- ------ ---------- ------ ---<br>------ -- -- ---- -- ---------- -------- ------ ---- -------<br>---- --- --------- ------- ----- --------- ---- ----- --<br>------ -------- -- ------ -- ---- ------------,1024049,1024044,1019201.66,1019203,1019218.84,1024052.16,,1,the
screen,html.Screen,2_3_1_1_1_2,2022-04-28T10:02:31.166Z,,,,,,,,,,,,,,,,,19,,,,,,,,,,,,,,375.8399999999674,,response,,,,17,D,,,,,,Space,keypress(Space),,,,speech,,,,-------------- --- heaviest -------- ---------- ---- -------<br>-- ---------- -- --- ----- ------ ----- ---- --------- ----<br>------- ------ -------- -- ------ ---------- ------ ---<br>------ -- -- ---- -- ---------- -------- ------ ---- -------<br>---- --- --------- ------- ----- --------- ---- ----- --<br>------ -------- -- ------ -- ---- ------------,1024432,1024428,1024049.3,1024049,1024052.16,1024434.94,,2,heaviest
screen,html.Screen,2_3_1_1_1_3,2022-04-28T10:02:31.373Z,,,,,,,,,,,,,,,,,19,,,,,,,,,,,,,,200.06000000005588,,response,,,,17,D,,,,,,Space,keypress(Space),,,,speech,,,,-------------- --- -------- isotopes ---------- ---- -------<br>-- ---------- -- --- ----- ------ ----- ---- --------- ----<br>------- ------ -------- -- ------ ---------- ------ ---<br>------ -- -- ---- -- ---------- -------- ------ ---- -------<br>---- --- --------- ------- ----- --------- ---- ----- --<br>------ -------- -- ------ -- ---- ------------,1024640,1024635,1024433.14,1024433,1024434.94,1024652.5,,3,isotopes
screen,html.Screen,2_3_1_1_1_4,2022-04-28T10:02:31.565Z,,,,,,,,,,,,,,,,,19,,,,,,,,,,,,,,174.5,,response,,,,17,D,,,,,,Space,keypress(Space),,,,speech,,,,-------------- --- -------- -------- physicists ---- -------<br>-- ---------- -- --- ----- ------ ----- ---- --------- ----<br>------- ------ -------- -- ------ ---------- ------ ---<br>------ -- -- ---- -- ---------- -------- ------ ---- -------<br>---- --- --------- ------- ----- --------- ---- ----- --<br>------ -------- -- ------ -- ---- ------------,1024832,1024827,1024639.76,1024640,1024652.5,1024835.9,,4,physicists
screen,html.Screen,2_3_1_1_1_5,2022-04-28T10:02:31.985Z,,,,,,,,,,,,,,,,,19,,,,,,,,,,,,,,411.0999999999767,,response,,,,17,D,,,,,,Space,keypress(Space),,,,speech,,,,-------------- --- -------- -------- ---------- have -------<br>-- ---------- -- --- ----- ------ ----- ---- --------- ----<br>------- ------ -------- -- ------ ---------- ------ ---<br>------ -- -- ---- -- ---------- -------- ------ ---- -------<br>---- --- --------- ------- ----- --------- ---- ----- --<br>------ -------- -- ------ -- ---- ------------,1025252,1025247,1024831.72,1024832,1024835.9,1025253.48,,5,have
screen,html.Screen,2_3_1_1_1_6,2022-04-28T10:02:32.176Z,,,,,,,,,,,,,,,,,19,,,,,,,,,,,,,,184.52000000001863,,response,,,,17,D,,,,,,Space,keypress(Space),,,,speech,,,,-------------- --- -------- -------- ---------- ---- managed<br>-- ---------- -- --- ----- ------ ----- ---- --------- ----<br>------- ------ -------- -- ------ ---------- ------ ---<br>------ -- -- ---- -- ---------- -------- ------ ---- -------<br>---- --- --------- ------- ----- --------- ---- ----- --<br>------ -------- -- ------ -- ---- ------------,1025443,1025438,1025251.62,1025252,1025253.48,1025452.48,,6,managed
screen,html.Screen,2_3_1_1_1_7,2022-04-28T10:02:32.515Z,,,,,,,,,,,,,,,,,19,,,,,,,,,,,,,,324.5200000000186,,response,,,,17,D,,,,,,Space,keypress(Space),,,,speech,,,,-------------- --- -------- -------- ---------- ---- -------<br>to ---------- -- --- ----- ------ ----- ---- --------- ----<br>------- ------ -------- -- ------ ---------- ------ ---<br>------ -- -- ---- -- ---------- -------- ------ ---- -------<br>---- --- --------- ------- ----- --------- ---- ----- --<br>------ -------- -- ------ -- ---- ------------,1025782,1025777,1025442.74,1025443,1025452.48,1025783.18,,7,to
screen,html.Screen,2_3_1_1_1_8,2022-04-28T10:02:32.777Z,,,,,,,,,,,,,,,,,19,,,,,,,,,,,,,,255.81999999994878,,response,,,,17,D,,,,,,Space,keypress(Space),,,,speech,,,,-------------- --- -------- -------- ---------- ---- -------<br>-- synthesize -- --- ----- ------ ----- ---- --------- ----<br>------- ------ -------- -- ------ ---------- ------ ---<br>------ -- -- ---- -- ---------- -------- ------ ---- -------<br>---- --- --------- ------- ----- --------- ---- ----- --<br>------ -------- -- ------ -- ---- ------------,1026044,1026039,1025781.82,1025782,1025783.18,1026044.94,,8,synthesize
screen,html.Screen,2_3_1_1_1_9,2022-04-28T10:02:33.217Z,,,,,,,,,,,,,,,,,19,,,,,,,,,,,,,,434.0600000000559,,response,,,,17,D,,,,,,Space,keypress(Space),,,,speech,,,,-------------- --- -------- -------- ---------- ---- -------<br>-- ---------- so --- ----- ------ ----- ---- --------- ----<br>------- ------ -------- -- ------ ---------- ------ ---<br>------ -- -- ---- -- ---------- -------- ------ ---- -------<br>---- --- --------- ------- ----- --------- ---- ----- --<br>------ -------- -- ------ -- ---- ------------,1026484,1026479,1026043.66,1026044,1026044.94,1026485.32,,9,so
