sender,sender_type,sender_id,timestamp,meta,,Blues,Classical,Country,Dance,Electronic,Folk,Gospel,Hip-Hop,Jazz,Latin,Musical/Film,New-age,Pop,Prolific_id,Provo_ID,R&B,Rap,Reggae,Religious,Rock,Soul,Swing,Traditional,age,artist_name,correct,correctResponse,distraction,duration,education,ended_on,familiarity,gender,headphone_check_performance,item,list,music_frequency,offensiveness,pleasantness,position_correct,preference,response,response_action,snippet_file,song_name,song_rating,sound,stimulus_1,stimulus_2,stimulus_3,text,time_commit,time_end,time_render,time_run,time_show,time_switch,url,word,word_ID
Prolific ID,html.Form,0,2022-05-02T09:45:20.065Z,"{""labjs_version"":""20.2.2"",""labjs_build"":{""flavor"":""production"",""commit"":""a25486e0c714a0ae2ce03ff94b7bb6896854dcfa""},""location"":""https://run.pavlovia.org/mvasilev/prolific3_music_e/"",""userAgent"":""Mozilla/5.0 (Windows NT 10.0; Win64; x64; rv:99.0) Gecko/20100101 Firefox/99.0"",""platform"":""Win32"",""language"":""en-GB"",""locale"":""en-GB"",""timeZone"":""Europe/London"",""timezoneOffset"":-60,""screen_width"":1920,""screen_height"":1080,""scroll_width"":1920,""scroll_height"":871,""window_innerWidth"":1920,""window_innerHeight"":919,""devicePixelRatio"":1}",,,,,,,,,,,,,,,5ec9c8ac6c15054fe7508271,,,,,,,,,,,,,,,10954.92,,form submission,,,,,,,,,,,,,,,,,,,,,17135,17135,6180,6180,6180.08,17138.1,{},,
Introduction,html.Screen,1_0,2022-05-02T09:45:26.013Z,,,,,,,,,,,,,,,,,,,,,,,,,,,,,,,5927.9000000000015,,response,,,,,,,,,,,continue,click button,,,,,,,,,23083,23066,17128.92,17136,17138.1,23088.36,,,
Volume calibration,html.Screen,1_1,2022-05-02T09:45:47.566Z,,,,,,,,,,,,,,,,,,,,,,,,,,,,,,,21524.64,,response,,,,,,,,,,,continue,click button,,,,,,,,,44635,44613,23080.86,23083,23088.36,44638.16,,,
Task instructions,html.Screen,1_2,2022-05-02T09:45:57.958Z,,,,,,,,,,,,,,,,,,,,,,,,,,,,,,,10364.839999999997,,response,,,,,,,,,,,continue,click button,,,,,,,,,55027,55003,44633.38,44636,44638.16,55038.32,,,
Sounds,html.Screen,1_3_0_0,2022-05-02T09:46:02.204Z,,,,,,,,,,,,,,,,,,,,,,,,,,,,,,,4249.919999999998,,timeout,,,,,,,,,1,,,,,,,,S,I,O,,59273,59271.58,55025.34,55027,55038.32,59288.24,,,
Judgement,html.Screen,1_3_0_1,2022-05-02T09:46:07.957Z,,,,,,,,,,,,,,,,,,,,,,,,,,,,true,1,,5730.760000000002,,response,,,,,,,,,1,,1,click #choice-1,,,,,S,I,O,,65027,65019,59271.58,59274,59288.24,65038.36,,,
Trial,flow.Sequence,1_3_0,2022-05-02T09:46:07.957Z,,,,,,,,,,,,,,,,,,,,,,,,,,,,,,,9980.68,,completion,,,,,,,,,1,,,,,,,,S,I,O,,65027,65019,55025.34,55027,55038.32,65038.36,,,
Sounds,html.Screen,1_3_1_0,2022-05-02T09:46:12.203Z,,,,,,,,,,,,,,,,,,,,,,,,,,,,,,,4249.860000000001,,timeout,,,,,,,,,2,,,,,,,,I,S,O,,69273,69271.56,65024.88,65027,65038.36,69288.22,,,
Judgement,html.Screen,1_3_1_1,2022-05-02T09:46:13.829Z,,,,,,,,,,,,,,,,,,,,,,,,,,,,true,2,,1589.7799999999988,,response,,,,,,,,,2,,2,click #choice-2,,,,,I,S,O,,70899,70878,69271.56,69274,69288.22,70904.94,,,
Trial,flow.Sequence,1_3_1,2022-05-02T09:46:13.829Z,,,,,,,,,,,,,,,,,,,,,,,,,,,,,,,5839.639999999999,,completion,,,,,,,,,2,,,,,,,,I,S,O,,70899,70878,65024.88,65027,65038.36,70904.94,,,
Sounds,html.Screen,1_3_2_0,2022-05-02T09:46:18.072Z,,,,,,,,,,,,,,,,,,,,,,,,,,,,,,,4250.059999999998,,timeout,,,,,,,,,2,,,,,,,,O,S,I,,75141,75138.34,70897.34,70899,70904.94,75155,,,
Judgement,html.Screen,1_3_2_1,2022-05-02T09:46:19.110Z,,,,,,,,,,,,,,,,,,,,,,,,,,,,true,2,,1004,,response,,,,,,,,,2,,2,click #choice-2,,,,,O,S,I,,76179,76159,75138.34,75142,75155,76188.4,,,
Trial,flow.Sequence,1_3_2,2022-05-02T09:46:19.110Z,,,,,,,,,,,,,,,,,,,,,,,,,,,,,,,5254.059999999998,,completion,,,,,,,,,2,,,,,,,,O,S,I,,76180,76159,70897.34,70899,70904.94,76188.4,,,
Sounds,html.Screen,1_3_3_0,2022-05-02T09:46:23.353Z,,,,,,,,,,,,,,,,,,,,,,,,,,,,,,,4249.940000000002,,timeout,,,,,,,,,3,,,,,,,,O,I,S,,80423,80421.68,76177.04,76180,76188.4,80438.34,,,
Judgement,html.Screen,1_3_3_1,2022-05-02T09:46:24.549Z,,,,,,,,,,,,,,,,,,,,,,,,,,,,true,3,,1159.6600000000035,,response,,,,,,,,,3,,3,click #choice-3,,,,,O,I,S,,81619,81598,80421.68,80424,80438.34,81621.52,,,
Trial,flow.Sequence,1_3_3,2022-05-02T09:46:24.550Z,,,,,,,,,,,,,,,,,,,,,,,,,,,,,,,5409.600000000006,,completion,,,,,,,,,3,,,,,,,,O,I,S,,81619,81598,76177.04,76180,76188.4,81621.52,,,
Sounds,html.Screen,1_3_4_0,2022-05-02T09:46:28.787Z,,,,,,,,,,,,,,,,,,,,,,,,,,,,,,,4250,,timeout,,,,,,,,,3,,,,,,,,I,O,S,,85856,85855,81617.22,81620,81621.52,85871.52,,,
Judgement,html.Screen,1_3_4_1,2022-05-02T09:46:30.454Z,,,,,,,,,,,,,,,,,,,,,,,,,,,,true,3,,1631.479999999996,,response,,,,,,,,,3,,3,click #choice-3,,,,,I,O,S,,87523,87503,85855,85857,85871.52,87521.46,,,
Trial,flow.Sequence,1_3_4,2022-05-02T09:46:30.454Z,,,,,,,,,,,,,,,,,,,,,,,,,,,,,,,5881.479999999996,,completion,,,,,,,,,3,,,,,,,,I,O,S,,87523,87503,81617.22,81620,81621.52,87521.46,,,
Sounds,html.Screen,1_3_5_0,2022-05-02T09:46:34.686Z,,,,,,,,,,,,,,,,,,,,,,,,,,,,,,,4250.139999999999,,timeout,,,,,,,,,1,,,,,,,,S,O,I,,91756,91754.94,87520.98,87524,87521.46,91771.6,,,
Judgement,html.Screen,1_3_5_1,2022-05-02T09:46:35.757Z,,,,,,,,,,,,,,,,,,,,,,,,,,,,true,1,,1045.3999999999942,,response,,,,,,,,,1,,1,click #choice-1,,,,,S,O,I,,92827,92817,91754.94,91757,91771.6,92838.46,,,
Trial,flow.Sequence,1_3_5,2022-05-02T09:46:35.758Z,,,,,,,,,,,,,,,,,,,,,,,,,,,,,,,5295.539999999994,,completion,,,,,,,,,1,,,,,,,,S,O,I,,92828,92817,87520.98,87524,87521.46,92838.46,,,
Task,flow.Loop,1_3,2022-05-02T09:46:35.758Z,,,,,,,,,,,,,,,,,,,,,,,,,,,,,,,37778.68,,completion,,,1,,,,,,,,,,,,,,,,,,92828,92817,55025.34,55027,55038.32,92838.46,,,
Trap,html.Screen,1_4,2022-05-02T09:46:35.760Z,,,,,,,,,,,,,,,,,,,,,,,,,,,,,,,NaN,,skipped,,,,,,,,,,,,,,,,,,,,,92830,92817,,92830,,92838.46,,,
Thanks,html.Screen,1_5,2022-05-02T09:46:38.886Z,,,,,,,,,,,,,,,,,,,,,,,,,,,,,,,3102.5399999999936,,response,,,,,,,,,,,continue,click button,,,,,,,,,95955,95941,92825.42,92830,92838.46,99054.82,,,
Headphone screening,flow.Sequence,1,2022-05-02T09:46:38.886Z,,,,,,,,,,,,,,,,,,,,,,,,,,,,,,,78802.9,,completion,,,,,,,,,,,,,,,,,,,,,95955,95941,17128.92,17136,17138.1,99054.82,,,
Instructions,html.Page,2_0,2022-05-02T09:47:00.441Z,,,,,,,,,,,,,,,,,,,,,,,,,,,,,,,18455.179999999993,,form submission,,,,,,,,,,,,,,,,,,,,,117511,117510,99041.64,99041,99054.82,117504.78,,,
Holding screen,html.Screen,2_1_0_0,2022-05-02T09:47:10.420Z,,,,,,,,,,,,,,,,,,,,,,,,,,,,,,,10000.059999999998,,timeout,,,,,,,,,,,,,,,,,,,,,127490,127488.18,117504.72,117512,117504.78,127504.84,,,
screen,html.Screen,2_1_0_1_0,2022-05-02T09:47:11.405Z,,,,,,,,,,,,,,,,,53,,,,,,,,,,,,,,952.1600000000035,,response,,,,99,,,,,,,Space,keypress(Space),,,,,,,,When -- ----- -- ------ - ------- --- ----------<br>------------- ------ ------ ---- ---- ------- ----- -- ----<br>-------- ------- -- ---------- --- - --- ----- ----- ----<br>---- --- --- ----- --- ---- ---- ------- ----- ---- -------<br>--- --- -- ----- -- --- ---- -- --- ---- -- ------ ------<br>--- ----- -- ----,128474,128457,127488.18,127490,127504.84,128474.74,,0,When
screen,html.Screen,2_1_0_1_1,2022-05-02T09:47:11.965Z,,,,,,,,,,,,,,,,,53,,,,,,,,,,,,,,544.2599999999948,,response,,,,99,,,,,,,Space,keypress(Space),,,,,,,,---- it ----- -- ------ - ------- --- ----------<br>------------- ------ ------ ---- ---- ------- ----- -- ----<br>-------- ------- -- ---------- --- - --- ----- ----- ----<br>---- --- --- ----- --- ---- ---- ------- ----- ---- -------<br>--- --- -- ----- -- --- ---- -- --- ---- -- ------ ------<br>--- ----- -- ----,129035,129019,128474.52,128474,128474.74,129035.42,,1,it
screen,html.Screen,2_1_0_1_2,2022-05-02T09:47:12.517Z,,,,,,,,,,,,,,,,,53,,,,,,,,,,,,,,530.5800000000017,,response,,,,99,,,,,,,Space,keypress(Space),,,,,,,,---- -- comes -- ------ - ------- --- ----------<br>------------- ------ ------ ---- ---- ------- ----- -- ----<br>-------- ------- -- ---------- --- - --- ----- ----- ----<br>---- --- --- ----- --- ---- ---- ------- ----- ---- -------<br>--- --- -- ----- -- --- ---- -- --- ---- -- ------ ------<br>--- ----- -- ----,129587,129566,129034.86,129035,129035.42,129588.12,,2,comes
screen,html.Screen,2_1_0_1_3,2022-05-02T09:47:13.879Z,,,,,,,,,,,,,,,,,53,,,,,,,,,,,,,,1353.8800000000047,,response,,,,99,,,,,,,Space,keypress(Space),,,,,,,,---- -- ----- to ------ - ------- --- ----------<br>------------- ------ ------ ---- ---- ------- ----- -- ----<br>-------- ------- -- ---------- --- - --- ----- ----- ----<br>---- --- --- ----- --- ---- ---- ------- ----- ---- -------<br>--- --- -- ----- -- --- ---- -- --- ---- -- ------ ------<br>--- ----- -- ----,130948,130942,129587.28,129587,129588.12,130948.8,,3,to
screen,html.Screen,2_1_0_1_4,2022-05-02T09:47:14.542Z,,,,,,,,,,,,,,,,,53,,,,,,,,,,,,,,648.1999999999971,,response,,,,99,,,,,,,Space,keypress(Space),,,,,,,,---- -- ----- -- having - ------- --- ----------<br>------------- ------ ------ ---- ---- ------- ----- -- ----<br>-------- ------- -- ---------- --- - --- ----- ----- ----<br>---- --- --- ----- --- ---- ---- ------- ----- ---- -------<br>--- --- -- ----- -- --- ---- -- --- ---- -- ------ ------<br>--- ----- -- ----,131611,131597,130948.36,130948,130948.8,131611.94,,4,having
screen,html.Screen,2_1_0_1_5,2022-05-02T09:47:15.069Z,,,,,,,,,,,,,,,,,53,,,,,,,,,,,,,,516.0599999999977,,response,,,,99,,,,,,,Space,keypress(Space),,,,,,,,---- -- ----- -- ------ a ------- --- ----------<br>------------- ------ ------ ---- ---- ------- ----- -- ----<br>-------- ------- -- ---------- --- - --- ----- ----- ----<br>---- --- --- ----- --- ---- ---- ------- ----- ---- -------<br>--- --- -- ----- -- --- ---- -- --- ---- -- ------ ------<br>--- ----- -- ----,132139,132128,131611.4,131611,131611.94,132139.02,,5,a
screen,html.Screen,2_1_0_1_6,2022-05-02T09:47:15.540Z,,,,,,,,,,,,,,,,,53,,,,,,,,,,,,,,457.9800000000105,,response,,,,99,,,,,,,Space,keypress(Space),,,,,,,,---- -- ----- -- ------ - lasting --- ----------<br>------------- ------ ------ ---- ---- ------- ----- -- ----<br>-------- ------- -- ---------- --- - --- ----- ----- ----<br>---- --- --- ----- --- ---- ---- ------- ----- ---- -------<br>--- --- -- ----- -- --- ---- -- --- ---- -- ------ ------<br>--- ----- -- ----,132610,132597,132138.64,132139,132139.02,132610.38,,6,lasting
screen,html.Screen,2_1_0_1_7,2022-05-02T09:47:15.990Z,,,,,,,,,,,,,,,,,53,,,,,,,,,,,,,,423.61999999999534,,response,,,,99,,,,,,,Space,keypress(Space),,,,,,,,---- -- ----- -- ------ - ------- and ----------<br>------------- ------ ------ ---- ---- ------- ----- -- ----<br>-------- ------- -- ---------- --- - --- ----- ----- ----<br>---- --- --- ----- --- ---- ---- ------- ----- ---- -------<br>--- --- -- ----- -- --- ---- -- --- ---- -- ------ ------<br>--- ----- -- ----,133060,133034,132609.84,132610,132610.38,133060.62,,7,and
screen,html.Screen,2_1_0_1_8,2022-05-02T09:47:16.629Z,,,,,,,,,,,,,,,,,53,,,,,,,,,,,,,,614.3800000000047,,response,,,,99,,,,,,,Space,keypress(Space),,,,,,,,---- -- ----- -- ------ - ------- --- fulfilling<br>------------- ------ ------ ---- ---- ------- ----- -- ----<br>-------- ------- -- ---------- --- - --- ----- ----- ----<br>---- --- --- ----- --- ---- ---- ------- ----- ---- -------<br>--- --- -- ----- -- --- ---- -- --- ---- -- ------ ------<br>--- ----- -- ----,133698,133675,133060.02,133060,133060.62,133699.48,,8,fulfilling
screen,html.Screen,2_1_0_1_9,2022-05-02T09:47:17.286Z,,,,,,,,,,,,,,,,,53,,,,,,,,,,,,,,647.5199999999895,,response,,,,99,,,,,,,Space,keypress(Space),,,,,,,,"---- -- ----- -- ------ - ------- --- ----------<br>relationship, ------ ------ ---- ---- ------- ----- -- ----<br>-------- ------- -- ---------- --- - --- ----- ----- ----<br>---- --- --- ----- --- ---- ---- ------- ----- ---- -------<br>--- --- -- ----- -- --- ---- -- --- ---- -- ------ ------<br>--- ----- -- ----",134356,134347,133699.08,133699,133699.48,134356.22,,9,"relationship,"
screen,html.Screen,2_1_0_1_10,2022-05-02T09:47:17.733Z,,,,,,,,,,,,,,,,,53,,,,,,,,,,,,,,427.77999999999884,,response,,,,99,,,,,,,Space,keypress(Space),,,,,,,,---- -- ----- -- ------ - ------- --- ----------<br>------------- common ------ ---- ---- ------- ----- -- ----<br>-------- ------- -- ---------- --- - --- ----- ----- ----<br>---- --- --- ----- --- ---- ---- ------- ----- ---- -------<br>--- --- -- ----- -- --- ---- -- --- ---- -- ------ ------<br>--- ----- -- ----,134803,134784,134355.72,134356,134356.22,134804.9,,10,common
screen,html.Screen,2_1_0_1_11,2022-05-02T09:47:18.213Z,,,,,,,,,,,,,,,,,53,,,,,,,,,,,,,,464.1000000000058,,response,,,,99,,,,,,,Space,keypress(Space),,,,,,,,---- -- ----- -- ------ - ------- --- ----------<br>------------- ------ wisdom ---- ---- ------- ----- -- ----<br>-------- ------- -- ---------- --- - --- ----- ----- ----<br>---- --- --- ----- --- ---- ---- ------- ----- ---- -------<br>--- --- -- ----- -- --- ---- -- --- ---- -- ------ ------<br>--- ----- -- ----,135283,135269,134803.06,134803,134804.9,135283.76,,11,wisdom
screen,html.Screen,2_1_0_1_12,2022-05-02T09:47:18.612Z,,,,,,,,,,,,,,,,,53,,,,,,,,,,,,,,391.2399999999907,,response,,,,99,,,,,,,Space,keypress(Space),,,,,,,,---- -- ----- -- ------ - ------- --- ----------<br>------------- ------ ------ says ---- ------- ----- -- ----<br>-------- ------- -- ---------- --- - --- ----- ----- ----<br>---- --- --- ----- --- ---- ---- ------- ----- ---- -------<br>--- --- -- ----- -- --- ---- -- --- ---- -- ------ ------<br>--- ----- -- ----,135681,135675,135283.14,135283,135283.76,135681.92,,12,says
screen,html.Screen,2_1_0_1_13,2022-05-02T09:47:19.029Z,,,,,,,,,,,,,,,,,53,,,,,,,,,,,,,,399.0799999999872,,response,,,,99,,,,,,,Space,keypress(Space),,,,,,,,---- -- ----- -- ------ - ------- --- ----------<br>------------- ------ ------ ---- that ------- ----- -- ----<br>-------- ------- -- ---------- --- - --- ----- ----- ----<br>---- --- --- ----- --- ---- ---- ------- ----- ---- -------<br>--- --- -- ----- -- --- ---- -- --- ---- -- ------ ------<br>--- ----- -- ----,136099,136081,135681.6,135681,135681.92,136099.82,,13,that
screen,html.Screen,2_1_0_1_14,2022-05-02T09:47:19.437Z,,,,,,,,,,,,,,,,,53,,,,,,,,,,,,,,389.179999999993,,response,,,,99,,,,,,,Space,keypress(Space),,,,,,,,---- -- ----- -- ------ - ------- --- ----------<br>------------- ------ ------ ---- ---- feeling ----- -- ----<br>-------- ------- -- ---------- --- - --- ----- ----- ----<br>---- --- --- ----- --- ---- ---- ------- ----- ---- -------<br>--- --- -- ----- -- --- ---- -- --- ---- -- ------ ------<br>--- ----- -- ----,136507,136489,136099.3,136099,136099.82,136508.12,,14,feeling
screen,html.Screen,2_1_0_1_15,2022-05-02T09:47:19.958Z,,,,,,,,,,,,,,,,,53,,,,,,,,,,,,,,510.88000000000466,,response,,,,99,,,,,,,Space,keypress(Space),,,,,,,,---- -- ----- -- ------ - ------- --- ----------<br>------------- ------ ------ ---- ---- ------- close -- ----<br>-------- ------- -- ---------- --- - --- ----- ----- ----<br>---- --- --- ----- --- ---- ---- ------- ----- ---- -------<br>--- --- -- ----- -- --- ---- -- --- ---- -- ------ ------<br>--- ----- -- ----,137027,137019,136507.64,136508,136508.12,137027.72,,15,close
screen,html.Screen,2_1_0_1_16,2022-05-02T09:47:20.414Z,,,,,,,,,,,,,,,,,53,,,,,,,,,,,,,,445.27999999999884,,response,,,,99,,,,,,,Space,keypress(Space),,,,,,,,---- -- ----- -- ------ - ------- --- ----------<br>------------- ------ ------ ---- ---- ------- ----- to ----<br>-------- ------- -- ---------- --- - --- ----- ----- ----<br>---- --- --- ----- --- ---- ---- ------- ----- ---- -------<br>--- --- -- ----- -- --- ---- -- --- ---- -- ------ ------<br>--- ----- -- ----,137483,137473,137027.2,137027,137027.72,137483.72,,16,to
screen,html.Screen,2_1_0_1_17,2022-05-02T09:47:20.869Z,,,,,,,,,,,,,,,,,53,,,,,,,,,,,,,,441.27999999999884,,response,,,,99,,,,,,,Space,keypress(Space),,,,,,,,---- -- ----- -- ------ - ------- --- ----------<br>------------- ------ ------ ---- ---- ------- ----- -- your<br>-------- ------- -- ---------- --- - --- ----- ----- ----<br>---- --- --- ----- --- ---- ---- ------- ----- ---- -------<br>--- --- -- ----- -- --- ---- -- --- ---- -- ------ ------<br>--- ----- -- ----,137939,137925,137483.16,137483,137483.72,137939.9,,17,your
screen,html.Screen,2_1_0_1_18,2022-05-02T09:47:21.382Z,,,,,,,,,,,,,,,,,53,,,,,,,,,,,,,,501.1000000000058,,response,,,,99,,,,,,,Space,keypress(Space),,,,,,,,---- -- ----- -- ------ - ------- --- ----------<br>------------- ------ ------ ---- ---- ------- ----- -- ----<br>romantic ------- -- ---------- --- - --- ----- ----- ----<br>---- --- --- ----- --- ---- ---- ------- ----- ---- -------<br>--- --- -- ----- -- --- ---- -- --- ---- -- ------ ------<br>--- ----- -- ----,138451,138441,137939.34,137939,137939.9,138451.56,,18,romantic
screen,html.Screen,2_1_0_1_19,2022-05-02T09:47:21.870Z,,,,,,,,,,,,,,,,,53,,,,,,,,,,,,,,473.4400000000023,,response,,,,99,,,,,,,Space,keypress(Space),,,,,,,,---- -- ----- -- ------ - ------- --- ----------<br>------------- ------ ------ ---- ---- ------- ----- -- ----<br>-------- partner -- ---------- --- - --- ----- ----- ----<br>---- --- --- ----- --- ---- ---- ------- ----- ---- -------<br>--- --- -- ----- -- --- ---- -- --- ---- -- ------ ------<br>--- ----- -- ----,138939,138925,138451.08,138451,138451.56,138940.1,,19,partner
screen,html.Screen,2_1_0_1_20,2022-05-02T09:47:22.317Z,,,,,,,,,,,,,,,,,53,,,,,,,,,,,,,,437.8999999999942,,response,,,,99,,,,,,,Space,keypress(Space),,,,,,,,---- -- ----- -- ------ - ------- --- ----------<br>------------- ------ ------ ---- ---- ------- ----- -- ----<br>-------- ------- is ---------- --- - --- ----- ----- ----<br>---- --- --- ----- --- ---- ---- ------- ----- ---- -------<br>--- --- -- ----- -- --- ---- -- --- ---- -- ------ ------<br>--- ----- -- ----,139388,139378,138939.52,138939,138940.1,139388.22,,20,is
screen,html.Screen,2_1_0_1_21,2022-05-02T09:47:22.813Z,,,,,,,,,,,,,,,,,53,,,,,,,,,,,,,,474.77999999999884,,response,,,,99,,,,,,,Space,keypress(Space),,,,,,,,---- -- ----- -- ------ - ------- --- ----------<br>------------- ------ ------ ---- ---- ------- ----- -- ----<br>-------- ------- -- paramount. --- - --- ----- ----- ----<br>---- --- --- ----- --- ---- ---- ------- ----- ---- -------<br>--- --- -- ----- -- --- ---- -- --- ---- -- ------ ------<br>--- ----- -- ----,139882,139863,139387.72,139388,139388.22,139883.26,,21,paramount.
screen,html.Screen,2_1_0_1_22,2022-05-02T09:47:23.358Z,,,,,,,,,,,,,,,,,53,,,,,,,,,,,,,,525.7399999999907,,response,,,,99,,,,,,,Space,keypress(Space),,,,,,,,---- -- ----- -- ------ - ------- --- ----------<br>------------- ------ ------ ---- ---- ------- ----- -- ----<br>-------- ------- -- ---------- But - --- ----- ----- ----<br>---- --- --- ----- --- ---- ---- ------- ----- ---- -------<br>--- --- -- ----- -- --- ---- -- --- ---- -- ------ ------<br>--- ----- -- ----,140427,140409,139882.72,139882,139883.26,140427.78,,22,But
screen,html.Screen,2_1_0_1_23,2022-05-02T09:47:23.742Z,,,,,,,,,,,,,,,,,53,,,,,,,,,,,,,,372.22000000000116,,response,,,,99,,,,,,,Space,keypress(Space),,,,,,,,---- -- ----- -- ------ - ------- --- ----------<br>------------- ------ ------ ---- ---- ------- ----- -- ----<br>-------- ------- -- ---------- --- a --- ----- ----- ----<br>---- --- --- ----- --- ---- ---- ------- ----- ---- -------<br>--- --- -- ----- -- --- ---- -- --- ---- -- ------ ------<br>--- ----- -- ----,140810,140800,140427.38,140428,140427.78,140811.9,,23,a
screen,html.Screen,2_1_0_1_24,2022-05-02T09:47:24.118Z,,,,,,,,,,,,,,,,,53,,,,,,,,,,,,,,363.1000000000058,,response,,,,99,,,,,,,Space,keypress(Space),,,,,,,,---- -- ----- -- ------ - ------- --- ----------<br>------------- ------ ------ ---- ---- ------- ----- -- ----<br>-------- ------- -- ---------- --- - new ----- ----- ----<br>---- --- --- ----- --- ---- ---- ------- ----- ---- -------<br>--- --- -- ----- -- --- ---- -- --- ---- -- ------ ------<br>--- ----- -- ----,141187,141175,140811.44,140811,140811.9,141188.12,,24,new
screen,html.Screen,2_1_0_1_25,2022-05-02T09:47:24.493Z,,,,,,,,,,,,,,,,,53,,,,,,,,,,,,,,361.88000000000466,,response,,,,99,,,,,,,Space,keypress(Space),,,,,,,,---- -- ----- -- ------ - ------- --- ----------<br>------------- ------ ------ ---- ---- ------- ----- -- ----<br>-------- ------- -- ---------- --- - --- study ----- ----<br>---- --- --- ----- --- ---- ---- ------- ----- ---- -------<br>--- --- -- ----- -- --- ---- -- --- ---- -- ------ ------<br>--- ----- -- ----,141562,141550,141187.42,141188,141188.12,141563.56,,25,study
screen,html.Screen,2_1_0_1_26,2022-05-02T09:47:24.861Z,,,,,,,,,,,,,,,,,53,,,,,,,,,,,,,,361.4400000000023,,response,,,,99,,,,,,,Space,keypress(Space),,,,,,,,---- -- ----- -- ------ - ------- --- ----------<br>------------- ------ ------ ---- ---- ------- ----- -- ----<br>-------- ------- -- ---------- --- - --- ----- finds ----<br>---- --- --- ----- --- ---- ---- ------- ----- ---- -------<br>--- --- -- ----- -- --- ---- -- --- ---- -- ------ ------<br>--- ----- -- ----,141931,141925,141563,141562,141563.56,141931.72,,26,finds
screen,html.Screen,2_1_0_1_27,2022-05-02T09:47:25.285Z,,,,,,,,,,,,,,,,,53,,,,,,,,,,,,,,415.27999999999884,,response,,,,99,,,,,,,Space,keypress(Space),,,,,,,,---- -- ----- -- ------ - ------- --- ----------<br>------------- ------ ------ ---- ---- ------- ----- -- ----<br>-------- ------- -- ---------- --- - --- ----- ----- that<br>---- --- --- ----- --- ---- ---- ------- ----- ---- -------<br>--- --- -- ----- -- --- ---- -- --- ---- -- ------ ------<br>--- ----- -- ----,142355,142347,141931.16,141931,141931.72,142356.04,,27,that
screen,html.Screen,2_1_0_1_28,2022-05-02T09:47:25.726Z,,,,,,,,,,,,,,,,,53,,,,,,,,,,,,,,427.95999999999185,,response,,,,99,,,,,,,Space,keypress(Space),,,,,,,,---- -- ----- -- ------ - ------- --- ----------<br>------------- ------ ------ ---- ---- ------- ----- -- ----<br>-------- ------- -- ---------- --- - --- ----- ----- ----<br>it's --- --- ----- --- ---- ---- ------- ----- ---- -------<br>--- --- -- ----- -- --- ---- -- --- ---- -- ------ ------<br>--- ----- -- ----,142795,142784,142355.52,142355,142356.04,142796.34,,28,it's
screen,html.Screen,2_1_0_1_29,2022-05-02T09:47:26.109Z,,,,,,,,,,,,,,,,,53,,,,,,,,,,,,,,379.6600000000035,,response,,,,99,,,,,,,Space,keypress(Space),,,,,,,,---- -- ----- -- ------ - ------- --- ----------<br>------------- ------ ------ ---- ---- ------- ----- -- ----<br>-------- ------- -- ---------- --- - --- ----- ----- ----<br>---- not --- ----- --- ---- ---- ------- ----- ---- -------<br>--- --- -- ----- -- --- ---- -- --- ---- -- ------ ------<br>--- ----- -- ----,143179,143176,142795.78,142795,142796.34,143180.2,,29,not
screen,html.Screen,2_1_0_1_30,2022-05-02T09:47:26.406Z,,,,,,,,,,,,,,,,,53,,,,,,,,,,,,,,292.79999999998836,,response,,,,99,,,,,,,Space,keypress(Space),,,,,,,,---- -- ----- -- ------ - ------- --- ----------<br>------------- ------ ------ ---- ---- ------- ----- -- ----<br>-------- ------- -- ---------- --- - --- ----- ----- ----<br>---- --- how ----- --- ---- ---- ------- ----- ---- -------<br>--- --- -- ----- -- --- ---- -- --- ---- -- ------ ------<br>--- ----- -- ----,143476,143473,143179.64,143179,143180.2,143476.04,,30,how
screen,html.Screen,2_1_0_1_31,2022-05-02T09:47:26.686Z,,,,,,,,,,,,,,,,,53,,,,,,,,,,,,,,261.95999999999185,,response,,,,99,,,,,,,Space,keypress(Space),,,,,,,,---- -- ----- -- ------ - ------- --- ----------<br>------------- ------ ------ ---- ---- ------- ----- -- ----<br>-------- ------- -- ---------- --- - --- ----- ----- ----<br>---- --- --- close --- ---- ---- ------- ----- ---- -------<br>--- --- -- ----- -- --- ---- -- --- ---- -- ------ ------<br>--- ----- -- ----,143755,143738,143475.5,143476,143476.04,143756.2,,31,close
screen,html.Screen,2_1_0_1_32,2022-05-02T09:47:27.125Z,,,,,,,,,,,,,,,,,53,,,,,,,,,,,,,,434.79999999998836,,response,,,,99,,,,,,,Space,keypress(Space),,,,,,,,---- -- ----- -- ------ - ------- --- ----------<br>------------- ------ ------ ---- ---- ------- ----- -- ----<br>-------- ------- -- ---------- --- - --- ----- ----- ----<br>---- --- --- ----- you ---- ---- ------- ----- ---- -------<br>--- --- -- ----- -- --- ---- -- --- ---- -- ------ ------<br>--- ----- -- ----,144195,144191,143755.64,143756,143756.2,144195.86,,32,you
screen,html.Screen,2_1_0_1_33,2022-05-02T09:47:27.397Z,,,,,,,,,,,,,,,,,53,,,,,,,,,,,,,,260.14000000001397,,response,,,,99,,,,,,,Space,keypress(Space),,,,,,,,---- -- ----- -- ------ - ------- --- ----------<br>------------- ------ ------ ---- ---- ------- ----- -- ----<br>-------- ------- -- ---------- --- - --- ----- ----- ----<br>---- --- --- ----- --- feel ---- ------- ----- ---- -------<br>--- --- -- ----- -- --- ---- -- --- ---- -- ------ ------<br>--- ----- -- ----,144467,144456,144195.28,144195,144195.86,144467.72,,33,feel
screen,html.Screen,2_1_0_1_34,2022-05-02T09:47:27.694Z,,,,,,,,,,,,,,,,,53,,,,,,,,,,,,,,285.27999999999884,,response,,,,99,,,,,,,Space,keypress(Space),,,,,,,,---- -- ----- -- ------ - ------- --- ----------<br>------------- ------ ------ ---- ---- ------- ----- -- ----<br>-------- ------- -- ---------- --- - --- ----- ----- ----<br>---- --- --- ----- --- ---- that ------- ----- ---- -------<br>--- --- -- ----- -- --- ---- -- --- ---- -- ------ ------<br>--- ----- -- ----,144763,144753,144467.24,144467,144467.72,144763.7,,34,that
screen,html.Screen,2_1_0_1_35,2022-05-02T09:47:28.102Z,,,,,,,,,,,,,,,,,53,,,,,,,,,,,,,,395.29999999998836,,response,,,,99,,,,,,,Space,keypress(Space),,,,,,,,---- -- ----- -- ------ - ------- --- ----------<br>------------- ------ ------ ---- ---- ------- ----- -- ----<br>-------- ------- -- ---------- --- - --- ----- ----- ----<br>---- --- --- ----- --- ---- ---- matters ----- ---- -------<br>--- --- -- ----- -- --- ---- -- --- ---- -- ------ ------<br>--- ----- -- ----,145172,145159,144763.14,144763,144763.7,145172.1,,35,matters
screen,html.Screen,2_1_0_1_36,2022-05-02T09:47:28.510Z,,,,,,,,,,,,,,,,,53,,,,,,,,,,,,,,393.8999999999942,,response,,,,99,,,,,,,Space,keypress(Space),,,,,,,,"---- -- ----- -- ------ - ------- --- ----------<br>------------- ------ ------ ---- ---- ------- ----- -- ----<br>-------- ------- -- ---------- --- - --- ----- ----- ----<br>---- --- --- ----- --- ---- ---- ------- most, ---- -------<br>--- --- -- ----- -- --- ---- -- --- ---- -- ------ ------<br>--- ----- -- ----",145580,145566,145171.62,145172,145172.1,145580.1,,36,"most,"
screen,html.Screen,2_1_0_1_37,2022-05-02T09:47:29.062Z,,,,,,,,,,,,,,,,,53,,,,,,,,,,,,,,532.8999999999942,,response,,,,99,,,,,,,Space,keypress(Space),,,,,,,,---- -- ----- -- ------ - ------- --- ----------<br>------------- ------ ------ ---- ---- ------- ----- -- ----<br>-------- ------- -- ---------- --- - --- ----- ----- ----<br>---- --- --- ----- --- ---- ---- ------- ----- it's -------<br>--- --- -- ----- -- --- ---- -- --- ---- -- ------ ------<br>--- ----- -- ----,146132,146113,145579.54,145580,145580.1,146132.34,,37,it's
screen,html.Screen,2_1_0_1_38,2022-05-02T09:47:29.414Z,,,,,,,,,,,,,,,,,53,,,,,,,,,,,,,,339.6600000000035,,response,,,,99,,,,,,,Space,keypress(Space),,,,,,,,---- -- ----- -- ------ - ------- --- ----------<br>------------- ------ ------ ---- ---- ------- ----- -- ----<br>-------- ------- -- ---------- --- - --- ----- ----- ----<br>---- --- --- ----- --- ---- ---- ------- ----- ---- whether<br>--- --- -- ----- -- --- ---- -- --- ---- -- ------ ------<br>--- ----- -- ----,146483,146472,146131.8,146132,146132.34,146483.7,,38,whether
screen,html.Screen,2_1_0_1_39,2022-05-02T09:47:29.846Z,,,,,,,,,,,,,,,,,53,,,,,,,,,,,,,,425.29999999998836,,response,,,,99,,,,,,,Space,keypress(Space),,,,,,,,---- -- ----- -- ------ - ------- --- ----------<br>------------- ------ ------ ---- ---- ------- ----- -- ----<br>-------- ------- -- ---------- --- - --- ----- ----- ----<br>---- --- --- ----- --- ---- ---- ------- ----- ---- -------<br>you --- -- ----- -- --- ---- -- --- ---- -- ------ ------<br>--- ----- -- ----,146916,146909,146483.22,146483,146483.7,146916.1,,39,you
screen,html.Screen,2_1_0_1_40,2022-05-02T09:47:30.278Z,,,,,,,,,,,,,,,,,53,,,,,,,,,,,,,,415.8999999999942,,response,,,,99,,,,,,,Space,keypress(Space),,,,,,,,---- -- ----- -- ------ - ------- --- ----------<br>------------- ------ ------ ---- ---- ------- ----- -- ----<br>-------- ------- -- ---------- --- - --- ----- ----- ----<br>---- --- --- ----- --- ---- ---- ------- ----- ---- -------<br>--- are -- ----- -- --- ---- -- --- ---- -- ------ ------<br>--- ----- -- ----,147347,147332,146915.6,146916,146916.1,147348.24,,40,are
screen,html.Screen,2_1_0_1_41,2022-05-02T09:47:30.598Z,,,,,,,,,,,,,,,,,53,,,,,,,,,,,,,,311.7600000000093,,response,,,,99,,,,,,,Space,keypress(Space),,,,,,,,---- -- ----- -- ------ - ------- --- ----------<br>------------- ------ ------ ---- ---- ------- ----- -- ----<br>-------- ------- -- ---------- --- - --- ----- ----- ----<br>---- --- --- ----- --- ---- ---- ------- ----- ---- -------<br>--- --- as ----- -- --- ---- -- --- ---- -- ------ ------<br>--- ----- -- ----,147667,147660,147347.72,147348,147348.24,147668.14,,41,as
screen,html.Screen,2_1_0_1_42,2022-05-02T09:47:31.021Z,,,,,,,,,,,,,,,,,53,,,,,,,,,,,,,,412.85999999998603,,response,,,,99,,,,,,,Space,keypress(Space),,,,,,,,---- -- ----- -- ------ - ------- --- ----------<br>------------- ------ ------ ---- ---- ------- ----- -- ----<br>-------- ------- -- ---------- --- - --- ----- ----- ----<br>---- --- --- ----- --- ---- ---- ------- ----- ---- -------<br>--- --- -- close -- --- ---- -- --- ---- -- ------ ------<br>--- ----- -- ----,148091,148081,147667.62,147667,147668.14,148091.38,,42,close
screen,html.Screen,2_1_0_1_43,2022-05-02T09:47:31.413Z,,,,,,,,,,,,,,,,,53,,,,,,,,,,,,,,380.61999999999534,,response,,,,99,,,,,,,Space,keypress(Space),,,,,,,,---- -- ----- -- ------ - ------- --- ----------<br>------------- ------ ------ ---- ---- ------- ----- -- ----<br>-------- ------- -- ---------- --- - --- ----- ----- ----<br>---- --- --- ----- --- ---- ---- ------- ----- ---- -------<br>--- --- -- ----- as --- ---- -- --- ---- -- ------ ------<br>--- ----- -- ----,148483,148472,148090.9,148091,148091.38,148483.82,,43,as
screen,html.Screen,2_1_0_1_44,2022-05-02T09:47:31.781Z,,,,,,,,,,,,,,,,,53,,,,,,,,,,,,,,363.179999999993,,response,,,,99,,,,,,,Space,keypress(Space),,,,,,,,---- -- ----- -- ------ - ------- --- ----------<br>------------- ------ ------ ---- ---- ------- ----- -- ----<br>-------- ------- -- ---------- --- - --- ----- ----- ----<br>---- --- --- ----- --- ---- ---- ------- ----- ---- -------<br>--- --- -- ----- -- you ---- -- --- ---- -- ------ ------<br>--- ----- -- ----,148851,148847,148483.24,148484,148483.82,148851.84,,44,you
screen,html.Screen,2_1_0_1_45,2022-05-02T09:47:32.133Z,,,,,,,,,,,,,,,,,53,,,,,,,,,,,,,,339.1600000000035,,response,,,,99,,,,,,,Space,keypress(Space),,,,,,,,---- -- ----- -- ------ - ------- --- ----------<br>------------- ------ ------ ---- ---- ------- ----- -- ----<br>-------- ------- -- ---------- --- - --- ----- ----- ----<br>---- --- --- ----- --- ---- ---- ------- ----- ---- -------<br>--- --- -- ----- -- --- want -- --- ---- -- ------ ------<br>--- ----- -- ----,149203,149191,148851.28,148851,148851.84,149204.92,,45,want
screen,html.Screen,2_1_0_1_46,2022-05-02T09:47:32.550Z,,,,,,,,,,,,,,,,,53,,,,,,,,,,,,,,408.0799999999872,,response,,,,99,,,,,,,Space,keypress(Space),,,,,,,,---- -- ----- -- ------ - ------- --- ----------<br>------------- ------ ------ ---- ---- ------- ----- -- ----<br>-------- ------- -- ---------- --- - --- ----- ----- ----<br>---- --- --- ----- --- ---- ---- ------- ----- ---- -------<br>--- --- -- ----- -- --- ---- to --- ---- -- ------ ------<br>--- ----- -- ----,149619,149613,149202.98,149203,149204.92,149619.96,,46,to
screen,html.Screen,2_1_0_1_47,2022-05-02T09:47:32.925Z,,,,,,,,,,,,,,,,,53,,,,,,,,,,,,,,368.04000000000815,,response,,,,99,,,,,,,Space,keypress(Space),,,,,,,,"---- -- ----- -- ------ - ------- --- ----------<br>------------- ------ ------ ---- ---- ------- ----- -- ----<br>-------- ------- -- ---------- --- - --- ----- ----- ----<br>---- --- --- ----- --- ---- ---- ------- ----- ---- -------<br>--- --- -- ----- -- --- ---- -- be, ---- -- ------ ------<br>--- ----- -- ----",149994,149988,149619.4,149619,149619.96,149995.7,,47,"be,"
screen,html.Screen,2_1_0_1_48,2022-05-02T09:47:33.317Z,,,,,,,,,,,,,,,,,53,,,,,,,,,,,,,,382.29999999998836,,response,,,,99,,,,,,,Space,keypress(Space),,,,,,,,---- -- ----- -- ------ - ------- --- ----------<br>------------- ------ ------ ---- ---- ------- ----- -- ----<br>-------- ------- -- ---------- --- - --- ----- ----- ----<br>---- --- --- ----- --- ---- ---- ------- ----- ---- -------<br>--- --- -- ----- -- --- ---- -- --- even -- ------ ------<br>--- ----- -- ----,150387,150378,149995.14,149995,149995.7,150387.62,,48,even
screen,html.Screen,2_1_0_1_49,2022-05-02T09:47:33.710Z,,,,,,,,,,,,,,,,,53,,,,,,,,,,,,,,381.38000000000466,,response,,,,99,,,,,,,Space,keypress(Space),,,,,,,,---- -- ----- -- ------ - ------- --- ----------<br>------------- ------ ------ ---- ---- ------- ----- -- ----<br>-------- ------- -- ---------- --- - --- ----- ----- ----<br>---- --- --- ----- --- ---- ---- ------- ----- ---- -------<br>--- --- -- ----- -- --- ---- -- --- ---- if ------ ------<br>--- ----- -- ----,150779,150769,150387.06,150387,150387.62,150779.88,,49,if
screen,html.Screen,2_1_0_1_50,2022-05-02T09:47:34.118Z,,,,,,,,,,,,,,,,,53,,,,,,,,,,,,,,395.11999999999534,,response,,,,99,,,,,,,Space,keypress(Space),,,,,,,,---- -- ----- -- ------ - ------- --- ----------<br>------------- ------ ------ ---- ---- ------- ----- -- ----<br>-------- ------- -- ---------- --- - --- ----- ----- ----<br>---- --- --- ----- --- ---- ---- ------- ----- ---- -------<br>--- --- -- ----- -- --- ---- -- --- ---- -- that's ------<br>--- ----- -- ----,151188,151175,150779.3,150779,150779.88,151188.06,,50,that's
screen,html.Screen,2_1_0_1_51,2022-05-02T09:47:34.725Z,,,,,,,,,,,,,,,,,53,,,,,,,,,,,,,,595.9400000000023,,response,,,,99,,,,,,,Space,keypress(Space),,,,,,,,---- -- ----- -- ------ - ------- --- ----------<br>------------- ------ ------ ---- ---- ------- ----- -- ----<br>-------- ------- -- ---------- --- - --- ----- ----- ----<br>---- --- --- ----- --- ---- ---- ------- ----- ---- -------<br>--- --- -- ----- -- --- ---- -- --- ---- -- ------ really<br>--- ----- -- ----,151795,151784,151187.62,151188,151188.06,151796.12,,51,really
screen,html.Screen,2_1_0_1_52,2022-05-02T09:47:35.117Z,,,,,,,,,,,,,,,,,53,,,,,,,,,,,,,,378.88000000000466,,response,,,,99,,,,,,,Space,keypress(Space),,,,,,,,---- -- ----- -- ------ - ------- --- ----------<br>------------- ------ ------ ---- ---- ------- ----- -- ----<br>-------- ------- -- ---------- --- - --- ----- ----- ----<br>---- --- --- ----- --- ---- ---- ------- ----- ---- -------<br>--- --- -- ----- -- --- ---- -- --- ---- -- ------ ------<br>not ----- -- ----,152187,152175,151795.58,151796,151796.12,152188.02,,52,not
screen,html.Screen,2_1_0_1_53,2022-05-02T09:47:35.557Z,,,,,,,,,,,,,,,,,53,,,,,,,,,,,,,,424.9800000000105,,response,,,,99,,,,,,,Space,keypress(Space),,,,,,,,---- -- ----- -- ------ - ------- --- ----------<br>------------- ------ ------ ---- ---- ------- ----- -- ----<br>-------- ------- -- ---------- --- - --- ----- ----- ----<br>---- --- --- ----- --- ---- ---- ------- ----- ---- -------<br>--- --- -- ----- -- --- ---- -- --- ---- -- ------ ------<br>--- close -- ----,152627,152613,152187.46,152187,152188.02,152628.04,,53,close
screen,html.Screen,2_1_0_1_54,2022-05-02T09:47:36.037Z,,,,,,,,,,,,,,,,,53,,,,,,,,,,,,,,468.95999999999185,,response,,,,99,,,,,,,Space,keypress(Space),,,,,,,,---- -- ----- -- ------ - ------- --- ----------<br>------------- ------ ------ ---- ---- ------- ----- -- ----<br>-------- ------- -- ---------- --- - --- ----- ----- ----<br>---- --- --- ----- --- ---- ---- ------- ----- ---- -------<br>--- --- -- ----- -- --- ---- -- --- ---- -- ------ ------<br>--- ----- at ----,153106,153097,152627.48,152627,152628.04,153106.84,,54,at
screen,html.Screen,2_1_0_1_55,2022-05-02T09:47:37.453Z,,,,,,,,,,,,,,,,,53,,,,,,,,,,,,,,1412.1600000000035,,response,,,,99,,,,,,,Space,keypress(Space),,,,,,,,---- -- ----- -- ------ - ------- --- ----------<br>------------- ------ ------ ---- ---- ------- ----- -- ----<br>-------- ------- -- ---------- --- - --- ----- ----- ----<br>---- --- --- ----- --- ---- ---- ------- ----- ---- -------<br>--- --- -- ----- -- --- ---- -- --- ---- -- ------ ------<br>--- ----- -- all.,154523,154519,153106.46,153106,153106.84,154523.8,,55,all.
Item 99,flow.Loop,2_1_0_1,2022-05-02T09:47:37.454Z,,,,,,,,,,,,,,,,,,,,,,,,,,,,,,,27014.160000000003,,completion,,,,,E,,,,,,,,,,,silence,,,,,154523,154519,127488.18,127490,127504.84,154523.8,,,
Question 1,html.Screen,2_1_0_2,2022-05-02T09:47:42.325Z,,,,,,,,,,,,,,,,,,,,,,,,,,,,true,FALSE,,4854.200000000012,,response,,,,99,E,,,,,,FALSE,click #choice-2,,,,silence,,,,,159395,159378,154523.4,154523,154523.8,159404.98,,,
Question 2,html.Screen,2_1_0_3,2022-05-02T09:47:46.285Z,,,,,,,,,,,,,,,,,,,,,,,,,,,,true,TRUE,,3942.0199999999895,,response,,,,99,E,,,,,,TRUE,click #choice-1,,,,silence,,,,,163354,163347,159393.4,159395,159404.98,163354.88,,,
Item 99,flow.Sequence,2_1_0,2022-05-02T09:47:46.286Z,,,,,,,,,,,,,,,,,,,,,,,,,,,,,,,45842.22,,completion,,,,,,,,,,,,,,,,,,,,,163355,163347,117504.72,117512,117504.78,163354.88,,,
Holding screen,html.Screen,2_1_1_0,2022-05-02T09:47:56.269Z,,,,,,,,,,,,,,,,,,,,,,,,,,,,,,,10000.100000000006,,timeout,,,,,,,,,,,,,,,,,,,,,173340,173338.32,163353.14,163355,163354.88,173354.98,,,
screen,html.Screen,2_1_1_1_0,2022-05-02T09:47:57.029Z,,,,,,,,,,,,,,,,,54,,,,,,,,,,,,,,726.0199999999895,,response,,,,100,,,,,,,Space,keypress(Space),,,,,,,,At --- ---- --- ------ ----- ------- ---- -- --- ------- --<br>------- ---------- ------ -- ----- -- ----- -- ---- ------<br>--- ----- --- --- ------ -------- ----- --- ------ ----- --<br>----- ----- ---------- --- --- ------ ------ ---- -- ------<br>------- --- ------ ----- --- ---- ------- -- ---- --- --<br>------- ------,174099,174081,173338.32,173341,173354.98,174099.98,,0,At
screen,html.Screen,2_1_1_1_1,2022-05-02T09:47:57.326Z,,,,,,,,,,,,,,,,,54,,,,,,,,,,,,,,278.0199999999895,,response,,,,100,,,,,,,Space,keypress(Space),,,,,,,,-- the ---- --- ------ ----- ------- ---- -- --- ------- --<br>------- ---------- ------ -- ----- -- ----- -- ---- ------<br>--- ----- --- --- ------ -------- ----- --- ------ ----- --<br>----- ----- ---------- --- --- ------ ------ ---- -- ------<br>------- --- ------ ----- --- ---- ------- -- ---- --- --<br>------- ------,174395,174378,174099.48,174099,174099.98,174396.06,,1,the
screen,html.Screen,2_1_1_1_2,2022-05-02T09:47:57.558Z,,,,,,,,,,,,,,,,,54,,,,,,,,,,,,,,216.94000000000233,,response,,,,100,,,,,,,Space,keypress(Space),,,,,,,,-- --- time --- ------ ----- ------- ---- -- --- ------- --<br>------- ---------- ------ -- ----- -- ----- -- ---- ------<br>--- ----- --- --- ------ -------- ----- --- ------ ----- --<br>----- ----- ---------- --- --- ------ ------ ---- -- ------<br>------- --- ------ ----- --- ---- ------- -- ---- --- --<br>------- ------,174627,174613,174395.74,174396,174396.06,174628.14,,2,time
screen,html.Screen,2_1_1_1_3,2022-05-02T09:47:57.758Z,,,,,,,,,,,,,,,,,54,,,,,,,,,,,,,,188.85999999998603,,response,,,,100,,,,,,,Space,keypress(Space),,,,,,,,-- --- ---- the ------ ----- ------- ---- -- --- ------- --<br>------- ---------- ------ -- ----- -- ----- -- ---- ------<br>--- ----- --- --- ------ -------- ----- --- ------ ----- --<br>----- ----- ---------- --- --- ------ ------ ---- -- ------<br>------- --- ------ ----- --- ---- ------- -- ---- --- --<br>------- ------,174827,174817,174627.78,174628,174628.14,174838.16,,3,the
screen,html.Screen,2_1_1_1_4,2022-05-02T09:47:58.013Z,,,,,,,,,,,,,,,,,54,,,,,,,,,,,,,,228.8399999999965,,response,,,,100,,,,,,,Space,keypress(Space),,,,,,,,-- --- ---- --- French ----- ------- ---- -- --- ------- --<br>------- ---------- ------ -- ----- -- ----- -- ---- ------<br>--- ----- --- --- ------ -------- ----- --- ------ ----- --<br>----- ----- ---------- --- --- ------ ------ ---- -- ------<br>------- --- ------ ----- --- ---- ------- -- ---- --- --<br>------- ------,175083,175067,174827.44,174827,174838.16,175083.28,,4,French
screen,html.Screen,2_1_1_1_5,2022-05-02T09:47:58.356Z,,,,,,,,,,,,,,,,,54,,,,,,,,,,,,,,325.72000000000116,,response,,,,100,,,,,,,Space,keypress(Space),,,,,,,,-- --- ---- --- ------ crown ------- ---- -- --- ------- --<br>------- ---------- ------ -- ----- -- ----- -- ---- ------<br>--- ----- --- --- ------ -------- ----- --- ------ ----- --<br>----- ----- ---------- --- --- ------ ------ ---- -- ------<br>------- --- ------ ----- --- ---- ------- -- ---- --- --<br>------- ------,175426,175409,175082.72,175083,175083.28,175426.78,,5,crown
screen,html.Screen,2_1_1_1_6,2022-05-02T09:47:58.733Z,,,,,,,,,,,,,,,,,54,,,,,,,,,,,,,,357.22000000000116,,response,,,,100,,,,,,,Space,keypress(Space),,,,,,,,-- --- ---- --- ------ ----- secured ---- -- --- ------- --<br>------- ---------- ------ -- ----- -- ----- -- ---- ------<br>--- ----- --- --- ------ -------- ----- --- ------ ----- --<br>----- ----- ---------- --- --- ------ ------ ---- -- ------<br>------- --- ------ ----- --- ---- ------- -- ---- --- --<br>------- ------,175802,175784,175426.44,175426,175426.78,175802.92,,6,secured
screen,html.Screen,2_1_1_1_7,2022-05-02T09:47:59.269Z,,,,,,,,,,,,,,,,,54,,,,,,,,,,,,,,528.0799999999872,,response,,,,100,,,,,,,Space,keypress(Space),,,,,,,,-- --- ---- --- ------ ----- ------- much -- --- ------- --<br>------- ---------- ------ -- ----- -- ----- -- ---- ------<br>--- ----- --- --- ------ -------- ----- --- ------ ----- --<br>----- ----- ---------- --- --- ------ ------ ---- -- ------<br>------- --- ------ ----- --- ---- ------- -- ---- --- --<br>------- ------,176339,176331,175802.36,175802,175802.92,176340.04,,7,much
screen,html.Screen,2_1_1_1_8,2022-05-02T09:47:59.669Z,,,,,,,,,,,,,,,,,54,,,,,,,,,,,,,,381.95999999999185,,response,,,,100,,,,,,,Space,keypress(Space),,,,,,,,-- --- ---- --- ------ ----- ------- ---- of --- ------- --<br>------- ---------- ------ -- ----- -- ----- -- ---- ------<br>--- ----- --- --- ------ -------- ----- --- ------ ----- --<br>----- ----- ---------- --- --- ------ ------ ---- -- ------<br>------- --- ------ ----- --- ---- ------- -- ---- --- --<br>------- ------,176739,176722,176339.46,176339,176340.04,176739.82,,8,of
screen,html.Screen,2_1_1_1_9,2022-05-02T09:48:00.086Z,,,,,,,,,,,,,,,,,54,,,,,,,,,,,,,,404.179999999993,,response,,,,100,,,,,,,Space,keypress(Space),,,,,,,,-- --- ---- --- ------ ----- ------- ---- -- its ------- --<br>------- ---------- ------ -- ----- -- ----- -- ---- ------<br>--- ----- --- --- ------ -------- ----- --- ------ ----- --<br>----- ----- ---------- --- --- ------ ------ ---- -- ------<br>------- --- ------ ----- --- ---- ------- -- ---- --- --<br>------- ------,177155,177144,176739.34,176739,176739.82,177156.12,,9,its
screen,html.Screen,2_1_1_1_10,2022-05-02T09:48:00.486Z,,,,,,,,,,,,,,,,,54,,,,,,,,,,,,,,393.88000000000466,,response,,,,100,,,,,,,Space,keypress(Space),,,,,,,,-- --- ---- --- ------ ----- ------- ---- -- --- revenue --<br>------- ---------- ------ -- ----- -- ----- -- ---- ------<br>--- ----- --- --- ------ -------- ----- --- ------ ----- --<br>----- ----- ---------- --- --- ------ ------ ---- -- ------<br>------- --- ------ ----- --- ---- ------- -- ---- --- --<br>------- ------,177556,177550,177155.56,177156,177156.12,177556.44,,10,revenue
screen,html.Screen,2_1_1_1_11,2022-05-02T09:48:00.853Z,,,,,,,,,,,,,,,,,54,,,,,,,,,,,,,,352.5599999999977,,response,,,,100,,,,,,,Space,keypress(Space),,,,,,,,-- --- ---- --- ------ ----- ------- ---- -- --- ------- by<br>------- ---------- ------ -- ----- -- ----- -- ---- ------<br>--- ----- --- --- ------ -------- ----- --- ------ ----- --<br>----- ----- ---------- --- --- ------ ------ ---- -- ------<br>------- --- ------ ----- --- ---- ------- -- ---- --- --<br>------- ------,177922,177909,177555.86,177556,177556.44,177923.28,,11,by
screen,html.Screen,2_1_1_1_12,2022-05-02T09:48:01.270Z,,,,,,,,,,,,,,,,,54,,,,,,,,,,,,,,392.72000000000116,,response,,,,100,,,,,,,Space,keypress(Space),,,,,,,,-- --- ---- --- ------ ----- ------- ---- -- --- ------- --<br>issuing ---------- ------ -- ----- -- ----- -- ---- ------<br>--- ----- --- --- ------ -------- ----- --- ------ ----- --<br>----- ----- ---------- --- --- ------ ------ ---- -- ------<br>------- --- ------ ----- --- ---- ------- -- ---- --- --<br>------- ------,178339,178316,177922.78,177922,177923.28,178339.92,,12,issuing
screen,html.Screen,2_1_1_1_13,2022-05-02T09:48:01.678Z,,,,,,,,,,,,,,,,,54,,,,,,,,,,,,,,398.0799999999872,,response,,,,100,,,,,,,Space,keypress(Space),,,,,,,,-- --- ---- --- ------ ----- ------- ---- -- --- ------- --<br>------- government ------ -- ----- -- ----- -- ---- ------<br>--- ----- --- --- ------ -------- ----- --- ------ ----- --<br>----- ----- ---------- --- --- ------ ------ ---- -- ------<br>------- --- ------ ----- --- ---- ------- -- ---- --- --<br>------- ------,178747,178738,178339.42,178339,178339.92,178747.74,,13,government
screen,html.Screen,2_1_1_1_14,2022-05-02T09:48:02.069Z,,,,,,,,,,,,,,,,,54,,,,,,,,,,,,,,380.2600000000093,,response,,,,100,,,,,,,Space,keypress(Space),,,,,,,,-- --- ---- --- ------ ----- ------- ---- -- --- ------- --<br>------- ---------- bonds. -- ----- -- ----- -- ---- ------<br>--- ----- --- --- ------ -------- ----- --- ------ ----- --<br>----- ----- ---------- --- --- ------ ------ ---- -- ------<br>------- --- ------ ----- --- ---- ------- -- ---- --- --<br>------- ------,179139,179128,178747.18,178747,178747.74,179140.08,,14,bonds.
screen,html.Screen,2_1_1_1_15,2022-05-02T09:48:02.502Z,,,,,,,,,,,,,,,,,54,,,,,,,,,,,,,,425.9200000000128,,response,,,,100,,,,,,,Space,keypress(Space),,,,,,,,-- --- ---- --- ------ ----- ------- ---- -- --- ------- --<br>------- ---------- ------ In ----- -- ----- -- ---- ------<br>--- ----- --- --- ------ -------- ----- --- ------ ----- --<br>----- ----- ---------- --- --- ------ ------ ---- -- ------<br>------- --- ------ ----- --- ---- ------- -- ---- --- --<br>------- ------,179571,179566,179139.5,179139,179140.08,179571.84,,15,In
screen,html.Screen,2_1_1_1_16,2022-05-02T09:48:02.909Z,,,,,,,,,,,,,,,,,54,,,,,,,,,,,,,,384.1600000000035,,response,,,,100,,,,,,,Space,keypress(Space),,,,,,,,"-- --- ---- --- ------ ----- ------- ---- -- --- ------- --<br>------- ---------- ------ -- 1727, -- ----- -- ---- ------<br>--- ----- --- --- ------ -------- ----- --- ------ ----- --<br>----- ----- ---------- --- --- ------ ------ ---- -- ------<br>------- --- ------ ----- --- ---- ------- -- ---- --- --<br>------- ------",179979,179956,179571.28,179571,179571.84,179979.54,,16,"1727,"
screen,html.Screen,2_1_1_1_17,2022-05-02T09:48:03.253Z,,,,,,,,,,,,,,,,,54,,,,,,,,,,,,,,336.45999999999185,,response,,,,100,,,,,,,Space,keypress(Space),,,,,,,,-- --- ---- --- ------ ----- ------- ---- -- --- ------- --<br>------- ---------- ------ -- ----- in ----- -- ---- ------<br>--- ----- --- --- ------ -------- ----- --- ------ ----- --<br>----- ----- ---------- --- --- ------ ------ ---- -- ------<br>------- --- ------ ----- --- ---- ------- -- ---- --- --<br>------- ------,180323,180316,179979.06,179979,179979.54,180323.4,,17,in
screen,html.Screen,2_1_1_1_18,2022-05-02T09:48:03.613Z,,,,,,,,,,,,,,,,,54,,,,,,,,,,,,,,351.6000000000058,,response,,,,100,,,,,,,Space,keypress(Space),,,,,,,,-- --- ---- --- ------ ----- ------- ---- -- --- ------- --<br>------- ---------- ------ -- ----- -- order -- ---- ------<br>--- ----- --- --- ------ -------- ----- --- ------ ----- --<br>----- ----- ---------- --- --- ------ ------ ---- -- ------<br>------- --- ------ ----- --- ---- ------- -- ---- --- --<br>------- ------,180682,180675,180322.8,180323,180323.4,180683.06,,18,order
screen,html.Screen,2_1_1_1_19,2022-05-02T09:48:03.998Z,,,,,,,,,,,,,,,,,54,,,,,,,,,,,,,,366.9400000000023,,response,,,,100,,,,,,,Space,keypress(Space),,,,,,,,-- --- ---- --- ------ ----- ------- ---- -- --- ------- --<br>------- ---------- ------ -- ----- -- ----- to ---- ------<br>--- ----- --- --- ------ -------- ----- --- ------ ----- --<br>----- ----- ---------- --- --- ------ ------ ---- -- ------<br>------- --- ------ ----- --- ---- ------- -- ---- --- --<br>------- ------,181067,181050,180682.48,180682,180683.06,181068.38,,19,to
screen,html.Screen,2_1_1_1_20,2022-05-02T09:48:04.309Z,,,,,,,,,,,,,,,,,54,,,,,,,,,,,,,,294.61999999999534,,response,,,,100,,,,,,,Space,keypress(Space),,,,,,,,-- --- ---- --- ------ ----- ------- ---- -- --- ------- --<br>------- ---------- ------ -- ----- -- ----- -- save ------<br>--- ----- --- --- ------ -------- ----- --- ------ ----- --<br>----- ----- ---------- --- --- ------ ------ ---- -- ------<br>------- --- ------ ----- --- ---- ------- -- ---- --- --<br>------- ------,181379,181363,181067.7,181067,181068.38,181380.06,,20,save
screen,html.Screen,2_1_1_1_21,2022-05-02T09:48:04.685Z,,,,,,,,,,,,,,,,,54,,,,,,,,,,,,,,357.9400000000023,,response,,,,100,,,,,,,Space,keypress(Space),,,,,,,,"-- --- ---- --- ------ ----- ------- ---- -- --- ------- --<br>------- ---------- ------ -- ----- -- ----- -- ---- money,<br>--- ----- --- --- ------ -------- ----- --- ------ ----- --<br>----- ----- ---------- --- --- ------ ------ ---- -- ------<br>------- --- ------ ----- --- ---- ------- -- ---- --- --<br>------- ------",181755,181738,181379.46,181380,181380.06,181756.02,,21,"money,"
screen,html.Screen,2_1_1_1_22,2022-05-02T09:48:05.142Z,,,,,,,,,,,,,,,,,54,,,,,,,,,,,,,,449.9800000000105,,response,,,,100,,,,,,,Space,keypress(Space),,,,,,,,-- --- ---- --- ------ ----- ------- ---- -- --- ------- --<br>------- ---------- ------ -- ----- -- ----- -- ---- ------<br>the ----- --- --- ------ -------- ----- --- ------ ----- --<br>----- ----- ---------- --- --- ------ ------ ---- -- ------<br>------- --- ------ ----- --- ---- ------- -- ---- --- --<br>------- ------,182211,182206,181755.42,181755,181756.02,182211.56,,22,the
screen,html.Screen,2_1_1_1_23,2022-05-02T09:48:05.430Z,,,,,,,,,,,,,,,,,54,,,,,,,,,,,,,,276.4400000000023,,response,,,,100,,,,,,,Space,keypress(Space),,,,,,,,-- --- ---- --- ------ ----- ------- ---- -- --- ------- --<br>------- ---------- ------ -- ----- -- ----- -- ---- ------<br>--- state --- --- ------ -------- ----- --- ------ ----- --<br>----- ----- ---------- --- --- ------ ------ ---- -- ------<br>------- --- ------ ----- --- ---- ------- -- ---- --- --<br>------- ------,182499,182488,182211.1,182211,182211.56,182500.14,,23,state
screen,html.Screen,2_1_1_1_24,2022-05-02T09:48:05.653Z,,,,,,,,,,,,,,,,,54,,,,,,,,,,,,,,205.85999999998603,,response,,,,100,,,,,,,Space,keypress(Space),,,,,,,,-- --- ---- --- ------ ----- ------- ---- -- --- ------- --<br>------- ---------- ------ -- ----- -- ----- -- ---- ------<br>--- ----- cut --- ------ -------- ----- --- ------ ----- --<br>----- ----- ---------- --- --- ------ ------ ---- -- ------<br>------- --- ------ ----- --- ---- ------- -- ---- --- --<br>------- ------,182723,182706,182499.6,182500,182500.14,182723.54,,24,cut
screen,html.Screen,2_1_1_1_25,2022-05-02T09:48:06.021Z,,,,,,,,,,,,,,,,,54,,,,,,,,,,,,,,357.45999999999185,,response,,,,100,,,,,,,Space,keypress(Space),,,,,,,,-- --- ---- --- ------ ----- ------- ---- -- --- ------- --<br>------- ---------- ------ -- ----- -- ----- -- ---- ------<br>--- ----- --- the ------ -------- ----- --- ------ ----- --<br>----- ----- ---------- --- --- ------ ------ ---- -- ------<br>------- --- ------ ----- --- ---- ------- -- ---- --- --<br>------- ------,183090,183081,182722.9,182723,182723.54,183091.6,,25,the
screen,html.Screen,2_1_1_1_26,2022-05-02T09:48:06.349Z,,,,,,,,,,,,,,,,,54,,,,,,,,,,,,,,302.3999999999942,,response,,,,100,,,,,,,Space,keypress(Space),,,,,,,,-- --- ---- --- ------ ----- ------- ---- -- --- ------- --<br>------- ---------- ------ -- ----- -- ----- -- ---- ------<br>--- ----- --- --- bonds' -------- ----- --- ------ ----- --<br>----- ----- ---------- --- --- ------ ------ ---- -- ------<br>------- --- ------ ----- --- ---- ------- -- ---- --- --<br>------- ------,183419,183394,183091.06,183091,183091.6,183421.58,,26,bonds'
screen,html.Screen,2_1_1_1_27,2022-05-02T09:48:06.782Z,,,,,,,,,,,,,,,,,54,,,,,,,,,,,,,,425.4200000000128,,response,,,,100,,,,,,,Space,keypress(Space),,,,,,,,-- --- ---- --- ------ ----- ------- ---- -- --- ------- --<br>------- ---------- ------ -- ----- -- ----- -- ---- ------<br>--- ----- --- --- ------ interest ----- --- ------ ----- --<br>----- ----- ---------- --- --- ------ ------ ---- -- ------<br>------- --- ------ ----- --- ---- ------- -- ---- --- --<br>------- ------,183851,183847,183419.48,183419,183421.58,183852.1,,27,interest
screen,html.Screen,2_1_1_1_28,2022-05-02T09:48:07.158Z,,,,,,,,,,,,,,,,,54,,,,,,,,,,,,,,354.8999999999942,,response,,,,100,,,,,,,Space,keypress(Space),,,,,,,,-- --- ---- --- ------ ----- ------- ---- -- --- ------- --<br>------- ---------- ------ -- ----- -- ----- -- ---- ------<br>--- ----- --- --- ------ -------- rate. --- ------ ----- --<br>----- ----- ---------- --- --- ------ ------ ---- -- ------<br>------- --- ------ ----- --- ---- ------- -- ---- --- --<br>------- ------,184227,184207,183851.58,183851,183852.1,184227.9,,28,rate.
screen,html.Screen,2_1_1_1_29,2022-05-02T09:48:07.589Z,,,,,,,,,,,,,,,,,54,,,,,,,,,,,,,,416.1000000000058,,response,,,,100,,,,,,,Space,keypress(Space),,,,,,,,-- --- ---- --- ------ ----- ------- ---- -- --- ------- --<br>------- ---------- ------ -- ----- -- ----- -- ---- ------<br>--- ----- --- --- ------ -------- ----- The ------ ----- --<br>----- ----- ---------- --- --- ------ ------ ---- -- ------<br>------- --- ------ ----- --- ---- ------- -- ---- --- --<br>------- ------,184659,184644,184227.52,184227,184227.9,184659.78,,29,The
screen,html.Screen,2_1_1_1_30,2022-05-02T09:48:07.973Z,,,,,,,,,,,,,,,,,54,,,,,,,,,,,,,,374.22000000000116,,response,,,,100,,,,,,,Space,keypress(Space),,,,,,,,-- --- ---- --- ------ ----- ------- ---- -- --- ------- --<br>------- ---------- ------ -- ----- -- ----- -- ---- ------<br>--- ----- --- --- ------ -------- ----- --- market ----- --<br>----- ----- ---------- --- --- ------ ------ ---- -- ------<br>------- --- ------ ----- --- ---- ------- -- ---- --- --<br>------- ------,185043,185034,184659.3,184659,184659.78,185043.32,,30,market
screen,html.Screen,2_1_1_1_31,2022-05-02T09:48:08.334Z,,,,,,,,,,,,,,,,,54,,,,,,,,,,,,,,350.679999999993,,response,,,,100,,,,,,,Space,keypress(Space),,,,,,,,-- --- ---- --- ------ ----- ------- ---- -- --- ------- --<br>------- ---------- ------ -- ----- -- ----- -- ---- ------<br>--- ----- --- --- ------ -------- ----- --- ------ value --<br>----- ----- ---------- --- --- ------ ------ ---- -- ------<br>------- --- ------ ----- --- ---- ------- -- ---- --- --<br>------- ------,185403,185394,185042.76,185043,185043.32,185403.94,,31,value
screen,html.Screen,2_1_1_1_32,2022-05-02T09:48:08.741Z,,,,,,,,,,,,,,,,,54,,,,,,,,,,,,,,396.0599999999977,,response,,,,100,,,,,,,Space,keypress(Space),,,,,,,,-- --- ---- --- ------ ----- ------- ---- -- --- ------- --<br>------- ---------- ------ -- ----- -- ----- -- ---- ------<br>--- ----- --- --- ------ -------- ----- --- ------ ----- of<br>----- ----- ---------- --- --- ------ ------ ---- -- ------<br>------- --- ------ ----- --- ---- ------- -- ---- --- --<br>------- ------,185809,185800,185403.4,185403,185403.94,185810.34,,32,of
screen,html.Screen,2_1_1_1_33,2022-05-02T09:48:09.126Z,,,,,,,,,,,,,,,,,54,,,,,,,,,,,,,,364.6600000000035,,response,,,,100,,,,,,,Space,keypress(Space),,,,,,,,-- --- ---- --- ------ ----- ------- ---- -- --- ------- --<br>------- ---------- ------ -- ----- -- ----- -- ---- ------<br>--- ----- --- --- ------ -------- ----- --- ------ ----- --<br>these ----- ---------- --- --- ------ ------ ---- -- ------<br>------- --- ------ ----- --- ---- ------- -- ---- --- --<br>------- ------,186196,186175,185809.88,185810,185810.34,186196.14,,33,these
screen,html.Screen,2_1_1_1_34,2022-05-02T09:48:09.533Z,,,,,,,,,,,,,,,,,54,,,,,,,,,,,,,,400.85999999998603,,response,,,,100,,,,,,,Space,keypress(Space),,,,,,,,-- --- ---- --- ------ ----- ------- ---- -- --- ------- --<br>------- ---------- ------ -- ----- -- ----- -- ---- ------<br>--- ----- --- --- ------ -------- ----- --- ------ ----- --<br>----- bonds ---------- --- --- ------ ------ ---- -- ------<br>------- --- ------ ----- --- ---- ------- -- ---- --- --<br>------- ------,186603,186597,186195.68,186196,186196.14,186603.44,,34,bonds
screen,html.Screen,2_1_1_1_35,2022-05-02T09:48:09.917Z,,,,,,,,,,,,,,,,,54,,,,,,,,,,,,,,369.5599999999977,,response,,,,100,,,,,,,Space,keypress(Space),,,,,,,,"-- --- ---- --- ------ ----- ------- ---- -- --- ------- --<br>------- ---------- ------ -- ----- -- ----- -- ---- ------<br>--- ----- --- --- ------ -------- ----- --- ------ ----- --<br>----- ----- plummeted, --- --- ------ ------ ---- -- ------<br>------- --- ------ ----- --- ---- ------- -- ---- --- --<br>------- ------",186987,186973,186602.88,186603,186603.44,186988.12,,35,"plummeted,"
screen,html.Screen,2_1_1_1_36,2022-05-02T09:48:10.334Z,,,,,,,,,,,,,,,,,54,,,,,,,,,,,,,,405.88000000000466,,response,,,,100,,,,,,,Space,keypress(Space),,,,,,,,-- --- ---- --- ------ ----- ------- ---- -- --- ------- --<br>------- ---------- ------ -- ----- -- ----- -- ---- ------<br>--- ----- --- --- ------ -------- ----- --- ------ ----- --<br>----- ----- ---------- and --- ------ ------ ---- -- ------<br>------- --- ------ ----- --- ---- ------- -- ---- --- --<br>------- ------,187403,187394,186987.3,186988,186988.12,187404.78,,36,and
screen,html.Screen,2_1_1_1_37,2022-05-02T09:48:10.701Z,,,,,,,,,,,,,,,,,54,,,,,,,,,,,,,,349.22000000000116,,response,,,,100,,,,,,,Space,keypress(Space),,,,,,,,-- --- ---- --- ------ ----- ------- ---- -- --- ------- --<br>------- ---------- ------ -- ----- -- ----- -- ---- ------<br>--- ----- --- --- ------ -------- ----- --- ------ ----- --<br>----- ----- ---------- --- the ------ ------ ---- -- ------<br>------- --- ------ ----- --- ---- ------- -- ---- --- --<br>------- ------,187770,187754,187403.54,187404,187404.78,187771.46,,37,the
screen,html.Screen,2_1_1_1_38,2022-05-02T09:48:11.070Z,,,,,,,,,,,,,,,,,54,,,,,,,,,,,,,,356.54000000000815,,response,,,,100,,,,,,,Space,keypress(Space),,,,,,,,-- --- ---- --- ------ ----- ------- ---- -- --- ------- --<br>------- ---------- ------ -- ----- -- ----- -- ---- ------<br>--- ----- --- --- ------ -------- ----- --- ------ ----- --<br>----- ----- ---------- --- --- market ------ ---- -- ------<br>------- --- ------ ----- --- ---- ------- -- ---- --- --<br>------- ------,188139,188128,187770.92,187770,187771.46,188139.78,,38,market
screen,html.Screen,2_1_1_1_39,2022-05-02T09:48:11.430Z,,,,,,,,,,,,,,,,,54,,,,,,,,,,,,,,348.22000000000116,,response,,,,100,,,,,,,Space,keypress(Space),,,,,,,,-- --- ---- --- ------ ----- ------- ---- -- --- ------- --<br>------- ---------- ------ -- ----- -- ----- -- ---- ------<br>--- ----- --- --- ------ -------- ----- --- ------ ----- --<br>----- ----- ---------- --- --- ------ became ---- -- ------<br>------- --- ------ ----- --- ---- ------- -- ---- --- --<br>------- ------,188500,188488,188139.24,188139,188139.78,188500.08,,39,became
screen,html.Screen,2_1_1_1_40,2022-05-02T09:48:11.830Z,,,,,,,,,,,,,,,,,54,,,,,,,,,,,,,,377.9200000000128,,response,,,,100,,,,,,,Space,keypress(Space),,,,,,,,-- --- ---- --- ------ ----- ------- ---- -- --- ------- --<br>------- ---------- ------ -- ----- -- ----- -- ---- ------<br>--- ----- --- --- ------ -------- ----- --- ------ ----- --<br>----- ----- ---------- --- --- ------ ------ wary -- ------<br>------- --- ------ ----- --- ---- ------- -- ---- --- --<br>------- ------,188900,188878,188499.58,188500,188500.08,188899.92,,40,wary
screen,html.Screen,2_1_1_1_41,2022-05-02T09:48:12.197Z,,,,,,,,,,,,,,,,,54,,,,,,,,,,,,,,353.0799999999872,,response,,,,100,,,,,,,Space,keypress(Space),,,,,,,,-- --- ---- --- ------ ----- ------- ---- -- --- ------- --<br>------- ---------- ------ -- ----- -- ----- -- ---- ------<br>--- ----- --- --- ------ -------- ----- --- ------ ----- --<br>----- ----- ---------- --- --- ------ ------ ---- of ------<br>------- --- ------ ----- --- ---- ------- -- ---- --- --<br>------- ------,189267,189253,188899.34,188900,188899.92,189267.68,,41,of
screen,html.Screen,2_1_1_1_42,2022-05-02T09:48:12.598Z,,,,,,,,,,,,,,,,,54,,,,,,,,,,,,,,376.320000000007,,response,,,,100,,,,,,,Space,keypress(Space),,,,,,,,-- --- ---- --- ------ ----- ------- ---- -- --- ------- --<br>------- ---------- ------ -- ----- -- ----- -- ---- ------<br>--- ----- --- --- ------ -------- ----- --- ------ ----- --<br>----- ----- ---------- --- --- ------ ------ ---- -- French<br>------- --- ------ ----- --- ---- ------- -- ---- --- --<br>------- ------,189667,189644,189267.14,189267,189267.68,189668.4,,42,French
screen,html.Screen,2_1_1_1_43,2022-05-02T09:48:13.061Z,,,,,,,,,,,,,,,,,54,,,,,,,,,,,,,,444.6000000000058,,response,,,,100,,,,,,,Space,keypress(Space),,,,,,,,-- --- ---- --- ------ ----- ------- ---- -- --- ------- --<br>------- ---------- ------ -- ----- -- ----- -- ---- ------<br>--- ----- --- --- ------ -------- ----- --- ------ ----- --<br>----- ----- ---------- --- --- ------ ------ ---- -- ------<br>credit. --- ------ ----- --- ---- ------- -- ---- --- --<br>------- ------,190131,190113,189667.74,189667,189668.4,190131.48,,43,credit.
screen,html.Screen,2_1_1_1_44,2022-05-02T09:48:13.477Z,,,,,,,,,,,,,,,,,54,,,,,,,,,,,,,,402.5199999999895,,response,,,,100,,,,,,,Space,keypress(Space),,,,,,,,-- --- ---- --- ------ ----- ------- ---- -- --- ------- --<br>------- ---------- ------ -- ----- -- ----- -- ---- ------<br>--- ----- --- --- ------ -------- ----- --- ------ ----- --<br>----- ----- ---------- --- --- ------ ------ ---- -- ------<br>------- The ------ ----- --- ---- ------- -- ---- --- --<br>------- ------,190547,190534,190131.12,190131,190131.48,190547.8,,44,The
screen,html.Screen,2_1_1_1_45,2022-05-02T09:48:13.870Z,,,,,,,,,,,,,,,,,54,,,,,,,,,,,,,,377.20000000001164,,response,,,,100,,,,,,,Space,keypress(Space),,,,,,,,-- --- ---- --- ------ ----- ------- ---- -- --- ------- --<br>------- ---------- ------ -- ----- -- ----- -- ---- ------<br>--- ----- --- --- ------ -------- ----- --- ------ ----- --<br>----- ----- ---------- --- --- ------ ------ ---- -- ------<br>------- --- French ----- --- ---- ------- -- ---- --- --<br>------- ------,190939,190925,190547.2,190547,190547.8,190940.04,,45,French
screen,html.Screen,2_1_1_1_46,2022-05-02T09:48:14.230Z,,,,,,,,,,,,,,,,,54,,,,,,,,,,,,,,343.95999999999185,,response,,,,100,,,,,,,Space,keypress(Space),,,,,,,,-- --- ---- --- ------ ----- ------- ---- -- --- ------- --<br>------- ---------- ------ -- ----- -- ----- -- ---- ------<br>--- ----- --- --- ------ -------- ----- --- ------ ----- --<br>----- ----- ---------- --- --- ------ ------ ---- -- ------<br>------- --- ------ state --- ---- ------- -- ---- --- --<br>------- ------,191299,191284,190939.64,190939,190940.04,191299.76,,46,state
screen,html.Screen,2_1_1_1_47,2022-05-02T09:48:14.613Z,,,,,,,,,,,,,,,,,54,,,,,,,,,,,,,,375.2399999999907,,response,,,,100,,,,,,,Space,keypress(Space),,,,,,,,-- --- ---- --- ------ ----- ------- ---- -- --- ------- --<br>------- ---------- ------ -- ----- -- ----- -- ---- ------<br>--- ----- --- --- ------ -------- ----- --- ------ ----- --<br>----- ----- ---------- --- --- ------ ------ ---- -- ------<br>------- --- ------ ----- was ---- ------- -- ---- --- --<br>------- ------,191683,191675,191299.2,191299,191299.76,191683.5,,47,was
screen,html.Screen,2_1_1_1_48,2022-05-02T09:48:15.046Z,,,,,,,,,,,,,,,,,54,,,,,,,,,,,,,,413.5,,response,,,,100,,,,,,,Space,keypress(Space),,,,,,,,-- --- ---- --- ------ ----- ------- ---- -- --- ------- --<br>------- ---------- ------ -- ----- -- ----- -- ---- ------<br>--- ----- --- --- ------ -------- ----- --- ------ ----- --<br>----- ----- ---------- --- --- ------ ------ ---- -- ------<br>------- --- ------ ----- --- left ------- -- ---- --- --<br>------- ------,192116,192097,191682.94,191683,191683.5,192116.1,,48,left
screen,html.Screen,2_1_1_1_49,2022-05-02T09:48:15.477Z,,,,,,,,,,,,,,,,,54,,,,,,,,,,,,,,417.8999999999942,,response,,,,100,,,,,,,Space,keypress(Space),,,,,,,,-- --- ---- --- ------ ----- ------- ---- -- --- ------- --<br>------- ---------- ------ -- ----- -- ----- -- ---- ------<br>--- ----- --- --- ------ -------- ----- --- ------ ----- --<br>----- ----- ---------- --- --- ------ ------ ---- -- ------<br>------- --- ------ ----- --- ---- without -- ---- --- --<br>------- ------,192547,192534,192115.54,192116,192116.1,192547.78,,49,without
screen,html.Screen,2_1_1_1_50,2022-05-02T09:48:15.877Z,,,,,,,,,,,,,,,,,54,,,,,,,,,,,,,,393.22000000000116,,response,,,,100,,,,,,,Space,keypress(Space),,,,,,,,-- --- ---- --- ------ ----- ------- ---- -- --- ------- --<br>------- ---------- ------ -- ----- -- ----- -- ---- ------<br>--- ----- --- --- ------ -------- ----- --- ------ ----- --<br>----- ----- ---------- --- --- ------ ------ ---- -- ------<br>------- --- ------ ----- --- ---- ------- an ---- --- --<br>------- ------,192947,192941,192547.24,192547,192547.78,192947.72,,50,an
screen,html.Screen,2_1_1_1_51,2022-05-02T09:48:16.309Z,,,,,,,,,,,,,,,,,54,,,,,,,,,,,,,,416.27999999999884,,response,,,,100,,,,,,,Space,keypress(Space),,,,,,,,-- --- ---- --- ------ ----- ------- ---- -- --- ------- --<br>------- ---------- ------ -- ----- -- ----- -- ---- ------<br>--- ----- --- --- ------ -------- ----- --- ------ ----- --<br>----- ----- ---------- --- --- ------ ------ ---- -- ------<br>------- --- ------ ----- --- ---- ------- -- easy --- --<br>------- ------,193379,193364,192947.2,192947,192947.72,193379.22,,51,easy
screen,html.Screen,2_1_1_1_52,2022-05-02T09:48:16.693Z,,,,,,,,,,,,,,,,,54,,,,,,,,,,,,,,374.77999999999884,,response,,,,100,,,,,,,Space,keypress(Space),,,,,,,,-- --- ---- --- ------ ----- ------- ---- -- --- ------- --<br>------- ---------- ------ -- ----- -- ----- -- ---- ------<br>--- ----- --- --- ------ -------- ----- --- ------ ----- --<br>----- ----- ---------- --- --- ------ ------ ---- -- ------<br>------- --- ------ ----- --- ---- ------- -- ---- way --<br>------- ------,193763,193754,193378.88,193379,193379.22,193763.34,,52,way
screen,html.Screen,2_1_1_1_53,2022-05-02T09:48:17.125Z,,,,,,,,,,,,,,,,,54,,,,,,,,,,,,,,411.6600000000035,,response,,,,100,,,,,,,Space,keypress(Space),,,,,,,,-- --- ---- --- ------ ----- ------- ---- -- --- ------- --<br>------- ---------- ------ -- ----- -- ----- -- ---- ------<br>--- ----- --- --- ------ -------- ----- --- ------ ----- --<br>----- ----- ---------- --- --- ------ ------ ---- -- ------<br>------- --- ------ ----- --- ---- ------- -- ---- --- of<br>------- ------,194194,194175,193762.72,193763,193763.34,194195.04,,53,of
screen,html.Screen,2_1_1_1_54,2022-05-02T09:48:17.589Z,,,,,,,,,,,,,,,,,54,,,,,,,,,,,,,,448.95999999999185,,response,,,,100,,,,,,,Space,keypress(Space),,,,,,,,-- --- ---- --- ------ ----- ------- ---- -- --- ------- --<br>------- ---------- ------ -- ----- -- ----- -- ---- ------<br>--- ----- --- --- ------ -------- ----- --- ------ ----- --<br>----- ----- ---------- --- --- ------ ------ ---- -- ------<br>------- --- ------ ----- --- ---- ------- -- ---- --- --<br>raising ------,194658,194644,194194.82,194194,194195.04,194658.42,,54,raising
screen,html.Screen,2_1_1_1_55,2022-05-02T09:48:18.205Z,,,,,,,,,,,,,,,,,54,,,,,,,,,,,,,,594.5799999999872,,response,,,,100,,,,,,,Space,keypress(Space),,,,,,,,-- --- ---- --- ------ ----- ------- ---- -- --- ------- --<br>------- ---------- ------ -- ----- -- ----- -- ---- ------<br>--- ----- --- --- ------ -------- ----- --- ------ ----- --<br>----- ----- ---------- --- --- ------ ------ ---- -- ------<br>------- --- ------ ----- --- ---- ------- -- ---- --- --<br>------- money.,195274,195253,194658.1,194658,194658.42,195276.34,,55,money.
Item 100,flow.Loop,2_1_1_1,2022-05-02T09:48:18.206Z,,,,,,,,,,,,,,,,,,,,,,,,,,,,,,,21898.01999999999,,completion,,,,,E,,,,,,,,,,,silence,,,,,195275,195253,173338.32,173341,173354.98,195276.34,,,
Question 1,html.Screen,2_1_1_2,2022-05-02T09:48:21.021Z,,,,,,,,,,,,,,,,,,,,,,,,,,,,true,TRUE,,2804.6600000000035,,response,,,,100,E,,,,,,TRUE,click #choice-1,,,,silence,,,,,198090,198081,195275.94,195276,195276.34,198104.98,,,
Question 2,html.Screen,2_1_1_3,2022-05-02T09:48:23.838Z,,,,,,,,,,,,,,,,,,,,,,,,,,,,false,FALSE,,2789.0199999999895,,response,,,,100,E,,,,,,TRUE,click #choice-1,,,,silence,,,,,200907,200894,198088.94,198091,198104.98,200921.46,,,
Item 100,flow.Sequence,2_1_1,2022-05-02T09:48:23.838Z,,,,,,,,,,,,,,,,,,,,,,,,,,,,,,,37539.119999999995,,completion,,,,,,,,,,,,,,,,,,,,,200907,200894,163353.14,163355,163354.88,200921.46,,,
End of Practice,html.Page,2_1_2,2022-05-02T09:48:26.960Z,,,,,,,,,,,,,,,,,,,,,,,,,,,,,,,3107.540000000008,,form submission,,,,,,,,,,,,,,,,,,,,,204030,204029,200905.38,200908,200921.46,204038.46,,,
Practice,flow.Sequence,2_1,2022-05-02T09:48:26.961Z,,,,,,,,,,,,,,,,,,,,,,,,,,,,,,,86524.22,,completion,,,,,,,,,,,,,,,,,,,,,204030,204029,117504.72,117511,117504.78,204038.46,,,
Trap_instruction,html.Page,2_2_0,2022-05-02T09:48:31.785Z,,,,,,,,,,,,,,,,,,,,,,,,,,,,,,,4815.540000000008,,form submission,,,,,,,,,,,,,,,,,,,,,208854,208854,204025.36,204030,204038.46,208854.86,,,
trap_trial,html.Screen,2_2_1,2022-05-02T09:48:34.733Z,,,,,,,,,,,,,,,,,,,,,,,,,,,,true,1,,2929.140000000014,,response,,,,,,,,,,,1,click #choice-1,,,,,,,,,211802,211784,208849.28,208854,208854.86,211804.88,,,
end of trap trial,html.Page,2_2_2,2022-05-02T09:48:36.313Z,,,,,,,,,,,,,,,,,,,,,,,,,,,,,,,1576.1199999999953,,form submission,,,,,,,,,,,,,,,,,,,,,213382,213381,211800.78,211802,211804.88,213388.08,,,
Trap 1,flow.Sequence,2_2,2022-05-02T09:48:36.313Z,,,,,,,,,,,,,,,,,,,,,,,,,,,,,,,9342.540000000008,,completion,,,,,,,,,,,,,,,,,,,,,213382,213381,204025.36,204030,204038.46,213388.08,,,
Standby,html.Page,2_3_0,2022-05-02T09:48:44.303Z,,,,,,,,,,,,,,,,,,,,,,,,,,,,,,,8000.100000000006,,timeout,,,,,,,,,,,,,,,,,,,,,221372,221371.5,213377.36,213382,213388.08,221388.18,,,
Holding screen,html.Screen,2_3_1_0_0,2022-05-02T09:48:51.303Z,,,,,,,,,,,,,,,,,,,,,,,,,,,,,,,7000.020000000019,,timeout,,,,,,,,,,,,,,,,,,,,,228373,228371.54,221371.5,221373,221388.18,228388.2,,,
screen,html.Screen,2_3_1_0_1_0,2022-05-02T09:48:52.959Z,,,,,,,,,,,,,,,,,40,,,,,,,,,,,,,,1630.7999999999884,,response,,,,9,E,,,,,,Space,keypress(Space),,,,silence,,,,Police -- ------- ---- ---- ---- - -------- ----- --- --<br>----- ----- ------ -- ---- -- --- - ---- -- - ----- -----<br>------ ---- ------ ---- - -------- ------- -- --- --------<br>-------- ----------- ---- ------ ---- ------ ---- --- ---<br>-------- --- -----,230029,230019,228371.54,228373,228388.2,230029.06,,0,Police
screen,html.Screen,2_3_1_0_1_1,2022-05-02T09:48:53.300Z,,,,,,,,,,,,,,,,,40,,,,,,,,,,,,,,334.9400000000023,,response,,,,9,E,,,,,,Space,keypress(Space),,,,silence,,,,------ in ------- ---- ---- ---- - -------- ----- --- --<br>----- ----- ------ -- ---- -- --- - ---- -- - ----- -----<br>------ ---- ------ ---- - -------- ------- -- --- --------<br>-------- ----------- ---- ------ ---- ------ ---- --- ---<br>-------- --- -----,230370,230364,230028.72,230029,230029.06,230370.98,,1,in
screen,html.Screen,2_3_1_0_1_2,2022-05-02T09:48:53.597Z,,,,,,,,,,,,,,,,,40,,,,,,,,,,,,,,274.0199999999895,,response,,,,9,E,,,,,,Space,keypress(Space),,,,silence,,,,------ -- Georgia ---- ---- ---- - -------- ----- --- --<br>----- ----- ------ -- ---- -- --- - ---- -- - ----- -----<br>------ ---- ------ ---- - -------- ------- -- --- --------<br>-------- ----------- ---- ------ ---- ------ ---- --- ---<br>-------- --- -----,230666,230645,230370.52,230370,230370.98,230667.58,,2,Georgia
screen,html.Screen,2_3_1_0_1_3,2022-05-02T09:48:53.941Z,,,,,,,,,,,,,,,,,40,,,,,,,,,,,,,,336.4200000000128,,response,,,,9,E,,,,,,Space,keypress(Space),,,,silence,,,,------ -- ------- have ---- ---- - -------- ----- --- --<br>----- ----- ------ -- ---- -- --- - ---- -- - ----- -----<br>------ ---- ------ ---- - -------- ------- -- --- --------<br>-------- ----------- ---- ------ ---- ------ ---- --- ---<br>-------- --- -----,231010,231004,230667.02,230667,230667.58,231011.5,,3,have
screen,html.Screen,2_3_1_0_1_4,2022-05-02T09:48:54.293Z,,,,,,,,,,,,,,,,,40,,,,,,,,,,,,,,335.5,,response,,,,9,E,,,,,,Space,keypress(Space),,,,silence,,,,------ -- ------- ---- shut ---- - -------- ----- --- --<br>----- ----- ------ -- ---- -- --- - ---- -- - ----- -----<br>------ ---- ------ ---- - -------- ------- -- --- --------<br>-------- ----------- ---- ------ ---- ------ ---- --- ---<br>-------- --- -----,231363,231347,231010.9,231011,231011.5,231363.4,,4,shut
screen,html.Screen,2_3_1_0_1_5,2022-05-02T09:48:54.622Z,,,,,,,,,,,,,,,,,40,,,,,,,,,,,,,,311.6000000000058,,response,,,,9,E,,,,,,Space,keypress(Space),,,,silence,,,,------ -- ------- ---- ---- down - -------- ----- --- --<br>----- ----- ------ -- ---- -- --- - ---- -- - ----- -----<br>------ ---- ------ ---- - -------- ------- -- --- --------<br>-------- ----------- ---- ------ ---- ------ ---- --- ---<br>-------- --- -----,231691,231675,231362.84,231363,231363.4,231691.88,,5,down
screen,html.Screen,2_3_1_0_1_6,2022-05-02T09:48:54.950Z,,,,,,,,,,,,,,,,,40,,,,,,,,,,,,,,311.11999999999534,,response,,,,9,E,,,,,,Space,keypress(Space),,,,silence,,,,------ -- ------- ---- ---- ---- a -------- ----- --- --<br>----- ----- ------ -- ---- -- --- - ---- -- - ----- -----<br>------ ---- ------ ---- - -------- ------- -- --- --------<br>-------- ----------- ---- ------ ---- ------ ---- --- ---<br>-------- --- -----,232019,232003,231691.32,231691,231691.88,232019.76,,6,a
screen,html.Screen,2_3_1_0_1_7,2022-05-02T09:48:55.285Z,,,,,,,,,,,,,,,,,40,,,,,,,,,,,,,,327.2399999999907,,response,,,,9,E,,,,,,Space,keypress(Space),,,,silence,,,,------ -- ------- ---- ---- ---- - lemonade ----- --- --<br>----- ----- ------ -- ---- -- --- - ---- -- - ----- -----<br>------ ---- ------ ---- - -------- ------- -- --- --------<br>-------- ----------- ---- ------ ---- ------ ---- --- ---<br>-------- --- -----,232355,232347,232019.22,232019,232019.76,232355.8,,7,lemonade
screen,html.Screen,2_3_1_0_1_8,2022-05-02T09:48:55.661Z,,,,,,,,,,,,,,,,,40,,,,,,,,,,,,,,366.20000000001164,,response,,,,9,E,,,,,,Space,keypress(Space),,,,silence,,,,------ -- ------- ---- ---- ---- - -------- stand --- --<br>----- ----- ------ -- ---- -- --- - ---- -- - ----- -----<br>------ ---- ------ ---- - -------- ------- -- --- --------<br>-------- ----------- ---- ------ ---- ------ ---- --- ---<br>-------- --- -----,232731,232722,232355.22,232355,232355.8,232731.52,,8,stand
screen,html.Screen,2_3_1_0_1_9,2022-05-02T09:48:56.013Z,,,,,,,,,,,,,,,,,40,,,,,,,,,,,,,,334.4800000000105,,response,,,,9,E,,,,,,Space,keypress(Space),,,,silence,,,,------ -- ------- ---- ---- ---- - -------- ----- run --<br>----- ----- ------ -- ---- -- --- - ---- -- - ----- -----<br>------ ---- ------ ---- - -------- ------- -- --- --------<br>-------- ----------- ---- ------ ---- ------ ---- --- ---<br>-------- --- -----,233082,233066,232731,232731,232731.52,233083.48,,9,run
screen,html.Screen,2_3_1_0_1_10,2022-05-02T09:48:56.373Z,,,,,,,,,,,,,,,,,40,,,,,,,,,,,,,,341.5199999999895,,response,,,,9,E,,,,,,Space,keypress(Space),,,,silence,,,,------ -- ------- ---- ---- ---- - -------- ----- --- by<br>----- ----- ------ -- ---- -- --- - ---- -- - ----- -----<br>------ ---- ------ ---- - -------- ------- -- --- --------<br>-------- ----------- ---- ------ ---- ------ ---- --- ---<br>-------- --- -----,233443,233425,233082.88,233083,233083.48,233443.52,,10,by
screen,html.Screen,2_3_1_0_1_11,2022-05-02T09:48:56.732Z,,,,,,,,,,,,,,,,,40,,,,,,,,,,,,,,340.4800000000105,,response,,,,9,E,,,,,,Space,keypress(Space),,,,silence,,,,------ -- ------- ---- ---- ---- - -------- ----- --- --<br>three ----- ------ -- ---- -- --- - ---- -- - ----- -----<br>------ ---- ------ ---- - -------- ------- -- --- --------<br>-------- ----------- ---- ------ ---- ------ ---- --- ---<br>-------- --- -----,233802,233784,233442.96,233443,233443.52,233802.96,,11,three
screen,html.Screen,2_3_1_0_1_12,2022-05-02T09:48:57.077Z,,,,,,,,,,,,,,,,,40,,,,,,,,,,,,,,325.04000000000815,,response,,,,9,E,,,,,,Space,keypress(Space),,,,silence,,,,------ -- ------- ---- ---- ---- - -------- ----- --- --<br>----- girls ------ -- ---- -- --- - ---- -- - ----- -----<br>------ ---- ------ ---- - -------- ------- -- --- --------<br>-------- ----------- ---- ------ ---- ------ ---- --- ---<br>-------- --- -----,234147,234128,233802.42,233802,233802.96,234147.72,,12,girls
screen,html.Screen,2_3_1_0_1_13,2022-05-02T09:48:57.381Z,,,,,,,,,,,,,,,,,40,,,,,,,,,,,,,,293.27999999999884,,response,,,,9,E,,,,,,Space,keypress(Space),,,,silence,,,,------ -- ------- ---- ---- ---- - -------- ----- --- --<br>----- ----- trying -- ---- -- --- - ---- -- - ----- -----<br>------ ---- ------ ---- - -------- ------- -- --- --------<br>-------- ----------- ---- ------ ---- ------ ---- --- ---<br>-------- --- -----,234451,234441,234147.22,234147,234147.72,234451.64,,13,trying
screen,html.Screen,2_3_1_0_1_14,2022-05-02T09:48:57.646Z,,,,,,,,,,,,,,,,,40,,,,,,,,,,,,,,254.35999999998603,,response,,,,9,E,,,,,,Space,keypress(Space),,,,silence,,,,------ -- ------- ---- ---- ---- - -------- ----- --- --<br>----- ----- ------ to ---- -- --- - ---- -- - ----- -----<br>------ ---- ------ ---- - -------- ------- -- --- --------<br>-------- ----------- ---- ------ ---- ------ ---- --- ---<br>-------- --- -----,234715,234706,234451.14,234451,234451.64,234715.98,,14,to
screen,html.Screen,2_3_1_0_1_15,2022-05-02T09:48:57.965Z,,,,,,,,,,,,,,,,,40,,,,,,,,,,,,,,303.0199999999895,,response,,,,9,E,,,,,,Space,keypress(Space),,,,silence,,,,------ -- ------- ---- ---- ---- - -------- ----- --- --<br>----- ----- ------ -- save -- --- - ---- -- - ----- -----<br>------ ---- ------ ---- - -------- ------- -- --- --------<br>-------- ----------- ---- ------ ---- ------ ---- --- ---<br>-------- --- -----,235035,235019,234715.4,234715,234715.98,235035.38,,15,save
screen,html.Screen,2_3_1_0_1_16,2022-05-02T09:48:58.325Z,,,,,,,,,,,,,,,,,40,,,,,,,,,,,,,,342.61999999999534,,response,,,,9,E,,,,,,Space,keypress(Space),,,,silence,,,,------ -- ------- ---- ---- ---- - -------- ----- --- --<br>----- ----- ------ -- ---- up --- - ---- -- - ----- -----<br>------ ---- ------ ---- - -------- ------- -- --- --------<br>-------- ----------- ---- ------ ---- ------ ---- --- ---<br>-------- --- -----,235395,235378,235034.96,235035,235035.38,235395.56,,16,up
screen,html.Screen,2_3_1_0_1_17,2022-05-02T09:48:58.653Z,,,,,,,,,,,,,,,,,40,,,,,,,,,,,,,,310.4400000000023,,response,,,,9,E,,,,,,Space,keypress(Space),,,,silence,,,,------ -- ------- ---- ---- ---- - -------- ----- --- --<br>----- ----- ------ -- ---- -- for - ---- -- - ----- -----<br>------ ---- ------ ---- - -------- ------- -- --- --------<br>-------- ----------- ---- ------ ---- ------ ---- --- ---<br>-------- --- -----,235723,235706,235395.02,235395,235395.56,235723.54,,17,for
screen,html.Screen,2_3_1_0_1_18,2022-05-02T09:48:59.006Z,,,,,,,,,,,,,,,,,40,,,,,,,,,,,,,,342.45999999999185,,response,,,,9,E,,,,,,Space,keypress(Space),,,,silence,,,,------ -- ------- ---- ---- ---- - -------- ----- --- --<br>----- ----- ------ -- ---- -- --- a ---- -- - ----- -----<br>------ ---- ------ ---- - -------- ------- -- --- --------<br>-------- ----------- ---- ------ ---- ------ ---- --- ---<br>-------- --- -----,236075,236066,235722.98,235723,235723.54,236075.68,,18,a
screen,html.Screen,2_3_1_0_1_19,2022-05-02T09:48:59.340Z,,,,,,,,,,,,,,,,,40,,,,,,,,,,,,,,318.320000000007,,response,,,,9,E,,,,,,Space,keypress(Space),,,,silence,,,,------ -- ------- ---- ---- ---- - -------- ----- --- --<br>----- ----- ------ -- ---- -- --- - trip -- - ----- -----<br>------ ---- ------ ---- - -------- ------- -- --- --------<br>-------- ----------- ---- ------ ---- ------ ---- --- ---<br>-------- --- -----,236410,236394,236075.14,236075,236075.68,236411.22,,19,trip
screen,html.Screen,2_3_1_0_1_20,2022-05-02T09:48:59.678Z,,,,,,,,,,,,,,,,,40,,,,,,,,,,,,,,326.77999999999884,,response,,,,9,E,,,,,,Space,keypress(Space),,,,silence,,,,------ -- ------- ---- ---- ---- - -------- ----- --- --<br>----- ----- ------ -- ---- -- --- - ---- to - ----- -----<br>------ ---- ------ ---- - -------- ------- -- --- --------<br>-------- ----------- ---- ------ ---- ------ ---- --- ---<br>-------- --- -----,236747,236738,236410.66,236410,236411.22,236747.78,,20,to
screen,html.Screen,2_3_1_0_1_21,2022-05-02T09:49:00.032Z,,,,,,,,,,,,,,,,,40,,,,,,,,,,,,,,333.22000000000116,,response,,,,9,E,,,,,,Space,keypress(Space),,,,silence,,,,------ -- ------- ---- ---- ---- - -------- ----- --- --<br>----- ----- ------ -- ---- -- --- - ---- -- a ----- -----<br>------ ---- ------ ---- - -------- ------- -- --- --------<br>-------- ----------- ---- ------ ---- ------ ---- --- ---<br>-------- --- -----,237101,237081,236747.22,236747,236747.78,237101.68,,21,a
screen,html.Screen,2_3_1_0_1_22,2022-05-02T09:49:00.372Z,,,,,,,,,,,,,,,,,40,,,,,,,,,,,,,,323.320000000007,,response,,,,9,E,,,,,,Space,keypress(Space),,,,silence,,,,------ -- ------- ---- ---- ---- - -------- ----- --- --<br>----- ----- ------ -- ---- -- --- - ---- -- - water -----<br>------ ---- ------ ---- - -------- ------- -- --- --------<br>-------- ----------- ---- ------ ---- ------ ---- --- ---<br>-------- --- -----,237442,237425,237101.24,237101,237101.68,237442.82,,22,water
screen,html.Screen,2_3_1_0_1_23,2022-05-02T09:49:00.726Z,,,,,,,,,,,,,,,,,40,,,,,,,,,,,,,,341.179999999993,,response,,,,9,E,,,,,,Space,keypress(Space),,,,silence,,,,"------ -- ------- ---- ---- ---- - -------- ----- --- --<br>----- ----- ------ -- ---- -- --- - ---- -- - ----- park,<br>------ ---- ------ ---- - -------- ------- -- --- --------<br>-------- ----------- ---- ------ ---- ------ ---- --- ---<br>-------- --- -----",237795,237784,237442.42,237442,237442.82,237795.72,,23,"park,"
screen,html.Screen,2_3_1_0_1_24,2022-05-02T09:49:01.101Z,,,,,,,,,,,,,,,,,40,,,,,,,,,,,,,,363.27999999999884,,response,,,,9,E,,,,,,Space,keypress(Space),,,,silence,,,,------ -- ------- ---- ---- ---- - -------- ----- --- --<br>----- ----- ------ -- ---- -- --- - ---- -- - ----- -----<br>saying ---- ------ ---- - -------- ------- -- --- --------<br>-------- ----------- ---- ------ ---- ------ ---- --- ---<br>-------- --- -----,238171,238159,237795.14,237795,237795.72,238171.68,,24,saying
screen,html.Screen,2_3_1_0_1_25,2022-05-02T09:49:01.629Z,,,,,,,,,,,,,,,,,40,,,,,,,,,,,,,,519.320000000007,,response,,,,9,E,,,,,,Space,keypress(Space),,,,silence,,,,------ -- ------- ---- ---- ---- - -------- ----- --- --<br>----- ----- ------ -- ---- -- --- - ---- -- - ----- -----<br>------ they ------ ---- - -------- ------- -- --- --------<br>-------- ----------- ---- ------ ---- ------ ---- --- ---<br>-------- --- -----,238699,238691,238171.12,238172,238171.68,238699.48,,25,they
screen,html.Screen,2_3_1_0_1_26,2022-05-02T09:49:02.022Z,,,,,,,,,,,,,,,,,40,,,,,,,,,,,,,,382.5199999999895,,response,,,,9,E,,,,,,Space,keypress(Space),,,,silence,,,,------ -- ------- ---- ---- ---- - -------- ----- --- --<br>----- ----- ------ -- ---- -- --- - ---- -- - ----- -----<br>------ ---- didn't ---- - -------- ------- -- --- --------<br>-------- ----------- ---- ------ ---- ------ ---- --- ---<br>-------- --- -----,239091,239082,238699,238699,238699.48,239091.58,,26,didn't
screen,html.Screen,2_3_1_0_1_27,2022-05-02T09:49:02.373Z,,,,,,,,,,,,,,,,,40,,,,,,,,,,,,,,333.4200000000128,,response,,,,9,E,,,,,,Space,keypress(Space),,,,silence,,,,------ -- ------- ---- ---- ---- - -------- ----- --- --<br>----- ----- ------ -- ---- -- --- - ---- -- - ----- -----<br>------ ---- ------ have - -------- ------- -- --- --------<br>-------- ----------- ---- ------ ---- ------ ---- --- ---<br>-------- --- -----,239442,239425,239091.04,239091,239091.58,239443.38,,27,have
screen,html.Screen,2_3_1_0_1_28,2022-05-02T09:49:02.717Z,,,,,,,,,,,,,,,,,40,,,,,,,,,,,,,,325.61999999999534,,response,,,,9,E,,,,,,Space,keypress(Space),,,,silence,,,,------ -- ------- ---- ---- ---- - -------- ----- --- --<br>----- ----- ------ -- ---- -- --- - ---- -- - ----- -----<br>------ ---- ------ ---- a -------- ------- -- --- --------<br>-------- ----------- ---- ------ ---- ------ ---- --- ---<br>-------- --- -----,239786,239769,239442.8,239443,239443.38,239787.58,,28,a
screen,html.Screen,2_3_1_0_1_29,2022-05-02T09:49:03.053Z,,,,,,,,,,,,,,,,,40,,,,,,,,,,,,,,325.4200000000128,,response,,,,9,E,,,,,,Space,keypress(Space),,,,silence,,,,------ -- ------- ---- ---- ---- - -------- ----- --- --<br>----- ----- ------ -- ---- -- --- - ---- -- - ----- -----<br>------ ---- ------ ---- - business ------- -- --- --------<br>-------- ----------- ---- ------ ---- ------ ---- --- ---<br>-------- --- -----,240122,240113,239787,239787,239787.58,240123.14,,29,business
screen,html.Screen,2_3_1_0_1_30,2022-05-02T09:49:03.413Z,,,,,,,,,,,,,,,,,40,,,,,,,,,,,,,,348.85999999998603,,response,,,,9,E,,,,,,Space,keypress(Space),,,,silence,,,,------ -- ------- ---- ---- ---- - -------- ----- --- --<br>----- ----- ------ -- ---- -- --- - ---- -- - ----- -----<br>------ ---- ------ ---- - -------- license -- --- --------<br>-------- ----------- ---- ------ ---- ------ ---- --- ---<br>-------- --- -----,240483,240472,240122.64,240122,240123.14,240483.24,,30,license
screen,html.Screen,2_3_1_0_1_31,2022-05-02T09:49:03.773Z,,,,,,,,,,,,,,,,,40,,,,,,,,,,,,,,347.7600000000093,,response,,,,9,E,,,,,,Space,keypress(Space),,,,silence,,,,------ -- ------- ---- ---- ---- - -------- ----- --- --<br>----- ----- ------ -- ---- -- --- - ---- -- - ----- -----<br>------ ---- ------ ---- - -------- ------- or --- --------<br>-------- ----------- ---- ------ ---- ------ ---- --- ---<br>-------- --- -----,240843,240831,240482.72,240483,240483.24,240843.54,,31,or
screen,html.Screen,2_3_1_0_1_32,2022-05-02T09:49:04.126Z,,,,,,,,,,,,,,,,,40,,,,,,,,,,,,,,347.45999999999185,,response,,,,9,E,,,,,,Space,keypress(Space),,,,silence,,,,------ -- ------- ---- ---- ---- - -------- ----- --- --<br>----- ----- ------ -- ---- -- --- - ---- -- - ----- -----<br>------ ---- ------ ---- - -------- ------- -- the --------<br>-------- ----------- ---- ------ ---- ------ ---- --- ---<br>-------- --- -----,241195,241191,240842.9,240843,240843.54,241195.68,,32,the
screen,html.Screen,2_3_1_0_1_33,2022-05-02T09:49:04.517Z,,,,,,,,,,,,,,,,,40,,,,,,,,,,,,,,385.320000000007,,response,,,,9,E,,,,,,Space,keypress(Space),,,,silence,,,,------ -- ------- ---- ---- ---- - -------- ----- --- --<br>----- ----- ------ -- ---- -- --- - ---- -- - ----- -----<br>------ ---- ------ ---- - -------- ------- -- --- required<br>-------- ----------- ---- ------ ---- ------ ---- --- ---<br>-------- --- -----,241587,241581,241195.18,241195,241195.68,241587.76,,33,required
screen,html.Screen,2_3_1_0_1_34,2022-05-02T09:49:04.950Z,,,,,,,,,,,,,,,,,40,,,,,,,,,,,,,,415.2399999999907,,response,,,,9,E,,,,,,Space,keypress(Space),,,,silence,,,,------ -- ------- ---- ---- ---- - -------- ----- --- --<br>----- ----- ------ -- ---- -- --- - ---- -- - ----- -----<br>------ ---- ------ ---- - -------- ------- -- --- --------<br>permits. ----------- ---- ------ ---- ------ ---- --- ---<br>-------- --- -----,242019,242003,241587.2,241587,241587.76,242019.84,,34,permits.
screen,html.Screen,2_3_1_0_1_35,2022-05-02T09:49:05.398Z,,,,,,,,,,,,,,,,,40,,,,,,,,,,,,,,436.1600000000035,,response,,,,9,E,,,,,,Space,keypress(Space),,,,silence,,,,------ -- ------- ---- ---- ---- - -------- ----- --- --<br>----- ----- ------ -- ---- -- --- - ---- -- - ----- -----<br>------ ---- ------ ---- - -------- ------- -- --- --------<br>-------- Morningstar ---- ------ ---- ------ ---- --- ---<br>-------- --- -----,242467,242456,242019.26,242019,242019.84,242467.68,,35,Morningstar
screen,html.Screen,2_3_1_0_1_36,2022-05-02T09:49:06.269Z,,,,,,,,,,,,,,,,,40,,,,,,,,,,,,,,863.320000000007,,response,,,,9,E,,,,,,Space,keypress(Space),,,,silence,,,,------ -- ------- ---- ---- ---- - -------- ----- --- --<br>----- ----- ------ -- ---- -- --- - ---- -- - ----- -----<br>------ ---- ------ ---- - -------- ------- -- --- --------<br>-------- ----------- says ------ ---- ------ ---- --- ---<br>-------- --- -----,243339,243331,242467.1,242467,242467.68,243339.86,,36,says
screen,html.Screen,2_3_1_0_1_37,2022-05-02T09:49:06.766Z,,,,,,,,,,,,,,,,,40,,,,,,,,,,,,,,491.14000000001397,,response,,,,9,E,,,,,,Space,keypress(Space),,,,silence,,,,------ -- ------- ---- ---- ---- - -------- ----- --- --<br>----- ----- ------ -- ---- -- --- - ---- -- - ----- -----<br>------ ---- ------ ---- - -------- ------- -- --- --------<br>-------- ----------- ---- police ---- ------ ---- --- ---<br>-------- --- -----,243835,243831,243339.32,243339,243339.86,243835.88,,37,police
screen,html.Screen,2_3_1_0_1_38,2022-05-02T09:49:07.397Z,,,,,,,,,,,,,,,,,40,,,,,,,,,,,,,,620.1199999999953,,response,,,,9,E,,,,,,Space,keypress(Space),,,,silence,,,,------ -- ------- ---- ---- ---- - -------- ----- --- --<br>----- ----- ------ -- ---- -- --- - ---- -- - ----- -----<br>------ ---- ------ ---- - -------- ------- -- --- --------<br>-------- ----------- ---- ------ also ------ ---- --- ---<br>-------- --- -----,244467,244456,243835.26,243836,243835.88,244467.62,,38,also
screen,html.Screen,2_3_1_0_1_39,2022-05-02T09:49:08.157Z,,,,,,,,,,,,,,,,,40,,,,,,,,,,,,,,754.3800000000047,,response,,,,9,E,,,,,,Space,keypress(Space),,,,silence,,,,------ -- ------- ---- ---- ---- - -------- ----- --- --<br>----- ----- ------ -- ---- -- --- - ---- -- - ----- -----<br>------ ---- ------ ---- - -------- ------- -- --- --------<br>-------- ----------- ---- ------ ---- didn't ---- --- ---<br>-------- --- -----,245227,245222,244467.08,244467,244467.62,245227.6,,39,didn't
screen,html.Screen,2_3_1_0_1_40,2022-05-02T09:49:09.029Z,,,,,,,,,,,,,,,,,40,,,,,,,,,,,,,,854.3999999999942,,response,,,,9,E,,,,,,Space,keypress(Space),,,,silence,,,,------ -- ------- ---- ---- ---- - -------- ----- --- --<br>----- ----- ------ -- ---- -- --- - ---- -- - ----- -----<br>------ ---- ------ ---- - -------- ------- -- --- --------<br>-------- ----------- ---- ------ ---- ------ know --- ---<br>-------- --- -----,246099,246082,245227.02,245227,245227.6,246099.42,,40,know
screen,html.Screen,2_3_1_0_1_41,2022-05-02T09:49:09.494Z,,,,,,,,,,,,,,,,,40,,,,,,,,,,,,,,450.5799999999872,,response,,,,9,E,,,,,,Space,keypress(Space),,,,silence,,,,------ -- ------- ---- ---- ---- - -------- ----- --- --<br>----- ----- ------ -- ---- -- --- - ---- -- - ----- -----<br>------ ---- ------ ---- - -------- ------- -- --- --------<br>-------- ----------- ---- ------ ---- ------ ---- how ---<br>-------- --- -----,246563,246550,246099.06,246099,246099.42,246563.54,,41,how
screen,html.Screen,2_3_1_0_1_42,2022-05-02T09:49:09.982Z,,,,,,,,,,,,,,,,,40,,,,,,,,,,,,,,470.45999999999185,,response,,,,9,E,,,,,,Space,keypress(Space),,,,silence,,,,------ -- ------- ---- ---- ---- - -------- ----- --- --<br>----- ----- ------ -- ---- -- --- - ---- -- - ----- -----<br>------ ---- ------ ---- - -------- ------- -- --- --------<br>-------- ----------- ---- ------ ---- ------ ---- --- the<br>-------- --- -----,247051,247034,246563,246563,246563.54,247051.86,,42,the
screen,html.Screen,2_3_1_0_1_43,2022-05-02T09:49:10.972Z,,,,,,,,,,,,,,,,,40,,,,,,,,,,,,,,982.140000000014,,response,,,,9,E,,,,,,Space,keypress(Space),,,,silence,,,,------ -- ------- ---- ---- ---- - -------- ----- --- --<br>----- ----- ------ -- ---- -- --- - ---- -- - ----- -----<br>------ ---- ------ ---- - -------- ------- -- --- --------<br>-------- ----------- ---- ------ ---- ------ ---- --- ---<br>lemonade --- -----,248042,248034,247051.3,247052,247051.86,248043.24,,43,lemonade
screen,html.Screen,2_3_1_0_1_44,2022-05-02T09:49:11.413Z,,,,,,,,,,,,,,,,,40,,,,,,,,,,,,,,428.7600000000093,,response,,,,9,E,,,,,,Space,keypress(Space),,,,silence,,,,------ -- ------- ---- ---- ---- - -------- ----- --- --<br>----- ----- ------ -- ---- -- --- - ---- -- - ----- -----<br>------ ---- ------ ---- - -------- ------- -- --- --------<br>-------- ----------- ---- ------ ---- ------ ---- --- ---<br>-------- was -----,248482,248472,248042.68,248042,248043.24,248483.2,,44,was
screen,html.Screen,2_3_1_0_1_45,2022-05-02T09:49:12.117Z,,,,,,,,,,,,,,,,,40,,,,,,,,,,,,,,691.7999999999884,,response,,,,9,E,,,,,,Space,keypress(Space),,,,silence,,,,------ -- ------- ---- ---- ---- - -------- ----- --- --<br>----- ----- ------ -- ---- -- --- - ---- -- - ----- -----<br>------ ---- ------ ---- - -------- ------- -- --- --------<br>-------- ----------- ---- ------ ---- ------ ---- --- ---<br>-------- --- made.,249187,249175,248482.64,248482,248483.2,249188.04,,45,made.
Item 9,flow.Loop,2_3_1_0_1,2022-05-02T09:49:12.118Z,,,,,,,,,,,,,,,,,,,,,,,,,,,,,,,20786.79999999999,,completion,,,,,,,,,,,,,,,,,,,,,249187,249175,228371.54,228373,228388.2,249188.04,,,
Question 1,html.Screen,2_3_1_0_2,2022-05-02T09:49:15.829Z,,,,,,,,,,,,,,,,,,,,,,,,,,,,true,FALSE,,3689.959999999992,,response,,,,9,E,,,,,,FALSE,click #choice-2,,,,silence,,,,,252899,252878,249187.46,249188,249188.04,252904.86,,,
Question 2,html.Screen,2_3_1_0_3,2022-05-02T09:49:18.380Z,,,,,,,,,,,,,,,,,,,,,,,,,,,,true,FALSE,,2536.140000000014,,response,,,,9,E,,,,,,FALSE,click #choice-2,,,,silence,,,,,255450,255441,252897.04,252899,252904.86,255454.86,,,
Item 9,flow.Sequence,2_3_1_0,2022-05-02T09:49:18.381Z,,,,,,,,,,,,,,,,,,,,,,,,,,,,,,,34052.82000000001,,completion,,,,,,,,,,,,,,,,,,,,,255451,255441,221371.5,221373,221388.18,255454.86,,,
Holding screen,html.Screen,2_3_1_1_0,2022-05-02T09:49:25.370Z,,,,,,,,,,,,,,,,,,,,,,,,,,,,,,,7000.020000000019,,timeout,,,,,,,,,,,,,,,,,,,,,262439,262438.22,255448.98,255451,255454.86,262454.88,,,
screen,html.Screen,2_3_1_1_1_0,2022-05-02T09:49:26.094Z,,,,,,,,,,,,,,,,,2,,,,,,,,,,,,,,704.1199999999953,,response,,,,1,E,,,,,,Space,keypress(Space),,,,silence,,,,Two ---- ------ --- ------- ---------- ------- ----------<br>--- --------- --- ----------- ------- ----- ------- ---<br>--------- ---- -- --- ---- -- --------- -- ---- -------<br>-- --------- ------ --- ----- ------ ---- --- --------- --<br>------ - ---- -- --- ----------- ------- ---- ----- -----<br>--- -------- - ------ ---- -- ----- ---- --- --- -----------<br>-- -------,263162,263159,262438.22,262439,262454.88,263163.4,,0,Two
screen,html.Screen,2_3_1_1_1_1,2022-05-02T09:49:26.429Z,,,,,,,,,,,,,,,,,2,,,,,,,,,,,,,,325.5999999999767,,response,,,,1,E,,,,,,Space,keypress(Space),,,,silence,,,,--- days ------ --- ------- ---------- ------- ----------<br>--- --------- --- ----------- ------- ----- ------- ---<br>--------- ---- -- --- ---- -- --------- -- ---- -------<br>-- --------- ------ --- ----- ------ ---- --- --------- --<br>------ - ---- -- --- ----------- ------- ---- ----- -----<br>--- -------- - ------ ---- -- ----- ---- --- --- -----------<br>-- -------,263499,263489,263163.02,263163,263163.4,263499.68,,1,days
screen,html.Screen,2_3_1_1_1_2,2022-05-02T09:49:26.693Z,,,,,,,,,,,,,,,,,2,,,,,,,,,,,,,,253.32000000000698,,response,,,,1,E,,,,,,Space,keypress(Space),,,,silence,,,,"--- ---- later, --- ------- ---------- ------- ----------<br>--- --------- --- ----------- ------- ----- ------- ---<br>--------- ---- -- --- ---- -- --------- -- ---- -------<br>-- --------- ------ --- ----- ------ ---- --- --------- --<br>------ - ---- -- --- ----------- ------- ---- ----- -----<br>--- -------- - ------ ---- -- ----- ---- --- --- -----------<br>-- -------",263763,263753,263499.12,263499,263499.68,263763.52,,2,"later,"
screen,html.Screen,2_3_1_1_1_3,2022-05-02T09:49:27.077Z,,,,,,,,,,,,,,,,,2,,,,,,,,,,,,,,364.4799999999814,,response,,,,1,E,,,,,,Space,keypress(Space),,,,silence,,,,--- ---- ------ the ------- ---------- ------- ----------<br>--- --------- --- ----------- ------- ----- ------- ---<br>--------- ---- -- --- ---- -- --------- -- ---- -------<br>-- --------- ------ --- ----- ------ ---- --- --------- --<br>------ - ---- -- --- ----------- ------- ---- ----- -----<br>--- -------- - ------ ---- -- ----- ---- --- --- -----------<br>-- -------,264147,264128,263762.94,263763,263763.52,264147.56,,3,the
screen,html.Screen,2_3_1_1_1_4,2022-05-02T09:49:27.446Z,,,,,,,,,,,,,,,,,2,,,,,,,,,,,,,,355.4400000000023,,response,,,,1,E,,,,,,Space,keypress(Space),,,,silence,,,,--- ---- ------ --- British ---------- ------- ----------<br>--- --------- --- ----------- ------- ----- ------- ---<br>--------- ---- -- --- ---- -- --------- -- ---- -------<br>-- --------- ------ --- ----- ------ ---- --- --------- --<br>------ - ---- -- --- ----------- ------- ---- ----- -----<br>--- -------- - ------ ---- -- ----- ---- --- --- -----------<br>-- -------,264515,264503,264146.98,264147,264147.56,264515.74,,4,British
screen,html.Screen,2_3_1_1_1_5,2022-05-02T09:49:27.821Z,,,,,,,,,,,,,,,,,2,,,,,,,,,,,,,,363.2600000000093,,response,,,,1,E,,,,,,Space,keypress(Space),,,,silence,,,,--- ---- ------ --- ------- astronomer ------- ----------<br>--- --------- --- ----------- ------- ----- ------- ---<br>--------- ---- -- --- ---- -- --------- -- ---- -------<br>-- --------- ------ --- ----- ------ ---- --- --------- --<br>------ - ---- -- --- ----------- ------- ---- ----- -----<br>--- -------- - ------ ---- -- ----- ---- --- --- -----------<br>-- -------,264890,264879,264515.2,264515,264515.74,264891.42,,5,astronomer
screen,html.Screen,2_3_1_1_1_6,2022-05-02T09:49:28.180Z,,,,,,,,,,,,,,,,,2,,,,,,,,,,,,,,346.5800000000163,,response,,,,1,E,,,,,,Space,keypress(Space),,,,silence,,,,--- ---- ------ --- ------- ---------- Richard ----------<br>--- --------- --- ----------- ------- ----- ------- ---<br>--------- ---- -- --- ---- -- --------- -- ---- -------<br>-- --------- ------ --- ----- ------ ---- --- --------- --<br>------ - ---- -- --- ----------- ------- ---- ----- -----<br>--- -------- - ------ ---- -- ----- ---- --- --- -----------<br>-- -------,265250,265238,264890.86,264891,264891.42,265250.38,,6,Richard
screen,html.Screen,2_3_1_1_1_7,2022-05-02T09:49:28.677Z,,,,,,,,,,,,,,,,,2,,,,,,,,,,,,,,487.61999999999534,,response,,,,1,E,,,,,,Space,keypress(Space),,,,silence,,,,--- ---- ------ --- ------- ---------- ------- Carrington<br>--- --------- --- ----------- ------- ----- ------- ---<br>--------- ---- -- --- ---- -- --------- -- ---- -------<br>-- --------- ------ --- ----- ------ ---- --- --------- --<br>------ - ---- -- --- ----------- ------- ---- ----- -----<br>--- -------- - ------ ---- -- ----- ---- --- --- -----------<br>-- -------,265746,265738,265250.12,265250,265250.38,265747.68,,7,Carrington
screen,html.Screen,2_3_1_1_1_8,2022-05-02T09:49:29.085Z,,,,,,,,,,,,,,,,,2,,,,,,,,,,,,,,396.320000000007,,response,,,,1,E,,,,,,Space,keypress(Space),,,,silence,,,,--- ---- ------ --- ------- ---------- ------- ----------<br>was --------- --- ----------- ------- ----- ------- ---<br>--------- ---- -- --- ---- -- --------- -- ---- -------<br>-- --------- ------ --- ----- ------ ---- --- --------- --<br>------ - ---- -- --- ----------- ------- ---- ----- -----<br>--- -------- - ------ ---- -- ----- ---- --- --- -----------<br>-- -------,266154,266144,265747.08,265747,265747.68,266155.52,,8,was
screen,html.Screen,2_3_1_1_1_9,2022-05-02T09:49:29.405Z,,,,,,,,,,,,,,,,,2,,,,,,,,,,,,,,300.4799999999814,,response,,,,1,E,,,,,,Space,keypress(Space),,,,silence,,,,--- ---- ------ --- ------- ---------- ------- ----------<br>--- observing --- ----------- ------- ----- ------- ---<br>--------- ---- -- --- ---- -- --------- -- ---- -------<br>-- --------- ------ --- ----- ------ ---- --- --------- --<br>------ - ---- -- --- ----------- ------- ---- ----- -----<br>--- -------- - ------ ---- -- ----- ---- --- --- -----------<br>-- -------,266475,266456,266154.96,266154,266155.52,266475.38,,9,observing
