sender,sender_type,sender_id,timestamp,meta,,Blues,Classical,Country,Dance,Electronic,Folk,Gospel,Hip-Hop,Jazz,Latin,Musical/Film,New-age,Pop,Prolific_id,Provo_ID,R&B,Rap,Reggae,Religious,Rock,Soul,Swing,Traditional,age,artist_name,correct,correctResponse,distraction,duration,education,ended_on,familiarity,gender,headphone_check_performance,item,list,music_frequency,offensiveness,pleasantness,position_correct,preference,response,response_action,snippet_file,song_name,song_rating,sound,stimulus_1,stimulus_2,stimulus_3,text,time_commit,time_end,time_render,time_run,time_show,time_switch,url,word,word_ID
Prolific ID,html.Form,0,2022-05-04T09:06:05.338Z,"{""labjs_version"":""20.2.2"",""labjs_build"":{""flavor"":""production"",""commit"":""a25486e0c714a0ae2ce03ff94b7bb6896854dcfa""},""location"":""https://run.pavlovia.org/mvasilev/prolific3_music_b/"",""userAgent"":""Mozilla/5.0 (Windows NT 6.1; Win64; x64) AppleWebKit/537.36 (KHTML, like Gecko) Chrome/100.0.4896.127 Safari/537.36"",""platform"":""Win32"",""language"":""en-GB"",""locale"":""en-US"",""timeZone"":""Europe/London"",""timezoneOffset"":-60,""screen_width"":1366,""screen_height"":768,""scroll_width"":1366,""scroll_height"":609,""window_innerWidth"":1366,""window_innerHeight"":657,""devicePixelRatio"":1}",,,,,,,,,,,,,,,6094f14e5f0014a68821c2c1,,,,,,,,,,,,,,,4325.208999999628,,form submission,,,,,,,,,,,,,,,,,,,,,19907.099999999627,19905.599999999627,15530.391,15552.599999999627,15580.391,19930.391,{},,
Introduction,html.Screen,1_0,2022-05-04T09:06:12.874Z,,,,,,,,,,,,,,,,,,,,,,,,,,,,,,,7510.208999999628,,response,,,,,,,,,,,continue,click button,,,,,,,,,27443.099999999627,27440.599999999627,19880.391,19908,19930.391,27480.391,,,
Volume calibration,html.Screen,1_1,2022-05-04T09:07:10.633Z,,,,,,,,,,,,,,,,,,,,,,,,,,,,,,,57706.208999999624,,response,,,,,,,,,,,continue,click button,,,,,,,,,85200.5,85186.59999999963,27430.391,27443.5,27480.391,85205.391,,,
Task instructions,html.Screen,1_2,2022-05-04T09:07:24.095Z,,,,,,,,,,,,,,,,,,,,,,,,,,,,,,,13454.708999999624,,response,,,,,,,,,,,continue,click button,,,,,,,,,98661.89999999944,98660.09999999963,85180.391,85201.09999999963,85205.391,98680.391,,,
Sounds,html.Screen,1_3_0_0,2022-05-04T09:07:28.345Z,,,,,,,,,,,,,,,,,,,,,,,,,,,,,,,4250,,timeout,,,,,,,,,2,,,,,,,,O,S,I,,102912.09999999963,102905.391,98655.391,98662.39999999944,98680.391,102930.391,,,
Judgement,html.Screen,1_3_0_1,2022-05-04T09:07:29.922Z,,,,,,,,,,,,,,,,,,,,,,,,,,,,true,2,,1557.508999999438,,response,,,,,,,,,2,,2,click #choice-2,,,,,O,S,I,,104489,104487.89999999944,102905.391,102912.59999999963,102930.391,104505.391,,,
Trial,flow.Sequence,1_3_0,2022-05-04T09:07:29.922Z,,,,,,,,,,,,,,,,,,,,,,,,,,,,,,,5807.508999999438,,completion,,,,,,,,,2,,,,,,,,O,S,I,,104489.39999999944,104487.89999999944,98655.391,98662.39999999944,98680.391,104505.391,,,
Sounds,html.Screen,1_3_1_0,2022-05-04T09:07:34.165Z,,,,,,,,,,,,,,,,,,,,,,,,,,,,,,,4250,,timeout,,,,,,,,,1,,,,,,,,S,O,I,,108732.29999999981,108730.391,104480.391,104489.59999999963,104505.391,108755.391,,,
Judgement,html.Screen,1_3_1_1,2022-05-04T09:07:35.565Z,,,,,,,,,,,,,,,,,,,,,,,,,,,,true,1,,1374.309000000183,,response,,,,,,,,,1,,1,click #choice-1,,,,,S,O,I,,110131.89999999944,110129.70000000019,108730.391,108732.59999999963,108755.391,110155.391,,,
Trial,flow.Sequence,1_3_1,2022-05-04T09:07:35.565Z,,,,,,,,,,,,,,,,,,,,,,,,,,,,,,,5624.309000000183,,completion,,,,,,,,,1,,,,,,,,S,O,I,,110132.70000000019,110129.70000000019,104480.391,104489.5,104505.391,110155.391,,,
Sounds,html.Screen,1_3_2_0,2022-05-04T09:07:39.815Z,,,,,,,,,,,,,,,,,,,,,,,,,,,,,,,4250,,timeout,,,,,,,,,3,,,,,,,,I,O,S,,114382.39999999944,114380.391,110130.391,110133.39999999944,110155.391,114405.391,,,
Judgement,html.Screen,1_3_2_1,2022-05-04T09:07:41.577Z,,,,,,,,,,,,,,,,,,,,,,,,,,,,true,3,,1736.4089999998105,,response,,,,,,,,,3,,3,click #choice-3,,,,,I,O,S,,116143.89999999944,116141.79999999981,114380.391,114382.79999999981,114405.391,116155.391,,,
Trial,flow.Sequence,1_3_2,2022-05-04T09:07:41.577Z,,,,,,,,,,,,,,,,,,,,,,,,,,,,,,,5986.4089999998105,,completion,,,,,,,,,3,,,,,,,,I,O,S,,116144.70000000019,116141.79999999981,110130.391,110133.20000000019,110155.391,116155.391,,,
Sounds,html.Screen,1_3_3_0,2022-05-04T09:07:45.815Z,,,,,,,,,,,,,,,,,,,,,,,,,,,,,,,4250,,timeout,,,,,,,,,3,,,,,,,,O,I,S,,120382,120380.391,116130.391,116145.20000000019,116155.391,120405.391,,,
Judgement,html.Screen,1_3_3_1,2022-05-04T09:07:46.481Z,,,,,,,,,,,,,,,,,,,,,,,,,,,,true,3,,641.6089999999967,,response,,,,,,,,,3,,3,click #choice-3,,,,,O,I,S,,121048.09999999963,121047,120380.391,120382.20000000019,120405.391,121055.391,,,
Trial,flow.Sequence,1_3_3,2022-05-04T09:07:46.481Z,,,,,,,,,,,,,,,,,,,,,,,,,,,,,,,4891.608999999997,,completion,,,,,,,,,3,,,,,,,,O,I,S,,121048.29999999981,121047,116130.391,116145.09999999963,116155.391,121055.391,,,
Sounds,html.Screen,1_3_4_0,2022-05-04T09:07:50.716Z,,,,,,,,,,,,,,,,,,,,,,,,,,,,,,,4250,,timeout,,,,,,,,,1,,,,,,,,S,I,O,,125281.89999999944,125280.391,121030.391,121048.5,121055.391,125305.391,,,
Judgement,html.Screen,1_3_4_1,2022-05-04T09:07:51.478Z,,,,,,,,,,,,,,,,,,,,,,,,,,,,true,1,,736.1089999999967,,response,,,,,,,,,1,,1,click #choice-1,,,,,S,I,O,,126043.5,126041.5,125280.391,125282.29999999981,125305.391,126055.391,,,
Trial,flow.Sequence,1_3_4,2022-05-04T09:07:51.479Z,,,,,,,,,,,,,,,,,,,,,,,,,,,,,,,4986.108999999997,,completion,,,,,,,,,1,,,,,,,,S,I,O,,126044.09999999963,126041.5,121030.391,121048.5,121055.391,126055.391,,,
Sounds,html.Screen,1_3_5_0,2022-05-04T09:07:55.717Z,,,,,,,,,,,,,,,,,,,,,,,,,,,,,,,4250,,timeout,,,,,,,,,2,,,,,,,,I,S,O,,130282.20000000019,130280.391,126030.391,126044.79999999981,126055.391,130305.391,,,
Judgement,html.Screen,1_3_5_1,2022-05-04T09:07:56.324Z,,,,,,,,,,,,,,,,,,,,,,,,,,,,true,2,,583.2089999996242,,response,,,,,,,,,2,,2,click #choice-2,,,,,I,S,O,,130889.70000000019,130888.59999999963,130280.391,130282.5,130305.391,130905.391,,,
Trial,flow.Sequence,1_3_5,2022-05-04T09:07:56.324Z,,,,,,,,,,,,,,,,,,,,,,,,,,,,,,,4833.208999999624,,completion,,,,,,,,,2,,,,,,,,I,S,O,,130889.89999999944,130888.59999999963,126030.391,126044.5,126055.391,130905.391,,,
Task,flow.Loop,1_3,2022-05-04T09:07:56.331Z,,,,,,,,,,,,,,,,,,,,,,,,,,,,,,,32208.208999999624,,completion,,,1,,,,,,,,,,,,,,,,,,130896.29999999981,130888.59999999963,98655.391,98662.20000000019,98680.391,130905.391,,,
Trap,html.Screen,1_4,2022-05-04T09:07:56.332Z,,,,,,,,,,,,,,,,,,,,,,,,,,,,,,,NaN,,skipped,,,,,,,,,,,,,,,,,,,,,130897.70000000019,130888.59999999963,,130897.59999999963,,130905.391,,,
Thanks,html.Screen,1_5,2022-05-04T09:08:02.080Z,,,,,,,,,,,,,,,,,,,,,,,,,,,,,,,5737.309000000183,,response,,,,,,,,,,,continue,click button,,,,,,,,,136645.2000000002,136642.7000000002,130880.391,130897.79999999981,130905.391,140255.391,,,
Headphone screening,flow.Sequence,1,2022-05-04T09:08:02.080Z,,,,,,,,,,,,,,,,,,,,,,,,,,,,,,,116712.30900000018,,completion,,,,,,,,,,,,,,,,,,,,,136645.7999999998,136642.7000000002,19880.391,19908,19930.391,140255.391,,,
Instructions,html.Page,2_0,2022-05-04T09:08:27.208Z,,,,,,,,,,,,,,,,,,,,,,,,,,,,,,,21517.108999999997,,form submission,,,,,,,,,,,,,,,,,,,,,161773.59999999963,161772.5,140230.391,140265.2000000002,140255.391,161780.391,,,
Holding screen,html.Screen,2_1_0_0,2022-05-04T09:08:37.191Z,,,,,,,,,,,,,,,,,,,,,,,,,,,,,,,10000,,timeout,,,,,,,,,,,,,,,,,,,,,171756.2000000002,171755.391,161755.391,161774.2000000002,161780.391,171780.391,,,
screen,html.Screen,2_1_0_1_0,2022-05-04T09:08:38.502Z,,,,,,,,,,,,,,,,,53,,,,,,,,,,,,,,1280.1089999999967,,response,,,,99,,,,,,,Space,keypress(Space),,,,,,,,When -- ----- -- ------ - ------- --- ----------<br>------------- ------ ------ ---- ---- ------- ----- -- ----<br>-------- ------- -- ---------- --- - --- ----- ----- ----<br>---- --- --- ----- --- ---- ---- ------- ----- ---- -------<br>--- --- -- ----- -- --- ---- -- --- ---- -- ------ ------<br>--- ----- -- ----,173067.09999999963,173060.5,171755.391,171756.2999999998,171780.391,173080.391,,0,When
screen,html.Screen,2_1_0_1_1,2022-05-04T09:08:40.131Z,,,,,,,,,,,,,,,,,53,,,,,,,,,,,,,,1614.508999999438,,response,,,,99,,,,,,,Space,keypress(Space),,,,,,,,---- it ----- -- ------ - ------- --- ----------<br>------------- ------ ------ ---- ---- ------- ----- -- ----<br>-------- ------- -- ---------- --- - --- ----- ----- ----<br>---- --- --- ----- --- ---- ---- ------- ----- ---- -------<br>--- --- -- ----- -- --- ---- -- --- ---- -- ------ ------<br>--- ----- -- ----,174696.59999999963,174694.89999999944,173055.391,173067.5,173080.391,174705.391,,1,it
screen,html.Screen,2_1_0_1_2,2022-05-04T09:08:41.231Z,,,,,,,,,,,,,,,,,53,,,,,,,,,,,,,,1089.7089999996242,,response,,,,99,,,,,,,Space,keypress(Space),,,,,,,,---- -- comes -- ------ - ------- --- ----------<br>------------- ------ ------ ---- ---- ------- ----- -- ----<br>-------- ------- -- ---------- --- - --- ----- ----- ----<br>---- --- --- ----- --- ---- ---- ------- ----- ---- -------<br>--- --- -- ----- -- --- ---- -- --- ---- -- ------ ------<br>--- ----- -- ----,175796.5,175795.09999999963,174680.391,174696.89999999944,174705.391,175805.391,,2,comes
screen,html.Screen,2_1_0_1_3,2022-05-04T09:08:42.291Z,,,,,,,,,,,,,,,,,53,,,,,,,,,,,,,,1050.2089999996242,,response,,,,99,,,,,,,Space,keypress(Space),,,,,,,,---- -- ----- to ------ - ------- --- ----------<br>------------- ------ ------ ---- ---- ------- ----- -- ----<br>-------- ------- -- ---------- --- - --- ----- ----- ----<br>---- --- --- ----- --- ---- ---- ------- ----- ---- -------<br>--- --- -- ----- -- --- ---- -- --- ---- -- ------ ------<br>--- ----- -- ----,176857,176855.59999999963,175780.391,175796.89999999944,175805.391,176880.391,,3,to
screen,html.Screen,2_1_0_1_4,2022-05-04T09:08:43.293Z,,,,,,,,,,,,,,,,,53,,,,,,,,,,,,,,976.309000000183,,response,,,,99,,,,,,,Space,keypress(Space),,,,,,,,---- -- ----- -- having - ------- --- ----------<br>------------- ------ ------ ---- ---- ------- ----- -- ----<br>-------- ------- -- ---------- --- - --- ----- ----- ----<br>---- --- --- ----- --- ---- ---- ------- ----- ---- -------<br>--- --- -- ----- -- --- ---- -- --- ---- -- ------ ------<br>--- ----- -- ----,177858.2000000002,177856.7000000002,176855.391,176857.2999999998,176880.391,177880.391,,4,having
screen,html.Screen,2_1_0_1_5,2022-05-04T09:08:44.334Z,,,,,,,,,,,,,,,,,53,,,,,,,,,,,,,,1017.1089999999967,,response,,,,99,,,,,,,Space,keypress(Space),,,,,,,,---- -- ----- -- ------ a ------- --- ----------<br>------------- ------ ------ ---- ---- ------- ----- -- ----<br>-------- ------- -- ---------- --- - --- ----- ----- ----<br>---- --- --- ----- --- ---- ---- ------- ----- ---- -------<br>--- --- -- ----- -- --- ---- -- --- ---- -- ------ ------<br>--- ----- -- ----,178899.2999999998,178897.5,177855.391,177858.7000000002,177880.391,178905.391,,5,a
screen,html.Screen,2_1_0_1_6,2022-05-04T09:08:46.017Z,,,,,,,,,,,,,,,,,53,,,,,,,,,,,,,,1676.1089999999967,,response,,,,99,,,,,,,Space,keypress(Space),,,,,,,,---- -- ----- -- ------ - lasting --- ----------<br>------------- ------ ------ ---- ---- ------- ----- -- ----<br>-------- ------- -- ---------- --- - --- ----- ----- ----<br>---- --- --- ----- --- ---- ---- ------- ----- ---- -------<br>--- --- -- ----- -- --- ---- -- --- ---- -- ------ ------<br>--- ----- -- ----,180582.7999999998,180581.5,178880.391,178899.59999999963,178905.391,180605.391,,6,lasting
screen,html.Screen,2_1_0_1_7,2022-05-04T09:08:47.098Z,,,,,,,,,,,,,,,,,53,,,,,,,,,,,,,,1056.4089999998105,,response,,,,99,,,,,,,Space,keypress(Space),,,,,,,,---- -- ----- -- ------ - ------- and ----------<br>------------- ------ ------ ---- ---- ------- ----- -- ----<br>-------- ------- -- ---------- --- - --- ----- ----- ----<br>---- --- --- ----- --- ---- ---- ------- ----- ---- -------<br>--- --- -- ----- -- --- ---- -- --- ---- -- ------ ------<br>--- ----- -- ----,181662.59999999963,181661.7999999998,180580.391,180584,180605.391,181680.391,,7,and
screen,html.Screen,2_1_0_1_8,2022-05-04T09:08:48.101Z,,,,,,,,,,,,,,,,,53,,,,,,,,,,,,,,983.508999999438,,response,,,,99,,,,,,,Space,keypress(Space),,,,,,,,---- -- ----- -- ------ - ------- --- fulfilling<br>------------- ------ ------ ---- ---- ------- ----- -- ----<br>-------- ------- -- ---------- --- - --- ----- ----- ----<br>---- --- --- ----- --- ---- ---- ------- ----- ---- -------<br>--- --- -- ----- -- --- ---- -- --- ---- -- ------ ------<br>--- ----- -- ----,182665.5,182663.89999999944,181655.391,181662.7000000002,181680.391,182680.391,,8,fulfilling
screen,html.Screen,2_1_0_1_9,2022-05-04T09:08:49.747Z,,,,,,,,,,,,,,,,,53,,,,,,,,,,,,,,1629.309000000183,,response,,,,99,,,,,,,Space,keypress(Space),,,,,,,,"---- -- ----- -- ------ - ------- --- ----------<br>relationship, ------ ------ ---- ---- ------- ----- -- ----<br>-------- ------- -- ---------- --- - --- ----- ----- ----<br>---- --- --- ----- --- ---- ---- ------- ----- ---- -------<br>--- --- -- ----- -- --- ---- -- --- ---- -- ------ ------<br>--- ----- -- ----",184311.2999999998,184309.7000000002,182655.391,182665.7999999998,182680.391,184330.391,,9,"relationship,"
screen,html.Screen,2_1_0_1_10,2022-05-04T09:08:50.818Z,,,,,,,,,,,,,,,,,53,,,,,,,,,,,,,,1049.6089999999967,,response,,,,99,,,,,,,Space,keypress(Space),,,,,,,,---- -- ----- -- ------ - ------- --- ----------<br>------------- common ------ ---- ---- ------- ----- -- ----<br>-------- ------- -- ---------- --- - --- ----- ----- ----<br>---- --- --- ----- --- ---- ---- ------- ----- ---- -------<br>--- --- -- ----- -- --- ---- -- --- ---- -- ------ ------<br>--- ----- -- ----,185381.7000000002,185380,184305.391,184311.59999999963,184330.391,185405.391,,10,common
screen,html.Screen,2_1_0_1_11,2022-05-04T09:08:51.858Z,,,,,,,,,,,,,,,,,53,,,,,,,,,,,,,,1015.309000000183,,response,,,,99,,,,,,,Space,keypress(Space),,,,,,,,---- -- ----- -- ------ - ------- --- ----------<br>------------- ------ wisdom ---- ---- ------- ----- -- ----<br>-------- ------- -- ---------- --- - --- ----- ----- ----<br>---- --- --- ----- --- ---- ---- ------- ----- ---- -------<br>--- --- -- ----- -- --- ---- -- --- ---- -- ------ ------<br>--- ----- -- ----,186422.5,186420.7000000002,185380.391,185382,185405.391,186430.391,,11,wisdom
screen,html.Screen,2_1_0_1_12,2022-05-04T09:08:52.760Z,,,,,,,,,,,,,,,,,53,,,,,,,,,,,,,,892.309000000183,,response,,,,99,,,,,,,Space,keypress(Space),,,,,,,,---- -- ----- -- ------ - ------- --- ----------<br>------------- ------ ------ says ---- ------- ----- -- ----<br>-------- ------- -- ---------- --- - --- ----- ----- ----<br>---- --- --- ----- --- ---- ---- ------- ----- ---- -------<br>--- --- -- ----- -- --- ---- -- --- ---- -- ------ ------<br>--- ----- -- ----,187324.5,187322.7000000002,186405.391,186422.7000000002,186430.391,187330.391,,12,says
screen,html.Screen,2_1_0_1_13,2022-05-04T09:08:53.534Z,,,,,,,,,,,,,,,,,53,,,,,,,,,,,,,,765.2089999996242,,response,,,,99,,,,,,,Space,keypress(Space),,,,,,,,---- -- ----- -- ------ - ------- --- ----------<br>------------- ------ ------ ---- that ------- ----- -- ----<br>-------- ------- -- ---------- --- - --- ----- ----- ----<br>---- --- --- ----- --- ---- ---- ------- ----- ---- -------<br>--- --- -- ----- -- --- ---- -- --- ---- -- ------ ------<br>--- ----- -- ----,188097.7999999998,188095.59999999963,187305.391,187324.7999999998,187330.391,188105.391,,13,that
screen,html.Screen,2_1_0_1_14,2022-05-04T09:08:54.485Z,,,,,,,,,,,,,,,,,53,,,,,,,,,,,,,,942.2089999996242,,response,,,,99,,,,,,,Space,keypress(Space),,,,,,,,---- -- ----- -- ------ - ------- --- ----------<br>------------- ------ ------ ---- ---- feeling ----- -- ----<br>-------- ------- -- ---------- --- - --- ----- ----- ----<br>---- --- --- ----- --- ---- ---- ------- ----- ---- -------<br>--- --- -- ----- -- --- ---- -- --- ---- -- ------ ------<br>--- ----- -- ----,189049.5,189047.59999999963,188080.391,188098.09999999963,188105.391,189055.391,,14,feeling
screen,html.Screen,2_1_0_1_15,2022-05-04T09:08:55.308Z,,,,,,,,,,,,,,,,,53,,,,,,,,,,,,,,814.7089999996242,,response,,,,99,,,,,,,Space,keypress(Space),,,,,,,,---- -- ----- -- ------ - ------- --- ----------<br>------------- ------ ------ ---- ---- ------- close -- ----<br>-------- ------- -- ---------- --- - --- ----- ----- ----<br>---- --- --- ----- --- ---- ---- ------- ----- ---- -------<br>--- --- -- ----- -- --- ---- -- --- ---- -- ------ ------<br>--- ----- -- ----,189872.09999999963,189870.09999999963,189030.391,189049.89999999944,189055.391,189880.391,,15,close
screen,html.Screen,2_1_0_1_16,2022-05-04T09:08:55.883Z,,,,,,,,,,,,,,,,,53,,,,,,,,,,,,,,564.4089999998105,,response,,,,99,,,,,,,Space,keypress(Space),,,,,,,,---- -- ----- -- ------ - ------- --- ----------<br>------------- ------ ------ ---- ---- ------- ----- to ----<br>-------- ------- -- ---------- --- - --- ----- ----- ----<br>---- --- --- ----- --- ---- ---- ------- ----- ---- -------<br>--- --- -- ----- -- --- ---- -- --- ---- -- ------ ------<br>--- ----- -- ----,190447,190444.7999999998,189855.391,189872.5,189880.391,190455.391,,16,to
screen,html.Screen,2_1_0_1_17,2022-05-04T09:08:56.614Z,,,,,,,,,,,,,,,,,53,,,,,,,,,,,,,,722.1089999999967,,response,,,,99,,,,,,,Space,keypress(Space),,,,,,,,---- -- ----- -- ------ - ------- --- ----------<br>------------- ------ ------ ---- ---- ------- ----- -- your<br>-------- ------- -- ---------- --- - --- ----- ----- ----<br>---- --- --- ----- --- ---- ---- ------- ----- ---- -------<br>--- --- -- ----- -- --- ---- -- --- ---- -- ------ ------<br>--- ----- -- ----,191178.39999999944,191177.5,190430.391,190447.39999999944,190455.391,191180.391,,17,your
screen,html.Screen,2_1_0_1_18,2022-05-04T09:08:57.488Z,,,,,,,,,,,,,,,,,53,,,,,,,,,,,,,,869.9089999998105,,response,,,,99,,,,,,,Space,keypress(Space),,,,,,,,---- -- ----- -- ------ - ------- --- ----------<br>------------- ------ ------ ---- ---- ------- ----- -- ----<br>romantic ------- -- ---------- --- - --- ----- ----- ----<br>---- --- --- ----- --- ---- ---- ------- ----- ---- -------<br>--- --- -- ----- -- --- ---- -- --- ---- -- ------ ------<br>--- ----- -- ----,192052,192050.2999999998,191155.391,191178.5,191180.391,192055.391,,18,romantic
screen,html.Screen,2_1_0_1_19,2022-05-04T09:08:58.609Z,,,,,,,,,,,,,,,,,53,,,,,,,,,,,,,,1115.309000000183,,response,,,,99,,,,,,,Space,keypress(Space),,,,,,,,---- -- ----- -- ------ - ------- --- ----------<br>------------- ------ ------ ---- ---- ------- ----- -- ----<br>-------- partner -- ---------- --- - --- ----- ----- ----<br>---- --- --- ----- --- ---- ---- ------- ----- ---- -------<br>--- --- -- ----- -- --- ---- -- --- ---- -- ------ ------<br>--- ----- -- ----,193172.89999999944,193170.7000000002,192030.391,192052.39999999944,192055.391,193180.391,,19,partner
screen,html.Screen,2_1_0_1_20,2022-05-04T09:08:59.463Z,,,,,,,,,,,,,,,,,53,,,,,,,,,,,,,,843.008999999438,,response,,,,99,,,,,,,Space,keypress(Space),,,,,,,,---- -- ----- -- ------ - ------- --- ----------<br>------------- ------ ------ ---- ---- ------- ----- -- ----<br>-------- ------- is ---------- --- - --- ----- ----- ----<br>---- --- --- ----- --- ---- ---- ------- ----- ---- -------<br>--- --- -- ----- -- --- ---- -- --- ---- -- ------ ------<br>--- ----- -- ----,194026.89999999944,194023.39999999944,193155.391,193173.2000000002,193180.391,194030.391,,20,is
screen,html.Screen,2_1_0_1_21,2022-05-04T09:09:00.711Z,,,,,,,,,,,,,,,,,53,,,,,,,,,,,,,,1242.6089999999967,,response,,,,99,,,,,,,Space,keypress(Space),,,,,,,,---- -- ----- -- ------ - ------- --- ----------<br>------------- ------ ------ ---- ---- ------- ----- -- ----<br>-------- ------- -- paramount. --- - --- ----- ----- ----<br>---- --- --- ----- --- ---- ---- ------- ----- ---- -------<br>--- --- -- ----- -- --- ---- -- --- ---- -- ------ ------<br>--- ----- -- ----,195274.7000000002,195273,194005.391,194027.2000000002,194030.391,195280.391,,21,paramount.
screen,html.Screen,2_1_0_1_22,2022-05-04T09:09:01.652Z,,,,,,,,,,,,,,,,,53,,,,,,,,,,,,,,933.508999999438,,response,,,,99,,,,,,,Space,keypress(Space),,,,,,,,---- -- ----- -- ------ - ------- --- ----------<br>------------- ------ ------ ---- ---- ------- ----- -- ----<br>-------- ------- -- ---------- But - --- ----- ----- ----<br>---- --- --- ----- --- ---- ---- ------- ----- ---- -------<br>--- --- -- ----- -- --- ---- -- --- ---- -- ------ ------<br>--- ----- -- ----,196216.2000000002,196213.89999999944,195255.391,195274.89999999944,195280.391,196230.391,,22,But
screen,html.Screen,2_1_0_1_23,2022-05-04T09:09:02.445Z,,,,,,,,,,,,,,,,,53,,,,,,,,,,,,,,776.508999999438,,response,,,,99,,,,,,,Space,keypress(Space),,,,,,,,---- -- ----- -- ------ - ------- --- ----------<br>------------- ------ ------ ---- ---- ------- ----- -- ----<br>-------- ------- -- ---------- --- a --- ----- ----- ----<br>---- --- --- ----- --- ---- ---- ------- ----- ---- -------<br>--- --- -- ----- -- --- ---- -- --- ---- -- ------ ------<br>--- ----- -- ----,197008.59999999963,197006.89999999944,196205.391,196216.7000000002,196230.391,197030.391,,23,a
screen,html.Screen,2_1_0_1_24,2022-05-04T09:09:03.386Z,,,,,,,,,,,,,,,,,53,,,,,,,,,,,,,,918.309000000183,,response,,,,99,,,,,,,Space,keypress(Space),,,,,,,,---- -- ----- -- ------ - ------- --- ----------<br>------------- ------ ------ ---- ---- ------- ----- -- ----<br>-------- ------- -- ---------- --- - new ----- ----- ----<br>---- --- --- ----- --- ---- ---- ------- ----- ---- -------<br>--- --- -- ----- -- --- ---- -- --- ---- -- ------ ------<br>--- ----- -- ----,197950.39999999944,197948.7000000002,197005.391,197009,197030.391,197955.391,,24,new
screen,html.Screen,2_1_0_1_25,2022-05-04T09:09:04.428Z,,,,,,,,,,,,,,,,,53,,,,,,,,,,,,,,1034.4089999998105,,response,,,,99,,,,,,,Space,keypress(Space),,,,,,,,---- -- ----- -- ------ - ------- --- ----------<br>------------- ------ ------ ---- ---- ------- ----- -- ----<br>-------- ------- -- ---------- --- - --- study ----- ----<br>---- --- --- ----- --- ---- ---- ------- ----- ---- -------<br>--- --- -- ----- -- --- ---- -- --- ---- -- ------ ------<br>--- ----- -- ----,198992.09999999963,198989.7999999998,197930.391,197950.7000000002,197955.391,199005.391,,25,study
screen,html.Screen,2_1_0_1_26,2022-05-04T09:09:05.250Z,,,,,,,,,,,,,,,,,53,,,,,,,,,,,,,,806.6089999999967,,response,,,,99,,,,,,,Space,keypress(Space),,,,,,,,---- -- ----- -- ------ - ------- --- ----------<br>------------- ------ ------ ---- ---- ------- ----- -- ----<br>-------- ------- -- ---------- --- - --- ----- finds ----<br>---- --- --- ----- --- ---- ---- ------- ----- ---- -------<br>--- --- -- ----- -- --- ---- -- --- ---- -- ------ ------<br>--- ----- -- ----,199814.09999999963,199812,198980.391,198992.7999999998,199005.391,199830.391,,26,finds
screen,html.Screen,2_1_0_1_27,2022-05-04T09:09:06.527Z,,,,,,,,,,,,,,,,,53,,,,,,,,,,,,,,1259.309000000183,,response,,,,99,,,,,,,Space,keypress(Space),,,,,,,,---- -- ----- -- ------ - ------- --- ----------<br>------------- ------ ------ ---- ---- ------- ----- -- ----<br>-------- ------- -- ---------- --- - --- ----- ----- that<br>---- --- --- ----- --- ---- ---- ------- ----- ---- -------<br>--- --- -- ----- -- --- ---- -- --- ---- -- ------ ------<br>--- ----- -- ----,201090.89999999944,201089.7000000002,199805.391,199814.39999999944,199830.391,201105.391,,27,that
screen,html.Screen,2_1_0_1_28,2022-05-04T09:09:07.528Z,,,,,,,,,,,,,,,,,53,,,,,,,,,,,,,,985.4089999998105,,response,,,,99,,,,,,,Space,keypress(Space),,,,,,,,---- -- ----- -- ------ - ------- --- ----------<br>------------- ------ ------ ---- ---- ------- ----- -- ----<br>-------- ------- -- ---------- --- - --- ----- ----- ----<br>it's --- --- ----- --- ---- ---- ------- ----- ---- -------<br>--- --- -- ----- -- --- ---- -- --- ---- -- ------ ------<br>--- ----- -- ----,202091.7000000002,202090.7999999998,201080.391,201091.09999999963,201105.391,202105.391,,28,it's
screen,html.Screen,2_1_0_1_29,2022-05-04T09:09:08.333Z,,,,,,,,,,,,,,,,,53,,,,,,,,,,,,,,789.508999999438,,response,,,,99,,,,,,,Space,keypress(Space),,,,,,,,---- -- ----- -- ------ - ------- --- ----------<br>------------- ------ ------ ---- ---- ------- ----- -- ----<br>-------- ------- -- ---------- --- - --- ----- ----- ----<br>---- not --- ----- --- ---- ---- ------- ----- ---- -------<br>--- --- -- ----- -- --- ---- -- --- ---- -- ------ ------<br>--- ----- -- ----,202896.7000000002,202894.89999999944,202080.391,202091.7999999998,202105.391,202905.391,,29,not
screen,html.Screen,2_1_0_1_30,2022-05-04T09:09:09.076Z,,,,,,,,,,,,,,,,,53,,,,,,,,,,,,,,733.1089999999967,,response,,,,99,,,,,,,Space,keypress(Space),,,,,,,,---- -- ----- -- ------ - ------- --- ----------<br>------------- ------ ------ ---- ---- ------- ----- -- ----<br>-------- ------- -- ---------- --- - --- ----- ----- ----<br>---- --- how ----- --- ---- ---- ------- ----- ---- -------<br>--- --- -- ----- -- --- ---- -- --- ---- -- ------ ------<br>--- ----- -- ----,203640.2000000002,203638.5,202880.391,202897,202905.391,203655.391,,30,how
screen,html.Screen,2_1_0_1_31,2022-05-04T09:09:09.770Z,,,,,,,,,,,,,,,,,53,,,,,,,,,,,,,,677.1089999999967,,response,,,,99,,,,,,,Space,keypress(Space),,,,,,,,---- -- ----- -- ------ - ------- --- ----------<br>------------- ------ ------ ---- ---- ------- ----- -- ----<br>-------- ------- -- ---------- --- - --- ----- ----- ----<br>---- --- --- close --- ---- ---- ------- ----- ---- -------<br>--- --- -- ----- -- --- ---- -- --- ---- -- ------ ------<br>--- ----- -- ----,204334.39999999944,204332.5,203630.391,203640.5,203655.391,204355.391,,31,close
screen,html.Screen,2_1_0_1_32,2022-05-04T09:09:10.434Z,,,,,,,,,,,,,,,,,53,,,,,,,,,,,,,,640.9089999998105,,response,,,,99,,,,,,,Space,keypress(Space),,,,,,,,---- -- ----- -- ------ - ------- --- ----------<br>------------- ------ ------ ---- ---- ------- ----- -- ----<br>-------- ------- -- ---------- --- - --- ----- ----- ----<br>---- --- --- ----- you ---- ---- ------- ----- ---- -------<br>--- --- -- ----- -- --- ---- -- --- ---- -- ------ ------<br>--- ----- -- ----,204998.2000000002,204996.2999999998,204330.391,204334.7999999998,204355.391,205005.391,,32,you
screen,html.Screen,2_1_0_1_33,2022-05-04T09:09:11.525Z,,,,,,,,,,,,,,,,,53,,,,,,,,,,,,,,1081.809000000183,,response,,,,99,,,,,,,Space,keypress(Space),,,,,,,,---- -- ----- -- ------ - ------- --- ----------<br>------------- ------ ------ ---- ---- ------- ----- -- ----<br>-------- ------- -- ---------- --- - --- ----- ----- ----<br>---- --- --- ----- --- feel ---- ------- ----- ---- -------<br>--- --- -- ----- -- --- ---- -- --- ---- -- ------ ------<br>--- ----- -- ----,206088.7999999998,206087.2000000002,204980.391,204998.59999999963,205005.391,206105.391,,33,feel
screen,html.Screen,2_1_0_1_34,2022-05-04T09:09:12.281Z,,,,,,,,,,,,,,,,,53,,,,,,,,,,,,,,737.4089999998105,,response,,,,99,,,,,,,Space,keypress(Space),,,,,,,,---- -- ----- -- ------ - ------- --- ----------<br>------------- ------ ------ ---- ---- ------- ----- -- ----<br>-------- ------- -- ---------- --- - --- ----- ----- ----<br>---- --- --- ----- --- ---- that ------- ----- ---- -------<br>--- --- -- ----- -- --- ---- -- --- ---- -- ------ ------<br>--- ----- -- ----,206844.7999999998,206842.7999999998,206080.391,206089.2000000002,206105.391,206855.391,,34,that
screen,html.Screen,2_1_0_1_35,2022-05-04T09:09:13.160Z,,,,,,,,,,,,,,,,,53,,,,,,,,,,,,,,866.809000000183,,response,,,,99,,,,,,,Space,keypress(Space),,,,,,,,---- -- ----- -- ------ - ------- --- ----------<br>------------- ------ ------ ---- ---- ------- ----- -- ----<br>-------- ------- -- ---------- --- - --- ----- ----- ----<br>---- --- --- ----- --- ---- ---- matters ----- ---- -------<br>--- --- -- ----- -- --- ---- -- --- ---- -- ------ ------<br>--- ----- -- ----,207724.2999999998,207722.2000000002,206830.391,206845.09999999963,206855.391,207730.391,,35,matters
screen,html.Screen,2_1_0_1_36,2022-05-04T09:09:14.251Z,,,,,,,,,,,,,,,,,53,,,,,,,,,,,,,,1082.309000000183,,response,,,,99,,,,,,,Space,keypress(Space),,,,,,,,"---- -- ----- -- ------ - ------- --- ----------<br>------------- ------ ------ ---- ---- ------- ----- -- ----<br>-------- ------- -- ---------- --- - --- ----- ----- ----<br>---- --- --- ----- --- ---- ---- ------- most, ---- -------<br>--- --- -- ----- -- --- ---- -- --- ---- -- ------ ------<br>--- ----- -- ----",208814.7999999998,208812.7000000002,207705.391,207724.5,207730.391,208830.391,,36,"most,"
screen,html.Screen,2_1_0_1_37,2022-05-04T09:09:15.023Z,,,,,,,,,,,,,,,,,53,,,,,,,,,,,,,,755.008999999438,,response,,,,99,,,,,,,Space,keypress(Space),,,,,,,,---- -- ----- -- ------ - ------- --- ----------<br>------------- ------ ------ ---- ---- ------- ----- -- ----<br>-------- ------- -- ---------- --- - --- ----- ----- ----<br>---- --- --- ----- --- ---- ---- ------- ----- it's -------<br>--- --- -- ----- -- --- ---- -- --- ---- -- ------ ------<br>--- ----- -- ----,209587.5,209585.39999999944,208805.391,208815.09999999963,208830.391,209605.391,,37,it's
screen,html.Screen,2_1_0_1_38,2022-05-04T09:09:15.945Z,,,,,,,,,,,,,,,,,53,,,,,,,,,,,,,,902.2089999996242,,response,,,,99,,,,,,,Space,keypress(Space),,,,,,,,---- -- ----- -- ------ - ------- --- ----------<br>------------- ------ ------ ---- ---- ------- ----- -- ----<br>-------- ------- -- ---------- --- - --- ----- ----- ----<br>---- --- --- ----- --- ---- ---- ------- ----- ---- whether<br>--- --- -- ----- -- --- ---- -- --- ---- -- ------ ------<br>--- ----- -- ----,210509.39999999944,210507.59999999963,209580.391,209587.89999999944,209605.391,210530.391,,38,whether
screen,html.Screen,2_1_0_1_39,2022-05-04T09:09:16.637Z,,,,,,,,,,,,,,,,,53,,,,,,,,,,,,,,670.008999999438,,response,,,,99,,,,,,,Space,keypress(Space),,,,,,,,---- -- ----- -- ------ - ------- --- ----------<br>------------- ------ ------ ---- ---- ------- ----- -- ----<br>-------- ------- -- ---------- --- - --- ----- ----- ----<br>---- --- --- ----- --- ---- ---- ------- ----- ---- -------<br>you --- -- ----- -- --- ---- -- --- ---- -- ------ ------<br>--- ----- -- ----,211201.2999999998,211200.39999999944,210505.391,210509.7000000002,210530.391,211205.391,,39,you
screen,html.Screen,2_1_0_1_40,2022-05-04T09:09:17.364Z,,,,,,,,,,,,,,,,,53,,,,,,,,,,,,,,719.9089999998105,,response,,,,99,,,,,,,Space,keypress(Space),,,,,,,,---- -- ----- -- ------ - ------- --- ----------<br>------------- ------ ------ ---- ---- ------- ----- -- ----<br>-------- ------- -- ---------- --- - --- ----- ----- ----<br>---- --- --- ----- --- ---- ---- ------- ----- ---- -------<br>--- are -- ----- -- --- ---- -- --- ---- -- ------ ------<br>--- ----- -- ----,211927.7000000002,211925.2999999998,211180.391,211201.5,211205.391,211930.391,,40,are
screen,html.Screen,2_1_0_1_41,2022-05-04T09:09:18.195Z,,,,,,,,,,,,,,,,,53,,,,,,,,,,,,,,827.1089999999967,,response,,,,99,,,,,,,Space,keypress(Space),,,,,,,,---- -- ----- -- ------ - ------- --- ----------<br>------------- ------ ------ ---- ---- ------- ----- -- ----<br>-------- ------- -- ---------- --- - --- ----- ----- ----<br>---- --- --- ----- --- ---- ---- ------- ----- ---- -------<br>--- --- as ----- -- --- ---- -- --- ---- -- ------ ------<br>--- ----- -- ----,212759.5,212757.5,211905.391,211928,211930.391,212780.391,,41,as
screen,html.Screen,2_1_0_1_42,2022-05-04T09:09:19.911Z,,,,,,,,,,,,,,,,,53,,,,,,,,,,,,,,1692.4089999998105,,response,,,,99,,,,,,,Space,keypress(Space),,,,,,,,---- -- ----- -- ------ - ------- --- ----------<br>------------- ------ ------ ---- ---- ------- ----- -- ----<br>-------- ------- -- ---------- --- - --- ----- ----- ----<br>---- --- --- ----- --- ---- ---- ------- ----- ---- -------<br>--- --- -- close -- --- ---- -- --- ---- -- ------ ------<br>--- ----- -- ----,214475.2999999998,214472.7999999998,212755.391,212759.7999999998,212780.391,214480.391,,42,close
screen,html.Screen,2_1_0_1_43,2022-05-04T09:09:20.505Z,,,,,,,,,,,,,,,,,53,,,,,,,,,,,,,,586.7089999996242,,response,,,,99,,,,,,,Space,keypress(Space),,,,,,,,---- -- ----- -- ------ - ------- --- ----------<br>------------- ------ ------ ---- ---- ------- ----- -- ----<br>-------- ------- -- ---------- --- - --- ----- ----- ----<br>---- --- --- ----- --- ---- ---- ------- ----- ---- -------<br>--- --- -- ----- as --- ---- -- --- ---- -- ------ ------<br>--- ----- -- ----,215069.09999999963,215067.09999999963,214455.391,214475.7000000002,214480.391,215080.391,,43,as
screen,html.Screen,2_1_0_1_44,2022-05-04T09:09:21.070Z,,,,,,,,,,,,,,,,,53,,,,,,,,,,,,,,552.1089999999967,,response,,,,99,,,,,,,Space,keypress(Space),,,,,,,,---- -- ----- -- ------ - ------- --- ----------<br>------------- ------ ------ ---- ---- ------- ----- -- ----<br>-------- ------- -- ---------- --- - --- ----- ----- ----<br>---- --- --- ----- --- ---- ---- ------- ----- ---- -------<br>--- --- -- ----- -- you ---- -- --- ---- -- ------ ------<br>--- ----- -- ----,215634.5,215632.5,215055.391,215069.39999999944,215080.391,215655.391,,44,you
screen,html.Screen,2_1_0_1_45,2022-05-04T09:09:21.576Z,,,,,,,,,,,,,,,,,53,,,,,,,,,,,,,,483.2089999996242,,response,,,,99,,,,,,,Space,keypress(Space),,,,,,,,---- -- ----- -- ------ - ------- --- ----------<br>------------- ------ ------ ---- ---- ------- ----- -- ----<br>-------- ------- -- ---------- --- - --- ----- ----- ----<br>---- --- --- ----- --- ---- ---- ------- ----- ---- -------<br>--- --- -- ----- -- --- want -- --- ---- -- ------ ------<br>--- ----- -- ----,216140.2999999998,216138.59999999963,215630.391,215634.7000000002,215655.391,216155.391,,45,want
screen,html.Screen,2_1_0_1_46,2022-05-04T09:09:22.074Z,,,,,,,,,,,,,,,,,53,,,,,,,,,,,,,,477.4089999998105,,response,,,,99,,,,,,,Space,keypress(Space),,,,,,,,---- -- ----- -- ------ - ------- --- ----------<br>------------- ------ ------ ---- ---- ------- ----- -- ----<br>-------- ------- -- ---------- --- - --- ----- ----- ----<br>---- --- --- ----- --- ---- ---- ------- ----- ---- -------<br>--- --- -- ----- -- --- ---- to --- ---- -- ------ ------<br>--- ----- -- ----,216637.59999999963,216632.7999999998,216130.391,216140.5,216155.391,216655.391,,46,to
screen,html.Screen,2_1_0_1_47,2022-05-04T09:09:22.735Z,,,,,,,,,,,,,,,,,53,,,,,,,,,,,,,,642.008999999438,,response,,,,99,,,,,,,Space,keypress(Space),,,,,,,,"---- -- ----- -- ------ - ------- --- ----------<br>------------- ------ ------ ---- ---- ------- ----- -- ----<br>-------- ------- -- ---------- --- - --- ----- ----- ----<br>---- --- --- ----- --- ---- ---- ------- ----- ---- -------<br>--- --- -- ----- -- --- ---- -- be, ---- -- ------ ------<br>--- ----- -- ----",217299.5,217297.39999999944,216630.391,216638.2000000002,216655.391,217305.391,,47,"be,"
screen,html.Screen,2_1_0_1_48,2022-05-04T09:09:23.281Z,,,,,,,,,,,,,,,,,53,,,,,,,,,,,,,,537.4089999998105,,response,,,,99,,,,,,,Space,keypress(Space),,,,,,,,---- -- ----- -- ------ - ------- --- ----------<br>------------- ------ ------ ---- ---- ------- ----- -- ----<br>-------- ------- -- ---------- --- - --- ----- ----- ----<br>---- --- --- ----- --- ---- ---- ------- ----- ---- -------<br>--- --- -- ----- -- --- ---- -- --- even -- ------ ------<br>--- ----- -- ----,217844.7000000002,217842.7999999998,217280.391,217299.7000000002,217305.391,217855.391,,48,even
screen,html.Screen,2_1_0_1_49,2022-05-04T09:09:23.777Z,,,,,,,,,,,,,,,,,53,,,,,,,,,,,,,,483.10899999999674,,response,,,,99,,,,,,,Space,keypress(Space),,,,,,,,---- -- ----- -- ------ - ------- --- ----------<br>------------- ------ ------ ---- ---- ------- ----- -- ----<br>-------- ------- -- ---------- --- - --- ----- ----- ----<br>---- --- --- ----- --- ---- ---- ------- ----- ---- -------<br>--- --- -- ----- -- --- ---- -- --- ---- if ------ ------<br>--- ----- -- ----,218341.2000000002,218338.5,217830.391,217845,217855.391,218355.391,,49,if
screen,html.Screen,2_1_0_1_50,2022-05-04T09:09:24.243Z,,,,,,,,,,,,,,,,,53,,,,,,,,,,,,,,449.00899999943795,,response,,,,99,,,,,,,Space,keypress(Space),,,,,,,,---- -- ----- -- ------ - ------- --- ----------<br>------------- ------ ------ ---- ---- ------- ----- -- ----<br>-------- ------- -- ---------- --- - --- ----- ----- ----<br>---- --- --- ----- --- ---- ---- ------- ----- ---- -------<br>--- --- -- ----- -- --- ---- -- --- ---- -- that's ------<br>--- ----- -- ----,218806.7999999998,218804.39999999944,218330.391,218341.59999999963,218355.391,218830.391,,50,that's
screen,html.Screen,2_1_0_1_51,2022-05-04T09:09:24.778Z,,,,,,,,,,,,,,,,,53,,,,,,,,,,,,,,509.00899999943795,,response,,,,99,,,,,,,Space,keypress(Space),,,,,,,,---- -- ----- -- ------ - ------- --- ----------<br>------------- ------ ------ ---- ---- ------- ----- -- ----<br>-------- ------- -- ---------- --- - --- ----- ----- ----<br>---- --- --- ----- --- ---- ---- ------- ----- ---- -------<br>--- --- -- ----- -- --- ---- -- --- ---- -- ------ really<br>--- ----- -- ----,219341.89999999944,219339.39999999944,218805.391,218807.09999999963,218830.391,219355.391,,51,really
screen,html.Screen,2_1_0_1_52,2022-05-04T09:09:25.461Z,,,,,,,,,,,,,,,,,53,,,,,,,,,,,,,,667.7089999996242,,response,,,,99,,,,,,,Space,keypress(Space),,,,,,,,---- -- ----- -- ------ - ------- --- ----------<br>------------- ------ ------ ---- ---- ------- ----- -- ----<br>-------- ------- -- ---------- --- - --- ----- ----- ----<br>---- --- --- ----- --- ---- ---- ------- ----- ---- -------<br>--- --- -- ----- -- --- ---- -- --- ---- -- ------ ------<br>not ----- -- ----,220025.09999999963,220023.09999999963,219330.391,219342.2000000002,219355.391,220030.391,,52,not
screen,html.Screen,2_1_0_1_53,2022-05-04T09:09:25.986Z,,,,,,,,,,,,,,,,,53,,,,,,,,,,,,,,517.9089999998105,,response,,,,99,,,,,,,Space,keypress(Space),,,,,,,,---- -- ----- -- ------ - ------- --- ----------<br>------------- ------ ------ ---- ---- ------- ----- -- ----<br>-------- ------- -- ---------- --- - --- ----- ----- ----<br>---- --- --- ----- --- ---- ---- ------- ----- ---- -------<br>--- --- -- ----- -- --- ---- -- --- ---- -- ------ ------<br>--- close -- ----,220549.7999999998,220548.2999999998,220005.391,220025.5,220030.391,220555.391,,53,close
screen,html.Screen,2_1_0_1_54,2022-05-04T09:09:26.490Z,,,,,,,,,,,,,,,,,53,,,,,,,,,,,,,,497.7089999996242,,response,,,,99,,,,,,,Space,keypress(Space),,,,,,,,---- -- ----- -- ------ - ------- --- ----------<br>------------- ------ ------ ---- ---- ------- ----- -- ----<br>-------- ------- -- ---------- --- - --- ----- ----- ----<br>---- --- --- ----- --- ---- ---- ------- ----- ---- -------<br>--- --- -- ----- -- --- ---- -- --- ---- -- ------ ------<br>--- ----- at ----,221053.89999999944,221053.09999999963,220530.391,220550.39999999944,220555.391,221055.391,,54,at
screen,html.Screen,2_1_0_1_55,2022-05-04T09:09:27.443Z,,,,,,,,,,,,,,,,,53,,,,,,,,,,,,,,950.2089999996242,,response,,,,99,,,,,,,Space,keypress(Space),,,,,,,,---- -- ----- -- ------ - ------- --- ----------<br>------------- ------ ------ ---- ---- ------- ----- -- ----<br>-------- ------- -- ---------- --- - --- ----- ----- ----<br>---- --- --- ----- --- ---- ---- ------- ----- ---- -------<br>--- --- -- ----- -- --- ---- -- --- ---- -- ------ ------<br>--- ----- -- all.,222007.5,222005.59999999963,221030.391,221054,221055.391,222030.391,,55,all.
Item 99,flow.Loop,2_1_0_1,2022-05-04T09:09:27.444Z,,,,,,,,,,,,,,,,,,,,,,,,,,,,,,,50225.208999999624,,completion,,,,,B,,,,,,,,,,,silence,,,,,222008.2000000002,222005.59999999963,171755.391,171756.2999999998,171780.391,222030.391,,,
Question 1,html.Screen,2_1_0_2,2022-05-04T09:09:33.254Z,,,,,,,,,,,,,,,,,,,,,,,,,,,,true,FALSE,,5785.008999999438,,response,,,,99,B,,,,,,FALSE,click #choice-2,,,,silence,,,,,227817.7999999998,227815.39999999944,222005.391,222008.7000000002,222030.391,227830.391,,,
Question 2,html.Screen,2_1_0_3,2022-05-04T09:09:40.856Z,,,,,,,,,,,,,,,,,,,,,,,,,,,,true,TRUE,,7586.9089999998105,,response,,,,99,B,,,,,,TRUE,click #choice-1,,,,silence,,,,,235419.7000000002,235417.2999999998,227805.391,227818.2000000002,227830.391,235430.391,,,
Item 99,flow.Sequence,2_1_0,2022-05-04T09:09:40.856Z,,,,,,,,,,,,,,,,,,,,,,,,,,,,,,,73636.90899999981,,completion,,,,,,,,,,,,,,,,,,,,,235420.2000000002,235417.2999999998,161755.391,161774.09999999963,161780.391,235430.391,,,
Holding screen,html.Screen,2_1_1_0,2022-05-04T09:09:50.844Z,,,,,,,,,,,,,,,,,,,,,,,,,,,,,,,10000,,timeout,,,,,,,,,,,,,,,,,,,,,245407.09999999963,245405.391,235405.391,235420.59999999963,235430.391,245430.391,,,
screen,html.Screen,2_1_1_1_0,2022-05-04T09:09:52.668Z,,,,,,,,,,,,,,,,,54,,,,,,,,,,,,,,1799.008999999438,,response,,,,100,,,,,,,Space,keypress(Space),,,,,,,,At --- ---- --- ------ ----- ------- ---- -- --- ------- --<br>------- ---------- ------ -- ----- -- ----- -- ---- ------<br>--- ----- --- --- ------ -------- ----- --- ------ ----- --<br>----- ----- ---------- --- --- ------ ------ ---- -- ------<br>------- --- ------ ----- --- ---- ------- -- ---- --- --<br>------- ------,247231.2000000002,247229.39999999944,245405.391,245407.7000000002,245430.391,247255.391,,0,At
screen,html.Screen,2_1_1_1_1,2022-05-04T09:09:54.016Z,,,,,,,,,,,,,,,,,54,,,,,,,,,,,,,,1321.7089999996242,,response,,,,100,,,,,,,Space,keypress(Space),,,,,,,,-- the ---- --- ------ ----- ------- ---- -- --- ------- --<br>------- ---------- ------ -- ----- -- ----- -- ---- ------<br>--- ----- --- --- ------ -------- ----- --- ------ ----- --<br>----- ----- ---------- --- --- ------ ------ ---- -- ------<br>------- --- ------ ----- --- ---- ------- -- ---- --- --<br>------- ------,248578.7000000002,248577.09999999963,247230.391,247231.5,247255.391,248580.391,,1,the
screen,html.Screen,2_1_1_1_2,2022-05-04T09:09:55.146Z,,,,,,,,,,,,,,,,,54,,,,,,,,,,,,,,1126.809000000183,,response,,,,100,,,,,,,Space,keypress(Space),,,,,,,,-- --- time --- ------ ----- ------- ---- -- --- ------- --<br>------- ---------- ------ -- ----- -- ----- -- ---- ------<br>--- ----- --- --- ------ -------- ----- --- ------ ----- --<br>----- ----- ---------- --- --- ------ ------ ---- -- ------<br>------- --- ------ ----- --- ---- ------- -- ---- --- --<br>------- ------,249708.89999999944,249707.2000000002,248555.391,248579.09999999963,248580.391,249730.391,,2,time
screen,html.Screen,2_1_1_1_3,2022-05-04T09:09:59.676Z,,,,,,,,,,,,,,,,,54,,,,,,,,,,,,,,4506.4089999998105,,response,,,,100,,,,,,,Space,keypress(Space),,,,,,,,-- --- ---- the ------ ----- ------- ---- -- --- ------- --<br>------- ---------- ------ -- ----- -- ----- -- ---- ------<br>--- ----- --- --- ------ -------- ----- --- ------ ----- --<br>----- ----- ---------- --- --- ------ ------ ---- -- ------<br>------- --- ------ ----- --- ---- ------- -- ---- --- --<br>------- ------,254238.2999999998,254236.7999999998,249705.391,249709.2999999998,249730.391,254255.391,,3,the
screen,html.Screen,2_1_1_1_4,2022-05-04T09:10:00.350Z,,,,,,,,,,,,,,,,,54,,,,,,,,,,,,,,655.4089999998105,,response,,,,100,,,,,,,Space,keypress(Space),,,,,,,,-- --- ---- --- French ----- ------- ---- -- --- ------- --<br>------- ---------- ------ -- ----- -- ----- -- ---- ------<br>--- ----- --- --- ------ -------- ----- --- ------ ----- --<br>----- ----- ---------- --- --- ------ ------ ---- -- ------<br>------- --- ------ ----- --- ---- ------- -- ---- --- --<br>------- ------,254912.2999999998,254910.7999999998,254230.391,254238.59999999963,254255.391,254930.391,,4,French
screen,html.Screen,2_1_1_1_5,2022-05-04T09:10:01.657Z,,,,,,,,,,,,,,,,,54,,,,,,,,,,,,,,1288.2089999996242,,response,,,,100,,,,,,,Space,keypress(Space),,,,,,,,-- --- ---- --- ------ crown ------- ---- -- --- ------- --<br>------- ---------- ------ -- ----- -- ----- -- ---- ------<br>--- ----- --- --- ------ -------- ----- --- ------ ----- --<br>----- ----- ---------- --- --- ------ ------ ---- -- ------<br>------- --- ------ ----- --- ---- ------- -- ---- --- --<br>------- ------,256220,256218.59999999963,254905.391,254912.59999999963,254930.391,256230.391,,5,crown
screen,html.Screen,2_1_1_1_6,2022-05-04T09:10:02.668Z,,,,,,,,,,,,,,,,,54,,,,,,,,,,,,,,999.1089999999967,,response,,,,100,,,,,,,Space,keypress(Space),,,,,,,,-- --- ---- --- ------ ----- secured ---- -- --- ------- --<br>------- ---------- ------ -- ----- -- ----- -- ---- ------<br>--- ----- --- --- ------ -------- ----- --- ------ ----- --<br>----- ----- ---------- --- --- ------ ------ ---- -- ------<br>------- --- ------ ----- --- ---- ------- -- ---- --- --<br>------- ------,257231.09999999963,257229.5,256205.391,256220.39999999944,256230.391,257255.391,,6,secured
screen,html.Screen,2_1_1_1_7,2022-05-04T09:10:03.521Z,,,,,,,,,,,,,,,,,54,,,,,,,,,,,,,,826.2089999996242,,response,,,,100,,,,,,,Space,keypress(Space),,,,,,,,-- --- ---- --- ------ ----- ------- much -- --- ------- --<br>------- ---------- ------ -- ----- -- ----- -- ---- ------<br>--- ----- --- --- ------ -------- ----- --- ------ ----- --<br>----- ----- ---------- --- --- ------ ------ ---- -- ------<br>------- --- ------ ----- --- ---- ------- -- ---- --- --<br>------- ------,258083.39999999944,258081.59999999963,257230.391,257231.2999999998,257255.391,258105.391,,7,much
screen,html.Screen,2_1_1_1_8,2022-05-04T09:10:04.423Z,,,,,,,,,,,,,,,,,54,,,,,,,,,,,,,,878.4089999998105,,response,,,,100,,,,,,,Space,keypress(Space),,,,,,,,-- --- ---- --- ------ ----- ------- ---- of --- ------- --<br>------- ---------- ------ -- ----- -- ----- -- ---- ------<br>--- ----- --- --- ------ -------- ----- --- ------ ----- --<br>----- ----- ---------- --- --- ------ ------ ---- -- ------<br>------- --- ------ ----- --- ---- ------- -- ---- --- --<br>------- ------,258985.59999999963,258983.7999999998,258080.391,258083.7999999998,258105.391,259005.391,,8,of
screen,html.Screen,2_1_1_1_9,2022-05-04T09:10:05.147Z,,,,,,,,,,,,,,,,,54,,,,,,,,,,,,,,701.6089999999967,,response,,,,100,,,,,,,Space,keypress(Space),,,,,,,,-- --- ---- --- ------ ----- ------- ---- -- its ------- --<br>------- ---------- ------ -- ----- -- ----- -- ---- ------<br>--- ----- --- --- ------ -------- ----- --- ------ ----- --<br>----- ----- ---------- --- --- ------ ------ ---- -- ------<br>------- --- ------ ----- --- ---- ------- -- ---- --- --<br>------- ------,259709.2999999998,259707,258980.391,258985.7999999998,259005.391,259730.391,,9,its
screen,html.Screen,2_1_1_1_10,2022-05-04T09:10:06.265Z,,,,,,,,,,,,,,,,,54,,,,,,,,,,,,,,1095.809000000183,,response,,,,100,,,,,,,Space,keypress(Space),,,,,,,,-- --- ---- --- ------ ----- ------- ---- -- --- revenue --<br>------- ---------- ------ -- ----- -- ----- -- ---- ------<br>--- ----- --- --- ------ -------- ----- --- ------ ----- --<br>----- ----- ---------- --- --- ------ ------ ---- -- ------<br>------- --- ------ ----- --- ---- ------- -- ---- --- --<br>------- ------,260827.2999999998,260826.2000000002,259705.391,259709.7999999998,259730.391,260830.391,,10,revenue
screen,html.Screen,2_1_1_1_11,2022-05-04T09:10:07.466Z,,,,,,,,,,,,,,,,,54,,,,,,,,,,,,,,1196.1089999999967,,response,,,,100,,,,,,,Space,keypress(Space),,,,,,,,-- --- ---- --- ------ ----- ------- ---- -- --- ------- by<br>------- ---------- ------ -- ----- -- ----- -- ---- ------<br>--- ----- --- --- ------ -------- ----- --- ------ ----- --<br>----- ----- ---------- --- --- ------ ------ ---- -- ------<br>------- --- ------ ----- --- ---- ------- -- ---- --- --<br>------- ------,262028.39999999944,262026.5,260805.391,260827.39999999944,260830.391,262030.391,,11,by
screen,html.Screen,2_1_1_1_12,2022-05-04T09:10:08.447Z,,,,,,,,,,,,,,,,,54,,,,,,,,,,,,,,976.809000000183,,response,,,,100,,,,,,,Space,keypress(Space),,,,,,,,-- --- ---- --- ------ ----- ------- ---- -- --- ------- --<br>issuing ---------- ------ -- ----- -- ----- -- ---- ------<br>--- ----- --- --- ------ -------- ----- --- ------ ----- --<br>----- ----- ---------- --- --- ------ ------ ---- -- ------<br>------- --- ------ ----- --- ---- ------- -- ---- --- --<br>------- ------,263009.39999999944,263007.2000000002,262005.391,262028.7000000002,262030.391,263030.391,,12,issuing
screen,html.Screen,2_1_1_1_13,2022-05-04T09:10:09.388Z,,,,,,,,,,,,,,,,,54,,,,,,,,,,,,,,918.508999999438,,response,,,,100,,,,,,,Space,keypress(Space),,,,,,,,-- --- ---- --- ------ ----- ------- ---- -- --- ------- --<br>------- government ------ -- ----- -- ----- -- ---- ------<br>--- ----- --- --- ------ -------- ----- --- ------ ----- --<br>----- ----- ---------- --- --- ------ ------ ---- -- ------<br>------- --- ------ ----- --- ---- ------- -- ---- --- --<br>------- ------,263950.7999999998,263948.89999999944,263005.391,263009.7999999998,263030.391,263955.391,,13,government
screen,html.Screen,2_1_1_1_14,2022-05-04T09:10:10.539Z,,,,,,,,,,,,,,,,,54,,,,,,,,,,,,,,1144.2089999996242,,response,,,,100,,,,,,,Space,keypress(Space),,,,,,,,-- --- ---- --- ------ ----- ------- ---- -- --- ------- --<br>------- ---------- bonds. -- ----- -- ----- -- ---- ------<br>--- ----- --- --- ------ -------- ----- --- ------ ----- --<br>----- ----- ---------- --- --- ------ ------ ---- -- ------<br>------- --- ------ ----- --- ---- ------- -- ---- --- --<br>------- ------,265101.5,265099.5999999996,263930.391,263951.0999999996,263955.391,265105.391,,14,bonds.
screen,html.Screen,2_1_1_1_15,2022-05-04T09:10:11.162Z,,,,,,,,,,,,,,,,,54,,,,,,,,,,,,,,617.809000000183,,response,,,,100,,,,,,,Space,keypress(Space),,,,,,,,-- --- ---- --- ------ ----- ------- ---- -- --- ------- --<br>------- ---------- ------ In ----- -- ----- -- ---- ------<br>--- ----- --- --- ------ -------- ----- --- ------ ----- --<br>----- ----- ---------- --- --- ------ ------ ---- -- ------<br>------- --- ------ ----- --- ---- ------- -- ---- --- --<br>------- ------,265725.0999999996,265723.2000000002,265080.391,265101.7000000002,265105.391,265730.391,,15,In
screen,html.Screen,2_1_1_1_16,2022-05-04T09:10:12.590Z,,,,,,,,,,,,,,,,,54,,,,,,,,,,,,,,1420.008999999438,,response,,,,100,,,,,,,Space,keypress(Space),,,,,,,,"-- --- ---- --- ------ ----- ------- ---- -- --- ------- --<br>------- ---------- ------ -- 1727, -- ----- -- ---- ------<br>--- ----- --- --- ------ -------- ----- --- ------ ----- --<br>----- ----- ---------- --- --- ------ ------ ---- -- ------<br>------- --- ------ ----- --- ---- ------- -- ---- --- --<br>------- ------",267152.2000000002,267150.39999999944,265705.391,265725.2999999998,265730.391,267155.391,,16,"1727,"
screen,html.Screen,2_1_1_1_17,2022-05-04T09:10:13.383Z,,,,,,,,,,,,,,,,,54,,,,,,,,,,,,,,787.6089999999967,,response,,,,100,,,,,,,Space,keypress(Space),,,,,,,,-- --- ---- --- ------ ----- ------- ---- -- --- ------- --<br>------- ---------- ------ -- ----- in ----- -- ---- ------<br>--- ----- --- --- ------ -------- ----- --- ------ ----- --<br>----- ----- ---------- --- --- ------ ------ ---- -- ------<br>------- --- ------ ----- --- ---- ------- -- ---- --- --<br>------- ------,267945.5,267943,267130.391,267152.5,267155.391,267955.391,,17,in
screen,html.Screen,2_1_1_1_18,2022-05-04T09:10:14.037Z,,,,,,,,,,,,,,,,,54,,,,,,,,,,,,,,641.508999999438,,response,,,,100,,,,,,,Space,keypress(Space),,,,,,,,-- --- ---- --- ------ ----- ------- ---- -- --- ------- --<br>------- ---------- ------ -- ----- -- order -- ---- ------<br>--- ----- --- --- ------ -------- ----- --- ------ ----- --<br>----- ----- ---------- --- --- ------ ------ ---- -- ------<br>------- --- ------ ----- --- ---- ------- -- ---- --- --<br>------- ------,268599.2999999998,268596.89999999944,267930.391,267945.7999999998,267955.391,268605.391,,18,order
screen,html.Screen,2_1_1_1_19,2022-05-04T09:10:14.750Z,,,,,,,,,,,,,,,,,54,,,,,,,,,,,,,,705.1089999999967,,response,,,,100,,,,,,,Space,keypress(Space),,,,,,,,-- --- ---- --- ------ ----- ------- ---- -- --- ------- --<br>------- ---------- ------ -- ----- -- ----- to ---- ------<br>--- ----- --- --- ------ -------- ----- --- ------ ----- --<br>----- ----- ---------- --- --- ------ ------ ---- -- ------<br>------- --- ------ ----- --- ---- ------- -- ---- --- --<br>------- ------,269312.7999999998,269310.5,268580.391,268599.5999999996,268605.391,269330.391,,19,to
screen,html.Screen,2_1_1_1_20,2022-05-04T09:10:15.830Z,,,,,,,,,,,,,,,,,54,,,,,,,,,,,,,,1060.6089999999967,,response,,,,100,,,,,,,Space,keypress(Space),,,,,,,,-- --- ---- --- ------ ----- ------- ---- -- --- ------- --<br>------- ---------- ------ -- ----- -- ----- -- save ------<br>--- ----- --- --- ------ -------- ----- --- ------ ----- --<br>----- ----- ---------- --- --- ------ ------ ---- -- ------<br>------- --- ------ ----- --- ---- ------- -- ---- --- --<br>------- ------,270392.89999999944,270391,269305.391,269313,269330.391,270405.391,,20,save
screen,html.Screen,2_1_1_1_21,2022-05-04T09:10:16.661Z,,,,,,,,,,,,,,,,,54,,,,,,,,,,,,,,817.1089999999967,,response,,,,100,,,,,,,Space,keypress(Space),,,,,,,,"-- --- ---- --- ------ ----- ------- ---- -- --- ------- --<br>------- ---------- ------ -- ----- -- ----- -- ---- money,<br>--- ----- --- --- ------ -------- ----- --- ------ ----- --<br>----- ----- ---------- --- --- ------ ------ ---- -- ------<br>------- --- ------ ----- --- ---- ------- -- ---- --- --<br>------- ------",271223.5,271222.5,270380.391,270393.2000000002,270405.391,271230.391,,21,"money,"
screen,html.Screen,2_1_1_1_22,2022-05-04T09:10:17.386Z,,,,,,,,,,,,,,,,,54,,,,,,,,,,,,,,716.7089999996242,,response,,,,100,,,,,,,Space,keypress(Space),,,,,,,,-- --- ---- --- ------ ----- ------- ---- -- --- ------- --<br>------- ---------- ------ -- ----- -- ----- -- ---- ------<br>the ----- --- --- ------ -------- ----- --- ------ ----- --<br>----- ----- ---------- --- --- ------ ------ ---- -- ------<br>------- --- ------ ----- --- ---- ------- -- ---- --- --<br>------- ------,271948.89999999944,271947.0999999996,271205.391,271223.5999999996,271230.391,271955.391,,22,the
screen,html.Screen,2_1_1_1_23,2022-05-04T09:10:18.011Z,,,,,,,,,,,,,,,,,54,,,,,,,,,,,,,,615.7089999996242,,response,,,,100,,,,,,,Space,keypress(Space),,,,,,,,-- --- ---- --- ------ ----- ------- ---- -- --- ------- --<br>------- ---------- ------ -- ----- -- ----- -- ---- ------<br>--- state --- --- ------ -------- ----- --- ------ ----- --<br>----- ----- ---------- --- --- ------ ------ ---- -- ------<br>------- --- ------ ----- --- ---- ------- -- ---- --- --<br>------- ------,272573.39999999944,272571.0999999996,271930.391,271949.2000000002,271955.391,272580.391,,23,state
screen,html.Screen,2_1_1_1_24,2022-05-04T09:10:18.625Z,,,,,,,,,,,,,,,,,54,,,,,,,,,,,,,,605.2089999996242,,response,,,,100,,,,,,,Space,keypress(Space),,,,,,,,-- --- ---- --- ------ ----- ------- ---- -- --- ------- --<br>------- ---------- ------ -- ----- -- ----- -- ---- ------<br>--- ----- cut --- ------ -------- ----- --- ------ ----- --<br>----- ----- ---------- --- --- ------ ------ ---- -- ------<br>------- --- ------ ----- --- ---- ------- -- ---- --- --<br>------- ------,273187.5,273185.5999999996,272555.391,272573.7000000002,272580.391,273205.391,,24,cut
screen,html.Screen,2_1_1_1_25,2022-05-04T09:10:19.129Z,,,,,,,,,,,,,,,,,54,,,,,,,,,,,,,,484.9089999998105,,response,,,,100,,,,,,,Space,keypress(Space),,,,,,,,-- --- ---- --- ------ ----- ------- ---- -- --- ------- --<br>------- ---------- ------ -- ----- -- ----- -- ---- ------<br>--- ----- --- the ------ -------- ----- --- ------ ----- --<br>----- ----- ---------- --- --- ------ ------ ---- -- ------<br>------- --- ------ ----- --- ---- ------- -- ---- --- --<br>------- ------,273691.2000000002,273690.2999999998,273180.391,273187.7000000002,273205.391,273705.391,,25,the
screen,html.Screen,2_1_1_1_26,2022-05-04T09:10:19.775Z,,,,,,,,,,,,,,,,,54,,,,,,,,,,,,,,629.9089999998105,,response,,,,100,,,,,,,Space,keypress(Space),,,,,,,,-- --- ---- --- ------ ----- ------- ---- -- --- ------- --<br>------- ---------- ------ -- ----- -- ----- -- ---- ------<br>--- ----- --- --- bonds' -------- ----- --- ------ ----- --<br>----- ----- ---------- --- --- ------ ------ ---- -- ------<br>------- --- ------ ----- --- ---- ------- -- ---- --- --<br>------- ------,274337.2999999998,274335.2999999998,273680.391,273691.2999999998,273705.391,274355.391,,26,bonds'
screen,html.Screen,2_1_1_1_27,2022-05-04T09:10:20.369Z,,,,,,,,,,,,,,,,,54,,,,,,,,,,,,,,574.809000000183,,response,,,,100,,,,,,,Space,keypress(Space),,,,,,,,-- --- ---- --- ------ ----- ------- ---- -- --- ------- --<br>------- ---------- ------ -- ----- -- ----- -- ---- ------<br>--- ----- --- --- ------ interest ----- --- ------ ----- --<br>----- ----- ---------- --- --- ------ ------ ---- -- ------<br>------- --- ------ ----- --- ---- ------- -- ---- --- --<br>------- ------,274932.0999999996,274930.2000000002,274330.391,274337.7000000002,274355.391,274955.391,,27,interest
screen,html.Screen,2_1_1_1_28,2022-05-04T09:10:21.718Z,,,,,,,,,,,,,,,,,54,,,,,,,,,,,,,,1323.508999999438,,response,,,,100,,,,,,,Space,keypress(Space),,,,,,,,-- --- ---- --- ------ ----- ------- ---- -- --- ------- --<br>------- ---------- ------ -- ----- -- ----- -- ---- ------<br>--- ----- --- --- ------ -------- rate. --- ------ ----- --<br>----- ----- ---------- --- --- ------ ------ ---- -- ------<br>------- --- ------ ----- --- ---- ------- -- ---- --- --<br>------- ------,276280.7999999998,276278.89999999944,274930.391,274932.39999999944,274955.391,276305.391,,28,rate.
screen,html.Screen,2_1_1_1_29,2022-05-04T09:10:22.402Z,,,,,,,,,,,,,,,,,54,,,,,,,,,,,,,,656.508999999438,,response,,,,100,,,,,,,Space,keypress(Space),,,,,,,,-- --- ---- --- ------ ----- ------- ---- -- --- ------- --<br>------- ---------- ------ -- ----- -- ----- -- ---- ------<br>--- ----- --- --- ------ -------- ----- The ------ ----- --<br>----- ----- ---------- --- --- ------ ------ ---- -- ------<br>------- --- ------ ----- --- ---- ------- -- ---- --- --<br>------- ------,276964.2999999998,276961.89999999944,276280.391,276281,276305.391,276980.391,,29,The
screen,html.Screen,2_1_1_1_30,2022-05-04T09:10:23.294Z,,,,,,,,,,,,,,,,,54,,,,,,,,,,,,,,873.9089999998105,,response,,,,100,,,,,,,Space,keypress(Space),,,,,,,,-- --- ---- --- ------ ----- ------- ---- -- --- ------- --<br>------- ---------- ------ -- ----- -- ----- -- ---- ------<br>--- ----- --- --- ------ -------- ----- --- market ----- --<br>----- ----- ---------- --- --- ------ ------ ---- -- ------<br>------- --- ------ ----- --- ---- ------- -- ---- --- --<br>------- ------,277856.2999999998,277854.2999999998,276955.391,276964.5999999996,276980.391,277880.391,,30,market
screen,html.Screen,2_1_1_1_31,2022-05-04T09:10:24.503Z,,,,,,,,,,,,,,,,,54,,,,,,,,,,,,,,1182.7089999996242,,response,,,,100,,,,,,,Space,keypress(Space),,,,,,,,-- --- ---- --- ------ ----- ------- ---- -- --- ------- --<br>------- ---------- ------ -- ----- -- ----- -- ---- ------<br>--- ----- --- --- ------ -------- ----- --- ------ value --<br>----- ----- ---------- --- --- ------ ------ ---- -- ------<br>------- --- ------ ----- --- ---- ------- -- ---- --- --<br>------- ------,279065.5999999996,279063.0999999996,277855.391,277856.5999999996,277880.391,279080.391,,31,value
screen,html.Screen,2_1_1_1_32,2022-05-04T09:10:25.564Z,,,,,,,,,,,,,,,,,54,,,,,,,,,,,,,,1043.309000000183,,response,,,,100,,,,,,,Space,keypress(Space),,,,,,,,-- --- ---- --- ------ ----- ------- ---- -- --- ------- --<br>------- ---------- ------ -- ----- -- ----- -- ---- ------<br>--- ----- --- --- ------ -------- ----- --- ------ ----- of<br>----- ----- ---------- --- --- ------ ------ ---- -- ------<br>------- --- ------ ----- --- ---- ------- -- ---- --- --<br>------- ------,280126.5999999996,280123.7000000002,279055.391,279065.89999999944,279080.391,280130.391,,32,of
screen,html.Screen,2_1_1_1_33,2022-05-04T09:10:26.403Z,,,,,,,,,,,,,,,,,54,,,,,,,,,,,,,,834.508999999438,,response,,,,100,,,,,,,Space,keypress(Space),,,,,,,,-- --- ---- --- ------ ----- ------- ---- -- --- ------- --<br>------- ---------- ------ -- ----- -- ----- -- ---- ------<br>--- ----- --- --- ------ -------- ----- --- ------ ----- --<br>these ----- ---------- --- --- ------ ------ ---- -- ------<br>------- --- ------ ----- --- ---- ------- -- ---- --- --<br>------- ------,280965.89999999944,280964.89999999944,280105.391,280127,280130.391,280980.391,,33,these
screen,html.Screen,2_1_1_1_34,2022-05-04T09:10:27.207Z,,,,,,,,,,,,,,,,,54,,,,,,,,,,,,,,787.809000000183,,response,,,,100,,,,,,,Space,keypress(Space),,,,,,,,-- --- ---- --- ------ ----- ------- ---- -- --- ------- --<br>------- ---------- ------ -- ----- -- ----- -- ---- ------<br>--- ----- --- --- ------ -------- ----- --- ------ ----- --<br>----- bonds ---------- --- --- ------ ------ ---- -- ------<br>------- --- ------ ----- --- ---- ------- -- ---- --- --<br>------- ------,281770,281768.2000000002,280955.391,280966,280980.391,281780.391,,34,bonds
screen,html.Screen,2_1_1_1_35,2022-05-04T09:10:28.298Z,,,,,,,,,,,,,,,,,54,,,,,,,,,,,,,,1078.309000000183,,response,,,,100,,,,,,,Space,keypress(Space),,,,,,,,"-- --- ---- --- ------ ----- ------- ---- -- --- ------- --<br>------- ---------- ------ -- ----- -- ----- -- ---- ------<br>--- ----- --- --- ------ -------- ----- --- ------ ----- --<br>----- ----- plummeted, --- --- ------ ------ ---- -- ------<br>------- --- ------ ----- --- ---- ------- -- ---- --- --<br>------- ------",282860.5,282858.7000000002,281755.391,281770.2999999998,281780.391,282880.391,,35,"plummeted,"
screen,html.Screen,2_1_1_1_36,2022-05-04T09:10:29.032Z,,,,,,,,,,,,,,,,,54,,,,,,,,,,,,,,712.008999999438,,response,,,,100,,,,,,,Space,keypress(Space),,,,,,,,-- --- ---- --- ------ ----- ------- ---- -- --- ------- --<br>------- ---------- ------ -- ----- -- ----- -- ---- ------<br>--- ----- --- --- ------ -------- ----- --- ------ ----- --<br>----- ----- ---------- and --- ------ ------ ---- -- ------<br>------- --- ------ ----- --- ---- ------- -- ---- --- --<br>------- ------,283594.2999999998,283592.39999999944,282855.391,282860.7000000002,282880.391,283605.391,,36,and
screen,html.Screen,2_1_1_1_37,2022-05-04T09:10:29.596Z,,,,,,,,,,,,,,,,,54,,,,,,,,,,,,,,551.9089999998105,,response,,,,100,,,,,,,Space,keypress(Space),,,,,,,,-- --- ---- --- ------ ----- ------- ---- -- --- ------- --<br>------- ---------- ------ -- ----- -- ----- -- ---- ------<br>--- ----- --- --- ------ -------- ----- --- ------ ----- --<br>----- ----- ---------- --- the ------ ------ ---- -- ------<br>------- --- ------ ----- --- ---- ------- -- ---- --- --<br>------- ------,284159.0999999996,284157.2999999998,283580.391,283594.7000000002,283605.391,284180.391,,37,the
screen,html.Screen,2_1_1_1_38,2022-05-04T09:10:30.558Z,,,,,,,,,,,,,,,,,54,,,,,,,,,,,,,,938.008999999438,,response,,,,100,,,,,,,Space,keypress(Space),,,,,,,,-- --- ---- --- ------ ----- ------- ---- -- --- ------- --<br>------- ---------- ------ -- ----- -- ----- -- ---- ------<br>--- ----- --- --- ------ -------- ----- --- ------ ----- --<br>----- ----- ---------- --- --- market ------ ---- -- ------<br>------- --- ------ ----- --- ---- ------- -- ---- --- --<br>------- ------,285120.5,285118.39999999944,284155.391,284159.5,284180.391,285130.391,,38,market
screen,html.Screen,2_1_1_1_39,2022-05-04T09:10:31.083Z,,,,,,,,,,,,,,,,,54,,,,,,,,,,,,,,513.809000000183,,response,,,,100,,,,,,,Space,keypress(Space),,,,,,,,-- --- ---- --- ------ ----- ------- ---- -- --- ------- --<br>------- ---------- ------ -- ----- -- ----- -- ---- ------<br>--- ----- --- --- ------ -------- ----- --- ------ ----- --<br>----- ----- ---------- --- --- ------ became ---- -- ------<br>------- --- ------ ----- --- ---- ------- -- ---- --- --<br>------- ------,285646.0999999996,285644.2000000002,285105.391,285120.7999999998,285130.391,285655.391,,39,became
screen,html.Screen,2_1_1_1_40,2022-05-04T09:10:31.548Z,,,,,,,,,,,,,,,,,54,,,,,,,,,,,,,,454.2089999996242,,response,,,,100,,,,,,,Space,keypress(Space),,,,,,,,-- --- ---- --- ------ ----- ------- ---- -- --- ------- --<br>------- ---------- ------ -- ----- -- ----- -- ---- ------<br>--- ----- --- --- ------ -------- ----- --- ------ ----- --<br>----- ----- ---------- --- --- ------ ------ wary -- ------<br>------- --- ------ ----- --- ---- ------- -- ---- --- --<br>------- ------,286111.2000000002,286109.5999999996,285630.391,285646.39999999944,285655.391,286130.391,,40,wary
screen,html.Screen,2_1_1_1_41,2022-05-04T09:10:31.975Z,,,,,,,,,,,,,,,,,54,,,,,,,,,,,,,,406.00899999943795,,response,,,,100,,,,,,,Space,keypress(Space),,,,,,,,-- --- ---- --- ------ ----- ------- ---- -- --- ------- --<br>------- ---------- ------ -- ----- -- ----- -- ---- ------<br>--- ----- --- --- ------ -------- ----- --- ------ ----- --<br>----- ----- ---------- --- --- ------ ------ ---- of ------<br>------- --- ------ ----- --- ---- ------- -- ---- --- --<br>------- ------,286538.0999999996,286536.39999999944,286105.391,286111.5,286130.391,286555.391,,41,of
screen,html.Screen,2_1_1_1_42,2022-05-04T09:10:32.619Z,,,,,,,,,,,,,,,,,54,,,,,,,,,,,,,,624.7089999996242,,response,,,,100,,,,,,,Space,keypress(Space),,,,,,,,-- --- ---- --- ------ ----- ------- ---- -- --- ------- --<br>------- ---------- ------ -- ----- -- ----- -- ---- ------<br>--- ----- --- --- ------ -------- ----- --- ------ ----- --<br>----- ----- ---------- --- --- ------ ------ ---- -- French<br>------- --- ------ ----- --- ---- ------- -- ---- --- --<br>------- ------,287181.7999999998,287180.0999999996,286530.391,286538.2999999998,286555.391,287205.391,,42,French
screen,html.Screen,2_1_1_1_43,2022-05-04T09:10:33.554Z,,,,,,,,,,,,,,,,,54,,,,,,,,,,,,,,909.2089999996242,,response,,,,100,,,,,,,Space,keypress(Space),,,,,,,,-- --- ---- --- ------ ----- ------- ---- -- --- ------- --<br>------- ---------- ------ -- ----- -- ----- -- ---- ------<br>--- ----- --- --- ------ -------- ----- --- ------ ----- --<br>----- ----- ---------- --- --- ------ ------ ---- -- ------<br>credit. --- ------ ----- --- ---- ------- -- ---- --- --<br>------- ------,288116.89999999944,288114.5999999996,287180.391,287182.0999999996,287205.391,288130.391,,43,credit.
screen,html.Screen,2_1_1_1_44,2022-05-04T09:10:34.284Z,,,,,,,,,,,,,,,,,54,,,,,,,,,,,,,,714.309000000183,,response,,,,100,,,,,,,Space,keypress(Space),,,,,,,,-- --- ---- --- ------ ----- ------- ---- -- --- ------- --<br>------- ---------- ------ -- ----- -- ----- -- ---- ------<br>--- ----- --- --- ------ -------- ----- --- ------ ----- --<br>----- ----- ---------- --- --- ------ ------ ---- -- ------<br>------- The ------ ----- --- ---- ------- -- ---- --- --<br>------- ------,288846.5,288844.7000000002,288105.391,288117.2999999998,288130.391,288855.391,,44,The
screen,html.Screen,2_1_1_1_45,2022-05-04T09:10:34.839Z,,,,,,,,,,,,,,,,,54,,,,,,,,,,,,,,544.6089999999967,,response,,,,100,,,,,,,Space,keypress(Space),,,,,,,,-- --- ---- --- ------ ----- ------- ---- -- --- ------- --<br>------- ---------- ------ -- ----- -- ----- -- ---- ------<br>--- ----- --- --- ------ -------- ----- --- ------ ----- --<br>----- ----- ---------- --- --- ------ ------ ---- -- ------<br>------- --- French ----- --- ---- ------- -- ---- --- --<br>------- ------,289401.89999999944,289400,288830.391,288846.7999999998,288855.391,289405.391,,45,French
screen,html.Screen,2_1_1_1_46,2022-05-04T09:10:35.345Z,,,,,,,,,,,,,,,,,54,,,,,,,,,,,,,,500.2089999996242,,response,,,,100,,,,,,,Space,keypress(Space),,,,,,,,-- --- ---- --- ------ ----- ------- ---- -- --- ------- --<br>------- ---------- ------ -- ----- -- ----- -- ---- ------<br>--- ----- --- --- ------ -------- ----- --- ------ ----- --<br>----- ----- ---------- --- --- ------ ------ ---- -- ------<br>------- --- ------ state --- ---- ------- -- ---- --- --<br>------- ------,289907.5999999996,289905.5999999996,289380.391,289402.2000000002,289405.391,289930.391,,46,state
screen,html.Screen,2_1_1_1_47,2022-05-04T09:10:35.890Z,,,,,,,,,,,,,,,,,54,,,,,,,,,,,,,,520.2089999996242,,response,,,,100,,,,,,,Space,keypress(Space),,,,,,,,-- --- ---- --- ------ ----- ------- ---- -- --- ------- --<br>------- ---------- ------ -- ----- -- ----- -- ---- ------<br>--- ----- --- --- ------ -------- ----- --- ------ ----- --<br>----- ----- ---------- --- --- ------ ------ ---- -- ------<br>------- --- ------ ----- was ---- ------- -- ---- --- --<br>------- ------,290452.5,290450.5999999996,289905.391,289907.89999999944,289930.391,290455.391,,47,was
screen,html.Screen,2_1_1_1_48,2022-05-04T09:10:36.502Z,,,,,,,,,,,,,,,,,54,,,,,,,,,,,,,,608.508999999438,,response,,,,100,,,,,,,Space,keypress(Space),,,,,,,,-- --- ---- --- ------ ----- ------- ---- -- --- ------- --<br>------- ---------- ------ -- ----- -- ----- -- ---- ------<br>--- ----- --- --- ------ -------- ----- --- ------ ----- --<br>----- ----- ---------- --- --- ------ ------ ---- -- ------<br>------- --- ------ ----- --- left ------- -- ---- --- --<br>------- ------,291064.7999999998,291063.89999999944,290430.391,290452.7000000002,290455.391,291080.391,,48,left
screen,html.Screen,2_1_1_1_49,2022-05-04T09:10:37.445Z,,,,,,,,,,,,,,,,,54,,,,,,,,,,,,,,925.6089999999967,,response,,,,100,,,,,,,Space,keypress(Space),,,,,,,,-- --- ---- --- ------ ----- ------- ---- -- --- ------- --<br>------- ---------- ------ -- ----- -- ----- -- ---- ------<br>--- ----- --- --- ------ -------- ----- --- ------ ----- --<br>----- ----- ---------- --- --- ------ ------ ---- -- ------<br>------- --- ------ ----- --- ---- without -- ---- --- --<br>------- ------,292008.0999999996,292006,291055.391,291064.89999999944,291080.391,292030.391,,49,without
screen,html.Screen,2_1_1_1_50,2022-05-04T09:10:38.050Z,,,,,,,,,,,,,,,,,54,,,,,,,,,,,,,,580.809000000183,,response,,,,100,,,,,,,Space,keypress(Space),,,,,,,,-- --- ---- --- ------ ----- ------- ---- -- --- ------- --<br>------- ---------- ------ -- ----- -- ----- -- ---- ------<br>--- ----- --- --- ------ -------- ----- --- ------ ----- --<br>----- ----- ---------- --- --- ------ ------ ---- -- ------<br>------- --- ------ ----- --- ---- ------- an ---- --- --<br>------- ------,292613.0999999996,292611.2000000002,292005.391,292008.39999999944,292030.391,292630.391,,50,an
screen,html.Screen,2_1_1_1_51,2022-05-04T09:10:38.555Z,,,,,,,,,,,,,,,,,54,,,,,,,,,,,,,,485.809000000183,,response,,,,100,,,,,,,Space,keypress(Space),,,,,,,,-- --- ---- --- ------ ----- ------- ---- -- --- ------- --<br>------- ---------- ------ -- ----- -- ----- -- ---- ------<br>--- ----- --- --- ------ -------- ----- --- ------ ----- --<br>----- ----- ---------- --- --- ------ ------ ---- -- ------<br>------- --- ------ ----- --- ---- ------- -- easy --- --<br>------- ------,293118.2000000002,293116.2000000002,292605.391,292613.39999999944,292630.391,293130.391,,51,easy
screen,html.Screen,2_1_1_1_52,2022-05-04T09:10:39.111Z,,,,,,,,,,,,,,,,,54,,,,,,,,,,,,,,541.1089999999967,,response,,,,100,,,,,,,Space,keypress(Space),,,,,,,,-- --- ---- --- ------ ----- ------- ---- -- --- ------- --<br>------- ---------- ------ -- ----- -- ----- -- ---- ------<br>--- ----- --- --- ------ -------- ----- --- ------ ----- --<br>----- ----- ---------- --- --- ------ ------ ---- -- ------<br>------- --- ------ ----- --- ---- ------- -- ---- way --<br>------- ------,293673.2999999998,293671.5,293105.391,293118.5,293130.391,293680.391,,52,way
screen,html.Screen,2_1_1_1_53,2022-05-04T09:10:39.575Z,,,,,,,,,,,,,,,,,54,,,,,,,,,,,,,,456.00899999943795,,response,,,,100,,,,,,,Space,keypress(Space),,,,,,,,-- --- ---- --- ------ ----- ------- ---- -- --- ------- --<br>------- ---------- ------ -- ----- -- ----- -- ---- ------<br>--- ----- --- --- ------ -------- ----- --- ------ ----- --<br>----- ----- ---------- --- --- ------ ------ ---- -- ------<br>------- --- ------ ----- --- ---- ------- -- ---- --- of<br>------- ------,294137.2000000002,294136.39999999944,293655.391,293673.7000000002,293680.391,294155.391,,53,of
screen,html.Screen,2_1_1_1_54,2022-05-04T09:10:40.072Z,,,,,,,,,,,,,,,,,54,,,,,,,,,,,,,,477.809000000183,,response,,,,100,,,,,,,Space,keypress(Space),,,,,,,,-- --- ---- --- ------ ----- ------- ---- -- --- ------- --<br>------- ---------- ------ -- ----- -- ----- -- ---- ------<br>--- ----- --- --- ------ -------- ----- --- ------ ----- --<br>----- ----- ---------- --- --- ------ ------ ---- -- ------<br>------- --- ------ ----- --- ---- ------- -- ---- --- --<br>raising ------,294635.2000000002,294633.2000000002,294130.391,294137.2999999998,294155.391,294655.391,,54,raising
screen,html.Screen,2_1_1_1_55,2022-05-04T09:10:41.192Z,,,,,,,,,,,,,,,,,54,,,,,,,,,,,,,,1097.508999999438,,response,,,,100,,,,,,,Space,keypress(Space),,,,,,,,-- --- ---- --- ------ ----- ------- ---- -- --- ------- --<br>------- ---------- ------ -- ----- -- ----- -- ---- ------<br>--- ----- --- --- ------ -------- ----- --- ------ ----- --<br>----- ----- ---------- --- --- ------ ------ ---- -- ------<br>------- --- ------ ----- --- ---- ------- -- ---- --- --<br>------- money.,295754.89999999944,295752.89999999944,294630.391,294635.39999999944,294655.391,295780.391,,55,money.
Item 100,flow.Loop,2_1_1_1,2022-05-04T09:10:41.193Z,,,,,,,,,,,,,,,,,,,,,,,,,,,,,,,50322.50899999944,,completion,,,,,B,,,,,,,,,,,silence,,,,,295755.5,295752.89999999944,245405.391,245407.5,245430.391,295780.391,,,
Question 1,html.Screen,2_1_1_2,2022-05-04T09:10:45.526Z,,,,,,,,,,,,,,,,,,,,,,,,,,,,true,TRUE,,4306.4089999998105,,response,,,,100,B,,,,,,TRUE,click #choice-1,,,,silence,,,,,300088.7999999998,300086.7999999998,295755.391,295755.7999999998,295780.391,300105.391,,,
Question 2,html.Screen,2_1_1_3,2022-05-04T09:10:48.775Z,,,,,,,,,,,,,,,,,,,,,,,,,,,,true,FALSE,,3227.4089999998105,,response,,,,100,B,,,,,,FALSE,click #choice-2,,,,silence,,,,,303334.7000000002,303332.7999999998,300080.391,300089.0999999996,300105.391,303355.391,,,
Item 100,flow.Sequence,2_1_1,2022-05-04T09:10:48.775Z,,,,,,,,,,,,,,,,,,,,,,,,,,,,,,,67902.40899999981,,completion,,,,,,,,,,,,,,,,,,,,,303335.2999999998,303332.7999999998,235405.391,235420.39999999944,235430.391,303355.391,,,
End of Practice,html.Page,2_1_2,2022-05-04T09:10:55.396Z,,,,,,,,,,,,,,,,,,,,,,,,,,,,,,,6600.008999999438,,form submission,,,,,,,,,,,,,,,,,,,,,309956.39999999944,309955.39999999944,303330.391,303335.7000000002,303355.391,309955.391,,,
Practice,flow.Sequence,2_1,2022-05-04T09:10:55.397Z,,,,,,,,,,,,,,,,,,,,,,,,,,,,,,,148175.00899999944,,completion,,,,,,,,,,,,,,,,,,,,,309956.89999999944,309955.39999999944,161755.391,161774,161780.391,309955.391,,,
Trap_instruction,html.Page,2_2_0,2022-05-04T09:11:05.808Z,,,,,,,,,,,,,,,,,,,,,,,,,,,,,,,10411.708999999624,,form submission,,,,,,,,,,,,,,,,,,,,,320367.7999999998,320367.0999999996,309930.391,309957.2999999998,309955.391,320405.391,,,
trap_trial,html.Screen,2_2_1,2022-05-04T09:11:09.203Z,,,,,,,,,,,,,,,,,,,,,,,,,,,,true,1,,3356.4089999998105,,response,,,,,,,,,,,1,click #choice-1,,,,,,,,,323762.7999999998,323761.7999999998,320355.391,320368.2999999998,320405.391,323780.391,,,
end of trap trial,html.Page,2_2_2,2022-05-04T09:11:13.329Z,,,,,,,,,,,,,,,,,,,,,,,,,,,,,,,4108.309000000183,,form submission,,,,,,,,,,,,,,,,,,,,,327889.5,327888.7000000002,323755.391,323762.89999999944,323780.391,327905.391,,,
Trap 1,flow.Sequence,2_2,2022-05-04T09:11:13.330Z,,,,,,,,,,,,,,,,,,,,,,,,,,,,,,,17933.309000000183,,completion,,,,,,,,,,,,,,,,,,,,,327890,327888.7000000002,309930.391,309957.2000000002,309955.391,327905.391,,,
Standby,html.Page,2_3_0,2022-05-04T09:11:21.322Z,,,,,,,,,,,,,,,,,,,,,,,,,,,,,,,8000,,timeout,,,,,,,,,,,,,,,,,,,,,335881.7000000002,335880.391,327880.391,327890.5,327905.391,335905.391,,,
Holding screen,html.Screen,2_3_1_0_0,2022-05-04T09:11:28.322Z,,,,,,,,,,,,,,,,,,,,,,,,,,,,,,,7000,,timeout,,,,,,,,,,,,,,,,,,,,,342881.7999999998,342880.391,335880.391,335882.39999999944,335905.391,342905.391,,,
screen,html.Screen,2_3_1_0_1_0,2022-05-04T09:11:29.535Z,,,,,,,,,,,,,,,,,51,,,,,,,,,,,,,,1187.7089999996242,,response,,,,13,B,,,,,,Space,keypress(Space),,,,lyrical,,,,American -------- --- --- ---- --- --- ------ -- --------<br>---- --------- --- ------- ------------ ---------- ---------<br>--- ---------- ------- ---------- ------- -- -------- ----<br>---- --- ------ ----- ------ -- ---- --- ----- -- - -------<br>-------- -- --- --- -- ----- ----------- ----- -----------<br>---- --- ---------- --- ---- --- -- ----------,344094.7000000002,344093.0999999996,342880.391,342882.39999999944,342905.391,344105.391,,0,American
screen,html.Screen,2_3_1_0_1_1,2022-05-04T09:11:30.712Z,,,,,,,,,,,,,,,,,51,,,,,,,,,,,,,,1166.008999999438,,response,,,,13,B,,,,,,Space,keypress(Space),,,,lyrical,,,,-------- industry --- --- ---- --- --- ------ -- --------<br>---- --------- --- ------- ------------ ---------- ---------<br>--- ---------- ------- ---------- ------- -- -------- ----<br>---- --- ------ ----- ------ -- ---- --- ----- -- - -------<br>-------- -- --- --- -- ----- ----------- ----- -----------<br>---- --- ---------- --- ---- --- -- ----------,345272.0999999996,345271.39999999944,344080.391,344095,344105.391,345280.391,,1,industry
screen,html.Screen,2_3_1_0_1_2,2022-05-04T09:11:32.706Z,,,,,,,,,,,,,,,,,51,,,,,,,,,,,,,,1984.1089999999967,,response,,,,13,B,,,,,,Space,keypress(Space),,,,lyrical,,,,-------- -------- may --- ---- --- --- ------ -- --------<br>---- --------- --- ------- ------------ ---------- ---------<br>--- ---------- ------- ---------- ------- -- -------- ----<br>---- --- ------ ----- ------ -- ---- --- ----- -- - -------<br>-------- -- --- --- -- ----- ----------- ----- -----------<br>---- --- ---------- --- ---- --- -- ----------,347265.89999999944,347264.5,345255.391,345272.2000000002,345280.391,347305.391,,2,may
screen,html.Screen,2_3_1_0_1_3,2022-05-04T09:11:33.796Z,,,,,,,,,,,,,,,,,51,,,,,,,,,,,,,,1048.809000000183,,response,,,,13,B,,,,,,Space,keypress(Space),,,,lyrical,,,,-------- -------- --- not ---- --- --- ------ -- --------<br>---- --------- --- ------- ------------ ---------- ---------<br>--- ---------- ------- ---------- ------- -- -------- ----<br>---- --- ------ ----- ------ -- ---- --- ----- -- - -------<br>-------- -- --- --- -- ----- ----------- ----- -----------<br>---- --- ---------- --- ---- --- -- ----------,348355.7000000002,348354.2000000002,347280.391,347266.2999999998,347305.391,348380.391,,3,not
screen,html.Screen,2_3_1_0_1_4,2022-05-04T09:11:34.579Z,,,,,,,,,,,,,,,,,51,,,,,,,,,,,,,,757.6089999999967,,response,,,,13,B,,,,,,Space,keypress(Space),,,,lyrical,,,,-------- -------- --- --- know --- --- ------ -- --------<br>---- --------- --- ------- ------------ ---------- ---------<br>--- ---------- ------- ---------- ------- -- -------- ----<br>---- --- ------ ----- ------ -- ---- --- ----- -- - -------<br>-------- -- --- --- -- ----- ----------- ----- -----------<br>---- --- ---------- --- ---- --- -- ----------,349139.2999999998,349138,348355.391,348356,348380.391,349155.391,,4,know
screen,html.Screen,2_3_1_0_1_5,2022-05-04T09:11:35.560Z,,,,,,,,,,,,,,,,,51,,,,,,,,,,,,,,963.008999999438,,response,,,,13,B,,,,,,Space,keypress(Space),,,,lyrical,,,,"-------- -------- --- --- ---- it, --- ------ -- --------<br>---- --------- --- ------- ------------ ---------- ---------<br>--- ---------- ------- ---------- ------- -- -------- ----<br>---- --- ------ ----- ------ -- ---- --- ----- -- - -------<br>-------- -- --- --- -- ----- ----------- ----- -----------<br>---- --- ---------- --- ---- --- -- ----------",350119.89999999944,350118.39999999944,349130.391,349139.7000000002,349155.391,350130.391,,5,"it,"
screen,html.Screen,2_3_1_0_1_6,2022-05-04T09:11:36.401Z,,,,,,,,,,,,,,,,,51,,,,,,,,,,,,,,830.008999999438,,response,,,,13,B,,,,,,Space,keypress(Space),,,,lyrical,,,,-------- -------- --- --- ---- --- but ------ -- --------<br>---- --------- --- ------- ------------ ---------- ---------<br>--- ---------- ------- ---------- ------- -- -------- ----<br>---- --- ------ ----- ------ -- ---- --- ----- -- - -------<br>-------- -- --- --- -- ----- ----------- ----- -----------<br>---- --- ---------- --- ---- --- -- ----------,350961.0999999996,350960.39999999944,350105.391,350120.2000000002,350130.391,350980.391,,6,but
screen,html.Screen,2_3_1_0_1_7,2022-05-04T09:11:37.303Z,,,,,,,,,,,,,,,,,51,,,,,,,,,,,,,,882.008999999438,,response,,,,13,B,,,,,,Space,keypress(Space),,,,lyrical,,,,-------- -------- --- --- ---- --- --- debate -- --------<br>---- --------- --- ------- ------------ ---------- ---------<br>--- ---------- ------- ---------- ------- -- -------- ----<br>---- --- ------ ----- ------ -- ---- --- ----- -- - -------<br>-------- -- --- --- -- ----- ----------- ----- -----------<br>---- --- ---------- --- ---- --- -- ----------,351863,351862.39999999944,350955.391,350961.2000000002,350980.391,351880.391,,7,debate
screen,html.Screen,2_3_1_0_1_8,2022-05-04T09:11:38.038Z,,,,,,,,,,,,,,,,,51,,,,,,,,,,,,,,716.309000000183,,response,,,,13,B,,,,,,Space,keypress(Space),,,,lyrical,,,,-------- -------- --- --- ---- --- --- ------ in --------<br>---- --------- --- ------- ------------ ---------- ---------<br>--- ---------- ------- ---------- ------- -- -------- ----<br>---- --- ------ ----- ------ -- ---- --- ----- -- - -------<br>-------- -- --- --- -- ----- ----------- ----- -----------<br>---- --- ---------- --- ---- --- -- ----------,352598.5999999996,352596.7000000002,351855.391,351863.0999999996,351880.391,352605.391,,8,in
screen,html.Screen,2_3_1_0_1_9,2022-05-04T09:11:39.198Z,,,,,,,,,,,,,,,,,51,,,,,,,,,,,,,,1150.7089999996242,,response,,,,13,B,,,,,,Space,keypress(Space),,,,lyrical,,,,-------- -------- --- --- ---- --- --- ------ -- Congress<br>---- --------- --- ------- ------------ ---------- ---------<br>--- ---------- ------- ---------- ------- -- -------- ----<br>---- --- ------ ----- ------ -- ---- --- ----- -- - -------<br>-------- -- --- --- -- ----- ----------- ----- -----------<br>---- --- ---------- --- ---- --- -- ----------,353758.0999999996,353756.0999999996,352580.391,352598.89999999944,352605.391,353780.391,,9,Congress
screen,html.Screen,2_3_1_0_1_10,2022-05-04T09:11:40.635Z,,,,,,,,,,,,,,,,,51,,,,,,,,,,,,,,1412.9089999998105,,response,,,,13,B,,,,,,Space,keypress(Space),,,,lyrical,,,,-------- -------- --- --- ---- --- --- ------ -- --------<br>over --------- --- ------- ------------ ---------- ---------<br>--- ---------- ------- ---------- ------- -- -------- ----<br>---- --- ------ ----- ------ -- ---- --- ----- -- - -------<br>-------- -- --- --- -- ----- ----------- ----- -----------<br>---- --- ---------- --- ---- --- -- ----------,355195.2000000002,355193.2999999998,353755.391,353758.5,353780.391,355205.391,,10,over
screen,html.Screen,2_3_1_0_1_11,2022-05-04T09:11:41.547Z,,,,,,,,,,,,,,,,,51,,,,,,,,,,,,,,899.4089999998105,,response,,,,13,B,,,,,,Space,keypress(Space),,,,lyrical,,,,-------- -------- --- --- ---- --- --- ------ -- --------<br>---- reforming --- ------- ------------ ---------- ---------<br>--- ---------- ------- ---------- ------- -- -------- ----<br>---- --- ------ ----- ------ -- ---- --- ----- -- - -------<br>-------- -- --- --- -- ----- ----------- ----- -----------<br>---- --- ---------- --- ---- --- -- ----------,356106.7999999998,356104.7999999998,355180.391,355195.39999999944,355205.391,356130.391,,11,reforming
screen,html.Screen,2_3_1_0_1_12,2022-05-04T09:11:42.043Z,,,,,,,,,,,,,,,,,51,,,,,,,,,,,,,,470.309000000183,,response,,,,13,B,,,,,,Space,keypress(Space),,,,lyrical,,,,-------- -------- --- --- ---- --- --- ------ -- --------<br>---- --------- the ------- ------------ ---------- ---------<br>--- ---------- ------- ---------- ------- -- -------- ----<br>---- --- ------ ----- ------ -- ---- --- ----- -- - -------<br>-------- -- --- --- -- ----- ----------- ----- -----------<br>---- --- ---------- --- ---- --- -- ----------,356602.5999999996,356600.7000000002,356105.391,356107.2000000002,356130.391,356605.391,,12,the
screen,html.Screen,2_3_1_0_1_13,2022-05-04T09:11:42.756Z,,,,,,,,,,,,,,,,,51,,,,,,,,,,,,,,709.008999999438,,response,,,,13,B,,,,,,Space,keypress(Space),,,,lyrical,,,,-------- -------- --- --- ---- --- --- ------ -- --------<br>---- --------- --- federal ------------ ---------- ---------<br>--- ---------- ------- ---------- ------- -- -------- ----<br>---- --- ------ ----- ------ -- ---- --- ----- -- - -------<br>-------- -- --- --- -- ----- ----------- ----- -----------<br>---- --- ---------- --- ---- --- -- ----------,357316.39999999944,357314.39999999944,356580.391,356602.89999999944,356605.391,357330.391,,13,federal
screen,html.Screen,2_3_1_0_1_14,2022-05-04T09:11:43.452Z,,,,,,,,,,,,,,,,,51,,,,,,,,,,,,,,677.508999999438,,response,,,,13,B,,,,,,Space,keypress(Space),,,,lyrical,,,,-------- -------- --- --- ---- --- --- ------ -- --------<br>---- --------- --- ------- government's ---------- ---------<br>--- ---------- ------- ---------- ------- -- -------- ----<br>---- --- ------ ----- ------ -- ---- --- ----- -- - -------<br>-------- -- --- --- -- ----- ----------- ----- -----------<br>---- --- ---------- --- ---- --- -- ----------,358011.7999999998,358007.89999999944,357305.391,357316.7000000002,357330.391,358030.391,,14,government's
screen,html.Screen,2_3_1_0_1_15,2022-05-04T09:11:44.579Z,,,,,,,,,,,,,,,,,51,,,,,,,,,,,,,,1107.508999999438,,response,,,,13,B,,,,,,Space,keypress(Space),,,,lyrical,,,,-------- -------- --- --- ---- --- --- ------ -- --------<br>---- --------- --- ------- ------------ regulatory ---------<br>--- ---------- ------- ---------- ------- -- -------- ----<br>---- --- ------ ----- ------ -- ---- --- ----- -- - -------<br>-------- -- --- --- -- ----- ----------- ----- -----------<br>---- --- ---------- --- ---- --- -- ----------,359139.2999999998,359137.89999999944,358005.391,358012.0999999996,358030.391,359155.391,,15,regulatory
screen,html.Screen,2_3_1_0_1_16,2022-05-04T09:11:45.431Z,,,,,,,,,,,,,,,,,51,,,,,,,,,,,,,,834.1089999999967,,response,,,,13,B,,,,,,Space,keypress(Space),,,,lyrical,,,,-------- -------- --- --- ---- --- --- ------ -- --------<br>---- --------- --- ------- ------------ ---------- apparatus<br>--- ---------- ------- ---------- ------- -- -------- ----<br>---- --- ------ ----- ------ -- ---- --- ----- -- - -------<br>-------- -- --- --- -- ----- ----------- ----- -----------<br>---- --- ---------- --- ---- --- -- ----------,359990.89999999944,359989.5,359130.391,359139.5999999996,359155.391,360005.391,,16,apparatus
screen,html.Screen,2_3_1_0_1_17,2022-05-04T09:11:46.709Z,,,,,,,,,,,,,,,,,51,,,,,,,,,,,,,,1262.7089999996242,,response,,,,13,B,,,,,,Space,keypress(Space),,,,lyrical,,,,-------- -------- --- --- ---- --- --- ------ -- --------<br>---- --------- --- ------- ------------ ---------- ---------<br>may ---------- ------- ---------- ------- -- -------- ----<br>---- --- ------ ----- ------ -- ---- --- ----- -- - -------<br>-------- -- --- --- -- ----- ----------- ----- -----------<br>---- --- ---------- --- ---- --- -- ----------,361269.39999999944,361268.0999999996,359980.391,359991,360005.391,361280.391,,17,may
screen,html.Screen,2_3_1_0_1_18,2022-05-04T09:11:47.424Z,,,,,,,,,,,,,,,,,51,,,,,,,,,,,,,,702.1089999999967,,response,,,,13,B,,,,,,Space,keypress(Space),,,,lyrical,,,,-------- -------- --- --- ---- --- --- ------ -- --------<br>---- --------- --- ------- ------------ ---------- ---------<br>--- profoundly ------- ---------- ------- -- -------- ----<br>---- --- ------ ----- ------ -- ---- --- ----- -- - -------<br>-------- -- --- --- -- ----- ----------- ----- -----------<br>---- --- ---------- --- ---- --- -- ----------,361984.39999999944,361982.5,361255.391,361269.5,361280.391,362005.391,,18,profoundly
screen,html.Screen,2_3_1_0_1_19,2022-05-04T09:11:48.876Z,,,,,,,,,,,,,,,,,51,,,,,,,,,,,,,,1427.008999999438,,response,,,,13,B,,,,,,Space,keypress(Space),,,,lyrical,,,,-------- -------- --- --- ---- --- --- ------ -- --------<br>---- --------- --- ------- ------------ ---------- ---------<br>--- ---------- improve ---------- ------- -- -------- ----<br>---- --- ------ ----- ------ -- ---- --- ----- -- - -------<br>-------- -- --- --- -- ----- ----------- ----- -----------<br>---- --- ---------- --- ---- --- -- ----------,363434.2000000002,363432.39999999944,361980.391,361984.7999999998,362005.391,363455.391,,19,improve
screen,html.Screen,2_3_1_0_1_20,2022-05-04T09:11:49.705Z,,,,,,,,,,,,,,,,,51,,,,,,,,,,,,,,806.4089999998105,,response,,,,13,B,,,,,,Space,keypress(Space),,,,lyrical,,,,-------- -------- --- --- ---- --- --- ------ -- --------<br>---- --------- --- ------- ------------ ---------- ---------<br>--- ---------- ------- companies' ------- -- -------- ----<br>---- --- ------ ----- ------ -- ---- --- ----- -- - -------<br>-------- -- --- --- -- ----- ----------- ----- -----------<br>---- --- ---------- --- ---- --- -- ----------,364263.7000000002,364261.7999999998,363430.391,363434.5,363455.391,364280.391,,20,companies'
screen,html.Screen,2_3_1_0_1_21,2022-05-04T09:11:50.696Z,,,,,,,,,,,,,,,,,51,,,,,,,,,,,,,,972.4089999998105,,response,,,,13,B,,,,,,Space,keypress(Space),,,,lyrical,,,,-------- -------- --- --- ---- --- --- ------ -- --------<br>---- --------- --- ------- ------------ ---------- ---------<br>--- ---------- ------- ---------- ability -- -------- ----<br>---- --- ------ ----- ------ -- ---- --- ----- -- - -------<br>-------- -- --- --- -- ----- ----------- ----- -----------<br>---- --- ---------- --- ---- --- -- ----------,365254.5,365252.7999999998,364255.391,364264,364280.391,365280.391,,21,ability
screen,html.Screen,2_3_1_0_1_22,2022-05-04T09:11:51.787Z,,,,,,,,,,,,,,,,,51,,,,,,,,,,,,,,1062.809000000183,,response,,,,13,B,,,,,,Space,keypress(Space),,,,lyrical,,,,-------- -------- --- --- ---- --- --- ------ -- --------<br>---- --------- --- ------- ------------ ---------- ---------<br>--- ---------- ------- ---------- ------- to -------- ----<br>---- --- ------ ----- ------ -- ---- --- ----- -- - -------<br>-------- -- --- --- -- ----- ----------- ----- -----------<br>---- --- ---------- --- ---- --- -- ----------,366345.2999999998,366343.2000000002,365255.391,365254.7999999998,365280.391,366355.391,,22,to
screen,html.Screen,2_3_1_0_1_23,2022-05-04T09:11:53.482Z,,,,,,,,,,,,,,,,,51,,,,,,,,,,,,,,1682.4089999998105,,response,,,,13,B,,,,,,Space,keypress(Space),,,,lyrical,,,,-------- -------- --- --- ---- --- --- ------ -- --------<br>---- --------- --- ------- ------------ ---------- ---------<br>--- ---------- ------- ---------- ------- -- survive. ----<br>---- --- ------ ----- ------ -- ---- --- ----- -- - -------<br>-------- -- --- --- -- ----- ----------- ----- -----------<br>---- --- ---------- --- ---- --- -- ----------,368040.5,368037.7999999998,366330.391,366345.5999999996,366355.391,368055.391,,23,survive.
screen,html.Screen,2_3_1_0_1_24,2022-05-04T09:11:54.077Z,,,,,,,,,,,,,,,,,51,,,,,,,,,,,,,,577.508999999438,,response,,,,13,B,,,,,,Space,keypress(Space),,,,lyrical,,,,-------- -------- --- --- ---- --- --- ------ -- --------<br>---- --------- --- ------- ------------ ---------- ---------<br>--- ---------- ------- ---------- ------- -- -------- This<br>---- --- ------ ----- ------ -- ---- --- ----- -- - -------<br>-------- -- --- --- -- ----- ----------- ----- -----------<br>---- --- ---------- --- ---- --- -- ----------,368634.89999999944,368632.89999999944,368030.391,368040.89999999944,368055.391,368655.391,,24,This
screen,html.Screen,2_3_1_0_1_25,2022-05-04T09:11:54.859Z,,,,,,,,,,,,,,,,,51,,,,,,,,,,,,,,760.1089999999967,,response,,,,13,B,,,,,,Space,keypress(Space),,,,lyrical,,,,-------- -------- --- --- ---- --- --- ------ -- --------<br>---- --------- --- ------- ------------ ---------- ---------<br>--- ---------- ------- ---------- ------- -- -------- ----<br>week --- ------ ----- ------ -- ---- --- ----- -- - -------<br>-------- -- --- --- -- ----- ----------- ----- -----------<br>---- --- ---------- --- ---- --- -- ----------,369417.5,369415.5,368630.391,368635.2000000002,368655.391,369430.391,,25,week
screen,html.Screen,2_3_1_0_1_26,2022-05-04T09:11:55.454Z,,,,,,,,,,,,,,,,,51,,,,,,,,,,,,,,579.508999999438,,response,,,,13,B,,,,,,Space,keypress(Space),,,,lyrical,,,,-------- -------- --- --- ---- --- --- ------ -- --------<br>---- --------- --- ------- ------------ ---------- ---------<br>--- ---------- ------- ---------- ------- -- -------- ----<br>---- the ------ ----- ------ -- ---- --- ----- -- - -------<br>-------- -- --- --- -- ----- ----------- ----- -----------<br>---- --- ---------- --- ---- --- -- ----------,370012,370009.89999999944,369405.391,369417.7999999998,369430.391,370030.391,,26,the
screen,html.Screen,2_3_1_0_1_27,2022-05-04T09:11:55.940Z,,,,,,,,,,,,,,,,,51,,,,,,,,,,,,,,465.10899999999674,,response,,,,13,B,,,,,,Space,keypress(Space),,,,lyrical,,,,-------- -------- --- --- ---- --- --- ------ -- --------<br>---- --------- --- ------- ------------ ---------- ---------<br>--- ---------- ------- ---------- ------- -- -------- ----<br>---- --- Senate ----- ------ -- ---- --- ----- -- - -------<br>-------- -- --- --- -- ----- ----------- ----- -----------<br>---- --- ---------- --- ---- --- -- ----------,370497.89999999944,370495.5,370005.391,370012.39999999944,370030.391,370505.391,,27,Senate
screen,html.Screen,2_3_1_0_1_28,2022-05-04T09:11:56.384Z,,,,,,,,,,,,,,,,,51,,,,,,,,,,,,,,435.309000000183,,response,,,,13,B,,,,,,Space,keypress(Space),,,,lyrical,,,,-------- -------- --- --- ---- --- --- ------ -- --------<br>---- --------- --- ------- ------------ ---------- ---------<br>--- ---------- ------- ---------- ------- -- -------- ----<br>---- --- ------ seems ------ -- ---- --- ----- -- - -------<br>-------- -- --- --- -- ----- ----------- ----- -----------<br>---- --- ---------- --- ---- --- -- ----------,370942.0999999996,370940.7000000002,370480.391,370498.2999999998,370505.391,370955.391,,28,seems
screen,html.Screen,2_3_1_0_1_29,2022-05-04T09:11:57.067Z,,,,,,,,,,,,,,,,,51,,,,,,,,,,,,,,669.4089999998105,,response,,,,13,B,,,,,,Space,keypress(Space),,,,lyrical,,,,-------- -------- --- --- ---- --- --- ------ -- --------<br>---- --------- --- ------- ------------ ---------- ---------<br>--- ---------- ------- ---------- ------- -- -------- ----<br>---- --- ------ ----- poised -- ---- --- ----- -- - -------<br>-------- -- --- --- -- ----- ----------- ----- -----------<br>---- --- ---------- --- ---- --- -- ----------,371625.7000000002,371624.7999999998,370930.391,370942.2000000002,370955.391,371630.391,,29,poised
screen,html.Screen,2_3_1_0_1_30,2022-05-04T09:11:57.485Z,,,,,,,,,,,,,,,,,51,,,,,,,,,,,,,,411.309000000183,,response,,,,13,B,,,,,,Space,keypress(Space),,,,lyrical,,,,-------- -------- --- --- ---- --- --- ------ -- --------<br>---- --------- --- ------- ------------ ---------- ---------<br>--- ---------- ------- ---------- ------- -- -------- ----<br>---- --- ------ ----- ------ to ---- --- ----- -- - -------<br>-------- -- --- --- -- ----- ----------- ----- -----------<br>---- --- ---------- --- ---- --- -- ----------,372043.7999999998,372041.7000000002,371605.391,371625.7999999998,371630.391,372055.391,,30,to
screen,html.Screen,2_3_1_0_1_31,2022-05-04T09:11:57.942Z,,,,,,,,,,,,,,,,,51,,,,,,,,,,,,,,442.4089999998105,,response,,,,13,B,,,,,,Space,keypress(Space),,,,lyrical,,,,-------- -------- --- --- ---- --- --- ------ -- --------<br>---- --------- --- ------- ------------ ---------- ---------<br>--- ---------- ------- ---------- ------- -- -------- ----<br>---- --- ------ ----- ------ -- join --- ----- -- - -------<br>-------- -- --- --- -- ----- ----------- ----- -----------<br>---- --- ---------- --- ---- --- -- ----------,372499.89999999944,372497.7999999998,372030.391,372044,372055.391,372505.391,,31,join
screen,html.Screen,2_3_1_0_1_32,2022-05-04T09:11:58.387Z,,,,,,,,,,,,,,,,,51,,,,,,,,,,,,,,438.10899999999674,,response,,,,13,B,,,,,,Space,keypress(Space),,,,lyrical,,,,-------- -------- --- --- ---- --- --- ------ -- --------<br>---- --------- --- ------- ------------ ---------- ---------<br>--- ---------- ------- ---------- ------- -- -------- ----<br>---- --- ------ ----- ------ -- ---- the ----- -- - -------<br>-------- -- --- --- -- ----- ----------- ----- -----------<br>---- --- ---------- --- ---- --- -- ----------,372945.2000000002,372943.5,372480.391,372500.2000000002,372505.391,372955.391,,32,the
screen,html.Screen,2_3_1_0_1_33,2022-05-04T09:11:59.012Z,,,,,,,,,,,,,,,,,51,,,,,,,,,,,,,,612.508999999438,,response,,,,13,B,,,,,,Space,keypress(Space),,,,lyrical,,,,-------- -------- --- --- ---- --- --- ------ -- --------<br>---- --------- --- ------- ------------ ---------- ---------<br>--- ---------- ------- ---------- ------- -- -------- ----<br>---- --- ------ ----- ------ -- ---- --- House -- - -------<br>-------- -- --- --- -- ----- ----------- ----- -----------<br>---- --- ---------- --- ---- --- -- ----------,373569.89999999944,373567.89999999944,372930.391,372945.5,372955.391,373580.391,,33,House
screen,html.Screen,2_3_1_0_1_34,2022-05-04T09:11:59.537Z,,,,,,,,,,,,,,,,,51,,,,,,,,,,,,,,512.809000000183,,response,,,,13,B,,,,,,Space,keypress(Space),,,,lyrical,,,,-------- -------- --- --- ---- --- --- ------ -- --------<br>---- --------- --- ------- ------------ ---------- ---------<br>--- ---------- ------- ---------- ------- -- -------- ----<br>---- --- ------ ----- ------ -- ---- --- ----- in - -------<br>-------- -- --- --- -- ----- ----------- ----- -----------<br>---- --- ---------- --- ---- --- -- ----------,374095.0999999996,374093.2000000002,373555.391,373570.2000000002,373580.391,374105.391,,34,in
screen,html.Screen,2_3_1_0_1_35,2022-05-04T09:12:00.092Z,,,,,,,,,,,,,,,,,51,,,,,,,,,,,,,,543.2089999996242,,response,,,,13,B,,,,,,Space,keypress(Space),,,,lyrical,,,,-------- -------- --- --- ---- --- --- ------ -- --------<br>---- --------- --- ------- ------------ ---------- ---------<br>--- ---------- ------- ---------- ------- -- -------- ----<br>---- --- ------ ----- ------ -- ---- --- ----- -- a -------<br>-------- -- --- --- -- ----- ----------- ----- -----------<br>---- --- ---------- --- ---- --- -- ----------,374650.2999999998,374648.5999999996,374080.391,374095.39999999944,374105.391,374655.391,,35,a
screen,html.Screen,2_3_1_0_1_36,2022-05-04T09:12:00.607Z,,,,,,,,,,,,,,,,,51,,,,,,,,,,,,,,508.4089999998105,,response,,,,13,B,,,,,,Space,keypress(Space),,,,lyrical,,,,-------- -------- --- --- ---- --- --- ------ -- --------<br>---- --------- --- ------- ------------ ---------- ---------<br>--- ---------- ------- ---------- ------- -- -------- ----<br>---- --- ------ ----- ------ -- ---- --- ----- -- - massive<br>-------- -- --- --- -- ----- ----------- ----- -----------<br>---- --- ---------- --- ---- --- -- ----------,375165.5999999996,375163.7999999998,374630.391,374650.5,374655.391,375180.391,,36,massive
screen,html.Screen,2_3_1_0_1_37,2022-05-04T09:12:01.240Z,,,,,,,,,,,,,,,,,51,,,,,,,,,,,,,,616.809000000183,,response,,,,13,B,,,,,,Space,keypress(Space),,,,lyrical,,,,-------- -------- --- --- ---- --- --- ------ -- --------<br>---- --------- --- ------- ------------ ---------- ---------<br>--- ---------- ------- ---------- ------- -- -------- ----<br>---- --- ------ ----- ------ -- ---- --- ----- -- - -------<br>overhaul -- --- --- -- ----- ----------- ----- -----------<br>---- --- ---------- --- ---- --- -- ----------,375798.2000000002,375797.2000000002,375155.391,375165.89999999944,375180.391,375805.391,,37,overhaul
screen,html.Screen,2_3_1_0_1_38,2022-05-04T09:12:01.747Z,,,,,,,,,,,,,,,,,51,,,,,,,,,,,,,,497.9089999998105,,response,,,,13,B,,,,,,Space,keypress(Space),,,,lyrical,,,,-------- -------- --- --- ---- --- --- ------ -- --------<br>---- --------- --- ------- ------------ ---------- ---------<br>--- ---------- ------- ---------- ------- -- -------- ----<br>---- --- ------ ----- ------ -- ---- --- ----- -- - -------<br>-------- of --- --- -- ----- ----------- ----- -----------<br>---- --- ---------- --- ---- --- -- ----------,376305.2999999998,376303.2999999998,375780.391,375798.2999999998,375805.391,376330.391,,38,of
screen,html.Screen,2_3_1_0_1_39,2022-05-04T09:12:02.193Z,,,,,,,,,,,,,,,,,51,,,,,,,,,,,,,,419.10899999999674,,response,,,,13,B,,,,,,Space,keypress(Space),,,,lyrical,,,,-------- -------- --- --- ---- --- --- ------ -- --------<br>---- --------- --- ------- ------------ ---------- ---------<br>--- ---------- ------- ---------- ------- -- -------- ----<br>---- --- ------ ----- ------ -- ---- --- ----- -- - -------<br>-------- -- the --- -- ----- ----------- ----- -----------<br>---- --- ---------- --- ---- --- -- ----------,376751.2000000002,376749.5,376305.391,376305.7000000002,376330.391,376755.391,,39,the
