sender,sender_type,sender_id,timestamp,meta,,Blues,Classical,Country,Dance,Electronic,Folk,Gospel,Hip-Hop,Jazz,Latin,Musical/Film,New-age,Pop,Prolific_id,Provo_ID,R&B,Rap,Reggae,Religious,Rock,Soul,Swing,Traditional,age,artist_name,correct,correctResponse,distraction,duration,education,ended_on,familiarity,gender,headphone_check_performance,item,list,music_frequency,offensiveness,pleasantness,position_correct,preference,response,response_action,snippet_file,song_name,song_rating,sound,stimulus_1,stimulus_2,stimulus_3,text,time_commit,time_end,time_render,time_run,time_show,time_switch,url,word,word_ID
Prolific ID,html.Form,0,2022-04-25T17:06:15.631Z,"{""labjs_version"":""20.2.2"",""labjs_build"":{""flavor"":""production"",""commit"":""a25486e0c714a0ae2ce03ff94b7bb6896854dcfa""},""location"":""https://run.pavlovia.org/mvasilev/prolific3_music_b/"",""userAgent"":""Mozilla/5.0 (Windows NT 10.0; Win64; x64) AppleWebKit/537.36 (KHTML, like Gecko) Chrome/100.0.4896.127 Safari/537.36"",""platform"":""Win32"",""language"":""en-GB"",""locale"":""en-GB"",""timeZone"":""Europe/London"",""timezoneOffset"":-60,""screen_width"":1920,""screen_height"":1080,""scroll_width"":1598,""scroll_height"":867,""window_innerWidth"":1598,""window_innerHeight"":915,""devicePixelRatio"":1}",,,,,,,,,,,,,,,5dc04aba55b86247c9991f89,,,,,,,,,,,,,,,2808.054999999629,,form submission,,,,,,,,,,,,,,,,,,,,,38655.89999999851,38655.59999999963,35830.88,11425.299999998882,35847.545,38663.859,{},,
Introduction,html.Screen,1_0,2022-04-25T17:06:20.399Z,,,,,,,,,,,,,,,,,,,,,,,,,,,,,,,4758.641000000003,,response,,,,,,,,,,,continue,click button,,,,,,,,,43424.199999999255,43422.5,38647.214,38656.199999999255,38663.859,43429.998,,,
Volume calibration,html.Screen,1_1,2022-04-25T17:07:00.576Z,,,,,,,,,,,,,,,,,,,,,,,,,,,,,,,40168.40199999851,,response,,,,,,,,,,,continue,click button,,,,,,,,,83600.89999999851,83598.39999999851,43413.291,43424.199999999255,43429.998,83608.656,,,
Task instructions,html.Screen,1_2,2022-04-25T17:07:27.926Z,,,,,,,,,,,,,,,,,,,,,,,,,,,,,,,27341.843999999997,,response,,,,,,,,,,,continue,click button,,,,,,,,,110950.89999999851,110950.5,83591.944,83600.89999999851,83608.656,110955.469,,,
Sounds,html.Screen,1_3_0_0,2022-04-25T17:07:32.165Z,,,,,,,,,,,,,,,,,,,,,,,,,,,,,,,4249.5090000000055,,timeout,,,,,,,,,3,,,,,,,,O,I,S,,115190,115188.298,110938.804,110951.09999999963,110955.469,115204.978,,,
Judgement,html.Screen,1_3_0_1,2022-04-25T17:07:32.710Z,,,,,,,,,,,,,,,,,,,,,,,,,,,,true,3,,529.5219999999972,,response,,,,,,,,,3,,3,click #choice-3,,,,,O,I,S,,115735,115734.5,115188.298,115190.09999999963,115204.978,115738.214,,,
Trial,flow.Sequence,1_3_0,2022-04-25T17:07:32.710Z,,,,,,,,,,,,,,,,,,,,,,,,,,,,,,,4779.031000000003,,completion,,,,,,,,,3,,,,,,,,O,I,S,,115735.19999999925,115734.5,110938.804,110951.09999999963,110955.469,115738.214,,,
Sounds,html.Screen,1_3_1_0,2022-04-25T17:07:36.947Z,,,,,,,,,,,,,,,,,,,,,,,,,,,,,,,4249.532999999996,,timeout,,,,,,,,,1,,,,,,,,S,I,O,,119971.59999999963,119971.08,115721.582,115735.29999999888,115738.214,119987.747,,,
Judgement,html.Screen,1_3_1_1,2022-04-25T17:07:37.382Z,,,,,,,,,,,,,,,,,,,,,,,,,,,,true,1,,418.5529999988794,,response,,,,,,,,,1,,1,click #choice-1,,,,,S,I,O,,120407,120406.29999999888,119971.08,119971.59999999963,119987.747,120421.01,,,
Trial,flow.Sequence,1_3_1,2022-04-25T17:07:37.382Z,,,,,,,,,,,,,,,,,,,,,,,,,,,,,,,4668.085999998875,,completion,,,,,,,,,1,,,,,,,,S,I,O,,120407.19999999925,120406.29999999888,115721.582,115735.19999999925,115738.214,120421.01,,,
Sounds,html.Screen,1_3_2_0,2022-04-25T17:07:41.629Z,,,,,,,,,,,,,,,,,,,,,,,,,,,,,,,4249.529999999999,,timeout,,,,,,,,,1,,,,,,,,S,O,I,,124654.29999999888,124653.871,120404.39,120407.29999999888,120421.01,124670.54,,,
Judgement,html.Screen,1_3_2_1,2022-04-25T17:07:41.958Z,,,,,,,,,,,,,,,,,,,,,,,,,,,,true,1,,311.8599999985163,,response,,,,,,,,,1,,1,click #choice-1,,,,,S,O,I,,124982.89999999851,124982.39999999851,124653.871,124654.39999999851,124670.54,124987.171,,,
Trial,flow.Sequence,1_3_2,2022-04-25T17:07:41.958Z,,,,,,,,,,,,,,,,,,,,,,,,,,,,,,,4561.389999998515,,completion,,,,,,,,,1,,,,,,,,S,O,I,,124983.09999999963,124982.39999999851,120404.39,120407.19999999925,120421.01,124987.171,,,
Sounds,html.Screen,1_3_3_0,2022-04-25T17:07:46.195Z,,,,,,,,,,,,,,,,,,,,,,,,,,,,,,,4249.467000000004,,timeout,,,,,,,,,2,,,,,,,,I,S,O,,129220.39999999851,129219.966,124970.499,124983.19999999925,124987.171,129236.638,,,
Judgement,html.Screen,1_3_3_1,2022-04-25T17:07:46.542Z,,,,,,,,,,,,,,,,,,,,,,,,,,,,true,2,,329.7619999985036,,response,,,,,,,,,2,,2,click #choice-2,,,,,I,S,O,,129566.79999999888,129566.39999999851,129219.966,129220.39999999851,129236.638,129586.636,,,
Trial,flow.Sequence,1_3_3,2022-04-25T17:07:46.542Z,,,,,,,,,,,,,,,,,,,,,,,,,,,,,,,4579.228999998508,,completion,,,,,,,,,2,,,,,,,,I,S,O,,129567,129566.39999999851,124970.499,124983.09999999963,124987.171,129586.636,,,
Sounds,html.Screen,1_3_4_0,2022-04-25T17:07:50.795Z,,,,,,,,,,,,,,,,,,,,,,,,,,,,,,,4249.510999999999,,timeout,,,,,,,,,2,,,,,,,,O,S,I,,133819.79999999888,133819.47,129569.974,129567,129586.636,133836.147,,,
Judgement,html.Screen,1_3_4_1,2022-04-25T17:07:51.094Z,,,,,,,,,,,,,,,,,,,,,,,,,,,,true,2,,282.2529999985127,,response,,,,,,,,,2,,2,click #choice-2,,,,,O,S,I,,134118.79999999888,134118.3999999985,133819.47,133819.8999999985,133836.147,134137.303,,,
Trial,flow.Sequence,1_3_4,2022-04-25T17:07:51.094Z,,,,,,,,,,,,,,,,,,,,,,,,,,,,,,,4531.763999998511,,completion,,,,,,,,,2,,,,,,,,O,S,I,,134118.8999999985,134118.3999999985,129569.974,129567,129586.636,134137.303,,,
Sounds,html.Screen,1_3_5_0,2022-04-25T17:07:55.345Z,,,,,,,,,,,,,,,,,,,,,,,,,,,,,,,4248.30799999999,,timeout,,,,,,,,,3,,,,,,,,I,O,S,,138369.29999999888,138368.936,134102.77,134119.09999999963,134137.303,138385.611,,,
Judgement,html.Screen,1_3_5_1,2022-04-25T17:07:55.662Z,,,,,,,,,,,,,,,,,,,,,,,,,,,,true,3,,300.688999998878,,response,,,,,,,,,3,,3,click #choice-3,,,,,I,O,S,,138686.8999999985,138686.29999999888,138368.936,138369.5,138385.611,138702.245,,,
Trial,flow.Sequence,1_3_5,2022-04-25T17:07:55.662Z,,,,,,,,,,,,,,,,,,,,,,,,,,,,,,,4548.996999998868,,completion,,,,,,,,,3,,,,,,,,I,O,S,,138687,138686.29999999888,134102.77,134119.09999999963,134137.303,138702.245,,,
Task,flow.Loop,1_3,2022-04-25T17:07:55.666Z,,,,,,,,,,,,,,,,,,,,,,,,,,,,,,,27730.830999998885,,completion,,,1,,,,,,,,,,,,,,,,,,138690.29999999888,138686.29999999888,110938.804,110951,110955.469,138702.245,,,
Trap,html.Screen,1_4,2022-04-25T17:07:55.666Z,,,,,,,,,,,,,,,,,,,,,,,,,,,,,,,NaN,,skipped,,,,,,,,,,,,,,,,,,,,,138691,138686.29999999888,,138691,,138702.245,,,
Thanks,html.Screen,1_5,2022-04-25T17:07:58.942Z,,,,,,,,,,,,,,,,,,,,,,,,,,,,,,,3264.054999998887,,response,,,,,,,,,,,continue,click button,,,,,,,,,141966.8999999985,141966.29999999888,138685.571,138691.09999999963,138702.245,144002.163,,,
Headphone screening,flow.Sequence,1,2022-04-25T17:07:58.942Z,,,,,,,,,,,,,,,,,,,,,,,,,,,,,,,103302.44099999889,,completion,,,,,,,,,,,,,,,,,,,,,141967.09999999963,141966.29999999888,38647.214,38656.09999999963,38663.859,144002.163,,,
Instructions,html.Page,2_0,2022-04-25T17:10:02.655Z,,,,,,,,,,,,,,,,,,,,,,,,,,,,,,,121676.73699999851,,form submission,,,,,,,,,,,,,,,,,,,,,265679.0999999996,265678.8999999985,143984.929,143999.09999999963,144002.163,265687.438,,,
Holding screen,html.Screen,2_1_0_0,2022-04-25T17:10:12.646Z,,,,,,,,,,,,,,,,,,,,,,,,,,,,,,,9998.859999999986,,timeout,,,,,,,,,,,,,,,,,,,,,275669.8999999985,275669.588,265670.788,265679.19999999925,265687.438,275686.298,,,
screen,html.Screen,2_1_0_1_0,2022-04-25T17:10:13.304Z,,,,,,,,,,,,,,,,,53,,,,,,,,,,,,,,640.4019999992452,,response,,,,99,,,,,,,Space,keypress(Space),,,,,,,,When -- ----- -- ------ - ------- --- ----------<br>------------- ------ ------ ---- ---- ------- ----- -- ----<br>-------- ------- -- ---------- --- - --- ----- ----- ----<br>---- --- --- ----- --- ---- ---- ------- ----- ---- -------<br>--- --- -- ----- -- --- ---- -- --- ---- -- ------ ------<br>--- ----- -- ----,276328.19999999925,276326.69999999925,275669.588,275670,275686.298,276336.206,,0,When
screen,html.Screen,2_1_0_1_1,2022-04-25T17:10:13.791Z,,,,,,,,,,,,,,,,,53,,,,,,,,,,,,,,478.1939999985043,,response,,,,99,,,,,,,Space,keypress(Space),,,,,,,,---- it ----- -- ------ - ------- --- ----------<br>------------- ------ ------ ---- ---- ------- ----- -- ----<br>-------- ------- -- ---------- --- - --- ----- ----- ----<br>---- --- --- ----- --- ---- ---- ------- ----- ---- -------<br>--- --- -- ----- -- --- ---- -- --- ---- -- ------ ------<br>--- ----- -- ----,276814.7999999989,276814.3999999985,276319.571,276328.2999999989,276336.206,276819.502,,1,it
screen,html.Screen,2_1_0_1_2,2022-04-25T17:10:14.190Z,,,,,,,,,,,,,,,,,53,,,,,,,,,,,,,,394.8979999985313,,response,,,,99,,,,,,,Space,keypress(Space),,,,,,,,---- -- comes -- ------ - ------- --- ----------<br>------------- ------ ------ ---- ---- ------- ----- -- ----<br>-------- ------- -- ---------- --- - --- ----- ----- ----<br>---- --- --- ----- --- ---- ---- ------- ----- ---- -------<br>--- --- -- ----- -- --- ---- -- --- ---- -- ------ ------<br>--- ----- -- ----,277214.69999999925,277214.3999999985,276802.888,276814.8999999985,276819.502,277219.423,,2,comes
screen,html.Screen,2_1_0_1_3,2022-04-25T17:10:14.591Z,,,,,,,,,,,,,,,,,53,,,,,,,,,,,,,,395.1769999996177,,response,,,,99,,,,,,,Space,keypress(Space),,,,,,,,---- -- ----- to ------ - ------- --- ----------<br>------------- ------ ------ ---- ---- ------- ----- -- ----<br>-------- ------- -- ---------- --- - --- ----- ----- ----<br>---- --- --- ----- --- ---- ---- ------- ----- ---- -------<br>--- --- -- ----- -- --- ---- -- --- ---- -- ------ ------<br>--- ----- -- ----,277615,277614.5999999996,277202.799,277214.7999999989,277219.423,277619.372,,3,to
screen,html.Screen,2_1_0_1_4,2022-04-25T17:10:14.999Z,,,,,,,,,,,,,,,,,53,,,,,,,,,,,,,,403.22799999965355,,response,,,,99,,,,,,,Space,keypress(Space),,,,,,,,---- -- ----- -- having - ------- --- ----------<br>------------- ------ ------ ---- ---- ------- ----- -- ----<br>-------- ------- -- ---------- --- - --- ----- ----- ----<br>---- --- --- ----- --- ---- ---- ------- ----- ---- -------<br>--- --- -- ----- -- --- ---- -- --- ---- -- ------ ------<br>--- ----- -- ----,278023,278022.5999999996,277602.729,277615,277619.372,278035.994,,4,having
screen,html.Screen,2_1_0_1_5,2022-04-25T17:10:15.383Z,,,,,,,,,,,,,,,,,53,,,,,,,,,,,,,,370.40599999850383,,response,,,,99,,,,,,,Space,keypress(Space),,,,,,,,---- -- ----- -- ------ a ------- --- ----------<br>------------- ------ ------ ---- ---- ------- ----- -- ----<br>-------- ------- -- ---------- --- - --- ----- ----- ----<br>---- --- --- ----- --- ---- ---- ------- ----- ---- -------<br>--- --- -- ----- -- --- ---- -- --- ---- -- ------ ------<br>--- ----- -- ----,278406.69999999925,278406.3999999985,278019.38,278023.0999999996,278035.994,278419.29,,5,a
screen,html.Screen,2_1_0_1_6,2022-04-25T17:10:15.743Z,,,,,,,,,,,,,,,,,53,,,,,,,,,,,,,,347.10999999853084,,response,,,,99,,,,,,,Space,keypress(Space),,,,,,,,---- -- ----- -- ------ - lasting --- ----------<br>------------- ------ ------ ---- ---- ------- ----- -- ----<br>-------- ------- -- ---------- --- - --- ----- ----- ----<br>---- --- --- ----- --- ---- ---- ------- ----- ---- -------<br>--- --- -- ----- -- --- ---- -- --- ---- -- ------ ------<br>--- ----- -- ----,278766.7999999989,278766.3999999985,278402.663,278406.8999999985,278419.29,278769.243,,6,lasting
screen,html.Screen,2_1_0_1_7,2022-04-25T17:10:16.095Z,,,,,,,,,,,,,,,,,53,,,,,,,,,,,,,,349.4569999992382,,response,,,,99,,,,,,,Space,keypress(Space),,,,,,,,---- -- ----- -- ------ - ------- and ----------<br>------------- ------ ------ ---- ---- ------- ----- -- ----<br>-------- ------- -- ---------- --- - --- ----- ----- ----<br>---- --- --- ----- --- ---- ---- ------- ----- ---- -------<br>--- --- -- ----- -- --- ---- -- --- ---- -- ------ ------<br>--- ----- -- ----,279119,279118.69999999925,278752.617,278766.8999999985,278769.243,279135.908,,7,and
screen,html.Screen,2_1_0_1_8,2022-04-25T17:10:16.495Z,,,,,,,,,,,,,,,,,53,,,,,,,,,,,,,,382.79199999925913,,response,,,,99,,,,,,,Space,keypress(Space),,,,,,,,---- -- ----- -- ------ - ------- --- fulfilling<br>------------- ------ ------ ---- ---- ------- ----- -- ----<br>-------- ------- -- ---------- --- - --- ----- ----- ----<br>---- --- --- ----- --- ---- ---- ------- ----- ---- -------<br>--- --- -- ----- -- --- ---- -- --- ---- -- ------ ------<br>--- ----- -- ----,279519,279518.69999999925,279119.243,279119.0999999996,279135.908,279535.844,,8,fulfilling
screen,html.Screen,2_1_0_1_9,2022-04-25T17:10:16.894Z,,,,,,,,,,,,,,,,,53,,,,,,,,,,,,,,382.5559999985271,,response,,,,99,,,,,,,Space,keypress(Space),,,,,,,,"---- -- ----- -- ------ - ------- --- ----------<br>relationship, ------ ------ ---- ---- ------- ----- -- ----<br>-------- ------- -- ---------- --- - --- ----- ----- ----<br>---- --- --- ----- --- ---- ---- ------- ----- ---- -------<br>--- --- -- ----- -- --- ---- -- --- ---- -- ------ ------<br>--- ----- -- ----",279918.69999999925,279918.3999999985,279519.211,279519,279535.844,279935.798,,9,"relationship,"
screen,html.Screen,2_1_0_1_10,2022-04-25T17:10:21.647Z,,,,,,,,,,,,,,,,,53,,,,,,,,,,,,,,4734.6019999985,,response,,,,99,,,,,,,Space,keypress(Space),,,,,,,,---- -- ----- -- ------ - ------- --- ----------<br>------------- common ------ ---- ---- ------- ----- -- ----<br>-------- ------- -- ---------- --- - --- ----- ----- ----<br>---- --- --- ----- --- ---- ---- ------- ----- ---- -------<br>--- --- -- ----- -- --- ---- -- --- ---- -- ------ ------<br>--- ----- -- ----,284670.7999999989,284670.3999999985,279919.127,279918.7999999989,279935.798,284685.265,,10,common
screen,html.Screen,2_1_0_1_11,2022-04-25T17:10:22.191Z,,,,,,,,,,,,,,,,,53,,,,,,,,,,,,,,529.5349999988684,,response,,,,99,,,,,,,Space,keypress(Space),,,,,,,,---- -- ----- -- ------ - ------- --- ----------<br>------------- ------ wisdom ---- ---- ------- ----- -- ----<br>-------- ------- -- ---------- --- - --- ----- ----- ----<br>---- --- --- ----- --- ---- ---- ------- ----- ---- -------<br>--- --- -- ----- -- --- ---- -- --- ---- -- ------ ------<br>--- ----- -- ----,285215.2999999989,285214.7999999989,284668.581,284670.8999999985,284685.265,285235.191,,11,wisdom
screen,html.Screen,2_1_0_1_12,2022-04-25T17:10:22.631Z,,,,,,,,,,,,,,,,,53,,,,,,,,,,,,,,419.5089999992633,,response,,,,99,,,,,,,Space,keypress(Space),,,,,,,,---- -- ----- -- ------ - ------- --- ----------<br>------------- ------ ------ says ---- ------- ----- -- ----<br>-------- ------- -- ---------- --- - --- ----- ----- ----<br>---- --- --- ----- --- ---- ---- ------- ----- ---- -------<br>--- --- -- ----- -- --- ---- -- --- ---- -- ------ ------<br>--- ----- -- ----,285655.19999999925,285654.69999999925,285218.534,285215.3999999985,285235.191,285668.474,,12,says
screen,html.Screen,2_1_0_1_13,2022-04-25T17:10:22.935Z,,,,,,,,,,,,,,,,,53,,,,,,,,,,,,,,290.0260000000126,,response,,,,99,,,,,,,Space,keypress(Space),,,,,,,,---- -- ----- -- ------ - ------- --- ----------<br>------------- ------ ------ ---- that ------- ----- -- ----<br>-------- ------- -- ---------- --- - --- ----- ----- ----<br>---- --- --- ----- --- ---- ---- ------- ----- ---- -------<br>--- --- -- ----- -- --- ---- -- --- ---- -- ------ ------<br>--- ----- -- ----,285959,285958.5,285651.826,285655.2999999989,285668.474,285968.451,,13,that
screen,html.Screen,2_1_0_1_14,2022-04-25T17:10:23.287Z,,,,,,,,,,,,,,,,,53,,,,,,,,,,,,,,342.14899999962654,,response,,,,99,,,,,,,Space,keypress(Space),,,,,,,,---- -- ----- -- ------ - ------- --- ----------<br>------------- ------ ------ ---- ---- feeling ----- -- ----<br>-------- ------- -- ---------- --- - --- ----- ----- ----<br>---- --- --- ----- --- ---- ---- ------- ----- ---- -------<br>--- --- -- ----- -- --- ---- -- --- ---- -- ------ ------<br>--- ----- -- ----,286311,286310.5999999996,285951.785,285959,285968.451,286318.4,,14,feeling
screen,html.Screen,2_1_0_1_15,2022-04-25T17:10:23.607Z,,,,,,,,,,,,,,,,,53,,,,,,,,,,,,,,312.29999999923166,,response,,,,99,,,,,,,Space,keypress(Space),,,,,,,,---- -- ----- -- ------ - ------- --- ----------<br>------------- ------ ------ ---- ---- ------- close -- ----<br>-------- ------- -- ---------- --- - --- ----- ----- ----<br>---- --- --- ----- --- ---- ---- ------- ----- ---- -------<br>--- --- -- ----- -- --- ---- -- --- ---- -- ------ ------<br>--- ----- -- ----,286631.0999999996,286630.69999999925,286301.773,286311.0999999996,286318.4,286635.01,,15,close
screen,html.Screen,2_1_0_1_16,2022-04-25T17:10:23.911Z,,,,,,,,,,,,,,,,,53,,,,,,,,,,,,,,299.4899999999907,,response,,,,99,,,,,,,Space,keypress(Space),,,,,,,,---- -- ----- -- ------ - ------- --- ----------<br>------------- ------ ------ ---- ---- ------- ----- to ----<br>-------- ------- -- ---------- --- - --- ----- ----- ----<br>---- --- --- ----- --- ---- ---- ------- ----- ---- -------<br>--- --- -- ----- -- --- ---- -- --- ---- -- ------ ------<br>--- ----- -- ----,286935,286934.5,286618.387,286631.19999999925,286635.01,286951.652,,16,to
screen,html.Screen,2_1_0_1_17,2022-04-25T17:10:24.311Z,,,,,,,,,,,,,,,,,53,,,,,,,,,,,,,,382.9479999996256,,response,,,,99,,,,,,,Space,keypress(Space),,,,,,,,---- -- ----- -- ------ - ------- --- ----------<br>------------- ------ ------ ---- ---- ------- ----- -- your<br>-------- ------- -- ---------- --- - --- ----- ----- ----<br>---- --- --- ----- --- ---- ---- ------- ----- ---- -------<br>--- --- -- ----- -- --- ---- -- --- ---- -- ------ ------<br>--- ----- -- ----,287334.8999999985,287334.5999999996,286935.011,286935.0999999996,286951.652,287351.59,,17,your
screen,html.Screen,2_1_0_1_18,2022-04-25T17:10:25.231Z,,,,,,,,,,,,,,,,,53,,,,,,,,,,,,,,903.1099999992293,,response,,,,99,,,,,,,Space,keypress(Space),,,,,,,,---- -- ----- -- ------ - ------- --- ----------<br>------------- ------ ------ ---- ---- ------- ----- -- ----<br>romantic ------- -- ---------- --- - --- ----- ----- ----<br>---- --- --- ----- --- ---- ---- ------- ----- ---- -------<br>--- --- -- ----- -- --- ---- -- --- ---- -- ------ ------<br>--- ----- -- ----,288255,288254.69999999925,287334.969,287335,287351.59,288268.149,,18,romantic
screen,html.Screen,2_1_0_1_19,2022-04-25T17:10:25.687Z,,,,,,,,,,,,,,,,,53,,,,,,,,,,,,,,442.3510000000242,,response,,,,99,,,,,,,Space,keypress(Space),,,,,,,,---- -- ----- -- ------ - ------- --- ----------<br>------------- ------ ------ ---- ---- ------- ----- -- ----<br>-------- partner -- ---------- --- - --- ----- ----- ----<br>---- --- --- ----- --- ---- ---- ------- ----- ---- -------<br>--- --- -- ----- -- --- ---- -- --- ---- -- ------ ------<br>--- ----- -- ----,288711,288710.5,288251.582,288255.19999999925,288268.149,288718.125,,19,partner
screen,html.Screen,2_1_0_1_20,2022-04-25T17:10:26.015Z,,,,,,,,,,,,,,,,,53,,,,,,,,,,,,,,320.375,,response,,,,99,,,,,,,Space,keypress(Space),,,,,,,,---- -- ----- -- ------ - ------- --- ----------<br>------------- ------ ------ ---- ---- ------- ----- -- ----<br>-------- ------- is ---------- --- - --- ----- ----- ----<br>---- --- --- ----- --- ---- ---- ------- ----- ---- -------<br>--- --- -- ----- -- --- ---- -- --- ---- -- ------ ------<br>--- ----- -- ----,289038.7999999989,289038.5,288701.486,288711,288718.125,289051.424,,20,is
screen,html.Screen,2_1_0_1_21,2022-04-25T17:10:26.383Z,,,,,,,,,,,,,,,,,53,,,,,,,,,,,,,,355.37599999888334,,response,,,,99,,,,,,,Space,keypress(Space),,,,,,,,---- -- ----- -- ------ - ------- --- ----------<br>------------- ------ ------ ---- ---- ------- ----- -- ----<br>-------- ------- -- paramount. --- - --- ----- ----- ----<br>---- --- --- ----- --- ---- ---- ------- ----- ---- -------<br>--- --- -- ----- -- --- ---- -- --- ---- -- ------ ------<br>--- ----- -- ----,289407.0999999996,289406.7999999989,289034.761,289039,289051.424,289418.045,,21,paramount.
screen,html.Screen,2_1_0_1_22,2022-04-25T17:10:26.847Z,,,,,,,,,,,,,,,,,53,,,,,,,,,,,,,,452.55499999964377,,response,,,,99,,,,,,,Space,keypress(Space),,,,,,,,---- -- ----- -- ------ - ------- --- ----------<br>------------- ------ ------ ---- ---- ------- ----- -- ----<br>-------- ------- -- ---------- But - --- ----- ----- ----<br>---- --- --- ----- --- ---- ---- ------- ----- ---- -------<br>--- --- -- ----- -- --- ---- -- --- ---- -- ------ ------<br>--- ----- -- ----,289871,289870.5999999996,289401.388,289407.19999999925,289418.045,289884.651,,22,But
screen,html.Screen,2_1_0_1_23,2022-04-25T17:10:27.127Z,,,,,,,,,,,,,,,,,53,,,,,,,,,,,,,,265.9489999996149,,response,,,,99,,,,,,,Space,keypress(Space),,,,,,,,---- -- ----- -- ------ - ------- --- ----------<br>------------- ------ ------ ---- ---- ------- ----- -- ----<br>-------- ------- -- ---------- --- a --- ----- ----- ----<br>---- --- --- ----- --- ---- ---- ------- ----- ---- -------<br>--- --- -- ----- -- --- ---- -- --- ---- -- ------ ------<br>--- ----- -- ----,290151,290150.5999999996,289868.032,289871,289884.651,290167.945,,23,a
screen,html.Screen,2_1_0_1_24,2022-04-25T17:10:27.479Z,,,,,,,,,,,,,,,,,53,,,,,,,,,,,,,,334.554999999993,,response,,,,99,,,,,,,Space,keypress(Space),,,,,,,,---- -- ----- -- ------ - ------- --- ----------<br>------------- ------ ------ ---- ---- ------- ----- -- ----<br>-------- ------- -- ---------- --- - new ----- ----- ----<br>---- --- --- ----- --- ---- ---- ------- ----- ---- -------<br>--- --- -- ----- -- --- ---- -- --- ---- -- ------ ------<br>--- ----- -- ----,290502.7999999989,290502.5,290151.27,290151,290167.945,290517.881,,24,new
screen,html.Screen,2_1_0_1_25,2022-04-25T17:10:27.799Z,,,,,,,,,,,,,,,,,53,,,,,,,,,,,,,,304.51899999851594,,response,,,,99,,,,,,,Space,keypress(Space),,,,,,,,---- -- ----- -- ------ - ------- --- ----------<br>------------- ------ ------ ---- ---- ------- ----- -- ----<br>-------- ------- -- ---------- --- - --- study ----- ----<br>---- --- --- ----- --- ---- ---- ------- ----- ---- -------<br>--- --- -- ----- -- --- ---- -- --- ---- -- ------ ------<br>--- ----- -- ----,290822.69999999925,290822.3999999985,290501.274,290502.8999999985,290517.881,290834.515,,25,study
screen,html.Screen,2_1_0_1_26,2022-04-25T17:10:28.127Z,,,,,,,,,,,,,,,,,53,,,,,,,,,,,,,,315.8849999984959,,response,,,,99,,,,,,,Space,keypress(Space),,,,,,,,---- -- ----- -- ------ - ------- --- ----------<br>------------- ------ ------ ---- ---- ------- ----- -- ----<br>-------- ------- -- ---------- --- - --- ----- finds ----<br>---- --- --- ----- --- ---- ---- ------- ----- ---- -------<br>--- --- -- ----- -- --- ---- -- --- ---- -- ------ ------<br>--- ----- -- ----,291150.7999999989,291150.3999999985,290817.894,290822.7999999989,290834.515,291167.824,,26,finds
screen,html.Screen,2_1_0_1_27,2022-04-25T17:10:28.406Z,,,,,,,,,,,,,,,,,53,,,,,,,,,,,,,,262.57599999848753,,response,,,,99,,,,,,,Space,keypress(Space),,,,,,,,---- -- ----- -- ------ - ------- --- ----------<br>------------- ------ ------ ---- ---- ------- ----- -- ----<br>-------- ------- -- ---------- --- - --- ----- ----- that<br>---- --- --- ----- --- ---- ---- ------- ----- ---- -------<br>--- --- -- ----- -- --- ---- -- --- ---- -- ------ ------<br>--- ----- -- ----,291430.69999999925,291430.3999999985,291134.489,291150.8999999985,291167.824,291434.466,,27,that
screen,html.Screen,2_1_0_1_28,2022-04-25T17:10:28.719Z,,,,,,,,,,,,,,,,,53,,,,,,,,,,,,,,308.13399999961257,,response,,,,99,,,,,,,Space,keypress(Space),,,,,,,,---- -- ----- -- ------ - ------- --- ----------<br>------------- ------ ------ ---- ---- ------- ----- -- ----<br>-------- ------- -- ---------- --- - --- ----- ----- ----<br>it's --- --- ----- --- ---- ---- ------- ----- ---- -------<br>--- --- -- ----- -- --- ---- -- --- ---- -- ------ ------<br>--- ----- -- ----,291742.8999999985,291742.5999999996,291417.837,291430.7999999989,291434.466,291751.056,,28,it's
screen,html.Screen,2_1_0_1_29,2022-04-25T17:10:29.039Z,,,,,,,,,,,,,,,,,53,,,,,,,,,,,,,,311.54399999964517,,response,,,,99,,,,,,,Space,keypress(Space),,,,,,,,---- -- ----- -- ------ - ------- --- ----------<br>------------- ------ ------ ---- ---- ------- ----- -- ----<br>-------- ------- -- ---------- --- - --- ----- ----- ----<br>---- not --- ----- --- ---- ---- ------- ----- ---- -------<br>--- --- -- ----- -- --- ---- -- --- ---- -- ------ ------<br>--- ----- -- ----,292062.8999999985,292062.5999999996,291734.44,291743,291751.056,292067.728,,29,not
screen,html.Screen,2_1_0_1_30,2022-04-25T17:10:29.398Z,,,,,,,,,,,,,,,,,53,,,,,,,,,,,,,,354.5719999988796,,response,,,,99,,,,,,,Space,keypress(Space),,,,,,,,---- -- ----- -- ------ - ------- --- ----------<br>------------- ------ ------ ---- ---- ------- ----- -- ----<br>-------- ------- -- ---------- --- - --- ----- ----- ----<br>---- --- how ----- --- ---- ---- ------- ----- ---- -------<br>--- --- -- ----- -- --- ---- -- --- ---- -- ------ ------<br>--- ----- -- ----,292422.69999999925,292422.2999999989,292051.049,292063,292067.728,292434.337,,30,how
screen,html.Screen,2_1_0_1_31,2022-04-25T17:10:30.039Z,,,,,,,,,,,,,,,,,53,,,,,,,,,,,,,,628.2629999996279,,response,,,,99,,,,,,,Space,keypress(Space),,,,,,,,---- -- ----- -- ------ - ------- --- ----------<br>------------- ------ ------ ---- ---- ------- ----- -- ----<br>-------- ------- -- ---------- --- - --- ----- ----- ----<br>---- --- --- close --- ---- ---- ------- ----- ---- -------<br>--- --- -- ----- -- --- ---- -- --- ---- -- ------ ------<br>--- ----- -- ----,293062.8999999985,293062.5999999996,292417.702,292422.7999999989,292434.337,293067.625,,31,close
screen,html.Screen,2_1_0_1_32,2022-04-25T17:10:30.343Z,,,,,,,,,,,,,,,,,53,,,,,,,,,,,,,,299.1749999988824,,response,,,,99,,,,,,,Space,keypress(Space),,,,,,,,---- -- ----- -- ------ - ------- --- ----------<br>------------- ------ ------ ---- ---- ------- ----- -- ----<br>-------- ------- -- ---------- --- - --- ----- ----- ----<br>---- --- --- ----- you ---- ---- ------- ----- ---- -------<br>--- --- -- ----- -- --- ---- -- --- ---- -- ------ ------<br>--- ----- -- ----,293367.0999999996,293366.7999999989,293050.978,293063,293067.625,293367.567,,32,you
screen,html.Screen,2_1_0_1_33,2022-04-25T17:10:30.695Z,,,,,,,,,,,,,,,,,53,,,,,,,,,,,,,,350.9330000000191,,response,,,,99,,,,,,,Space,keypress(Space),,,,,,,,---- -- ----- -- ------ - ------- --- ----------<br>------------- ------ ------ ---- ---- ------- ----- -- ----<br>-------- ------- -- ---------- --- - --- ----- ----- ----<br>---- --- --- ----- --- feel ---- ------- ----- ---- -------<br>--- --- -- ----- -- --- ---- -- --- ---- -- ------ ------<br>--- ----- -- ----,293718.7999999989,293718.5,293350.943,293367.19999999925,293367.567,293734.181,,33,feel
screen,html.Screen,2_1_0_1_34,2022-04-25T17:10:31.022Z,,,,,,,,,,,,,,,,,53,,,,,,,,,,,,,,312.2189999985276,,response,,,,99,,,,,,,Space,keypress(Space),,,,,,,,---- -- ----- -- ------ - ------- --- ----------<br>------------- ------ ------ ---- ---- ------- ----- -- ----<br>-------- ------- -- ---------- --- - --- ----- ----- ----<br>---- --- --- ----- --- ---- that ------- ----- ---- -------<br>--- --- -- ----- -- --- ---- -- --- ---- -- ------ ------<br>--- ----- -- ----,294046.69999999925,294046.3999999985,293717.547,293718.8999999985,293734.181,294050.826,,34,that
screen,html.Screen,2_1_0_1_35,2022-04-25T17:10:31.335Z,,,,,,,,,,,,,,,,,53,,,,,,,,,,,,,,307.67399999999907,,response,,,,99,,,,,,,Space,keypress(Space),,,,,,,,---- -- ----- -- ------ - ------- --- ----------<br>------------- ------ ------ ---- ---- ------- ----- -- ----<br>-------- ------- -- ---------- --- - --- ----- ----- ----<br>---- --- --- ----- --- ---- ---- matters ----- ---- -------<br>--- --- -- ----- -- --- ---- -- --- ---- -- ------ ------<br>--- ----- -- ----,294358.7999999989,294358.5,294034.182,294046.7999999989,294050.826,294367.468,,35,matters
screen,html.Screen,2_1_0_1_36,2022-04-25T17:10:31.615Z,,,,,,,,,,,,,,,,,53,,,,,,,,,,,,,,271.0320000000065,,response,,,,99,,,,,,,Space,keypress(Space),,,,,,,,"---- -- ----- -- ------ - ------- --- ----------<br>------------- ------ ------ ---- ---- ------- ----- -- ----<br>-------- ------- -- ---------- --- - --- ----- ----- ----<br>---- --- --- ----- --- ---- ---- ------- most, ---- -------<br>--- --- -- ----- -- --- ---- -- --- ---- -- ------ ------<br>--- ----- -- ----",294638.8999999985,294638.5,294350.803,294358.8999999985,294367.468,294650.756,,36,"most,"
screen,html.Screen,2_1_0_1_37,2022-04-25T17:10:31.910Z,,,,,,,,,,,,,,,,,53,,,,,,,,,,,,,,283.54399999888847,,response,,,,99,,,,,,,Space,keypress(Space),,,,,,,,---- -- ----- -- ------ - ------- --- ----------<br>------------- ------ ------ ---- ---- ------- ----- -- ----<br>-------- ------- -- ---------- --- - --- ----- ----- ----<br>---- --- --- ----- --- ---- ---- ------- ----- it's -------<br>--- --- -- ----- -- --- ---- -- --- ---- -- ------ ------<br>--- ----- -- ----,294934.69999999925,294934.2999999989,294634.065,294639,294650.756,294950.722,,37,it's
screen,html.Screen,2_1_0_1_38,2022-04-25T17:10:32.287Z,,,,,,,,,,,,,,,,,53,,,,,,,,,,,,,,359.8779999996186,,response,,,,99,,,,,,,Space,keypress(Space),,,,,,,,---- -- ----- -- ------ - ------- --- ----------<br>------------- ------ ------ ---- ---- ------- ----- -- ----<br>-------- ------- -- ---------- --- - --- ----- ----- ----<br>---- --- --- ----- --- ---- ---- ------- ----- ---- whether<br>--- --- -- ----- -- --- ---- -- --- ---- -- ------ ------<br>--- ----- -- ----,295311,295310.5999999996,294934.066,294934.7999999989,294950.722,295317.315,,38,whether
screen,html.Screen,2_1_0_1_39,2022-04-25T17:10:32.583Z,,,,,,,,,,,,,,,,,53,,,,,,,,,,,,,,289.08499999850756,,response,,,,99,,,,,,,Space,keypress(Space),,,,,,,,---- -- ----- -- ------ - ------- --- ----------<br>------------- ------ ------ ---- ---- ------- ----- -- ----<br>-------- ------- -- ---------- --- - --- ----- ----- ----<br>---- --- --- ----- --- ---- ---- ------- ----- ---- -------<br>you --- -- ----- -- --- ---- -- --- ---- -- ------ ------<br>--- ----- -- ----,295606.7999999989,295606.3999999985,295300.694,295311.0999999996,295317.315,295617.313,,39,you
screen,html.Screen,2_1_0_1_40,2022-04-25T17:10:32.894Z,,,,,,,,,,,,,,,,,53,,,,,,,,,,,,,,301.08699999848614,,response,,,,99,,,,,,,Space,keypress(Space),,,,,,,,---- -- ----- -- ------ - ------- --- ----------<br>------------- ------ ------ ---- ---- ------- ----- -- ----<br>-------- ------- -- ---------- --- - --- ----- ----- ----<br>---- --- --- ----- --- ---- ---- ------- ----- ---- -------<br>--- are -- ----- -- --- ---- -- --- ---- -- ------ ------<br>--- ----- -- ----,295918.69999999925,295918.3999999985,295600.653,295606.7999999989,295617.313,295933.937,,40,are
screen,html.Screen,2_1_0_1_41,2022-04-25T17:10:33.174Z,,,,,,,,,,,,,,,,,53,,,,,,,,,,,,,,264.46299999853363,,response,,,,99,,,,,,,Space,keypress(Space),,,,,,,,---- -- ----- -- ------ - ------- --- ----------<br>------------- ------ ------ ---- ---- ------- ----- -- ----<br>-------- ------- -- ---------- --- - --- ----- ----- ----<br>---- --- --- ----- --- ---- ---- ------- ----- ---- -------<br>--- --- as ----- -- --- ---- -- --- ---- -- ------ ------<br>--- ----- -- ----,296198.5999999996,296198.3999999985,295917.264,295918.7999999989,295933.937,296200.584,,41,as
screen,html.Screen,2_1_0_1_42,2022-04-25T17:10:33.470Z,,,,,,,,,,,,,,,,,53,,,,,,,,,,,,,,293.8159999985364,,response,,,,99,,,,,,,Space,keypress(Space),,,,,,,,---- -- ----- -- ------ - ------- --- ----------<br>------------- ------ ------ ---- ---- ------- ----- -- ----<br>-------- ------- -- ---------- --- - --- ----- ----- ----<br>---- --- --- ----- --- ---- ---- ------- ----- ---- -------<br>--- --- -- close -- --- ---- -- --- ---- -- ------ ------<br>--- ----- -- ----,296494.69999999925,296494.3999999985,296183.9,296198.69999999925,296200.584,296500.535,,42,close
screen,html.Screen,2_1_0_1_43,2022-04-25T17:10:33.775Z,,,,,,,,,,,,,,,,,53,,,,,,,,,,,,,,298.0649999996531,,response,,,,99,,,,,,,Space,keypress(Space),,,,,,,,---- -- ----- -- ------ - ------- --- ----------<br>------------- ------ ------ ---- ---- ------- ----- -- ----<br>-------- ------- -- ---------- --- - --- ----- ----- ----<br>---- --- --- ----- --- ---- ---- ------- ----- ---- -------<br>--- --- -- ----- as --- ---- -- --- ---- -- ------ ------<br>--- ----- -- ----,296798.8999999985,296798.5999999996,296483.894,296494.69999999925,296500.535,296800.512,,43,as
screen,html.Screen,2_1_0_1_44,2022-04-25T17:10:34.102Z,,,,,,,,,,,,,,,,,53,,,,,,,,,,,,,,325.887999998522,,response,,,,99,,,,,,,Space,keypress(Space),,,,,,,,---- -- ----- -- ------ - ------- --- ----------<br>------------- ------ ------ ---- ---- ------- ----- -- ----<br>-------- ------- -- ---------- --- - --- ----- ----- ----<br>---- --- --- ----- --- ---- ---- ------- ----- ---- -------<br>--- --- -- ----- -- you ---- -- --- ---- -- ------ ------<br>--- ----- -- ----,297126.7999999989,297126.3999999985,296783.854,296799,296800.512,297133.812,,44,you
screen,html.Screen,2_1_0_1_45,2022-04-25T17:10:34.415Z,,,,,,,,,,,,,,,,,53,,,,,,,,,,,,,,304.58799999853363,,response,,,,99,,,,,,,Space,keypress(Space),,,,,,,,---- -- ----- -- ------ - ------- --- ----------<br>------------- ------ ------ ---- ---- ------- ----- -- ----<br>-------- ------- -- ---------- --- - --- ----- ----- ----<br>---- --- --- ----- --- ---- ---- ------- ----- ---- -------<br>--- --- -- ----- -- --- want -- --- ---- -- ------ ------<br>--- ----- -- ----,297438.7999999989,297438.3999999985,297117.169,297126.7999999989,297133.812,297450.435,,45,want
screen,html.Screen,2_1_0_1_46,2022-04-25T17:10:34.758Z,,,,,,,,,,,,,,,,,53,,,,,,,,,,,,,,331.9649999985122,,response,,,,99,,,,,,,Space,keypress(Space),,,,,,,,---- -- ----- -- ------ - ------- --- ----------<br>------------- ------ ------ ---- ---- ------- ----- -- ----<br>-------- ------- -- ---------- --- - --- ----- ----- ----<br>---- --- --- ----- --- ---- ---- ------- ----- ---- -------<br>--- --- -- ----- -- --- ---- to --- ---- -- ------ ------<br>--- ----- -- ----,297782.69999999925,297782.3999999985,297433.782,297438.8999999985,297450.435,297801.298,,46,to
screen,html.Screen,2_1_0_1_47,2022-04-25T17:10:35.102Z,,,,,,,,,,,,,,,,,53,,,,,,,,,,,,,,325.1019999985001,,response,,,,99,,,,,,,Space,keypress(Space),,,,,,,,"---- -- ----- -- ------ - ------- --- ----------<br>------------- ------ ------ ---- ---- ------- ----- -- ----<br>-------- ------- -- ---------- --- - --- ----- ----- ----<br>---- --- --- ----- --- ---- ---- ------- ----- ---- -------<br>--- --- -- ----- -- --- ---- -- be, ---- -- ------ ------<br>--- ----- -- ----",298126.69999999925,298126.3999999985,297767.072,297782.7999999989,297801.298,298133.678,,47,"be,"
screen,html.Screen,2_1_0_1_48,2022-04-25T17:10:35.439Z,,,,,,,,,,,,,,,,,53,,,,,,,,,,,,,,328.72199999849545,,response,,,,99,,,,,,,Space,keypress(Space),,,,,,,,---- -- ----- -- ------ - ------- --- ----------<br>------------- ------ ------ ---- ---- ------- ----- -- ----<br>-------- ------- -- ---------- --- - --- ----- ----- ----<br>---- --- --- ----- --- ---- ---- ------- ----- ---- -------<br>--- --- -- ----- -- --- ---- -- --- even -- ------ ------<br>--- ----- -- ----,298462.7999999989,298462.3999999985,298117.042,298126.7999999989,298133.678,298466.932,,48,even
screen,html.Screen,2_1_0_1_49,2022-04-25T17:10:35.774Z,,,,,,,,,,,,,,,,,53,,,,,,,,,,,,,,331.3679999989108,,response,,,,99,,,,,,,Space,keypress(Space),,,,,,,,---- -- ----- -- ------ - ------- --- ----------<br>------------- ------ ------ ---- ---- ------- ----- -- ----<br>-------- ------- -- ---------- --- - --- ----- ----- ----<br>---- --- --- ----- --- ---- ---- ------- ----- ---- -------<br>--- --- -- ----- -- --- ---- -- --- ---- if ------ ------<br>--- ----- -- ----,298798.69999999925,298798.2999999989,298450.322,298462.7999999989,298466.932,298800.265,,49,if
screen,html.Screen,2_1_0_1_50,2022-04-25T17:10:36.055Z,,,,,,,,,,,,,,,,,53,,,,,,,,,,,,,,278.3349999996135,,response,,,,99,,,,,,,Space,keypress(Space),,,,,,,,---- -- ----- -- ------ - ------- --- ----------<br>------------- ------ ------ ---- ---- ------- ----- -- ----<br>-------- ------- -- ---------- --- - --- ----- ----- ----<br>---- --- --- ----- --- ---- ---- ------- ----- ---- -------<br>--- --- -- ----- -- --- ---- -- --- ---- -- that's ------<br>--- ----- -- ----,299078.8999999985,299078.5999999996,298783.602,298798.7999999989,298800.265,299083.579,,50,that's
screen,html.Screen,2_1_0_1_51,2022-04-25T17:10:36.447Z,,,,,,,,,,,,,,,,,53,,,,,,,,,,,,,,387.02099999960046,,response,,,,99,,,,,,,Space,keypress(Space),,,,,,,,---- -- ----- -- ------ - ------- --- ----------<br>------------- ------ ------ ---- ---- ------- ----- -- ----<br>-------- ------- -- ---------- --- - --- ----- ----- ----<br>---- --- --- ----- --- ---- ---- ------- ----- ---- -------<br>--- --- -- ----- -- --- ---- -- --- ---- -- ------ really<br>--- ----- -- ----,299470.8999999985,299470.5999999996,299066.928,299078.8999999985,299083.579,299483.527,,51,really
screen,html.Screen,2_1_0_1_52,2022-04-25T17:10:41.351Z,,,,,,,,,,,,,,,,,53,,,,,,,,,,,,,,4890.872999998508,,response,,,,99,,,,,,,Space,keypress(Space),,,,,,,,---- -- ----- -- ------ - ------- --- ----------<br>------------- ------ ------ ---- ---- ------- ----- -- ----<br>-------- ------- -- ---------- --- - --- ----- ----- ----<br>---- --- --- ----- --- ---- ---- ------- ----- ---- -------<br>--- --- -- ----- -- --- ---- -- --- ---- -- ------ ------<br>not ----- -- ----,304374.7999999989,304374.3999999985,299466.846,299471,299483.527,304382.972,,52,not
screen,html.Screen,2_1_0_1_53,2022-04-25T17:10:41.783Z,,,,,,,,,,,,,,,,,53,,,,,,,,,,,,,,423.92799999850104,,response,,,,99,,,,,,,Space,keypress(Space),,,,,,,,---- -- ----- -- ------ - ------- --- ----------<br>------------- ------ ------ ---- ---- ------- ----- -- ----<br>-------- ------- -- ---------- --- - --- ----- ----- ----<br>---- --- --- ----- --- ---- ---- ------- ----- ---- -------<br>--- --- -- ----- -- --- ---- -- --- ---- -- ------ ------<br>--- close -- ----,304807.19999999925,304806.8999999985,304366.412,304374.7999999989,304382.972,304832.865,,53,close
screen,html.Screen,2_1_0_1_54,2022-04-25T17:10:42.143Z,,,,,,,,,,,,,,,,,53,,,,,,,,,,,,,,333.6350000000093,,response,,,,99,,,,,,,Space,keypress(Space),,,,,,,,---- -- ----- -- ------ - ------- --- ----------<br>------------- ------ ------ ---- ---- ------- ----- -- ----<br>-------- ------- -- ---------- --- - --- ----- ----- ----<br>---- --- --- ----- --- ---- ---- ------- ----- ---- -------<br>--- --- -- ----- -- --- ---- -- --- ---- -- ------ ------<br>--- ----- at ----,305166.7999999989,305166.5,304817.563,304807.2999999989,304832.865,305182.823,,54,at
screen,html.Screen,2_1_0_1_55,2022-04-25T17:10:42.631Z,,,,,,,,,,,,,,,,,53,,,,,,,,,,,,,,472.3769999992801,,response,,,,99,,,,,,,Space,keypress(Space),,,,,,,,---- -- ----- -- ------ - ------- --- ----------<br>------------- ------ ------ ---- ---- ------- ----- -- ----<br>-------- ------- -- ---------- --- - --- ----- ----- ----<br>---- --- --- ----- --- ---- ---- ------- ----- ---- -------<br>--- --- -- ----- -- --- ---- -- --- ---- -- ------ ------<br>--- ----- -- all.,305655.3999999985,305655.19999999925,305166.206,305166.8999999985,305182.823,305682.803,,55,all.
Item 99,flow.Loop,2_1_0_1,2022-04-25T17:10:42.631Z,,,,,,,,,,,,,,,,,,,,,,,,,,,,,,,29968.901999999245,,completion,,,,,B,,,,,,,,,,,silence,,,,,305655.5999999996,305655.19999999925,275669.588,275669.8999999985,275686.298,305682.803,,,
Question 1,html.Screen,2_1_0_2,2022-04-25T17:10:52.198Z,,,,,,,,,,,,,,,,,,,,,,,,,,,,true,FALSE,,9539.296999999613,,response,,,,99,B,,,,,,FALSE,click #choice-2,,,,silence,,,,,315222.69999999925,315222.0999999996,305666.126,305655.69999999925,305682.803,315231.718,,,
Question 2,html.Screen,2_1_0_3,2022-04-25T17:11:22.686Z,,,,,,,,,,,,,,,,,,,,,,,,,,,,true,TRUE,,30478.48199999926,,response,,,,99,B,,,,,,TRUE,click #choice-1,,,,silence,,,,,345710.69999999925,345710.19999999925,315214.986,315222.69999999925,315231.718,345711.467,,,
Item 99,flow.Sequence,2_1_0,2022-04-25T17:11:22.686Z,,,,,,,,,,,,,,,,,,,,,,,,,,,,,,,80022.76199999923,,completion,,,,,,,,,,,,,,,,,,,,,345710.7999999989,345710.19999999925,265670.788,265679.0999999996,265687.438,345711.467,,,
Holding screen,html.Screen,2_1_1_0,2022-04-25T17:11:32.669Z,,,,,,,,,,,,,,,,,,,,,,,,,,,,,,,9998.847000000009,,timeout,,,,,,,,,,,,,,,,,,,,,355693.8999999985,355693.613,345694.808,345711.0999999996,345711.467,355710.314,,,
screen,html.Screen,2_1_1_1_0,2022-04-25T17:11:33.230Z,,,,,,,,,,,,,,,,,54,,,,,,,,,,,,,,544.0859999984968,,response,,,,100,,,,,,,Space,keypress(Space),,,,,,,,At --- ---- --- ------ ----- ------- ---- -- --- ------- --<br>------- ---------- ------ -- ----- -- ----- -- ---- ------<br>--- ----- --- --- ------ -------- ----- --- ------ ----- --<br>----- ----- ---------- --- --- ------ ------ ---- -- ------<br>------- --- ------ ----- --- ---- ------- -- ---- --- --<br>------- ------,356254.69999999925,356254.3999999985,355693.613,355694,355710.314,356260.228,,0,At
screen,html.Screen,2_1_1_1_1,2022-04-25T17:11:33.550Z,,,,,,,,,,,,,,,,,54,,,,,,,,,,,,,,314.0719999988796,,response,,,,100,,,,,,,Space,keypress(Space),,,,,,,,-- the ---- --- ------ ----- ------- ---- -- --- ------- --<br>------- ---------- ------ -- ----- -- ----- -- ---- ------<br>--- ----- --- --- ------ -------- ----- --- ------ ----- --<br>----- ----- ---------- --- --- ------ ------ ---- -- ------<br>------- --- ------ ----- --- ---- ------- -- ---- --- --<br>------- ------,356574.5999999996,356574.2999999989,356243.62,356254.69999999925,356260.228,356576.869,,1,the
screen,html.Screen,2_1_1_1_2,2022-04-25T17:11:33.814Z,,,,,,,,,,,,,,,,,54,,,,,,,,,,,,,,261.53099999850383,,response,,,,100,,,,,,,Space,keypress(Space),,,,,,,,-- --- time --- ------ ----- ------- ---- -- --- ------- --<br>------- ---------- ------ -- ----- -- ----- -- ---- ------<br>--- ----- --- --- ------ -------- ----- --- ------ ----- --<br>----- ----- ---------- --- --- ------ ------ ---- -- ------<br>------- --- ------ ----- --- ---- ------- -- ---- --- --<br>------- ------,356838.5999999996,356838.3999999985,356560.224,356575.0999999996,356576.869,356843.488,,2,time
screen,html.Screen,2_1_1_1_3,2022-04-25T17:11:34.118Z,,,,,,,,,,,,,,,,,54,,,,,,,,,,,,,,298.8119999988703,,response,,,,100,,,,,,,Space,keypress(Space),,,,,,,,-- --- ---- the ------ ----- ------- ---- -- --- ------- --<br>------- ---------- ------ -- ----- -- ----- -- ---- ------<br>--- ----- --- --- ------ -------- ----- --- ------ ----- --<br>----- ----- ---------- --- --- ------ ------ ---- -- ------<br>------- --- ------ ----- --- ---- ------- -- ---- --- --<br>------- ------,357142.5999999996,357142.2999999989,356826.872,356838.69999999925,356843.488,357160.546,,3,the
screen,html.Screen,2_1_1_1_4,2022-04-25T17:11:34.414Z,,,,,,,,,,,,,,,,,54,,,,,,,,,,,,,,278.0539999996545,,response,,,,100,,,,,,,Space,keypress(Space),,,,,,,,-- --- ---- --- French ----- ------- ---- -- --- ------- --<br>------- ---------- ------ -- ----- -- ----- -- ---- ------<br>--- ----- --- --- ------ -------- ----- --- ------ ----- --<br>----- ----- ---------- --- --- ------ ------ ---- -- ------<br>------- --- ------ ----- --- ---- ------- -- ---- --- --<br>------- ------,357438.8999999985,357438.5999999996,357126.827,357142.69999999925,357160.546,357443.425,,4,French
screen,html.Screen,2_1_1_1_5,2022-04-25T17:11:34.710Z,,,,,,,,,,,,,,,,,54,,,,,,,,,,,,,,291.07500000001164,,response,,,,100,,,,,,,Space,keypress(Space),,,,,,,,-- --- ---- --- ------ crown ------- ---- -- --- ------- --<br>------- ---------- ------ -- ----- -- ----- -- ---- ------<br>--- ----- --- --- ------ -------- ----- --- ------ ----- --<br>----- ----- ---------- --- --- ------ ------ ---- -- ------<br>------- --- ------ ----- --- ---- ------- -- ---- --- --<br>------- ------,357734.8999999985,357734.5,357426.801,357439.0999999996,357443.425,357743.407,,5,crown
screen,html.Screen,2_1_1_1_6,2022-04-25T17:11:35.030Z,,,,,,,,,,,,,,,,,54,,,,,,,,,,,,,,310.99299999850336,,response,,,,100,,,,,,,Space,keypress(Space),,,,,,,,-- --- ---- --- ------ ----- secured ---- -- --- ------- --<br>------- ---------- ------ -- ----- -- ----- -- ---- ------<br>--- ----- --- --- ------ -------- ----- --- ------ ----- --<br>----- ----- ---------- --- --- ------ ------ ---- -- ------<br>------- --- ------ ----- --- ---- ------- -- ---- --- --<br>------- ------,358054.69999999925,358054.3999999985,357726.769,357734.8999999985,357743.407,358060.051,,6,secured
screen,html.Screen,2_1_1_1_7,2022-04-25T17:11:35.774Z,,,,,,,,,,,,,,,,,54,,,,,,,,,,,,,,738.4490000000224,,response,,,,100,,,,,,,Space,keypress(Space),,,,,,,,-- --- ---- --- ------ ----- ------- much -- --- ------- --<br>------- ---------- ------ -- ----- -- ----- -- ---- ------<br>--- ----- --- --- ------ -------- ----- --- ------ ----- --<br>----- ----- ---------- --- --- ------ ------ ---- -- ------<br>------- --- ------ ----- --- ---- ------- -- ---- --- --<br>------- ------,358798.8999999985,358798.5,358043.353,358054.7999999989,358060.051,358809.953,,7,much
screen,html.Screen,2_1_1_1_8,2022-04-25T17:11:36.118Z,,,,,,,,,,,,,,,,,54,,,,,,,,,,,,,,332.4469999985304,,response,,,,100,,,,,,,Space,keypress(Space),,,,,,,,-- --- ---- --- ------ ----- ------- ---- of --- ------- --<br>------- ---------- ------ -- ----- -- ----- -- ---- ------<br>--- ----- --- --- ------ -------- ----- --- ------ ----- --<br>----- ----- ---------- --- --- ------ ------ ---- -- ------<br>------- --- ------ ----- --- ---- ------- -- ---- --- --<br>------- ------,359142.7999999989,359142.3999999985,358793.334,358798.8999999985,358809.953,359161.141,,8,of
screen,html.Screen,2_1_1_1_9,2022-04-25T17:11:36.398Z,,,,,,,,,,,,,,,,,54,,,,,,,,,,,,,,261.0589999992517,,response,,,,100,,,,,,,Space,keypress(Space),,,,,,,,-- --- ---- --- ------ ----- ------- ---- -- its ------- --<br>------- ---------- ------ -- ----- -- ----- -- ---- ------<br>--- ----- --- --- ------ -------- ----- --- ------ ----- --<br>----- ----- ---------- --- --- ------ ------ ---- -- ------<br>------- --- ------ ----- --- ---- ------- -- ---- --- --<br>------- ------,359422.5999999996,359422.19999999925,359126.599,359142.7999999989,359161.141,359426.523,,9,its
screen,html.Screen,2_1_1_1_10,2022-04-25T17:11:36.646Z,,,,,,,,,,,,,,,,,54,,,,,,,,,,,,,,243.77699999889592,,response,,,,100,,,,,,,Space,keypress(Space),,,,,,,,-- --- ---- --- ------ ----- ------- ---- -- --- revenue --<br>------- ---------- ------ -- ----- -- ----- -- ---- ------<br>--- ----- --- --- ------ -------- ----- --- ------ ----- --<br>----- ----- ---------- --- --- ------ ------ ---- -- ------<br>------- --- ------ ----- --- ---- ------- -- ---- --- --<br>------- ------,359670.5999999996,359670.2999999989,359409.915,359422.69999999925,359426.523,359676.483,,10,revenue
screen,html.Screen,2_1_1_1_11,2022-04-25T17:11:36.982Z,,,,,,,,,,,,,,,,,54,,,,,,,,,,,,,,330.11699999962,,response,,,,100,,,,,,,Space,keypress(Space),,,,,,,,-- --- ---- --- ------ ----- ------- ---- -- --- ------- by<br>------- ---------- ------ -- ----- -- ----- -- ---- ------<br>--- ----- --- --- ------ -------- ----- --- ------ ----- --<br>----- ----- ---------- --- --- ------ ------ ---- -- ------<br>------- --- ------ ----- --- ---- ------- -- ---- --- --<br>------- ------,360006.8999999985,360006.5999999996,359659.796,359670.69999999925,359676.483,360009.853,,11,by
screen,html.Screen,2_1_1_1_12,2022-04-25T17:11:37.302Z,,,,,,,,,,,,,,,,,54,,,,,,,,,,,,,,316.4469999988796,,response,,,,100,,,,,,,Space,keypress(Space),,,,,,,,-- --- ---- --- ------ ----- ------- ---- -- --- ------- --<br>issuing ---------- ------ -- ----- -- ----- -- ---- ------<br>--- ----- --- --- ------ -------- ----- --- ------ ----- --<br>----- ----- ---------- --- --- ------ ------ ---- -- ------<br>------- --- ------ ----- --- ---- ------- -- ---- --- --<br>------- ------,360326.5999999996,360326.2999999989,359993.167,360007,360009.853,360343.117,,12,issuing
screen,html.Screen,2_1_1_1_13,2022-04-25T17:11:38.830Z,,,,,,,,,,,,,,,,,54,,,,,,,,,,,,,,1511.2829999984824,,response,,,,100,,,,,,,Space,keypress(Space),,,,,,,,-- --- ---- --- ------ ----- ------- ---- -- --- ------- --<br>------- government ------ -- ----- -- ----- -- ---- ------<br>--- ----- --- --- ------ -------- ----- --- ------ ----- --<br>----- ----- ---------- --- --- ------ ------ ---- -- ------<br>------- --- ------ ----- --- ---- ------- -- ---- --- --<br>------- ------,361854.69999999925,361854.3999999985,360326.465,360326.69999999925,360343.117,361859.601,,13,government
screen,html.Screen,2_1_1_1_14,2022-04-25T17:11:39.214Z,,,,,,,,,,,,,,,,,54,,,,,,,,,,,,,,378.6989999988582,,response,,,,100,,,,,,,Space,keypress(Space),,,,,,,,-- --- ---- --- ------ ----- ------- ---- -- --- ------- --<br>------- ---------- bonds. -- ----- -- ----- -- ---- ------<br>--- ----- --- --- ------ -------- ----- --- ------ ----- --<br>----- ----- ---------- --- --- ------ ------ ---- -- ------<br>------- --- ------ ----- --- ---- ------- -- ---- --- --<br>------- ------,362238.5999999996,362238.2999999989,361843.057,361854.69999999925,361859.601,362242.892,,14,bonds.
screen,html.Screen,2_1_1_1_15,2022-04-25T17:11:39.558Z,,,,,,,,,,,,,,,,,54,,,,,,,,,,,,,,339.60800000000745,,response,,,,100,,,,,,,Space,keypress(Space),,,,,,,,-- --- ---- --- ------ ----- ------- ---- -- --- ------- --<br>------- ---------- ------ In ----- -- ----- -- ---- ------<br>--- ----- --- --- ------ -------- ----- --- ------ ----- --<br>----- ----- ---------- --- --- ------ ------ ---- -- ------<br>------- --- ------ ----- --- ---- ------- -- ---- --- --<br>------- ------,362582.8999999985,362582.5,362226.216,362238.69999999925,362242.892,362592.844,,15,In
screen,html.Screen,2_1_1_1_16,2022-04-25T17:11:39.854Z,,,,,,,,,,,,,,,,,54,,,,,,,,,,,,,,285.7559999996447,,response,,,,100,,,,,,,Space,keypress(Space),,,,,,,,"-- --- ---- --- ------ ----- ------- ---- -- --- ------- --<br>------- ---------- ------ -- 1727, -- ----- -- ---- ------<br>--- ----- --- --- ------ -------- ----- --- ------ ----- --<br>----- ----- ---------- --- --- ------ ------ ---- -- ------<br>------- --- ------ ----- --- ---- ------- -- ---- --- --<br>------- ------",362878.8999999985,362878.5999999996,362576.161,362583,362592.844,362892.814,,16,"1727,"
screen,html.Screen,2_1_1_1_17,2022-04-25T17:11:40.598Z,,,,,,,,,,,,,,,,,54,,,,,,,,,,,,,,729.4859999988694,,response,,,,100,,,,,,,Space,keypress(Space),,,,,,,,-- --- ---- --- ------ ----- ------- ---- -- --- ------- --<br>------- ---------- ------ -- ----- in ----- -- ---- ------<br>--- ----- --- --- ------ -------- ----- --- ------ ----- --<br>----- ----- ---------- --- --- ------ ------ ---- -- ------<br>------- --- ------ ----- --- ---- ------- -- ---- --- --<br>------- ------,363622.69999999925,363622.2999999989,362876.17,362878.8999999985,362892.814,363626.03,,17,in
screen,html.Screen,2_1_1_1_18,2022-04-25T17:11:41.094Z,,,,,,,,,,,,,,,,,54,,,,,,,,,,,,,,492.36999999848194,,response,,,,100,,,,,,,Space,keypress(Space),,,,,,,,-- --- ---- --- ------ ----- ------- ---- -- --- ------- --<br>------- ---------- ------ -- ----- -- order -- ---- ------<br>--- ----- --- --- ------ -------- ----- --- ------ ----- --<br>----- ----- ---------- --- --- ------ ------ ---- -- ------<br>------- --- ------ ----- --- ---- ------- -- ---- --- --<br>------- ------,364118.69999999925,364118.3999999985,363609.414,363622.7999999989,363626.03,364125.981,,18,order
screen,html.Screen,2_1_1_1_19,2022-04-25T17:11:41.358Z,,,,,,,,,,,,,,,,,54,,,,,,,,,,,,,,256.418999998481,,response,,,,100,,,,,,,Space,keypress(Space),,,,,,,,-- --- ---- --- ------ ----- ------- ---- -- --- ------- --<br>------- ---------- ------ -- ----- -- ----- to ---- ------<br>--- ----- --- --- ------ -------- ----- --- ------ ----- --<br>----- ----- ---------- --- --- ------ ------ ---- -- ------<br>------- --- ------ ----- --- ---- ------- -- ---- --- --<br>------- ------,364382.69999999925,364382.3999999985,364109.365,364118.69999999925,364125.981,364392.596,,19,to
screen,html.Screen,2_1_1_1_20,2022-04-25T17:11:41.630Z,,,,,,,,,,,,,,,,,54,,,,,,,,,,,,,,261.8039999984903,,response,,,,100,,,,,,,Space,keypress(Space),,,,,,,,-- --- ---- --- ------ ----- ------- ---- -- --- ------- --<br>------- ---------- ------ -- ----- -- ----- -- save ------<br>--- ----- --- --- ------ -------- ----- --- ------ ----- --<br>----- ----- ---------- --- --- ------ ------ ---- -- ------<br>------- --- ------ ----- --- ---- ------- -- ---- --- --<br>------- ------,364654.7999999989,364654.3999999985,364375.949,364382.7999999989,364392.596,364659.275,,20,save
screen,html.Screen,2_1_1_1_21,2022-04-25T17:11:41.974Z,,,,,,,,,,,,,,,,,54,,,,,,,,,,,,,,339.1249999984866,,response,,,,100,,,,,,,Space,keypress(Space),,,,,,,,"-- --- ---- --- ------ ----- ------- ---- -- --- ------- --<br>------- ---------- ------ -- ----- -- ----- -- ---- money,<br>--- ----- --- --- ------ -------- ----- --- ------ ----- --<br>----- ----- ---------- --- --- ------ ------ ---- -- ------<br>------- --- ------ ----- --- ---- ------- -- ---- --- --<br>------- ------",364998.7999999989,364998.3999999985,364642.602,364654.8999999985,364659.275,365009.235,,21,"money,"
screen,html.Screen,2_1_1_1_22,2022-04-25T17:11:42.334Z,,,,,,,,,,,,,,,,,54,,,,,,,,,,,,,,349.0649999988964,,response,,,,100,,,,,,,Space,keypress(Space),,,,,,,,-- --- ---- --- ------ ----- ------- ---- -- --- ------- --<br>------- ---------- ------ -- ----- -- ----- -- ---- ------<br>the ----- --- --- ------ -------- ----- --- ------ ----- --<br>----- ----- ---------- --- --- ------ ------ ---- -- ------<br>------- --- ------ ----- --- ---- ------- -- ---- --- --<br>------- ------,365358.5999999996,365358.2999999989,364992.583,364998.8999999985,365009.235,365359.214,,22,the
screen,html.Screen,2_1_1_1_23,2022-04-25T17:11:42.678Z,,,,,,,,,,,,,,,,,54,,,,,,,,,,,,,,343.18599999853177,,response,,,,100,,,,,,,Space,keypress(Space),,,,,,,,-- --- ---- --- ------ ----- ------- ---- -- --- ------- --<br>------- ---------- ------ -- ----- -- ----- -- ---- ------<br>--- state --- --- ------ -------- ----- --- ------ ----- --<br>----- ----- ---------- --- --- ------ ------ ---- -- ------<br>------- --- ------ ----- --- ---- ------- -- ---- --- --<br>------- ------,365702.69999999925,365702.3999999985,365342.525,365358.69999999925,365359.214,365709.101,,23,state
screen,html.Screen,2_1_1_1_24,2022-04-25T17:11:43.054Z,,,,,,,,,,,,,,,,,54,,,,,,,,,,,,,,369.29899999848567,,response,,,,100,,,,,,,Space,keypress(Space),,,,,,,,-- --- ---- --- ------ ----- ------- ---- -- --- ------- --<br>------- ---------- ------ -- ----- -- ----- -- ---- ------<br>--- ----- cut --- ------ -------- ----- --- ------ ----- --<br>----- ----- ---------- --- --- ------ ------ ---- -- ------<br>------- --- ------ ----- --- ---- ------- -- ---- --- --<br>------- ------,366078.69999999925,366078.3999999985,365692.514,365702.7999999989,365709.101,366092.44,,24,cut
screen,html.Screen,2_1_1_1_25,2022-04-25T17:11:43.358Z,,,,,,,,,,,,,,,,,54,,,,,,,,,,,,,,290.15999999962514,,response,,,,100,,,,,,,Space,keypress(Space),,,,,,,,-- --- ---- --- ------ ----- ------- ---- -- --- ------- --<br>------- ---------- ------ -- ----- -- ----- -- ---- ------<br>--- ----- --- the ------ -------- ----- --- ------ ----- --<br>----- ----- ---------- --- --- ------ ------ ---- -- ------<br>------- --- ------ ----- --- ---- ------- -- ---- --- --<br>------- ------,366383,366382.5999999996,366075.804,366078.7999999989,366092.44,366392.403,,25,the
screen,html.Screen,2_1_1_1_26,2022-04-25T17:11:43.694Z,,,,,,,,,,,,,,,,,54,,,,,,,,,,,,,,325.89699999889126,,response,,,,100,,,,,,,Space,keypress(Space),,,,,,,,-- --- ---- --- ------ ----- ------- ---- -- --- ------- --<br>------- ---------- ------ -- ----- -- ----- -- ---- ------<br>--- ----- --- --- bonds' -------- ----- --- ------ ----- --<br>----- ----- ---------- --- --- ------ ------ ---- -- ------<br>------- --- ------ ----- --- ---- ------- -- ---- --- --<br>------- ------,366718.69999999925,366718.2999999989,366375.751,366383,366392.403,366725.703,,26,bonds'
screen,html.Screen,2_1_1_1_27,2022-04-25T17:11:44.038Z,,,,,,,,,,,,,,,,,54,,,,,,,,,,,,,,336.5969999989029,,response,,,,100,,,,,,,Space,keypress(Space),,,,,,,,-- --- ---- --- ------ ----- ------- ---- -- --- ------- --<br>------- ---------- ------ -- ----- -- ----- -- ---- ------<br>--- ----- --- --- ------ interest ----- --- ------ ----- --<br>----- ----- ---------- --- --- ------ ------ ---- -- ------<br>------- --- ------ ----- --- ---- ------- -- ---- --- --<br>------- ------,367062.5999999996,367062.2999999989,366709.051,366718.7999999989,366725.703,367075.655,,27,interest
screen,html.Screen,2_1_1_1_28,2022-04-25T17:11:44.350Z,,,,,,,,,,,,,,,,,54,,,,,,,,,,,,,,298.6449999988545,,response,,,,100,,,,,,,Space,keypress(Space),,,,,,,,-- --- ---- --- ------ ----- ------- ---- -- --- ------- --<br>------- ---------- ------ -- ----- -- ----- -- ---- ------<br>--- ----- --- --- ------ -------- rate. --- ------ ----- --<br>----- ----- ---------- --- --- ------ ------ ---- -- ------<br>------- --- ------ ----- --- ---- ------- -- ---- --- --<br>------- ------,367374.69999999925,367374.2999999989,367059.01,367062.69999999925,367075.655,367375.6,,28,rate.
screen,html.Screen,2_1_1_1_29,2022-04-25T17:11:44.662Z,,,,,,,,,,,,,,,,,54,,,,,,,,,,,,,,310.5999999992782,,response,,,,100,,,,,,,Space,keypress(Space),,,,,,,,-- --- ---- --- ------ ----- ------- ---- -- --- ------- --<br>------- ---------- ------ -- ----- -- ----- -- ---- ------<br>--- ----- --- --- ------ -------- ----- The ------ ----- --<br>----- ----- ---------- --- --- ------ ------ ---- -- ------<br>------- --- ------ ----- --- ---- ------- -- ---- --- --<br>------- ------,367686.5,367686.19999999925,367358.969,367374.7999999989,367375.6,367692.217,,29,The
screen,html.Screen,2_1_1_1_30,2022-04-25T17:11:44.982Z,,,,,,,,,,,,,,,,,54,,,,,,,,,,,,,,314.1829999985057,,response,,,,100,,,,,,,Space,keypress(Space),,,,,,,,-- --- ---- --- ------ ----- ------- ---- -- --- ------- --<br>------- ---------- ------ -- ----- -- ----- -- ---- ------<br>--- ----- --- --- ------ -------- ----- --- market ----- --<br>----- ----- ---------- --- --- ------ ------ ---- -- ------<br>------- --- ------ ----- --- ---- ------- -- ---- --- --<br>------- ------,368006.7999999989,368006.3999999985,367675.609,367686.5999999996,367692.217,368008.858,,30,market
screen,html.Screen,2_1_1_1_31,2022-04-25T17:11:45.302Z,,,,,,,,,,,,,,,,,54,,,,,,,,,,,,,,317.64199999999255,,response,,,,100,,,,,,,Space,keypress(Space),,,,,,,,-- --- ---- --- ------ ----- ------- ---- -- --- ------- --<br>------- ---------- ------ -- ----- -- ----- -- ---- ------<br>--- ----- --- --- ------ -------- ----- --- ------ value --<br>----- ----- ---------- --- --- ------ ------ ---- -- ------<br>------- --- ------ ----- --- ---- ------- -- ---- --- --<br>------- ------,368327,368326.5,367992.21,368006.7999999989,368008.858,368342.141,,31,value
screen,html.Screen,2_1_1_1_32,2022-04-25T17:11:45.686Z,,,,,,,,,,,,,,,,,54,,,,,,,,,,,,,,368.35899999999674,,response,,,,100,,,,,,,Space,keypress(Space),,,,,,,,-- --- ---- --- ------ ----- ------- ---- -- --- ------- --<br>------- ---------- ------ -- ----- -- ----- -- ---- ------<br>--- ----- --- --- ------ -------- ----- --- ------ ----- of<br>----- ----- ---------- --- --- ------ ------ ---- -- ------<br>------- --- ------ ----- --- ---- ------- -- ---- --- --<br>------- ------,368710.7999999989,368710.5,368325.506,368327,368342.141,368725.478,,32,of
screen,html.Screen,2_1_1_1_33,2022-04-25T17:11:46.014Z,,,,,,,,,,,,,,,,,54,,,,,,,,,,,,,,312.8219999988796,,response,,,,100,,,,,,,Space,keypress(Space),,,,,,,,-- --- ---- --- ------ ----- ------- ---- -- --- ------- --<br>------- ---------- ------ -- ----- -- ----- -- ---- ------<br>--- ----- --- --- ------ -------- ----- --- ------ ----- --<br>these ----- ---------- --- --- ------ ------ ---- -- ------<br>------- --- ------ ----- --- ---- ------- -- ---- --- --<br>------- ------,369038.69999999925,369038.2999999989,368708.794,368710.8999999985,368725.478,369042.105,,33,these
screen,html.Screen,2_1_1_1_34,2022-04-25T17:11:46.342Z,,,,,,,,,,,,,,,,,54,,,,,,,,,,,,,,324.3950000000186,,response,,,,100,,,,,,,Space,keypress(Space),,,,,,,,-- --- ---- --- ------ ----- ------- ---- -- --- ------- --<br>------- ---------- ------ -- ----- -- ----- -- ---- ------<br>--- ----- --- --- ------ -------- ----- --- ------ ----- --<br>----- bonds ---------- --- --- ------ ------ ---- -- ------<br>------- --- ------ ----- --- ---- ------- -- ---- --- --<br>------- ------,369367,369366.5,369025.443,369038.7999999989,369042.105,369375.409,,34,bonds
screen,html.Screen,2_1_1_1_35,2022-04-25T17:11:46.718Z,,,,,,,,,,,,,,,,,54,,,,,,,,,,,,,,366.9909999985248,,response,,,,100,,,,,,,Space,keypress(Space),,,,,,,,"-- --- ---- --- ------ ----- ------- ---- -- --- ------- --<br>------- ---------- ------ -- ----- -- ----- -- ---- ------<br>--- ----- --- --- ------ -------- ----- --- ------ ----- --<br>----- ----- plummeted, --- --- ------ ------ ---- -- ------<br>------- --- ------ ----- --- ---- ------- -- ---- --- --<br>------- ------",369742.69999999925,369742.3999999985,369358.673,369367,369375.409,369758.653,,35,"plummeted,"
screen,html.Screen,2_1_1_1_36,2022-04-25T17:11:47.094Z,,,,,,,,,,,,,,,,,54,,,,,,,,,,,,,,359.5469999992638,,response,,,,100,,,,,,,Space,keypress(Space),,,,,,,,-- --- ---- --- ------ ----- ------- ---- -- --- ------- --<br>------- ---------- ------ -- ----- -- ----- -- ---- ------<br>--- ----- --- --- ------ -------- ----- --- ------ ----- --<br>----- ----- ---------- and --- ------ ------ ---- -- ------<br>------- --- ------ ----- --- ---- ------- -- ---- --- --<br>------- ------,370118.5,370118.19999999925,369742.032,369742.7999999989,369758.653,370125.272,,36,and
screen,html.Screen,2_1_1_1_37,2022-04-25T17:11:47.414Z,,,,,,,,,,,,,,,,,54,,,,,,,,,,,,,,313.1279999985127,,response,,,,100,,,,,,,Space,keypress(Space),,,,,,,,-- --- ---- --- ------ ----- ------- ---- -- --- ------- --<br>------- ---------- ------ -- ----- -- ----- -- ---- ------<br>--- ----- --- --- ------ -------- ----- --- ------ ----- --<br>----- ----- ---------- --- the ------ ------ ---- -- ------<br>------- --- ------ ----- --- ---- ------- -- ---- --- --<br>------- ------,370438.5999999996,370438.3999999985,370108.617,370118.5999999996,370125.272,370441.94,,37,the
screen,html.Screen,2_1_1_1_38,2022-04-25T17:11:47.710Z,,,,,,,,,,,,,,,,,54,,,,,,,,,,,,,,292.45999999850756,,response,,,,100,,,,,,,Space,keypress(Space),,,,,,,,-- --- ---- --- ------ ----- ------- ---- -- --- ------- --<br>------- ---------- ------ -- ----- -- ----- -- ---- ------<br>--- ----- --- --- ------ -------- ----- --- ------ ----- --<br>----- ----- ---------- --- --- market ------ ---- -- ------<br>------- --- ------ ----- --- ---- ------- -- ---- --- --<br>------- ------,370734.69999999925,370734.3999999985,370425.244,370438.69999999925,370441.94,370741.87,,38,market
screen,html.Screen,2_1_1_1_39,2022-04-25T17:11:48.030Z,,,,,,,,,,,,,,,,,54,,,,,,,,,,,,,,312.52999999851454,,response,,,,100,,,,,,,Space,keypress(Space),,,,,,,,-- --- ---- --- ------ ----- ------- ---- -- --- ------- --<br>------- ---------- ------ -- ----- -- ----- -- ---- ------<br>--- ----- --- --- ------ -------- ----- --- ------ ----- --<br>----- ----- ---------- --- --- ------ became ---- -- ------<br>------- --- ------ ----- --- ---- ------- -- ---- --- --<br>------- ------,371054.7999999989,371054.3999999985,370725.248,370734.7999999989,370741.87,371058.501,,39,became
screen,html.Screen,2_1_1_1_40,2022-04-25T17:11:48.334Z,,,,,,,,,,,,,,,,,54,,,,,,,,,,,,,,299.9990000000107,,response,,,,100,,,,,,,Space,keypress(Space),,,,,,,,-- --- ---- --- ------ ----- ------- ---- -- --- ------- --<br>------- ---------- ------ -- ----- -- ----- -- ---- ------<br>--- ----- --- --- ------ -------- ----- --- ------ ----- --<br>----- ----- ---------- --- --- ------ ------ wary -- ------<br>------- --- ------ ----- --- ---- ------- -- ---- --- --<br>------- ------,371359.19999999925,371358.5,371041.879,371054.8999999985,371058.501,371375.163,,40,wary
screen,html.Screen,2_1_1_1_41,2022-04-25T17:11:48.678Z,,,,,,,,,,,,,,,,,54,,,,,,,,,,,,,,327.13699999888195,,response,,,,100,,,,,,,Space,keypress(Space),,,,,,,,-- --- ---- --- ------ ----- ------- ---- -- --- ------- --<br>------- ---------- ------ -- ----- -- ----- -- ---- ------<br>--- ----- --- --- ------ -------- ----- --- ------ ----- --<br>----- ----- ---------- --- --- ------ ------ ---- of ------<br>------- --- ------ ----- --- ---- ------- -- ---- --- --<br>------- ------,371702.69999999925,371702.2999999989,371358.504,371359.19999999925,371375.163,371708.449,,41,of
screen,html.Screen,2_1_1_1_42,2022-04-25T17:11:49.190Z,,,,,,,,,,,,,,,,,54,,,,,,,,,,,,,,506.05099999997765,,response,,,,100,,,,,,,Space,keypress(Space),,,,,,,,-- --- ---- --- ------ ----- ------- ---- -- --- ------- --<br>------- ---------- ------ -- ----- -- ----- -- ---- ------<br>--- ----- --- --- ------ -------- ----- --- ------ ----- --<br>----- ----- ---------- --- --- ------ ------ ---- -- French<br>------- --- ------ ----- --- ---- ------- -- ---- --- --<br>------- ------,372214.8999999985,372214.5,371691.803,371702.7999999989,371708.449,372225.056,,42,French
screen,html.Screen,2_1_1_1_43,2022-04-25T17:11:49.630Z,,,,,,,,,,,,,,,,,54,,,,,,,,,,,,,,429.54399999964517,,response,,,,100,,,,,,,Space,keypress(Space),,,,,,,,-- --- ---- --- ------ ----- ------- ---- -- --- ------- --<br>------- ---------- ------ -- ----- -- ----- -- ---- ------<br>--- ----- --- --- ------ -------- ----- --- ------ ----- --<br>----- ----- ---------- --- --- ------ ------ ---- -- ------<br>credit. --- ------ ----- --- ---- ------- -- ---- --- --<br>------- ------,372654.8999999985,372654.5999999996,372208.385,372215,372225.056,372658.334,,43,credit.
screen,html.Screen,2_1_1_1_44,2022-04-25T17:11:50.030Z,,,,,,,,,,,,,,,,,54,,,,,,,,,,,,,,395.8659999992815,,response,,,,100,,,,,,,Space,keypress(Space),,,,,,,,-- --- ---- --- ------ ----- ------- ---- -- --- ------- --<br>------- ---------- ------ -- ----- -- ----- -- ---- ------<br>--- ----- --- --- ------ -------- ----- --- ------ ----- --<br>----- ----- ---------- --- --- ------ ------ ---- -- ------<br>------- The ------ ----- --- ---- ------- -- ---- --- --<br>------- ------,373054.5999999996,373054.19999999925,372641.667,372655,372658.334,373058.296,,44,The
screen,html.Screen,2_1_1_1_45,2022-04-25T17:11:50.390Z,,,,,,,,,,,,,,,,,54,,,,,,,,,,,,,,356.1039999985369,,response,,,,100,,,,,,,Space,keypress(Space),,,,,,,,-- --- ---- --- ------ ----- ------- ---- -- --- ------- --<br>------- ---------- ------ -- ----- -- ----- -- ---- ------<br>--- ----- --- --- ------ -------- ----- --- ------ ----- --<br>----- ----- ---------- --- --- ------ ------ ---- -- ------<br>------- --- French ----- --- ---- ------- -- ---- --- --<br>------- ------,373414.69999999925,373414.3999999985,373041.615,373054.69999999925,373058.296,373424.895,,45,French
screen,html.Screen,2_1_1_1_46,2022-04-25T17:11:50.734Z,,,,,,,,,,,,,,,,,54,,,,,,,,,,,,,,333.6049999999814,,response,,,,100,,,,,,,Space,keypress(Space),,,,,,,,-- --- ---- --- ------ ----- ------- ---- -- --- ------- --<br>------- ---------- ------ -- ----- -- ----- -- ---- ------<br>--- ----- --- --- ------ -------- ----- --- ------ ----- --<br>----- ----- ---------- --- --- ------ ------ ---- -- ------<br>------- --- ------ state --- ---- ------- -- ---- --- --<br>------- ------,373758.8999999985,373758.5,373408.243,373414.8999999985,373424.895,373774.84,,46,state
screen,html.Screen,2_1_1_1_47,2022-04-25T17:11:51.118Z,,,,,,,,,,,,,,,,,54,,,,,,,,,,,,,,367.6599999999744,,response,,,,100,,,,,,,Space,keypress(Space),,,,,,,,-- --- ---- --- ------ ----- ------- ---- -- --- ------- --<br>------- ---------- ------ -- ----- -- ----- -- ---- ------<br>--- ----- --- --- ------ -------- ----- --- ------ ----- --<br>----- ----- ---------- --- --- ------ ------ ---- -- ------<br>------- --- ------ ----- was ---- ------- -- ---- --- --<br>------- ------,374142.8999999985,374142.5,373758.2,373759,373774.84,374158.168,,47,was
screen,html.Screen,2_1_1_1_48,2022-04-25T17:11:51.438Z,,,,,,,,,,,,,,,,,54,,,,,,,,,,,,,,304.1319999988773,,response,,,,100,,,,,,,Space,keypress(Space),,,,,,,,-- --- ---- --- ------ ----- ------- ---- -- --- ------- --<br>------- ---------- ------ -- ----- -- ----- -- ---- ------<br>--- ----- --- --- ------ -------- ----- --- ------ ----- --<br>----- ----- ---------- --- --- ------ ------ ---- -- ------<br>------- --- ------ ----- --- left ------- -- ---- --- --<br>------- ------,374462.69999999925,374462.2999999989,374141.521,374142.8999999985,374158.168,374474.767,,48,left
screen,html.Screen,2_1_1_1_49,2022-04-25T17:11:51.790Z,,,,,,,,,,,,,,,,,54,,,,,,,,,,,,,,339.53299999888986,,response,,,,100,,,,,,,Space,keypress(Space),,,,,,,,-- --- ---- --- ------ ----- ------- ---- -- --- ------- --<br>------- ---------- ------ -- ----- -- ----- -- ---- ------<br>--- ----- --- --- ------ -------- ----- --- ------ ----- --<br>----- ----- ---------- --- --- ------ ------ ---- -- ------<br>------- --- ------ ----- --- ---- without -- ---- --- --<br>------- ------,374814.5999999996,374814.2999999989,374458.153,374462.69999999925,374474.767,374824.754,,49,without
screen,html.Screen,2_1_1_1_50,2022-04-25T17:11:52.150Z,,,,,,,,,,,,,,,,,54,,,,,,,,,,,,,,349.54599999886705,,response,,,,100,,,,,,,Space,keypress(Space),,,,,,,,-- --- ---- --- ------ ----- ------- ---- -- --- ------- --<br>------- ---------- ------ -- ----- -- ----- -- ---- ------<br>--- ----- --- --- ------ -------- ----- --- ------ ----- --<br>----- ----- ---------- --- --- ------ ------ ---- -- ------<br>------- --- ------ ----- --- ---- ------- an ---- --- --<br>------- ------,375174.5999999996,375174.2999999989,374808.04,374814.69999999925,374824.754,375191.378,,50,an
screen,html.Screen,2_1_1_1_51,2022-04-25T17:11:52.462Z,,,,,,,,,,,,,,,,,54,,,,,,,,,,,,,,294.82199999922886,,response,,,,100,,,,,,,Space,keypress(Space),,,,,,,,-- --- ---- --- ------ ----- ------- ---- -- --- ------- --<br>------- ---------- ------ -- ----- -- ----- -- ---- ------<br>--- ----- --- --- ------ -------- ----- --- ------ ----- --<br>----- ----- ---------- --- --- ------ ------ ---- -- ------<br>------- --- ------ ----- --- ---- ------- -- easy --- --<br>------- ------,375486.5999999996,375486.19999999925,375174.739,375174.69999999925,375191.378,375491.349,,51,easy
screen,html.Screen,2_1_1_1_52,2022-04-25T17:11:52.790Z,,,,,,,,,,,,,,,,,54,,,,,,,,,,,,,,322.950999998895,,response,,,,100,,,,,,,Space,keypress(Space),,,,,,,,-- --- ---- --- ------ ----- ------- ---- -- --- ------- --<br>------- ---------- ------ -- ----- -- ----- -- ---- ------<br>--- ----- --- --- ------ -------- ----- --- ------ ----- --<br>----- ----- ---------- --- --- ------ ------ ---- -- ------<br>------- --- ------ ----- --- ---- ------- -- ---- way --<br>------- ------,375814.5999999996,375814.2999999989,375474.652,375486.7999999989,375491.349,375824.647,,52,way
screen,html.Screen,2_1_1_1_53,2022-04-25T17:11:53.094Z,,,,,,,,,,,,,,,,,54,,,,,,,,,,,,,,293.6529999988852,,response,,,,100,,,,,,,Space,keypress(Space),,,,,,,,-- --- ---- --- ------ ----- ------- ---- -- --- ------- --<br>------- ---------- ------ -- ----- -- ----- -- ---- ------<br>--- ----- --- --- ------ -------- ----- --- ------ ----- --<br>----- ----- ---------- --- --- ------ ------ ---- -- ------<br>------- --- ------ ----- --- ---- ------- -- ---- --- of<br>------- ------,376118.5999999996,376118.2999999989,375807.951,375814.69999999925,375824.647,376124.566,,53,of
screen,html.Screen,2_1_1_1_54,2022-04-25T17:11:53.550Z,,,,,,,,,,,,,,,,,54,,,,,,,,,,,,,,450.03399999963585,,response,,,,100,,,,,,,Space,keypress(Space),,,,,,,,-- --- ---- --- ------ ----- ------- ---- -- --- ------- --<br>------- ---------- ------ -- ----- -- ----- -- ---- ------<br>--- ----- --- --- ------ -------- ----- --- ------ ----- --<br>----- ----- ---------- --- --- ------ ------ ---- -- ------<br>------- --- ------ ----- --- ---- ------- -- ---- --- --<br>raising ------,376574.8999999985,376574.5999999996,376107.953,376118.69999999925,376124.566,376591.217,,54,raising
screen,html.Screen,2_1_1_1_55,2022-04-25T17:11:54.014Z,,,,,,,,,,,,,,,,,54,,,,,,,,,,,,,,447.1829999985057,,response,,,,100,,,,,,,Space,keypress(Space),,,,,,,,-- --- ---- --- ------ ----- ------- ---- -- --- ------- --<br>------- ---------- ------ -- ----- -- ----- -- ---- ------<br>--- ----- --- --- ------ -------- ----- --- ------ ----- --<br>----- ----- ---------- --- --- ------ ------ ---- -- ------<br>------- --- ------ ----- --- ---- ------- -- ---- --- --<br>------- money.,377038.7999999989,377038.3999999985,376574.575,376575,376591.217,377041.122,,55,money.
Item 100,flow.Loop,2_1_1_1,2022-04-25T17:11:54.014Z,,,,,,,,,,,,,,,,,,,,,,,,,,,,,,,21328.085999998497,,completion,,,,,B,,,,,,,,,,,silence,,,,,377038.8999999985,377038.3999999985,355693.613,355693.8999999985,355710.314,377041.122,,,
Question 1,html.Screen,2_1_1_2,2022-04-25T17:11:56.822Z,,,,,,,,,,,,,,,,,,,,,,,,,,,,true,TRUE,,2804.9779999996535,,response,,,,100,B,,,,,,TRUE,click #choice-1,,,,silence,,,,,379846.5999999996,379846.0999999996,377024.496,377038.8999999985,377041.122,379874.166,,,
Question 2,html.Screen,2_1_1_3,2022-04-25T17:11:58.886Z,,,,,,,,,,,,,,,,,,,,,,,,,,,,true,FALSE,,2036.0339999992284,,response,,,,100,B,,,,,,FALSE,click #choice-2,,,,silence,,,,,381910.5999999996,381910.19999999925,379857.462,379846.5999999996,379874.166,381923.941,,,
Item 100,flow.Sequence,2_1_1,2022-04-25T17:11:58.886Z,,,,,,,,,,,,,,,,,,,,,,,,,,,,,,,36198.73299999925,,completion,,,,,,,,,,,,,,,,,,,,,381910.5999999996,381910.19999999925,345694.808,345710.8999999985,345711.467,381923.941,,,
End of Practice,html.Page,2_1_2,2022-04-25T17:12:02.751Z,,,,,,,,,,,,,,,,,,,,,,,,,,,,,,,3850.658999999636,,form submission,,,,,,,,,,,,,,,,,,,,,385774.7999999989,385774.5999999996,381907.272,381910.69999999925,381923.941,385790.143,,,
Practice,flow.Sequence,2_1,2022-04-25T17:12:02.751Z,,,,,,,,,,,,,,,,,,,,,,,,,,,,,,,120087.1619999996,,completion,,,,,,,,,,,,,,,,,,,,,385774.8999999985,385774.5999999996,265670.788,265679.0999999996,265687.438,385790.143,,,
Trap_instruction,html.Page,2_2_0,2022-04-25T17:12:13.007Z,,,,,,,,,,,,,,,,,,,,,,,,,,,,,,,10240.456999999646,,form submission,,,,,,,,,,,,,,,,,,,,,396030.7999999989,396030.5999999996,385773.457,385775,385790.143,396055.622,,,
trap_trial,html.Screen,2_2_1,2022-04-25T17:12:15.591Z,,,,,,,,,,,,,,,,,,,,,,,,,,,,true,1,,2558.378000000026,,response,,,,,,,,,,,1,click #choice-1,,,,,,,,,398614.5999999996,398614,396041.014,396030.7999999989,396055.622,398621.969,,,
end of trap trial,html.Page,2_2_2,2022-04-25T17:12:18.327Z,,,,,,,,,,,,,,,,,,,,,,,,,,,,,,,2728.8309999988996,,form submission,,,,,,,,,,,,,,,,,,,,,401350.8999999985,401350.7999999989,398605.318,398614.5999999996,398621.969,401355.007,,,
Trap 1,flow.Sequence,2_2,2022-04-25T17:12:18.327Z,,,,,,,,,,,,,,,,,,,,,,,,,,,,,,,15560.6569999989,,completion,,,,,,,,,,,,,,,,,,,,,401351,401350.7999999989,385773.457,385775,385790.143,401355.007,,,
Standby,html.Page,2_3_0,2022-04-25T17:12:26.314Z,,,,,,,,,,,,,,,,,,,,,,,,,,,,,,,7999.073000000033,,timeout,,,,,,,,,,,,,,,,,,,,,409337.7999999989,409337.387,401338.312,401351.0999999996,401355.007,409354.08,,,
Holding screen,html.Screen,2_3_1_0_0,2022-04-25T17:12:33.313Z,,,,,,,,,,,,,,,,,,,,,,,,,,,,,,,6999.20199999999,,timeout,,,,,,,,,,,,,,,,,,,,,416337.0999999996,416336.624,409337.387,409337.8999999985,409354.08,416353.282,,,
screen,html.Screen,2_3_1_0_1_0,2022-04-25T17:12:34.335Z,,,,,,,,,,,,,,,,,2,,,,,,,,,,,,,,1005.1179999985034,,response,,,,1,B,,,,,,Space,keypress(Space),,,,lyrical,,,,Two ---- ------ --- ------- ---------- ------- ----------<br>--- --------- --- ----------- ------- ----- ------- ---<br>--------- ---- -- --- ---- -- --------- -- ---- -------<br>-- --------- ------ --- ----- ------ ---- --- --------- --<br>------ - ---- -- --- ----------- ------- ---- ----- -----<br>--- -------- - ------ ---- -- ----- ---- --- --- -----------<br>-- -------,417358.8999999985,417358.3999999985,416336.624,416337.2999999989,416353.282,417369.817,,0,Two
screen,html.Screen,2_3_1_0_1_1,2022-04-25T17:12:34.831Z,,,,,,,,,,,,,,,,,2,,,,,,,,,,,,,,484.4829999989015,,response,,,,1,B,,,,,,Space,keypress(Space),,,,lyrical,,,,--- days ------ --- ------- ---------- ------- ----------<br>--- --------- --- ----------- ------- ----- ------- ---<br>--------- ---- -- --- ---- -- --------- -- ---- -------<br>-- --------- ------ --- ----- ------ ---- --- --------- --<br>------ - ---- -- --- ----------- ------- ---- ----- -----<br>--- -------- - ------ ---- -- ----- ---- --- --- -----------<br>-- -------,417854.69999999925,417854.2999999989,417353.213,417358.8999999985,417369.817,417869.758,,1,days
screen,html.Screen,2_3_1_0_1_2,2022-04-25T17:12:35.159Z,,,,,,,,,,,,,,,,,2,,,,,,,,,,,,,,312.5419999989099,,response,,,,1,B,,,,,,Space,keypress(Space),,,,lyrical,,,,"--- ---- later, --- ------- ---------- ------- ----------<br>--- --------- --- ----------- ------- ----- ------- ---<br>--------- ---- -- --- ---- -- --------- -- ---- -------<br>-- --------- ------ --- ----- ------ ---- --- --------- --<br>------ - ---- -- --- ----------- ------- ---- ----- -----<br>--- -------- - ------ ---- -- ----- ---- --- --- -----------<br>-- -------",418182.69999999925,418182.2999999989,417853.111,417854.7999999989,417869.758,418186.357,,2,"later,"
screen,html.Screen,2_3_1_0_1_3,2022-04-25T17:12:35.511Z,,,,,,,,,,,,,,,,,2,,,,,,,,,,,,,,347.94299999886425,,response,,,,1,B,,,,,,Space,keypress(Space),,,,lyrical,,,,--- ---- ------ the ------- ---------- ------- ----------<br>--- --------- --- ----------- ------- ----- ------- ---<br>--------- ---- -- --- ---- -- --------- -- ---- -------<br>-- --------- ------ --- ----- ------ ---- --- --------- --<br>------ - ---- -- --- ----------- ------- ---- ----- -----<br>--- -------- - ------ ---- -- ----- ---- --- --- -----------<br>-- -------,418534.69999999925,418534.2999999989,418169.727,418182.69999999925,418186.357,418536.319,,3,the
screen,html.Screen,2_3_1_0_1_4,2022-04-25T17:12:35.887Z,,,,,,,,,,,,,,,,,2,,,,,,,,,,,,,,373.9809999988647,,response,,,,1,B,,,,,,Space,keypress(Space),,,,lyrical,,,,--- ---- ------ --- British ---------- ------- ----------<br>--- --------- --- ----------- ------- ----- ------- ---<br>--------- ---- -- --- ---- -- --------- -- ---- -------<br>-- --------- ------ --- ----- ------ ---- --- --------- --<br>------ - ---- -- --- ----------- ------- ---- ----- -----<br>--- -------- - ------ ---- -- ----- ---- --- --- -----------<br>-- -------,418910.69999999925,418910.2999999989,418519.685,418534.7999999989,418536.319,418919.636,,4,British
screen,html.Screen,2_3_1_0_1_5,2022-04-25T17:12:36.199Z,,,,,,,,,,,,,,,,,2,,,,,,,,,,,,,,302.8640000000014,,response,,,,1,B,,,,,,Space,keypress(Space),,,,lyrical,,,,--- ---- ------ --- ------- astronomer ------- ----------<br>--- --------- --- ----------- ------- ----- ------- ---<br>--------- ---- -- --- ---- -- --------- -- ---- -------<br>-- --------- ------ --- ----- ------ ---- --- --------- --<br>------ - ---- -- --- ----------- ------- ---- ----- -----<br>--- -------- - ------ ---- -- ----- ---- --- --- -----------<br>-- -------,419222.7999999989,419222.5,418902.977,418910.69999999925,418919.636,419236.229,,5,astronomer
screen,html.Screen,2_3_1_0_1_6,2022-04-25T17:12:36.703Z,,,,,,,,,,,,,,,,,2,,,,,,,,,,,,,,490.07099999889033,,response,,,,1,B,,,,,,Space,keypress(Space),,,,lyrical,,,,--- ---- ------ --- ------- ---------- Richard ----------<br>--- --------- --- ----------- ------- ----- ------- ---<br>--------- ---- -- --- ---- -- --------- -- ---- -------<br>-- --------- ------ --- ----- ------ ---- --- --------- --<br>------ - ---- -- --- ----------- ------- ---- ----- -----<br>--- -------- - ------ ---- -- ----- ---- --- --- -----------<br>-- -------,419726.5999999996,419726.2999999989,419219.566,419222.8999999985,419236.229,419736.199,,6,Richard
screen,html.Screen,2_3_1_0_1_7,2022-04-25T17:12:37.015Z,,,,,,,,,,,,,,,,,2,,,,,,,,,,,,,,302.0009999992326,,response,,,,1,B,,,,,,Space,keypress(Space),,,,lyrical,,,,--- ---- ------ --- ------- ---------- ------- Carrington<br>--- --------- --- ----------- ------- ----- ------- ---<br>--------- ---- -- --- ---- -- --------- -- ---- -------<br>-- --------- ------ --- ----- ------ ---- --- --------- --<br>------ - ---- -- --- ----------- ------- ---- ----- -----<br>--- -------- - ------ ---- -- ----- ---- --- --- -----------<br>-- -------,420038.5999999996,420038.19999999925,419719.564,419726.69999999925,419736.199,420052.839,,7,Carrington
screen,html.Screen,2_3_1_0_1_8,2022-04-25T17:12:37.439Z,,,,,,,,,,,,,,,,,2,,,,,,,,,,,,,,409.4609999989043,,response,,,,1,B,,,,,,Space,keypress(Space),,,,lyrical,,,,--- ---- ------ --- ------- ---------- ------- ----------<br>was --------- --- ----------- ------- ----- ------- ---<br>--------- ---- -- --- ---- -- --------- -- ---- -------<br>-- --------- ------ --- ----- ------ ---- --- --------- --<br>------ - ---- -- --- ----------- ------- ---- ----- -----<br>--- -------- - ------ ---- -- ----- ---- --- --- -----------<br>-- -------,420462.5,420462.2999999989,420036.175,420038.69999999925,420052.839,420469.397,,8,was
screen,html.Screen,2_3_1_0_1_9,2022-04-25T17:12:37.791Z,,,,,,,,,,,,,,,,,2,,,,,,,,,,,,,,345.1030000000028,,response,,,,1,B,,,,,,Space,keypress(Space),,,,lyrical,,,,--- ---- ------ --- ------- ---------- ------- ----------<br>--- observing --- ----------- ------- ----- ------- ---<br>--------- ---- -- --- ---- -- --------- -- ---- -------<br>-- --------- ------ --- ----- ------ ---- --- --------- --<br>------ - ---- -- --- ----------- ------- ---- ----- -----<br>--- -------- - ------ ---- -- ----- ---- --- --- -----------<br>-- -------,420814.7999999989,420814.5,420452.8,420462.5999999996,420469.397,420819.385,,9,observing
screen,html.Screen,2_3_1_0_1_10,2022-04-25T17:12:38.167Z,,,,,,,,,,,,,,,,,2,,,,,,,,,,,,,,371.1149999999907,,response,,,,1,B,,,,,,Space,keypress(Space),,,,lyrical,,,,--- ---- ------ --- ------- ---------- ------- ----------<br>--- --------- the ----------- ------- ----- ------- ---<br>--------- ---- -- --- ---- -- --------- -- ---- -------<br>-- --------- ------ --- ----- ------ ---- --- --------- --<br>------ - ---- -- --- ----------- ------- ---- ----- -----<br>--- -------- - ------ ---- -- ----- ---- --- --- -----------<br>-- -------,421190.7999999989,421190.5,420802.721,420814.8999999985,420819.385,421202.695,,10,the
screen,html.Screen,2_3_1_0_1_11,2022-04-25T17:12:38.591Z,,,,,,,,,,,,,,,,,2,,,,,,,,,,,,,,411.9049999996205,,response,,,,1,B,,,,,,Space,keypress(Space),,,,lyrical,,,,--- ---- ------ --- ------- ---------- ------- ----------<br>--- --------- --- interesting ------- ----- ------- ---<br>--------- ---- -- --- ---- -- --------- -- ---- -------<br>-- --------- ------ --- ----- ------ ---- --- --------- --<br>------ - ---- -- --- ----------- ------- ---- ----- -----<br>--- -------- - ------ ---- -- ----- ---- --- --- -----------<br>-- -------,421614.8999999985,421614.5999999996,421186.052,421190.8999999985,421202.695,421619.309,,11,interesting
screen,html.Screen,2_3_1_0_1_12,2022-04-25T17:12:38.951Z,,,,,,,,,,,,,,,,,2,,,,,,,,,,,,,,354.89099999924656,,response,,,,1,B,,,,,,Space,keypress(Space),,,,lyrical,,,,--- ---- ------ --- ------- ---------- ------- ----------<br>--- --------- --- ----------- sunspot ----- ------- ---<br>--------- ---- -- --- ---- -- --------- -- ---- -------<br>-- --------- ------ --- ----- ------ ---- --- --------- --<br>------ - ---- -- --- ----------- ------- ---- ----- -----<br>--- -------- - ------ ---- -- ----- ---- --- --- -----------<br>-- -------,421974.5,421974.19999999925,421602.665,421615,421619.309,421985.915,,12,sunspot
screen,html.Screen,2_3_1_0_1_13,2022-04-25T17:12:39.391Z,,,,,,,,,,,,,,,,,2,,,,,,,,,,,,,,428.48499999853084,,response,,,,1,B,,,,,,Space,keypress(Space),,,,lyrical,,,,--- ---- ------ --- ------- ---------- ------- ----------<br>--- --------- --- ----------- ------- group ------- ---<br>--------- ---- -- --- ---- -- --------- -- ---- -------<br>-- --------- ------ --- ----- ------ ---- --- --------- --<br>------ - ---- -- --- ----------- ------- ---- ----- -----<br>--- -------- - ------ ---- -- ----- ---- --- --- -----------<br>-- -------,422414.7999999989,422414.3999999985,421969.288,421974.5999999996,421985.915,422419.207,,13,group
screen,html.Screen,2_3_1_0_1_14,2022-04-25T17:12:39.695Z,,,,,,,,,,,,,,,,,2,,,,,,,,,,,,,,299.09299999888754,,response,,,,1,B,,,,,,Space,keypress(Space),,,,lyrical,,,,--- ---- ------ --- ------- ---------- ------- ----------<br>--- --------- --- ----------- ------- ----- through ---<br>--------- ---- -- --- ---- -- --------- -- ---- -------<br>-- --------- ------ --- ----- ------ ---- --- --------- --<br>------ - ---- -- --- ----------- ------- ---- ----- -----<br>--- -------- - ------ ---- -- ----- ---- --- --- -----------<br>-- -------,422718.69999999925,422718.2999999989,422402.573,422414.8999999985,422419.207,422719.148,,14,through
screen,html.Screen,2_3_1_0_1_15,2022-04-25T17:12:39.991Z,,,,,,,,,,,,,,,,,2,,,,,,,,,,,,,,295.05199999926845,,response,,,,1,B,,,,,,Space,keypress(Space),,,,lyrical,,,,--- ---- ------ --- ------- ---------- ------- ----------<br>--- --------- --- ----------- ------- ----- ------- his<br>--------- ---- -- --- ---- -- --------- -- ---- -------<br>-- --------- ------ --- ----- ------ ---- --- --------- --<br>------ - ---- -- --- ----------- ------- ---- ----- -----<br>--- -------- - ------ ---- -- ----- ---- --- --- -----------<br>-- -------,423014.5,423014.19999999925,422702.526,422718.69999999925,422719.148,423019.147,,15,his
screen,html.Screen,2_3_1_0_1_16,2022-04-25T17:12:40.447Z,,,,,,,,,,,,,,,,,2,,,,,,,,,,,,,,451.8530000000028,,response,,,,1,B,,,,,,Space,keypress(Space),,,,lyrical,,,,--- ---- ------ --- ------- ---------- ------- ----------<br>--- --------- --- ----------- ------- ----- ------- ---<br>telescope ---- -- --- ---- -- --------- -- ---- -------<br>-- --------- ------ --- ----- ------ ---- --- --------- --<br>------ - ---- -- --- ----------- ------- ---- ----- -----<br>--- -------- - ------ ---- -- ----- ---- --- --- -----------<br>-- -------,423471.3999999985,423471,423002.506,423014.69999999925,423019.147,423485.785,,16,telescope
screen,html.Screen,2_3_1_0_1_17,2022-04-25T17:12:40.839Z,,,,,,,,,,,,,,,,,2,,,,,,,,,,,,,,376.514999998908,,response,,,,1,B,,,,,,Space,keypress(Space),,,,lyrical,,,,--- ---- ------ --- ------- ---------- ------- ----------<br>--- --------- --- ----------- ------- ----- ------- ---<br>--------- when -- --- ---- -- --------- -- ---- -------<br>-- --------- ------ --- ----- ------ ---- --- --------- --<br>------ - ---- -- --- ----------- ------- ---- ----- -----<br>--- -------- - ------ ---- -- ----- ---- --- --- -----------<br>-- -------,423862.69999999925,423862.2999999989,423469.083,423471.5,423485.785,423869.065,,17,when
screen,html.Screen,2_3_1_0_1_18,2022-04-25T17:12:41.207Z,,,,,,,,,,,,,,,,,2,,,,,,,,,,,,,,361.1349999992526,,response,,,,1,B,,,,,,Space,keypress(Space),,,,lyrical,,,,--- ---- ------ --- ------- ---------- ------- ----------<br>--- --------- --- ----------- ------- ----- ------- ---<br>--------- ---- he --- ---- -- --------- -- ---- -------<br>-- --------- ------ --- ----- ------ ---- --- --------- --<br>------ - ---- -- --- ----------- ------- ---- ----- -----<br>--- -------- - ------ ---- -- ----- ---- --- --- -----------<br>-- -------,424230.5999999996,424230.19999999925,423852.423,423862.69999999925,423869.065,424235.677,,18,he
screen,html.Screen,2_3_1_0_1_19,2022-04-25T17:12:41.567Z,,,,,,,,,,,,,,,,,2,,,,,,,,,,,,,,354.82299999997485,,response,,,,1,B,,,,,,Space,keypress(Space),,,,lyrical,,,,--- ---- ------ --- ------- ---------- ------- ----------<br>--- --------- --- ----------- ------- ----- ------- ---<br>--------- ---- -- saw ---- -- --------- -- ---- -------<br>-- --------- ------ --- ----- ------ ---- --- --------- --<br>------ - ---- -- --- ----------- ------- ---- ----- -----<br>--- -------- - ------ ---- -- ----- ---- --- --- -----------<br>-- -------,424590.7999999989,424590.5,424219.03,424230.5999999996,424235.677,424602.3,,19,saw
screen,html.Screen,2_3_1_0_1_20,2022-04-25T17:12:41.895Z,,,,,,,,,,,,,,,,,2,,,,,,,,,,,,,,315.99999999889405,,response,,,,1,B,,,,,,Space,keypress(Space),,,,lyrical,,,,--- ---- ------ --- ------- ---------- ------- ----------<br>--- --------- --- ----------- ------- ----- ------- ---<br>--------- ---- -- --- what -- --------- -- ---- -------<br>-- --------- ------ --- ----- ------ ---- --- --------- --<br>------ - ---- -- --- ----------- ------- ---- ----- -----<br>--- -------- - ------ ---- -- ----- ---- --- --- -----------<br>-- -------,424918.5,424918.2999999989,424585.61,424590.8999999985,424602.3,424952.254,,20,what
screen,html.Screen,2_3_1_0_1_21,2022-04-25T17:12:42.174Z,,,,,,,,,,,,,,,,,2,,,,,,,,,,,,,,245.94599999923958,,response,,,,1,B,,,,,,Space,keypress(Space),,,,lyrical,,,,--- ---- ------ --- ------- ---------- ------- ----------<br>--- --------- --- ----------- ------- ----- ------- ---<br>--------- ---- -- --- ---- he --------- -- ---- -------<br>-- --------- ------ --- ----- ------ ---- --- --------- --<br>------ - ---- -- --- ----------- ------- ---- ----- -----<br>--- -------- - ------ ---- -- ----- ---- --- --- -----------<br>-- -------,425198.5,425198.19999999925,424935.586,424918.5999999996,424952.254,425202.177,,21,he
screen,html.Screen,2_3_1_0_1_22,2022-04-25T17:12:42.511Z,,,,,,,,,,,,,,,,,2,,,,,,,,,,,,,,332.12299999885727,,response,,,,1,B,,,,,,Space,keypress(Space),,,,lyrical,,,,--- ---- ------ --- ------- ---------- ------- ----------<br>--- --------- --- ----------- ------- ----- ------- ---<br>--------- ---- -- --- ---- -- described -- ---- -------<br>-- --------- ------ --- ----- ------ ---- --- --------- --<br>------ - ---- -- --- ----------- ------- ---- ----- -----<br>--- -------- - ------ ---- -- ----- ---- --- --- -----------<br>-- -------,425534.69999999925,425534.2999999989,425185.568,425198.5999999996,425202.177,425535.538,,22,described
screen,html.Screen,2_3_1_0_1_23,2022-04-25T17:12:42.806Z,,,,,,,,,,,,,,,,,2,,,,,,,,,,,,,,294.6619999992545,,response,,,,1,B,,,,,,Space,keypress(Space),,,,lyrical,,,,--- ---- ------ --- ------- ---------- ------- ----------<br>--- --------- --- ----------- ------- ----- ------- ---<br>--------- ---- -- --- ---- -- --------- as ---- -------<br>-- --------- ------ --- ----- ------ ---- --- --------- --<br>------ - ---- -- --- ----------- ------- ---- ----- -----<br>--- -------- - ------ ---- -- ----- ---- --- --- -----------<br>-- -------,425830.5,425830.19999999925,425518.842,425534.69999999925,425535.538,425835.465,,23,as
screen,html.Screen,2_3_1_0_1_24,2022-04-25T17:12:43.087Z,,,,,,,,,,,,,,,,,2,,,,,,,,,,,,,,274.73499999922933,,response,,,,1,B,,,,,,Space,keypress(Space),,,,lyrical,,,,"--- ---- ------ --- ------- ---------- ------- ----------<br>--- --------- --- ----------- ------- ----- ------- ---<br>--------- ---- -- --- ---- -- --------- -- ""two -------<br>-- --------- ------ --- ----- ------ ---- --- --------- --<br>------ - ---- -- --- ----------- ------- ---- ----- -----<br>--- -------- - ------ ---- -- ----- ---- --- --- -----------<br>-- -------",426110.5,426110.19999999925,425818.844,425830.5,425835.465,426118.791,,24,"""two"
screen,html.Screen,2_3_1_0_1_25,2022-04-25T17:12:43.407Z,,,,,,,,,,,,,,,,,2,,,,,,,,,,,,,,311.70899999997346,,response,,,,1,B,,,,,,Space,keypress(Space),,,,lyrical,,,,--- ---- ------ --- ------- ---------- ------- ----------<br>--- --------- --- ----------- ------- ----- ------- ---<br>--------- ---- -- --- ---- -- --------- -- ---- patches<br>-- --------- ------ --- ----- ------ ---- --- --------- --<br>------ - ---- -- --- ----------- ------- ---- ----- -----<br>--- -------- - ------ ---- -- ----- ---- --- --- -----------<br>-- -------,426430.7999999989,426430.5,426102.101,426110.5999999996,426118.791,426435.42,,25,patches
screen,html.Screen,2_3_1_0_1_26,2022-04-25T17:12:43.719Z,,,,,,,,,,,,,,,,,2,,,,,,,,,,,,,,307.0800000000163,,response,,,,1,B,,,,,,Space,keypress(Space),,,,lyrical,,,,--- ---- ------ --- ------- ---------- ------- ----------<br>--- --------- --- ----------- ------- ----- ------- ---<br>--------- ---- -- --- ---- -- --------- -- ---- -------<br>of --------- ------ --- ----- ------ ---- --- --------- --<br>------ - ---- -- --- ----------- ------- ---- ----- -----<br>--- -------- - ------ ---- -- ----- ---- --- --- -----------<br>-- -------,426742.69999999925,426742.5,426418.727,426430.8999999985,426435.42,426752.027,,26,of
screen,html.Screen,2_3_1_0_1_27,2022-04-25T17:12:44.023Z,,,,,,,,,,,,,,,,,2,,,,,,,,,,,,,,294.1729999992531,,response,,,,1,B,,,,,,Space,keypress(Space),,,,lyrical,,,,--- ---- ------ --- ------- ---------- ------- ----------<br>--- --------- --- ----------- ------- ----- ------- ---<br>--------- ---- -- --- ---- -- --------- -- ---- -------<br>-- intensely ------ --- ----- ------ ---- --- --------- --<br>------ - ---- -- --- ----------- ------- ---- ----- -----<br>--- -------- - ------ ---- -- ----- ---- --- --- -----------<br>-- -------,427046.5,427046.19999999925,426735.397,426742.8999999985,426752.027,427052.027,,27,intensely
screen,html.Screen,2_3_1_0_1_28,2022-04-25T17:12:44.343Z,,,,,,,,,,,,,,,,,2,,,,,,,,,,,,,,314.372999998508,,response,,,,1,B,,,,,,Space,keypress(Space),,,,lyrical,,,,--- ---- ------ --- ------- ---------- ------- ----------<br>--- --------- --- ----------- ------- ----- ------- ---<br>--------- ---- -- --- ---- -- --------- -- ---- -------<br>-- --------- bright --- ----- ------ ---- --- --------- --<br>------ - ---- -- --- ----------- ------- ---- ----- -----<br>--- -------- - ------ ---- -- ----- ---- --- --- -----------<br>-- -------,427366.7999999989,427366.3999999985,427035.356,427046.5999999996,427052.027,427368.654,,28,bright
screen,html.Screen,2_3_1_0_1_29,2022-04-25T17:12:44.655Z,,,,,,,,,,,,,,,,,2,,,,,,,,,,,,,,309.5459999992745,,response,,,,1,B,,,,,,Space,keypress(Space),,,,lyrical,,,,--- ---- ------ --- ------- ---------- ------- ----------<br>--- --------- --- ----------- ------- ----- ------- ---<br>--------- ---- -- --- ---- -- --------- -- ---- -------<br>-- --------- ------ and ----- ------ ---- --- --------- --<br>------ - ---- -- --- ----------- ------- ---- ----- -----<br>--- -------- - ------ ---- -- ----- ---- --- --- -----------<br>-- -------,427678.5999999996,427678.19999999925,427351.959,427366.8999999985,427368.654,427685.245,,29,and
screen,html.Screen,2_3_1_0_1_30,2022-04-25T17:12:44.943Z,,,,,,,,,,,,,,,,,2,,,,,,,,,,,,,,281.05499999888707,,response,,,,1,B,,,,,,Space,keypress(Space),,,,lyrical,,,,--- ---- ------ --- ------- ---------- ------- ----------<br>--- --------- --- ----------- ------- ----- ------- ---<br>--------- ---- -- --- ---- -- --------- -- ---- -------<br>-- --------- ------ --- white ------ ---- --- --------- --<br>------ - ---- -- --- ----------- ------- ---- ----- -----<br>--- -------- - ------ ---- -- ----- ---- --- --- -----------<br>-- -------,427966.69999999925,427966.2999999989,427668.629,427678.69999999925,427685.245,427968.54,,30,white
screen,html.Screen,2_3_1_0_1_31,2022-04-25T17:12:45.231Z,,,,,,,,,,,,,,,,,2,,,,,,,,,,,,,,285.75999999890337,,response,,,,1,B,,,,,,Space,keypress(Space),,,,lyrical,,,,"--- ---- ------ --- ------- ---------- ------- ----------<br>--- --------- --- ----------- ------- ----- ------- ---<br>--------- ---- -- --- ---- -- --------- -- ---- -------<br>-- --------- ------ --- ----- light"" ---- --- --------- --<br>------ - ---- -- --- ----------- ------- ---- ----- -----<br>--- -------- - ------ ---- -- ----- ---- --- --- -----------<br>-- -------",428254.7999999989,428254.2999999989,427951.886,427966.7999999989,427968.54,428268.503,,31,"light"""
screen,html.Screen,2_3_1_0_1_32,2022-04-25T17:12:45.527Z,,,,,,,,,,,,,,,,,2,,,,,,,,,,,,,,281.79699999885634,,response,,,,1,B,,,,,,Space,keypress(Space),,,,lyrical,,,,--- ---- ------ --- ------- ---------- ------- ----------<br>--- --------- --- ----------- ------- ----- ------- ---<br>--------- ---- -- --- ---- -- --------- -- ---- -------<br>-- --------- ------ --- ----- ------ over --- --------- --<br>------ - ---- -- --- ----------- ------- ---- ----- -----<br>--- -------- - ------ ---- -- ----- ---- --- --- -----------<br>-- -------,428550.5999999996,428550.2999999989,428251.882,428254.7999999989,428268.503,428569.304,,32,over
screen,html.Screen,2_3_1_0_1_33,2022-04-25T17:12:45.815Z,,,,,,,,,,,,,,,,,2,,,,,,,,,,,,,,268.8959999992512,,response,,,,1,B,,,,,,Space,keypress(Space),,,,lyrical,,,,--- ---- ------ --- ------- ---------- ------- ----------<br>--- --------- --- ----------- ------- ----- ------- ---<br>--------- ---- -- --- ---- -- --------- -- ---- -------<br>-- --------- ------ --- ----- ------ ---- the --------- --<br>------ - ---- -- --- ----------- ------- ---- ----- -----<br>--- -------- - ------ ---- -- ----- ---- --- --- -----------<br>-- -------,428838.5999999996,428838.19999999925,428535.185,428550.5999999996,428569.304,428851.756,,33,the
screen,html.Screen,2_3_1_0_1_34,2022-04-25T17:12:46.095Z,,,,,,,,,,,,,,,,,2,,,,,,,,,,,,,,266.64399999851594,,response,,,,1,B,,,,,,Space,keypress(Space),,,,lyrical,,,,--- ---- ------ --- ------- ---------- ------- ----------<br>--- --------- --- ----------- ------- ----- ------- ---<br>--------- ---- -- --- ---- -- --------- -- ---- -------<br>-- --------- ------ --- ----- ------ ---- --- sunspots. --<br>------ - ---- -- --- ----------- ------- ---- ----- -----<br>--- -------- - ------ ---- -- ----- ---- --- --- -----------<br>-- -------,429118.69999999925,429118.3999999985,428835.149,428838.7999999989,428851.756,429135.072,,34,sunspots.
screen,html.Screen,2_3_1_0_1_35,2022-04-25T17:12:46.415Z,,,,,,,,,,,,,,,,,2,,,,,,,,,,,,,,303.22799999889685,,response,,,,1,B,,,,,,Space,keypress(Space),,,,lyrical,,,,--- ---- ------ --- ------- ---------- ------- ----------<br>--- --------- --- ----------- ------- ----- ------- ---<br>--------- ---- -- --- ---- -- --------- -- ---- -------<br>-- --------- ------ --- ----- ------ ---- --- --------- He<br>------ - ---- -- --- ----------- ------- ---- ----- -----<br>--- -------- - ------ ---- -- ----- ---- --- --- -----------<br>-- -------,429438.5999999996,429438.2999999989,429118.402,429118.7999999989,429135.072,429451.74,,35,He
screen,html.Screen,2_3_1_0_1_36,2022-04-25T17:12:46.711Z,,,,,,,,,,,,,,,,,2,,,,,,,,,,,,,,282.5599999988917,,response,,,,1,B,,,,,,Space,keypress(Space),,,,lyrical,,,,--- ---- ------ --- ------- ---------- ------- ----------<br>--- --------- --- ----------- ------- ----- ------- ---<br>--------- ---- -- --- ---- -- --------- -- ---- -------<br>-- --------- ------ --- ----- ------ ---- --- --------- --<br>jotted - ---- -- --- ----------- ------- ---- ----- -----<br>--- -------- - ------ ---- -- ----- ---- --- --- -----------<br>-- -------,429734.5999999996,429734.2999999989,429435.048,429438.69999999925,429451.74,429735.024,,36,jotted
screen,html.Screen,2_3_1_0_1_37,2022-04-25T17:12:46.999Z,,,,,,,,,,,,,,,,,2,,,,,,,,,,,,,,287.2759999989066,,response,,,,1,B,,,,,,Space,keypress(Space),,,,lyrical,,,,--- ---- ------ --- ------- ---------- ------- ----------<br>--- --------- --- ----------- ------- ----- ------- ---<br>--------- ---- -- --- ---- -- --------- -- ---- -------<br>-- --------- ------ --- ----- ------ ---- --- --------- --<br>------ a ---- -- --- ----------- ------- ---- ----- -----<br>--- -------- - ------ ---- -- ----- ---- --- --- -----------<br>-- -------,430022.69999999925,430022.2999999989,429718.393,429734.69999999925,429735.024,430035.002,,37,a
