sender,sender_type,sender_id,timestamp,meta,,Blues,Classical,Country,Dance,Electronic,Folk,Gospel,Hip-Hop,Jazz,Latin,Musical/Film,New-age,Pop,Prolific_id,Provo_ID,R&B,Rap,Reggae,Religious,Rock,Soul,Swing,Traditional,age,artist_name,correct,correctResponse,distraction,duration,education,ended_on,familiarity,gender,headphone_check_performance,item,list,music_frequency,offensiveness,pleasantness,position_correct,preference,response,response_action,snippet_file,song_name,song_rating,sound,stimulus_1,stimulus_2,stimulus_3,text,time_commit,time_end,time_render,time_run,time_show,time_switch,url,word,word_ID
Prolific ID,html.Form,0,2022-05-10T16:22:51.881Z,"{""labjs_version"":""20.2.2"",""labjs_build"":{""flavor"":""production"",""commit"":""a25486e0c714a0ae2ce03ff94b7bb6896854dcfa""},""location"":""https://run.pavlovia.org/mvasilev/prolific3_music_b/"",""userAgent"":""Mozilla/5.0 (Macintosh; Intel Mac OS X 10_15_7) AppleWebKit/537.36 (KHTML, like Gecko) Chrome/101.0.4951.54 Safari/537.36"",""platform"":""MacIntel"",""language"":""en-GB"",""locale"":""en-GB"",""timeZone"":""Europe/London"",""timezoneOffset"":-60,""screen_width"":1440,""screen_height"":900,""scroll_width"":1440,""scroll_height"":773,""window_innerWidth"":1440,""window_innerHeight"":821,""devicePixelRatio"":1}",,,,,,,,,,,,,,,5aa670b41eda41000136d80a,,,,,,,,,,,,,,,8892.552999988078,,form submission,,,,,,,,,,,,,,,,,,,,,18710.69999998808,18709.69999998808,9783.725,9791.899999976158,9817.147,18707.605,{},,
Introduction,html.Screen,1_0,2022-05-10T16:22:56.736Z,,,,,,,,,,,,,,,,,,,,,,,,,,,,,,,4853.194999952317,,response,,,,,,,,,,,continue,click button,,,,,,,,,23565.69999998808,23560.799999952316,18690.894,18711.599999964237,18707.605,23570.506,,,
Volume calibration,html.Screen,1_1,2022-05-10T16:23:04.247Z,,,,,,,,,,,,,,,,,,,,,,,,,,,,,,,7497.493999999999,,response,,,,,,,,,,,continue,click button,,,,,,,,,31076,31068,23553.795,23566,23570.506,31073.981,,,
Task instructions,html.Screen,1_2,2022-05-10T16:23:09.341Z,,,,,,,,,,,,,,,,,,,,,,,,,,,,,,,5093.118999964237,,response,,,,,,,,,,,continue,click button,,,,,,,,,36169.5,36167.09999996424,31057.27,31076.19999998808,31073.981,36171.02,,,
Sounds,html.Screen,1_3_0_0,2022-05-10T16:23:13.575Z,,,,,,,,,,,,,,,,,,,,,,,,,,,,,,,4244.594000000005,,timeout,,,,,,,,,3,,,,,,,,I,O,S,,40404.09999996424,40398.903,36154.309,36169.89999997616,36171.02,40415.614,,,
Judgement,html.Screen,1_3_0_1,2022-05-10T16:23:14.825Z,,,,,,,,,,,,,,,,,,,,,,,,,,,,true,3,,1235.5859999880777,,response,,,,,,,,,3,,3,click #choice-3,,,,,I,O,S,,41653.69999998808,41651.19999998808,40398.903,40404.39999997616,40415.614,41668.939,,,
Trial,flow.Sequence,1_3_0,2022-05-10T16:23:14.826Z,,,,,,,,,,,,,,,,,,,,,,,,,,,,,,,5480.179999988082,,completion,,,,,,,,,3,,,,,,,,I,O,S,,41654.19999998808,41651.19999998808,36154.309,36169.799999952316,36171.02,41668.939,,,
Sounds,html.Screen,1_3_1_0,2022-05-10T16:23:19.070Z,,,,,,,,,,,,,,,,,,,,,,,,,,,,,,,4244.594000000005,,timeout,,,,,,,,,2,,,,,,,,O,S,I,,45898.5,45896.822,41652.228,41654.39999997616,41668.939,45913.533,,,
Judgement,html.Screen,1_3_1_1,2022-05-10T16:23:19.651Z,,,,,,,,,,,,,,,,,,,,,,,,,,,,true,2,,563.7669999523132,,response,,,,,,,,,2,,2,click #choice-2,,,,,O,S,I,,46479.89999997616,46477.299999952316,45896.822,45899.299999952316,45913.533,46481.707,,,
Trial,flow.Sequence,1_3_1,2022-05-10T16:23:19.652Z,,,,,,,,,,,,,,,,,,,,,,,,,,,,,,,4808.360999952318,,completion,,,,,,,,,2,,,,,,,,O,S,I,,46480.39999997616,46477.299999952316,41652.228,41654.39999997616,41668.939,46481.707,,,
Sounds,html.Screen,1_3_2_0,2022-05-10T16:23:23.886Z,,,,,,,,,,,,,,,,,,,,,,,,,,,,,,,4244.814999999995,,timeout,,,,,,,,,3,,,,,,,,O,I,S,,50714.19999998808,50709.811,46464.996,46480.89999997616,46481.707,50726.522,,,
Judgement,html.Screen,1_3_2_1,2022-05-10T16:23:24.414Z,,,,,,,,,,,,,,,,,,,,,,,,,,,,true,3,,513.1779999880819,,response,,,,,,,,,3,,3,click #choice-3,,,,,O,I,S,,51242.09999996424,51239.69999998808,50709.811,50714.39999997616,50726.522,51244.563,,,
Trial,flow.Sequence,1_3_2,2022-05-10T16:23:24.414Z,,,,,,,,,,,,,,,,,,,,,,,,,,,,,,,4757.992999988077,,completion,,,,,,,,,3,,,,,,,,O,I,S,,51242.59999996424,51239.69999998808,46464.996,46480.59999996424,46481.707,51244.563,,,
Sounds,html.Screen,1_3_3_0,2022-05-10T16:23:28.646Z,,,,,,,,,,,,,,,,,,,,,,,,,,,,,,,4244.593999999997,,timeout,,,,,,,,,1,,,,,,,,S,O,I,,55474.299999952316,55472.446,51227.852,51242.89999997616,51244.563,55489.157,,,
Judgement,html.Screen,1_3_3_1,2022-05-10T16:23:29.193Z,,,,,,,,,,,,,,,,,,,,,,,,,,,,true,1,,529.5429999880798,,response,,,,,,,,,1,,1,click #choice-1,,,,,S,O,I,,56021.19999998808,56018.69999998808,55472.446,55474.5,55489.157,56023.909,,,
Trial,flow.Sequence,1_3_3,2022-05-10T16:23:29.193Z,,,,,,,,,,,,,,,,,,,,,,,,,,,,,,,4774.136999988077,,completion,,,,,,,,,1,,,,,,,,S,O,I,,56021.5,56018.69999998808,51227.852,51242.799999952316,51244.563,56023.909,,,
Sounds,html.Screen,1_3_4_0,2022-05-10T16:23:33.426Z,,,,,,,,,,,,,,,,,,,,,,,,,,,,,,,4244.593999999997,,timeout,,,,,,,,,1,,,,,,,,S,I,O,,60254.299999952316,60251.792,56007.198,56021.799999952316,56023.909,60268.503,,,
Judgement,html.Screen,1_3_4_1,2022-05-10T16:23:33.922Z,,,,,,,,,,,,,,,,,,,,,,,,,,,,true,1,,478.997000000003,,response,,,,,,,,,1,,1,click #choice-1,,,,,S,I,O,,60750.39999997616,60747.5,60251.792,60254.5,60268.503,60753.296,,,
Trial,flow.Sequence,1_3_4,2022-05-10T16:23:33.923Z,,,,,,,,,,,,,,,,,,,,,,,,,,,,,,,4723.591,,completion,,,,,,,,,1,,,,,,,,S,I,O,,60750.59999996424,60747.5,56007.198,56021.69999998808,56023.909,60753.296,,,
Sounds,html.Screen,1_3_5_0,2022-05-10T16:23:38.154Z,,,,,,,,,,,,,,,,,,,,,,,,,,,,,,,4244.593999999997,,timeout,,,,,,,,,2,,,,,,,,I,S,O,,64982.19999998808,64981.179,60736.585,60750.799999952316,60753.296,64997.89,,,
Judgement,html.Screen,1_3_5_1,2022-05-10T16:23:38.807Z,,,,,,,,,,,,,,,,,,,,,,,,,,,,true,2,,634.1100000000006,,response,,,,,,,,,2,,2,click #choice-2,,,,,I,S,O,,65634.69999998808,65632,64981.179,64982.39999997616,64997.89,65649.619,,,
Trial,flow.Sequence,1_3_5,2022-05-10T16:23:38.807Z,,,,,,,,,,,,,,,,,,,,,,,,,,,,,,,4878.703999999998,,completion,,,,,,,,,2,,,,,,,,I,S,O,,65635.09999996424,65632,60736.585,60750.69999998808,60753.296,65649.619,,,
Task,flow.Loop,1_3,2022-05-10T16:23:38.815Z,,,,,,,,,,,,,,,,,,,,,,,,,,,,,,,29460.980000000003,,completion,,,1,,,,,,,,,,,,,,,,,,65642.5,65632,36154.309,36169.69999998808,36171.02,65649.619,,,
Trap,html.Screen,1_4,2022-05-10T16:23:38.816Z,,,,,,,,,,,,,,,,,,,,,,,,,,,,,,,NaN,,skipped,,,,,,,,,,,,,,,,,,,,,65644.29999995232,65632,,65644.09999996424,,65649.619,,,
Thanks,html.Screen,1_5,2022-05-10T16:23:43.152Z,,,,,,,,,,,,,,,,,,,,,,,,,,,,,,,4327.880999999994,,response,,,,,,,,,,,continue,click button,,,,,,,,,69980,69977.5,65632.908,65644.39999997616,65649.619,72100.272,,,
Headphone screening,flow.Sequence,1,2022-05-10T16:23:43.153Z,,,,,,,,,,,,,,,,,,,,,,,,,,,,,,,51269.895000000004,,completion,,,,,,,,,,,,,,,,,,,,,69980.39999997616,69977.5,18690.894,18711.5,18707.605,72100.272,,,
Instructions,html.Page,2_0,2022-05-10T16:24:01.994Z,,,,,,,,,,,,,,,,,,,,,,,,,,,,,,,16720.12799997616,,form submission,,,,,,,,,,,,,,,,,,,,,88820.89999997616,88820.39999997616,72083.561,72101.5,72100.272,88828.353,,,
Holding screen,html.Screen,2_1_0_0,2022-05-10T16:24:11.980Z,,,,,,,,,,,,,,,,,,,,,,,,,,,,,,,9993.178,,timeout,,,,,,,,,,,,,,,,,,,,,98806.69999998808,98804.82,88811.642,88821.09999996424,88828.353,98821.531,,,
screen,html.Screen,2_1_0_1_0,2022-05-10T16:24:12.869Z,,,,,,,,,,,,,,,,,53,,,,,,,,,,,,,,855.8689999761555,,response,,,,99,,,,,,,Space,keypress(Space),,,,,,,,When -- ----- -- ------ - ------- --- ----------<br>------------- ------ ------ ---- ---- ------- ----- -- ----<br>-------- ------- -- ---------- --- - --- ----- ----- ----<br>---- --- --- ----- --- ---- ---- ------- ----- ---- -------<br>--- --- -- ----- -- --- ---- -- --- ---- -- ------ ------<br>--- ----- -- ----,99696.19999998808,99677.39999997616,98804.82,98807,98821.531,99707.214,,0,When
screen,html.Screen,2_1_0_1_1,2022-05-10T16:24:13.242Z,,,,,,,,,,,,,,,,,53,,,,,,,,,,,,,,356.88599996423,,response,,,,99,,,,,,,Space,keypress(Space),,,,,,,,---- it ----- -- ------ - ------- --- ----------<br>------------- ------ ------ ---- ---- ------- ----- -- ----<br>-------- ------- -- ---------- --- - --- ----- ----- ----<br>---- --- --- ----- --- ---- ---- ------- ----- ---- -------<br>--- --- -- ----- -- --- ---- -- --- ---- -- ------ ------<br>--- ----- -- ----,100069.09999996424,100064.09999996424,99690.503,99696.39999997616,99707.214,100075.061,,1,it
screen,html.Screen,2_1_0_1_2,2022-05-10T16:24:13.599Z,,,,,,,,,,,,,,,,,53,,,,,,,,,,,,,,346.0389999642357,,response,,,,99,,,,,,,Space,keypress(Space),,,,,,,,---- -- comes -- ------ - ------- --- ----------<br>------------- ------ ------ ---- ---- ------- ----- -- ----<br>-------- ------- -- ---------- --- - --- ----- ----- ----<br>---- --- --- ----- --- ---- ---- ------- ----- ---- -------<br>--- --- -- ----- -- --- ---- -- --- ---- -- ------ ------<br>--- ----- -- ----,100426.09999996424,100421.09999996424,100058.35,100069.29999995232,100075.061,100442.703,,2,comes
screen,html.Screen,2_1_0_1_3,2022-05-10T16:24:13.948Z,,,,,,,,,,,,,,,,,53,,,,,,,,,,,,,,327.39699996424315,,response,,,,99,,,,,,,Space,keypress(Space),,,,,,,,---- -- ----- to ------ - ------- --- ----------<br>------------- ------ ------ ---- ---- ------- ----- -- ----<br>-------- ------- -- ---------- --- - --- ----- ----- ----<br>---- --- --- ----- --- ---- ---- ------- ----- ---- -------<br>--- --- -- ----- -- --- ---- -- --- ---- -- ------ ------<br>--- ----- -- ----,100775,100770.09999996424,100425.992,100426.29999995232,100442.703,100776.923,,3,to
screen,html.Screen,2_1_0_1_4,2022-05-10T16:24:14.345Z,,,,,,,,,,,,,,,,,53,,,,,,,,,,,,,,390.0770000000048,,response,,,,99,,,,,,,Space,keypress(Space),,,,,,,,---- -- ----- -- having - ------- --- ----------<br>------------- ------ ------ ---- ---- ------- ----- -- ----<br>-------- ------- -- ---------- --- - --- ----- ----- ----<br>---- --- --- ----- --- ---- ---- ------- ----- ---- -------<br>--- --- -- ----- -- --- ---- -- --- ---- -- ------ ------<br>--- ----- -- ----,101172,101167,100760.212,100775.19999998808,100776.923,101177.987,,4,having
screen,html.Screen,2_1_0_1_5,2022-05-10T16:24:14.675Z,,,,,,,,,,,,,,,,,53,,,,,,,,,,,,,,319.0130000000063,,response,,,,99,,,,,,,Space,keypress(Space),,,,,,,,---- -- ----- -- ------ a ------- --- ----------<br>------------- ------ ------ ---- ---- ------- ----- -- ----<br>-------- ------- -- ---------- --- - --- ----- ----- ----<br>---- --- --- ----- --- ---- ---- ------- ----- ---- -------<br>--- --- -- ----- -- --- ---- -- --- ---- -- ------ ------<br>--- ----- -- ----,101501.89999997616,101497,101161.276,101172.19999998808,101177.987,101512.207,,5,a
screen,html.Screen,2_1_0_1_6,2022-05-10T16:24:15.071Z,,,,,,,,,,,,,,,,,53,,,,,,,,,,,,,,380.7930000000051,,response,,,,99,,,,,,,Space,keypress(Space),,,,,,,,---- -- ----- -- ------ - lasting --- ----------<br>------------- ------ ------ ---- ---- ------- ----- -- ----<br>-------- ------- -- ---------- --- - --- ----- ----- ----<br>---- --- --- ----- --- ---- ---- ------- ----- ---- -------<br>--- --- -- ----- -- --- ---- -- --- ---- -- ------ ------<br>--- ----- -- ----,101897.79999995232,101893,101495.496,101502.09999996424,101512.207,101913.271,,6,lasting
screen,html.Screen,2_1_0_1_7,2022-05-10T16:24:15.470Z,,,,,,,,,,,,,,,,,53,,,,,,,,,,,,,,378.6289999761648,,response,,,,99,,,,,,,Space,keypress(Space),,,,,,,,---- -- ----- -- ------ - ------- and ----------<br>------------- ------ ------ ---- ---- ------- ----- -- ----<br>-------- ------- -- ---------- --- - --- ----- ----- ----<br>---- --- --- ----- --- ---- ---- ------- ----- ---- -------<br>--- --- -- ----- -- --- ---- -- --- ---- -- ------ ------<br>--- ----- -- ----,102296.69999998808,102291.89999997616,101896.56,101898,101913.271,102297.624,,7,and
screen,html.Screen,2_1_0_1_8,2022-05-10T16:24:15.888Z,,,,,,,,,,,,,,,,,53,,,,,,,,,,,,,,412.1759999523201,,response,,,,99,,,,,,,Space,keypress(Space),,,,,,,,---- -- ----- -- ------ - ------- --- fulfilling<br>------------- ------ ------ ---- ---- ------- ----- -- ----<br>-------- ------- -- ---------- --- - --- ----- ----- ----<br>---- --- --- ----- --- ---- ---- ------- ----- ---- -------<br>--- --- -- ----- -- --- ---- -- --- ---- -- ------ ------<br>--- ----- -- ----,102714.89999997616,102709.79999995232,102280.913,102297,102297.624,102732.11,,8,fulfilling
screen,html.Screen,2_1_0_1_9,2022-05-10T16:24:16.275Z,,,,,,,,,,,,,,,,,53,,,,,,,,,,,,,,364.78999997615756,,response,,,,99,,,,,,,Space,keypress(Space),,,,,,,,"---- -- ----- -- ------ - ------- --- ----------<br>relationship, ------ ------ ---- ---- ------- ----- -- ----<br>-------- ------- -- ---------- --- - --- ----- ----- ----<br>---- --- --- ----- --- ---- ---- ------- ----- ---- -------<br>--- --- -- ----- -- --- ---- -- --- ---- -- ------ ------<br>--- ----- -- ----",103101.79999995232,103096.89999997616,102715.399,102715.09999996424,102732.11,103116.463,,9,"relationship,"
screen,html.Screen,2_1_0_1_10,2022-05-10T16:24:16.635Z,,,,,,,,,,,,,,,,,53,,,,,,,,,,,,,,340.43699997615477,,response,,,,99,,,,,,,Space,keypress(Space),,,,,,,,---- -- ----- -- ------ - ------- --- ----------<br>------------- common ------ ---- ---- ------- ----- -- ----<br>-------- ------- -- ---------- --- - --- ----- ----- ----<br>---- --- --- ----- --- ---- ---- ------- ----- ---- -------<br>--- --- -- ----- -- --- ---- -- --- ---- -- ------ ------<br>--- ----- -- ----,103461.89999997616,103456.89999997616,103099.752,103102,103116.463,103467.394,,10,common
screen,html.Screen,2_1_0_1_11,2022-05-10T16:24:16.869Z,,,,,,,,,,,,,,,,,53,,,,,,,,,,,,,,223.40599995231605,,response,,,,99,,,,,,,Space,keypress(Space),,,,,,,,---- -- ----- -- ------ - ------- --- ----------<br>------------- ------ wisdom ---- ---- ------- ----- -- ----<br>-------- ------- -- ---------- --- - --- ----- ----- ----<br>---- --- --- ----- --- ---- ---- ------- ----- ---- -------<br>--- --- -- ----- -- --- ---- -- --- ---- -- ------ ------<br>--- ----- -- ----,103695.5,103690.79999995232,103450.683,103462.09999996424,103467.394,103701.348,,11,wisdom
screen,html.Screen,2_1_0_1_12,2022-05-10T16:24:17.242Z,,,,,,,,,,,,,,,,,53,,,,,,,,,,,,,,362.55199997616,,response,,,,99,,,,,,,Space,keypress(Space),,,,,,,,---- -- ----- -- ------ - ------- --- ----------<br>------------- ------ ------ says ---- ------- ----- -- ----<br>-------- ------- -- ---------- --- - --- ----- ----- ----<br>---- --- --- ----- --- ---- ---- ------- ----- ---- -------<br>--- --- -- ----- -- --- ---- -- --- ---- -- ------ ------<br>--- ----- -- ----,104068.79999995232,104063.89999997616,103684.637,103695.79999995232,103701.348,104085.701,,12,says
screen,html.Screen,2_1_0_1_13,2022-05-10T16:24:17.610Z,,,,,,,,,,,,,,,,,53,,,,,,,,,,,,,,346.1989999761572,,response,,,,99,,,,,,,Space,keypress(Space),,,,,,,,---- -- ----- -- ------ - ------- --- ----------<br>------------- ------ ------ ---- that ------- ----- -- ----<br>-------- ------- -- ---------- --- - --- ----- ----- ----<br>---- --- --- ----- --- ---- ---- ------- ----- ---- -------<br>--- --- -- ----- -- --- ---- -- --- ---- -- ------ ------<br>--- ----- -- ----,104436.79999995232,104431.89999997616,104068.99,104069,104085.701,104453.343,,13,that
screen,html.Screen,2_1_0_1_14,2022-05-10T16:24:17.972Z,,,,,,,,,,,,,,,,,53,,,,,,,,,,,,,,340.3569999880856,,response,,,,99,,,,,,,Space,keypress(Space),,,,,,,,---- -- ----- -- ------ - ------- --- ----------<br>------------- ------ ------ ---- ---- feeling ----- -- ----<br>-------- ------- -- ---------- --- - --- ----- ----- ----<br>---- --- --- ----- --- ---- ---- ------- ----- ---- -------<br>--- --- -- ----- -- --- ---- -- --- ---- -- ------ ------<br>--- ----- -- ----,104798.69999998808,104793.69999998808,104436.632,104437,104453.343,104804.274,,14,feeling
screen,html.Screen,2_1_0_1_15,2022-05-10T16:24:18.344Z,,,,,,,,,,,,,,,,,53,,,,,,,,,,,,,,361.5259999523114,,response,,,,99,,,,,,,Space,keypress(Space),,,,,,,,---- -- ----- -- ------ - ------- --- ----------<br>------------- ------ ------ ---- ---- ------- close -- ----<br>-------- ------- -- ---------- --- - --- ----- ----- ----<br>---- --- --- ----- --- ---- ---- ------- ----- ---- -------<br>--- --- -- ----- -- --- ---- -- --- ---- -- ------ ------<br>--- ----- -- ----,105171,105165.79999995232,104787.563,104798.89999997616,104804.274,105171.916,,15,close
screen,html.Screen,2_1_0_1_16,2022-05-10T16:24:18.718Z,,,,,,,,,,,,,,,,,53,,,,,,,,,,,,,,367.88399995231885,,response,,,,99,,,,,,,Space,keypress(Space),,,,,,,,---- -- ----- -- ------ - ------- --- ----------<br>------------- ------ ------ ---- ---- ------- ----- to ----<br>-------- ------- -- ---------- --- - --- ----- ----- ----<br>---- --- --- ----- --- ---- ---- ------- ----- ---- -------<br>--- --- -- ----- -- --- ---- -- --- ---- -- ------ ------<br>--- ----- -- ----,105544.69999998808,105539.79999995232,105155.205,105171.19999998808,105171.916,105556.269,,16,to
screen,html.Screen,2_1_0_1_17,2022-05-10T16:24:19.142Z,,,,,,,,,,,,,,,,,53,,,,,,,,,,,,,,407.53099995231605,,response,,,,99,,,,,,,Space,keypress(Space),,,,,,,,---- -- ----- -- ------ - ------- --- ----------<br>------------- ------ ------ ---- ---- ------- ----- -- your<br>-------- ------- -- ---------- --- - --- ----- ----- ----<br>---- --- --- ----- --- ---- ---- ------- ----- ---- -------<br>--- --- -- ----- -- --- ---- -- --- ---- -- ------ ------<br>--- ----- -- ----,105968.69999998808,105963.79999995232,105539.558,105544.89999997616,105556.269,105974.044,,17,your
screen,html.Screen,2_1_0_1_18,2022-05-10T16:24:19.548Z,,,,,,,,,,,,,,,,,53,,,,,,,,,,,,,,395.5559999642428,,response,,,,99,,,,,,,Space,keypress(Space),,,,,,,,---- -- ----- -- ------ - ------- --- ----------<br>------------- ------ ------ ---- ---- ------- ----- -- ----<br>romantic ------- -- ---------- --- - --- ----- ----- ----<br>---- --- --- ----- --- ---- ---- ------- ----- ---- -------<br>--- --- -- ----- -- --- ---- -- --- ---- -- ------ ------<br>--- ----- -- ----,106374.5,106369.59999996424,105957.333,105968.89999997616,105974.044,106391.819,,18,romantic
screen,html.Screen,2_1_0_1_19,2022-05-10T16:24:19.876Z,,,,,,,,,,,,,,,,,53,,,,,,,,,,,,,,305.78099996423407,,response,,,,99,,,,,,,Space,keypress(Space),,,,,,,,---- -- ----- -- ------ - ------- --- ----------<br>------------- ------ ------ ---- ---- ------- ----- -- ----<br>-------- partner -- ---------- --- - --- ----- ----- ----<br>---- --- --- ----- --- ---- ---- ------- ----- ---- -------<br>--- --- -- ----- -- --- ---- -- --- ---- -- ------ ------<br>--- ----- -- ----,106702.59999996424,106697.59999996424,106375.108,106374.69999998808,106391.819,106709.328,,19,partner
screen,html.Screen,2_1_0_1_20,2022-05-10T16:24:20.150Z,,,,,,,,,,,,,,,,,53,,,,,,,,,,,,,,262.371999988085,,response,,,,99,,,,,,,Space,keypress(Space),,,,,,,,---- -- ----- -- ------ - ------- --- ----------<br>------------- ------ ------ ---- ---- ------- ----- -- ----<br>-------- ------- is ---------- --- - --- ----- ----- ----<br>---- --- --- ----- --- ---- ---- ------- ----- ---- -------<br>--- --- -- ----- -- --- ---- -- --- ---- -- ------ ------<br>--- ----- -- ----,106976.5,106971.69999998808,106692.617,106702.69999998808,106709.328,106993.415,,20,is
screen,html.Screen,2_1_0_1_21,2022-05-10T16:24:20.473Z,,,,,,,,,,,,,,,,,53,,,,,,,,,,,,,,301.1849999642436,,response,,,,99,,,,,,,Space,keypress(Space),,,,,,,,---- -- ----- -- ------ - ------- --- ----------<br>------------- ------ ------ ---- ---- ------- ----- -- ----<br>-------- ------- -- paramount. --- - --- ----- ----- ----<br>---- --- --- ----- --- ---- ---- ------- ----- ---- -------<br>--- --- -- ----- -- --- ---- -- --- ---- -- ------ ------<br>--- ----- -- ----,107299.5,107294.59999996424,106976.704,106976.69999998808,106993.415,107310.924,,21,paramount.
screen,html.Screen,2_1_0_1_22,2022-05-10T16:24:20.779Z,,,,,,,,,,,,,,,,,53,,,,,,,,,,,,,,289.77599998808,,response,,,,99,,,,,,,Space,keypress(Space),,,,,,,,---- -- ----- -- ------ - ------- --- ----------<br>------------- ------ ------ ---- ---- ------- ----- -- ----<br>-------- ------- -- ---------- But - --- ----- ----- ----<br>---- --- --- ----- --- ---- ---- ------- ----- ---- -------<br>--- --- -- ----- -- --- ---- -- --- ---- -- ------ ------<br>--- ----- -- ----,107605.69999998808,107600.69999998808,107294.213,107299.59999996424,107310.924,107611.722,,22,But
screen,html.Screen,2_1_0_1_23,2022-05-10T16:24:21.012Z,,,,,,,,,,,,,,,,,53,,,,,,,,,,,,,,221.97799998808478,,response,,,,99,,,,,,,Space,keypress(Space),,,,,,,,---- -- ----- -- ------ - ------- --- ----------<br>------------- ------ ------ ---- ---- ------- ----- -- ----<br>-------- ------- -- ---------- --- a --- ----- ----- ----<br>---- --- --- ----- --- ---- ---- ------- ----- ---- -------<br>--- --- -- ----- -- --- ---- -- --- ---- -- ------ ------<br>--- ----- -- ----,107838.5,107833.69999998808,107595.011,107605.79999995232,107611.722,107845.676,,23,a
screen,html.Screen,2_1_0_1_24,2022-05-10T16:24:21.407Z,,,,,,,,,,,,,,,,,53,,,,,,,,,,,,,,383.0239999880723,,response,,,,99,,,,,,,Space,keypress(Space),,,,,,,,---- -- ----- -- ------ - ------- --- ----------<br>------------- ------ ------ ---- ---- ------- ----- -- ----<br>-------- ------- -- ---------- --- - new ----- ----- ----<br>---- --- --- ----- --- ---- ---- ------- ----- ---- -------<br>--- --- -- ----- -- --- ---- -- --- ---- -- ------ ------<br>--- ----- -- ----,108233.59999996424,108228.69999998808,107828.965,107838.69999998808,107845.676,108246.74,,24,new
screen,html.Screen,2_1_0_1_25,2022-05-10T16:24:21.671Z,,,,,,,,,,,,,,,,,53,,,,,,,,,,,,,,245.85999996423197,,response,,,,99,,,,,,,Space,keypress(Space),,,,,,,,---- -- ----- -- ------ - ------- --- ----------<br>------------- ------ ------ ---- ---- ------- ----- -- ----<br>-------- ------- -- ---------- --- - --- study ----- ----<br>---- --- --- ----- --- ---- ---- ------- ----- ---- -------<br>--- --- -- ----- -- --- ---- -- --- ---- -- ------ ------<br>--- ----- -- ----,108497.39999997616,108492.59999996424,108230.029,108233.69999998808,108246.74,108514.116,,25,study
screen,html.Screen,2_1_0_1_26,2022-05-10T16:24:22.069Z,,,,,,,,,,,,,,,,,53,,,,,,,,,,,,,,376.58399998808454,,response,,,,99,,,,,,,Space,keypress(Space),,,,,,,,---- -- ----- -- ------ - ------- --- ----------<br>------------- ------ ------ ---- ---- ------- ----- -- ----<br>-------- ------- -- ---------- --- - --- ----- finds ----<br>---- --- --- ----- --- ---- ---- ------- ----- ---- -------<br>--- --- -- ----- -- --- ---- -- --- ---- -- ------ ------<br>--- ----- -- ----,108895.5,108890.69999998808,108497.405,108497.69999998808,108514.116,108898.469,,26,finds
screen,html.Screen,2_1_0_1_27,2022-05-10T16:24:22.426Z,,,,,,,,,,,,,,,,,53,,,,,,,,,,,,,,349.1309999642399,,response,,,,99,,,,,,,Space,keypress(Space),,,,,,,,---- -- ----- -- ------ - ------- --- ----------<br>------------- ------ ------ ---- ---- ------- ----- -- ----<br>-------- ------- -- ---------- --- - --- ----- ----- that<br>---- --- --- ----- --- ---- ---- ------- ----- ---- -------<br>--- --- -- ----- -- --- ---- -- --- ---- -- ------ ------<br>--- ----- -- ----,109252.5,109247.59999996424,108881.758,108895.59999996424,108898.469,109266.111,,27,that
screen,html.Screen,2_1_0_1_28,2022-05-10T16:24:22.807Z,,,,,,,,,,,,,,,,,53,,,,,,,,,,,,,,362.4889999642328,,response,,,,99,,,,,,,Space,keypress(Space),,,,,,,,---- -- ----- -- ------ - ------- --- ----------<br>------------- ------ ------ ---- ---- ------- ----- -- ----<br>-------- ------- -- ---------- --- - --- ----- ----- ----<br>it's --- --- ----- --- ---- ---- ------- ----- ---- -------<br>--- --- -- ----- -- --- ---- -- --- ---- -- ------ ------<br>--- ----- -- ----,109633.29999995232,109628.59999996424,109249.4,109252.69999998808,109266.111,109650.583,,28,it's
screen,html.Screen,2_1_0_1_29,2022-05-10T16:24:23.159Z,,,,,,,,,,,,,,,,,53,,,,,,,,,,,,,,330.0169999642385,,response,,,,99,,,,,,,Space,keypress(Space),,,,,,,,---- -- ----- -- ------ - ------- --- ----------<br>------------- ------ ------ ---- ---- ------- ----- -- ----<br>-------- ------- -- ---------- --- - --- ----- ----- ----<br>---- not --- ----- --- ---- ---- ------- ----- ---- -------<br>--- --- -- ----- -- --- ---- -- --- ---- -- ------ ------<br>--- ----- -- ----,109985.79999995232,109980.59999996424,109633.872,109633.5,109650.583,110001.514,,29,not
screen,html.Screen,2_1_0_1_30,2022-05-10T16:24:23.457Z,,,,,,,,,,,,,,,,,53,,,,,,,,,,,,,,277.08599996424164,,response,,,,99,,,,,,,Space,keypress(Space),,,,,,,,---- -- ----- -- ------ - ------- --- ----------<br>------------- ------ ------ ---- ---- ------- ----- -- ----<br>-------- ------- -- ---------- --- - --- ----- ----- ----<br>---- --- how ----- --- ---- ---- ------- ----- ---- -------<br>--- --- -- ----- -- --- ---- -- --- ---- -- ------ ------<br>--- ----- -- ----,110283.29999995232,110278.59999996424,109984.803,109986,110001.514,110285.601,,30,how
screen,html.Screen,2_1_0_1_31,2022-05-10T16:24:23.788Z,,,,,,,,,,,,,,,,,53,,,,,,,,,,,,,,323.8990000000049,,response,,,,99,,,,,,,Space,keypress(Space),,,,,,,,---- -- ----- -- ------ - ------- --- ----------<br>------------- ------ ------ ---- ---- ------- ----- -- ----<br>-------- ------- -- ---------- --- - --- ----- ----- ----<br>---- --- --- close --- ---- ---- ------- ----- ---- -------<br>--- --- -- ----- -- --- ---- -- --- ---- -- ------ ------<br>--- ----- -- ----,110614.29999995232,110609.5,110268.89,110283.5,110285.601,110619.821,,31,close
screen,html.Screen,2_1_0_1_32,2022-05-10T16:24:24.067Z,,,,,,,,,,,,,,,,,53,,,,,,,,,,,,,,268.77899996424094,,response,,,,99,,,,,,,Space,keypress(Space),,,,,,,,---- -- ----- -- ------ - ------- --- ----------<br>------------- ------ ------ ---- ---- ------- ----- -- ----<br>-------- ------- -- ---------- --- - --- ----- ----- ----<br>---- --- --- ----- you ---- ---- ------- ----- ---- -------<br>--- --- -- ----- -- --- ---- -- --- ---- -- ------ ------<br>--- ----- -- ----,110893.39999997616,110888.59999996424,110603.11,110614.59999996424,110619.821,110903.908,,32,you
screen,html.Screen,2_1_0_1_33,2022-05-10T16:24:24.304Z,,,,,,,,,,,,,,,,,53,,,,,,,,,,,,,,221.49199997616233,,response,,,,99,,,,,,,Space,keypress(Space),,,,,,,,---- -- ----- -- ------ - ------- --- ----------<br>------------- ------ ------ ---- ---- ------- ----- -- ----<br>-------- ------- -- ---------- --- - --- ----- ----- ----<br>---- --- --- ----- --- feel ---- ------- ----- ---- -------<br>--- --- -- ----- -- --- ---- -- --- ---- -- ------ ------<br>--- ----- -- ----,111130.29999995232,111125.39999997616,110887.197,110893.5,110903.908,111137.862,,33,feel
screen,html.Screen,2_1_0_1_34,2022-05-10T16:24:24.586Z,,,,,,,,,,,,,,,,,53,,,,,,,,,,,,,,269.53799997616443,,response,,,,99,,,,,,,Space,keypress(Space),,,,,,,,---- -- ----- -- ------ - ------- --- ----------<br>------------- ------ ------ ---- ---- ------- ----- -- ----<br>-------- ------- -- ---------- --- - --- ----- ----- ----<br>---- --- --- ----- --- ---- that ------- ----- ---- -------<br>--- --- -- ----- -- --- ---- -- --- ---- -- ------ ------<br>--- ----- -- ----,111412.29999995232,111407.39999997616,111121.151,111130.5,111137.862,111421.949,,34,that
screen,html.Screen,2_1_0_1_35,2022-05-10T16:24:24.866Z,,,,,,,,,,,,,,,,,53,,,,,,,,,,,,,,265.55100000000675,,response,,,,99,,,,,,,Space,keypress(Space),,,,,,,,---- -- ----- -- ------ - ------- --- ----------<br>------------- ------ ------ ---- ---- ------- ----- -- ----<br>-------- ------- -- ---------- --- - --- ----- ----- ----<br>---- --- --- ----- --- ---- ---- matters ----- ---- -------<br>--- --- -- ----- -- --- ---- -- --- ---- -- ------ ------<br>--- ----- -- ----,111692.29999995232,111687.5,111405.238,111412.39999997616,111421.949,111706.036,,35,matters
screen,html.Screen,2_1_0_1_36,2022-05-10T16:24:25.140Z,,,,,,,,,,,,,,,,,53,,,,,,,,,,,,,,255.36399997616536,,response,,,,99,,,,,,,Space,keypress(Space),,,,,,,,"---- -- ----- -- ------ - ------- --- ----------<br>------------- ------ ------ ---- ---- ------- ----- -- ----<br>-------- ------- -- ---------- --- - --- ----- ----- ----<br>---- --- --- ----- --- ---- ---- ------- most, ---- -------<br>--- --- -- ----- -- --- ---- -- --- ---- -- ------ ------<br>--- ----- -- ----",111966.29999995232,111961.39999997616,111689.325,111692.5,111706.036,111973.412,,36,"most,"
screen,html.Screen,2_1_0_1_37,2022-05-10T16:24:25.560Z,,,,,,,,,,,,,,,,,53,,,,,,,,,,,,,,407.0880000000034,,response,,,,99,,,,,,,Space,keypress(Space),,,,,,,,---- -- ----- -- ------ - ------- --- ----------<br>------------- ------ ------ ---- ---- ------- ----- -- ----<br>-------- ------- -- ---------- --- - --- ----- ----- ----<br>---- --- --- ----- --- ---- ---- ------- ----- it's -------<br>--- --- -- ----- -- --- ---- -- --- ---- -- ------ ------<br>--- ----- -- ----,112386.69999998808,112380.5,111956.701,111966.5,111973.412,112391.187,,37,it's
screen,html.Screen,2_1_0_1_38,2022-05-10T16:24:26.037Z,,,,,,,,,,,,,,,,,53,,,,,,,,,,,,,,467.2129999761528,,response,,,,99,,,,,,,Space,keypress(Space),,,,,,,,---- -- ----- -- ------ - ------- --- ----------<br>------------- ------ ------ ---- ---- ------- ----- -- ----<br>-------- ------- -- ---------- --- - --- ----- ----- ----<br>---- --- --- ----- --- ---- ---- ------- ----- ---- whether<br>--- --- -- ----- -- --- ---- -- --- ---- -- ------ ------<br>--- ----- -- ----,112863.59999996424,112858.39999997616,112374.476,112386.89999997616,112391.187,112875.806,,38,whether
screen,html.Screen,2_1_0_1_39,2022-05-10T16:24:26.367Z,,,,,,,,,,,,,,,,,53,,,,,,,,,,,,,,312.5939999761613,,response,,,,99,,,,,,,Space,keypress(Space),,,,,,,,---- -- ----- -- ------ - ------- --- ----------<br>------------- ------ ------ ---- ---- ------- ----- -- ----<br>-------- ------- -- ---------- --- - --- ----- ----- ----<br>---- --- --- ----- --- ---- ---- ------- ----- ---- -------<br>you --- -- ----- -- --- ---- -- --- ---- -- ------ ------<br>--- ----- -- ----,113193.19999998808,113188.39999997616,112859.095,112863.79999995232,112875.806,113210.026,,39,you
screen,html.Screen,2_1_0_1_40,2022-05-10T16:24:26.584Z,,,,,,,,,,,,,,,,,53,,,,,,,,,,,,,,195.37399997616012,,response,,,,99,,,,,,,Space,keypress(Space),,,,,,,,---- -- ----- -- ------ - ------- --- ----------<br>------------- ------ ------ ---- ---- ------- ----- -- ----<br>-------- ------- -- ---------- --- - --- ----- ----- ----<br>---- --- --- ----- --- ---- ---- ------- ----- ---- -------<br>--- are -- ----- -- --- ---- -- --- ---- -- ------ ------<br>--- ----- -- ----,113410.19999998808,113405.39999997616,113193.315,113193.39999997616,113210.026,113427.269,,40,are
screen,html.Screen,2_1_0_1_41,2022-05-10T16:24:26.982Z,,,,,,,,,,,,,,,,,53,,,,,,,,,,,,,,376.03099995231605,,response,,,,99,,,,,,,Space,keypress(Space),,,,,,,,---- -- ----- -- ------ - ------- --- ----------<br>------------- ------ ------ ---- ---- ------- ----- -- ----<br>-------- ------- -- ---------- --- - --- ----- ----- ----<br>---- --- --- ----- --- ---- ---- ------- ----- ---- -------<br>--- --- as ----- -- --- ---- -- --- ---- -- ------ ------<br>--- ----- -- ----,113808.19999998808,113803.29999995232,113410.558,113410.39999997616,113427.269,113811.622,,41,as
screen,html.Screen,2_1_0_1_42,2022-05-10T16:24:27.387Z,,,,,,,,,,,,,,,,,53,,,,,,,,,,,,,,396.7779999761551,,response,,,,99,,,,,,,Space,keypress(Space),,,,,,,,---- -- ----- -- ------ - ------- --- ----------<br>------------- ------ ------ ---- ---- ------- ----- -- ----<br>-------- ------- -- ---------- --- - --- ----- ----- ----<br>---- --- --- ----- --- ---- ---- ------- ----- ---- -------<br>--- --- -- close -- --- ---- -- --- ---- -- ------ ------<br>--- ----- -- ----,114213.69999998808,114208.39999997616,113794.911,113808.29999995232,113811.622,114229.397,,42,close
screen,html.Screen,2_1_0_1_43,2022-05-10T16:24:27.670Z,,,,,,,,,,,,,,,,,53,,,,,,,,,,,,,,261.9029999523191,,response,,,,99,,,,,,,Space,keypress(Space),,,,,,,,---- -- ----- -- ------ - ------- --- ----------<br>------------- ------ ------ ---- ---- ------- ----- -- ----<br>-------- ------- -- ---------- --- - --- ----- ----- ----<br>---- --- --- ----- --- ---- ---- ------- ----- ---- -------<br>--- --- -- ----- as --- ---- -- --- ---- -- ------ ------<br>--- ----- -- ----,114496,114491.29999995232,114212.686,114213.89999997616,114229.397,114513.484,,43,as
screen,html.Screen,2_1_0_1_44,2022-05-10T16:24:27.998Z,,,,,,,,,,,,,,,,,53,,,,,,,,,,,,,,297.81599995231954,,response,,,,99,,,,,,,Space,keypress(Space),,,,,,,,---- -- ----- -- ------ - ------- --- ----------<br>------------- ------ ------ ---- ---- ------- ----- -- ----<br>-------- ------- -- ---------- --- - --- ----- ----- ----<br>---- --- --- ----- --- ---- ---- ------- ----- ---- -------<br>--- --- -- ----- -- you ---- -- --- ---- -- ------ ------<br>--- ----- -- ----,114824.59999996424,114811.29999995232,114496.773,114496.19999998808,114513.484,114830.993,,44,you
screen,html.Screen,2_1_0_1_45,2022-05-10T16:24:28.303Z,,,,,,,,,,,,,,,,,53,,,,,,,,,,,,,,293.3069999523141,,response,,,,99,,,,,,,Space,keypress(Space),,,,,,,,---- -- ----- -- ------ - ------- --- ----------<br>------------- ------ ------ ---- ---- ------- ----- -- ----<br>-------- ------- -- ---------- --- - --- ----- ----- ----<br>---- --- --- ----- --- ---- ---- ------- ----- ---- -------<br>--- --- -- ----- -- --- want -- --- ---- -- ------ ------<br>--- ----- -- ----,115129.19999998808,115124.29999995232,114814.282,114824.79999995232,114830.993,115131.791,,45,want
screen,html.Screen,2_1_0_1_46,2022-05-10T16:24:28.556Z,,,,,,,,,,,,,,,,,53,,,,,,,,,,,,,,245.40899998808163,,response,,,,99,,,,,,,Space,keypress(Space),,,,,,,,---- -- ----- -- ------ - ------- --- ----------<br>------------- ------ ------ ---- ---- ------- ----- -- ----<br>-------- ------- -- ---------- --- - --- ----- ----- ----<br>---- --- --- ----- --- ---- ---- ------- ----- ---- -------<br>--- --- -- ----- -- --- ---- to --- ---- -- ------ ------<br>--- ----- -- ----,115382.09999996424,115377.19999998808,115115.08,115129.39999997616,115131.791,115399.167,,46,to
screen,html.Screen,2_1_0_1_47,2022-05-10T16:24:28.807Z,,,,,,,,,,,,,,,,,53,,,,,,,,,,,,,,229.132999952315,,response,,,,99,,,,,,,Space,keypress(Space),,,,,,,,"---- -- ----- -- ------ - ------- --- ----------<br>------------- ------ ------ ---- ---- ------- ----- -- ----<br>-------- ------- -- ---------- --- - --- ----- ----- ----<br>---- --- --- ----- --- ---- ---- ------- ----- ---- -------<br>--- --- -- ----- -- --- ---- -- be, ---- -- ------ ------<br>--- ----- -- ----",115633.09999996424,115628.29999995232,115382.456,115382.29999995232,115399.167,115649.832,,47,"be,"
screen,html.Screen,2_1_0_1_48,2022-05-10T16:24:29.197Z,,,,,,,,,,,,,,,,,53,,,,,,,,,,,,,,368.4679999523214,,response,,,,99,,,,,,,Space,keypress(Space),,,,,,,,---- -- ----- -- ------ - ------- --- ----------<br>------------- ------ ------ ---- ---- ------- ----- -- ----<br>-------- ------- -- ---------- --- - --- ----- ----- ----<br>---- --- --- ----- --- ---- ---- ------- ----- ---- -------<br>--- --- -- ----- -- --- ---- -- --- even -- ------ ------<br>--- ----- -- ----,116023.19999998808,116018.29999995232,115633.121,115633.29999995232,115649.832,116034.185,,48,even
screen,html.Screen,2_1_0_1_49,2022-05-10T16:24:29.570Z,,,,,,,,,,,,,,,,,53,,,,,,,,,,,,,,357.8150000000023,,response,,,,99,,,,,,,Space,keypress(Space),,,,,,,,---- -- ----- -- ------ - ------- --- ----------<br>------------- ------ ------ ---- ---- ------- ----- -- ----<br>-------- ------- -- ---------- --- - --- ----- ----- ----<br>---- --- --- ----- --- ---- ---- ------- ----- ---- -------<br>--- --- -- ----- -- --- ---- -- --- ---- if ------ ------<br>--- ----- -- ----,116396.79999995232,116392,116017.474,116023.39999997616,116034.185,116401.827,,49,if
screen,html.Screen,2_1_0_1_50,2022-05-10T16:24:29.890Z,,,,,,,,,,,,,,,,,53,,,,,,,,,,,,,,309.1729999999952,,response,,,,99,,,,,,,Space,keypress(Space),,,,,,,,---- -- ----- -- ------ - ------- --- ----------<br>------------- ------ ------ ---- ---- ------- ----- -- ----<br>-------- ------- -- ---------- --- - --- ----- ----- ----<br>---- --- --- ----- --- ---- ---- ------- ----- ---- -------<br>--- --- -- ----- -- --- ---- -- --- ---- -- that's ------<br>--- ----- -- ----,116715.89999997616,116711,116385.116,116397,116401.827,116719.336,,50,that's
screen,html.Screen,2_1_0_1_51,2022-05-10T16:24:30.312Z,,,,,,,,,,,,,,,,,53,,,,,,,,,,,,,,413.8639999880834,,response,,,,99,,,,,,,Space,keypress(Space),,,,,,,,---- -- ----- -- ------ - ------- --- ----------<br>------------- ------ ------ ---- ---- ------- ----- -- ----<br>-------- ------- -- ---------- --- - --- ----- ----- ----<br>---- --- --- ----- --- ---- ---- ------- ----- ---- -------<br>--- --- -- ----- -- --- ---- -- --- ---- -- ------ really<br>--- ----- -- ----,117138,117133.19999998808,116702.625,116716.09999996424,116719.336,117153.822,,51,really
screen,html.Screen,2_1_0_1_52,2022-05-10T16:24:30.753Z,,,,,,,,,,,,,,,,,53,,,,,,,,,,,,,,420.37799998807895,,response,,,,99,,,,,,,Space,keypress(Space),,,,,,,,---- -- ----- -- ------ - ------- --- ----------<br>------------- ------ ------ ---- ---- ------- ----- -- ----<br>-------- ------- -- ---------- --- - --- ----- ----- ----<br>---- --- --- ----- --- ---- ---- ------- ----- ---- -------<br>--- --- -- ----- -- --- ---- -- --- ---- -- ------ ------<br>not ----- -- ----,117579.09999996424,117574.19999998808,117137.111,117138.19999998808,117153.822,117588.308,,52,not
screen,html.Screen,2_1_0_1_53,2022-05-10T16:24:31.147Z,,,,,,,,,,,,,,,,,53,,,,,,,,,,,,,,379.7919999642327,,response,,,,99,,,,,,,Space,keypress(Space),,,,,,,,---- -- ----- -- ------ - ------- --- ----------<br>------------- ------ ------ ---- ---- ------- ----- -- ----<br>-------- ------- -- ---------- --- - --- ----- ----- ----<br>---- --- --- ----- --- ---- ---- ------- ----- ---- -------<br>--- --- -- ----- -- --- ---- -- --- ---- -- ------ ------<br>--- close -- ----,117973,117968.09999996424,117571.597,117579.19999998808,117588.308,117989.372,,53,close
screen,html.Screen,2_1_0_1_54,2022-05-10T16:24:31.558Z,,,,,,,,,,,,,,,,,53,,,,,,,,,,,,,,389.7279999642342,,response,,,,99,,,,,,,Space,keypress(Space),,,,,,,,---- -- ----- -- ------ - ------- --- ----------<br>------------- ------ ------ ---- ---- ------- ----- -- ----<br>-------- ------- -- ---------- --- - --- ----- ----- ----<br>---- --- --- ----- --- ---- ---- ------- ----- ---- -------<br>--- --- -- ----- -- --- ---- -- --- ---- -- ------ ------<br>--- ----- at ----,118384,118379.09999996424,117972.661,117973.09999996424,117989.372,118390.436,,54,at
screen,html.Screen,2_1_0_1_55,2022-05-10T16:24:32.128Z,,,,,,,,,,,,,,,,,53,,,,,,,,,,,,,,558.5639999999985,,response,,,,99,,,,,,,Space,keypress(Space),,,,,,,,---- -- ----- -- ------ - ------- --- ----------<br>------------- ------ ------ ---- ---- ------- ----- -- ----<br>-------- ------- -- ---------- --- - --- ----- ----- ----<br>---- --- --- ----- --- ---- ---- ------- ----- ---- -------<br>--- --- -- ----- -- --- ---- -- --- ---- -- ------ ------<br>--- ----- -- all.,118954,118949,118373.725,118384.09999996424,118390.436,118958.61,,55,all.
Item 99,flow.Loop,2_1_0_1,2022-05-10T16:24:32.128Z,,,,,,,,,,,,,,,,,,,,,,,,,,,,,,,20127.468999999997,,completion,,,,,B,,,,,,,,,,,silence,,,,,118954.29999995232,118949,98804.82,98807,98821.531,118958.61,,,
Question 1,html.Screen,2_1_0_2,2022-05-10T16:24:37.612Z,,,,,,,,,,,,,,,,,,,,,,,,,,,,false,FALSE,,5477.5899999880785,,response,,,,99,B,,,,,,TRUE,click #choice-1,,,,silence,,,,,124438.5,124436.19999998808,118941.899,118954.39999997616,118958.61,124440.052,,,
Question 2,html.Screen,2_1_0_3,2022-05-10T16:24:40.837Z,,,,,,,,,,,,,,,,,,,,,,,,,,,,true,TRUE,,3220.847999976162,,response,,,,99,B,,,,,,TRUE,click #choice-1,,,,silence,,,,,127663.19999998808,127660.89999997616,124423.341,124438.69999998808,124440.052,127665.275,,,
Item 99,flow.Sequence,2_1_0,2022-05-10T16:24:40.837Z,,,,,,,,,,,,,,,,,,,,,,,,,,,,,,,38832.546999976155,,completion,,,,,,,,,,,,,,,,,,,,,127663.5,127660.89999997616,88811.642,88821.09999996424,88828.353,127665.275,,,
Holding screen,html.Screen,2_1_1_0,2022-05-10T16:24:50.818Z,,,,,,,,,,,,,,,,,,,,,,,,,,,,,,,9993.37400000001,,timeout,,,,,,,,,,,,,,,,,,,,,137643.79999995232,137641.938,127648.564,127663.69999998808,127665.275,137658.649,,,
screen,html.Screen,2_1_1_1_0,2022-05-10T16:24:52.240Z,,,,,,,,,,,,,,,,,54,,,,,,,,,,,,,,1401.850999999995,,response,,,,100,,,,,,,Space,keypress(Space),,,,,,,,At --- ---- --- ------ ----- ------- ---- -- --- ------- --<br>------- ---------- ------ -- ----- -- ----- -- ---- ------<br>--- ----- --- --- ------ -------- ----- --- ------ ----- --<br>----- ----- ---------- --- --- ------ ------ ---- -- ------<br>------- --- ------ ----- --- ---- ------- -- ---- --- --<br>------- ------,139066.09999996424,139060.5,137641.938,137644.19999998808,137658.649,139079.084,,0,At
screen,html.Screen,2_1_1_1_1,2022-05-10T16:24:52.578Z,,,,,,,,,,,,,,,,,54,,,,,,,,,,,,,,320.1159999880765,,response,,,,100,,,,,,,Space,keypress(Space),,,,,,,,-- the ---- --- ------ ----- ------- ---- -- --- ------- --<br>------- ---------- ------ -- ----- -- ----- -- ---- ------<br>--- ----- --- --- ------ -------- ----- --- ------ ----- --<br>----- ----- ---------- --- --- ------ ------ ---- -- ------<br>------- --- ------ ----- --- ---- ------- -- ---- --- --<br>------- ------,139404,139399.19999998808,139062.373,139066.29999995232,139079.084,139413.304,,1,the
screen,html.Screen,2_1_1_1_2,2022-05-10T16:24:52.815Z,,,,,,,,,,,,,,,,,54,,,,,,,,,,,,,,222.89599998807535,,response,,,,100,,,,,,,Space,keypress(Space),,,,,,,,-- --- time --- ------ ----- ------- ---- -- --- ------- --<br>------- ---------- ------ -- ----- -- ----- -- ---- ------<br>--- ----- --- --- ------ -------- ----- --- ------ ----- --<br>----- ----- ---------- --- --- ------ ------ ---- -- ------<br>------- --- ------ ----- --- ---- ------- -- ---- --- --<br>------- ------,139640.89999997616,139636.19999998808,139396.593,139404.19999998808,139413.304,139647.258,,2,time
screen,html.Screen,2_1_1_1_3,2022-05-10T16:24:53.054Z,,,,,,,,,,,,,,,,,54,,,,,,,,,,,,,,227.94199998807744,,response,,,,100,,,,,,,Space,keypress(Space),,,,,,,,-- --- ---- the ------ ----- ------- ---- -- --- ------- --<br>------- ---------- ------ -- ----- -- ----- -- ---- ------<br>--- ----- --- --- ------ -------- ----- --- ------ ----- --<br>----- ----- ---------- --- --- ------ ------ ---- -- ------<br>------- --- ------ ----- --- ---- ------- -- ---- --- --<br>------- ------,139879.89999997616,139875.19999998808,139630.547,139641.09999996424,139647.258,139881.212,,3,the
screen,html.Screen,2_1_1_1_4,2022-05-10T16:24:53.284Z,,,,,,,,,,,,,,,,,54,,,,,,,,,,,,,,222.78800000000047,,response,,,,100,,,,,,,Space,keypress(Space),,,,,,,,-- --- ---- --- French ----- ------- ---- -- --- ------- --<br>------- ---------- ------ -- ----- -- ----- -- ---- ------<br>--- ----- --- --- ------ -------- ----- --- ------ ----- --<br>----- ----- ---------- --- --- ------ ------ ---- -- ------<br>------- --- ------ ----- --- ---- ------- -- ---- --- --<br>------- ------,140109.59999996424,140104,139864.501,139880,139881.212,140115.166,,4,French
screen,html.Screen,2_1_1_1_5,2022-05-10T16:24:53.666Z,,,,,,,,,,,,,,,,,54,,,,,,,,,,,,,,372.03399998808163,,response,,,,100,,,,,,,Space,keypress(Space),,,,,,,,-- --- ---- --- ------ crown ------- ---- -- --- ------- --<br>------- ---------- ------ -- ----- -- ----- -- ---- ------<br>--- ----- --- --- ------ -------- ----- --- ------ ----- --<br>----- ----- ---------- --- --- ------ ------ ---- -- ------<br>------- --- ------ ----- --- ---- ------- -- ---- --- --<br>------- ------,140492,140487.19999998808,140098.455,140109.69999998808,140115.166,140499.644,,5,crown
screen,html.Screen,2_1_1_1_6,2022-05-10T16:24:54.135Z,,,,,,,,,,,,,,,,,54,,,,,,,,,,,,,,456.455999964237,,response,,,,100,,,,,,,Space,keypress(Space),,,,,,,,-- --- ---- --- ------ ----- secured ---- -- --- ------- --<br>------- ---------- ------ -- ----- -- ----- -- ---- ------<br>--- ----- --- --- ------ -------- ----- --- ------ ----- --<br>----- ----- ---------- --- --- ------ ------ ---- -- ------<br>------- --- ------ ----- --- ---- ------- -- ---- --- --<br>------- ------,140961,140956.09999996424,140482.933,140492.19999998808,140499.644,140967.552,,6,secured
screen,html.Screen,2_1_1_1_7,2022-05-10T16:24:54.442Z,,,,,,,,,,,,,,,,,54,,,,,,,,,,,,,,295.54799996424117,,response,,,,100,,,,,,,Space,keypress(Space),,,,,,,,-- --- ---- --- ------ ----- ------- much -- --- ------- --<br>------- ---------- ------ -- ----- -- ----- -- ---- ------<br>--- ----- --- --- ------ -------- ----- --- ------ ----- --<br>----- ----- ---------- --- --- ------ ------ ---- -- ------<br>------- --- ------ ----- --- ---- ------- -- ---- --- --<br>------- ------,141268,141263.09999996424,140950.841,140961.19999998808,140967.552,141285.061,,7,much
screen,html.Screen,2_1_1_1_8,2022-05-10T16:24:54.794Z,,,,,,,,,,,,,,,,,54,,,,,,,,,,,,,,330.03899996425025,,response,,,,100,,,,,,,Space,keypress(Space),,,,,,,,-- --- ---- --- ------ ----- ------- ---- of --- ------- --<br>------- ---------- ------ -- ----- -- ----- -- ---- ------<br>--- ----- --- --- ------ -------- ----- --- ------ ----- --<br>----- ----- ---------- --- --- ------ ------ ---- -- ------<br>------- --- ------ ----- --- ---- ------- -- ---- --- --<br>------- ------,141620,141615.09999996424,141268.35,141268.09999996424,141285.061,141635.992,,8,of
screen,html.Screen,2_1_1_1_9,2022-05-10T16:24:55.030Z,,,,,,,,,,,,,,,,,54,,,,,,,,,,,,,,214.00800000000163,,response,,,,100,,,,,,,Space,keypress(Space),,,,,,,,-- --- ---- --- ------ ----- ------- ---- -- its ------- --<br>------- ---------- ------ -- ----- -- ----- -- ---- ------<br>--- ----- --- --- ------ -------- ----- --- ------ ----- --<br>----- ----- ---------- --- --- ------ ------ ---- -- ------<br>------- --- ------ ----- --- ---- ------- -- ---- --- --<br>------- ------,141855.89999997616,141850,141619.281,141620.09999996424,141635.992,141869.946,,9,its
screen,html.Screen,2_1_1_1_10,2022-05-10T16:24:55.303Z,,,,,,,,,,,,,,,,,54,,,,,,,,,,,,,,254.15399996424094,,response,,,,100,,,,,,,Space,keypress(Space),,,,,,,,-- --- ---- --- ------ ----- ------- ---- -- --- revenue --<br>------- ---------- ------ -- ----- -- ----- -- ---- ------<br>--- ----- --- --- ------ -------- ----- --- ------ ----- --<br>----- ----- ---------- --- --- ------ ------ ---- -- ------<br>------- --- ------ ----- --- ---- ------- -- ---- --- --<br>------- ------,142128.89999997616,142124.09999996424,141853.235,141856.09999996424,141869.946,142137.322,,10,revenue
screen,html.Screen,2_1_1_1_11,2022-05-10T16:24:55.700Z,,,,,,,,,,,,,,,,,54,,,,,,,,,,,,,,383.77799996425165,,response,,,,100,,,,,,,Space,keypress(Space),,,,,,,,-- --- ---- --- ------ ----- ------- ---- -- --- ------- by<br>------- ---------- ------ -- ----- -- ----- -- ---- ------<br>--- ----- --- --- ------ -------- ----- --- ------ ----- --<br>----- ----- ---------- --- --- ------ ------ ---- -- ------<br>------- --- ------ ----- --- ---- ------- -- ---- --- --<br>------- ------,142526,142521.09999996424,142120.611,142129.09999996424,142137.322,142538.386,,11,by
screen,html.Screen,2_1_1_1_12,2022-05-10T16:24:56.117Z,,,,,,,,,,,,,,,,,54,,,,,,,,,,,,,,401.4139999523177,,response,,,,100,,,,,,,Space,keypress(Space),,,,,,,,-- --- ---- --- ------ ----- ------- ---- -- --- ------- --<br>issuing ---------- ------ -- ----- -- ----- -- ---- ------<br>--- ----- --- --- ------ -------- ----- --- ------ ----- --<br>----- ----- ---------- --- --- ------ ------ ---- -- ------<br>------- --- ------ ----- --- ---- ------- -- ---- --- --<br>------- ------,142943,142939.79999995232,142521.675,142526.09999996424,142538.386,142956.161,,12,issuing
screen,html.Screen,2_1_1_1_13,2022-05-10T16:24:56.468Z,,,,,,,,,,,,,,,,,54,,,,,,,,,,,,,,332.93899996424443,,response,,,,100,,,,,,,Space,keypress(Space),,,,,,,,-- --- ---- --- ------ ----- ------- ---- -- --- ------- --<br>------- government ------ -- ----- -- ----- -- ---- ------<br>--- ----- --- --- ------ -------- ----- --- ------ ----- --<br>----- ----- ---------- --- --- ------ ------ ---- -- ------<br>------- --- ------ ----- --- ---- ------- -- ---- --- --<br>------- ------,143293.89999997616,143289.09999996424,142939.45,142944.19999998808,142956.161,143307.092,,13,government
screen,html.Screen,2_1_1_1_14,2022-05-10T16:24:56.724Z,,,,,,,,,,,,,,,,,54,,,,,,,,,,,,,,237.9079999999958,,response,,,,100,,,,,,,Space,keypress(Space),,,,,,,,-- --- ---- --- ------ ----- ------- ---- -- --- ------- --<br>------- ---------- bonds. -- ----- -- ----- -- ---- ------<br>--- ----- --- --- ------ -------- ----- --- ------ ----- --<br>----- ----- ---------- --- --- ------ ------ ---- -- ------<br>------- --- ------ ----- --- ---- ------- -- ---- --- --<br>------- ------,143549.89999997616,143545,143290.381,143294.19999998808,143307.092,143557.757,,14,bonds.
screen,html.Screen,2_1_1_1_15,2022-05-10T16:24:57.147Z,,,,,,,,,,,,,,,,,54,,,,,,,,,,,,,,410.24299999998766,,response,,,,100,,,,,,,Space,keypress(Space),,,,,,,,-- --- ---- --- ------ ----- ------- ---- -- --- ------- --<br>------- ---------- ------ In ----- -- ----- -- ---- ------<br>--- ----- --- --- ------ -------- ----- --- ------ ----- --<br>----- ----- ---------- --- --- ------ ------ ---- -- ------<br>------- --- ------ ----- --- ---- ------- -- ---- --- --<br>------- ------,143972.79999995232,143968,143541.046,143550.09999996424,143557.757,143975.532,,15,In
screen,html.Screen,2_1_1_1_16,2022-05-10T16:24:57.539Z,,,,,,,,,,,,,,,,,54,,,,,,,,,,,,,,384.4679999999935,,response,,,,100,,,,,,,Space,keypress(Space),,,,,,,,"-- --- ---- --- ------ ----- ------- ---- -- --- ------- --<br>------- ---------- ------ -- 1727, -- ----- -- ---- ------<br>--- ----- --- --- ------ -------- ----- --- ------ ----- --<br>----- ----- ---------- --- --- ------ ------ ---- -- ------<br>------- --- ------ ----- --- ---- ------- -- ---- --- --<br>------- ------",144364.89999997616,144360,143958.821,143973,143975.532,144376.596,,16,"1727,"
screen,html.Screen,2_1_1_1_17,2022-05-10T16:24:57.992Z,,,,,,,,,,,,,,,,,54,,,,,,,,,,,,,,436.40400000000955,,response,,,,100,,,,,,,Space,keypress(Space),,,,,,,,-- --- ---- --- ------ ----- ------- ---- -- --- ------- --<br>------- ---------- ------ -- ----- in ----- -- ---- ------<br>--- ----- --- --- ------ -------- ----- --- ------ ----- --<br>----- ----- ---------- --- --- ------ ------ ---- -- ------<br>------- --- ------ ----- --- ---- ------- -- ---- --- --<br>------- ------,144817.69999998808,144813,144359.885,144365,144376.596,144827.793,,17,in
screen,html.Screen,2_1_1_1_18,2022-05-10T16:24:58.381Z,,,,,,,,,,,,,,,,,54,,,,,,,,,,,,,,374.106999976153,,response,,,,100,,,,,,,Space,keypress(Space),,,,,,,,-- --- ---- --- ------ ----- ------- ---- -- --- ------- --<br>------- ---------- ------ -- ----- -- order -- ---- ------<br>--- ----- --- --- ------ -------- ----- --- ------ ----- --<br>----- ----- ---------- --- --- ------ ------ ---- -- ------<br>------- --- ------ ----- --- ---- ------- -- ---- --- --<br>------- ------,145206.79999995232,145201.89999997616,144811.082,144817.89999997616,144827.793,145212.146,,18,order
screen,html.Screen,2_1_1_1_19,2022-05-10T16:24:58.656Z,,,,,,,,,,,,,,,,,54,,,,,,,,,,,,,,264.65399995230837,,response,,,,100,,,,,,,Space,keypress(Space),,,,,,,,-- --- ---- --- ------ ----- ------- ---- -- --- ------- --<br>------- ---------- ------ -- ----- -- ----- to ---- ------<br>--- ----- --- --- ------ -------- ----- --- ------ ----- --<br>----- ----- ---------- --- --- ------ ------ ---- -- ------<br>------- --- ------ ----- --- ---- ------- -- ---- --- --<br>------- ------,145481.59999996424,145476.79999995232,145195.435,145207,145212.146,145496.233,,19,to
screen,html.Screen,2_1_1_1_20,2022-05-10T16:24:58.951Z,,,,,,,,,,,,,,,,,54,,,,,,,,,,,,,,275.56699995230883,,response,,,,100,,,,,,,Space,keypress(Space),,,,,,,,-- --- ---- --- ------ ----- ------- ---- -- --- ------- --<br>------- ---------- ------ -- ----- -- ----- -- save ------<br>--- ----- --- --- ------ -------- ----- --- ------ ----- --<br>----- ----- ---------- --- --- ------ ------ ---- -- ------<br>------- --- ------ ----- --- ---- ------- -- ---- --- --<br>------- ------,145776.69999998808,145771.79999995232,145479.522,145481.89999997616,145496.233,145780.32,,20,save
screen,html.Screen,2_1_1_1_21,2022-05-10T16:24:59.366Z,,,,,,,,,,,,,,,,,54,,,,,,,,,,,,,,406.4799999523093,,response,,,,100,,,,,,,Space,keypress(Space),,,,,,,,"-- --- ---- --- ------ ----- ------- ---- -- --- ------- --<br>------- ---------- ------ -- ----- -- ----- -- ---- money,<br>--- ----- --- --- ------ -------- ----- --- ------ ----- --<br>----- ----- ---------- --- --- ------ ------ ---- -- ------<br>------- --- ------ ----- --- ---- ------- -- ---- --- --<br>------- ------",146191.69999998808,146186.79999995232,145763.609,145776.89999997616,145780.32,146198.095,,21,"money,"
screen,html.Screen,2_1_1_1_22,2022-05-10T16:24:59.741Z,,,,,,,,,,,,,,,,,54,,,,,,,,,,,,,,363.7049999523151,,response,,,,100,,,,,,,Space,keypress(Space),,,,,,,,-- --- ---- --- ------ ----- ------- ---- -- --- ------- --<br>------- ---------- ------ -- ----- -- ----- -- ---- ------<br>the ----- --- --- ------ -------- ----- --- ------ ----- --<br>----- ----- ---------- --- --- ------ ------ ---- -- ------<br>------- --- ------ ----- --- ---- ------- -- ---- --- --<br>------- ------,146566.59999996424,146561.79999995232,146181.384,146191.89999997616,146198.095,146582.448,,22,the
screen,html.Screen,2_1_1_1_23,2022-05-10T16:25:00.023Z,,,,,,,,,,,,,,,,,54,,,,,,,,,,,,,,261.3519999523123,,response,,,,100,,,,,,,Space,keypress(Space),,,,,,,,-- --- ---- --- ------ ----- ------- ---- -- --- ------- --<br>------- ---------- ------ -- ----- -- ----- -- ---- ------<br>--- state --- --- ------ -------- ----- --- ------ ----- --<br>----- ----- ---------- --- --- ------ ------ ---- -- ------<br>------- --- ------ ----- --- ---- ------- -- ---- --- --<br>------- ------,146848.5,146843.79999995232,146565.737,146566.79999995232,146582.448,146849.824,,23,state
screen,html.Screen,2_1_1_1_24,2022-05-10T16:25:00.364Z,,,,,,,,,,,,,,,,,54,,,,,,,,,,,,,,335.0759999761649,,response,,,,100,,,,,,,Space,keypress(Space),,,,,,,,-- --- ---- --- ------ ----- ------- ---- -- --- ------- --<br>------- ---------- ------ -- ----- -- ----- -- ---- ------<br>--- ----- cut --- ------ -------- ----- --- ------ ----- --<br>----- ----- ---------- --- --- ------ ------ ---- -- ------<br>------- --- ------ ----- --- ---- ------- -- ---- --- --<br>------- ------,147189.69999998808,147184.89999997616,146833.113,146848.69999998808,146849.824,147200.755,,24,cut
screen,html.Screen,2_1_1_1_25,2022-05-10T16:25:00.606Z,,,,,,,,,,,,,,,,,54,,,,,,,,,,,,,,226.04499995231163,,response,,,,100,,,,,,,Space,keypress(Space),,,,,,,,-- --- ---- --- ------ ----- ------- ---- -- --- ------- --<br>------- ---------- ------ -- ----- -- ----- -- ---- ------<br>--- ----- --- the ------ -------- ----- --- ------ ----- --<br>----- ----- ---------- --- --- ------ ------ ---- -- ------<br>------- --- ------ ----- --- ---- ------- -- ---- --- --<br>------- ------,147431.59999996424,147426.79999995232,147184.044,147189.79999995232,147200.755,147434.709,,25,the
screen,html.Screen,2_1_1_1_26,2022-05-10T16:25:00.889Z,,,,,,,,,,,,,,,,,54,,,,,,,,,,,,,,274.9909999880765,,response,,,,100,,,,,,,Space,keypress(Space),,,,,,,,-- --- ---- --- ------ ----- ------- ---- -- --- ------- --<br>------- ---------- ------ -- ----- -- ----- -- ---- ------<br>--- ----- --- --- bonds' -------- ----- --- ------ ----- --<br>----- ----- ---------- --- --- ------ ------ ---- -- ------<br>------- --- ------ ----- --- ---- ------- -- ---- --- --<br>------- ------,147714.5,147709.69999998808,147417.998,147431.89999997616,147434.709,147718.796,,26,bonds'
screen,html.Screen,2_1_1_1_27,2022-05-10T16:25:01.237Z,,,,,,,,,,,,,,,,,54,,,,,,,,,,,,,,338.903999988077,,response,,,,100,,,,,,,Space,keypress(Space),,,,,,,,-- --- ---- --- ------ ----- ------- ---- -- --- ------- --<br>------- ---------- ------ -- ----- -- ----- -- ---- ------<br>--- ----- --- --- ------ interest ----- --- ------ ----- --<br>----- ----- ---------- --- --- ------ ------ ---- -- ------<br>------- --- ------ ----- --- ---- ------- -- ---- --- --<br>------- ------,148062.69999998808,148057.69999998808,147702.085,147714.69999998808,147718.796,148069.727,,27,interest
screen,html.Screen,2_1_1_1_28,2022-05-10T16:25:01.746Z,,,,,,,,,,,,,,,,,54,,,,,,,,,,,,,,496.97299998806557,,response,,,,100,,,,,,,Space,keypress(Space),,,,,,,,-- --- ---- --- ------ ----- ------- ---- -- --- ------- --<br>------- ---------- ------ -- ----- -- ----- -- ---- ------<br>--- ----- --- --- ------ -------- rate. --- ------ ----- --<br>----- ----- ---------- --- --- ------ ------ ---- -- ------<br>------- --- ------ ----- --- ---- ------- -- ---- --- --<br>------- ------,148571.59999996424,148566.69999998808,148053.016,148062.89999997616,148069.727,148587.768,,28,rate.
screen,html.Screen,2_1_1_1_29,2022-05-10T16:25:02.120Z,,,,,,,,,,,,,,,,,54,,,,,,,,,,,,,,352.73199999998906,,response,,,,100,,,,,,,Space,keypress(Space),,,,,,,,-- --- ---- --- ------ ----- ------- ---- -- --- ------- --<br>------- ---------- ------ -- ----- -- ----- -- ---- ------<br>--- ----- --- --- ------ -------- ----- The ------ ----- --<br>----- ----- ---------- --- --- ------ ------ ---- -- ------<br>------- --- ------ ----- --- ---- ------- -- ---- --- --<br>------- ------,148945.5,148940.5,148571.057,148571.69999998808,148587.768,148955.41,,29,The
screen,html.Screen,2_1_1_1_30,2022-05-10T16:25:02.559Z,,,,,,,,,,,,,,,,,54,,,,,,,,,,,,,,424.1899999642337,,response,,,,100,,,,,,,Space,keypress(Space),,,,,,,,-- --- ---- --- ------ ----- ------- ---- -- --- ------- --<br>------- ---------- ------ -- ----- -- ----- -- ---- ------<br>--- ----- --- --- ------ -------- ----- --- market ----- --<br>----- ----- ---------- --- --- ------ ------ ---- -- ------<br>------- --- ------ ----- --- ---- ------- -- ---- --- --<br>------- ------,149384.89999997616,149379.59999996424,148938.699,148945.59999996424,148955.41,149389.896,,30,market
screen,html.Screen,2_1_1_1_31,2022-05-10T16:25:02.931Z,,,,,,,,,,,,,,,,,54,,,,,,,,,,,,,,361.80399998807115,,response,,,,100,,,,,,,Space,keypress(Space),,,,,,,,-- --- ---- --- ------ ----- ------- ---- -- --- ------- --<br>------- ---------- ------ -- ----- -- ----- -- ---- ------<br>--- ----- --- --- ------ -------- ----- --- ------ value --<br>----- ----- ---------- --- --- ------ ------ ---- -- ------<br>------- --- ------ ----- --- ---- ------- -- ---- --- --<br>------- ------,149756.5,149751.69999998808,149373.185,149385.09999996424,149389.896,149757.538,,31,value
screen,html.Screen,2_1_1_1_32,2022-05-10T16:25:03.272Z,,,,,,,,,,,,,,,,,54,,,,,,,,,,,,,,335.96199999999953,,response,,,,100,,,,,,,Space,keypress(Space),,,,,,,,-- --- ---- --- ------ ----- ------- ---- -- --- ------- --<br>------- ---------- ------ -- ----- -- ----- -- ---- ------<br>--- ----- --- --- ------ -------- ----- --- ------ ----- of<br>----- ----- ---------- --- --- ------ ------ ---- -- ------<br>------- --- ------ ----- --- ---- ------- -- ---- --- --<br>------- ------,150097.79999995232,150093.5,149740.827,149756.59999996424,149757.538,150108.469,,32,of
screen,html.Screen,2_1_1_1_33,2022-05-10T16:25:03.561Z,,,,,,,,,,,,,,,,,54,,,,,,,,,,,,,,273.2309999880672,,response,,,,100,,,,,,,Space,keypress(Space),,,,,,,,-- --- ---- --- ------ ----- ------- ---- -- --- ------- --<br>------- ---------- ------ -- ----- -- ----- -- ---- ------<br>--- ----- --- --- ------ -------- ----- --- ------ ----- --<br>these ----- ---------- --- --- ------ ------ ---- -- ------<br>------- --- ------ ----- --- ---- ------- -- ---- --- --<br>------- ------,150386.5,150381.69999998808,150091.758,150097.79999995232,150108.469,150392.556,,33,these
screen,html.Screen,2_1_1_1_34,2022-05-10T16:25:03.804Z,,,,,,,,,,,,,,,,,54,,,,,,,,,,,,,,232.0439999642258,,response,,,,100,,,,,,,Space,keypress(Space),,,,,,,,-- --- ---- --- ------ ----- ------- ---- -- --- ------- --<br>------- ---------- ------ -- ----- -- ----- -- ---- ------<br>--- ----- --- --- ------ -------- ----- --- ------ ----- --<br>----- bonds ---------- --- --- ------ ------ ---- -- ------<br>------- --- ------ ----- --- ---- ------- -- ---- --- --<br>------- ------,150629.59999996424,150624.59999996424,150375.845,150386.59999996424,150392.556,150643.408,,34,bonds
screen,html.Screen,2_1_1_1_35,2022-05-10T16:25:04.126Z,,,,,,,,,,,,,,,,,54,,,,,,,,,,,,,,303.1919999642414,,response,,,,100,,,,,,,Space,keypress(Space),,,,,,,,"-- --- ---- --- ------ ----- ------- ---- -- --- ------- --<br>------- ---------- ------ -- ----- -- ----- -- ---- ------<br>--- ----- --- --- ------ -------- ----- --- ------ ----- --<br>----- ----- plummeted, --- --- ------ ------ ---- -- ------<br>------- --- ------ ----- --- ---- ------- -- ---- --- --<br>------- ------",150951.39999997616,150946.59999996424,150626.697,150629.79999995232,150643.408,150960.917,,35,"plummeted,"
screen,html.Screen,2_1_1_1_36,2022-05-10T16:25:04.491Z,,,,,,,,,,,,,,,,,54,,,,,,,,,,,,,,350.58300000001327,,response,,,,100,,,,,,,Space,keypress(Space),,,,,,,,-- --- ---- --- ------ ----- ------- ---- -- --- ------- --<br>------- ---------- ------ -- ----- -- ----- -- ---- ------<br>--- ----- --- --- ------ -------- ----- --- ------ ----- --<br>----- ----- ---------- and --- ------ ------ ---- -- ------<br>------- --- ------ ----- --- ---- ------- -- ---- --- --<br>------- ------,151316.39999997616,151311.5,150944.206,150951.5,150960.917,151328.559,,36,and
screen,html.Screen,2_1_1_1_37,2022-05-10T16:25:04.750Z,,,,,,,,,,,,,,,,,54,,,,,,,,,,,,,,241.94099999999162,,response,,,,100,,,,,,,Space,keypress(Space),,,,,,,,-- --- ---- --- ------ ----- ------- ---- -- --- ------- --<br>------- ---------- ------ -- ----- -- ----- -- ---- ------<br>--- ----- --- --- ------ -------- ----- --- ------ ----- --<br>----- ----- ---------- --- the ------ ------ ---- -- ------<br>------- --- ------ ----- --- ---- ------- -- ---- --- --<br>------- ------,151575.29999995232,151570.5,151311.848,151316.59999996424,151328.559,151579.224,,37,the
screen,html.Screen,2_1_1_1_38,2022-05-10T16:25:05.067Z,,,,,,,,,,,,,,,,,54,,,,,,,,,,,,,,308.2760000000126,,response,,,,100,,,,,,,Space,keypress(Space),,,,,,,,-- --- ---- --- ------ ----- ------- ---- -- --- ------- --<br>------- ---------- ------ -- ----- -- ----- -- ---- ------<br>--- ----- --- --- ------ -------- ----- --- ------ ----- --<br>----- ----- ---------- --- --- market ------ ---- -- ------<br>------- --- ------ ----- --- ---- ------- -- ---- --- --<br>------- ------,151892.39999997616,151887.5,151562.513,151575.5,151579.224,151896.733,,38,market
screen,html.Screen,2_1_1_1_39,2022-05-10T16:25:05.375Z,,,,,,,,,,,,,,,,,54,,,,,,,,,,,,,,298.76699999999255,,response,,,,100,,,,,,,Space,keypress(Space),,,,,,,,-- --- ---- --- ------ ----- ------- ---- -- --- ------- --<br>------- ---------- ------ -- ----- -- ----- -- ---- ------<br>--- ----- --- --- ------ -------- ----- --- ------ ----- --<br>----- ----- ---------- --- --- ------ became ---- -- ------<br>------- --- ------ ----- --- ---- ------- -- ---- --- --<br>------- ------,152200.39999997616,152195.5,151880.022,151892.59999996424,151896.733,152214.242,,39,became
screen,html.Screen,2_1_1_1_40,2022-05-10T16:25:05.709Z,,,,,,,,,,,,,,,,,54,,,,,,,,,,,,,,315.25800000000163,,response,,,,100,,,,,,,Space,keypress(Space),,,,,,,,-- --- ---- --- ------ ----- ------- ---- -- --- ------- --<br>------- ---------- ------ -- ----- -- ----- -- ---- ------<br>--- ----- --- --- ------ -------- ----- --- ------ ----- --<br>----- ----- ---------- --- --- ------ ------ wary -- ------<br>------- --- ------ ----- --- ---- ------- -- ---- --- --<br>------- ------,152534.39999997616,152529.5,152197.531,152200.5,152214.242,152548.462,,40,wary
screen,html.Screen,2_1_1_1_41,2022-05-10T16:25:06.078Z,,,,,,,,,,,,,,,,,54,,,,,,,,,,,,,,350.03800000000047,,response,,,,100,,,,,,,Space,keypress(Space),,,,,,,,-- --- ---- --- ------ ----- ------- ---- -- --- ------- --<br>------- ---------- ------ -- ----- -- ----- -- ---- ------<br>--- ----- --- --- ------ -------- ----- --- ------ ----- --<br>----- ----- ---------- --- --- ------ ------ ---- of ------<br>------- --- ------ ----- --- ---- ------- -- ---- --- --<br>------- ------,152903.29999995232,152898.5,152531.751,152534.39999997616,152548.462,152916.104,,41,of
screen,html.Screen,2_1_1_1_42,2022-05-10T16:25:06.478Z,,,,,,,,,,,,,,,,,54,,,,,,,,,,,,,,382.3960000000079,,response,,,,100,,,,,,,Space,keypress(Space),,,,,,,,-- --- ---- --- ------ ----- ------- ---- -- --- ------- --<br>------- ---------- ------ -- ----- -- ----- -- ---- ------<br>--- ----- --- --- ------ -------- ----- --- ------ ----- --<br>----- ----- ---------- --- --- ------ ------ ---- -- French<br>------- --- ------ ----- --- ---- ------- -- ---- --- --<br>------- ------,153303.39999997616,153298.5,152899.393,152903.39999997616,152916.104,153317.168,,42,French
screen,html.Screen,2_1_1_1_43,2022-05-10T16:25:06.837Z,,,,,,,,,,,,,,,,,54,,,,,,,,,,,,,,340.3319999999949,,response,,,,100,,,,,,,Space,keypress(Space),,,,,,,,-- --- ---- --- ------ ----- ------- ---- -- --- ------- --<br>------- ---------- ------ -- ----- -- ----- -- ---- ------<br>--- ----- --- --- ------ -------- ----- --- ------ ----- --<br>----- ----- ---------- --- --- ------ ------ ---- -- ------<br>credit. --- ------ ----- --- ---- ------- -- ---- --- --<br>------- ------,153662.19999998808,153657.5,153300.457,153303.59999996424,153317.168,153668.099,,43,credit.
screen,html.Screen,2_1_1_1_44,2022-05-10T16:25:07.157Z,,,,,,,,,,,,,,,,,54,,,,,,,,,,,,,,309.4010000000126,,response,,,,100,,,,,,,Space,keypress(Space),,,,,,,,-- --- ---- --- ------ ----- ------- ---- -- --- ------- --<br>------- ---------- ------ -- ----- -- ----- -- ---- ------<br>--- ----- --- --- ------ -------- ----- --- ------ ----- --<br>----- ----- ---------- --- --- ------ ------ ---- -- ------<br>------- The ------ ----- --- ---- ------- -- ---- --- --<br>------- ------,153982.39999997616,153977.5,153651.388,153662.39999997616,153668.099,153985.608,,44,The
screen,html.Screen,2_1_1_1_45,2022-05-10T16:25:07.477Z,,,,,,,,,,,,,,,,,54,,,,,,,,,,,,,,311.7919999761507,,response,,,,100,,,,,,,Space,keypress(Space),,,,,,,,-- --- ---- --- ------ ----- ------- ---- -- --- ------- --<br>------- ---------- ------ -- ----- -- ----- -- ---- ------<br>--- ----- --- --- ------ -------- ----- --- ------ ----- --<br>----- ----- ---------- --- --- ------ ------ ---- -- ------<br>------- --- French ----- --- ---- ------- -- ---- --- --<br>------- ------,154302.09999996424,154297.39999997616,153968.897,153982.59999996424,153985.608,154303.117,,45,French
screen,html.Screen,2_1_1_1_46,2022-05-10T16:25:07.747Z,,,,,,,,,,,,,,,,,54,,,,,,,,,,,,,,264.1829999523179,,response,,,,100,,,,,,,Space,keypress(Space),,,,,,,,-- --- ---- --- ------ ----- ------- ---- -- --- ------- --<br>------- ---------- ------ -- ----- -- ----- -- ---- ------<br>--- ----- --- --- ------ -------- ----- --- ------ ----- --<br>----- ----- ---------- --- --- ------ ------ ---- -- ------<br>------- --- ------ state --- ---- ------- -- ---- --- --<br>------- ------,154572.19999998808,154567.29999995232,154286.406,154302.29999995232,154303.117,154587.204,,46,state
screen,html.Screen,2_1_1_1_47,2022-05-10T16:25:08.090Z,,,,,,,,,,,,,,,,,54,,,,,,,,,,,,,,323.0959999523184,,response,,,,100,,,,,,,Space,keypress(Space),,,,,,,,-- --- ---- --- ------ ----- ------- ---- -- --- ------- --<br>------- ---------- ------ -- ----- -- ----- -- ---- ------<br>--- ----- --- --- ------ -------- ----- --- ------ ----- --<br>----- ----- ---------- --- --- ------ ------ ---- -- ------<br>------- --- ------ ----- was ---- ------- -- ---- --- --<br>------- ------,154915.19999998808,154910.29999995232,154570.493,154572.29999995232,154587.204,154921.424,,47,was
screen,html.Screen,2_1_1_1_48,2022-05-10T16:25:08.440Z,,,,,,,,,,,,,,,,,54,,,,,,,,,,,,,,338.8759999523172,,response,,,,100,,,,,,,Space,keypress(Space),,,,,,,,-- --- ---- --- ------ ----- ------- ---- -- --- ------- --<br>------- ---------- ------ -- ----- -- ----- -- ---- ------<br>--- ----- --- --- ------ -------- ----- --- ------ ----- --<br>----- ----- ---------- --- --- ------ ------ ---- -- ------<br>------- --- ------ ----- --- left ------- -- ---- --- --<br>------- ------,155265.29999995232,155260.29999995232,154904.713,154915.39999997616,154921.424,155272.355,,48,left
screen,html.Screen,2_1_1_1_49,2022-05-10T16:25:08.861Z,,,,,,,,,,,,,,,,,54,,,,,,,,,,,,,,408.8449999880686,,response,,,,100,,,,,,,Space,keypress(Space),,,,,,,,-- --- ---- --- ------ ----- ------- ---- -- --- ------- --<br>------- ---------- ------ -- ----- -- ----- -- ---- ------<br>--- ----- --- --- ------ -------- ----- --- ------ ----- --<br>----- ----- ---------- --- --- ------ ------ ---- -- ------<br>------- --- ------ ----- --- ---- without -- ---- --- --<br>------- ------,155686,155681.19999998808,155255.644,155265.39999997616,155272.355,155690.13,,49,without
screen,html.Screen,2_1_1_1_50,2022-05-10T16:25:09.305Z,,,,,,,,,,,,,,,,,54,,,,,,,,,,,,,,435.1699999523116,,response,,,,100,,,,,,,Space,keypress(Space),,,,,,,,-- --- ---- --- ------ ----- ------- ---- -- --- ------- --<br>------- ---------- ------ -- ----- -- ----- -- ---- ------<br>--- ----- --- --- ------ -------- ----- --- ------ ----- --<br>----- ----- ---------- --- --- ------ ------ ---- -- ------<br>------- --- ------ ----- --- ---- ------- an ---- --- --<br>------- ------,156130.19999998808,156125.29999995232,155673.419,155686.09999996424,155690.13,156141.327,,50,an
screen,html.Screen,2_1_1_1_51,2022-05-10T16:25:09.684Z,,,,,,,,,,,,,,,,,54,,,,,,,,,,,,,,362.87299998808885,,response,,,,100,,,,,,,Space,keypress(Space),,,,,,,,-- --- ---- --- ------ ----- ------- ---- -- --- ------- --<br>------- ---------- ------ -- ----- -- ----- -- ---- ------<br>--- ----- --- --- ------ -------- ----- --- ------ ----- --<br>----- ----- ---------- --- --- ------ ------ ---- -- ------<br>------- --- ------ ----- --- ---- ------- -- easy --- --<br>------- ------,156509,156504.19999998808,156124.616,156130.39999997616,156141.327,156525.68,,51,easy
screen,html.Screen,2_1_1_1_52,2022-05-10T16:25:09.949Z,,,,,,,,,,,,,,,,,54,,,,,,,,,,,,,,243.61999995232327,,response,,,,100,,,,,,,Space,keypress(Space),,,,,,,,-- --- ---- --- ------ ----- ------- ---- -- --- ------- --<br>------- ---------- ------ -- ----- -- ----- -- ---- ------<br>--- ----- --- --- ------ -------- ----- --- ------ ----- --<br>----- ----- ---------- --- --- ------ ------ ---- -- ------<br>------- --- ------ ----- --- ---- ------- -- ---- way --<br>------- ------,156774.09999996424,156769.29999995232,156508.969,156509.19999998808,156525.68,156776.345,,52,way
screen,html.Screen,2_1_1_1_53,2022-05-10T16:25:10.375Z,,,,,,,,,,,,,,,,,54,,,,,,,,,,,,,,418.75499996423605,,response,,,,100,,,,,,,Space,keypress(Space),,,,,,,,-- --- ---- --- ------ ----- ------- ---- -- --- ------- --<br>------- ---------- ------ -- ----- -- ----- -- ---- ------<br>--- ----- --- --- ------ -------- ----- --- ------ ----- --<br>----- ----- ---------- --- --- ------ ------ ---- -- ------<br>------- --- ------ ----- --- ---- ------- -- ---- --- of<br>------- ------,157199.79999995232,157195.09999996424,156759.634,156774.19999998808,156776.345,157210.831,,53,of
screen,html.Screen,2_1_1_1_54,2022-05-10T16:25:10.842Z,,,,,,,,,,,,,,,,,54,,,,,,,,,,,,,,451.2689999642316,,response,,,,100,,,,,,,Space,keypress(Space),,,,,,,,-- --- ---- --- ------ ----- ------- ---- -- --- ------- --<br>------- ---------- ------ -- ----- -- ----- -- ---- ------<br>--- ----- --- --- ------ -------- ----- --- ------ ----- --<br>----- ----- ---------- --- --- ------ ------ ---- -- ------<br>------- --- ------ ----- --- ---- ------- -- ---- --- --<br>raising ------,157667.09999996424,157662.09999996424,157194.12,157200,157210.831,157678.739,,54,raising
screen,html.Screen,2_1_1_1_55,2022-05-10T16:25:11.675Z,,,,,,,,,,,,,,,,,54,,,,,,,,,,,,,,815.3609999642358,,response,,,,100,,,,,,,Space,keypress(Space),,,,,,,,-- --- ---- --- ------ ----- ------- ---- -- --- ------- --<br>------- ---------- ------ -- ----- -- ----- -- ---- ------<br>--- ----- --- --- ------ -------- ----- --- ------ ----- --<br>----- ----- ---------- --- --- ------ ------ ---- -- ------<br>------- --- ------ ----- --- ---- ------- -- ---- --- --<br>------- money.,158499.69999998808,158494.09999996424,157662.028,157667.29999995232,157678.739,158514.289,,55,money.
Item 100,flow.Loop,2_1_1_1,2022-05-10T16:25:11.675Z,,,,,,,,,,,,,,,,,,,,,,,,,,,,,,,20835.450999964232,,completion,,,,,B,,,,,,,,,,,silence,,,,,158500,158494.09999996424,137641.938,137644,137658.649,158514.289,,,
Question 1,html.Screen,2_1_1_2,2022-05-10T16:25:14.149Z,,,,,,,,,,,,,,,,,,,,,,,,,,,,true,TRUE,,2457.3109999642475,,response,,,,100,B,,,,,,TRUE,click #choice-1,,,,silence,,,,,160974,160971.59999996424,158497.578,158500.09999996424,158514.289,160987.517,,,
Question 2,html.Screen,2_1_1_3,2022-05-10T16:25:19.662Z,,,,,,,,,,,,,,,,,,,,,,,,,,,,true,FALSE,,5496.6829999880865,,response,,,,100,B,,,,,,FALSE,click #choice-2,,,,silence,,,,,166486.59999996424,166484.19999998808,160970.806,160974.19999998808,160987.517,166502.383,,,
Item 100,flow.Sequence,2_1_1,2022-05-10T16:25:19.662Z,,,,,,,,,,,,,,,,,,,,,,,,,,,,,,,38818.924999988085,,completion,,,,,,,,,,,,,,,,,,,,,166486.89999997616,166484.19999998808,127648.564,127663.59999996424,127665.275,166502.383,,,
End of Practice,html.Page,2_1_2,2022-05-10T16:25:23.921Z,,,,,,,,,,,,,,,,,,,,,,,,,,,,,,,4242.816999988077,,form submission,,,,,,,,,,,,,,,,,,,,,170745.5,170745.19999998808,166485.672,166487,166502.383,170746.977,,,
Practice,flow.Sequence,2_1,2022-05-10T16:25:23.921Z,,,,,,,,,,,,,,,,,,,,,,,,,,,,,,,81916.84699998808,,completion,,,,,,,,,,,,,,,,,,,,,170745.79999995232,170745.19999998808,88811.642,88821,88828.353,170746.977,,,
Trap_instruction,html.Page,2_2_0,2022-05-10T16:25:27.045Z,,,,,,,,,,,,,,,,,,,,,,,,,,,,,,,3122.6229999642237,,form submission,,,,,,,,,,,,,,,,,,,,,173869.89999997616,173869.59999996424,170730.266,170746,170746.977,173888.645,,,
trap_trial,html.Screen,2_2_1,2022-05-10T16:25:29.998Z,,,,,,,,,,,,,,,,,,,,,,,,,,,,true,1,,2930.6549999523268,,response,,,,,,,,,,,1,click #choice-1,,,,,,,,,176822.69999998808,176819.29999995232,173855.223,173870,173888.645,176829.965,,,
end of trap trial,html.Page,2_2_2,2022-05-10T16:25:31.884Z,,,,,,,,,,,,,,,,,,,,,,,,,,,,,,,1878.1349999642407,,form submission,,,,,,,,,,,,,,,,,,,,,178708.39999997616,178708.09999996424,176813.254,176822.89999997616,176829.965,178718.308,,,
Trap 1,flow.Sequence,2_2,2022-05-10T16:25:31.884Z,,,,,,,,,,,,,,,,,,,,,,,,,,,,,,,7961.122999964224,,completion,,,,,,,,,,,,,,,,,,,,,178708.59999996424,178708.09999996424,170730.266,170745.89999997616,170746.977,178718.308,,,
Standby,html.Page,2_3_0,2022-05-10T16:25:39.884Z,,,,,,,,,,,,,,,,,,,,,,,,,,,,,,,8004.569000000018,,timeout,,,,,,,,,,,,,,,,,,,,,186708.5,186706.166,178701.597,178708.79999995232,178718.308,186722.877,,,
Holding screen,html.Screen,2_3_1_0_0,2022-05-10T16:25:46.887Z,,,,,,,,,,,,,,,,,,,,,,,,,,,,,,,7002.194999999978,,timeout,,,,,,,,,,,,,,,,,,,,,193711,193708.361,186706.166,186708.69999998808,186722.877,193725.072,,,
screen,html.Screen,2_3_1_0_1_0,2022-05-10T16:25:47.568Z,,,,,,,,,,,,,,,,,40,,,,,,,,,,,,,,659.7279999523307,,response,,,,9,B,,,,,,Space,keypress(Space),,,,lyrical,,,,Police -- ------- ---- ---- ---- - -------- ----- --- --<br>----- ----- ------ -- ---- -- --- - ---- -- - ----- -----<br>------ ---- ------ ---- - -------- ------- -- --- --------<br>-------- ----------- ---- ------ ---- ------ ---- --- ---<br>-------- --- -----,194392,194384.79999995232,193708.361,193711.19999998808,193725.072,194410.223,,0,Police
screen,html.Screen,2_3_1_0_1_1,2022-05-10T16:25:47.952Z,,,,,,,,,,,,,,,,,40,,,,,,,,,,,,,,361.27700000000186,,response,,,,9,B,,,,,,Space,keypress(Space),,,,lyrical,,,,------ in ------- ---- ---- ---- - -------- ----- --- --<br>----- ----- ------ -- ---- -- --- - ---- -- - ----- -----<br>------ ---- ------ ---- - -------- ------- -- --- --------<br>-------- ----------- ---- ------ ---- ------ ---- --- ---<br>-------- --- -----,194776.5,194771.5,194393.512,194392.19999998808,194410.223,194777.865,,1,in
screen,html.Screen,2_3_1_0_1_2,2022-05-10T16:25:48.259Z,,,,,,,,,,,,,,,,,40,,,,,,,,,,,,,,300.53499997616746,,response,,,,9,B,,,,,,Space,keypress(Space),,,,lyrical,,,,------ -- Georgia ---- ---- ---- - -------- ----- --- --<br>----- ----- ------ -- ---- -- --- - ---- -- - ----- -----<br>------ ---- ------ ---- - -------- ------- -- --- --------<br>-------- ----------- ---- ------ ---- ------ ---- --- ---<br>-------- --- -----,195083.5,195078.39999997616,194761.154,194776.59999996424,194777.865,195095.374,,2,Georgia
screen,html.Screen,2_3_1_0_1_3,2022-05-10T16:25:48.592Z,,,,,,,,,,,,,,,,,40,,,,,,,,,,,,,,316.02599997614743,,response,,,,9,B,,,,,,Space,keypress(Space),,,,lyrical,,,,------ -- ------- have ---- ---- - -------- ----- --- --<br>----- ----- ------ -- ---- -- --- - ---- -- - ----- -----<br>------ ---- ------ ---- - -------- ------- -- --- --------<br>-------- ----------- ---- ------ ---- ------ ---- --- ---<br>-------- --- -----,195416.29999995232,195411.39999997616,195078.663,195083.59999996424,195095.374,195429.594,,3,have
screen,html.Screen,2_3_1_0_1_4,2022-05-10T16:25:48.897Z,,,,,,,,,,,,,,,,,40,,,,,,,,,,,,,,286.80599997614627,,response,,,,9,B,,,,,,Space,keypress(Space),,,,lyrical,,,,------ -- ------- ---- shut ---- - -------- ----- --- --<br>----- ----- ------ -- ---- -- --- - ---- -- - ----- -----<br>------ ---- ------ ---- - -------- ------- -- --- --------<br>-------- ----------- ---- ------ ---- ------ ---- --- ---<br>-------- --- -----,195721.39999997616,195716.39999997616,195412.883,195416.5,195429.594,195730.392,,4,shut
screen,html.Screen,2_3_1_0_1_5,2022-05-10T16:25:49.218Z,,,,,,,,,,,,,,,,,40,,,,,,,,,,,,,,307.0079999761656,,response,,,,9,B,,,,,,Space,keypress(Space),,,,lyrical,,,,------ -- ------- ---- ---- down - -------- ----- --- --<br>----- ----- ------ -- ---- -- --- - ---- -- - ----- -----<br>------ ---- ------ ---- - -------- ------- -- --- --------<br>-------- ----------- ---- ------ ---- ------ ---- --- ---<br>-------- --- -----,196042.39999997616,196037.39999997616,195713.681,195721.59999996424,195730.392,196047.901,,5,down
screen,html.Screen,2_3_1_0_1_6,2022-05-10T16:25:49.520Z,,,,,,,,,,,,,,,,,40,,,,,,,,,,,,,,291.49899997614557,,response,,,,9,B,,,,,,Space,keypress(Space),,,,lyrical,,,,------ -- ------- ---- ---- ---- a -------- ----- --- --<br>----- ----- ------ -- ---- -- --- - ---- -- - ----- -----<br>------ ---- ------ ---- - -------- ------- -- --- --------<br>-------- ----------- ---- ------ ---- ------ ---- --- ---<br>-------- --- -----,196344.39999997616,196339.39999997616,196031.19,196042.69999998808,196047.901,196348.699,,6,a
screen,html.Screen,2_3_1_0_1_7,2022-05-10T16:25:49.885Z,,,,,,,,,,,,,,,,,40,,,,,,,,,,,,,,354.60099995232304,,response,,,,9,B,,,,,,Space,keypress(Space),,,,lyrical,,,,------ -- ------- ---- ---- ---- - lemonade ----- --- --<br>----- ----- ------ -- ---- -- --- - ---- -- - ----- -----<br>------ ---- ------ ---- - -------- ------- -- --- --------<br>-------- ----------- ---- ------ ---- ------ ---- --- ---<br>-------- --- -----,196708.79999995232,196703.29999995232,196331.988,196344.5,196348.699,196716.341,,7,lemonade
screen,html.Screen,2_3_1_0_1_8,2022-05-10T16:25:50.166Z,,,,,,,,,,,,,,,,,40,,,,,,,,,,,,,,268.9589999523305,,response,,,,9,B,,,,,,Space,keypress(Space),,,,lyrical,,,,------ -- ------- ---- ---- ---- - -------- stand --- --<br>----- ----- ------ -- ---- -- --- - ---- -- - ----- -----<br>------ ---- ------ ---- - -------- ------- -- --- --------<br>-------- ----------- ---- ------ ---- ------ ---- --- ---<br>-------- --- -----,196990,196985.29999995232,196699.63,196709,196716.341,197000.428,,8,stand
screen,html.Screen,2_3_1_0_1_9,2022-05-10T16:25:50.506Z,,,,,,,,,,,,,,,,,40,,,,,,,,,,,,,,324.87199995230185,,response,,,,9,B,,,,,,Space,keypress(Space),,,,lyrical,,,,------ -- ------- ---- ---- ---- - -------- ----- run --<br>----- ----- ------ -- ---- -- --- - ---- -- - ----- -----<br>------ ---- ------ ---- - -------- ------- -- --- --------<br>-------- ----------- ---- ------ ---- ------ ---- --- ---<br>-------- --- -----,197330.39999997616,197325.29999995232,196983.717,196990.09999996424,197000.428,197334.648,,9,run
screen,html.Screen,2_3_1_0_1_10,2022-05-10T16:25:50.874Z,,,,,,,,,,,,,,,,,40,,,,,,,,,,,,,,358.6519999523298,,response,,,,9,B,,,,,,Space,keypress(Space),,,,lyrical,,,,------ -- ------- ---- ---- ---- - -------- ----- --- by<br>----- ----- ------ -- ---- -- --- - ---- -- - ----- -----<br>------ ---- ------ ---- - -------- ------- -- --- --------<br>-------- ----------- ---- ------ ---- ------ ---- --- ---<br>-------- --- -----,197698.19999998808,197693.29999995232,197317.937,197330.59999996424,197334.648,197702.476,,10,by
screen,html.Screen,2_3_1_0_1_11,2022-05-10T16:25:51.172Z,,,,,,,,,,,,,,,,,40,,,,,,,,,,,,,,288.8239999523212,,response,,,,9,B,,,,,,Space,keypress(Space),,,,lyrical,,,,------ -- ------- ---- ---- ---- - -------- ----- --- --<br>three ----- ------ -- ---- -- --- - ---- -- - ----- -----<br>------ ---- ------ ---- - -------- ------- -- --- --------<br>-------- ----------- ---- ------ ---- ------ ---- --- ---<br>-------- --- -----,197996.29999995232,197991.29999995232,197685.765,197698.29999995232,197702.476,198003.274,,11,three
screen,html.Screen,2_3_1_0_1_12,2022-05-10T16:25:51.488Z,,,,,,,,,,,,,,,,,40,,,,,,,,,,,,,,304.0259999523114,,response,,,,9,B,,,,,,Space,keypress(Space),,,,lyrical,,,,------ -- ------- ---- ---- ---- - -------- ----- --- --<br>----- girls ------ -- ---- -- --- - ---- -- - ----- -----<br>------ ---- ------ ---- - -------- ------- -- --- --------<br>-------- ----------- ---- ------ ---- ------ ---- --- ---<br>-------- --- -----,198312.29999995232,198307.29999995232,197986.563,197996.39999997616,198003.274,198320.783,,12,girls
screen,html.Screen,2_3_1_0_1_13,2022-05-10T16:25:51.801Z,,,,,,,,,,,,,,,,,40,,,,,,,,,,,,,,299.41699998808326,,response,,,,9,B,,,,,,Space,keypress(Space),,,,lyrical,,,,------ -- ------- ---- ---- ---- - -------- ----- --- --<br>----- ----- trying -- ---- -- --- - ---- -- - ----- -----<br>------ ---- ------ ---- - -------- ------- -- --- --------<br>-------- ----------- ---- ------ ---- ------ ---- --- ---<br>-------- --- -----,198625.19999998808,198620.19999998808,198304.072,198312.5,198320.783,198638.292,,13,trying
screen,html.Screen,2_3_1_0_1_14,2022-05-10T16:25:52.178Z,,,,,,,,,,,,,,,,,40,,,,,,,,,,,,,,358.90799998809234,,response,,,,9,B,,,,,,Space,keypress(Space),,,,lyrical,,,,------ -- ------- ---- ---- ---- - -------- ----- --- --<br>----- ----- ------ to ---- -- --- - ---- -- - ----- -----<br>------ ---- ------ ---- - -------- ------- -- --- --------<br>-------- ----------- ---- ------ ---- ------ ---- --- ---<br>-------- --- -----,199002.19999998808,198997.19999998808,198621.581,198625.39999997616,198638.292,199005.934,,14,to
screen,html.Screen,2_3_1_0_1_15,2022-05-10T16:25:52.513Z,,,,,,,,,,,,,,,,,40,,,,,,,,,,,,,,326.2659999880707,,response,,,,9,B,,,,,,Space,keypress(Space),,,,lyrical,,,,------ -- ------- ---- ---- ---- - -------- ----- --- --<br>----- ----- ------ -- save -- --- - ---- -- - ----- -----<br>------ ---- ------ ---- - -------- ------- -- --- --------<br>-------- ----------- ---- ------ ---- ------ ---- --- ---<br>-------- --- -----,199337.19999998808,199332.19999998808,198989.223,199002.29999995232,199005.934,199340.154,,15,save
screen,html.Screen,2_3_1_0_1_16,2022-05-10T16:25:52.871Z,,,,,,,,,,,,,,,,,40,,,,,,,,,,,,,,350.14599995230674,,response,,,,9,B,,,,,,Space,keypress(Space),,,,lyrical,,,,------ -- ------- ---- ---- ---- - -------- ----- --- --<br>----- ----- ------ -- ---- up --- - ---- -- - ----- -----<br>------ ---- ------ ---- - -------- ------- -- --- --------<br>-------- ----------- ---- ------ ---- ------ ---- --- ---<br>-------- --- -----,199695,199690.29999995232,199323.443,199337.39999997616,199340.154,199707.796,,16,up
screen,html.Screen,2_3_1_0_1_17,2022-05-10T16:25:53.194Z,,,,,,,,,,,,,,,,,40,,,,,,,,,,,,,,305.3039999642351,,response,,,,9,B,,,,,,Space,keypress(Space),,,,lyrical,,,,------ -- ------- ---- ---- ---- - -------- ----- --- --<br>----- ----- ------ -- ---- -- for - ---- -- - ----- -----<br>------ ---- ------ ---- - -------- ------- -- --- --------<br>-------- ----------- ---- ------ ---- ------ ---- --- ---<br>-------- --- -----,200018.19999998808,200013.09999996424,199691.085,199695.19999998808,199707.796,200025.305,,17,for
screen,html.Screen,2_3_1_0_1_18,2022-05-10T16:25:53.519Z,,,,,,,,,,,,,,,,,40,,,,,,,,,,,,,,312.89499998808606,,response,,,,9,B,,,,,,Space,keypress(Space),,,,lyrical,,,,------ -- ------- ---- ---- ---- - -------- ----- --- --<br>----- ----- ------ -- ---- -- --- a ---- -- - ----- -----<br>------ ---- ------ ---- - -------- ------- -- --- --------<br>-------- ----------- ---- ------ ---- ------ ---- --- ---<br>-------- --- -----,200343.09999996424,200338.19999998808,200008.594,200018.39999997616,200025.305,200359.525,,18,a
screen,html.Screen,2_3_1_0_1_19,2022-05-10T16:25:53.900Z,,,,,,,,,,,,,,,,,40,,,,,,,,,,,,,,359.57499996424303,,response,,,,9,B,,,,,,Space,keypress(Space),,,,lyrical,,,,------ -- ------- ---- ---- ---- - -------- ----- --- --<br>----- ----- ------ -- ---- -- --- - trip -- - ----- -----<br>------ ---- ------ ---- - -------- ------- -- --- --------<br>-------- ----------- ---- ------ ---- ------ ---- --- ---<br>-------- --- -----,200724,200719.09999996424,200342.814,200343.19999998808,200359.525,200727.167,,19,trip
screen,html.Screen,2_3_1_0_1_20,2022-05-10T16:25:54.258Z,,,,,,,,,,,,,,,,,40,,,,,,,,,,,,,,350.03299998809234,,response,,,,9,B,,,,,,Space,keypress(Space),,,,lyrical,,,,------ -- ------- ---- ---- ---- - -------- ----- --- --<br>----- ----- ------ -- ---- -- --- - ---- to - ----- -----<br>------ ---- ------ ---- - -------- ------- -- --- --------<br>-------- ----------- ---- ------ ---- ------ ---- --- ---<br>-------- --- -----,201082,201077.19999998808,200710.456,200724.29999995232,200727.167,201094.809,,20,to
screen,html.Screen,2_3_1_0_1_21,2022-05-10T16:25:54.601Z,,,,,,,,,,,,,,,,,40,,,,,,,,,,,,,,325.1909999999916,,response,,,,9,B,,,,,,Space,keypress(Space),,,,lyrical,,,,------ -- ------- ---- ---- ---- - -------- ----- --- --<br>----- ----- ------ -- ---- -- --- - ---- -- a ----- -----<br>------ ---- ------ ---- - -------- ------- -- --- --------<br>-------- ----------- ---- ------ ---- ------ ---- --- ---<br>-------- --- -----,201425.09999996424,201420,201078.098,201082.09999996424,201094.809,201429.029,,21,a
screen,html.Screen,2_3_1_0_1_22,2022-05-10T16:25:55.040Z,,,,,,,,,,,,,,,,,40,,,,,,,,,,,,,,429.97099999999045,,response,,,,9,B,,,,,,Space,keypress(Space),,,,lyrical,,,,------ -- ------- ---- ---- ---- - -------- ----- --- --<br>----- ----- ------ -- ---- -- --- - ---- -- - water -----<br>------ ---- ------ ---- - -------- ------- -- --- --------<br>-------- ----------- ---- ------ ---- ------ ---- --- ---<br>-------- --- -----,201864,201859,201412.318,201425.19999998808,201429.029,201880.226,,22,water
screen,html.Screen,2_3_1_0_1_23,2022-05-10T16:25:55.489Z,,,,,,,,,,,,,,,,,40,,,,,,,,,,,,,,427.8739999642421,,response,,,,9,B,,,,,,Space,keypress(Space),,,,lyrical,,,,"------ -- ------- ---- ---- ---- - -------- ----- --- --<br>----- ----- ------ -- ---- -- --- - ---- -- - ----- park,<br>------ ---- ------ ---- - -------- ------- -- --- --------<br>-------- ----------- ---- ------ ---- ------ ---- --- ---<br>-------- --- -----",202313,202308.09999996424,201863.515,201864.5,201880.226,202314.712,,23,"park,"
screen,html.Screen,2_3_1_0_1_24,2022-05-10T16:25:55.905Z,,,,,,,,,,,,,,,,,40,,,,,,,,,,,,,,409.28800000000047,,response,,,,9,B,,,,,,Space,keypress(Space),,,,lyrical,,,,------ -- ------- ---- ---- ---- - -------- ----- --- --<br>----- ----- ------ -- ---- -- --- - ---- -- - ----- -----<br>saying ---- ------ ---- - -------- ------- -- --- --------<br>-------- ----------- ---- ------ ---- ------ ---- --- ---<br>-------- --- -----,202729.09999996424,202724,202298.001,202313.09999996424,202314.712,202732.487,,24,saying
screen,html.Screen,2_3_1_0_1_25,2022-05-10T16:25:56.173Z,,,,,,,,,,,,,,,,,40,,,,,,,,,,,,,,259.31299995232257,,response,,,,9,B,,,,,,Space,keypress(Space),,,,lyrical,,,,------ -- ------- ---- ---- ---- - -------- ----- --- --<br>----- ----- ------ -- ---- -- --- - ---- -- - ----- -----<br>------ they ------ ---- - -------- ------- -- --- --------<br>-------- ----------- ---- ------ ---- ------ ---- --- ---<br>-------- --- -----,202996.79999995232,202991.79999995232,202715.776,202729.29999995232,202732.487,202999.863,,25,they
screen,html.Screen,2_3_1_0_1_26,2022-05-10T16:25:56.429Z,,,,,,,,,,,,,,,,,40,,,,,,,,,,,,,,248.03699997614603,,response,,,,9,B,,,,,,Space,keypress(Space),,,,lyrical,,,,------ -- ------- ---- ---- ---- - -------- ----- --- --<br>----- ----- ------ -- ---- -- --- - ---- -- - ----- -----<br>------ ---- didn't ---- - -------- ------- -- --- --------<br>-------- ----------- ---- ------ ---- ------ ---- --- ---<br>-------- --- -----,203252.89999997616,203247.89999997616,202983.152,202997,202999.863,203267.239,,26,didn't
screen,html.Screen,2_3_1_0_1_27,2022-05-10T16:25:56.803Z,,,,,,,,,,,,,,,,,40,,,,,,,,,,,,,,354.66099997615675,,response,,,,9,B,,,,,,Space,keypress(Space),,,,lyrical,,,,------ -- ------- ---- ---- ---- - -------- ----- --- --<br>----- ----- ------ -- ---- -- --- - ---- -- - ----- -----<br>------ ---- ------ have - -------- ------- -- --- --------<br>-------- ----------- ---- ------ ---- ------ ---- --- ---<br>-------- --- -----,203627,203621.89999997616,203250.528,203253,203267.239,203634.881,,27,have
screen,html.Screen,2_3_1_0_1_28,2022-05-10T16:25:57.089Z,,,,,,,,,,,,,,,,,40,,,,,,,,,,,,,,273.0189999761642,,response,,,,9,B,,,,,,Space,keypress(Space),,,,lyrical,,,,------ -- ------- ---- ---- ---- - -------- ----- --- --<br>----- ----- ------ -- ---- -- --- - ---- -- - ----- -----<br>------ ---- ------ ---- a -------- ------- -- --- --------<br>-------- ----------- ---- ------ ---- ------ ---- --- ---<br>-------- --- -----,203912.79999995232,203907.89999997616,203618.17,203627.19999998808,203634.881,203918.968,,28,a
screen,html.Screen,2_3_1_0_1_29,2022-05-10T16:25:57.528Z,,,,,,,,,,,,,,,,,40,,,,,,,,,,,,,,428.0320000000065,,response,,,,9,B,,,,,,Space,keypress(Space),,,,lyrical,,,,------ -- ------- ---- ---- ---- - -------- ----- --- --<br>----- ----- ------ -- ---- -- --- - ---- -- - ----- -----<br>------ ---- ------ ---- - business ------- -- --- --------<br>-------- ----------- ---- ------ ---- ------ ---- --- ---<br>-------- --- -----,204352,204347,203902.257,203913,203918.968,204370.165,,29,business
screen,html.Screen,2_3_1_0_1_30,2022-05-10T16:25:57.929Z,,,,,,,,,,,,,,,,,40,,,,,,,,,,,,,,376.63499995230814,,response,,,,9,B,,,,,,Space,keypress(Space),,,,lyrical,,,,------ -- ------- ---- ---- ---- - -------- ----- --- --<br>----- ----- ------ -- ---- -- --- - ---- -- - ----- -----<br>------ ---- ------ ---- - -------- license -- --- --------<br>-------- ----------- ---- ------ ---- ------ ---- --- ---<br>-------- --- -----,204752.79999995232,204746.79999995232,204353.454,204353.09999996424,204370.165,204754.518,,30,license
screen,html.Screen,2_3_1_0_1_31,2022-05-10T16:25:58.249Z,,,,,,,,,,,,,,,,,40,,,,,,,,,,,,,,313.3819999761472,,response,,,,9,B,,,,,,Space,keypress(Space),,,,lyrical,,,,------ -- ------- ---- ---- ---- - -------- ----- --- --<br>----- ----- ------ -- ---- -- --- - ---- -- - ----- -----<br>------ ---- ------ ---- - -------- ------- or --- --------<br>-------- ----------- ---- ------ ---- ------ ---- --- ---<br>-------- --- -----,205072.89999997616,205067.89999997616,204737.807,204753,204754.518,205088.738,,31,or
screen,html.Screen,2_3_1_0_1_32,2022-05-10T16:25:58.617Z,,,,,,,,,,,,,,,,,40,,,,,,,,,,,,,,347.0619999523042,,response,,,,9,B,,,,,,Space,keypress(Space),,,,lyrical,,,,------ -- ------- ---- ---- ---- - -------- ----- --- --<br>----- ----- ------ -- ---- -- --- - ---- -- - ----- -----<br>------ ---- ------ ---- - -------- ------- -- the --------<br>-------- ----------- ---- ------ ---- ------ ---- --- ---<br>-------- --- -----,205440.79999995232,205435.79999995232,205072.027,205073,205088.738,205456.38,,32,the
screen,html.Screen,2_3_1_0_1_33,2022-05-10T16:25:59.060Z,,,,,,,,,,,,,,,,,40,,,,,,,,,,,,,,422.21999996423256,,response,,,,9,B,,,,,,Space,keypress(Space),,,,lyrical,,,,------ -- ------- ---- ---- ---- - -------- ----- --- --<br>----- ----- ------ -- ---- -- --- - ---- -- - ----- -----<br>------ ---- ------ ---- - -------- ------- -- --- required<br>-------- ----------- ---- ------ ---- ------ ---- --- ---<br>-------- --- -----,205883.39999997616,205878.59999996424,205439.669,205441,205456.38,205890.866,,33,required
screen,html.Screen,2_3_1_0_1_34,2022-05-10T16:25:59.486Z,,,,,,,,,,,,,,,,,40,,,,,,,,,,,,,,413.9339999523072,,response,,,,9,B,,,,,,Space,keypress(Space),,,,lyrical,,,,------ -- ------- ---- ---- ---- - -------- ----- --- --<br>----- ----- ------ -- ---- -- --- - ---- -- - ----- -----<br>------ ---- ------ ---- - -------- ------- -- --- --------<br>permits. ----------- ---- ------ ---- ------ ---- --- ---<br>-------- --- -----,206309.69999998808,206304.79999995232,205874.155,205883.89999997616,205890.866,206325.352,,34,permits.
screen,html.Screen,2_3_1_0_1_35,2022-05-10T16:25:59.879Z,,,,,,,,,,,,,,,,,40,,,,,,,,,,,,,,372.2479999642237,,response,,,,9,B,,,,,,Space,keypress(Space),,,,lyrical,,,,------ -- ------- ---- ---- ---- - -------- ----- --- --<br>----- ----- ------ -- ---- -- --- - ---- -- - ----- -----<br>------ ---- ------ ---- - -------- ------- -- --- --------<br>-------- Morningstar ---- ------ ---- ------ ---- --- ---<br>-------- --- -----,206702.79999995232,206697.59999996424,206308.641,206309.79999995232,206325.352,206709.705,,35,Morningstar
screen,html.Screen,2_3_1_0_1_36,2022-05-10T16:26:00.434Z,,,,,,,,,,,,,,,,,40,,,,,,,,,,,,,,543.0949999523291,,response,,,,9,B,,,,,,Space,keypress(Space),,,,lyrical,,,,------ -- ------- ---- ---- ---- - -------- ----- --- --<br>----- ----- ------ -- ---- -- --- - ---- -- - ----- -----<br>------ ---- ------ ---- - -------- ------- -- --- --------<br>-------- ----------- says ------ ---- ------ ---- --- ---<br>-------- --- -----,207258.09999996424,207252.79999995232,206692.994,206703,206709.705,207261.168,,36,says
screen,html.Screen,2_3_1_0_1_37,2022-05-10T16:26:00.830Z,,,,,,,,,,,,,,,,,40,,,,,,,,,,,,,,387.63199995231116,,response,,,,9,B,,,,,,Space,keypress(Space),,,,lyrical,,,,------ -- ------- ---- ---- ---- - -------- ----- --- --<br>----- ----- ------ -- ---- -- --- - ---- -- - ----- -----<br>------ ---- ------ ---- - -------- ------- -- --- --------<br>-------- ----------- ---- police ---- ------ ---- --- ---<br>-------- --- -----,207653.89999997616,207648.79999995232,207244.457,207258.19999998808,207261.168,207662.232,,37,police
screen,html.Screen,2_3_1_0_1_38,2022-05-10T16:26:01.129Z,,,,,,,,,,,,,,,,,40,,,,,,,,,,,,,,285.46799998809,,response,,,,9,B,,,,,,Space,keypress(Space),,,,lyrical,,,,------ -- ------- ---- ---- ---- - -------- ----- --- --<br>----- ----- ------ -- ---- -- --- - ---- -- - ----- -----<br>------ ---- ------ ---- - -------- ------- -- --- --------<br>-------- ----------- ---- ------ also ------ ---- --- ---<br>-------- --- -----,207952.5,207947.69999998808,207645.521,207654,207662.232,207963.166,,38,also
screen,html.Screen,2_3_1_0_1_39,2022-05-10T16:26:01.566Z,,,,,,,,,,,,,,,,,40,,,,,,,,,,,,,,421.53399998808163,,response,,,,9,B,,,,,,Space,keypress(Space),,,,lyrical,,,,------ -- ------- ---- ---- ---- - -------- ----- --- --<br>----- ----- ------ -- ---- -- --- - ---- -- - ----- -----<br>------ ---- ------ ---- - -------- ------- -- --- --------<br>-------- ----------- ---- ------ ---- didn't ---- --- ---<br>-------- --- -----,208389.69999998808,208384.69999998808,207946.455,207952.69999998808,207963.166,208397.652,,39,didn't
screen,html.Screen,2_3_1_0_1_40,2022-05-10T16:26:01.953Z,,,,,,,,,,,,,,,,,40,,,,,,,,,,,,,,373.94799996423535,,response,,,,9,B,,,,,,Space,keypress(Space),,,,lyrical,,,,------ -- ------- ---- ---- ---- - -------- ----- --- --<br>----- ----- ------ -- ---- -- --- - ---- -- - ----- -----<br>------ ---- ------ ---- - -------- ------- -- --- --------<br>-------- ----------- ---- ------ ---- ------ know --- ---<br>-------- --- -----,208776.69999998808,208771.59999996424,208380.941,208389.79999995232,208397.652,208782.005,,40,know
screen,html.Screen,2_3_1_0_1_41,2022-05-10T16:26:02.306Z,,,,,,,,,,,,,,,,,40,,,,,,,,,,,,,,342.6949999880744,,response,,,,9,B,,,,,,Space,keypress(Space),,,,lyrical,,,,------ -- ------- ---- ---- ---- - -------- ----- --- --<br>----- ----- ------ -- ---- -- --- - ---- -- - ----- -----<br>------ ---- ------ ---- - -------- ------- -- --- --------<br>-------- ----------- ---- ------ ---- ------ ---- how ---<br>-------- --- -----,209129.59999996424,209124.69999998808,208765.294,208776.79999995232,208782.005,209132.936,,41,how
screen,html.Screen,2_3_1_0_1_42,2022-05-10T16:26:02.696Z,,,,,,,,,,,,,,,,,40,,,,,,,,,,,,,,381.66399996425025,,response,,,,9,B,,,,,,Space,keypress(Space),,,,lyrical,,,,------ -- ------- ---- ---- ---- - -------- ----- --- --<br>----- ----- ------ -- ---- -- --- - ---- -- - ----- -----<br>------ ---- ------ ---- - -------- ------- -- --- --------<br>-------- ----------- ---- ------ ---- ------ ---- --- the<br>-------- --- -----,209519.69999998808,209514.59999996424,209116.225,209129.69999998808,209132.936,209534,,42,the
screen,html.Screen,2_3_1_0_1_43,2022-05-10T16:26:03.108Z,,,,,,,,,,,,,,,,,40,,,,,,,,,,,,,,392.5999999642372,,response,,,,9,B,,,,,,Space,keypress(Space),,,,lyrical,,,,------ -- ------- ---- ---- ---- - -------- ----- --- --<br>----- ----- ------ -- ---- -- --- - ---- -- - ----- -----<br>------ ---- ------ ---- - -------- ------- -- --- --------<br>-------- ----------- ---- ------ ---- ------ ---- --- ---<br>lemonade --- -----,209931.69999998808,209926.59999996424,209517.289,209519.79999995232,209534,209935.064,,43,lemonade
screen,html.Screen,2_3_1_0_1_44,2022-05-10T16:26:03.615Z,,,,,,,,,,,,,,,,,40,,,,,,,,,,,,,,498.63599998806603,,response,,,,9,B,,,,,,Space,keypress(Space),,,,lyrical,,,,------ -- ------- ---- ---- ---- - -------- ----- --- --<br>----- ----- ------ -- ---- -- --- - ---- -- - ----- -----<br>------ ---- ------ ---- - -------- ------- -- --- --------<br>-------- ----------- ---- ------ ---- ------ ---- --- ---<br>-------- was -----,210438.39999997616,210433.69999998808,209918.353,209931.79999995232,209935.064,210453.105,,44,was
screen,html.Screen,2_3_1_0_1_45,2022-05-10T16:26:04.659Z,,,,,,,,,,,,,,,,,40,,,,,,,,,,,,,,1023.3949999999895,,response,,,,9,B,,,,,,Space,keypress(Space),,,,lyrical,,,,------ -- ------- ---- ---- ---- - -------- ----- --- --<br>----- ----- ------ -- ---- -- --- - ---- -- - ----- -----<br>------ ---- ------ ---- - -------- ------- -- --- --------<br>-------- ----------- ---- ------ ---- ------ ---- --- ---<br>-------- --- made.,211482.29999995232,211476.5,210436.394,210438.59999996424,210453.105,211489.187,,45,made.
Item 9,flow.Loop,2_3_1_0_1,2022-05-10T16:26:04.659Z,,,,,,,,,,,,,,,,,,,,,,,,,,,,,,,17751.428000000014,,completion,,,,,,,,,,,,,,,,,,,,,211482.69999998808,211476.5,193708.361,193711.19999998808,193725.072,211489.187,,,
Question 1,html.Screen,2_3_1_0_2,2022-05-10T16:26:07.517Z,,,,,,,,,,,,,,,,,,,,,,,,,,,,true,FALSE,,2849.212999976153,,response,,,,9,B,,,,,,FALSE,click #choice-2,,,,lyrical,,,,,214340.79999995232,214338.39999997616,211472.476,211482.79999995232,211489.187,214346.768,,,
Question 2,html.Screen,2_3_1_0_3,2022-05-10T16:26:10.120Z,,,,,,,,,,,,,,,,,,,,,,,,,,,,true,FALSE,,2594.431999988068,,response,,,,9,B,,,,,,FALSE,click #choice-2,,,,lyrical,,,,,216943.59999996424,216941.19999998808,214330.057,214341,214346.768,216953.684,,,
Item 9,flow.Sequence,2_3_1_0,2022-05-10T16:26:10.120Z,,,,,,,,,,,,,,,,,,,,,,,,,,,,,,,30218.32299998807,,completion,,,,,,,,,,,,,,,,,,,,,216943.89999997616,216941.19999998808,186706.166,186708.69999998808,186722.877,216953.684,,,
