sender,sender_type,sender_id,timestamp,meta,,Blues,Classical,Country,Dance,Electronic,Folk,Gospel,Hip-Hop,Jazz,Latin,Musical/Film,New-age,Pop,Prolific_id,Provo_ID,R&B,Rap,Reggae,Religious,Rock,Soul,Swing,Traditional,age,artist_name,correct,correctResponse,distraction,duration,education,ended_on,familiarity,gender,headphone_check_performance,item,list,music_frequency,offensiveness,pleasantness,position_correct,preference,response,response_action,snippet_file,song_name,song_rating,sound,stimulus_1,stimulus_2,stimulus_3,text,time_commit,time_end,time_render,time_run,time_show,time_switch,url,word,word_ID
Prolific ID,html.Form,0,2022-05-03T13:11:58.124Z,"{""labjs_version"":""20.2.2"",""labjs_build"":{""flavor"":""production"",""commit"":""a25486e0c714a0ae2ce03ff94b7bb6896854dcfa""},""location"":""https://run.pavlovia.org/mvasilev/prolific3_music_h/"",""userAgent"":""Mozilla/5.0 (Macintosh; Intel Mac OS X 10_15_7) AppleWebKit/537.36 (KHTML, like Gecko) Chrome/100.0.4896.75 Safari/537.36"",""platform"":""MacIntel"",""language"":""en-GB"",""locale"":""en-GB"",""timeZone"":""Europe/London"",""timezoneOffset"":-60,""screen_width"":1920,""screen_height"":1080,""scroll_width"":1920,""scroll_height"":953,""window_innerWidth"":1920,""window_innerHeight"":1001,""devicePixelRatio"":1}",,,,,,,,,,,,,,,60377564edd48263e3130a88,,,,,,,,,,,,,,,9507.244999999999,,form submission,,,,,,,,,,,,,,,,,,,,,26862.300000000745,26862,17338.089,10739.400000002235,17354.755,26871.416,{},,
Introduction,html.Screen,1_0,2022-05-03T13:12:11.040Z,,,,,,,,,,,,,,,,,,,,,,,,,,,,,,,12889.984000002234,,response,,,,,,,,,,,continue,click button,,,,,,,,,39778.5,39761.400000002235,26854.75,26862.5,26871.416,39787.507,,,
Volume calibration,html.Screen,1_1,2022-05-03T13:12:29.221Z,,,,,,,,,,,,,,,,,,,,,,,,,,,,,,,18153.293000000747,,response,,,,,,,,,,,continue,click button,,,,,,,,,57960.300000000745,57940.800000000745,39770.841,39778.5,39787.507,57986.905,,,
Task instructions,html.Screen,1_2,2022-05-03T13:12:40.819Z,,,,,,,,,,,,,,,,,,,,,,,,,,,,,,,11552.195000001491,,response,,,,,,,,,,,continue,click button,,,,,,,,,69559.60000000149,69539.10000000149,57970.239,57960.300000000745,57986.905,69569.775,,,
Sounds,html.Screen,1_3_0_0,2022-05-03T13:12:45.067Z,,,,,,,,,,,,,,,,,,,,,,,,,,,,,,,4250.080000000002,,timeout,,,,,,,,,2,,,,,,,,O,S,I,,73807.10000000149,73803.189,69553.109,69559.80000000075,69569.775,73819.855,,,
Judgement,html.Screen,1_3_0_1,2022-05-03T13:12:45.869Z,,,,,,,,,,,,,,,,,,,,,,,,,,,,true,2,,781.4450000007491,,response,,,,,,,,,2,,2,click #choice-2,,,,,O,S,I,,74609.5,74601.30000000075,73803.189,73807.30000000075,73819.855,74636.489,,,
Trial,flow.Sequence,1_3_0,2022-05-03T13:12:45.869Z,,,,,,,,,,,,,,,,,,,,,,,,,,,,,,,5031.525000000751,,completion,,,,,,,,,2,,,,,,,,O,S,I,,74609.80000000075,74601.30000000075,69553.109,69559.80000000075,69569.775,74636.489,,,
Sounds,html.Screen,1_3_1_0,2022-05-03T13:12:50.131Z,,,,,,,,,,,,,,,,,,,,,,,,,,,,,,,4249.830000000002,,timeout,,,,,,,,,3,,,,,,,,I,O,S,,78871.5,78869.653,74619.823,74609.90000000224,74636.489,78886.319,,,
Judgement,html.Screen,1_3_1_1,2022-05-03T13:12:51.168Z,,,,,,,,,,,,,,,,,,,,,,,,,,,,true,3,,1013.581000002232,,response,,,,,,,,,3,,3,click #choice-3,,,,,I,O,S,,79909,79899.90000000224,78869.653,78871.60000000149,78886.319,79919.611,,,
Trial,flow.Sequence,1_3_1,2022-05-03T13:12:51.168Z,,,,,,,,,,,,,,,,,,,,,,,,,,,,,,,5263.411000002234,,completion,,,,,,,,,3,,,,,,,,I,O,S,,79909.20000000298,79899.90000000224,74619.823,74609.90000000224,74636.489,79919.611,,,
Sounds,html.Screen,1_3_2_0,2022-05-03T13:12:55.414Z,,,,,,,,,,,,,,,,,,,,,,,,,,,,,,,4249.890999999989,,timeout,,,,,,,,,1,,,,,,,,S,I,O,,84155.20000000298,84152.836,79902.945,79909.20000000298,79919.611,84169.502,,,
Judgement,html.Screen,1_3_2_1,2022-05-03T13:12:56.251Z,,,,,,,,,,,,,,,,,,,,,,,,,,,,true,1,,815.1980000029871,,response,,,,,,,,,1,,1,click #choice-1,,,,,S,I,O,,84992.30000000075,84984.70000000298,84152.836,84155.30000000075,84169.502,85002.802,,,
Trial,flow.Sequence,1_3_2,2022-05-03T13:12:56.251Z,,,,,,,,,,,,,,,,,,,,,,,,,,,,,,,5065.089000002976,,completion,,,,,,,,,1,,,,,,,,S,I,O,,84992.40000000224,84984.70000000298,79902.945,79909.20000000298,79919.611,85002.802,,,
Sounds,html.Screen,1_3_3_0,2022-05-03T13:13:00.496Z,,,,,,,,,,,,,,,,,,,,,,,,,,,,,,,4249.830000000002,,timeout,,,,,,,,,3,,,,,,,,O,I,S,,89237.20000000298,89235.966,84986.136,84992.5,85002.802,89252.632,,,
Judgement,html.Screen,1_3_3_1,2022-05-03T13:13:00.884Z,,,,,,,,,,,,,,,,,,,,,,,,,,,,true,3,,355.4680000014923,,response,,,,,,,,,3,,3,click #choice-3,,,,,O,I,S,,89625.40000000224,89608.10000000149,89235.966,89237.40000000224,89252.632,89635.95,,,
Trial,flow.Sequence,1_3_3,2022-05-03T13:13:00.885Z,,,,,,,,,,,,,,,,,,,,,,,,,,,,,,,4605.298000001494,,completion,,,,,,,,,3,,,,,,,,O,I,S,,89625.70000000298,89608.10000000149,84986.136,84992.5,85002.802,89635.95,,,
Sounds,html.Screen,1_3_4_0,2022-05-03T13:13:05.130Z,,,,,,,,,,,,,,,,,,,,,,,,,,,,,,,4249.830000000002,,timeout,,,,,,,,,2,,,,,,,,I,S,O,,93871.40000000224,93869.114,89619.284,89625.70000000298,89635.95,93885.78,,,
Judgement,html.Screen,1_3_4_1,2022-05-03T13:13:05.484Z,,,,,,,,,,,,,,,,,,,,,,,,,,,,true,2,,323.5200000007462,,response,,,,,,,,,2,,2,click #choice-2,,,,,I,S,O,,94225.20000000298,94209.30000000075,93869.114,93871.5,93885.78,94235.962,,,
Trial,flow.Sequence,1_3_4,2022-05-03T13:13:05.484Z,,,,,,,,,,,,,,,,,,,,,,,,,,,,,,,4573.350000000748,,completion,,,,,,,,,2,,,,,,,,I,S,O,,94225.30000000075,94209.30000000075,89619.284,89625.70000000298,89635.95,94235.962,,,
Sounds,html.Screen,1_3_5_0,2022-05-03T13:13:09.729Z,,,,,,,,,,,,,,,,,,,,,,,,,,,,,,,4249.830000000002,,timeout,,,,,,,,,1,,,,,,,,S,O,I,,98470.80000000075,98469.126,94219.296,94225.40000000224,94235.962,98485.792,,,
Judgement,html.Screen,1_3_5_1,2022-05-03T13:13:10.134Z,,,,,,,,,,,,,,,,,,,,,,,,,,,,true,1,,369.6080000022339,,response,,,,,,,,,1,,1,click #choice-1,,,,,S,O,I,,98875.40000000224,98855.40000000224,98469.126,98471,98485.792,98885.776,,,
Trial,flow.Sequence,1_3_5,2022-05-03T13:13:10.134Z,,,,,,,,,,,,,,,,,,,,,,,,,,,,,,,4619.438000002236,,completion,,,,,,,,,1,,,,,,,,S,O,I,,98875.60000000149,98855.40000000224,94219.296,94225.40000000224,94235.962,98885.776,,,
Task,flow.Loop,1_3,2022-05-03T13:13:10.137Z,,,,,,,,,,,,,,,,,,,,,,,,,,,,,,,29285.62500000224,,completion,,,1,,,,,,,,,,,,,,,,,,98878.90000000224,98855.40000000224,69553.109,69559.80000000075,69569.775,98885.776,,,
Trap,html.Screen,1_4,2022-05-03T13:13:10.138Z,,,,,,,,,,,,,,,,,,,,,,,,,,,,,,,NaN,,skipped,,,,,,,,,,,,,,,,,,,,,98879.60000000149,98855.40000000224,,98879.5,,98885.776,,,
Thanks,html.Screen,1_5,2022-05-03T13:13:13.400Z,,,,,,,,,,,,,,,,,,,,,,,,,,,,,,,3243.324000001492,,response,,,,,,,,,,,continue,click button,,,,,,,,,102142,102129.10000000149,98869.11,98879.60000000149,98885.776,102269.037,,,
Headphone screening,flow.Sequence,1,2022-05-03T13:13:13.400Z,,,,,,,,,,,,,,,,,,,,,,,,,,,,,,,75257.68400000149,,completion,,,,,,,,,,,,,,,,,,,,,102142.20000000298,102129.10000000149,26854.75,26862.5,26871.416,102269.037,,,
Instructions,html.Page,2_0,2022-05-03T13:13:15.401Z,,,,,,,,,,,,,,,,,,,,,,,,,,,,,,,1873.7630000007484,,form submission,,,,,,,,,,,,,,,,,,,,,104143.10000000149,104142.80000000075,102252.371,102250.80000000075,102269.037,104152.295,,,
Holding screen,html.Screen,2_1_0_0,2022-05-03T13:13:25.394Z,,,,,,,,,,,,,,,,,,,,,,,,,,,,,,,9999.740000000005,,timeout,,,,,,,,,,,,,,,,,,,,,114136.40000000224,114135.369,104135.629,104143.30000000075,104152.295,114152.035,,,
screen,html.Screen,2_1_0_1_0,2022-05-03T13:13:25.865Z,,,,,,,,,,,,,,,,,53,,,,,,,,,,,,,,451.66500000297674,,response,,,,99,,,,,,,Space,keypress(Space),,,,,,,,When -- ----- -- ------ - ------- --- ----------<br>------------- ------ ------ ---- ---- ------- ----- -- ----<br>-------- ------- -- ---------- --- - --- ----- ----- ----<br>---- --- --- ----- --- ---- ---- ------- ----- ---- -------<br>--- --- -- ----- -- --- ---- -- --- ---- -- ------ ------<br>--- ----- -- ----,114607.30000000075,114603.70000000298,114135.369,114136.5,114152.035,114618.683,,0,When
screen,html.Screen,2_1_0_1_1,2022-05-03T13:13:26.179Z,,,,,,,,,,,,,,,,,53,,,,,,,,,,,,,,299.9170000014856,,response,,,,99,,,,,,,Space,keypress(Space),,,,,,,,---- it ----- -- ------ - ------- --- ----------<br>------------- ------ ------ ---- ---- ------- ----- -- ----<br>-------- ------- -- ---------- --- - --- ----- ----- ----<br>---- --- --- ----- --- ---- ---- ------- ----- ---- -------<br>--- --- -- ----- -- --- ---- -- --- ---- -- ------ ------<br>--- ----- -- ----,114921.5,114918.60000000149,114602.017,114607.30000000075,114618.683,114935.337,,1,it
screen,html.Screen,2_1_0_1_2,2022-05-03T13:13:26.382Z,,,,,,,,,,,,,,,,,53,,,,,,,,,,,,,,185.76300000149058,,response,,,,99,,,,,,,Space,keypress(Space),,,,,,,,---- -- comes -- ------ - ------- --- ----------<br>------------- ------ ------ ---- ---- ------- ----- -- ----<br>-------- ------- -- ---------- --- - --- ----- ----- ----<br>---- --- --- ----- --- ---- ---- ------- ----- ---- -------<br>--- --- -- ----- -- --- ---- -- --- ---- -- ------ ------<br>--- ----- -- ----,115124.10000000149,115121.10000000149,114918.671,114921.60000000149,114935.337,115135.329,,2,comes
screen,html.Screen,2_1_0_1_3,2022-05-03T13:13:26.629Z,,,,,,,,,,,,,,,,,53,,,,,,,,,,,,,,233.2710000014922,,response,,,,99,,,,,,,Space,keypress(Space),,,,,,,,---- -- ----- to ------ - ------- --- ----------<br>------------- ------ ------ ---- ---- ------- ----- -- ----<br>-------- ------- -- ---------- --- - --- ----- ----- ----<br>---- --- --- ----- --- ---- ---- ------- ----- ---- -------<br>--- --- -- ----- -- --- ---- -- --- ---- -- ------ ------<br>--- ----- -- ----,115371.10000000149,115368.60000000149,115118.663,115124.20000000298,115135.329,115385.319,,3,to
screen,html.Screen,2_1_0_1_4,2022-05-03T13:13:26.888Z,,,,,,,,,,,,,,,,,53,,,,,,,,,,,,,,241.98100000074191,,response,,,,99,,,,,,,Space,keypress(Space),,,,,,,,---- -- ----- -- having - ------- --- ----------<br>------------- ------ ------ ---- ---- ------- ----- -- ----<br>-------- ------- -- ---------- --- - --- ----- ----- ----<br>---- --- --- ----- --- ---- ---- ------- ----- ---- -------<br>--- --- -- ----- -- --- ---- -- --- ---- -- ------ ------<br>--- ----- -- ----,115630.30000000075,115627.30000000075,115368.653,115371.20000000298,115385.319,115635.309,,4,having
screen,html.Screen,2_1_0_1_5,2022-05-03T13:13:27.158Z,,,,,,,,,,,,,,,,,53,,,,,,,,,,,,,,262.09100000224134,,response,,,,99,,,,,,,Space,keypress(Space),,,,,,,,---- -- ----- -- ------ a ------- --- ----------<br>------------- ------ ------ ---- ---- ------- ----- -- ----<br>-------- ------- -- ---------- --- - --- ----- ----- ----<br>---- --- --- ----- --- ---- ---- ------- ----- ---- -------<br>--- --- -- ----- -- --- ---- -- --- ---- -- ------ ------<br>--- ----- -- ----,115900.40000000224,115897.40000000224,115618.643,115630.30000000075,115635.309,115901.965,,5,a
screen,html.Screen,2_1_0_1_6,2022-05-03T13:13:27.395Z,,,,,,,,,,,,,,,,,53,,,,,,,,,,,,,,232.0350000000035,,response,,,,99,,,,,,,Space,keypress(Space),,,,,,,,---- -- ----- -- ------ - lasting --- ----------<br>------------- ------ ------ ---- ---- ------- ----- -- ----<br>-------- ------- -- ---------- --- - --- ----- ----- ----<br>---- --- --- ----- --- ---- ---- ------- ----- ---- -------<br>--- --- -- ----- -- --- ---- -- --- ---- -- ------ ------<br>--- ----- -- ----,116137.30000000075,116134,115885.299,115900.40000000224,115901.965,116151.955,,6,lasting
screen,html.Screen,2_1_0_1_7,2022-05-03T13:13:27.710Z,,,,,,,,,,,,,,,,,53,,,,,,,,,,,,,,297.04499999999825,,response,,,,99,,,,,,,Space,keypress(Space),,,,,,,,---- -- ----- -- ------ - ------- and ----------<br>------------- ------ ------ ---- ---- ------- ----- -- ----<br>-------- ------- -- ---------- --- - --- ----- ----- ----<br>---- --- --- ----- --- ---- ---- ------- ----- ---- -------<br>--- --- -- ----- -- --- ---- -- --- ---- -- ------ ------<br>--- ----- -- ----,116452.10000000149,116449,116135.289,116137.30000000075,116151.955,116468.609,,7,and
screen,html.Screen,2_1_0_1_8,2022-05-03T13:13:27.979Z,,,,,,,,,,,,,,,,,53,,,,,,,,,,,,,,249.89100000000326,,response,,,,99,,,,,,,Space,keypress(Space),,,,,,,,---- -- ----- -- ------ - ------- --- fulfilling<br>------------- ------ ------ ---- ---- ------- ----- -- ----<br>-------- ------- -- ---------- --- - --- ----- ----- ----<br>---- --- --- ----- --- ---- ---- ------- ----- ---- -------<br>--- --- -- ----- -- --- ---- -- --- ---- -- ------ ------<br>--- ----- -- ----,116721.60000000149,116718.5,116451.943,116452.20000000298,116468.609,116735.265,,8,fulfilling
screen,html.Screen,2_1_0_1_9,2022-05-03T13:13:28.553Z,,,,,,,,,,,,,,,,,53,,,,,,,,,,,,,,556.8350000014907,,response,,,,99,,,,,,,Space,keypress(Space),,,,,,,,"---- -- ----- -- ------ - ------- --- ----------<br>relationship, ------ ------ ---- ---- ------- ----- -- ----<br>-------- ------- -- ---------- --- - --- ----- ----- ----<br>---- --- --- ----- --- ---- ---- ------- ----- ---- -------<br>--- --- -- ----- -- --- ---- -- --- ---- -- ------ ------<br>--- ----- -- ----",117295.40000000224,117292.10000000149,116718.599,116721.70000000298,116735.265,117318.575,,9,"relationship,"
screen,html.Screen,2_1_0_1_10,2022-05-03T13:13:28.823Z,,,,,,,,,,,,,,,,,53,,,,,,,,,,,,,,243.72500000074797,,response,,,,99,,,,,,,Space,keypress(Space),,,,,,,,---- -- ----- -- ------ - ------- --- ----------<br>------------- common ------ ---- ---- ------- ----- -- ----<br>-------- ------- -- ---------- --- - --- ----- ----- ----<br>---- --- --- ----- --- ---- ---- ------- ----- ---- -------<br>--- --- -- ----- -- --- ---- -- --- ---- -- ------ ------<br>--- ----- -- ----,117565.40000000224,117562.30000000075,117301.909,117295.5,117318.575,117568.565,,10,common
screen,html.Screen,2_1_0_1_11,2022-05-03T13:13:29.148Z,,,,,,,,,,,,,,,,,53,,,,,,,,,,,,,,319.83500000223285,,response,,,,99,,,,,,,Space,keypress(Space),,,,,,,,---- -- ----- -- ------ - ------- --- ----------<br>------------- ------ wisdom ---- ---- ------- ----- -- ----<br>-------- ------- -- ---------- --- - --- ----- ----- ----<br>---- --- --- ----- --- ---- ---- ------- ----- ---- -------<br>--- --- -- ----- -- --- ---- -- --- ---- -- ------ ------<br>--- ----- -- ----,117890.90000000224,117888.40000000224,117551.899,117565.5,117568.565,117901.885,,11,wisdom
screen,html.Screen,2_1_0_1_12,2022-05-03T13:13:29.374Z,,,,,,,,,,,,,,,,,53,,,,,,,,,,,,,,211.5150000022404,,response,,,,99,,,,,,,Space,keypress(Space),,,,,,,,---- -- ----- -- ------ - ------- --- ----------<br>------------- ------ ------ says ---- ------- ----- -- ----<br>-------- ------- -- ---------- --- - --- ----- ----- ----<br>---- --- --- ----- --- ---- ---- ------- ----- ---- -------<br>--- --- -- ----- -- --- ---- -- --- ---- -- ------ ------<br>--- ----- -- ----,118116.30000000075,118113.40000000224,117885.219,117891,117901.885,118118.543,,12,says
screen,html.Screen,2_1_0_1_13,2022-05-03T13:13:29.622Z,,,,,,,,,,,,,,,,,53,,,,,,,,,,,,,,242.45699999999488,,response,,,,99,,,,,,,Space,keypress(Space),,,,,,,,---- -- ----- -- ------ - ------- --- ----------<br>------------- ------ ------ ---- that ------- ----- -- ----<br>-------- ------- -- ---------- --- - --- ----- ----- ----<br>---- --- --- ----- --- ---- ---- ------- ----- ---- -------<br>--- --- -- ----- -- --- ---- -- --- ---- -- ------ ------<br>--- ----- -- ----,118364.10000000149,118361,118101.877,118116.40000000224,118118.543,118368.533,,13,that
screen,html.Screen,2_1_0_1_14,2022-05-03T13:13:29.869Z,,,,,,,,,,,,,,,,,53,,,,,,,,,,,,,,239.9670000000042,,response,,,,99,,,,,,,Space,keypress(Space),,,,,,,,---- -- ----- -- ------ - ------- --- ----------<br>------------- ------ ------ ---- ---- feeling ----- -- ----<br>-------- ------- -- ---------- --- - --- ----- ----- ----<br>---- --- --- ----- --- ---- ---- ------- ----- ---- -------<br>--- --- -- ----- -- --- ---- -- --- ---- -- ------ ------<br>--- ----- -- ----,118611.5,118608.5,118351.867,118364.20000000298,118368.533,118618.523,,14,feeling
screen,html.Screen,2_1_0_1_15,2022-05-03T13:13:30.128Z,,,,,,,,,,,,,,,,,53,,,,,,,,,,,,,,249.07700000148907,,response,,,,99,,,,,,,Space,keypress(Space),,,,,,,,---- -- ----- -- ------ - ------- --- ----------<br>------------- ------ ------ ---- ---- ------- close -- ----<br>-------- ------- -- ---------- --- - --- ----- ----- ----<br>---- --- --- ----- --- ---- ---- ------- ----- ---- -------<br>--- --- -- ----- -- --- ---- -- --- ---- -- ------ ------<br>--- ----- -- ----,118870.70000000298,118867.60000000149,118601.857,118611.60000000149,118618.523,118885.179,,15,close
screen,html.Screen,2_1_0_1_16,2022-05-03T13:13:30.420Z,,,,,,,,,,,,,,,,,53,,,,,,,,,,,,,,274.62100000074133,,response,,,,99,,,,,,,Space,keypress(Space),,,,,,,,---- -- ----- -- ------ - ------- --- ----------<br>------------- ------ ------ ---- ---- ------- ----- to ----<br>-------- ------- -- ---------- --- - --- ----- ----- ----<br>---- --- --- ----- --- ---- ---- ------- ----- ---- -------<br>--- --- -- ----- -- --- ---- -- --- ---- -- ------ ------<br>--- ----- -- ----,119162.90000000224,119159.80000000075,118868.513,118870.70000000298,118885.179,119168.501,,16,to
screen,html.Screen,2_1_0_1_17,2022-05-03T13:13:30.735Z,,,,,,,,,,,,,,,,,53,,,,,,,,,,,,,,306.1990000029764,,response,,,,99,,,,,,,Space,keypress(Space),,,,,,,,---- -- ----- -- ------ - ------- --- ----------<br>------------- ------ ------ ---- ---- ------- ----- -- your<br>-------- ------- -- ---------- --- - --- ----- ----- ----<br>---- --- --- ----- --- ---- ---- ------- ----- ---- -------<br>--- --- -- ----- -- --- ---- -- --- ---- -- ------ ------<br>--- ----- -- ----,119477.90000000224,119474.70000000298,119151.835,119162.90000000224,119168.501,119485.155,,17,your
screen,html.Screen,2_1_0_1_18,2022-05-03T13:13:31.061Z,,,,,,,,,,,,,,,,,53,,,,,,,,,,,,,,315.84500000000116,,response,,,,99,,,,,,,Space,keypress(Space),,,,,,,,---- -- ----- -- ------ - ------- --- ----------<br>------------- ------ ------ ---- ---- ------- ----- -- ----<br>romantic ------- -- ---------- --- - --- ----- ----- ----<br>---- --- --- ----- --- ---- ---- ------- ----- ---- -------<br>--- --- -- ----- -- --- ---- -- --- ---- -- ------ ------<br>--- ----- -- ----,119803.40000000224,119801,119468.489,119477.90000000224,119485.155,119818.475,,18,romantic
screen,html.Screen,2_1_0_1_19,2022-05-03T13:13:31.365Z,,,,,,,,,,,,,,,,,53,,,,,,,,,,,,,,286.2250000029744,,response,,,,99,,,,,,,Space,keypress(Space),,,,,,,,---- -- ----- -- ------ - ------- --- ----------<br>------------- ------ ------ ---- ---- ------- ----- -- ----<br>-------- partner -- ---------- --- - --- ----- ----- ----<br>---- --- --- ----- --- ---- ---- ------- ----- ---- -------<br>--- --- -- ----- -- --- ---- -- --- ---- -- ------ ------<br>--- ----- -- ----,120107.70000000298,120104.70000000298,119801.809,119803.5,119818.475,120118.463,,19,partner
screen,html.Screen,2_1_0_1_20,2022-05-03T13:13:31.669Z,,,,,,,,,,,,,,,,,53,,,,,,,,,,,,,,289.9370000022318,,response,,,,99,,,,,,,Space,keypress(Space),,,,,,,,---- -- ----- -- ------ - ------- --- ----------<br>------------- ------ ------ ---- ---- ------- ----- -- ----<br>-------- ------- is ---------- --- - --- ----- ----- ----<br>---- --- --- ----- --- ---- ---- ------- ----- ---- -------<br>--- --- -- ----- -- --- ---- -- --- ---- -- ------ ------<br>--- ----- -- ----,120411.30000000075,120408.40000000224,120101.797,120107.70000000298,120118.463,120418.451,,20,is
screen,html.Screen,2_1_0_1_21,2022-05-03T13:13:31.894Z,,,,,,,,,,,,,,,,,53,,,,,,,,,,,,,,214.84900000074413,,response,,,,99,,,,,,,Space,keypress(Space),,,,,,,,---- -- ----- -- ------ - ------- --- ----------<br>------------- ------ ------ ---- ---- ------- ----- -- ----<br>-------- ------- -- paramount. --- - --- ----- ----- ----<br>---- --- --- ----- --- ---- ---- ------- ----- ---- -------<br>--- --- -- ----- -- --- ---- -- --- ---- -- ------ ------<br>--- ----- -- ----,120636.5,120633.30000000075,120401.785,120411.30000000075,120418.451,120651.775,,21,paramount.
screen,html.Screen,2_1_0_1_22,2022-05-03T13:13:32.253Z,,,,,,,,,,,,,,,,,53,,,,,,,,,,,,,,341.625000002241,,response,,,,99,,,,,,,Space,keypress(Space),,,,,,,,---- -- ----- -- ------ - ------- --- ----------<br>------------- ------ ------ ---- ---- ------- ----- -- ----<br>-------- ------- -- ---------- But - --- ----- ----- ----<br>---- --- --- ----- --- ---- ---- ------- ----- ---- -------<br>--- --- -- ----- -- --- ---- -- --- ---- -- ------ ------<br>--- ----- -- ----,120995.80000000075,120993.40000000224,120635.109,120636.60000000149,120651.775,121001.761,,22,But
screen,html.Screen,2_1_0_1_23,2022-05-03T13:13:32.501Z,,,,,,,,,,,,,,,,,53,,,,,,,,,,,,,,239.13900000223657,,response,,,,99,,,,,,,Space,keypress(Space),,,,,,,,---- -- ----- -- ------ - ------- --- ----------<br>------------- ------ ------ ---- ---- ------- ----- -- ----<br>-------- ------- -- ---------- --- a --- ----- ----- ----<br>---- --- --- ----- --- ---- ---- ------- ----- ---- -------<br>--- --- -- ----- -- --- ---- -- --- ---- -- ------ ------<br>--- ----- -- ----,121243.90000000224,121240.90000000224,120985.095,120995.80000000075,121001.761,121251.751,,23,a
screen,html.Screen,2_1_0_1_24,2022-05-03T13:13:32.681Z,,,,,,,,,,,,,,,,,53,,,,,,,,,,,,,,169.04900000074122,,response,,,,99,,,,,,,Space,keypress(Space),,,,,,,,---- -- ----- -- ------ - ------- --- ----------<br>------------- ------ ------ ---- ---- ------- ----- -- ----<br>-------- ------- -- ---------- --- - new ----- ----- ----<br>---- --- --- ----- --- ---- ---- ------- ----- ---- -------<br>--- --- -- ----- -- --- ---- -- --- ---- -- ------ ------<br>--- ----- -- ----,121423.20000000298,121420.80000000075,121235.085,121243.90000000224,121251.751,121435.077,,24,new
screen,html.Screen,2_1_0_1_25,2022-05-03T13:13:33.052Z,,,,,,,,,,,,,,,,,53,,,,,,,,,,,,,,357.02300000148534,,response,,,,99,,,,,,,Space,keypress(Space),,,,,,,,---- -- ----- -- ------ - ------- --- ----------<br>------------- ------ ------ ---- ---- ------- ----- -- ----<br>-------- ------- -- ---------- --- - --- study ----- ----<br>---- --- --- ----- --- ---- ---- ------- ----- ---- -------<br>--- --- -- ----- -- --- ---- -- --- ---- -- ------ ------<br>--- ----- -- ----,121794.80000000075,121792.10000000149,121418.411,121423.20000000298,121435.077,121801.823,,25,study
screen,html.Screen,2_1_0_1_26,2022-05-03T13:13:33.323Z,,,,,,,,,,,,,,,,,53,,,,,,,,,,,,,,260.17699999999604,,response,,,,99,,,,,,,Space,keypress(Space),,,,,,,,---- -- ----- -- ------ - ------- --- ----------<br>------------- ------ ------ ---- ---- ------- ----- -- ----<br>-------- ------- -- ---------- --- - --- ----- finds ----<br>---- --- --- ----- --- ---- ---- ------- ----- ---- -------<br>--- --- -- ----- -- --- ---- -- --- ---- -- ------ ------<br>--- ----- -- ----,122065.10000000149,122062,121785.157,121794.90000000224,121801.823,122068.479,,26,finds
screen,html.Screen,2_1_0_1_27,2022-05-03T13:13:33.649Z,,,,,,,,,,,,,,,,,53,,,,,,,,,,,,,,319.8210000007384,,response,,,,99,,,,,,,Space,keypress(Space),,,,,,,,---- -- ----- -- ------ - ------- --- ----------<br>------------- ------ ------ ---- ---- ------- ----- -- ----<br>-------- ------- -- ---------- --- - --- ----- ----- that<br>---- --- --- ----- --- ---- ---- ------- ----- ---- -------<br>--- --- -- ----- -- --- ---- -- --- ---- -- ------ ------<br>--- ----- -- ----,122391.40000000224,122388.30000000075,122051.813,122065.20000000298,122068.479,122401.799,,27,that
screen,html.Screen,2_1_0_1_28,2022-05-03T13:13:33.941Z,,,,,,,,,,,,,,,,,53,,,,,,,,,,,,,,278.90100000298116,,response,,,,99,,,,,,,Space,keypress(Space),,,,,,,,---- -- ----- -- ------ - ------- --- ----------<br>------------- ------ ------ ---- ---- ------- ----- -- ----<br>-------- ------- -- ---------- --- - --- ----- ----- ----<br>it's --- --- ----- --- ---- ---- ------- ----- ---- -------<br>--- --- -- ----- -- --- ---- -- --- ---- -- ------ ------<br>--- ----- -- ----,122683.20000000298,122680.70000000298,122385.133,122391.5,122401.799,122685.121,,28,it's
screen,html.Screen,2_1_0_1_29,2022-05-03T13:13:34.132Z,,,,,,,,,,,,,,,,,53,,,,,,,,,,,,,,186.87900000000081,,response,,,,99,,,,,,,Space,keypress(Space),,,,,,,,---- -- ----- -- ------ - ------- --- ----------<br>------------- ------ ------ ---- ---- ------- ----- -- ----<br>-------- ------- -- ---------- --- - --- ----- ----- ----<br>---- not --- ----- --- ---- ---- ------- ----- ---- -------<br>--- --- -- ----- -- --- ---- -- --- ---- -- ------ ------<br>--- ----- -- ----,122875,122872,122668.455,122683.30000000075,122685.121,122885.113,,29,not
screen,html.Screen,2_1_0_1_30,2022-05-03T13:13:34.301Z,,,,,,,,,,,,,,,,,53,,,,,,,,,,,,,,155.78700000223762,,response,,,,99,,,,,,,Space,keypress(Space),,,,,,,,---- -- ----- -- ------ - ------- --- ----------<br>------------- ------ ------ ---- ---- ------- ----- -- ----<br>-------- ------- -- ---------- --- - --- ----- ----- ----<br>---- --- how ----- --- ---- ---- ------- ----- ---- -------<br>--- --- -- ----- -- --- ---- -- --- ---- -- ------ ------<br>--- ----- -- ----,123043.70000000298,123040.90000000224,122868.447,122875.10000000149,122885.113,123051.773,,30,how
screen,html.Screen,2_1_0_1_31,2022-05-03T13:13:34.459Z,,,,,,,,,,,,,,,,,53,,,,,,,,,,,,,,146.527000000744,,response,,,,99,,,,,,,Space,keypress(Space),,,,,,,,---- -- ----- -- ------ - ------- --- ----------<br>------------- ------ ------ ---- ---- ------- ----- -- ----<br>-------- ------- -- ---------- --- - --- ----- ----- ----<br>---- --- --- close --- ---- ---- ------- ----- ---- -------<br>--- --- -- ----- -- --- ---- -- --- ---- -- ------ ------<br>--- ----- -- ----,123201.20000000298,123198.30000000075,123035.107,123043.80000000075,123051.773,123201.767,,31,close
screen,html.Screen,2_1_0_1_32,2022-05-03T13:13:34.807Z,,,,,,,,,,,,,,,,,53,,,,,,,,,,,,,,345.2329999999929,,response,,,,99,,,,,,,Space,keypress(Space),,,,,,,,---- -- ----- -- ------ - ------- --- ----------<br>------------- ------ ------ ---- ---- ------- ----- -- ----<br>-------- ------- -- ---------- --- - --- ----- ----- ----<br>---- --- --- ----- you ---- ---- ------- ----- ---- -------<br>--- --- -- ----- -- --- ---- -- --- ---- -- ------ ------<br>--- ----- -- ----,123550,123547,123185.101,123201.30000000075,123201.767,123551.753,,32,you
screen,html.Screen,2_1_0_1_33,2022-05-03T13:13:34.987Z,,,,,,,,,,,,,,,,,53,,,,,,,,,,,,,,175.1470000022382,,response,,,,99,,,,,,,Space,keypress(Space),,,,,,,,---- -- ----- -- ------ - ------- --- ----------<br>------------- ------ ------ ---- ---- ------- ----- -- ----<br>-------- ------- -- ---------- --- - --- ----- ----- ----<br>---- --- --- ----- --- feel ---- ------- ----- ---- -------<br>--- --- -- ----- -- --- ---- -- --- ---- -- ------ ------<br>--- ----- -- ----,123729.5,123726.90000000224,123535.087,123550.10000000149,123551.753,123735.079,,33,feel
screen,html.Screen,2_1_0_1_34,2022-05-03T13:13:35.268Z,,,,,,,,,,,,,,,,,53,,,,,,,,,,,,,,273.0210000014922,,response,,,,99,,,,,,,Space,keypress(Space),,,,,,,,---- -- ----- -- ------ - ------- --- ----------<br>------------- ------ ------ ---- ---- ------- ----- -- ----<br>-------- ------- -- ---------- --- - --- ----- ----- ----<br>---- --- --- ----- --- ---- that ------- ----- ---- -------<br>--- --- -- ----- -- --- ---- -- --- ---- -- ------ ------<br>--- ----- -- ----,124010.90000000224,124008.10000000149,123718.413,123729.5,123735.079,124018.401,,34,that
screen,html.Screen,2_1_0_1_35,2022-05-03T13:13:35.415Z,,,,,,,,,,,,,,,,,53,,,,,,,,,,,,,,136.09900000000198,,response,,,,99,,,,,,,Space,keypress(Space),,,,,,,,---- -- ----- -- ------ - ------- --- ----------<br>------------- ------ ------ ---- ---- ------- ----- -- ----<br>-------- ------- -- ---------- --- - --- ----- ----- ----<br>---- --- --- ----- --- ---- ---- matters ----- ---- -------<br>--- --- -- ----- -- --- ---- -- --- ---- -- ------ ------<br>--- ----- -- ----,124157.5,124154.5,124001.735,124011,124018.401,124168.395,,35,matters
screen,html.Screen,2_1_0_1_36,2022-05-03T13:13:35.673Z,,,,,,,,,,,,,,,,,53,,,,,,,,,,,,,,244.80500000297616,,response,,,,99,,,,,,,Space,keypress(Space),,,,,,,,"---- -- ----- -- ------ - ------- --- ----------<br>------------- ------ ------ ---- ---- ------- ----- -- ----<br>-------- ------- -- ---------- --- - --- ----- ----- ----<br>---- --- --- ----- --- ---- ---- ------- most, ---- -------<br>--- --- -- ----- -- --- ---- -- --- ---- -- ------ ------<br>--- ----- -- ----",124415.5,124413.20000000298,124151.729,124157.60000000149,124168.395,124418.385,,36,"most,"
screen,html.Screen,2_1_0_1_37,2022-05-03T13:13:36.011Z,,,,,,,,,,,,,,,,,53,,,,,,,,,,,,,,332.31500000298547,,response,,,,99,,,,,,,Space,keypress(Space),,,,,,,,---- -- ----- -- ------ - ------- --- ----------<br>------------- ------ ------ ---- ---- ------- ----- -- ----<br>-------- ------- -- ---------- --- - --- ----- ----- ----<br>---- --- --- ----- --- ---- ---- ------- ----- it's -------<br>--- --- -- ----- -- --- ---- -- --- ---- -- ------ ------<br>--- ----- -- ----,124753.80000000075,124750.70000000298,124401.719,124415.60000000149,124418.385,124768.371,,37,it's
screen,html.Screen,2_1_0_1_38,2022-05-03T13:13:36.315Z,,,,,,,,,,,,,,,,,53,,,,,,,,,,,,,,286.1290000000008,,response,,,,99,,,,,,,Space,keypress(Space),,,,,,,,---- -- ----- -- ------ - ------- --- ----------<br>------------- ------ ------ ---- ---- ------- ----- -- ----<br>-------- ------- -- ---------- --- - --- ----- ----- ----<br>---- --- --- ----- --- ---- ---- ------- ----- ---- whether<br>--- --- -- ----- -- --- ---- -- --- ---- -- ------ ------<br>--- ----- -- ----,125057.5,125054.5,124751.705,124753.90000000224,124768.371,125068.359,,38,whether
screen,html.Screen,2_1_0_1_39,2022-05-03T13:13:36.607Z,,,,,,,,,,,,,,,,,53,,,,,,,,,,,,,,278.64100000000326,,response,,,,99,,,,,,,Space,keypress(Space),,,,,,,,---- -- ----- -- ------ - ------- --- ----------<br>------------- ------ ------ ---- ---- ------- ----- -- ----<br>-------- ------- -- ---------- --- - --- ----- ----- ----<br>---- --- --- ----- --- ---- ---- ------- ----- ---- -------<br>you --- -- ----- -- --- ---- -- --- ---- -- ------ ------<br>--- ----- -- ----,125350,125347,125051.693,125057.60000000149,125068.359,125351.681,,39,you
screen,html.Screen,2_1_0_1_40,2022-05-03T13:13:36.844Z,,,,,,,,,,,,,,,,,53,,,,,,,,,,,,,,231.91900000149326,,response,,,,99,,,,,,,Space,keypress(Space),,,,,,,,---- -- ----- -- ------ - ------- --- ----------<br>------------- ------ ------ ---- ---- ------- ----- -- ----<br>-------- ------- -- ---------- --- - --- ----- ----- ----<br>---- --- --- ----- --- ---- ---- ------- ----- ---- -------<br>--- are -- ----- -- --- ---- -- --- ---- -- ------ ------<br>--- ----- -- ----,125586.60000000149,125583.60000000149,125335.015,125350.10000000149,125351.681,125601.671,,40,are
screen,html.Screen,2_1_0_1_41,2022-05-03T13:13:36.989Z,,,,,,,,,,,,,,,,,53,,,,,,,,,,,,,,127.8289999999979,,response,,,,99,,,,,,,Space,keypress(Space),,,,,,,,---- -- ----- -- ------ - ------- --- ----------<br>------------- ------ ------ ---- ---- ------- ----- -- ----<br>-------- ------- -- ---------- --- - --- ----- ----- ----<br>---- --- --- ----- --- ---- ---- ------- ----- ---- -------<br>--- --- as ----- -- --- ---- -- --- ---- -- ------ ------<br>--- ----- -- ----,125731.80000000075,125729.5,125585.005,125586.70000000298,125601.671,125734.999,,41,as
screen,html.Screen,2_1_0_1_42,2022-05-03T13:13:37.180Z,,,,,,,,,,,,,,,,,53,,,,,,,,,,,,,,185.70100000298407,,response,,,,99,,,,,,,Space,keypress(Space),,,,,,,,---- -- ----- -- ------ - ------- --- ----------<br>------------- ------ ------ ---- ---- ------- ----- -- ----<br>-------- ------- -- ---------- --- - --- ----- ----- ----<br>---- --- --- ----- --- ---- ---- ------- ----- ---- -------<br>--- --- -- close -- --- ---- -- --- ---- -- ------ ------<br>--- ----- -- ----,125923.10000000149,125920.70000000298,125718.333,125731.90000000224,125734.999,125934.991,,42,close
screen,html.Screen,2_1_0_1_43,2022-05-03T13:13:37.451Z,,,,,,,,,,,,,,,,,53,,,,,,,,,,,,,,255.80900000075053,,response,,,,99,,,,,,,Space,keypress(Space),,,,,,,,---- -- ----- -- ------ - ------- --- ----------<br>------------- ------ ------ ---- ---- ------- ----- -- ----<br>-------- ------- -- ---------- --- - --- ----- ----- ----<br>---- --- --- ----- --- ---- ---- ------- ----- ---- -------<br>--- --- -- ----- as --- ---- -- --- ---- -- ------ ------<br>--- ----- -- ----,126193.5,126190.80000000075,125918.325,125923.30000000075,125934.991,126201.647,,43,as
screen,html.Screen,2_1_0_1_44,2022-05-03T13:13:37.777Z,,,,,,,,,,,,,,,,,53,,,,,,,,,,,,,,315.3530000000028,,response,,,,99,,,,,,,Space,keypress(Space),,,,,,,,---- -- ----- -- ------ - ------- --- ----------<br>------------- ------ ------ ---- ---- ------- ----- -- ----<br>-------- ------- -- ---------- --- - --- ----- ----- ----<br>---- --- --- ----- --- ---- ---- ------- ----- ---- -------<br>--- --- -- ----- -- you ---- -- --- ---- -- ------ ------<br>--- ----- -- ----,126520.30000000075,126517,126184.981,126193.5,126201.647,126534.967,,44,you
screen,html.Screen,2_1_0_1_45,2022-05-03T13:13:38.047Z,,,,,,,,,,,,,,,,,53,,,,,,,,,,,,,,251.93300000223098,,response,,,,99,,,,,,,Space,keypress(Space),,,,,,,,---- -- ----- -- ------ - ------- --- ----------<br>------------- ------ ------ ---- ---- ------- ----- -- ----<br>-------- ------- -- ---------- --- - --- ----- ----- ----<br>---- --- --- ----- --- ---- ---- ------- ----- ---- -------<br>--- --- -- ----- -- --- want -- --- ---- -- ------ ------<br>--- ----- -- ----,126790,126786.90000000224,126518.301,126520.40000000224,126534.967,126801.623,,45,want
screen,html.Screen,2_1_0_1_46,2022-05-03T13:13:38.362Z,,,,,,,,,,,,,,,,,53,,,,,,,,,,,,,,300.2770000022283,,response,,,,99,,,,,,,Space,keypress(Space),,,,,,,,---- -- ----- -- ------ - ------- --- ----------<br>------------- ------ ------ ---- ---- ------- ----- -- ----<br>-------- ------- -- ---------- --- - --- ----- ----- ----<br>---- --- --- ----- --- ---- ---- ------- ----- ---- -------<br>--- --- -- ----- -- --- ---- to --- ---- -- ------ ------<br>--- ----- -- ----,127104.30000000075,127101.90000000224,126784.957,126790.10000000149,126801.623,127118.277,,46,to
screen,html.Screen,2_1_0_1_47,2022-05-03T13:13:38.632Z,,,,,,,,,,,,,,,,,53,,,,,,,,,,,,,,253.5230000007432,,response,,,,99,,,,,,,Space,keypress(Space),,,,,,,,"---- -- ----- -- ------ - ------- --- ----------<br>------------- ------ ------ ---- ---- ------- ----- -- ----<br>-------- ------- -- ---------- --- - --- ----- ----- ----<br>---- --- --- ----- --- ---- ---- ------- ----- ---- -------<br>--- --- -- ----- -- --- ---- -- be, ---- -- ------ ------<br>--- ----- -- ----",127374.60000000149,127371.80000000075,127101.611,127104.40000000224,127118.277,127384.933,,47,"be,"
screen,html.Screen,2_1_0_1_48,2022-05-03T13:13:38.879Z,,,,,,,,,,,,,,,,,53,,,,,,,,,,,,,,234.46700000223063,,response,,,,99,,,,,,,Space,keypress(Space),,,,,,,,---- -- ----- -- ------ - ------- --- ----------<br>------------- ------ ------ ---- ---- ------- ----- -- ----<br>-------- ------- -- ---------- --- - --- ----- ----- ----<br>---- --- --- ----- --- ---- ---- ------- ----- ---- -------<br>--- --- -- ----- -- --- ---- -- --- even -- ------ ------<br>--- ----- -- ----,127622.10000000149,127619.40000000224,127368.267,127374.60000000149,127384.933,127634.923,,48,even
screen,html.Screen,2_1_0_1_49,2022-05-03T13:13:39.116Z,,,,,,,,,,,,,,,,,53,,,,,,,,,,,,,,220.97700000223995,,response,,,,99,,,,,,,Space,keypress(Space),,,,,,,,---- -- ----- -- ------ - ------- --- ----------<br>------------- ------ ------ ---- ---- ------- ----- -- ----<br>-------- ------- -- ---------- --- - --- ----- ----- ----<br>---- --- --- ----- --- ---- ---- ------- ----- ---- -------<br>--- --- -- ----- -- --- ---- -- --- ---- if ------ ------<br>--- ----- -- ----,127858.90000000224,127855.90000000224,127618.257,127622.20000000298,127634.923,127868.247,,49,if
screen,html.Screen,2_1_0_1_50,2022-05-03T13:13:39.318Z,,,,,,,,,,,,,,,,,53,,,,,,,,,,,,,,189.8530000014871,,response,,,,99,,,,,,,Space,keypress(Space),,,,,,,,---- -- ----- -- ------ - ------- --- ----------<br>------------- ------ ------ ---- ---- ------- ----- -- ----<br>-------- ------- -- ---------- --- - --- ----- ----- ----<br>---- --- --- ----- --- ---- ---- ------- ----- ---- -------<br>--- --- -- ----- -- --- ---- -- --- ---- -- that's ------<br>--- ----- -- ----,128060.80000000075,128058.10000000149,127851.581,127859,127868.247,128068.239,,50,that's
screen,html.Screen,2_1_0_1_51,2022-05-03T13:13:39.588Z,,,,,,,,,,,,,,,,,53,,,,,,,,,,,,,,260.2609999999986,,response,,,,99,,,,,,,Space,keypress(Space),,,,,,,,---- -- ----- -- ------ - ------- --- ----------<br>------------- ------ ------ ---- ---- ------- ----- -- ----<br>-------- ------- -- ---------- --- - --- ----- ----- ----<br>---- --- --- ----- --- ---- ---- ------- ----- ---- -------<br>--- --- -- ----- -- --- ---- -- --- ---- -- ------ really<br>--- ----- -- ----,128331.10000000149,128328.5,128051.573,128060.90000000224,128068.239,128334.895,,51,really
screen,html.Screen,2_1_0_1_52,2022-05-03T13:13:39.994Z,,,,,,,,,,,,,,,,,53,,,,,,,,,,,,,,398.70500000148604,,response,,,,99,,,,,,,Space,keypress(Space),,,,,,,,---- -- ----- -- ------ - ------- --- ----------<br>------------- ------ ------ ---- ---- ------- ----- -- ----<br>-------- ------- -- ---------- --- - --- ----- ----- ----<br>---- --- --- ----- --- ---- ---- ------- ----- ---- -------<br>--- --- -- ----- -- --- ---- -- --- ---- -- ------ ------<br>not ----- -- ----,128736.80000000075,128733.60000000149,128318.229,128331.20000000298,128334.895,128751.545,,52,not
screen,html.Screen,2_1_0_1_53,2022-05-03T13:13:40.319Z,,,,,,,,,,,,,,,,,53,,,,,,,,,,,,,,307.7550000007468,,response,,,,99,,,,,,,Space,keypress(Space),,,,,,,,---- -- ----- -- ------ - ------- --- ----------<br>------------- ------ ------ ---- ---- ------- ----- -- ----<br>-------- ------- -- ---------- --- - --- ----- ----- ----<br>---- --- --- ----- --- ---- ---- ------- ----- ---- -------<br>--- --- -- ----- -- --- ---- -- --- ---- -- ------ ------<br>--- close -- ----,129062.20000000298,129059.30000000075,128734.879,128736.80000000075,128751.545,129068.199,,53,close
screen,html.Screen,2_1_0_1_54,2022-05-03T13:13:40.657Z,,,,,,,,,,,,,,,,,53,,,,,,,,,,,,,,328.6010000007518,,response,,,,99,,,,,,,Space,keypress(Space),,,,,,,,---- -- ----- -- ------ - ------- --- ----------<br>------------- ------ ------ ---- ---- ------- ----- -- ----<br>-------- ------- -- ---------- --- - --- ----- ----- ----<br>---- --- --- ----- --- ---- ---- ------- ----- ---- -------<br>--- --- -- ----- -- --- ---- -- --- ---- -- ------ ------<br>--- ----- at ----,129399.70000000298,129396.80000000075,129051.533,129062.20000000298,129068.199,129401.519,,54,at
screen,html.Screen,2_1_0_1_55,2022-05-03T13:13:41.006Z,,,,,,,,,,,,,,,,,53,,,,,,,,,,,,,,344.0810000014899,,response,,,,99,,,,,,,Space,keypress(Space),,,,,,,,---- -- ----- -- ------ - ------- --- ----------<br>------------- ------ ------ ---- ---- ------- ----- -- ----<br>-------- ------- -- ---------- --- - --- ----- ----- ----<br>---- --- --- ----- --- ---- ---- ------- ----- ---- -------<br>--- --- -- ----- -- --- ---- -- --- ---- -- ------ ------<br>--- ----- -- all.,129748.60000000149,129745.60000000149,129384.853,129399.80000000075,129401.519,129751.505,,55,all.
Item 99,flow.Loop,2_1_0_1,2022-05-03T13:13:41.006Z,,,,,,,,,,,,,,,,,,,,,,,,,,,,,,,15593.565000001487,,completion,,,,,H,,,,,,,,,,,silence,,,,,129748.70000000298,129745.60000000149,114135.369,114136.40000000224,114152.035,129751.505,,,
Question 1,html.Screen,2_1_0_2,2022-05-03T13:13:45.964Z,,,,,,,,,,,,,,,,,,,,,,,,,,,,true,FALSE,,4933.79500000074,,response,,,,99,H,,,,,,FALSE,click #choice-2,,,,silence,,,,,134707.6000000015,134685.30000000075,129734.839,129748.80000000075,129751.505,134718.186,,,
Question 2,html.Screen,2_1_0_3,2022-05-03T13:13:49.531Z,,,,,,,,,,,,,,,,,,,,,,,,,,,,true,TRUE,,3544.414000001503,,response,,,,99,H,,,,,,TRUE,click #choice-1,,,,silence,,,,,138274.1000000015,138262.6000000015,134701.52,134707.70000000298,134718.186,138284.71,,,
Item 99,flow.Sequence,2_1_0,2022-05-03T13:13:49.531Z,,,,,,,,,,,,,,,,,,,,,,,,,,,,,,,34110.30500000149,,completion,,,,,,,,,,,,,,,,,,,,,138274.20000000298,138262.6000000015,104135.629,104143.20000000298,104152.295,138284.71,,,
Holding screen,html.Screen,2_1_1_0,2022-05-03T13:13:59.526Z,,,,,,,,,,,,,,,,,,,,,,,,,,,,,,,9999.649000000005,,timeout,,,,,,,,,,,,,,,,,,,,,148269.30000000075,148267.693,138268.044,138274.40000000224,138284.71,148284.359,,,
screen,html.Screen,2_1_1_1_0,2022-05-03T13:13:59.960Z,,,,,,,,,,,,,,,,,54,,,,,,,,,,,,,,416.64100000000326,,response,,,,100,,,,,,,Space,keypress(Space),,,,,,,,At --- ---- --- ------ ----- ------- ---- -- --- ------- --<br>------- ---------- ------ -- ----- -- ----- -- ---- ------<br>--- ----- --- --- ------ -------- ----- --- ------ ----- --<br>----- ----- ---------- --- --- ------ ------ ---- -- ------<br>------- --- ------ ----- --- ---- ------- -- ---- --- --<br>------- ------,148703.90000000224,148701,148267.693,148269.40000000224,148284.359,148717.675,,0,At
screen,html.Screen,2_1_1_1_1,2022-05-03T13:14:00.354Z,,,,,,,,,,,,,,,,,54,,,,,,,,,,,,,,377.42500000150176,,response,,,,100,,,,,,,Space,keypress(Space),,,,,,,,-- the ---- --- ------ ----- ------- ---- -- --- ------- --<br>------- ---------- ------ -- ----- -- ----- -- ---- ------<br>--- ----- --- --- ------ -------- ----- --- ------ ----- --<br>----- ----- ---------- --- --- ------ ------ ---- -- ------<br>------- --- ------ ----- --- ---- ------- -- ---- --- --<br>------- ------,149098.1000000015,149095.1000000015,148701.009,148703.90000000224,148717.675,149100.993,,1,the
screen,html.Screen,2_1_1_1_2,2022-05-03T13:14:00.557Z,,,,,,,,,,,,,,,,,54,,,,,,,,,,,,,,196.70700000299257,,response,,,,100,,,,,,,Space,keypress(Space),,,,,,,,-- --- time --- ------ ----- ------- ---- -- --- ------- --<br>------- ---------- ------ -- ----- -- ----- -- ---- ------<br>--- ----- --- --- ------ -------- ----- --- ------ ----- --<br>----- ----- ---------- --- --- ------ ------ ---- -- ------<br>------- --- ------ ----- --- ---- ------- -- ---- --- --<br>------- ------,149300.6000000015,149297.70000000298,149084.327,149098.20000000298,149100.993,149300.985,,2,time
screen,html.Screen,2_1_1_1_3,2022-05-03T13:14:00.804Z,,,,,,,,,,,,,,,,,54,,,,,,,,,,,,,,243.7150000029942,,response,,,,100,,,,,,,Space,keypress(Space),,,,,,,,-- --- ---- the ------ ----- ------- ---- -- --- ------- --<br>------- ---------- ------ -- ----- -- ----- -- ---- ------<br>--- ----- --- --- ------ -------- ----- --- ------ ----- --<br>----- ----- ---------- --- --- ------ ------ ---- -- ------<br>------- --- ------ ----- --- ---- ------- -- ---- --- --<br>------- ------,149547.5,149544.70000000298,149284.319,149300.6000000015,149300.985,149567.641,,3,the
screen,html.Screen,2_1_1_1_4,2022-05-03T13:14:01.051Z,,,,,,,,,,,,,,,,,54,,,,,,,,,,,,,,224.55900000297697,,response,,,,100,,,,,,,Space,keypress(Space),,,,,,,,-- --- ---- --- French ----- ------- ---- -- --- ------- --<br>------- ---------- ------ -- ----- -- ----- -- ---- ------<br>--- ----- --- --- ------ -------- ----- --- ------ ----- --<br>----- ----- ---------- --- --- ------ ------ ---- -- ------<br>------- --- ------ ----- --- ---- ------- -- ---- --- --<br>------- ------,149795.20000000298,149792.20000000298,149550.975,149547.5,149567.641,149800.965,,4,French
screen,html.Screen,2_1_1_1_5,2022-05-03T13:14:01.423Z,,,,,,,,,,,,,,,,,54,,,,,,,,,,,,,,362.43500000223867,,response,,,,100,,,,,,,Space,keypress(Space),,,,,,,,-- --- ---- --- ------ crown ------- ---- -- --- ------- --<br>------- ---------- ------ -- ----- -- ----- -- ---- ------<br>--- ----- --- --- ------ -------- ----- --- ------ ----- --<br>----- ----- ---------- --- --- ------ ------ ---- -- ------<br>------- --- ------ ----- --- ---- ------- -- ---- --- --<br>------- ------,150166.5,150163.40000000224,149784.299,149795.20000000298,149800.965,150167.617,,5,crown
screen,html.Screen,2_1_1_1_6,2022-05-03T13:14:01.715Z,,,,,,,,,,,,,,,,,54,,,,,,,,,,,,,,288.2830000022368,,response,,,,100,,,,,,,Space,keypress(Space),,,,,,,,-- --- ---- --- ------ ----- secured ---- -- --- ------- --<br>------- ---------- ------ -- ----- -- ----- -- ---- ------<br>--- ----- --- --- ------ -------- ----- --- ------ ----- --<br>----- ----- ---------- --- --- ------ ------ ---- -- ------<br>------- --- ------ ----- --- ---- ------- -- ---- --- --<br>------- ------,150458.80000000075,150455.90000000224,150150.951,150166.6000000015,150167.617,150467.605,,6,secured
screen,html.Screen,2_1_1_1_7,2022-05-03T13:14:02.165Z,,,,,,,,,,,,,,,,,54,,,,,,,,,,,,,,438.7950000022247,,response,,,,100,,,,,,,Space,keypress(Space),,,,,,,,-- --- ---- --- ------ ----- ------- much -- --- ------- --<br>------- ---------- ------ -- ----- -- ----- -- ---- ------<br>--- ----- --- --- ------ -------- ----- --- ------ ----- --<br>----- ----- ---------- --- --- ------ ------ ---- -- ------<br>------- --- ------ ----- --- ---- ------- -- ---- --- --<br>------- ------,150909.30000000075,150906.40000000224,150450.939,150458.90000000224,150467.605,150917.587,,7,much
screen,html.Screen,2_1_1_1_8,2022-05-03T13:14:02.446Z,,,,,,,,,,,,,,,,,54,,,,,,,,,,,,,,269.6130000029807,,response,,,,100,,,,,,,Space,keypress(Space),,,,,,,,-- --- ---- --- ------ ----- ------- ---- of --- ------- --<br>------- ---------- ------ -- ----- -- ----- -- ---- ------<br>--- ----- --- --- ------ -------- ----- --- ------ ----- --<br>----- ----- ---------- --- --- ------ ------ ---- -- ------<br>------- --- ------ ----- --- ---- ------- -- ---- --- --<br>------- ------,151190.20000000298,151187.20000000298,150900.921,150909.40000000224,150917.587,151200.909,,8,of
screen,html.Screen,2_1_1_1_9,2022-05-03T13:14:02.727Z,,,,,,,,,,,,,,,,,54,,,,,,,,,,,,,,267.89100000073086,,response,,,,100,,,,,,,Space,keypress(Space),,,,,,,,-- --- ---- --- ------ ----- ------- ---- -- its ------- --<br>------- ---------- ------ -- ----- -- ----- -- ---- ------<br>--- ----- --- --- ------ -------- ----- --- ------ ----- --<br>----- ----- ---------- --- --- ------ ------ ---- -- ------<br>------- --- ------ ----- --- ---- ------- -- ---- --- --<br>------- ------,151471.30000000075,151468.80000000075,151184.243,151190.30000000075,151200.909,151484.231,,9,its
screen,html.Screen,2_1_1_1_10,2022-05-03T13:14:02.975Z,,,,,,,,,,,,,,,,,54,,,,,,,,,,,,,,232.0690000007453,,response,,,,100,,,,,,,Space,keypress(Space),,,,,,,,-- --- ---- --- ------ ----- ------- ---- -- --- revenue --<br>------- ---------- ------ -- ----- -- ----- -- ---- ------<br>--- ----- --- --- ------ -------- ----- --- ------ ----- --<br>----- ----- ---------- --- --- ------ ------ ---- -- ------<br>------- --- ------ ----- --- ---- ------- -- ---- --- --<br>------- ------,151719.30000000075,151716.30000000075,151467.565,151471.30000000075,151484.231,151734.221,,10,revenue
screen,html.Screen,2_1_1_1_11,2022-05-03T13:14:03.323Z,,,,,,,,,,,,,,,,,54,,,,,,,,,,,,,,330.37900000149966,,response,,,,100,,,,,,,Space,keypress(Space),,,,,,,,-- --- ---- --- ------ ----- ------- ---- -- --- ------- by<br>------- ---------- ------ -- ----- -- ----- -- ---- ------<br>--- ----- --- --- ------ -------- ----- --- ------ ----- --<br>----- ----- ---------- --- --- ------ ------ ---- -- ------<br>------- --- ------ ----- --- ---- ------- -- ---- --- --<br>------- ------,152067,152064.6000000015,151717.555,151719.40000000224,151734.221,152067.541,,11,by
screen,html.Screen,2_1_1_1_12,2022-05-03T13:14:03.661Z,,,,,,,,,,,,,,,,,54,,,,,,,,,,,,,,334.5590000014927,,response,,,,100,,,,,,,Space,keypress(Space),,,,,,,,-- --- ---- --- ------ ----- ------- ---- -- --- ------- --<br>issuing ---------- ------ -- ----- -- ----- -- ---- ------<br>--- ----- --- --- ------ -------- ----- --- ------ ----- --<br>----- ----- ---------- --- --- ------ ------ ---- -- ------<br>------- --- ------ ----- --- ---- ------- -- ---- --- --<br>------- ------,152405.1000000015,152402.1000000015,152050.875,152067,152067.541,152417.527,,12,issuing
screen,html.Screen,2_1_1_1_13,2022-05-03T13:14:04.033Z,,,,,,,,,,,,,,,,,54,,,,,,,,,,,,,,356.17300000297837,,response,,,,100,,,,,,,Space,keypress(Space),,,,,,,,-- --- ---- --- ------ ----- ------- ---- -- --- ------- --<br>------- government ------ -- ----- -- ----- -- ---- ------<br>--- ----- --- --- ------ -------- ----- --- ------ ----- --<br>----- ----- ---------- --- --- ------ ------ ---- -- ------<br>------- --- ------ ----- --- ---- ------- -- ---- --- --<br>------- ------,152776.70000000298,152773.70000000298,152400.861,152405.30000000075,152417.527,152784.179,,13,government
screen,html.Screen,2_1_1_1_14,2022-05-03T13:14:04.392Z,,,,,,,,,,,,,,,,,54,,,,,,,,,,,,,,349.12100000074133,,response,,,,100,,,,,,,Space,keypress(Space),,,,,,,,-- --- ---- --- ------ ----- ------- ---- -- --- ------- --<br>------- ---------- bonds. -- ----- -- ----- -- ---- ------<br>--- ----- --- --- ------ -------- ----- --- ------ ----- --<br>----- ----- ---------- --- --- ------ ------ ---- -- ------<br>------- --- ------ ----- --- ---- ------- -- ---- --- --<br>------- ------,153136.20000000298,153133.30000000075,152767.513,152776.70000000298,152784.179,153151.037,,14,bonds.
screen,html.Screen,2_1_1_1_15,2022-05-03T13:14:04.730Z,,,,,,,,,,,,,,,,,54,,,,,,,,,,,,,,320.06300000147894,,response,,,,100,,,,,,,Space,keypress(Space),,,,,,,,-- --- ---- --- ------ ----- ------- ---- -- --- ------- --<br>------- ---------- ------ In ----- -- ----- -- ---- ------<br>--- ----- --- --- ------ -------- ----- --- ------ ----- --<br>----- ----- ---------- --- --- ------ ------ ---- -- ------<br>------- --- ------ ----- --- ---- ------- -- ---- --- --<br>------- ------,153473.80000000075,153471.1000000015,153134.371,153136.30000000075,153151.037,153484.357,,15,In
screen,html.Screen,2_1_1_1_16,2022-05-03T13:14:05.056Z,,,,,,,,,,,,,,,,,54,,,,,,,,,,,,,,312.64300000001094,,response,,,,100,,,,,,,Space,keypress(Space),,,,,,,,"-- --- ---- --- ------ ----- ------- ---- -- --- ------- --<br>------- ---------- ------ -- 1727, -- ----- -- ---- ------<br>--- ----- --- --- ------ -------- ----- --- ------ ----- --<br>----- ----- ---------- --- --- ------ ------ ---- -- ------<br>------- --- ------ ----- --- ---- ------- -- ---- --- --<br>------- ------",153800,153797,153467.691,153473.90000000224,153484.357,153801.011,,16,"1727,"
screen,html.Screen,2_1_1_1_17,2022-05-03T13:14:05.348Z,,,,,,,,,,,,,,,,,54,,,,,,,,,,,,,,288.4890000000014,,response,,,,100,,,,,,,Space,keypress(Space),,,,,,,,-- --- ---- --- ------ ----- ------- ---- -- --- ------- --<br>------- ---------- ------ -- ----- in ----- -- ---- ------<br>--- ----- --- --- ------ -------- ----- --- ------ ----- --<br>----- ----- ---------- --- --- ------ ------ ---- -- ------<br>------- --- ------ ----- --- ---- ------- -- ---- --- --<br>------- ------,154092,154089.5,153784.345,153800,153801.011,154100.999,,17,in
screen,html.Screen,2_1_1_1_18,2022-05-03T13:14:05.776Z,,,,,,,,,,,,,,,,,54,,,,,,,,,,,,,,416.1010000014794,,response,,,,100,,,,,,,Space,keypress(Space),,,,,,,,-- --- ---- --- ------ ----- ------- ---- -- --- ------- --<br>------- ---------- ------ -- ----- -- order -- ---- ------<br>--- ----- --- --- ------ -------- ----- --- ------ ----- --<br>----- ----- ---------- --- --- ------ ------ ---- -- ------<br>------- --- ------ ----- --- ---- ------- -- ---- --- --<br>------- ------,154520,154517.1000000015,154084.333,154092.1000000015,154100.999,154534.315,,18,order
screen,html.Screen,2_1_1_1_19,2022-05-03T13:14:06.091Z,,,,,,,,,,,,,,,,,54,,,,,,,,,,,,,,297.6849999999977,,response,,,,100,,,,,,,Space,keypress(Space),,,,,,,,-- --- ---- --- ------ ----- ------- ---- -- --- ------- --<br>------- ---------- ------ -- ----- -- ----- to ---- ------<br>--- ----- --- --- ------ -------- ----- --- ------ ----- --<br>----- ----- ---------- --- --- ------ ------ ---- -- ------<br>------- --- ------ ----- --- ---- ------- -- ---- --- --<br>------- ------,154835.30000000075,154832,154517.649,154520,154534.315,154850.969,,19,to
screen,html.Screen,2_1_1_1_20,2022-05-03T13:14:06.338Z,,,,,,,,,,,,,,,,,54,,,,,,,,,,,,,,228.4310000022233,,response,,,,100,,,,,,,Space,keypress(Space),,,,,,,,-- --- ---- --- ------ ----- ------- ---- -- --- ------- --<br>------- ---------- ------ -- ----- -- ----- -- save ------<br>--- ----- --- --- ------ -------- ----- --- ------ ----- --<br>----- ----- ---------- --- --- ------ ------ ---- -- ------<br>------- --- ------ ----- --- ---- ------- -- ---- --- --<br>------- ------,155082.30000000075,155079.40000000224,154834.303,154835.30000000075,154850.969,155084.293,,20,save
screen,html.Screen,2_1_1_1_21,2022-05-03T13:14:06.597Z,,,,,,,,,,,,,,,,,54,,,,,,,,,,,,,,254.307000001485,,response,,,,100,,,,,,,Space,keypress(Space),,,,,,,,"-- --- ---- --- ------ ----- ------- ---- -- --- ------- --<br>------- ---------- ------ -- ----- -- ----- -- ---- money,<br>--- ----- --- --- ------ -------- ----- --- ------ ----- --<br>----- ----- ---------- --- --- ------ ------ ---- -- ------<br>------- --- ------ ----- --- ---- ------- -- ---- --- --<br>------- ------",155341.1000000015,155338.6000000015,155067.627,155082.40000000224,155084.293,155350.949,,21,"money,"
screen,html.Screen,2_1_1_1_22,2022-05-03T13:14:06.845Z,,,,,,,,,,,,,,,,,54,,,,,,,,,,,,,,235.25100000298698,,response,,,,100,,,,,,,Space,keypress(Space),,,,,,,,-- --- ---- --- ------ ----- ------- ---- -- --- ------- --<br>------- ---------- ------ -- ----- -- ----- -- ---- ------<br>the ----- --- --- ------ -------- ----- --- ------ ----- --<br>----- ----- ---------- --- --- ------ ------ ---- -- ------<br>------- --- ------ ----- --- ---- ------- -- ---- --- --<br>------- ------,155589.20000000298,155586.20000000298,155334.283,155341.1000000015,155350.949,155600.939,,22,the
screen,html.Screen,2_1_1_1_23,2022-05-03T13:14:07.193Z,,,,,,,,,,,,,,,,,54,,,,,,,,,,,,,,333.46100000222214,,response,,,,100,,,,,,,Space,keypress(Space),,,,,,,,-- --- ---- --- ------ ----- ------- ---- -- --- ------- --<br>------- ---------- ------ -- ----- -- ----- -- ---- ------<br>--- state --- --- ------ -------- ----- --- ------ ----- --<br>----- ----- ---------- --- --- ------ ------ ---- -- ------<br>------- --- ------ ----- --- ---- ------- -- ---- --- --<br>------- ------,155937.5,155934.40000000224,155584.273,155589.30000000075,155600.939,155950.925,,23,state
screen,html.Screen,2_1_1_1_24,2022-05-03T13:14:07.530Z,,,,,,,,,,,,,,,,,54,,,,,,,,,,,,,,320.9750000022468,,response,,,,100,,,,,,,Space,keypress(Space),,,,,,,,-- --- ---- --- ------ ----- ------- ---- -- --- ------- --<br>------- ---------- ------ -- ----- -- ----- -- ---- ------<br>--- ----- cut --- ------ -------- ----- --- ------ ----- --<br>----- ----- ---------- --- --- ------ ------ ---- -- ------<br>------- --- ------ ----- --- ---- ------- -- ---- --- --<br>------- ------,156274.40000000224,156271.90000000224,155934.259,155937.6000000015,155950.925,156284.245,,24,cut
screen,html.Screen,2_1_1_1_25,2022-05-03T13:14:07.835Z,,,,,,,,,,,,,,,,,54,,,,,,,,,,,,,,291.8550000014948,,response,,,,100,,,,,,,Space,keypress(Space),,,,,,,,-- --- ---- --- ------ ----- ------- ---- -- --- ------- --<br>------- ---------- ------ -- ----- -- ----- -- ---- ------<br>--- ----- --- the ------ -------- ----- --- ------ ----- --<br>----- ----- ---------- --- --- ------ ------ ---- -- ------<br>------- --- ------ ----- --- ---- ------- -- ---- --- --<br>------- ------,156579.1000000015,156576.1000000015,156267.579,156274.40000000224,156284.245,156584.233,,25,the
screen,html.Screen,2_1_1_1_26,2022-05-03T13:14:08.172Z,,,,,,,,,,,,,,,,,54,,,,,,,,,,,,,,329.26699999999255,,response,,,,100,,,,,,,Space,keypress(Space),,,,,,,,-- --- ---- --- ------ ----- ------- ---- -- --- ------- --<br>------- ---------- ------ -- ----- -- ----- -- ---- ------<br>--- ----- --- --- bonds' -------- ----- --- ------ ----- --<br>----- ----- ---------- --- --- ------ ------ ---- -- ------<br>------- --- ------ ----- --- ---- ------- -- ---- --- --<br>------- ------,156916.6000000015,156913.5,156567.567,156579.1000000015,156584.233,156917.553,,26,bonds'
screen,html.Screen,2_1_1_1_27,2022-05-03T13:14:08.498Z,,,,,,,,,,,,,,,,,54,,,,,,,,,,,,,,321.84700000222074,,response,,,,100,,,,,,,Space,keypress(Space),,,,,,,,-- --- ---- --- ------ ----- ------- ---- -- --- ------- --<br>------- ---------- ------ -- ----- -- ----- -- ---- ------<br>--- ----- --- --- ------ interest ----- --- ------ ----- --<br>----- ----- ---------- --- --- ------ ------ ---- -- ------<br>------- --- ------ ----- --- ---- ------- -- ---- --- --<br>------- ------,157242.40000000224,157239.40000000224,156900.887,156916.6000000015,156917.553,157250.873,,27,interest
screen,html.Screen,2_1_1_1_28,2022-05-03T13:14:08.836Z,,,,,,,,,,,,,,,,,54,,,,,,,,,,,,,,326.02700000224286,,response,,,,100,,,,,,,Space,keypress(Space),,,,,,,,-- --- ---- --- ------ ----- ------- ---- -- --- ------- --<br>------- ---------- ------ -- ----- -- ----- -- ---- ------<br>--- ----- --- --- ------ -------- rate. --- ------ ----- --<br>----- ----- ---------- --- --- ------ ------ ---- -- ------<br>------- --- ------ ----- --- ---- ------- -- ---- --- --<br>------- ------,157579.80000000075,157576.90000000224,157234.207,157242.5,157250.873,157584.193,,28,rate.
screen,html.Screen,2_1_1_1_29,2022-05-03T13:14:09.173Z,,,,,,,,,,,,,,,,,54,,,,,,,,,,,,,,330.10700000074576,,response,,,,100,,,,,,,Space,keypress(Space),,,,,,,,-- --- ---- --- ------ ----- ------- ---- -- --- ------- --<br>------- ---------- ------ -- ----- -- ----- -- ---- ------<br>--- ----- --- --- ------ -------- ----- The ------ ----- --<br>----- ----- ---------- --- --- ------ ------ ---- -- ------<br>------- --- ------ ----- --- ---- ------- -- ---- --- --<br>------- ------,157917.30000000075,157914.30000000075,157567.527,157580,157584.193,157934.179,,29,The
screen,html.Screen,2_1_1_1_30,2022-05-03T13:14:09.510Z,,,,,,,,,,,,,,,,,54,,,,,,,,,,,,,,317.62100000074133,,response,,,,100,,,,,,,Space,keypress(Space),,,,,,,,-- --- ---- --- ------ ----- ------- ---- -- --- ------- --<br>------- ---------- ------ -- ----- -- ----- -- ---- ------<br>--- ----- --- --- ------ -------- ----- --- market ----- --<br>----- ----- ---------- --- --- ------ ------ ---- -- ------<br>------- --- ------ ----- --- ---- ------- -- ---- --- --<br>------- ------,158254,158251.80000000075,157917.513,157917.40000000224,157934.179,158267.499,,30,market
screen,html.Screen,2_1_1_1_31,2022-05-03T13:14:09.792Z,,,,,,,,,,,,,,,,,54,,,,,,,,,,,,,,265.6010000014794,,response,,,,100,,,,,,,Space,keypress(Space),,,,,,,,-- --- ---- --- ------ ----- ------- ---- -- --- ------- --<br>------- ---------- ------ -- ----- -- ----- -- ---- ------<br>--- ----- --- --- ------ -------- ----- --- ------ value --<br>----- ----- ---------- --- --- ------ ------ ---- -- ------<br>------- --- ------ ----- --- ---- ------- -- ---- --- --<br>------- ------,158536.1000000015,158533.1000000015,158250.833,158254.1000000015,158267.499,158550.821,,31,value
screen,html.Screen,2_1_1_1_32,2022-05-03T13:14:10.174Z,,,,,,,,,,,,,,,,,54,,,,,,,,,,,,,,364.6790000000037,,response,,,,100,,,,,,,Space,keypress(Space),,,,,,,,-- --- ---- --- ------ ----- ------- ---- -- --- ------- --<br>------- ---------- ------ -- ----- -- ----- -- ---- ------<br>--- ----- --- --- ------ -------- ----- --- ------ ----- of<br>----- ----- ---------- --- --- ------ ------ ---- -- ------<br>------- --- ------ ----- --- ---- ------- -- ---- --- --<br>------- ------,158918.70000000298,158915.5,158534.155,158536.20000000298,158550.821,158934.139,,32,of
screen,html.Screen,2_1_1_1_33,2022-05-03T13:14:10.478Z,,,,,,,,,,,,,,,,,54,,,,,,,,,,,,,,285.56100000298466,,response,,,,100,,,,,,,Space,keypress(Space),,,,,,,,-- --- ---- --- ------ ----- ------- ---- -- --- ------- --<br>------- ---------- ------ -- ----- -- ----- -- ---- ------<br>--- ----- --- --- ------ -------- ----- --- ------ ----- --<br>these ----- ---------- --- --- ------ ------ ---- -- ------<br>------- --- ------ ----- --- ---- ------- -- ---- --- --<br>------- ------,159222.6000000015,159219.70000000298,158917.473,158918.80000000075,158934.139,159234.127,,33,these
screen,html.Screen,2_1_1_1_34,2022-05-03T13:14:10.714Z,,,,,,,,,,,,,,,,,54,,,,,,,,,,,,,,221.37299999999232,,response,,,,100,,,,,,,Space,keypress(Space),,,,,,,,-- --- ---- --- ------ ----- ------- ---- -- --- ------- --<br>------- ---------- ------ -- ----- -- ----- -- ---- ------<br>--- ----- --- --- ------ -------- ----- --- ------ ----- --<br>----- bonds ---------- --- --- ------ ------ ---- -- ------<br>------- --- ------ ----- --- ---- ------- -- ---- --- --<br>------- ------,159457.90000000224,159455.5,159217.461,159222.70000000298,159234.127,159467.451,,34,bonds
screen,html.Screen,2_1_1_1_35,2022-05-03T13:14:11.142Z,,,,,,,,,,,,,,,,,54,,,,,,,,,,,,,,415.54899999999907,,response,,,,100,,,,,,,Space,keypress(Space),,,,,,,,"-- --- ---- --- ------ ----- ------- ---- -- --- ------- --<br>------- ---------- ------ -- ----- -- ----- -- ---- ------<br>--- ----- --- --- ------ -------- ----- --- ------ ----- --<br>----- ----- plummeted, --- --- ------ ------ ---- -- ------<br>------- --- ------ ----- --- ---- ------- -- ---- --- --<br>------- ------",159885.90000000224,159883,159450.785,159457.90000000224,159467.451,159900.767,,35,"plummeted,"
screen,html.Screen,2_1_1_1_36,2022-05-03T13:14:11.423Z,,,,,,,,,,,,,,,,,54,,,,,,,,,,,,,,263.83300000149757,,response,,,,100,,,,,,,Space,keypress(Space),,,,,,,,-- --- ---- --- ------ ----- ------- ---- -- --- ------- --<br>------- ---------- ------ -- ----- -- ----- -- ---- ------<br>--- ----- --- --- ------ -------- ----- --- ------ ----- --<br>----- ----- ---------- and --- ------ ------ ---- -- ------<br>------- --- ------ ----- --- ---- ------- -- ---- --- --<br>------- ------,160167.5,160164.6000000015,159884.101,159886,159900.767,160184.089,,36,and
screen,html.Screen,2_1_1_1_37,2022-05-03T13:14:11.704Z,,,,,,,,,,,,,,,,,54,,,,,,,,,,,,,,261.31100000222796,,response,,,,100,,,,,,,Space,keypress(Space),,,,,,,,-- --- ---- --- ------ ----- ------- ---- -- --- ------- --<br>------- ---------- ------ -- ----- -- ----- -- ---- ------<br>--- ----- --- --- ------ -------- ----- --- ------ ----- --<br>----- ----- ---------- --- the ------ ------ ---- -- ------<br>------- --- ------ ----- --- ---- ------- -- ---- --- --<br>------- ------,160448.6000000015,160445.40000000224,160167.423,160167.5,160184.089,160450.745,,37,the
screen,html.Screen,2_1_1_1_38,2022-05-03T13:14:11.918Z,,,,,,,,,,,,,,,,,54,,,,,,,,,,,,,,208.4550000029849,,response,,,,100,,,,,,,Space,keypress(Space),,,,,,,,-- --- ---- --- ------ ----- ------- ---- -- --- ------- --<br>------- ---------- ------ -- ----- -- ----- -- ---- ------<br>--- ----- --- --- ------ -------- ----- --- ------ ----- --<br>----- ----- ---------- --- --- market ------ ---- -- ------<br>------- --- ------ ----- --- ---- ------- -- ---- --- --<br>------- ------,160662.70000000298,160659.20000000298,160434.079,160448.6000000015,160450.745,160667.403,,38,market
screen,html.Screen,2_1_1_1_39,2022-05-03T13:14:12.143Z,,,,,,,,,,,,,,,,,54,,,,,,,,,,,,,,217.19700000149896,,response,,,,100,,,,,,,Space,keypress(Space),,,,,,,,-- --- ---- --- ------ ----- ------- ---- -- --- ------- --<br>------- ---------- ------ -- ----- -- ----- -- ---- ------<br>--- ----- --- --- ------ -------- ----- --- ------ ----- --<br>----- ----- ---------- --- --- ------ became ---- -- ------<br>------- --- ------ ----- --- ---- ------- -- ---- --- --<br>------- ------,160887.70000000298,160884.6000000015,160650.737,160662.90000000224,160667.403,160900.727,,39,became
screen,html.Screen,2_1_1_1_40,2022-05-03T13:14:12.436Z,,,,,,,,,,,,,,,,,54,,,,,,,,,,,,,,276.2729999999865,,response,,,,100,,,,,,,Space,keypress(Space),,,,,,,,-- --- ---- --- ------ ----- ------- ---- -- --- ------- --<br>------- ---------- ------ -- ----- -- ----- -- ---- ------<br>--- ----- --- --- ------ -------- ----- --- ------ ----- --<br>----- ----- ---------- --- --- ------ ------ wary -- ------<br>------- --- ------ ----- --- ---- ------- -- ---- --- --<br>------- ------,161180,161177,160884.061,160887.70000000298,160900.727,161184.049,,40,wary
screen,html.Screen,2_1_1_1_41,2022-05-03T13:14:12.694Z,,,,,,,,,,,,,,,,,54,,,,,,,,,,,,,,251.3510000022361,,response,,,,100,,,,,,,Space,keypress(Space),,,,,,,,-- --- ---- --- ------ ----- ------- ---- -- --- ------- --<br>------- ---------- ------ -- ----- -- ----- -- ---- ------<br>--- ----- --- --- ------ -------- ----- --- ------ ----- --<br>----- ----- ---------- --- --- ------ ------ ---- of ------<br>------- --- ------ ----- --- ---- ------- -- ---- --- --<br>------- ------,161438.40000000224,161435.40000000224,161167.383,161180.1000000015,161184.049,161450.705,,41,of
screen,html.Screen,2_1_1_1_42,2022-05-03T13:14:12.873Z,,,,,,,,,,,,,,,,,54,,,,,,,,,,,,,,164.59500000075786,,response,,,,100,,,,,,,Space,keypress(Space),,,,,,,,-- --- ---- --- ------ ----- ------- ---- -- --- ------- --<br>------- ---------- ------ -- ----- -- ----- -- ---- ------<br>--- ----- --- --- ------ -------- ----- --- ------ ----- --<br>----- ----- ---------- --- --- ------ ------ ---- -- French<br>------- --- ------ ----- --- ---- ------- -- ---- --- --<br>------- ------,161617.80000000075,161615.30000000075,161434.039,161438.5,161450.705,161634.031,,42,French
screen,html.Screen,2_1_1_1_43,2022-05-03T13:14:13.403Z,,,,,,,,,,,,,,,,,54,,,,,,,,,,,,,,509.9690000000119,,response,,,,100,,,,,,,Space,keypress(Space),,,,,,,,-- --- ---- --- ------ ----- ------- ---- -- --- ------- --<br>------- ---------- ------ -- ----- -- ----- -- ---- ------<br>--- ----- --- --- ------ -------- ----- --- ------ ----- --<br>----- ----- ---------- --- --- ------ ------ ---- -- ------<br>credit. --- ------ ----- --- ---- ------- -- ---- --- --<br>------- ------,162147,162144,161617.365,161618,161634.031,162150.677,,43,credit.
screen,html.Screen,2_1_1_1_44,2022-05-03T13:14:13.729Z,,,,,,,,,,,,,,,,,54,,,,,,,,,,,,,,319.72300000223913,,response,,,,100,,,,,,,Space,keypress(Space),,,,,,,,-- --- ---- --- ------ ----- ------- ---- -- --- ------- --<br>------- ---------- ------ -- ----- -- ----- -- ---- ------<br>--- ----- --- --- ------ -------- ----- --- ------ ----- --<br>----- ----- ---------- --- --- ------ ------ ---- -- ------<br>------- The ------ ----- --- ---- ------- -- ---- --- --<br>------- ------,162473.30000000075,162470.40000000224,162134.011,162147.1000000015,162150.677,162483.997,,44,The
screen,html.Screen,2_1_1_1_45,2022-05-03T13:14:14.078Z,,,,,,,,,,,,,,,,,54,,,,,,,,,,,,,,335.502999999997,,response,,,,100,,,,,,,Space,keypress(Space),,,,,,,,-- --- ---- --- ------ ----- ------- ---- -- --- ------- --<br>------- ---------- ------ -- ----- -- ----- -- ---- ------<br>--- ----- --- --- ------ -------- ----- --- ------ ----- --<br>----- ----- ---------- --- --- ------ ------ ---- -- ------<br>------- --- French ----- --- ---- ------- -- ---- --- --<br>------- ------,162822.70000000298,162819.5,162467.331,162473.40000000224,162483.997,162833.983,,45,French
screen,html.Screen,2_1_1_1_46,2022-05-03T13:14:14.303Z,,,,,,,,,,,,,,,,,54,,,,,,,,,,,,,,210.11700000148267,,response,,,,100,,,,,,,Space,keypress(Space),,,,,,,,-- --- ---- --- ------ ----- ------- ---- -- --- ------- --<br>------- ---------- ------ -- ----- -- ----- -- ---- ------<br>--- ----- --- --- ------ -------- ----- --- ------ ----- --<br>----- ----- ---------- --- --- ------ ------ ---- -- ------<br>------- --- ------ state --- ---- ------- -- ---- --- --<br>------- ------,163047.20000000298,163044.1000000015,162817.317,162822.80000000075,162833.983,163050.702,,46,state
screen,html.Screen,2_1_1_1_47,2022-05-03T13:14:14.651Z,,,,,,,,,,,,,,,,,54,,,,,,,,,,,,,,342.09800000075484,,response,,,,100,,,,,,,Space,keypress(Space),,,,,,,,-- --- ---- --- ------ ----- ------- ---- -- --- ------- --<br>------- ---------- ------ -- ----- -- ----- -- ---- ------<br>--- ----- --- --- ------ -------- ----- --- ------ ----- --<br>----- ----- ---------- --- --- ------ ------ ---- -- ------<br>------- --- ------ ----- was ---- ------- -- ---- --- --<br>------- ------,163395.70000000298,163392.80000000075,163034.036,163047.20000000298,163050.702,163400.688,,47,was
screen,html.Screen,2_1_1_1_48,2022-05-03T13:14:14.854Z,,,,,,,,,,,,,,,,,54,,,,,,,,,,,,,,194.6120000007504,,response,,,,100,,,,,,,Space,keypress(Space),,,,,,,,-- --- ---- --- ------ ----- ------- ---- -- --- ------- --<br>------- ---------- ------ -- ----- -- ----- -- ---- ------<br>--- ----- --- --- ------ -------- ----- --- ------ ----- --<br>----- ----- ---------- --- --- ------ ------ ---- -- ------<br>------- --- ------ ----- --- left ------- -- ---- --- --<br>------- ------,163598.30000000075,163595.30000000075,163384.022,163395.70000000298,163400.688,163600.68,,48,left
screen,html.Screen,2_1_1_1_49,2022-05-03T13:14:15.101Z,,,,,,,,,,,,,,,,,54,,,,,,,,,,,,,,242.12000000075204,,response,,,,100,,,,,,,Space,keypress(Space),,,,,,,,-- --- ---- --- ------ ----- ------- ---- -- --- ------- --<br>------- ---------- ------ -- ----- -- ----- -- ---- ------<br>--- ----- --- --- ------ -------- ----- --- ------ ----- --<br>----- ----- ---------- --- --- ------ ------ ---- -- ------<br>------- --- ------ ----- --- ---- without -- ---- --- --<br>------- ------,163845.70000000298,163842.80000000075,163584.014,163598.40000000224,163600.68,163850.67,,49,without
screen,html.Screen,2_1_1_1_50,2022-05-03T13:14:15.304Z,,,,,,,,,,,,,,,,,54,,,,,,,,,,,,,,194.63000000073225,,response,,,,100,,,,,,,Space,keypress(Space),,,,,,,,-- --- ---- --- ------ ----- ------- ---- -- --- ------- --<br>------- ---------- ------ -- ----- -- ----- -- ---- ------<br>--- ----- --- --- ------ -------- ----- --- ------ ----- --<br>----- ----- ---------- --- --- ------ ------ ---- -- ------<br>------- --- ------ ----- --- ---- ------- an ---- --- --<br>------- ------,164048.20000000298,164045.30000000075,163834.004,163845.70000000298,163850.67,164050.662,,50,an
screen,html.Screen,2_1_1_1_51,2022-05-03T13:14:15.360Z,,,,,,,,,,,,,,,,,54,,,,,,,,,,,,,,51.238000002224,,response,,,,100,,,,,,,Space,keypress(Space),,,,,,,,-- --- ---- --- ------ ----- ------- ---- -- --- ------- --<br>------- ---------- ------ -- ----- -- ----- -- ---- ------<br>--- ----- --- --- ------ -------- ----- --- ------ ----- --<br>----- ----- ---------- --- --- ------ ------ ---- -- ------<br>------- --- ------ ----- --- ---- ------- -- easy --- --<br>------- ------,164104.80000000075,164101.90000000224,164033.996,164048.30000000075,164050.662,164117.326,,51,easy
screen,html.Screen,2_1_1_1_52,2022-05-03T13:14:15.765Z,,,,,,,,,,,,,,,,,54,,,,,,,,,,,,,,389.57400000223424,,response,,,,100,,,,,,,Space,keypress(Space),,,,,,,,-- --- ---- --- ------ ----- ------- ---- -- --- ------- --<br>------- ---------- ------ -- ----- -- ----- -- ---- ------<br>--- ----- --- --- ------ -------- ----- --- ------ ----- --<br>----- ----- ---------- --- --- ------ ------ ---- -- ------<br>------- --- ------ ----- --- ---- ------- -- ---- way --<br>------- ------,164510,164506.90000000224,164100.66,164104.90000000224,164117.326,164517.31,,52,way
screen,html.Screen,2_1_1_1_53,2022-05-03T13:14:16.046Z,,,,,,,,,,,,,,,,,54,,,,,,,,,,,,,,270.4900000007474,,response,,,,100,,,,,,,Space,keypress(Space),,,,,,,,-- --- ---- --- ------ ----- ------- ---- -- --- ------- --<br>------- ---------- ------ -- ----- -- ----- -- ---- ------<br>--- ----- --- --- ------ -------- ----- --- ------ ----- --<br>----- ----- ---------- --- --- ------ ------ ---- -- ------<br>------- --- ------ ----- --- ---- ------- -- ---- --- of<br>------- ------,164790.80000000075,164787.80000000075,164500.644,164510,164517.31,164800.632,,53,of
screen,html.Screen,2_1_1_1_54,2022-05-03T13:14:16.384Z,,,,,,,,,,,,,,,,,54,,,,,,,,,,,,,,324.5680000029679,,response,,,,100,,,,,,,Space,keypress(Space),,,,,,,,-- --- ---- --- ------ ----- ------- ---- -- --- ------- --<br>------- ---------- ------ -- ----- -- ----- -- ---- ------<br>--- ----- --- --- ------ -------- ----- --- ------ ----- --<br>----- ----- ---------- --- --- ------ ------ ---- -- ------<br>------- --- ------ ----- --- ---- ------- -- ---- --- --<br>raising ------,165128,165125.20000000298,164783.966,164790.90000000224,164800.632,165133.952,,54,raising
screen,html.Screen,2_1_1_1_55,2022-05-03T13:14:16.755Z,,,,,,,,,,,,,,,,,54,,,,,,,,,,,,,,362.5480000000098,,response,,,,100,,,,,,,Space,keypress(Space),,,,,,,,-- --- ---- --- ------ ----- ------- ---- -- --- ------- --<br>------- ---------- ------ -- ----- -- ----- -- ---- ------<br>--- ----- --- --- ------ -------- ----- --- ------ ----- --<br>----- ----- ---------- --- --- ------ ------ ---- -- ------<br>------- --- ------ ----- --- ---- ------- -- ---- --- --<br>------- money.,165499.70000000298,165496.5,165117.286,165128.20000000298,165133.952,165500.604,,55,money.
Item 100,flow.Loop,2_1_1_1,2022-05-03T13:14:16.755Z,,,,,,,,,,,,,,,,,,,,,,,,,,,,,,,17212.141000000003,,completion,,,,,H,,,,,,,,,,,silence,,,,,165499.80000000075,165496.5,148267.693,148269.40000000224,148284.359,165500.604,,,
Question 1,html.Screen,2_1_1_2,2022-05-03T13:14:19.879Z,,,,,,,,,,,,,,,,,,,,,,,,,,,,true,TRUE,,3101.796000002243,,response,,,,100,H,,,,,,TRUE,click #choice-1,,,,silence,,,,,168623.20000000298,168602.40000000224,165483.938,165499.80000000075,165500.604,168650.478,,,
Question 2,html.Screen,2_1_1_3,2022-05-03T13:14:22.095Z,,,,,,,,,,,,,,,,,,,,,,,,,,,,false,FALSE,,2168.2220000029774,,response,,,,100,H,,,,,,TRUE,click #choice-1,,,,silence,,,,,170840,170818.70000000298,168633.812,168623.40000000224,168650.478,170867.056,,,
Item 100,flow.Sequence,2_1_1,2022-05-03T13:14:22.095Z,,,,,,,,,,,,,,,,,,,,,,,,,,,,,,,32533.99000000299,,completion,,,,,,,,,,,,,,,,,,,,,170840.1000000015,170818.70000000298,138268.044,138274.30000000075,138284.71,170867.056,,,
End of Practice,html.Page,2_1_2,2022-05-03T13:14:42.106Z,,,,,,,,,,,,,,,,,,,,,,,,,,,,,,,19999.296000000002,,timeout,,,,,,,,,,,,,,,,,,,,,190852.1000000015,190849.686,170850.39,170840.20000000298,170867.056,190866.352,,,
Practice,flow.Sequence,2_1,2022-05-03T13:14:42.107Z,,,,,,,,,,,,,,,,,,,,,,,,,,,,,,,86697.39099999999,,completion,,,,,,,,,,,,,,,,,,,,,190852.30000000075,190849.686,104135.629,104143.10000000149,104152.295,190866.352,,,
Trap_instruction,html.Page,2_2_0,2022-05-03T13:15:02.104Z,,,,,,,,,,,,,,,,,,,,,,,,,,,,,,,19999.540999999997,,timeout,,,,,,,,,,,,,,,,,,,,,210851.1000000015,210849.227,190849.686,190852.30000000075,190866.352,210865.893,,,
trap_trial,html.Screen,2_2_1,2022-05-03T13:15:05.475Z,,,,,,,,,,,,,,,,,,,,,,,,,,,,true,1,,3342.106999999989,,response,,,,,,,,,,,1,click #choice-1,,,,,,,,,214222.1000000015,214208,210849.227,210851.20000000298,210865.893,214232.425,,,
end of trap trial,html.Page,2_2_2,2022-05-03T13:15:08.342Z,,,,,,,,,,,,,,,,,,,,,,,,,,,,,,,2856.5750000000116,,form submission,,,,,,,,,,,,,,,,,,,,,217089.40000000224,217089,214215.759,214222.20000000298,214232.425,217098.977,,,
Trap 1,flow.Sequence,2_2,2022-05-03T13:15:08.343Z,,,,,,,,,,,,,,,,,,,,,,,,,,,,,,,26222.647999999986,,completion,,,,,,,,,,,,,,,,,,,,,217089.40000000224,217089,190849.686,190852.30000000075,190866.352,217098.977,,,
Standby,html.Page,2_3_0,2022-05-03T13:15:16.336Z,,,,,,,,,,,,,,,,,,,,,,,,,,,,,,,7999.783999999985,,timeout,,,,,,,,,,,,,,,,,,,,,225083,225082.095,217082.311,217089.5,217098.977,225098.761,,,
Holding screen,html.Screen,2_3_1_0_0,2022-05-03T13:15:23.336Z,,,,,,,,,,,,,,,,,,,,,,,,,,,,,,,6999.891000000003,,timeout,,,,,,,,,,,,,,,,,,,,,232083.20000000298,232081.986,225082.095,225083.1000000015,225098.761,232098.652,,,
screen,html.Screen,2_3_1_0_1_0,2022-05-03T13:15:24.317Z,,,,,,,,,,,,,,,,,40,,,,,,,,,,,,,,962.5480000029784,,response,,,,9,H,,,,,,Space,keypress(Space),,,,speech,,,,Police -- ------- ---- ---- ---- - -------- ----- --- --<br>----- ----- ------ -- ---- -- --- - ---- -- - ----- -----<br>------ ---- ------ ---- - -------- ------- -- --- --------<br>-------- ----------- ---- ------ ---- ------ ---- --- ---<br>-------- --- -----,233064.80000000075,233061.20000000298,232081.986,232083.40000000224,232098.652,233065.28,,0,Police
screen,html.Screen,2_3_1_0_1_1,2022-05-03T13:15:24.778Z,,,,,,,,,,,,,,,,,40,,,,,,,,,,,,,,457.12000000223634,,response,,,,9,H,,,,,,Space,keypress(Space),,,,speech,,,,------ in ------- ---- ---- ---- - -------- ----- --- --<br>----- ----- ------ -- ---- -- --- - ---- -- - ----- -----<br>------ ---- ------ ---- - -------- ------- -- --- --------<br>-------- ----------- ---- ------ ---- ------ ---- --- ---<br>-------- --- -----,233525.1000000015,233522.40000000224,233048.614,233064.90000000224,233065.28,233531.928,,1,in
screen,html.Screen,2_3_1_0_1_2,2022-05-03T13:15:25.126Z,,,,,,,,,,,,,,,,,40,,,,,,,,,,,,,,339.1720000014757,,response,,,,9,H,,,,,,Space,keypress(Space),,,,speech,,,,------ -- Georgia ---- ---- ---- - -------- ----- --- --<br>----- ----- ------ -- ---- -- --- - ---- -- - ----- -----<br>------ ---- ------ ---- - -------- ------- -- --- --------<br>-------- ----------- ---- ------ ---- ------ ---- --- ---<br>-------- --- -----,233874.1000000015,233871.1000000015,233515.262,233525.30000000075,233531.928,233881.914,,2,Georgia
screen,html.Screen,2_3_1_0_1_3,2022-05-03T13:15:25.464Z,,,,,,,,,,,,,,,,,40,,,,,,,,,,,,,,326.58600000001024,,response,,,,9,H,,,,,,Space,keypress(Space),,,,speech,,,,------ -- ------- have ---- ---- - -------- ----- --- --<br>----- ----- ------ -- ---- -- --- - ---- -- - ----- -----<br>------ ---- ------ ---- - -------- ------- -- --- --------<br>-------- ----------- ---- ------ ---- ------ ---- --- ---<br>-------- --- -----,234211.70000000298,234208.5,233865.248,233874.1000000015,233881.914,234215.234,,3,have
screen,html.Screen,2_3_1_0_1_4,2022-05-03T13:15:25.824Z,,,,,,,,,,,,,,,,,40,,,,,,,,,,,,,,353.8660000014934,,response,,,,9,H,,,,,,Space,keypress(Space),,,,speech,,,,------ -- ------- ---- shut ---- - -------- ----- --- --<br>----- ----- ------ -- ---- -- --- - ---- -- - ----- -----<br>------ ---- ------ ---- - -------- ------- -- --- --------<br>-------- ----------- ---- ------ ---- ------ ---- --- ---<br>-------- --- -----,234572.20000000298,234569.1000000015,234198.568,234211.70000000298,234215.234,234581.886,,4,shut
screen,html.Screen,2_3_1_0_1_5,2022-05-03T13:15:26.150Z,,,,,,,,,,,,,,,,,40,,,,,,,,,,,,,,313.01400000223657,,response,,,,9,H,,,,,,Space,keypress(Space),,,,speech,,,,------ -- ------- ---- ---- down - -------- ----- --- --<br>----- ----- ------ -- ---- -- --- - ---- -- - ----- -----<br>------ ---- ------ ---- - -------- ------- -- --- --------<br>-------- ----------- ---- ------ ---- ------ ---- --- ---<br>-------- --- -----,234897.80000000075,234894.90000000224,234565.22,234572.20000000298,234581.886,234898.54,,5,down
screen,html.Screen,2_3_1_0_1_6,2022-05-03T13:15:26.521Z,,,,,,,,,,,,,,,,,40,,,,,,,,,,,,,,367.56000000148197,,response,,,,9,H,,,,,,Space,keypress(Space),,,,speech,,,,------ -- ------- ---- ---- ---- a -------- ----- --- --<br>----- ----- ------ -- ---- -- --- - ---- -- - ----- -----<br>------ ---- ------ ---- - -------- ------- -- --- --------<br>-------- ----------- ---- ------ ---- ------ ---- --- ---<br>-------- --- -----,235268.40000000224,235266.1000000015,234881.874,234897.90000000224,234898.54,235281.858,,6,a
screen,html.Screen,2_3_1_0_1_7,2022-05-03T13:15:26.814Z,,,,,,,,,,,,,,,,,40,,,,,,,,,,,,,,277.14199999999255,,response,,,,9,H,,,,,,Space,keypress(Space),,,,speech,,,,------ -- ------- ---- ---- ---- - lemonade ----- --- --<br>----- ----- ------ -- ---- -- --- - ---- -- - ----- -----<br>------ ---- ------ ---- - -------- ------- -- --- --------<br>-------- ----------- ---- ------ ---- ------ ---- --- ---<br>-------- --- -----,235562,235559,235265.192,235268.5,235281.858,235565.18,,7,lemonade
screen,html.Screen,2_3_1_0_1_8,2022-05-03T13:15:27.151Z,,,,,,,,,,,,,,,,,40,,,,,,,,,,,,,,330.72000000224216,,response,,,,9,H,,,,,,Space,keypress(Space),,,,speech,,,,------ -- ------- ---- ---- ---- - -------- stand --- --<br>----- ----- ------ -- ---- -- --- - ---- -- - ----- -----<br>------ ---- ------ ---- - -------- ------- -- --- --------<br>-------- ----------- ---- ------ ---- ------ ---- --- ---<br>-------- --- -----,235898.90000000224,235895.90000000224,235548.514,235562,235565.18,235915.166,,8,stand
screen,html.Screen,2_3_1_0_1_9,2022-05-03T13:15:27.578Z,,,,,,,,,,,,,,,,,40,,,,,,,,,,,,,,408.33400000000256,,response,,,,9,H,,,,,,Space,keypress(Space),,,,speech,,,,------ -- ------- ---- ---- ---- - -------- ----- run --<br>----- ----- ------ -- ---- -- --- - ---- -- - ----- -----<br>------ ---- ------ ---- - -------- ------- -- --- --------<br>-------- ----------- ---- ------ ---- ------ ---- --- ---<br>-------- --- -----,236326,236323.5,235898.5,235898.90000000224,235915.166,236331.816,,9,run
screen,html.Screen,2_3_1_0_1_10,2022-05-03T13:15:27.951Z,,,,,,,,,,,,,,,,,40,,,,,,,,,,,,,,362.8840000029886,,response,,,,9,H,,,,,,Space,keypress(Space),,,,speech,,,,------ -- ------- ---- ---- ---- - -------- ----- --- by<br>----- ----- ------ -- ---- -- --- - ---- -- - ----- -----<br>------ ---- ------ ---- - -------- ------- -- --- --------<br>-------- ----------- ---- ------ ---- ------ ---- --- ---<br>-------- --- -----,236698.5,236694.70000000298,236315.15,236326.1000000015,236331.816,236715.134,,10,by
screen,html.Screen,2_3_1_0_1_11,2022-05-03T13:15:28.276Z,,,,,,,,,,,,,,,,,40,,,,,,,,,,,,,,305.8660000000091,,response,,,,9,H,,,,,,Space,keypress(Space),,,,speech,,,,------ -- ------- ---- ---- ---- - -------- ----- --- --<br>three ----- ------ -- ---- -- --- - ---- -- - ----- -----<br>------ ---- ------ ---- - -------- ------- -- --- --------<br>-------- ----------- ---- ------ ---- ------ ---- --- ---<br>-------- --- -----,237023.30000000075,237021,236698.468,236698.5,236715.134,237031.788,,11,three
screen,html.Screen,2_3_1_0_1_12,2022-05-03T13:15:28.468Z,,,,,,,,,,,,,,,,,40,,,,,,,,,,,,,,180.91200000297977,,response,,,,9,H,,,,,,Space,keypress(Space),,,,speech,,,,------ -- ------- ---- ---- ---- - -------- ----- --- --<br>----- girls ------ -- ---- -- --- - ---- -- - ----- -----<br>------ ---- ------ ---- - -------- ------- -- --- --------<br>-------- ----------- ---- ------ ---- ------ ---- --- ---<br>-------- --- -----,237215.5,237212.70000000298,237015.122,237023.40000000224,237031.788,237231.78,,12,girls
screen,html.Screen,2_3_1_0_1_13,2022-05-03T13:15:28.659Z,,,,,,,,,,,,,,,,,40,,,,,,,,,,,,,,171.62000000223634,,response,,,,9,H,,,,,,Space,keypress(Space),,,,speech,,,,------ -- ------- ---- ---- ---- - -------- ----- --- --<br>----- ----- trying -- ---- -- --- - ---- -- - ----- -----<br>------ ---- ------ ---- - -------- ------- -- --- --------<br>-------- ----------- ---- ------ ---- ------ ---- --- ---<br>-------- --- -----,237406.5,237403.40000000224,237215.114,237215.6000000015,237231.78,237415.106,,13,trying
screen,html.Screen,2_3_1_0_1_14,2022-05-03T13:15:28.996Z,,,,,,,,,,,,,,,,,40,,,,,,,,,,,,,,325.7940000022354,,response,,,,9,H,,,,,,Space,keypress(Space),,,,speech,,,,------ -- ------- ---- ---- ---- - -------- ----- --- --<br>----- ----- ------ to ---- -- --- - ---- -- - ----- -----<br>------ ---- ------ ---- - -------- ------- -- --- --------<br>-------- ----------- ---- ------ ---- ------ ---- --- ---<br>-------- --- -----,237743.90000000224,237740.90000000224,237398.44,237406.5,237415.106,237748.481,,14,to
screen,html.Screen,2_3_1_0_1_15,2022-05-03T13:15:29.255Z,,,,,,,,,,,,,,,,,40,,,,,,,,,,,,,,251.71900000298047,,response,,,,9,H,,,,,,Space,keypress(Space),,,,speech,,,,------ -- ------- ---- ---- ---- - -------- ----- --- --<br>----- ----- ------ -- save -- --- - ---- -- - ----- -----<br>------ ---- ------ ---- - -------- ------- -- --- --------<br>-------- ----------- ---- ------ ---- ------ ---- --- ---<br>-------- --- -----,238002.70000000298,238000.20000000298,237731.815,237744,237748.481,238015.137,,15,save
screen,html.Screen,2_3_1_0_1_16,2022-05-03T13:15:29.592Z,,,,,,,,,,,,,,,,,40,,,,,,,,,,,,,,321.9630000015022,,response,,,,9,H,,,,,,Space,keypress(Space),,,,speech,,,,------ -- ------- ---- ---- ---- - -------- ----- --- --<br>----- ----- ------ -- ---- up --- - ---- -- - ----- -----<br>------ ---- ------ ---- - -------- ------- -- --- --------<br>-------- ----------- ---- ------ ---- ------ ---- --- ---<br>-------- --- -----,238340,238337.1000000015,237998.471,238002.70000000298,238015.137,238348.457,,16,up
screen,html.Screen,2_3_1_0_1_17,2022-05-03T13:15:29.884Z,,,,,,,,,,,,,,,,,40,,,,,,,,,,,,,,281.24300000298535,,response,,,,9,H,,,,,,Space,keypress(Space),,,,speech,,,,------ -- ------- ---- ---- ---- - -------- ----- --- --<br>----- ----- ------ -- ---- -- for - ---- -- - ----- -----<br>------ ---- ------ ---- - -------- ------- -- --- --------<br>-------- ----------- ---- ------ ---- ------ ---- --- ---<br>-------- --- -----,238632.20000000298,238629.70000000298,238331.791,238340.1000000015,238348.457,238648.445,,17,for
screen,html.Screen,2_3_1_0_1_18,2022-05-03T13:15:30.189Z,,,,,,,,,,,,,,,,,40,,,,,,,,,,,,,,284.9550000022282,,response,,,,9,H,,,,,,Space,keypress(Space),,,,speech,,,,------ -- ------- ---- ---- ---- - -------- ----- --- --<br>----- ----- ------ -- ---- -- --- a ---- -- - ----- -----<br>------ ---- ------ ---- - -------- ------- -- --- --------<br>-------- ----------- ---- ------ ---- ------ ---- --- ---<br>-------- --- -----,238936.40000000224,238933.40000000224,238631.779,238632.20000000298,238648.445,238948.433,,18,a
screen,html.Screen,2_3_1_0_1_19,2022-05-03T13:15:30.436Z,,,,,,,,,,,,,,,,,40,,,,,,,,,,,,,,232.4670000022452,,response,,,,9,H,,,,,,Space,keypress(Space),,,,speech,,,,------ -- ------- ---- ---- ---- - -------- ----- --- --<br>----- ----- ------ -- ---- -- --- - trip -- - ----- -----<br>------ ---- ------ ---- - -------- ------- -- --- --------<br>-------- ----------- ---- ------ ---- ------ ---- --- ---<br>-------- --- -----,239183.90000000224,239180.90000000224,238931.767,238936.5,238948.433,239198.423,,19,trip
screen,html.Screen,2_3_1_0_1_20,2022-05-03T13:15:30.695Z,,,,,,,,,,,,,,,,,40,,,,,,,,,,,,,,241.67700000148034,,response,,,,9,H,,,,,,Space,keypress(Space),,,,speech,,,,------ -- ------- ---- ---- ---- - -------- ----- --- --<br>----- ----- ------ -- ---- -- --- - ---- to - ----- -----<br>------ ---- ------ ---- - -------- ------- -- --- --------<br>-------- ----------- ---- ------ ---- ------ ---- --- ---<br>-------- --- -----,239443.20000000298,239440.1000000015,239181.757,239183.90000000224,239198.423,239448.413,,20,to
screen,html.Screen,2_3_1_0_1_21,2022-05-03T13:15:31.033Z,,,,,,,,,,,,,,,,,40,,,,,,,,,,,,,,329.28700000297977,,response,,,,9,H,,,,,,Space,keypress(Space),,,,speech,,,,------ -- ------- ---- ---- ---- - -------- ----- --- --<br>----- ----- ------ -- ---- -- --- - ---- -- a ----- -----<br>------ ---- ------ ---- - -------- ------- -- --- --------<br>-------- ----------- ---- ------ ---- ------ ---- --- ---<br>-------- --- -----,239780.70000000298,239777.70000000298,239431.747,239443.30000000075,239448.413,239781.733,,21,a
screen,html.Screen,2_3_1_0_1_22,2022-05-03T13:15:31.302Z,,,,,,,,,,,,,,,,,40,,,,,,,,,,,,,,265.86700000148267,,response,,,,9,H,,,,,,Space,keypress(Space),,,,speech,,,,------ -- ------- ---- ---- ---- - -------- ----- --- --<br>----- ----- ------ -- ---- -- --- - ---- -- - water -----<br>------ ---- ------ ---- - -------- ------- -- --- --------<br>-------- ----------- ---- ------ ---- ------ ---- --- ---<br>-------- --- -----,240050.1000000015,240047.6000000015,239765.067,239780.70000000298,239781.733,240065.055,,22,water
screen,html.Screen,2_3_1_0_1_23,2022-05-03T13:15:31.639Z,,,,,,,,,,,,,,,,,40,,,,,,,,,,,,,,319.445000000007,,response,,,,9,H,,,,,,Space,keypress(Space),,,,speech,,,,"------ -- ------- ---- ---- ---- - -------- ----- --- --<br>----- ----- ------ -- ---- -- --- - ---- -- - ----- park,<br>------ ---- ------ ---- - -------- ------- -- --- --------<br>-------- ----------- ---- ------ ---- ------ ---- --- ---<br>-------- --- -----",240387.40000000224,240384.5,240048.389,240050.20000000298,240065.055,240398.375,,23,"park,"
screen,html.Screen,2_3_1_0_1_24,2022-05-03T13:15:31.989Z,,,,,,,,,,,,,,,,,40,,,,,,,,,,,,,,335.0250000022352,,response,,,,9,H,,,,,,Space,keypress(Space),,,,speech,,,,------ -- ------- ---- ---- ---- - -------- ----- --- --<br>----- ----- ------ -- ---- -- --- - ---- -- - ----- -----<br>saying ---- ------ ---- - -------- ------- -- --- --------<br>-------- ----------- ---- ------ ---- ------ ---- --- ---<br>-------- --- -----,240736.6000000015,240733.40000000224,240381.709,240387.5,240398.375,240748.361,,24,saying
screen,html.Screen,2_3_1_0_1_25,2022-05-03T13:15:32.325Z,,,,,,,,,,,,,,,,,40,,,,,,,,,,,,,,322.43900000074063,,response,,,,9,H,,,,,,Space,keypress(Space),,,,speech,,,,------ -- ------- ---- ---- ---- - -------- ----- --- --<br>----- ----- ------ -- ---- -- --- - ---- -- - ----- -----<br>------ they ------ ---- - -------- ------- -- --- --------<br>-------- ----------- ---- ------ ---- ------ ---- --- ---<br>-------- --- -----,241073.20000000298,241070.80000000075,240731.695,240736.6000000015,240748.361,241081.681,,25,they
screen,html.Screen,2_3_1_0_1_26,2022-05-03T13:15:32.595Z,,,,,,,,,,,,,,,,,40,,,,,,,,,,,,,,259.21900000222377,,response,,,,9,H,,,,,,Space,keypress(Space),,,,speech,,,,------ -- ------- ---- ---- ---- - -------- ----- --- --<br>----- ----- ------ -- ---- -- --- - ---- -- - ----- -----<br>------ ---- didn't ---- - -------- ------- -- --- --------<br>-------- ----------- ---- ------ ---- ------ ---- --- ---<br>-------- --- -----,241343.30000000075,241340.90000000224,241065.015,241073.20000000298,241081.681,241348.337,,26,didn't
screen,html.Screen,2_3_1_0_1_27,2022-05-03T13:15:32.888Z,,,,,,,,,,,,,,,,,40,,,,,,,,,,,,,,284.9630000007455,,response,,,,9,H,,,,,,Space,keypress(Space),,,,speech,,,,------ -- ------- ---- ---- ---- - -------- ----- --- --<br>----- ----- ------ -- ---- -- --- - ---- -- - ----- -----<br>------ ---- ------ have - -------- ------- -- --- --------<br>-------- ----------- ---- ------ ---- ------ ---- --- ---<br>-------- --- -----,241635.90000000224,241633.30000000075,241331.671,241343.40000000224,241348.337,241648.325,,27,have
screen,html.Screen,2_3_1_0_1_28,2022-05-03T13:15:33.203Z,,,,,,,,,,,,,,,,,40,,,,,,,,,,,,,,299.8750000029686,,response,,,,9,H,,,,,,Space,keypress(Space),,,,speech,,,,------ -- ------- ---- ---- ---- - -------- ----- --- --<br>----- ----- ------ -- ---- -- --- - ---- -- - ----- -----<br>------ ---- ------ ---- a -------- ------- -- --- --------<br>-------- ----------- ---- ------ ---- ------ ---- --- ---<br>-------- --- -----,241951.30000000075,241948.20000000298,241631.659,241636,241648.325,241964.979,,28,a
screen,html.Screen,2_3_1_0_1_29,2022-05-03T13:15:33.484Z,,,,,,,,,,,,,,,,,40,,,,,,,,,,,,,,264.5210000000079,,response,,,,9,H,,,,,,Space,keypress(Space),,,,speech,,,,------ -- ------- ---- ---- ---- - -------- ----- --- --<br>----- ----- ------ -- ---- -- --- - ---- -- - ----- -----<br>------ ---- ------ ---- - business ------- -- --- --------<br>-------- ----------- ---- ------ ---- ------ ---- --- ---<br>-------- --- -----,242232.5,242229.5,241948.313,241951.40000000224,241964.979,242248.301,,29,business
screen,html.Screen,2_3_1_0_1_30,2022-05-03T13:15:33.776Z,,,,,,,,,,,,,,,,,40,,,,,,,,,,,,,,273.5990000022284,,response,,,,9,H,,,,,,Space,keypress(Space),,,,speech,,,,------ -- ------- ---- ---- ---- - -------- ----- --- --<br>----- ----- ------ -- ---- -- --- - ---- -- - ----- -----<br>------ ---- ------ ---- - -------- license -- --- --------<br>-------- ----------- ---- ------ ---- ------ ---- --- ---<br>-------- --- -----,242524.40000000224,242521.90000000224,242231.635,242232.6000000015,242248.301,242531.623,,30,license
screen,html.Screen,2_3_1_0_1_31,2022-05-03T13:15:34.137Z,,,,,,,,,,,,,,,,,40,,,,,,,,,,,,,,350.3770000000077,,response,,,,9,H,,,,,,Space,keypress(Space),,,,speech,,,,------ -- ------- ---- ---- ---- - -------- ----- --- --<br>----- ----- ------ -- ---- -- --- - ---- -- - ----- -----<br>------ ---- ------ ---- - -------- ------- or --- --------<br>-------- ----------- ---- ------ ---- ------ ---- --- ---<br>-------- --- -----,242884.90000000224,242882,242514.957,242524.5,242531.623,242898.275,,31,or
screen,html.Screen,2_3_1_0_1_32,2022-05-03T13:15:34.464Z,,,,,,,,,,,,,,,,,40,,,,,,,,,,,,,,310.0250000007509,,response,,,,9,H,,,,,,Space,keypress(Space),,,,speech,,,,------ -- ------- ---- ---- ---- - -------- ----- --- --<br>----- ----- ------ -- ---- -- --- - ---- -- - ----- -----<br>------ ---- ------ ---- - -------- ------- -- the --------<br>-------- ----------- ---- ------ ---- ------ ---- --- ---<br>-------- --- -----,243211.80000000075,243208.30000000075,242881.609,242885,242898.275,243214.929,,32,the
screen,html.Screen,2_3_1_0_1_33,2022-05-03T13:15:34.879Z,,,,,,,,,,,,,,,,,40,,,,,,,,,,,,,,409.37100000074133,,response,,,,9,H,,,,,,Space,keypress(Space),,,,speech,,,,------ -- ------- ---- ---- ---- - -------- ----- --- --<br>----- ----- ------ -- ---- -- --- - ---- -- - ----- -----<br>------ ---- ------ ---- - -------- ------- -- --- required<br>-------- ----------- ---- ------ ---- ------ ---- --- ---<br>-------- --- -----,243626.80000000075,243624.30000000075,243198.263,243211.90000000224,243214.929,243648.245,,33,required
screen,html.Screen,2_3_1_0_1_34,2022-05-03T13:15:35.284Z,,,,,,,,,,,,,,,,,40,,,,,,,,,,,,,,381.0550000007497,,response,,,,9,H,,,,,,Space,keypress(Space),,,,speech,,,,------ -- ------- ---- ---- ---- - -------- ----- --- --<br>----- ----- ------ -- ---- -- --- - ---- -- - ----- -----<br>------ ---- ------ ---- - -------- ------- -- --- --------<br>permits. ----------- ---- ------ ---- ------ ---- --- ---<br>-------- --- -----,244032.30000000075,244029.30000000075,243631.579,243626.90000000224,243648.245,244048.229,,34,permits.
screen,html.Screen,2_3_1_0_1_35,2022-05-03T13:15:35.712Z,,,,,,,,,,,,,,,,,40,,,,,,,,,,,,,,408.571000000753,,response,,,,9,H,,,,,,Space,keypress(Space),,,,speech,,,,------ -- ------- ---- ---- ---- - -------- ----- --- --<br>----- ----- ------ -- ---- -- --- - ---- -- - ----- -----<br>------ ---- ------ ---- - -------- ------- -- --- --------<br>-------- Morningstar ---- ------ ---- ------ ---- --- ---<br>-------- --- -----,244459.6000000015,244456.80000000075,244031.563,244032.30000000075,244048.229,244481.545,,35,Morningstar
screen,html.Screen,2_3_1_0_1_36,2022-05-03T13:15:36.162Z,,,,,,,,,,,,,,,,,40,,,,,,,,,,,,,,425.85500000222237,,response,,,,9,H,,,,,,Space,keypress(Space),,,,speech,,,,------ -- ------- ---- ---- ---- - -------- ----- --- --<br>----- ----- ------ -- ---- -- --- - ---- -- - ----- -----<br>------ ---- ------ ---- - -------- ------- -- --- --------<br>-------- ----------- says ------ ---- ------ ---- --- ---<br>-------- --- -----,244910.40000000224,244907.40000000224,244464.879,244459.80000000075,244481.545,244914.861,,36,says
screen,html.Screen,2_3_1_0_1_37,2022-05-03T13:15:36.477Z,,,,,,,,,,,,,,,,,40,,,,,,,,,,,,,,307.03900000223075,,response,,,,9,H,,,,,,Space,keypress(Space),,,,speech,,,,------ -- ------- ---- ---- ---- - -------- ----- --- --<br>----- ----- ------ -- ---- -- --- - ---- -- - ----- -----<br>------ ---- ------ ---- - -------- ------- -- --- --------<br>-------- ----------- ---- police ---- ------ ---- --- ---<br>-------- --- -----,245225.1000000015,245221.90000000224,244898.195,244910.40000000224,244914.861,245248.181,,37,police
screen,html.Screen,2_3_1_0_1_38,2022-05-03T13:15:36.803Z,,,,,,,,,,,,,,,,,40,,,,,,,,,,,,,,300.0190000029688,,response,,,,9,H,,,,,,Space,keypress(Space),,,,speech,,,,------ -- ------- ---- ---- ---- - -------- ----- --- --<br>----- ----- ------ -- ---- -- --- - ---- -- - ----- -----<br>------ ---- ------ ---- - -------- ------- -- --- --------<br>-------- ----------- ---- ------ also ------ ---- --- ---<br>-------- --- -----,245550.80000000075,245548.20000000298,245231.515,245225.20000000298,245248.181,245564.835,,38,also
screen,html.Screen,2_3_1_0_1_39,2022-05-03T13:15:37.129Z,,,,,,,,,,,,,,,,,40,,,,,,,,,,,,,,309.5650000022433,,response,,,,9,H,,,,,,Space,keypress(Space),,,,speech,,,,------ -- ------- ---- ---- ---- - -------- ----- --- --<br>----- ----- ------ -- ---- -- --- - ---- -- - ----- -----<br>------ ---- ------ ---- - -------- ------- -- --- --------<br>-------- ----------- ---- ------ ---- didn't ---- --- ---<br>-------- --- -----,245877.30000000075,245874.40000000224,245548.169,245550.90000000224,245564.835,245881.489,,39,didn't
screen,html.Screen,2_3_1_0_1_40,2022-05-03T13:15:37.455Z,,,,,,,,,,,,,,,,,40,,,,,,,,,,,,,,319.1110000014887,,response,,,,9,H,,,,,,Space,keypress(Space),,,,speech,,,,------ -- ------- ---- ---- ---- - -------- ----- --- --<br>----- ----- ------ -- ---- -- --- - ---- -- - ----- -----<br>------ ---- ------ ---- - -------- ------- -- --- --------<br>-------- ----------- ---- ------ ---- ------ know --- ---<br>-------- --- -----,246203.1000000015,246200.6000000015,245864.823,245877.30000000075,245881.489,246214.809,,40,know
screen,html.Screen,2_3_1_0_1_41,2022-05-03T13:15:37.770Z,,,,,,,,,,,,,,,,,40,,,,,,,,,,,,,,300.89100000297185,,response,,,,9,H,,,,,,Space,keypress(Space),,,,speech,,,,------ -- ------- ---- ---- ---- - -------- ----- --- --<br>----- ----- ------ -- ---- -- --- - ---- -- - ----- -----<br>------ ---- ------ ---- - -------- ------- -- --- --------<br>-------- ----------- ---- ------ ---- ------ ---- how ---<br>-------- --- -----,246518.70000000298,246515.70000000298,246198.143,246203.1000000015,246214.809,246531.463,,41,how
screen,html.Screen,2_3_1_0_1_42,2022-05-03T13:15:38.063Z,,,,,,,,,,,,,,,,,40,,,,,,,,,,,,,,276.7370000029914,,response,,,,9,H,,,,,,Space,keypress(Space),,,,speech,,,,------ -- ------- ---- ---- ---- - -------- ----- --- --<br>----- ----- ------ -- ---- -- --- - ---- -- - ----- -----<br>------ ---- ------ ---- - -------- ------- -- --- --------<br>-------- ----------- ---- ------ ---- ------ ---- --- the<br>-------- --- -----,246811.20000000298,246808.20000000298,246514.797,246518.80000000075,246531.463,246814.785,,42,the
screen,html.Screen,2_3_1_0_1_43,2022-05-03T13:15:38.355Z,,,,,,,,,,,,,,,,,40,,,,,,,,,,,,,,285.7149999999965,,response,,,,9,H,,,,,,Space,keypress(Space),,,,speech,,,,------ -- ------- ---- ---- ---- - -------- ----- --- --<br>----- ----- ------ -- ---- -- --- - ---- -- - ----- -----<br>------ ---- ------ ---- - -------- ------- -- --- --------<br>-------- ----------- ---- ------ ---- ------ ---- --- ---<br>lemonade --- -----,247103,247100.5,246798.119,246811.20000000298,246814.785,247114.773,,43,lemonade
screen,html.Screen,2_3_1_0_1_44,2022-05-03T13:15:38.591Z,,,,,,,,,,,,,,,,,40,,,,,,,,,,,,,,222.02700000075856,,response,,,,9,H,,,,,,Space,keypress(Space),,,,speech,,,,------ -- ------- ---- ---- ---- - -------- ----- --- --<br>----- ----- ------ -- ---- -- --- - ---- -- - ----- -----<br>------ ---- ------ ---- - -------- ------- -- --- --------<br>-------- ----------- ---- ------ ---- ------ ---- --- ---<br>-------- was -----,247339.20000000298,247336.80000000075,247098.107,247103,247114.773,247348.097,,44,was
screen,html.Screen,2_3_1_0_1_45,2022-05-03T13:15:38.929Z,,,,,,,,,,,,,,,,,40,,,,,,,,,,,,,,326.2030000007362,,response,,,,9,H,,,,,,Space,keypress(Space),,,,speech,,,,------ -- ------- ---- ---- ---- - -------- ----- --- --<br>----- ----- ------ -- ---- -- --- - ---- -- - ----- -----<br>------ ---- ------ ---- - -------- ------- -- --- --------<br>-------- ----------- ---- ------ ---- ------ ---- --- ---<br>-------- --- made.,247676.90000000224,247674.30000000075,247331.431,247339.30000000075,247348.097,247681.417,,45,made.
Item 9,flow.Loop,2_3_1_0_1,2022-05-03T13:15:38.929Z,,,,,,,,,,,,,,,,,,,,,,,,,,,,,,,15575.648000000743,,completion,,,,,,,,,,,,,,,,,,,,,247677,247674.30000000075,232081.986,232083.30000000075,232098.652,247681.417,,,
Question 1,html.Screen,2_3_1_0_2,2022-05-03T13:15:41.040Z,,,,,,,,,,,,,,,,,,,,,,,,,,,,false,FALSE,,2086.4830000022484,,response,,,,9,H,,,,,,TRUE,click #choice-1,,,,speech,,,,,249788,249767.90000000224,247664.751,247677,247681.417,249814.82,,,
Question 2,html.Screen,2_3_1_0_3,2022-05-03T13:15:44.073Z,,,,,,,,,,,,,,,,,,,,,,,,,,,,true,FALSE,,2990.679999999993,,response,,,,9,H,,,,,,FALSE,click #choice-2,,,,speech,,,,,252821.1000000015,252805.5,249798.154,249788.20000000298,249814.82,252848.032,,,
