sender,sender_type,sender_id,timestamp,meta,,Blues,Classical,Country,Dance,Electronic,Folk,Gospel,Hip-Hop,Jazz,Latin,Musical/Film,New-age,Pop,Prolific_id,Provo_ID,R&B,Rap,Reggae,Religious,Rock,Soul,Swing,Traditional,age,artist_name,correct,correctResponse,distraction,duration,education,ended_on,familiarity,gender,headphone_check_performance,item,list,music_frequency,offensiveness,pleasantness,position_correct,preference,response,response_action,snippet_file,song_name,song_rating,sound,stimulus_1,stimulus_2,stimulus_3,text,time_commit,time_end,time_render,time_run,time_show,time_switch,url,word,word_ID
Prolific ID,html.Form,0,2022-05-12T10:49:14.872Z,"{""labjs_version"":""20.2.2"",""labjs_build"":{""flavor"":""production"",""commit"":""a25486e0c714a0ae2ce03ff94b7bb6896854dcfa""},""location"":""https://run.pavlovia.org/mvasilev/prolific3_music_d/"",""userAgent"":""Mozilla/5.0 (Windows NT 10.0; Win64; x64) AppleWebKit/537.36 (KHTML, like Gecko) Chrome/101.0.4951.64 Safari/537.36"",""platform"":""Win32"",""language"":""en-US"",""locale"":""en-US"",""timeZone"":""Europe/London"",""timezoneOffset"":-60,""screen_width"":1536,""screen_height"":864,""scroll_width"":1536,""scroll_height"":674,""window_innerWidth"":1536,""window_innerHeight"":722,""devicePixelRatio"":1.25}",,,,,,,,,,,,,,,613f4cc02c68dc6980c4c7c0,,,,,,,,,,,,,,,3659.3650000003727,,form submission,,,,,,,,,,,,,,,,,,,,,13778.900000000373,13778.400000000373,10069.431,10079.900000000373,10119.035,13818.655,{},,
Introduction,html.Screen,1_0,2022-05-12T10:49:20.939Z,,,,,,,,,,,,,,,,,,,,,,,,,,,,,,,6023.245000000372,,response,,,,,,,,,,,continue,click button,,,,,,,,,19845.5,19841.900000000373,13768.85,13779.400000000373,13818.655,19851.285,,,
Volume calibration,html.Screen,1_1,2022-05-12T10:49:40.651Z,,,,,,,,,,,,,,,,,,,,,,,,,,,,,,,19700.81500000056,,response,,,,,,,,,,,continue,click button,,,,,,,,,39558.10000000056,39552.10000000056,19834.73,19845.60000000056,19851.285,39565.693,,,
Task instructions,html.Screen,1_2,2022-05-12T10:49:46.575Z,,,,,,,,,,,,,,,,,,,,,,,,,,,,,,,5916.307000000001,,response,,,,,,,,,,,continue,click button,,,,,,,,,45483,45482,39549.222,39558.40000000037,39565.693,45498.386,,,
Sounds,html.Screen,1_3_0_0,2022-05-12T10:49:50.830Z,,,,,,,,,,,,,,,,,,,,,,,,,,,,,,,4249.446000000004,,timeout,,,,,,,,,2,,,,,,,,O,S,I,,49737.10000000056,49731.222,45481.874,45483.200000000186,45498.386,49747.832,,,
Judgement,html.Screen,1_3_0_1,2022-05-12T10:49:53.093Z,,,,,,,,,,,,,,,,,,,,,,,,,,,,true,2,,2251.0680000003704,,response,,,,,,,,,2,,2,click #choice-2,,,,,O,S,I,,52000.300000000745,51998.90000000037,49731.222,49737.40000000037,49747.832,52014.362,,,
Trial,flow.Sequence,1_3_0,2022-05-12T10:49:53.093Z,,,,,,,,,,,,,,,,,,,,,,,,,,,,,,,6500.514000000374,,completion,,,,,,,,,2,,,,,,,,O,S,I,,52000.60000000056,51998.90000000037,45481.874,45483.200000000186,45498.386,52014.362,,,
Sounds,html.Screen,1_3_1_0,2022-05-12T10:49:57.341Z,,,,,,,,,,,,,,,,,,,,,,,,,,,,,,,4249.502999999997,,timeout,,,,,,,,,1,,,,,,,,S,O,I,,56248.5,56247.146,51997.7,52000.700000000186,52014.362,56263.865,,,
Judgement,html.Screen,1_3_1_1,2022-05-12T10:49:58.116Z,,,,,,,,,,,,,,,,,,,,,,,,,,,,true,1,,757.9350000007471,,response,,,,,,,,,1,,1,click #choice-1,,,,,S,O,I,,57023,57021.800000000745,56247.146,56248.800000000745,56263.865,57030.315,,,
Trial,flow.Sequence,1_3_1,2022-05-12T10:49:58.116Z,,,,,,,,,,,,,,,,,,,,,,,,,,,,,,,5007.438000000744,,completion,,,,,,,,,1,,,,,,,,S,O,I,,57023.40000000037,57021.800000000745,51997.7,52000.700000000186,52014.362,57030.315,,,
Sounds,html.Screen,1_3_2_0,2022-05-12T10:50:02.357Z,,,,,,,,,,,,,,,,,,,,,,,,,,,,,,,4249.716999999997,,timeout,,,,,,,,,3,,,,,,,,I,O,S,,61264.700000000186,61263.256,57013.856,57023.60000000056,57030.315,61280.032,,,
Judgement,html.Screen,1_3_2_1,2022-05-12T10:50:03.356Z,,,,,,,,,,,,,,,,,,,,,,,,,,,,true,3,,982.0680000005596,,response,,,,,,,,,3,,3,click #choice-3,,,,,I,O,S,,62263.200000000186,62262.10000000056,61263.256,61265.200000000186,61280.032,62279.858,,,
Trial,flow.Sequence,1_3_2,2022-05-12T10:50:03.356Z,,,,,,,,,,,,,,,,,,,,,,,,,,,,,,,5231.7850000005565,,completion,,,,,,,,,3,,,,,,,,I,O,S,,62263.700000000186,62262.10000000056,57013.856,57023.60000000056,57030.315,62279.858,,,
Sounds,html.Screen,1_3_3_0,2022-05-12T10:50:07.606Z,,,,,,,,,,,,,,,,,,,,,,,,,,,,,,,4249.541000000005,,timeout,,,,,,,,,1,,,,,,,,S,I,O,,66514,66512.658,62246.619,62263.90000000037,62279.858,66529.399,,,
Judgement,html.Screen,1_3_3_1,2022-05-12T10:50:08.476Z,,,,,,,,,,,,,,,,,,,,,,,,,,,,true,1,,852.5010000003676,,response,,,,,,,,,1,,1,click #choice-1,,,,,S,I,O,,67383.30000000075,67381.90000000037,66512.658,66514.20000000019,66529.399,67395.923,,,
Trial,flow.Sequence,1_3_3,2022-05-12T10:50:08.476Z,,,,,,,,,,,,,,,,,,,,,,,,,,,,,,,5102.042000000372,,completion,,,,,,,,,1,,,,,,,,S,I,O,,67383.5,67381.90000000037,62246.619,62263.90000000037,62279.858,67395.923,,,
Sounds,html.Screen,1_3_4_0,2022-05-12T10:50:12.723Z,,,,,,,,,,,,,,,,,,,,,,,,,,,,,,,4250.374000000011,,timeout,,,,,,,,,3,,,,,,,,O,I,S,,71630.40000000037,71628.832,67379.35,67383.70000000019,67395.923,71646.297,,,
Judgement,html.Screen,1_3_4_1,2022-05-12T10:50:13.976Z,,,,,,,,,,,,,,,,,,,,,,,,,,,,true,3,,1235.8030000005529,,response,,,,,,,,,3,,3,click #choice-3,,,,,O,I,S,,72883.5,72882.10000000056,71628.832,71630.60000000056,71646.297,72895.284,,,
Trial,flow.Sequence,1_3_4,2022-05-12T10:50:13.976Z,,,,,,,,,,,,,,,,,,,,,,,,,,,,,,,5486.177000000564,,completion,,,,,,,,,3,,,,,,,,O,I,S,,72883.70000000019,72882.10000000056,67379.35,67383.70000000019,67395.923,72895.284,,,
Sounds,html.Screen,1_3_5_0,2022-05-12T10:50:18.222Z,,,,,,,,,,,,,,,,,,,,,,,,,,,,,,,4249.534,,timeout,,,,,,,,,2,,,,,,,,I,S,O,,77129.5,77128.198,72878.704,72883.80000000075,72895.284,77144.818,,,
Judgement,html.Screen,1_3_5_1,2022-05-12T10:50:18.786Z,,,,,,,,,,,,,,,,,,,,,,,,,,,,true,2,,546.882000000187,,response,,,,,,,,,2,,2,click #choice-2,,,,,I,S,O,,77693.10000000056,77691.70000000019,77128.198,77129.70000000019,77144.818,77694.608,,,
Trial,flow.Sequence,1_3_5,2022-05-12T10:50:18.786Z,,,,,,,,,,,,,,,,,,,,,,,,,,,,,,,4796.416000000187,,completion,,,,,,,,,2,,,,,,,,I,S,O,,77693.30000000075,77691.70000000019,72878.704,72883.80000000075,72895.284,77694.608,,,
Task,flow.Loop,1_3,2022-05-12T10:50:18.795Z,,,,,,,,,,,,,,,,,,,,,,,,,,,,,,,32193.314000000188,,completion,,,1,,,,,,,,,,,,,,,,,,77702.10000000056,77691.70000000019,45481.874,45483.10000000056,45498.386,77694.608,,,
Trap,html.Screen,1_4,2022-05-12T10:50:18.796Z,,,,,,,,,,,,,,,,,,,,,,,,,,,,,,,NaN,,skipped,,,,,,,,,,,,,,,,,,,,,77703.5,77691.70000000019,,77703.40000000037,,77694.608,,,
Thanks,html.Screen,1_5,2022-05-12T10:50:21.476Z,,,,,,,,,,,,,,,,,,,,,,,,,,,,,,,2687.492000000566,,response,,,,,,,,,,,continue,click button,,,,,,,,,80383,80382.10000000056,77678.07,77703.60000000056,77694.608,85027.156,,,
Headphone screening,flow.Sequence,1,2022-05-12T10:50:21.476Z,,,,,,,,,,,,,,,,,,,,,,,,,,,,,,,66563.44500000056,,completion,,,,,,,,,,,,,,,,,,,,,80383.20000000019,80382.10000000056,13768.85,13779.300000000745,13818.655,85027.156,,,
Instructions,html.Page,2_0,2022-05-12T10:50:28.188Z,,,,,,,,,,,,,,,,,,,,,,,,,,,,,,,2067.6440000007424,,form submission,,,,,,,,,,,,,,,,,,,,,87095.10000000056,87094.80000000075,85010.504,85026.30000000075,85027.156,87110.319,,,
Holding screen,html.Screen,2_1_0_0,2022-05-12T10:50:38.187Z,,,,,,,,,,,,,,,,,,,,,,,,,,,,,,,10048.743999999992,,timeout,,,,,,,,,,,,,,,,,,,,,97093.5,97092.405,87093.586,87095.40000000037,87110.319,97159.063,,,
screen,html.Screen,2_1_0_1_0,2022-05-12T10:50:39.336Z,,,,,,,,,,,,,,,,,53,,,,,,,,,,,,,,1078.0370000005641,,response,,,,99,,,,,,,Space,keypress(Space),,,,,,,,When -- ----- -- ------ - ------- --- ----------<br>------------- ------ ------ ---- ---- ------- ----- -- ----<br>-------- ------- -- ---------- --- - --- ----- ----- ----<br>---- --- --- ----- --- ---- ---- ------- ----- ---- -------<br>--- --- -- ----- -- --- ---- -- --- ---- -- ------ ------<br>--- ----- -- ----,98243,98237.10000000056,97092.405,97093.80000000075,97159.063,98259.114,,0,When
screen,html.Screen,2_1_0_1_1,2022-05-12T10:50:39.716Z,,,,,,,,,,,,,,,,,53,,,,,,,,,,,,,,362.3859999999986,,response,,,,99,,,,,,,Space,keypress(Space),,,,,,,,---- it ----- -- ------ - ------- --- ----------<br>------------- ------ ------ ---- ---- ------- ----- -- ----<br>-------- ------- -- ---------- --- - --- ----- ----- ----<br>---- --- --- ----- --- ---- ---- ------- ----- ---- -------<br>--- --- -- ----- -- --- ---- -- --- ---- -- ------ ------<br>--- ----- -- ----,98622.90000000037,98621.5,98242.376,98243.30000000075,98259.114,98625.566,,1,it
screen,html.Screen,2_1_0_1_2,2022-05-12T10:50:40.062Z,,,,,,,,,,,,,,,,,53,,,,,,,,,,,,,,341.93399999999383,,response,,,,99,,,,,,,Space,keypress(Space),,,,,,,,---- -- comes -- ------ - ------- --- ----------<br>------------- ------ ------ ---- ---- ------- ----- -- ----<br>-------- ------- -- ---------- --- - --- ----- ----- ----<br>---- --- --- ----- --- ---- ---- ------- ----- ---- -------<br>--- --- -- ----- -- --- ---- -- --- ---- -- ------ ------<br>--- ----- -- ----,98968.5,98967.5,98608.96,98623.20000000019,98625.566,98975.545,,2,comes
screen,html.Screen,2_1_0_1_3,2022-05-12T10:50:40.375Z,,,,,,,,,,,,,,,,,53,,,,,,,,,,,,,,305.155000000188,,response,,,,99,,,,,,,Space,keypress(Space),,,,,,,,---- -- ----- to ------ - ------- --- ----------<br>------------- ------ ------ ---- ---- ------- ----- -- ----<br>-------- ------- -- ---------- --- - --- ----- ----- ----<br>---- --- --- ----- --- ---- ---- ------- ----- ---- -------<br>--- --- -- ----- -- --- ---- -- --- ---- -- ------ ------<br>--- ----- -- ----,99281.70000000019,99280.70000000019,98959.047,98968.70000000019,98975.545,99292.205,,3,to
screen,html.Screen,2_1_0_1_4,2022-05-12T10:50:40.816Z,,,,,,,,,,,,,,,,,53,,,,,,,,,,,,,,429.79499999999825,,response,,,,99,,,,,,,Space,keypress(Space),,,,,,,,---- -- ----- -- having - ------- --- ----------<br>------------- ------ ------ ---- ---- ------- ----- -- ----<br>-------- ------- -- ---------- --- - --- ----- ----- ----<br>---- --- --- ----- --- ---- ---- ------- ----- ---- -------<br>--- --- -- ----- -- --- ---- -- --- ---- -- ------ ------<br>--- ----- -- ----,99723.20000000019,99722,99275.676,99282,99292.205,99725.468,,4,having
screen,html.Screen,2_1_0_1_5,2022-05-12T10:50:41.152Z,,,,,,,,,,,,,,,,,53,,,,,,,,,,,,,,332.8320000007516,,response,,,,99,,,,,,,Space,keypress(Space),,,,,,,,---- -- ----- -- ------ a ------- --- ----------<br>------------- ------ ------ ---- ---- ------- ----- -- ----<br>-------- ------- -- ---------- --- - --- ----- ----- ----<br>---- --- --- ----- --- ---- ---- ------- ----- ---- -------<br>--- --- -- ----- -- --- ---- -- --- ---- -- ------ ------<br>--- ----- -- ----,100059.10000000056,100058.30000000075,99708.937,99723.40000000037,99725.468,100075.563,,5,a
screen,html.Screen,2_1_0_1_6,2022-05-12T10:50:41.469Z,,,,,,,,,,,,,,,,,53,,,,,,,,,,,,,,298.8370000003779,,response,,,,99,,,,,,,Space,keypress(Space),,,,,,,,---- -- ----- -- ------ - lasting --- ----------<br>------------- ------ ------ ---- ---- ------- ----- -- ----<br>-------- ------- -- ---------- --- - --- ----- ----- ----<br>---- --- --- ----- --- ---- ---- ------- ----- ---- -------<br>--- --- -- ----- -- --- ---- -- --- ---- -- ------ ------<br>--- ----- -- ----,100375.60000000056,100374.40000000037,100058.929,100059.40000000037,100075.563,100392.106,,6,lasting
screen,html.Screen,2_1_0_1_7,2022-05-12T10:50:41.835Z,,,,,,,,,,,,,,,,,53,,,,,,,,,,,,,,349.1940000007453,,response,,,,99,,,,,,,Space,keypress(Space),,,,,,,,---- -- ----- -- ------ - ------- and ----------<br>------------- ------ ------ ---- ---- ------- ----- -- ----<br>-------- ------- -- ---------- --- - --- ----- ----- ----<br>---- --- --- ----- --- ---- ---- ------- ----- ---- -------<br>--- --- -- ----- -- --- ---- -- --- ---- -- ------ ------<br>--- ----- -- ----,100742.30000000075,100741.30000000075,100375.432,100375.80000000075,100392.106,100758.824,,7,and
screen,html.Screen,2_1_0_1_8,2022-05-12T10:50:42.288Z,,,,,,,,,,,,,,,,,53,,,,,,,,,,,,,,434.876000000193,,response,,,,99,,,,,,,Space,keypress(Space),,,,,,,,---- -- ----- -- ------ - ------- --- fulfilling<br>------------- ------ ------ ---- ---- ------- ----- -- ----<br>-------- ------- -- ---------- --- - --- ----- ----- ----<br>---- --- --- ----- --- ---- ---- ------- ----- ---- -------<br>--- --- -- ----- -- --- ---- -- --- ---- -- ------ ------<br>--- ----- -- ----,101194.70000000019,101193.70000000019,100742.155,100742.60000000056,100758.824,101208.735,,8,fulfilling
screen,html.Screen,2_1_0_1_9,2022-05-12T10:50:42.630Z,,,,,,,,,,,,,,,,,53,,,,,,,,,,,,,,326.7649999999994,,response,,,,99,,,,,,,Space,keypress(Space),,,,,,,,"---- -- ----- -- ------ - ------- --- ----------<br>relationship, ------ ------ ---- ---- ------- ----- -- ----<br>-------- ------- -- ---------- --- - --- ----- ----- ----<br>---- --- --- ----- --- ---- ---- ------- ----- ---- -------<br>--- --- -- ----- -- --- ---- -- --- ---- -- ------ ------<br>--- ----- -- ----",101536.5,101535.5,101191.996,101195,101208.735,101541.96,,9,"relationship,"
screen,html.Screen,2_1_0_1_10,2022-05-12T10:50:43.028Z,,,,,,,,,,,,,,,,,53,,,,,,,,,,,,,,391.74000000017986,,response,,,,99,,,,,,,Space,keypress(Space),,,,,,,,---- -- ----- -- ------ - ------- --- ----------<br>------------- common ------ ---- ---- ------- ----- -- ----<br>-------- ------- -- ---------- --- - --- ----- ----- ----<br>---- --- --- ----- --- ---- ---- ------- ----- ---- -------<br>--- --- -- ----- -- --- ---- -- --- ---- -- ------ ------<br>--- ----- -- ----,101935.10000000056,101933.70000000019,101525.266,101536.70000000019,101541.96,101941.872,,10,common
screen,html.Screen,2_1_0_1_11,2022-05-12T10:50:43.403Z,,,,,,,,,,,,,,,,,53,,,,,,,,,,,,,,367.22800000055577,,response,,,,99,,,,,,,Space,keypress(Space),,,,,,,,---- -- ----- -- ------ - ------- --- ----------<br>------------- ------ wisdom ---- ---- ------- ----- -- ----<br>-------- ------- -- ---------- --- - --- ----- ----- ----<br>---- --- --- ----- --- ---- ---- ------- ----- ---- -------<br>--- --- -- ----- -- --- ---- -- --- ---- -- ------ ------<br>--- ----- -- ----,102310.10000000056,102309.10000000056,101925.344,101935.40000000037,101941.872,102325.271,,11,wisdom
screen,html.Screen,2_1_0_1_12,2022-05-12T10:50:43.837Z,,,,,,,,,,,,,,,,,53,,,,,,,,,,,,,,417.32900000056543,,response,,,,99,,,,,,,Space,keypress(Space),,,,,,,,---- -- ----- -- ------ - ------- --- ----------<br>------------- ------ ------ says ---- ------- ----- -- ----<br>-------- ------- -- ---------- --- - --- ----- ----- ----<br>---- --- --- ----- --- ---- ---- ------- ----- ---- -------<br>--- --- -- ----- -- --- ---- -- --- ---- -- ------ ------<br>--- ----- -- ----,102743.70000000019,102742.60000000056,102308.657,102310.30000000075,102325.271,102758.594,,12,says
screen,html.Screen,2_1_0_1_13,2022-05-12T10:50:44.152Z,,,,,,,,,,,,,,,,,53,,,,,,,,,,,,,,299.4060000000027,,response,,,,99,,,,,,,Space,keypress(Space),,,,,,,,---- -- ----- -- ------ - ------- --- ----------<br>------------- ------ ------ ---- that ------- ----- -- ----<br>-------- ------- -- ---------- --- - --- ----- ----- ----<br>---- --- --- ----- --- ---- ---- ------- ----- ---- -------<br>--- --- -- ----- -- --- ---- -- --- ---- -- ------ ------<br>--- ----- -- ----,103059.10000000056,103058,102741.934,102743.90000000037,102758.594,103075.079,,13,that
screen,html.Screen,2_1_0_1_14,2022-05-12T10:50:44.466Z,,,,,,,,,,,,,,,,,53,,,,,,,,,,,,,,297.3210000003746,,response,,,,99,,,,,,,Space,keypress(Space),,,,,,,,---- -- ----- -- ------ - ------- --- ----------<br>------------- ------ ------ ---- ---- feeling ----- -- ----<br>-------- ------- -- ---------- --- - --- ----- ----- ----<br>---- --- --- ----- --- ---- ---- ------- ----- ---- -------<br>--- --- -- ----- -- --- ---- -- --- ---- -- ------ ------<br>--- ----- -- ----,103373.40000000037,103372.40000000037,103058.515,103059.40000000037,103075.079,103391.757,,14,feeling
screen,html.Screen,2_1_0_1_15,2022-05-12T10:50:44.740Z,,,,,,,,,,,,,,,,,53,,,,,,,,,,,,,,254.44300000018848,,response,,,,99,,,,,,,Space,keypress(Space),,,,,,,,---- -- ----- -- ------ - ------- --- ----------<br>------------- ------ ------ ---- ---- ------- close -- ----<br>-------- ------- -- ---------- --- - --- ----- ----- ----<br>---- --- --- ----- --- ---- ---- ------- ----- ---- -------<br>--- --- -- ----- -- --- ---- -- --- ---- -- ------ ------<br>--- ----- -- ----,103647.10000000056,103646.20000000019,103375.189,103377.5,103391.757,103658.477,,15,close
screen,html.Screen,2_1_0_1_16,2022-05-12T10:50:45.000Z,,,,,,,,,,,,,,,,,53,,,,,,,,,,,,,,247.3230000007461,,response,,,,99,,,,,,,Space,keypress(Space),,,,,,,,---- -- ----- -- ------ - ------- --- ----------<br>------------- ------ ------ ---- ---- ------- ----- to ----<br>-------- ------- -- ---------- --- - --- ----- ----- ----<br>---- --- --- ----- --- ---- ---- ------- ----- ---- -------<br>--- --- -- ----- -- --- ---- -- --- ---- -- ------ ------<br>--- ----- -- ----,103906.90000000037,103905.80000000075,103641.791,103647.40000000037,103658.477,103959.819,,16,to
screen,html.Screen,2_1_0_1_17,2022-05-12T10:50:45.315Z,,,,,,,,,,,,,,,,,53,,,,,,,,,,,,,,260.78100000055565,,response,,,,99,,,,,,,Space,keypress(Space),,,,,,,,---- -- ----- -- ------ - ------- --- ----------<br>------------- ------ ------ ---- ---- ------- ----- -- your<br>-------- ------- -- ---------- --- - --- ----- ----- ----<br>---- --- --- ----- --- ---- ---- ------- ----- ---- -------<br>--- --- -- ----- -- --- ---- -- --- ---- -- ------ ------<br>--- ----- -- ----,104221.70000000019,104220.60000000056,103940.923,103907.10000000056,103959.819,104224.972,,17,your
screen,html.Screen,2_1_0_1_18,2022-05-12T10:50:45.557Z,,,,,,,,,,,,,,,,,53,,,,,,,,,,,,,,237.32800000075076,,response,,,,99,,,,,,,Space,keypress(Space),,,,,,,,---- -- ----- -- ------ - ------- --- ----------<br>------------- ------ ------ ---- ---- ------- ----- -- ----<br>romantic ------- -- ---------- --- - --- ----- ----- ----<br>---- --- --- ----- --- ---- ---- ------- ----- ---- -------<br>--- --- -- ----- -- --- ---- -- --- ---- -- ------ ------<br>--- ----- -- ----,104463.40000000037,104462.30000000075,104208.288,104222,104224.972,104474.985,,18,romantic
screen,html.Screen,2_1_0_1_19,2022-05-12T10:50:45.983Z,,,,,,,,,,,,,,,,,53,,,,,,,,,,,,,,414.1150000005582,,response,,,,99,,,,,,,Space,keypress(Space),,,,,,,,---- -- ----- -- ------ - ------- --- ----------<br>------------- ------ ------ ---- ---- ------- ----- -- ----<br>-------- partner -- ---------- --- - --- ----- ----- ----<br>---- --- --- ----- --- ---- ---- ------- ----- ---- -------<br>--- --- -- ----- -- --- ---- -- --- ---- -- ------ ------<br>--- ----- -- ----,104890,104889.10000000056,104458.395,104463.70000000019,104474.985,104910.611,,19,partner
screen,html.Screen,2_1_0_1_20,2022-05-12T10:50:46.290Z,,,,,,,,,,,,,,,,,53,,,,,,,,,,,,,,285.18900000074063,,response,,,,99,,,,,,,Space,keypress(Space),,,,,,,,---- -- ----- -- ------ - ------- --- ----------<br>------------- ------ ------ ---- ---- ------- ----- -- ----<br>-------- ------- is ---------- --- - --- ----- ----- ----<br>---- --- --- ----- --- ---- ---- ------- ----- ---- -------<br>--- --- -- ----- -- --- ---- -- --- ---- -- ------ ------<br>--- ----- -- ----,105196.80000000075,105195.80000000075,104875.048,104890.20000000019,104910.611,105208.289,,20,is
screen,html.Screen,2_1_0_1_21,2022-05-12T10:50:46.605Z,,,,,,,,,,,,,,,,,53,,,,,,,,,,,,,,303.1110000003682,,response,,,,99,,,,,,,Space,keypress(Space),,,,,,,,---- -- ----- -- ------ - ------- --- ----------<br>------------- ------ ------ ---- ---- ------- ----- -- ----<br>-------- ------- -- paramount. --- - --- ----- ----- ----<br>---- --- --- ----- --- ---- ---- ------- ----- ---- -------<br>--- --- -- ----- -- --- ---- -- --- ---- -- ------ ------<br>--- ----- -- ----,105512.40000000037,105511.40000000037,105191.545,105197,105208.289,105524.913,,21,paramount.
screen,html.Screen,2_1_0_1_22,2022-05-12T10:50:47.100Z,,,,,,,,,,,,,,,,,53,,,,,,,,,,,,,,481.48700000037206,,response,,,,99,,,,,,,Space,keypress(Space),,,,,,,,---- -- ----- -- ------ - ------- --- ----------<br>------------- ------ ------ ---- ---- ------- ----- -- ----<br>-------- ------- -- ---------- But - --- ----- ----- ----<br>---- --- --- ----- --- ---- ---- ------- ----- ---- -------<br>--- --- -- ----- -- --- ---- -- --- ---- -- ------ ------<br>--- ----- -- ----,106007.30000000075,106006.40000000037,105508.144,105512.60000000056,105524.913,106041.426,,22,But
screen,html.Screen,2_1_0_1_23,2022-05-12T10:50:47.432Z,,,,,,,,,,,,,,,,,53,,,,,,,,,,,,,,296.4740000003658,,response,,,,99,,,,,,,Space,keypress(Space),,,,,,,,---- -- ----- -- ------ - ------- --- ----------<br>------------- ------ ------ ---- ---- ------- ----- -- ----<br>-------- ------- -- ---------- --- a --- ----- ----- ----<br>---- --- --- ----- --- ---- ---- ------- ----- ---- -------<br>--- --- -- ----- -- --- ---- -- --- ---- -- ------ ------<br>--- ----- -- ----,106339,106337.90000000037,106024.858,106007.5,106041.426,106341.39,,23,a
screen,html.Screen,2_1_0_1_24,2022-05-12T10:50:47.790Z,,,,,,,,,,,,,,,,,53,,,,,,,,,,,,,,354.81000000018685,,response,,,,99,,,,,,,Space,keypress(Space),,,,,,,,---- -- ----- -- ------ - ------- --- ----------<br>------------- ------ ------ ---- ---- ------- ----- -- ----<br>-------- ------- -- ---------- --- - new ----- ----- ----<br>---- --- --- ----- --- ---- ---- ------- ----- ---- -------<br>--- --- -- ----- -- --- ---- -- --- ---- -- ------ ------<br>--- ----- -- ----,106697.20000000019,106696.20000000019,106324.83,106339.20000000019,106341.39,106708.053,,24,new
screen,html.Screen,2_1_0_1_25,2022-05-12T10:50:48.219Z,,,,,,,,,,,,,,,,,53,,,,,,,,,,,,,,416.5470000005589,,response,,,,99,,,,,,,Space,keypress(Space),,,,,,,,---- -- ----- -- ------ - ------- --- ----------<br>------------- ------ ------ ---- ---- ------- ----- -- ----<br>-------- ------- -- ---------- --- - --- study ----- ----<br>---- --- --- ----- --- ---- ---- ------- ----- ---- -------<br>--- --- -- ----- -- --- ---- -- --- ---- -- ------ ------<br>--- ----- -- ----,107125.60000000056,107124.60000000056,106691.361,106697.40000000037,106708.053,107141.293,,25,study
screen,html.Screen,2_1_0_1_26,2022-05-12T10:50:48.567Z,,,,,,,,,,,,,,,,,53,,,,,,,,,,,,,,332.2069999999949,,response,,,,99,,,,,,,Space,keypress(Space),,,,,,,,---- -- ----- -- ------ - ------- --- ----------<br>------------- ------ ------ ---- ---- ------- ----- -- ----<br>-------- ------- -- ---------- --- - --- ----- finds ----<br>---- --- --- ----- --- ---- ---- ------- ----- ---- -------<br>--- --- -- ----- -- --- ---- -- --- ---- -- ------ ------<br>--- ----- -- ----,107474.40000000037,107473.5,107124.674,107125.90000000037,107141.293,107491.379,,26,finds
screen,html.Screen,2_1_0_1_27,2022-05-12T10:50:48.897Z,,,,,,,,,,,,,,,,,53,,,,,,,,,,,,,,311.6209999999992,,response,,,,99,,,,,,,Space,keypress(Space),,,,,,,,---- -- ----- -- ------ - ------- --- ----------<br>------------- ------ ------ ---- ---- ------- ----- -- ----<br>-------- ------- -- ---------- --- - --- ----- ----- that<br>---- --- --- ----- --- ---- ---- ------- ----- ---- -------<br>--- --- -- ----- -- --- ---- -- --- ---- -- ------ ------<br>--- ----- -- ----,107804,107803,107474.602,107474.70000000019,107491.379,107807.873,,27,that
screen,html.Screen,2_1_0_1_28,2022-05-12T10:50:49.307Z,,,,,,,,,,,,,,,,,53,,,,,,,,,,,,,,404.9270000007382,,response,,,,99,,,,,,,Space,keypress(Space),,,,,,,,---- -- ----- -- ------ - ------- --- ----------<br>------------- ------ ------ ---- ---- ------- ----- -- ----<br>-------- ------- -- ---------- --- - --- ----- ----- ----<br>it's --- --- ----- --- ---- ---- ------- ----- ---- -------<br>--- --- -- ----- -- --- ---- -- --- ---- -- ------ ------<br>--- ----- -- ----,108213.80000000075,108212.80000000075,107791.345,107804.20000000019,107807.873,108224.617,,28,it's
screen,html.Screen,2_1_0_1_29,2022-05-12T10:50:49.651Z,,,,,,,,,,,,,,,,,53,,,,,,,,,,,,,,332.4830000005604,,response,,,,99,,,,,,,Space,keypress(Space),,,,,,,,---- -- ----- -- ------ - ------- --- ----------<br>------------- ------ ------ ---- ---- ------- ----- -- ----<br>-------- ------- -- ---------- --- - --- ----- ----- ----<br>---- not --- ----- --- ---- ---- ------- ----- ---- -------<br>--- --- -- ----- -- --- ---- -- --- ---- -- ------ ------<br>--- ----- -- ----,108558.10000000056,108557.10000000056,108207.974,108214,108224.617,108574.507,,29,not
screen,html.Screen,2_1_0_1_30,2022-05-12T10:50:49.953Z,,,,,,,,,,,,,,,,,53,,,,,,,,,,,,,,284.39300000037474,,response,,,,99,,,,,,,Space,keypress(Space),,,,,,,,---- -- ----- -- ------ - ------- --- ----------<br>------------- ------ ------ ---- ---- ------- ----- -- ----<br>-------- ------- -- ---------- --- - --- ----- ----- ----<br>---- --- how ----- --- ---- ---- ------- ----- ---- -------<br>--- --- -- ----- -- --- ---- -- --- ---- -- ------ ------<br>--- ----- -- ----,108859.70000000019,108858.90000000037,108557.912,108558.30000000075,108574.507,108874.57,,30,how
screen,html.Screen,2_1_0_1_31,2022-05-12T10:50:50.337Z,,,,,,,,,,,,,,,,,53,,,,,,,,,,,,,,368.6300000001793,,response,,,,99,,,,,,,Space,keypress(Space),,,,,,,,---- -- ----- -- ------ - ------- --- ----------<br>------------- ------ ------ ---- ---- ------- ----- -- ----<br>-------- ------- -- ---------- --- - --- ----- ----- ----<br>---- --- --- close --- ---- ---- ------- ----- ---- -------<br>--- --- -- ----- -- --- ---- -- --- ---- -- ------ ------<br>--- ----- -- ----,109244.10000000056,109243.20000000019,108857.888,108859.90000000037,108874.57,109257.848,,31,close
screen,html.Screen,2_1_0_1_32,2022-05-12T10:50:50.656Z,,,,,,,,,,,,,,,,,53,,,,,,,,,,,,,,304.8520000001881,,response,,,,99,,,,,,,Space,keypress(Space),,,,,,,,---- -- ----- -- ------ - ------- --- ----------<br>------------- ------ ------ ---- ---- ------- ----- -- ----<br>-------- ------- -- ---------- --- - --- ----- ----- ----<br>---- --- --- ----- you ---- ---- ------- ----- ---- -------<br>--- --- -- ----- -- --- ---- -- --- ---- -- ------ ------<br>--- ----- -- ----,109563.40000000037,109562.70000000019,109241.133,109244.30000000075,109257.848,109574.435,,32,you
screen,html.Screen,2_1_0_1_33,2022-05-12T10:50:50.947Z,,,,,,,,,,,,,,,,,53,,,,,,,,,,,,,,278.6650000005611,,response,,,,99,,,,,,,Space,keypress(Space),,,,,,,,---- -- ----- -- ------ - ------- --- ----------<br>------------- ------ ------ ---- ---- ------- ----- -- ----<br>-------- ------- -- ---------- --- - --- ----- ----- ----<br>---- --- --- ----- --- feel ---- ------- ----- ---- -------<br>--- --- -- ----- -- --- ---- -- --- ---- -- ------ ------<br>--- ----- -- ----,109854.10000000056,109853.10000000056,109557.794,109563.60000000056,109574.435,109857.619,,33,feel
screen,html.Screen,2_1_0_1_34,2022-05-12T10:50:51.265Z,,,,,,,,,,,,,,,,,53,,,,,,,,,,,,,,313.181000000739,,response,,,,99,,,,,,,Space,keypress(Space),,,,,,,,---- -- ----- -- ------ - ------- --- ----------<br>------------- ------ ------ ---- ---- ------- ----- -- ----<br>-------- ------- -- ---------- --- - --- ----- ----- ----<br>---- --- --- ----- --- ---- that ------- ----- ---- -------<br>--- --- -- ----- -- --- ---- -- --- ---- -- ------ ------<br>--- ----- -- ----,110171.70000000019,110170.80000000075,109841.089,109854.40000000037,109857.619,110174.256,,34,that
screen,html.Screen,2_1_0_1_35,2022-05-12T10:50:51.698Z,,,,,,,,,,,,,,,,,53,,,,,,,,,,,,,,430.1440000003786,,response,,,,99,,,,,,,Space,keypress(Space),,,,,,,,---- -- ----- -- ------ - ------- --- ----------<br>------------- ------ ------ ---- ---- ------- ----- -- ----<br>-------- ------- -- ---------- --- - --- ----- ----- ----<br>---- --- --- ----- --- ---- ---- matters ----- ---- -------<br>--- --- -- ----- -- --- ---- -- --- ---- -- ------ ------<br>--- ----- -- ----,110605.40000000037,110604.40000000037,110157.766,110171.90000000037,110174.256,110607.555,,35,matters
screen,html.Screen,2_1_0_1_36,2022-05-12T10:50:52.009Z,,,,,,,,,,,,,,,,,53,,,,,,,,,,,,,,307.445000000007,,response,,,,99,,,,,,,Space,keypress(Space),,,,,,,,"---- -- ----- -- ------ - ------- --- ----------<br>------------- ------ ------ ---- ---- ------- ----- -- ----<br>-------- ------- -- ---------- --- - --- ----- ----- ----<br>---- --- --- ----- --- ---- ---- ------- most, ---- -------<br>--- --- -- ----- -- --- ---- -- --- ---- -- ------ ------<br>--- ----- -- ----",110916,110915,110591.057,110605.60000000056,110607.555,110924.144,,36,"most,"
screen,html.Screen,2_1_0_1_37,2022-05-12T10:50:52.494Z,,,,,,,,,,,,,,,,,53,,,,,,,,,,,,,,475.7560000003723,,response,,,,99,,,,,,,Space,keypress(Space),,,,,,,,---- -- ----- -- ------ - ------- --- ----------<br>------------- ------ ------ ---- ---- ------- ----- -- ----<br>-------- ------- -- ---------- --- - --- ----- ----- ----<br>---- --- --- ----- --- ---- ---- ------- ----- it's -------<br>--- --- -- ----- -- --- ---- -- --- ---- -- ------ ------<br>--- ----- -- ----,111400.90000000037,111399.90000000037,110907.673,110916.30000000075,110924.144,111407.474,,37,it's
screen,html.Screen,2_1_0_1_38,2022-05-12T10:50:52.818Z,,,,,,,,,,,,,,,,,53,,,,,,,,,,,,,,316.025999999998,,response,,,,99,,,,,,,Space,keypress(Space),,,,,,,,---- -- ----- -- ------ - ------- --- ----------<br>------------- ------ ------ ---- ---- ------- ----- -- ----<br>-------- ------- -- ---------- --- - --- ----- ----- ----<br>---- --- --- ----- --- ---- ---- ------- ----- ---- whether<br>--- --- -- ----- -- --- ---- -- --- ---- -- ------ ------<br>--- ----- -- ----,111724.5,111723.5,111390.933,111401.10000000056,111407.474,111740.902,,38,whether
screen,html.Screen,2_1_0_1_39,2022-05-12T10:50:53.133Z,,,,,,,,,,,,,,,,,53,,,,,,,,,,,,,,297.8980000007432,,response,,,,99,,,,,,,Space,keypress(Space),,,,,,,,---- -- ----- -- ------ - ------- --- ----------<br>------------- ------ ------ ---- ---- ------- ----- -- ----<br>-------- ------- -- ---------- --- - --- ----- ----- ----<br>---- --- --- ----- --- ---- ---- ------- ----- ---- -------<br>you --- -- ----- -- --- ---- -- --- ---- -- ------ ------<br>--- ----- -- ----,112039.70000000019,112038.80000000075,111724.235,111724.70000000019,111740.902,112061.362,,39,you
screen,html.Screen,2_1_0_1_40,2022-05-12T10:50:53.495Z,,,,,,,,,,,,,,,,,53,,,,,,,,,,,,,,339.33800000019255,,response,,,,99,,,,,,,Space,keypress(Space),,,,,,,,---- -- ----- -- ------ - ------- --- ----------<br>------------- ------ ------ ---- ---- ------- ----- -- ----<br>-------- ------- -- ---------- --- - --- ----- ----- ----<br>---- --- --- ----- --- ---- ---- ------- ----- ---- -------<br>--- are -- ----- -- --- ---- -- --- ---- -- ------ ------<br>--- ----- -- ----,112401.70000000019,112400.70000000019,112024.187,112039.90000000037,112061.362,112407.328,,40,are
screen,html.Screen,2_1_0_1_41,2022-05-12T10:50:53.809Z,,,,,,,,,,,,,,,,,53,,,,,,,,,,,,,,307.17200000000594,,response,,,,99,,,,,,,Space,keypress(Space),,,,,,,,---- -- ----- -- ------ - ------- --- ----------<br>------------- ------ ------ ---- ---- ------- ----- -- ----<br>-------- ------- -- ---------- --- - --- ----- ----- ----<br>---- --- --- ----- --- ---- ---- ------- ----- ---- -------<br>--- --- as ----- -- --- ---- -- --- ---- -- ------ ------<br>--- ----- -- ----,112715.5,112714.5,112390.83,112402,112407.328,112723.919,,41,as
screen,html.Screen,2_1_0_1_42,2022-05-12T10:50:54.165Z,,,,,,,,,,,,,,,,,53,,,,,,,,,,,,,,346.9810000003781,,response,,,,99,,,,,,,Space,keypress(Space),,,,,,,,---- -- ----- -- ------ - ------- --- ----------<br>------------- ------ ------ ---- ---- ------- ----- -- ----<br>-------- ------- -- ---------- --- - --- ----- ----- ----<br>---- --- --- ----- --- ---- ---- ------- ----- ---- -------<br>--- --- -- close -- --- ---- -- --- ---- -- ------ ------<br>--- ----- -- ----,113071.90000000037,113070.90000000037,112707.631,112715.60000000056,112723.919,113073.866,,42,close
screen,html.Screen,2_1_0_1_43,2022-05-12T10:50:54.510Z,,,,,,,,,,,,,,,,,53,,,,,,,,,,,,,,342.23400000056427,,response,,,,99,,,,,,,Space,keypress(Space),,,,,,,,---- -- ----- -- ------ - ------- --- ----------<br>------------- ------ ------ ---- ---- ------- ----- -- ----<br>-------- ------- -- ---------- --- - --- ----- ----- ----<br>---- --- --- ----- --- ---- ---- ------- ----- ---- -------<br>--- --- -- ----- as --- ---- -- --- ---- -- ------ ------<br>--- ----- -- ----,113417.10000000056,113416.10000000056,113057.402,113072.10000000056,113073.866,113423.897,,43,as
screen,html.Screen,2_1_0_1_44,2022-05-12T10:50:54.878Z,,,,,,,,,,,,,,,,,53,,,,,,,,,,,,,,360.1030000000028,,response,,,,99,,,,,,,Space,keypress(Space),,,,,,,,---- -- ----- -- ------ - ------- --- ----------<br>------------- ------ ------ ---- ---- ------- ----- -- ----<br>-------- ------- -- ---------- --- - --- ----- ----- ----<br>---- --- --- ----- --- ---- ---- ------- ----- ---- -------<br>--- --- -- ----- -- you ---- -- --- ---- -- ------ ------<br>--- ----- -- ----,113784.90000000037,113784,113407.399,113417.30000000075,113423.897,113790.532,,44,you
screen,html.Screen,2_1_0_1_45,2022-05-12T10:50:55.192Z,,,,,,,,,,,,,,,,,53,,,,,,,,,,,,,,307.76800000073854,,response,,,,99,,,,,,,Space,keypress(Space),,,,,,,,---- -- ----- -- ------ - ------- --- ----------<br>------------- ------ ------ ---- ---- ------- ----- -- ----<br>-------- ------- -- ---------- --- - --- ----- ----- ----<br>---- --- --- ----- --- ---- ---- ------- ----- ---- -------<br>--- --- -- ----- -- --- want -- --- ---- -- ------ ------<br>--- ----- -- ----,114099.10000000056,114098.30000000075,113774.015,113785.10000000056,113790.532,114107.136,,45,want
screen,html.Screen,2_1_0_1_46,2022-05-12T10:50:55.534Z,,,,,,,,,,,,,,,,,53,,,,,,,,,,,,,,333.06400000018766,,response,,,,99,,,,,,,Space,keypress(Space),,,,,,,,---- -- ----- -- ------ - ------- --- ----------<br>------------- ------ ------ ---- ---- ------- ----- -- ----<br>-------- ------- -- ---------- --- - --- ----- ----- ----<br>---- --- --- ----- --- ---- ---- ------- ----- ---- -------<br>--- --- -- ----- -- --- ---- to --- ---- -- ------ ------<br>--- ----- -- ----,114441.40000000037,114440.20000000019,114090.635,114099.30000000075,114107.136,114457.244,,46,to
screen,html.Screen,2_1_0_1_47,2022-05-12T10:50:55.854Z,,,,,,,,,,,,,,,,,53,,,,,,,,,,,,,,301.25599999999395,,response,,,,99,,,,,,,Space,keypress(Space),,,,,,,,"---- -- ----- -- ------ - ------- --- ----------<br>------------- ------ ------ ---- ---- ------- ----- -- ----<br>-------- ------- -- ---------- --- - --- ----- ----- ----<br>---- --- --- ----- --- ---- ---- ------- ----- ---- -------<br>--- --- -- ----- -- --- ---- -- be, ---- -- ------ ------<br>--- ----- -- ----",114761,114758.5,114440.586,114441.70000000019,114457.244,114773.904,,47,"be,"
screen,html.Screen,2_1_0_1_48,2022-05-12T10:50:56.168Z,,,,,,,,,,,,,,,,,53,,,,,,,,,,,,,,300.096000000005,,response,,,,99,,,,,,,Space,keypress(Space),,,,,,,,---- -- ----- -- ------ - ------- --- ----------<br>------------- ------ ------ ---- ---- ------- ----- -- ----<br>-------- ------- -- ---------- --- - --- ----- ----- ----<br>---- --- --- ----- --- ---- ---- ------- ----- ---- -------<br>--- --- -- ----- -- --- ---- -- --- even -- ------ ------<br>--- ----- -- ----,115075,115074,114757.208,114761.40000000037,114773.904,115090.332,,48,even
screen,html.Screen,2_1_0_1_49,2022-05-12T10:50:56.485Z,,,,,,,,,,,,,,,,,53,,,,,,,,,,,,,,300.9680000007502,,response,,,,99,,,,,,,Space,keypress(Space),,,,,,,,---- -- ----- -- ------ - ------- --- ----------<br>------------- ------ ------ ---- ---- ------- ----- -- ----<br>-------- ------- -- ---------- --- - --- ----- ----- ----<br>---- --- --- ----- --- ---- ---- ------- ----- ---- -------<br>--- --- -- ----- -- --- ---- -- --- ---- if ------ ------<br>--- ----- -- ----,115392.30000000075,115391.30000000075,115073.842,115075.10000000056,115090.332,115407.132,,49,if
screen,html.Screen,2_1_0_1_50,2022-05-12T10:50:56.803Z,,,,,,,,,,,,,,,,,53,,,,,,,,,,,,,,301.66800000074727,,response,,,,99,,,,,,,Space,keypress(Space),,,,,,,,---- -- ----- -- ------ - ------- --- ----------<br>------------- ------ ------ ---- ---- ------- ----- -- ----<br>-------- ------- -- ---------- --- - --- ----- ----- ----<br>---- --- --- ----- --- ---- ---- ------- ----- ---- -------<br>--- --- -- ----- -- --- ---- -- --- ---- -- that's ------<br>--- ----- -- ----,115709.80000000075,115708.80000000075,115390.493,115392.5,115407.132,115723.762,,50,that's
screen,html.Screen,2_1_0_1_51,2022-05-12T10:50:57.144Z,,,,,,,,,,,,,,,,,53,,,,,,,,,,,,,,326.6380000003701,,response,,,,99,,,,,,,Space,keypress(Space),,,,,,,,---- -- ----- -- ------ - ------- --- ----------<br>------------- ------ ------ ---- ---- ------- ----- -- ----<br>-------- ------- -- ---------- --- - --- ----- ----- ----<br>---- --- --- ----- --- ---- ---- ------- ----- ---- -------<br>--- --- -- ----- -- --- ---- -- --- ---- -- ------ really<br>--- ----- -- ----,116051.40000000037,116050.40000000037,115707.101,115710,115723.762,116056.913,,51,really
screen,html.Screen,2_1_0_1_52,2022-05-12T10:50:57.495Z,,,,,,,,,,,,,,,,,53,,,,,,,,,,,,,,343.8870000007446,,response,,,,99,,,,,,,Space,keypress(Space),,,,,,,,---- -- ----- -- ------ - ------- --- ----------<br>------------- ------ ------ ---- ---- ------- ----- -- ----<br>-------- ------- -- ---------- --- - --- ----- ----- ----<br>---- --- --- ----- --- ---- ---- ------- ----- ---- -------<br>--- --- -- ----- -- --- ---- -- --- ---- -- ------ ------<br>not ----- -- ----,116401.70000000019,116400.80000000075,116040.416,116051.60000000056,116056.913,116406.804,,52,not
screen,html.Screen,2_1_0_1_53,2022-05-12T10:50:57.820Z,,,,,,,,,,,,,,,,,53,,,,,,,,,,,,,,319.5960000003688,,response,,,,99,,,,,,,Space,keypress(Space),,,,,,,,---- -- ----- -- ------ - ------- --- ----------<br>------------- ------ ------ ---- ---- ------- ----- -- ----<br>-------- ------- -- ---------- --- - --- ----- ----- ----<br>---- --- --- ----- --- ---- ---- ------- ----- ---- -------<br>--- --- -- ----- -- --- ---- -- --- ---- -- ------ ------<br>--- close -- ----,116727.30000000075,116726.40000000037,116390.268,116402,116406.804,116740.304,,53,close
screen,html.Screen,2_1_0_1_54,2022-05-12T10:50:58.118Z,,,,,,,,,,,,,,,,,53,,,,,,,,,,,,,,283.49600000074133,,response,,,,99,,,,,,,Space,keypress(Space),,,,,,,,---- -- ----- -- ------ - ------- --- ----------<br>------------- ------ ------ ---- ---- ------- ----- -- ----<br>-------- ------- -- ---------- --- - --- ----- ----- ----<br>---- --- --- ----- --- ---- ---- ------- ----- ---- -------<br>--- --- -- ----- -- --- ---- -- --- ---- -- ------ ------<br>--- ----- at ----,117024.90000000037,117023.80000000075,116723.671,116727.60000000056,116740.304,117040.284,,54,at
screen,html.Screen,2_1_0_1_55,2022-05-12T10:50:58.403Z,,,,,,,,,,,,,,,,,53,,,,,,,,,,,,,,268.71600000000035,,response,,,,99,,,,,,,Space,keypress(Space),,,,,,,,---- -- ----- -- ------ - ------- --- ----------<br>------------- ------ ------ ---- ---- ------- ----- -- ----<br>-------- ------- -- ---------- --- - --- ----- ----- ----<br>---- --- --- ----- --- ---- ---- ------- ----- ---- -------<br>--- --- -- ----- -- --- ---- -- --- ---- -- ------ ------<br>--- ----- -- all.,117309.80000000075,117309,117023.599,117025.10000000056,117040.284,117323.477,,55,all.
Item 99,flow.Loop,2_1_0_1,2022-05-12T10:50:58.403Z,,,,,,,,,,,,,,,,,,,,,,,,,,,,,,,20149.937000000005,,completion,,,,,D,,,,,,,,,,,silence,,,,,117310.30000000075,117309,97092.405,97093.70000000019,97159.063,117323.477,,,
Question 1,html.Screen,2_1_0_2,2022-05-12T10:51:02.252Z,,,,,,,,,,,,,,,,,,,,,,,,,,,,true,FALSE,,3834.023000000001,,response,,,,99,D,,,,,,FALSE,click #choice-2,,,,silence,,,,,121158.5,121157.5,117306.905,117310.5,117323.477,121173.092,,,
Question 2,html.Screen,2_1_0_3,2022-05-12T10:51:08.729Z,,,,,,,,,,,,,,,,,,,,,,,,,,,,true,TRUE,,6461.508000000555,,response,,,,99,D,,,,,,TRUE,click #choice-1,,,,silence,,,,,127635.60000000056,127634.60000000056,121156.496,121158.70000000019,121173.092,127638.86,,,
Item 99,flow.Sequence,2_1_0,2022-05-12T10:51:08.729Z,,,,,,,,,,,,,,,,,,,,,,,,,,,,,,,40524.281000000556,,completion,,,,,,,,,,,,,,,,,,,,,127635.70000000019,127634.60000000056,87093.586,87095.40000000037,87110.319,127638.86,,,
Holding screen,html.Screen,2_1_1_0,2022-05-12T10:51:18.715Z,,,,,,,,,,,,,,,,,,,,,,,,,,,,,,,9999.044000000009,,timeout,,,,,,,,,,,,,,,,,,,,,137622.5,137621.233,127622.406,127635.90000000037,127638.86,137637.904,,,
screen,html.Screen,2_1_1_1_0,2022-05-12T10:51:20.132Z,,,,,,,,,,,,,,,,,54,,,,,,,,,,,,,,1400.6960000005492,,response,,,,100,,,,,,,Space,keypress(Space),,,,,,,,At --- ---- --- ------ ----- ------- ---- -- --- ------- --<br>------- ---------- ------ -- ----- -- ----- -- ---- ------<br>--- ----- --- --- ------ -------- ----- --- ------ ----- --<br>----- ----- ---------- --- --- ------ ------ ---- -- ------<br>------- --- ------ ----- --- ---- ------- -- ---- --- --<br>------- ------,139039.40000000037,139038.60000000056,137621.233,137622.7000000002,137637.904,139054.41,,0,At
screen,html.Screen,2_1_1_1_1,2022-05-12T10:51:20.442Z,,,,,,,,,,,,,,,,,54,,,,,,,,,,,,,,293.49000000036904,,response,,,,100,,,,,,,Space,keypress(Space),,,,,,,,-- the ---- --- ------ ----- ------- ---- -- --- ------- --<br>------- ---------- ------ -- ----- -- ----- -- ---- ------<br>--- ----- --- --- ------ -------- ----- --- ------ ----- --<br>----- ----- ---------- --- --- ------ ------ ---- -- ------<br>------- --- ------ ----- --- ---- ------- -- ---- --- --<br>------- ------,139348.90000000037,139347.90000000037,139037.851,139039.60000000056,139054.41,139354.263,,1,the
screen,html.Screen,2_1_1_1_2,2022-05-12T10:51:20.692Z,,,,,,,,,,,,,,,,,54,,,,,,,,,,,,,,244.13700000036624,,response,,,,100,,,,,,,Space,keypress(Space),,,,,,,,-- --- time --- ------ ----- ------- ---- -- --- ------- --<br>------- ---------- ------ -- ----- -- ----- -- ---- ------<br>--- ----- --- --- ------ -------- ----- --- ------ ----- --<br>----- ----- ---------- --- --- ------ ------ ---- -- ------<br>------- --- ------ ----- --- ---- ------- -- ---- --- --<br>------- ------,139599.30000000075,139598.40000000037,139337.575,139349.10000000056,139354.263,139604.165,,2,time
screen,html.Screen,2_1_1_1_3,2022-05-12T10:51:20.975Z,,,,,,,,,,,,,,,,,54,,,,,,,,,,,,,,277.0350000001781,,response,,,,100,,,,,,,Space,keypress(Space),,,,,,,,-- --- ---- the ------ ----- ------- ---- -- --- ------- --<br>------- ---------- ------ -- ----- -- ----- -- ---- ------<br>--- ----- --- --- ------ -------- ----- --- ------ ----- --<br>----- ----- ---------- --- --- ------ ------ ---- -- ------<br>------- --- ------ ----- --- ---- ------- -- ---- --- --<br>------- ------,139882.2000000002,139881.2000000002,139587.7,139599.60000000056,139604.165,139887.492,,3,the
screen,html.Screen,2_1_1_1_4,2022-05-12T10:51:21.250Z,,,,,,,,,,,,,,,,,54,,,,,,,,,,,,,,268.90800000037416,,response,,,,100,,,,,,,Space,keypress(Space),,,,,,,,-- --- ---- --- French ----- ------- ---- -- --- ------- --<br>------- ---------- ------ -- ----- -- ----- -- ---- ------<br>--- ----- --- --- ------ -------- ----- --- ------ ----- --<br>----- ----- ---------- --- --- ------ ------ ---- -- ------<br>------- --- ------ ----- --- ---- ------- -- ---- --- --<br>------- ------,140157.30000000075,140156.40000000037,139870.981,139882.30000000075,139887.492,140170.944,,4,French
screen,html.Screen,2_1_1_1_5,2022-05-12T10:51:21.550Z,,,,,,,,,,,,,,,,,54,,,,,,,,,,,,,,285.1560000005702,,response,,,,100,,,,,,,Space,keypress(Space),,,,,,,,-- --- ---- --- ------ crown ------- ---- -- --- ------- --<br>------- ---------- ------ -- ----- -- ----- -- ---- ------<br>--- ----- --- --- ------ -------- ----- --- ------ ----- --<br>----- ----- ---------- --- --- ------ ------ ---- -- ------<br>------- --- ------ ----- --- ---- ------- -- ---- --- --<br>------- ------,140457.10000000056,140456.10000000056,140154.305,140157.5,140170.944,140470.892,,5,crown
screen,html.Screen,2_1_1_1_6,2022-05-12T10:51:21.900Z,,,,,,,,,,,,,,,,,54,,,,,,,,,,,,,,334.9080000007525,,response,,,,100,,,,,,,Space,keypress(Space),,,,,,,,-- --- ---- --- ------ ----- secured ---- -- --- ------- --<br>------- ---------- ------ -- ----- -- ----- -- ---- ------<br>--- ----- --- --- ------ -------- ----- --- ------ ----- --<br>----- ----- ---------- --- --- ------ ------ ---- -- ------<br>------- --- ------ ----- --- ---- ------- -- ---- --- --<br>------- ------,140806.80000000075,140805.80000000075,140454.251,140457.30000000075,140470.892,140820.933,,6,secured
screen,html.Screen,2_1_1_1_7,2022-05-12T10:51:22.231Z,,,,,,,,,,,,,,,,,54,,,,,,,,,,,,,,316.56700000001,,response,,,,100,,,,,,,Space,keypress(Space),,,,,,,,-- --- ---- --- ------ ----- ------- much -- --- ------- --<br>------- ---------- ------ -- ----- -- ----- -- ---- ------<br>--- ----- --- --- ------ -------- ----- --- ------ ----- --<br>----- ----- ---------- --- --- ------ ------ ---- -- ------<br>------- --- ------ ----- --- ---- ------- -- ---- --- --<br>------- ------,141138.40000000037,141137.5,140804.194,140807,140820.933,141154.185,,7,much
screen,html.Screen,2_1_1_1_8,2022-05-12T10:51:22.529Z,,,,,,,,,,,,,,,,,54,,,,,,,,,,,,,,281.0150000001886,,response,,,,100,,,,,,,Space,keypress(Space),,,,,,,,-- --- ---- --- ------ ----- ------- ---- of --- ------- --<br>------- ---------- ------ -- ----- -- ----- -- ---- ------<br>--- ----- --- --- ------ -------- ----- --- ------ ----- --<br>----- ----- ---------- --- --- ------ ------ ---- -- ------<br>------- --- ------ ----- --- ---- ------- -- ---- --- --<br>------- ------,141436.2000000002,141435.2000000002,141137.51,141138.60000000056,141154.185,141468.799,,8,of
screen,html.Screen,2_1_1_1_9,2022-05-12T10:51:22.804Z,,,,,,,,,,,,,,,,,54,,,,,,,,,,,,,,241.501000000746,,response,,,,100,,,,,,,Space,keypress(Space),,,,,,,,-- --- ---- --- ------ ----- ------- ---- -- its ------- --<br>------- ---------- ------ -- ----- -- ----- -- ---- ------<br>--- ----- --- --- ------ -------- ----- --- ------ ----- --<br>----- ----- ---------- --- --- ------ ------ ---- -- ------<br>------- --- ------ ----- --- ---- ------- -- ---- --- --<br>------- ------,141711.2000000002,141710.30000000075,141420.801,141436.40000000037,141468.799,141720.755,,9,its
screen,html.Screen,2_1_1_1_10,2022-05-12T10:51:23.091Z,,,,,,,,,,,,,,,,,54,,,,,,,,,,,,,,275.84500000055414,,response,,,,100,,,,,,,Space,keypress(Space),,,,,,,,-- --- ---- --- ------ ----- ------- ---- -- --- revenue --<br>------- ---------- ------ -- ----- -- ----- -- ---- ------<br>--- ----- --- --- ------ -------- ----- --- ------ ----- --<br>----- ----- ---------- --- --- ------ ------ ---- -- ------<br>------- --- ------ ----- --- ---- ------- -- ---- --- --<br>------- ------,141997.5,141996.60000000056,141704.125,141711.40000000037,141720.755,142003.955,,10,revenue
screen,html.Screen,2_1_1_1_11,2022-05-12T10:51:23.408Z,,,,,,,,,,,,,,,,,54,,,,,,,,,,,,,,309.84500000075786,,response,,,,100,,,,,,,Space,keypress(Space),,,,,,,,-- --- ---- --- ------ ----- ------- ---- -- --- ------- by<br>------- ---------- ------ -- ----- -- ----- -- ---- ------<br>--- ----- --- --- ------ -------- ----- --- ------ ----- --<br>----- ----- ---------- --- --- ------ ------ ---- -- ------<br>------- --- ------ ----- --- ---- ------- -- ---- --- --<br>------- ------,142314.60000000056,142313.80000000075,141987.407,141997.7000000002,142003.955,142320.593,,11,by
screen,html.Screen,2_1_1_1_12,2022-05-12T10:51:23.738Z,,,,,,,,,,,,,,,,,54,,,,,,,,,,,,,,323.0070000005653,,response,,,,100,,,,,,,Space,keypress(Space),,,,,,,,-- --- ---- --- ------ ----- ------- ---- -- --- ------- --<br>issuing ---------- ------ -- ----- -- ----- -- ---- ------<br>--- ----- --- --- ------ -------- ----- --- ------ ----- --<br>----- ----- ---------- --- --- ------ ------ ---- -- ------<br>------- --- ------ ----- --- ---- ------- -- ---- --- --<br>------- ------,142644.60000000056,142643.60000000056,142304.077,142314.90000000037,142320.593,142653.935,,12,issuing
screen,html.Screen,2_1_1_1_13,2022-05-12T10:51:24.033Z,,,,,,,,,,,,,,,,,54,,,,,,,,,,,,,,284.96500000037486,,response,,,,100,,,,,,,Space,keypress(Space),,,,,,,,-- --- ---- --- ------ ----- ------- ---- -- --- ------- --<br>------- government ------ -- ----- -- ----- -- ---- ------<br>--- ----- --- --- ------ -------- ----- --- ------ ----- --<br>----- ----- ---------- --- --- ------ ------ ---- -- ------<br>------- --- ------ ----- --- ---- ------- -- ---- --- --<br>------- ------,142939.90000000037,142938.90000000037,142637.356,142644.80000000075,142653.935,142953.963,,13,government
screen,html.Screen,2_1_1_1_14,2022-05-12T10:51:24.578Z,,,,,,,,,,,,,,,,,54,,,,,,,,,,,,,,529.63700000057,,response,,,,100,,,,,,,Space,keypress(Space),,,,,,,,-- --- ---- --- ------ ----- ------- ---- -- --- ------- --<br>------- ---------- bonds. -- ----- -- ----- -- ---- ------<br>--- ----- --- --- ------ -------- ----- --- ------ ----- --<br>----- ----- ---------- --- --- ------ ------ ---- -- ------<br>------- --- ------ ----- --- ---- ------- -- ---- --- --<br>------- ------,143484.60000000056,143483.60000000056,142937.303,142940.10000000056,142953.963,143487.078,,14,bonds.
screen,html.Screen,2_1_1_1_15,2022-05-12T10:51:25.005Z,,,,,,,,,,,,,,,,,54,,,,,,,,,,,,,,423.8220000003639,,response,,,,100,,,,,,,Space,keypress(Space),,,,,,,,-- --- ---- --- ------ ----- ------- ---- -- --- ------- --<br>------- ---------- ------ In ----- -- ----- -- ---- ------<br>--- ----- --- --- ------ -------- ----- --- ------ ----- --<br>----- ----- ---------- --- --- ------ ------ ---- -- ------<br>------- --- ------ ----- --- ---- ------- -- ---- --- --<br>------- ------,143911.80000000075,143910.90000000037,143470.591,143484.80000000075,143487.078,143920.406,,15,In
screen,html.Screen,2_1_1_1_16,2022-05-12T10:51:25.352Z,,,,,,,,,,,,,,,,,54,,,,,,,,,,,,,,337.39400000075693,,response,,,,100,,,,,,,Space,keypress(Space),,,,,,,,"-- --- ---- --- ------ ----- ------- ---- -- --- ------- --<br>------- ---------- ------ -- 1727, -- ----- -- ---- ------<br>--- ----- --- --- ------ -------- ----- --- ------ ----- --<br>----- ----- ---------- --- --- ------ ------ ---- -- ------<br>------- --- ------ ----- --- ---- ------- -- ---- --- --<br>------- ------",144258.80000000075,144257.80000000075,143903.89,143912,143920.406,144270.473,,16,"1727,"
screen,html.Screen,2_1_1_1_17,2022-05-12T10:51:26.525Z,,,,,,,,,,,,,,,,,54,,,,,,,,,,,,,,1161.0270000000019,,response,,,,100,,,,,,,Space,keypress(Space),,,,,,,,-- --- ---- --- ------ ----- ------- ---- -- --- ------- --<br>------- ---------- ------ -- ----- in ----- -- ---- ------<br>--- ----- --- --- ------ -------- ----- --- ------ ----- --<br>----- ----- ---------- --- --- ------ ------ ---- -- ------<br>------- --- ------ ----- --- ---- ------- -- ---- --- --<br>------- ------,145432.40000000037,145431.5,144253.766,144259.10000000056,144270.473,145436.847,,17,in
screen,html.Screen,2_1_1_1_18,2022-05-12T10:51:27.089Z,,,,,,,,,,,,,,,,,54,,,,,,,,,,,,,,558.1529999999912,,response,,,,100,,,,,,,Space,keypress(Space),,,,,,,,-- --- ---- --- ------ ----- ------- ---- -- --- ------- --<br>------- ---------- ------ -- ----- -- order -- ---- ------<br>--- ----- --- --- ------ -------- ----- --- ------ ----- --<br>----- ----- ---------- --- --- ------ ------ ---- -- ------<br>------- --- ------ ----- --- ---- ------- -- ---- --- --<br>------- ------,145995.80000000075,145995,145420.434,145432.7000000002,145436.847,146003.495,,18,order
screen,html.Screen,2_1_1_1_19,2022-05-12T10:51:27.342Z,,,,,,,,,,,,,,,,,54,,,,,,,,,,,,,,244.50500000000466,,response,,,,100,,,,,,,Space,keypress(Space),,,,,,,,-- --- ---- --- ------ ----- ------- ---- -- --- ------- --<br>------- ---------- ------ -- ----- -- ----- to ---- ------<br>--- ----- --- --- ------ -------- ----- --- ------ ----- --<br>----- ----- ---------- --- --- ------ ------ ---- -- ------<br>------- --- ------ ----- --- ---- ------- -- ---- --- --<br>------- ------,146248.90000000037,146248,145986.977,145996.10000000056,146003.495,146253.452,,19,to
screen,html.Screen,2_1_1_1_20,2022-05-12T10:51:27.564Z,,,,,,,,,,,,,,,,,54,,,,,,,,,,,,,,216.9480000003823,,response,,,,100,,,,,,,Space,keypress(Space),,,,,,,,-- --- ---- --- ------ ----- ------- ---- -- --- ------- --<br>------- ---------- ------ -- ----- -- ----- -- save ------<br>--- ----- --- --- ------ -------- ----- --- ------ ----- --<br>----- ----- ---------- --- --- ------ ------ ---- -- ------<br>------- --- ------ ----- --- ---- ------- -- ---- --- --<br>------- ------,146471.40000000037,146470.40000000037,146236.949,146249.2000000002,146253.452,146486.905,,20,save
screen,html.Screen,2_1_1_1_21,2022-05-12T10:51:27.929Z,,,,,,,,,,,,,,,,,54,,,,,,,,,,,,,,347.59500000000116,,response,,,,100,,,,,,,Space,keypress(Space),,,,,,,,"-- --- ---- --- ------ ----- ------- ---- -- --- ------- --<br>------- ---------- ------ -- ----- -- ----- -- ---- money,<br>--- ----- --- --- ------ -------- ----- --- ------ ----- --<br>----- ----- ---------- --- --- ------ ------ ---- -- ------<br>------- --- ------ ----- --- ---- ------- -- ---- --- --<br>------- ------",146835.60000000056,146834.5,146470.227,146471.7000000002,146486.905,146856.386,,21,"money,"
screen,html.Screen,2_1_1_1_22,2022-05-12T10:51:28.292Z,,,,,,,,,,,,,,,,,54,,,,,,,,,,,,,,339.5140000003739,,response,,,,100,,,,,,,Space,keypress(Space),,,,,,,,-- --- ---- --- ------ ----- ------- ---- -- --- ------- --<br>------- ---------- ------ -- ----- -- ----- -- ---- ------<br>the ----- --- --- ------ -------- ----- --- ------ ----- --<br>----- ----- ---------- --- --- ------ ------ ---- -- ------<br>------- --- ------ ----- --- ---- ------- -- ---- --- --<br>------- ------,147198.60000000056,147195.90000000037,146820.184,146835.80000000075,146856.386,147203.329,,22,the
screen,html.Screen,2_1_1_1_23,2022-05-12T10:51:28.640Z,,,,,,,,,,,,,,,,,54,,,,,,,,,,,,,,342.97100000074715,,response,,,,100,,,,,,,Space,keypress(Space),,,,,,,,-- --- ---- --- ------ ----- ------- ---- -- --- ------- --<br>------- ---------- ------ -- ----- -- ----- -- ---- ------<br>--- state --- --- ------ -------- ----- --- ------ ----- --<br>----- ----- ---------- --- --- ------ ------ ---- -- ------<br>------- --- ------ ----- --- ---- ------- -- ---- --- --<br>------- ------,147547.30000000075,147546.30000000075,147186.837,147199,147203.329,147553.325,,23,state
screen,html.Screen,2_1_1_1_24,2022-05-12T10:51:28.999Z,,,,,,,,,,,,,,,,,54,,,,,,,,,,,,,,351.5750000003609,,response,,,,100,,,,,,,Space,keypress(Space),,,,,,,,-- --- ---- --- ------ ----- ------- ---- -- --- ------- --<br>------- ---------- ------ -- ----- -- ----- -- ---- ------<br>--- ----- cut --- ------ -------- ----- --- ------ ----- --<br>----- ----- ---------- --- --- ------ ------ ---- -- ------<br>------- --- ------ ----- --- ---- ------- -- ---- --- --<br>------- ------,147906,147904.90000000037,147536.795,147547.60000000056,147553.325,147920.062,,24,cut
screen,html.Screen,2_1_1_1_25,2022-05-12T10:51:29.315Z,,,,,,,,,,,,,,,,,54,,,,,,,,,,,,,,301.43799999999464,,response,,,,100,,,,,,,Space,keypress(Space),,,,,,,,-- --- ---- --- ------ ----- ------- ---- -- --- ------- --<br>------- ---------- ------ -- ----- -- ----- -- ---- ------<br>--- ----- --- the ------ -------- ----- --- ------ ----- --<br>----- ----- ---------- --- --- ------ ------ ---- -- ------<br>------- --- ------ ----- --- ---- ------- -- ---- --- --<br>------- ------,148222.30000000075,148221.5,147903.439,147906.2000000002,147920.062,148236.703,,25,the
screen,html.Screen,2_1_1_1_26,2022-05-12T10:51:29.643Z,,,,,,,,,,,,,,,,,54,,,,,,,,,,,,,,312.59700000073644,,response,,,,100,,,,,,,Space,keypress(Space),,,,,,,,-- --- ---- --- ------ ----- ------- ---- -- --- ------- --<br>------- ---------- ------ -- ----- -- ----- -- ---- ------<br>--- ----- --- --- bonds' -------- ----- --- ------ ----- --<br>----- ----- ---------- --- --- ------ ------ ---- -- ------<br>------- --- ------ ----- --- ---- ------- -- ---- --- --<br>------- ------,148550.40000000037,148549.30000000075,148220.017,148222.60000000056,148236.703,148553.186,,26,bonds'
screen,html.Screen,2_1_1_1_27,2022-05-12T10:51:29.997Z,,,,,,,,,,,,,,,,,54,,,,,,,,,,,,,,349.91400000057183,,response,,,,100,,,,,,,Space,keypress(Space),,,,,,,,-- --- ---- --- ------ ----- ------- ---- -- --- ------- --<br>------- ---------- ------ -- ----- -- ----- -- ---- ------<br>--- ----- --- --- ------ interest ----- --- ------ ----- --<br>----- ----- ---------- --- --- ------ ------ ---- -- ------<br>------- --- ------ ----- --- ---- ------- -- ---- --- --<br>------- ------,148904.2000000002,148903.10000000056,148536.644,148550.5,148553.186,148919.955,,27,interest
screen,html.Screen,2_1_1_1_28,2022-05-12T10:51:30.472Z,,,,,,,,,,,,,,,,,54,,,,,,,,,,,,,,458.1450000005716,,response,,,,100,,,,,,,Space,keypress(Space),,,,,,,,-- --- ---- --- ------ ----- ------- ---- -- --- ------- --<br>------- ---------- ------ -- ----- -- ----- -- ---- ------<br>--- ----- --- --- ------ -------- rate. --- ------ ----- --<br>----- ----- ---------- --- --- ------ ------ ---- -- ------<br>------- --- ------ ----- --- ---- ------- -- ---- --- --<br>------- ------,149379.2000000002,149378.10000000056,148903.315,148904.40000000037,148919.955,149386.353,,28,rate.
screen,html.Screen,2_1_1_1_29,2022-05-12T10:51:30.887Z,,,,,,,,,,,,,,,,,54,,,,,,,,,,,,,,406.747000000556,,response,,,,100,,,,,,,Space,keypress(Space),,,,,,,,-- --- ---- --- ------ ----- ------- ---- -- --- ------- --<br>------- ---------- ------ -- ----- -- ----- -- ---- ------<br>--- ----- --- --- ------ -------- ----- The ------ ----- --<br>----- ----- ---------- --- --- ------ ------ ---- -- ------<br>------- --- ------ ----- --- ---- ------- -- ---- --- --<br>------- ------,149794,149793.10000000056,149369.892,149379.40000000037,149386.353,149803.152,,29,The
screen,html.Screen,2_1_1_1_30,2022-05-12T10:51:31.174Z,,,,,,,,,,,,,,,,,54,,,,,,,,,,,,,,276.94800000055693,,response,,,,100,,,,,,,Space,keypress(Space),,,,,,,,-- --- ---- --- ------ ----- ------- ---- -- --- ------- --<br>------- ---------- ------ -- ----- -- ----- -- ---- ------<br>--- ----- --- --- ------ -------- ----- --- market ----- --<br>----- ----- ---------- --- --- ------ ------ ---- -- ------<br>------- --- ------ ----- --- ---- ------- -- ---- --- --<br>------- ------,150081,150080.10000000056,149786.538,149794.2000000002,149803.152,150086.231,,30,market
screen,html.Screen,2_1_1_1_31,2022-05-12T10:51:31.554Z,,,,,,,,,,,,,,,,,54,,,,,,,,,,,,,,373.76900000000023,,response,,,,100,,,,,,,Space,keypress(Space),,,,,,,,-- --- ---- --- ------ ----- ------- ---- -- --- ------- --<br>------- ---------- ------ -- ----- -- ----- -- ---- ------<br>--- ----- --- --- ------ -------- ----- --- ------ value --<br>----- ----- ---------- --- --- ------ ------ ---- -- ------<br>------- --- ------ ----- --- ---- ------- -- ---- --- --<br>------- ------,150460.80000000075,150460,150069.802,150081.2000000002,150086.231,150469.658,,31,value
screen,html.Screen,2_1_1_1_32,2022-05-12T10:51:31.864Z,,,,,,,,,,,,,,,,,54,,,,,,,,,,,,,,300.04200000019046,,response,,,,100,,,,,,,Space,keypress(Space),,,,,,,,-- --- ---- --- ------ ----- ------- ---- -- --- ------- --<br>------- ---------- ------ -- ----- -- ----- -- ---- ------<br>--- ----- --- --- ------ -------- ----- --- ------ ----- of<br>----- ----- ---------- --- --- ------ ------ ---- -- ------<br>------- --- ------ ----- --- ---- ------- -- ---- --- --<br>------- ------,150770.90000000037,150769.7000000002,150453.14,150461,150469.658,150786.408,,32,of
screen,html.Screen,2_1_1_1_33,2022-05-12T10:51:32.115Z,,,,,,,,,,,,,,,,,54,,,,,,,,,,,,,,234.89200000074925,,response,,,,100,,,,,,,Space,keypress(Space),,,,,,,,-- --- ---- --- ------ ----- ------- ---- -- --- ------- --<br>------- ---------- ------ -- ----- -- ----- -- ---- ------<br>--- ----- --- --- ------ -------- ----- --- ------ ----- --<br>these ----- ---------- --- --- ------ ------ ---- -- ------<br>------- --- ------ ----- --- ---- ------- -- ---- --- --<br>------- ------,151022.2000000002,151021.30000000075,150769.599,150771.10000000056,150786.408,151036.408,,33,these
screen,html.Screen,2_1_1_1_34,2022-05-12T10:51:32.429Z,,,,,,,,,,,,,,,,,54,,,,,,,,,,,,,,298.0920000000042,,response,,,,100,,,,,,,Space,keypress(Space),,,,,,,,-- --- ---- --- ------ ----- ------- ---- -- --- ------- --<br>------- ---------- ------ -- ----- -- ----- -- ---- ------<br>--- ----- --- --- ------ -------- ----- --- ------ ----- --<br>----- bonds ---------- --- --- ------ ------ ---- -- ------<br>------- --- ------ ----- --- ---- ------- -- ---- --- --<br>------- ------,151335.7000000002,151334.5,151019.688,151022.40000000037,151036.408,151353.021,,34,bonds
screen,html.Screen,2_1_1_1_35,2022-05-12T10:51:32.843Z,,,,,,,,,,,,,,,,,54,,,,,,,,,,,,,,395.9789999999921,,response,,,,100,,,,,,,Space,keypress(Space),,,,,,,,"-- --- ---- --- ------ ----- ------- ---- -- --- ------- --<br>------- ---------- ------ -- ----- -- ----- -- ---- ------<br>--- ----- --- --- ------ -------- ----- --- ------ ----- --<br>----- ----- plummeted, --- --- ------ ------ ---- -- ------<br>------- --- ------ ----- --- ---- ------- -- ---- --- --<br>------- ------",151749.90000000037,151749,151336.385,151335.90000000037,151353.021,151752.834,,35,"plummeted,"
screen,html.Screen,2_1_1_1_36,2022-05-12T10:51:33.220Z,,,,,,,,,,,,,,,,,54,,,,,,,,,,,,,,372.9660000007425,,response,,,,100,,,,,,,Space,keypress(Space),,,,,,,,-- --- ---- --- ------ ----- ------- ---- -- --- ------- --<br>------- ---------- ------ -- ----- -- ----- -- ---- ------<br>--- ----- --- --- ------ -------- ----- --- ------ ----- --<br>----- ----- ---------- and --- ------ ------ ---- -- ------<br>------- --- ------ ----- --- ---- ------- -- ---- --- --<br>------- ------,152127.2000000002,152125.80000000075,151736.291,151750.10000000056,151752.834,152136.162,,36,and
screen,html.Screen,2_1_1_1_37,2022-05-12T10:51:33.551Z,,,,,,,,,,,,,,,,,54,,,,,,,,,,,,,,321.0380000001751,,response,,,,100,,,,,,,Space,keypress(Space),,,,,,,,-- --- ---- --- ------ ----- ------- ---- -- --- ------- --<br>------- ---------- ------ -- ----- -- ----- -- ---- ------<br>--- ----- --- --- ------ -------- ----- --- ------ ----- --<br>----- ----- ---------- --- the ------ ------ ---- -- ------<br>------- --- ------ ----- --- ---- ------- -- ---- --- --<br>------- ------,152458.2000000002,152457.2000000002,152119.616,152127.40000000037,152136.162,152469.527,,37,the
screen,html.Screen,2_1_1_1_38,2022-05-12T10:51:33.805Z,,,,,,,,,,,,,,,,,54,,,,,,,,,,,,,,241.07300000055693,,response,,,,100,,,,,,,Space,keypress(Space),,,,,,,,-- --- ---- --- ------ ----- ------- ---- -- --- ------- --<br>------- ---------- ------ -- ----- -- ----- -- ---- ------<br>--- ----- --- --- ------ -------- ----- --- ------ ----- --<br>----- ----- ---------- --- --- market ------ ---- -- ------<br>------- --- ------ ----- --- ---- ------- -- ---- --- --<br>------- ------,152711.60000000056,152710.60000000056,152452.748,152458.40000000037,152469.527,152719.359,,38,market
screen,html.Screen,2_1_1_1_39,2022-05-12T10:51:34.174Z,,,,,,,,,,,,,,,,,54,,,,,,,,,,,,,,360.24100000056205,,response,,,,100,,,,,,,Space,keypress(Space),,,,,,,,-- --- ---- --- ------ ----- ------- ---- -- --- ------- --<br>------- ---------- ------ -- ----- -- ----- -- ---- ------<br>--- ----- --- --- ------ -------- ----- --- ------ ----- --<br>----- ----- ---------- --- --- ------ became ---- -- ------<br>------- --- ------ ----- --- ---- ------- -- ---- --- --<br>------- ------,153080.7000000002,153079.60000000056,152702.836,152711.7000000002,152719.359,153085.895,,39,became
screen,html.Screen,2_1_1_1_40,2022-05-12T10:51:34.514Z,,,,,,,,,,,,,,,,,54,,,,,,,,,,,,,,334.1050000000105,,response,,,,100,,,,,,,Space,keypress(Space),,,,,,,,-- --- ---- --- ------ ----- ------- ---- -- --- ------- --<br>------- ---------- ------ -- ----- -- ----- -- ---- ------<br>--- ----- --- --- ------ -------- ----- --- ------ ----- --<br>----- ----- ---------- --- --- ------ ------ wary -- ------<br>------- --- ------ ----- --- ---- ------- -- ---- --- --<br>------- ------,153421,153420,153069.498,153081,153085.895,153436.099,,40,wary
screen,html.Screen,2_1_1_1_41,2022-05-12T10:51:34.922Z,,,,,,,,,,,,,,,,,54,,,,,,,,,,,,,,392.10100000019884,,response,,,,100,,,,,,,Space,keypress(Space),,,,,,,,-- --- ---- --- ------ ----- ------- ---- -- --- ------- --<br>------- ---------- ------ -- ----- -- ----- -- ---- ------<br>--- ----- --- --- ------ -------- ----- --- ------ ----- --<br>----- ----- ---------- --- --- ------ ------ ---- of ------<br>------- --- ------ ----- --- ---- ------- -- ---- --- --<br>------- ------,153829.10000000056,153828.2000000002,153419.387,153421.2000000002,153436.099,153835.885,,41,of
screen,html.Screen,2_1_1_1_42,2022-05-12T10:51:35.197Z,,,,,,,,,,,,,,,,,54,,,,,,,,,,,,,,267.1149999999907,,response,,,,100,,,,,,,Space,keypress(Space),,,,,,,,-- --- ---- --- ------ ----- ------- ---- -- --- ------- --<br>------- ---------- ------ -- ----- -- ----- -- ---- ------<br>--- ----- --- --- ------ -------- ----- --- ------ ----- --<br>----- ----- ---------- --- --- ------ ------ ---- -- French<br>------- --- ------ ----- --- ---- ------- -- ---- --- --<br>------- ------,154103.90000000037,154103,153819.392,153829.30000000075,153835.885,154119.336,,42,French
screen,html.Screen,2_1_1_1_43,2022-05-12T10:51:35.529Z,,,,,,,,,,,,,,,,,54,,,,,,,,,,,,,,314.864000000176,,response,,,,100,,,,,,,Space,keypress(Space),,,,,,,,-- --- ---- --- ------ ----- ------- ---- -- --- ------- --<br>------- ---------- ------ -- ----- -- ----- -- ---- ------<br>--- ----- --- --- ------ -------- ----- --- ------ ----- --<br>----- ----- ---------- --- --- ------ ------ ---- -- ------<br>credit. --- ------ ----- --- ---- ------- -- ---- --- --<br>------- ------,154435.5,154434.2000000002,154102.707,154104.2000000002,154119.336,154452.876,,43,credit.
screen,html.Screen,2_1_1_1_44,2022-05-12T10:51:36.984Z,,,,,,,,,,,,,,,,,54,,,,,,,,,,,,,,1436.6240000000107,,response,,,,100,,,,,,,Space,keypress(Space),,,,,,,,-- --- ---- --- ------ ----- ------- ---- -- --- ------- --<br>------- ---------- ------ -- ----- -- ----- -- ---- ------<br>--- ----- --- --- ------ -------- ----- --- ------ ----- --<br>----- ----- ---------- --- --- ------ ------ ---- -- ------<br>------- The ------ ----- --- ---- ------- -- ---- --- --<br>------- ------,155890.60000000056,155889.5,154435.969,154435.7000000002,154452.876,155902.458,,44,The
screen,html.Screen,2_1_1_1_45,2022-05-12T10:51:37.298Z,,,,,,,,,,,,,,,,,54,,,,,,,,,,,,,,301.8420000007318,,response,,,,100,,,,,,,Space,keypress(Space),,,,,,,,-- --- ---- --- ------ ----- ------- ---- -- --- ------- --<br>------- ---------- ------ -- ----- -- ----- -- ---- ------<br>--- ----- --- --- ------ -------- ----- --- ------ ----- --<br>----- ----- ---------- --- --- ------ ------ ---- -- ------<br>------- --- French ----- --- ---- ------- -- ---- --- --<br>------- ------,156205.30000000075,156204.30000000075,155885.773,155890.80000000075,155902.458,156219.103,,45,French
screen,html.Screen,2_1_1_1_46,2022-05-12T10:51:37.691Z,,,,,,,,,,,,,,,,,54,,,,,,,,,,,,,,377.497000000556,,response,,,,100,,,,,,,Space,keypress(Space),,,,,,,,-- --- ---- --- ------ ----- ------- ---- -- --- ------- --<br>------- ---------- ------ -- ----- -- ----- -- ---- ------<br>--- ----- --- --- ------ -------- ----- --- ------ ----- --<br>----- ----- ---------- --- --- ------ ------ ---- -- ------<br>------- --- ------ state --- ---- ------- -- ---- --- --<br>------- ------,156597.60000000056,156596.60000000056,156202.439,156205.5,156219.103,156602.263,,46,state
screen,html.Screen,2_1_1_1_47,2022-05-12T10:51:38.037Z,,,,,,,,,,,,,,,,,54,,,,,,,,,,,,,,340.93700000018,,response,,,,100,,,,,,,Space,keypress(Space),,,,,,,,-- --- ---- --- ------ ----- ------- ---- -- --- ------- --<br>------- ---------- ------ -- ----- -- ----- -- ---- ------<br>--- ----- --- --- ------ -------- ----- --- ------ ----- --<br>----- ----- ---------- --- --- ------ ------ ---- -- ------<br>------- --- ------ ----- was ---- ------- -- ---- --- --<br>------- ------,156944.10000000056,156943.2000000002,156585.704,156597.90000000037,156602.263,156952.221,,47,was
screen,html.Screen,2_1_1_1_48,2022-05-12T10:51:38.337Z,,,,,,,,,,,,,,,,,54,,,,,,,,,,,,,,290.1790000003821,,response,,,,100,,,,,,,Space,keypress(Space),,,,,,,,-- --- ---- --- ------ ----- ------- ---- -- --- ------- --<br>------- ---------- ------ -- ----- -- ----- -- ---- ------<br>--- ----- --- --- ------ -------- ----- --- ------ ----- --<br>----- ----- ---------- --- --- ------ ------ ---- -- ------<br>------- --- ------ ----- --- left ------- -- ---- --- --<br>------- ------,157243.5,157242.40000000037,156935.746,156944.40000000037,156952.221,157252.273,,48,left
screen,html.Screen,2_1_1_1_49,2022-05-12T10:51:38.614Z,,,,,,,,,,,,,,,,,54,,,,,,,,,,,,,,267.02700000075856,,response,,,,100,,,,,,,Space,keypress(Space),,,,,,,,-- --- ---- --- ------ ----- ------- ---- -- --- ------- --<br>------- ---------- ------ -- ----- -- ----- -- ---- ------<br>--- ----- --- --- ------ -------- ----- --- ------ ----- --<br>----- ----- ---------- --- --- ------ ------ ---- -- ------<br>------- --- ------ ----- --- ---- without -- ---- --- --<br>------- ------,157520.5,157519.30000000075,157235.659,157243.7000000002,157252.273,157535.606,,49,without
screen,html.Screen,2_1_1_1_50,2022-05-12T10:51:38.898Z,,,,,,,,,,,,,,,,,54,,,,,,,,,,,,,,268.1940000007453,,response,,,,100,,,,,,,Space,keypress(Space),,,,,,,,-- --- ---- --- ------ ----- ------- ---- -- --- ------- --<br>------- ---------- ------ -- ----- -- ----- -- ---- ------<br>--- ----- --- --- ------ -------- ----- --- ------ ----- --<br>----- ----- ---------- --- --- ------ ------ ---- -- ------<br>------- --- ------ ----- --- ---- ------- an ---- --- --<br>------- ------,157804.7000000002,157803.80000000075,157518.9,157520.7000000002,157535.606,157818.918,,50,an
screen,html.Screen,2_1_1_1_51,2022-05-12T10:51:39.187Z,,,,,,,,,,,,,,,,,54,,,,,,,,,,,,,,274.4820000003674,,response,,,,100,,,,,,,Space,keypress(Space),,,,,,,,-- --- ---- --- ------ ----- ------- ---- -- --- ------- --<br>------- ---------- ------ -- ----- -- ----- -- ---- ------<br>--- ----- --- --- ------ -------- ----- --- ------ ----- --<br>----- ----- ---------- --- --- ------ ------ ---- -- ------<br>------- --- ------ ----- --- ---- ------- -- easy --- --<br>------- ------,158094,158093.40000000037,157802.269,157804.90000000037,157818.918,158102.113,,51,easy
screen,html.Screen,2_1_1_1_52,2022-05-12T10:51:39.477Z,,,,,,,,,,,,,,,,,54,,,,,,,,,,,,,,280.58700000017416,,response,,,,100,,,,,,,Space,keypress(Space),,,,,,,,-- --- ---- --- ------ ----- ------- ---- -- --- ------- --<br>------- ---------- ------ -- ----- -- ----- -- ---- ------<br>--- ----- --- --- ------ -------- ----- --- ------ ----- --<br>----- ----- ---------- --- --- ------ ------ ---- -- ------<br>------- --- ------ ----- --- ---- ------- -- ---- way --<br>------- ------,158383.7000000002,158382.7000000002,158085.578,158094.30000000075,158102.113,158412.319,,52,way
screen,html.Screen,2_1_1_1_53,2022-05-12T10:51:39.823Z,,,,,,,,,,,,,,,,,54,,,,,,,,,,,,,,316.08100000038394,,response,,,,100,,,,,,,Space,keypress(Space),,,,,,,,-- --- ---- --- ------ ----- ------- ---- -- --- ------- --<br>------- ---------- ------ -- ----- -- ----- -- ---- ------<br>--- ----- --- --- ------ -------- ----- --- ------ ----- --<br>----- ----- ---------- --- --- ------ ------ ---- -- ------<br>------- --- ------ ----- --- ---- ------- -- ---- --- of<br>------- ------,158729.30000000075,158728.40000000037,158368.818,158384,158412.319,158735.33,,53,of
screen,html.Screen,2_1_1_1_54,2022-05-12T10:51:40.102Z,,,,,,,,,,,,,,,,,54,,,,,,,,,,,,,,272.7700000005716,,response,,,,100,,,,,,,Space,keypress(Space),,,,,,,,-- --- ---- --- ------ ----- ------- ---- -- --- ------- --<br>------- ---------- ------ -- ----- -- ----- -- ---- ------<br>--- ----- --- --- ------ -------- ----- --- ------ ----- --<br>----- ----- ---------- --- --- ------ ------ ---- -- ------<br>------- --- ------ ----- --- ---- ------- -- ---- --- --<br>raising ------,159009.2000000002,159008.10000000056,158718.834,158729.60000000056,158735.33,159018.72,,54,raising
screen,html.Screen,2_1_1_1_55,2022-05-12T10:51:40.439Z,,,,,,,,,,,,,,,,,54,,,,,,,,,,,,,,326.27999999999884,,response,,,,100,,,,,,,Space,keypress(Space),,,,,,,,-- --- ---- --- ------ ----- ------- ---- -- --- ------- --<br>------- ---------- ------ -- ----- -- ----- -- ---- ------<br>--- ----- --- --- ------ -------- ----- --- ------ ----- --<br>----- ----- ---------- --- --- ------ ------ ---- -- ------<br>------- --- ------ ----- --- ---- ------- -- ---- --- --<br>------- money.,159345.90000000037,159345,159002.155,159009.40000000037,159018.72,159351.912,,55,money.
Item 100,flow.Loop,2_1_1_1,2022-05-12T10:51:40.439Z,,,,,,,,,,,,,,,,,,,,,,,,,,,,,,,21707.09599999999,,completion,,,,,D,,,,,,,,,,,silence,,,,,159346.2000000002,159345,137621.233,137622.60000000056,137637.904,159351.912,,,
Question 1,html.Screen,2_1_1_2,2022-05-12T10:51:45.460Z,,,,,,,,,,,,,,,,,,,,,,,,,,,,true,TRUE,,5014.087999999989,,response,,,,100,D,,,,,,TRUE,click #choice-1,,,,silence,,,,,164366.90000000037,164366,159335.615,159346.5,159351.912,164384.789,,,
Question 2,html.Screen,2_1_1_3,2022-05-12T10:51:47.542Z,,,,,,,,,,,,,,,,,,,,,,,,,,,,true,FALSE,,2063.311000000569,,response,,,,100,D,,,,,,FALSE,click #choice-2,,,,silence,,,,,166449,166448.10000000056,164367.975,164367.10000000056,164384.789,166451.059,,,
Item 100,flow.Sequence,2_1_1,2022-05-12T10:51:47.542Z,,,,,,,,,,,,,,,,,,,,,,,,,,,,,,,38809.24000000056,,completion,,,,,,,,,,,,,,,,,,,,,166449.30000000075,166448.10000000056,127622.406,127635.90000000037,127638.86,166451.059,,,
End of Practice,html.Page,2_1_2,2022-05-12T10:51:55.612Z,,,,,,,,,,,,,,,,,,,,,,,,,,,,,,,8067.741000000737,,form submission,,,,,,,,,,,,,,,,,,,,,174519.10000000056,174518.80000000075,166434.612,166449.40000000037,166451.059,174533.606,,,
Practice,flow.Sequence,2_1,2022-05-12T10:51:55.612Z,,,,,,,,,,,,,,,,,,,,,,,,,,,,,,,87408.48100000074,,completion,,,,,,,,,,,,,,,,,,,,,174519.2000000002,174518.80000000075,87093.586,87095.30000000075,87110.319,174533.606,,,
Trap_instruction,html.Page,2_2_0,2022-05-12T10:51:58.400Z,,,,,,,,,,,,,,,,,,,,,,,,,,,,,,,2772.494000000559,,form submission,,,,,,,,,,,,,,,,,,,,,177306.30000000075,177306.10000000056,174516.963,174519.40000000037,174533.606,177349.885,,,
trap_trial,html.Screen,2_2_1,2022-05-12T10:52:06.200Z,,,,,,,,,,,,,,,,,,,,,,,,,,,,true,1,,7755.915000000736,,response,,,,,,,,,,,1,click #choice-1,,,,,,,,,185106.60000000056,185105.80000000075,177299.984,177306.5,177349.885,185115.644,,,
end of trap trial,html.Page,2_2_2,2022-05-12T10:52:08.161Z,,,,,,,,,,,,,,,,,,,,,,,,,,,,,,,1951.9560000005586,,form submission,,,,,,,,,,,,,,,,,,,,,187067.80000000075,187067.60000000056,185098.956,185106.80000000075,185115.644,187081.977,,,
Trap 1,flow.Sequence,2_2,2022-05-12T10:52:08.161Z,,,,,,,,,,,,,,,,,,,,,,,,,,,,,,,12533.994000000559,,completion,,,,,,,,,,,,,,,,,,,,,187068.10000000056,187067.60000000056,174516.963,174519.30000000075,174533.606,187081.977,,,
Standby,html.Page,2_3_0,2022-05-12T10:52:16.159Z,,,,,,,,,,,,,,,,,,,,,,,,,,,,,,,7999.126999999979,,timeout,,,,,,,,,,,,,,,,,,,,,195065.80000000075,195064.492,187065.546,187068.2000000002,187081.977,195081.104,,,
Holding screen,html.Screen,2_3_1_0_0,2022-05-12T10:52:23.158Z,,,,,,,,,,,,,,,,,,,,,,,,,,,,,,,6999.418999999994,,timeout,,,,,,,,,,,,,,,,,,,,,202064.90000000037,202063.686,195064.492,195066.10000000056,195081.104,202080.523,,,
screen,html.Screen,2_3_1_0_1_0,2022-05-12T10:52:25.011Z,,,,,,,,,,,,,,,,,19,,,,,,,,,,,,,,1836.7770000007586,,response,,,,17,D,,,,,,Space,keypress(Space),,,,speech,,,,"Interestingly, --- -------- -------- ---------- ---- -------<br>-- ---------- -- --- ----- ------ ----- ---- --------- ----<br>------- ------ -------- -- ------ ---------- ------ ---<br>------ -- -- ---- -- ---------- -------- ------ ---- -------<br>---- --- --------- ------- ----- --------- ---- ----- --<br>------ -------- -- ------ -- ---- ------------",203918.30000000075,203917.30000000075,202063.686,202065.30000000075,202080.523,203930.23,,0,"Interestingly,"
screen,html.Screen,2_3_1_0_1_1,2022-05-12T10:52:25.396Z,,,,,,,,,,,,,,,,,19,,,,,,,,,,,,,,371.3700000005483,,response,,,,17,D,,,,,,Space,keypress(Space),,,,speech,,,,-------------- the -------- -------- ---------- ---- -------<br>-- ---------- -- --- ----- ------ ----- ---- --------- ----<br>------- ------ -------- -- ------ ---------- ------ ---<br>------ -- -- ---- -- ---------- -------- ------ ---- -------<br>---- --- --------- ------- ----- --------- ---- ----- --<br>------ -------- -- ------ -- ---- ------------,204302.5,204301.60000000056,203913.607,203918.7000000002,203930.23,204313.568,,1,the
screen,html.Screen,2_3_1_0_1_2,2022-05-12T10:52:25.759Z,,,,,,,,,,,,,,,,,19,,,,,,,,,,,,,,351.5320000005595,,response,,,,17,D,,,,,,Space,keypress(Space),,,,speech,,,,-------------- --- heaviest -------- ---------- ---- -------<br>-- ---------- -- --- ----- ------ ----- ---- --------- ----<br>------- ------ -------- -- ------ ---------- ------ ---<br>------ -- -- ---- -- ---------- -------- ------ ---- -------<br>---- --- --------- ------- ----- --------- ---- ----- --<br>------ -------- -- ------ -- ---- ------------,204666,204665.10000000056,204296.812,204302.80000000075,204313.568,204680.187,,2,heaviest
screen,html.Screen,2_3_1_0_1_3,2022-05-12T10:52:26.125Z,,,,,,,,,,,,,,,,,19,,,,,,,,,,,,,,350.5130000001809,,response,,,,17,D,,,,,,Space,keypress(Space),,,,speech,,,,-------------- --- -------- isotopes ---------- ---- -------<br>-- ---------- -- --- ----- ------ ----- ---- --------- ----<br>------- ------ -------- -- ------ ---------- ------ ---<br>------ -- -- ---- -- ---------- -------- ------ ---- -------<br>---- --- --------- ------- ----- --------- ---- ----- --<br>------ -------- -- ------ -- ---- ------------,205031.7000000002,205030.7000000002,204663.469,204666.30000000075,204680.187,205046.665,,3,isotopes
screen,html.Screen,2_3_1_0_1_4,2022-05-12T10:52:26.561Z,,,,,,,,,,,,,,,,,19,,,,,,,,,,,,,,420.1350000007369,,response,,,,17,D,,,,,,Space,keypress(Space),,,,speech,,,,-------------- --- -------- -------- physicists ---- -------<br>-- ---------- -- --- ----- ------ ----- ---- --------- ----<br>------- ------ -------- -- ------ ---------- ------ ---<br>------ -- -- ---- -- ---------- -------- ------ ---- -------<br>---- --- --------- ------- ----- --------- ---- ----- --<br>------ -------- -- ------ -- ---- ------------,205467.5,205466.80000000075,205030.129,205031.90000000037,205046.665,205480.082,,4,physicists
screen,html.Screen,2_3_1_0_1_5,2022-05-12T10:52:27.291Z,,,,,,,,,,,,,,,,,19,,,,,,,,,,,,,,717.0180000005639,,response,,,,17,D,,,,,,Space,keypress(Space),,,,speech,,,,-------------- --- -------- -------- ---------- have -------<br>-- ---------- -- --- ----- ------ ----- ---- --------- ----<br>------- ------ -------- -- ------ ---------- ------ ---<br>------ -- -- ---- -- ---------- -------- ------ ---- -------<br>---- --- --------- ------- ----- --------- ---- ----- --<br>------ -------- -- ------ -- ---- ------------,206198.2000000002,206197.10000000056,205463.463,205467.7000000002,205480.082,206213.325,,5,have
screen,html.Screen,2_3_1_0_1_6,2022-05-12T10:52:27.676Z,,,,,,,,,,,,,,,,,19,,,,,,,,,,,,,,368.17499999998836,,response,,,,17,D,,,,,,Space,keypress(Space),,,,speech,,,,-------------- --- -------- -------- ---------- ---- managed<br>-- ---------- -- --- ----- ------ ----- ---- --------- ----<br>------- ------ -------- -- ------ ---------- ------ ---<br>------ -- -- ---- -- ---------- -------- ------ ---- -------<br>---- --- --------- ------- ----- --------- ---- ----- --<br>------ -------- -- ------ -- ---- ------------,206582.5,206581.5,206196.697,206198.40000000037,206213.325,206596.549,,6,managed
screen,html.Screen,2_3_1_0_1_7,2022-05-12T10:52:27.991Z,,,,,,,,,,,,,,,,,19,,,,,,,,,,,,,,300.35100000037346,,response,,,,17,D,,,,,,Space,keypress(Space),,,,speech,,,,-------------- --- -------- -------- ---------- ---- -------<br>to ---------- -- --- ----- ------ ----- ---- --------- ----<br>------- ------ -------- -- ------ ---------- ------ ---<br>------ -- -- ---- -- ---------- -------- ------ ---- -------<br>---- --- --------- ------- ----- --------- ---- ----- --<br>------ -------- -- ------ -- ---- ------------,206898.30000000075,206896.90000000037,206579.913,206582.7000000002,206596.549,206913.253,,7,to
screen,html.Screen,2_3_1_0_1_8,2022-05-12T10:52:28.303Z,,,,,,,,,,,,,,,,,19,,,,,,,,,,,,,,295.64700000037556,,response,,,,17,D,,,,,,Space,keypress(Space),,,,speech,,,,-------------- --- -------- -------- ---------- ---- -------<br>-- synthesize -- --- ----- ------ ----- ---- --------- ----<br>------- ------ -------- -- ------ ---------- ------ ---<br>------ -- -- ---- -- ---------- -------- ------ ---- -------<br>---- --- --------- ------- ----- --------- ---- ----- --<br>------ -------- -- ------ -- ---- ------------,207209.80000000075,207208.90000000037,206896.601,206898.60000000056,206913.253,207213.117,,8,synthesize
screen,html.Screen,2_3_1_0_1_9,2022-05-12T10:52:29.991Z,,,,,,,,,,,,,,,,,19,,,,,,,,,,,,,,1683.6830000007467,,response,,,,17,D,,,,,,Space,keypress(Space),,,,speech,,,,-------------- --- -------- -------- ---------- ---- -------<br>-- ---------- so --- ----- ------ ----- ---- --------- ----<br>------- ------ -------- -- ------ ---------- ------ ---<br>------ -- -- ---- -- ---------- -------- ------ ---- -------<br>---- --- --------- ------- ----- --------- ---- ----- --<br>------ -------- -- ------ -- ---- ------------,208897.80000000075,208896.80000000075,207196.484,207210,207213.117,208913.02,,9,so
screen,html.Screen,2_3_1_0_1_10,2022-05-12T10:52:30.317Z,,,,,,,,,,,,,,,,,19,,,,,,,,,,,,,,310.08000000056927,,response,,,,17,D,,,,,,Space,keypress(Space),,,,speech,,,,-------------- --- -------- -------- ---------- ---- -------<br>-- ---------- -- far ----- ------ ----- ---- --------- ----<br>------- ------ -------- -- ------ ---------- ------ ---<br>------ -- -- ---- -- ---------- -------- ------ ---- -------<br>---- --- --------- ------- ----- --------- ---- ----- --<br>------ -------- -- ------ -- ---- ------------,209224.10000000056,209223.10000000056,208896.468,208898,208913.02,209229.47,,10,far
screen,html.Screen,2_3_1_0_1_11,2022-05-12T10:52:30.827Z,,,,,,,,,,,,,,,,,19,,,,,,,,,,,,,,502.93000000037136,,response,,,,17,D,,,,,,Space,keypress(Space),,,,speech,,,,-------------- --- -------- -------- ---------- ---- -------<br>-- ---------- -- --- don't ------ ----- ---- --------- ----<br>------- ------ -------- -- ------ ---------- ------ ---<br>------ -- -- ---- -- ---------- -------- ------ ---- -------<br>---- --- --------- ------- ----- --------- ---- ----- --<br>------ -------- -- ------ -- ---- ------------,209733.40000000037,209732.40000000037,209213.009,209224.30000000075,209229.47,209746.264,,11,don't
screen,html.Screen,2_3_1_0_1_12,2022-05-12T10:52:31.172Z,,,,,,,,,,,,,,,,,19,,,,,,,,,,,,,,331.0360000007495,,response,,,,17,D,,,,,,Space,keypress(Space),,,,speech,,,,-------------- --- -------- -------- ---------- ---- -------<br>-- ---------- -- --- ----- behave ----- ---- --------- ----<br>------- ------ -------- -- ------ ---------- ------ ---<br>------ -- -- ---- -- ---------- -------- ------ ---- -------<br>---- --- --------- ------- ----- --------- ---- ----- --<br>------ -------- -- ------ -- ---- ------------,210078.5,210077.30000000075,209729.476,209733.60000000056,209746.264,210112.93,,12,behave
screen,html.Screen,2_3_1_0_1_13,2022-05-12T10:52:31.474Z,,,,,,,,,,,,,,,,,19,,,,,,,,,,,,,,266.9700000003795,,response,,,,17,D,,,,,,Space,keypress(Space),,,,speech,,,,-------------- --- -------- -------- ---------- ---- -------<br>-- ---------- -- --- ----- ------ quite ---- --------- ----<br>------- ------ -------- -- ------ ---------- ------ ---<br>------ -- -- ---- -- ---------- -------- ------ ---- -------<br>---- --- --------- ------- ----- --------- ---- ----- --<br>------ -------- -- ------ -- ---- ------------,210380.90000000037,210379.90000000037,210096.215,210078.7000000002,210112.93,210396.176,,13,quite
screen,html.Screen,2_3_1_0_1_14,2022-05-12T10:52:31.828Z,,,,,,,,,,,,,,,,,19,,,,,,,,,,,,,,337.2240000003658,,response,,,,17,D,,,,,,Space,keypress(Space),,,,speech,,,,-------------- --- -------- -------- ---------- ---- -------<br>-- ---------- -- --- ----- ------ ----- like --------- ----<br>------- ------ -------- -- ------ ---------- ------ ---<br>------ -- -- ---- -- ---------- -------- ------ ---- -------<br>---- --- --------- ------- ----- --------- ---- ----- --<br>------ -------- -- ------ -- ---- ------------,210734.60000000056,210733.40000000037,210379.479,210381.10000000056,210396.176,210746.093,,14,like
screen,html.Screen,2_3_1_0_1_15,2022-05-12T10:52:32.103Z,,,,,,,,,,,,,,,,,19,,,,,,,,,,,,,,262.80700000037905,,response,,,,17,D,,,,,,Space,keypress(Space),,,,speech,,,,-------------- --- -------- -------- ---------- ---- -------<br>-- ---------- -- --- ----- ------ ----- ---- science's ----<br>------- ------ -------- -- ------ ---------- ------ ---<br>------ -- -- ---- -- ---------- -------- ------ ---- -------<br>---- --- --------- ------- ----- --------- ---- ----- --<br>------ -------- -- ------ -- ---- ------------,211009.90000000037,211008.90000000037,210729.528,210734.80000000075,210746.093,211012.636,,15,science's
screen,html.Screen,2_3_1_0_1_16,2022-05-12T10:52:32.459Z,,,,,,,,,,,,,,,,,19,,,,,,,,,,,,,,352.56400000018766,,response,,,,17,D,,,,,,Space,keypress(Space),,,,speech,,,,-------------- --- -------- -------- ---------- ---- -------<br>-- ---------- -- --- ----- ------ ----- ---- --------- best<br>------- ------ -------- -- ------ ---------- ------ ---<br>------ -- -- ---- -- ---------- -------- ------ ---- -------<br>---- --- --------- ------- ----- --------- ---- ----- --<br>------ -------- -- ------ -- ---- ------------,211366.10000000056,211365.2000000002,210996.112,211010.10000000056,211012.636,211379.432,,16,best
screen,html.Screen,2_3_1_0_1_17,2022-05-12T10:52:32.797Z,,,,,,,,,,,,,,,,,19,,,,,,,,,,,,,,323.36800000074436,,response,,,,17,D,,,,,,Space,keypress(Space),,,,speech,,,,-------------- --- -------- -------- ---------- ---- -------<br>-- ---------- -- --- ----- ------ ----- ---- --------- ----<br>current ------ -------- -- ------ ---------- ------ ---<br>------ -- -- ---- -- ---------- -------- ------ ---- -------<br>---- --- --------- ------- ----- --------- ---- ----- --<br>------ -------- -- ------ -- ---- ------------,211703.7000000002,211702.80000000075,211362.757,211366.40000000037,211379.432,211712.709,,17,current
screen,html.Screen,2_3_1_0_1_18,2022-05-12T10:52:33.348Z,,,,,,,,,,,,,,,,,19,,,,,,,,,,,,,,541.19100000037,,response,,,,17,D,,,,,,Space,keypress(Space),,,,speech,,,,-------------- --- -------- -------- ---------- ---- -------<br>-- ---------- -- --- ----- ------ ----- ---- --------- ----<br>------- models -------- -- ------ ---------- ------ ---<br>------ -- -- ---- -- ---------- -------- ------ ---- -------<br>---- --- --------- ------- ----- --------- ---- ----- --<br>------ -------- -- ------ -- ---- ------------,212254.90000000037,212253.90000000037,211696.118,211703.90000000037,211712.709,212262.54,,18,models
screen,html.Screen,2_3_1_0_1_19,2022-05-12T10:52:33.717Z,,,,,,,,,,,,,,,,,19,,,,,,,,,,,,,,360.1600000001781,,response,,,,17,D,,,,,,Space,keypress(Space),,,,speech,,,,"-------------- --- -------- -------- ---------- ---- -------<br>-- ---------- -- --- ----- ------ ----- ---- --------- ----<br>------- ------ predict, -- ------ ---------- ------ ---<br>------ -- -- ---- -- ---------- -------- ------ ---- -------<br>---- --- --------- ------- ----- --------- ---- ----- --<br>------ -------- -- ------ -- ---- ------------",212623.60000000056,212622.7000000002,212246.015,212255.10000000056,212262.54,212629.109,,19,"predict,"
screen,html.Screen,2_3_1_0_1_20,2022-05-12T10:52:34.113Z,,,,,,,,,,,,,,,,,19,,,,,,,,,,,,,,389.7910000003758,,response,,,,17,D,,,,,,Space,keypress(Space),,,,speech,,,,-------------- --- -------- -------- ---------- ---- -------<br>-- ---------- -- --- ----- ------ ----- ---- --------- ----<br>------- ------ -------- so ------ ---------- ------ ---<br>------ -- -- ---- -- ---------- -------- ------ ---- -------<br>---- --- --------- ------- ----- --------- ---- ----- --<br>------ -------- -- ------ -- ---- ------------,213020,213018.90000000037,212612.637,212623.90000000037,212629.109,213029.224,,20,so
screen,html.Screen,2_3_1_0_1_21,2022-05-12T10:52:34.364Z,,,,,,,,,,,,,,,,,19,,,,,,,,,,,,,,240.07600000075763,,response,,,,17,D,,,,,,Space,keypress(Space),,,,speech,,,,-------------- --- -------- -------- ---------- ---- -------<br>-- ---------- -- --- ----- ------ ----- ---- --------- ----<br>------- ------ -------- -- stable ---------- ------ ---<br>------ -- -- ---- -- ---------- -------- ------ ---- -------<br>---- --- --------- ------- ----- --------- ---- ----- --<br>------ -------- -- ------ -- ---- ------------,213270.40000000037,213269.30000000075,213012.657,213020.2000000002,213029.224,213279.12,,21,stable
screen,html.Screen,2_3_1_0_1_22,2022-05-12T10:52:34.686Z,,,,,,,,,,,,,,,,,19,,,,,,,,,,,,,,312.7800000003772,,response,,,,17,D,,,,,,Space,keypress(Space),,,,speech,,,,-------------- --- -------- -------- ---------- ---- -------<br>-- ---------- -- --- ----- ------ ----- ---- --------- ----<br>------- ------ -------- -- ------ superheavy ------ ---<br>------ -- -- ---- -- ---------- -------- ------ ---- -------<br>---- --- --------- ------- ----- --------- ---- ----- --<br>------ -------- -- ------ -- ---- ------------,213592.90000000037,213591.90000000037,213262.595,213270.60000000056,213279.12,213595.713,,22,superheavy
screen,html.Screen,2_3_1_0_1_23,2022-05-12T10:52:35.116Z,,,,,,,,,,,,,,,,,19,,,,,,,,,,,,,,425.58700000075623,,response,,,,17,D,,,,,,Space,keypress(Space),,,,speech,,,,-------------- --- -------- -------- ---------- ---- -------<br>-- ---------- -- --- ----- ------ ----- ---- --------- ----<br>------- ------ -------- -- ------ ---------- nuclei ---<br>------ -- -- ---- -- ---------- -------- ------ ---- -------<br>---- --- --------- ------- ----- --------- ---- ----- --<br>------ -------- -- ------ -- ---- ------------,214022.40000000037,214021.30000000075,213579.177,213593.10000000056,213595.713,214029.031,,23,nuclei
screen,html.Screen,2_3_1_0_1_24,2022-05-12T10:52:35.635Z,,,,,,,,,,,,,,,,,19,,,,,,,,,,,,,,512.2690000007569,,response,,,,17,D,,,,,,Space,keypress(Space),,,,speech,,,,-------------- --- -------- -------- ---------- ---- -------<br>-- ---------- -- --- ----- ------ ----- ---- --------- ----<br>------- ------ -------- -- ------ ---------- ------ are<br>------ -- -- ---- -- ---------- -------- ------ ---- -------<br>---- --- --------- ------- ----- --------- ---- ----- --<br>------ -------- -- ------ -- ---- ------------,214542.2000000002,214541.30000000075,214012.505,214022.60000000056,214029.031,214545.549,,24,are
screen,html.Screen,2_3_1_0_1_25,2022-05-12T10:52:35.988Z,,,,,,,,,,,,,,,,,19,,,,,,,,,,,,,,348.85100000037346,,response,,,,17,D,,,,,,Space,keypress(Space),,,,speech,,,,-------------- --- -------- -------- ---------- ---- -------<br>-- ---------- -- --- ----- ------ ----- ---- --------- ----<br>------- ------ -------- -- ------ ---------- ------ ---<br>likely -- -- ---- -- ---------- -------- ------ ---- -------<br>---- --- --------- ------- ----- --------- ---- ----- --<br>------ -------- -- ------ -- ---- ------------,214895.60000000056,214894.40000000037,214529.095,214542.40000000037,214545.549,214912.354,,25,likely
screen,html.Screen,2_3_1_0_1_26,2022-05-12T10:52:36.278Z,,,,,,,,,,,,,,,,,19,,,,,,,,,,,,,,272.3460000001942,,response,,,,17,D,,,,,,Space,keypress(Space),,,,speech,,,,-------------- --- -------- -------- ---------- ---- -------<br>-- ---------- -- --- ----- ------ ----- ---- --------- ----<br>------- ------ -------- -- ------ ---------- ------ ---<br>------ to -- ---- -- ---------- -------- ------ ---- -------<br>---- --- --------- ------- ----- --------- ---- ----- --<br>------ -------- -- ------ -- ---- ------------,215185.80000000075,215184.7000000002,214895.683,214895.80000000075,214912.354,215195.568,,26,to
screen,html.Screen,2_3_1_0_1_27,2022-05-12T10:52:36.649Z,,,,,,,,,,,,,,,,,19,,,,,,,,,,,,,,360.13200000018696,,response,,,,17,D,,,,,,Space,keypress(Space),,,,speech,,,,-------------- --- -------- -------- ---------- ---- -------<br>-- ---------- -- --- ----- ------ ----- ---- --------- ----<br>------- ------ -------- -- ------ ---------- ------ ---<br>------ -- be ---- -- ---------- -------- ------ ---- -------<br>---- --- --------- ------- ----- --------- ---- ----- --<br>------ -------- -- ------ -- ---- ------------,215556.60000000056,215555.7000000002,215178.847,215186,215195.568,215562.109,,27,be
screen,html.Screen,2_3_1_0_1_28,2022-05-12T10:52:36.952Z,,,,,,,,,,,,,,,,,19,,,,,,,,,,,,,,295.7910000003758,,response,,,,17,D,,,,,,Space,keypress(Space),,,,speech,,,,-------------- --- -------- -------- ---------- ---- -------<br>-- ---------- -- --- ----- ------ ----- ---- --------- ----<br>------- ------ -------- -- ------ ---------- ------ ---<br>------ -- -- full -- ---------- -------- ------ ---- -------<br>---- --- --------- ------- ----- --------- ---- ----- --<br>------ -------- -- ------ -- ---- ------------,215858.90000000037,215857.90000000037,215545.616,215556.80000000075,215562.109,215862.087,,28,full
screen,html.Screen,2_3_1_0_1_29,2022-05-12T10:52:37.373Z,,,,,,,,,,,,,,,,,19,,,,,,,,,,,,,,416.91300000000047,,response,,,,17,D,,,,,,Space,keypress(Space),,,,speech,,,,-------------- --- -------- -------- ---------- ---- -------<br>-- ---------- -- --- ----- ------ ----- ---- --------- ----<br>------- ------ -------- -- ------ ---------- ------ ---<br>------ -- -- ---- of ---------- -------- ------ ---- -------<br>---- --- --------- ------- ----- --------- ---- ----- --<br>------ -------- -- ------ -- ---- ------------,216280.10000000056,216279,215845.466,215859.10000000056,215862.087,216295.375,,29,of
screen,html.Screen,2_3_1_0_1_30,2022-05-12T10:52:37.659Z,,,,,,,,,,,,,,,,,19,,,,,,,,,,,,,,270.42500000074506,,response,,,,17,D,,,,,,Space,keypress(Space),,,,speech,,,,-------------- --- -------- -------- ---------- ---- -------<br>-- ---------- -- --- ----- ------ ----- ---- --------- ----<br>------- ------ -------- -- ------ ---------- ------ ---<br>------ -- -- ---- -- surprises. -------- ------ ---- -------<br>---- --- --------- ------- ----- --------- ---- ----- --<br>------ -------- -- ------ -- ---- ------------,216566.80000000075,216565.80000000075,216278.735,216280.40000000037,216295.375,216578.809,,30,surprises.
screen,html.Screen,2_3_1_0_1_31,2022-05-12T10:52:38.310Z,,,,,,,,,,,,,,,,,19,,,,,,,,,,,,,,637.6909999999916,,response,,,,17,D,,,,,,Space,keypress(Space),,,,speech,,,,-------------- --- -------- -------- ---------- ---- -------<br>-- ---------- -- --- ----- ------ ----- ---- --------- ----<br>------- ------ -------- -- ------ ---------- ------ ---<br>------ -- -- ---- -- ---------- Chemists ------ ---- -------<br>---- --- --------- ------- ----- --------- ---- ----- --<br>------ -------- -- ------ -- ---- ------------,217217.5,217216.5,216562.147,216567,216578.809,217228.733,,31,Chemists
screen,html.Screen,2_3_1_0_1_32,2022-05-12T10:52:38.585Z,,,,,,,,,,,,,,,,,19,,,,,,,,,,,,,,262.36700000055134,,response,,,,17,D,,,,,,Space,keypress(Space),,,,speech,,,,-------------- --- -------- -------- ---------- ---- -------<br>-- ---------- -- --- ----- ------ ----- ---- --------- ----<br>------- ------ -------- -- ------ ---------- ------ ---<br>------ -- -- ---- -- ---------- -------- cannot ---- -------<br>---- --- --------- ------- ----- --------- ---- ----- --<br>------ -------- -- ------ -- ---- ------------,217492.10000000056,217491.10000000056,217212.125,217217.7000000002,217228.733,217495.272,,32,cannot
screen,html.Screen,2_3_1_0_1_33,2022-05-12T10:52:38.849Z,,,,,,,,,,,,,,,,,19,,,,,,,,,,,,,,259.52800000074785,,response,,,,17,D,,,,,,Space,keypress(Space),,,,speech,,,,-------------- --- -------- -------- ---------- ---- -------<br>-- ---------- -- --- ----- ------ ----- ---- --------- ----<br>------- ------ -------- -- ------ ---------- ------ ---<br>------ -- -- ---- -- ---------- -------- ------ even -------<br>---- --- --------- ------- ----- --------- ---- ----- --<br>------ -------- -- ------ -- ---- ------------,217755.90000000037,217754.80000000075,217478.757,217492.30000000075,217495.272,217761.905,,33,even
screen,html.Screen,2_3_1_0_1_34,2022-05-12T10:52:39.100Z,,,,,,,,,,,,,,,,,19,,,,,,,,,,,,,,244.89500000074622,,response,,,,17,D,,,,,,Space,keypress(Space),,,,speech,,,,-------------- --- -------- -------- ---------- ---- -------<br>-- ---------- -- --- ----- ------ ----- ---- --------- ----<br>------- ------ -------- -- ------ ---------- ------ ---<br>------ -- -- ---- -- ---------- -------- ------ ---- predict<br>---- --- --------- ------- ----- --------- ---- ----- --<br>------ -------- -- ------ -- ---- ------------,218007.7000000002,218006.80000000075,217745.378,217756.10000000056,217761.905,218011.839,,34,predict
screen,html.Screen,2_3_1_0_1_35,2022-05-12T10:52:39.438Z,,,,,,,,,,,,,,,,,19,,,,,,,,,,,,,,332.7610000005516,,response,,,,17,D,,,,,,Space,keypress(Space),,,,speech,,,,-------------- --- -------- -------- ---------- ---- -------<br>-- ---------- -- --- ----- ------ ----- ---- --------- ----<br>------- ------ -------- -- ------ ---------- ------ ---<br>------ -- -- ---- -- ---------- -------- ------ ---- -------<br>with --- --------- ------- ----- --------- ---- ----- --<br>------ -------- -- ------ -- ---- ------------,218345.80000000075,218344.60000000056,217995.215,218007.90000000037,218011.839,218361.967,,35,with
screen,html.Screen,2_3_1_0_1_36,2022-05-12T10:52:39.951Z,,,,,,,,,,,,,,,,,19,,,,,,,,,,,,,,495.5329999999958,,response,,,,17,D,,,,,,Space,keypress(Space),,,,speech,,,,-------------- --- -------- -------- ---------- ---- -------<br>-- ---------- -- --- ----- ------ ----- ---- --------- ----<br>------- ------ -------- -- ------ ---------- ------ ---<br>------ -- -- ---- -- ---------- -------- ------ ---- -------<br>---- any --------- ------- ----- --------- ---- ----- --<br>------ -------- -- ------ -- ---- ------------,218858.40000000037,218857.5,218345.192,218346,218361.967,218861.798,,36,any
screen,html.Screen,2_3_1_0_1_37,2022-05-12T10:52:40.186Z,,,,,,,,,,,,,,,,,19,,,,,,,,,,,,,,231.00200000073528,,response,,,,17,D,,,,,,Space,keypress(Space),,,,speech,,,,-------------- --- -------- -------- ---------- ---- -------<br>-- ---------- -- --- ----- ------ ----- ---- --------- ----<br>------- ------ -------- -- ------ ---------- ------ ---<br>------ -- -- ---- -- ---------- -------- ------ ---- -------<br>---- --- certainty ------- ----- --------- ---- ----- --<br>------ -------- -- ------ -- ---- ------------,219093.80000000075,219092.80000000075,218845.127,218858.60000000056,218861.798,219128.533,,37,certainty
screen,html.Screen,2_3_1_0_1_38,2022-05-12T10:52:40.434Z,,,,,,,,,,,,,,,,,19,,,,,,,,,,,,,,212.26700000074925,,response,,,,17,D,,,,,,Space,keypress(Space),,,,speech,,,,-------------- --- -------- -------- ---------- ---- -------<br>-- ---------- -- --- ----- ------ ----- ---- --------- ----<br>------- ------ -------- -- ------ ---------- ------ ---<br>------ -- -- ---- -- ---------- -------- ------ ---- -------<br>---- --- --------- whether ----- --------- ---- ----- --<br>------ -------- -- ------ -- ---- ------------,219341.80000000075,219340.80000000075,219112.769,219094,219128.533,219345.047,,38,whether
screen,html.Screen,2_3_1_0_1_39,2022-05-12T10:52:40.819Z,,,,,,,,,,,,,,,,,19,,,,,,,,,,,,,,380.0530000005674,,response,,,,17,D,,,,,,Space,keypress(Space),,,,speech,,,,-------------- --- -------- -------- ---------- ---- -------<br>-- ---------- -- --- ----- ------ ----- ---- --------- ----<br>------- ------ -------- -- ------ ---------- ------ ---<br>------ -- -- ---- -- ---------- -------- ------ ---- -------<br>---- --- --------- ------- these --------- ---- ----- --<br>------ -------- -- ------ -- ---- ------------,219726,219725.10000000056,219328.537,219342,219345.047,219728.343,,39,these
