sender,sender_type,sender_id,timestamp,meta,,Blues,Classical,Country,Dance,Electronic,Folk,Gospel,Hip-Hop,Jazz,Latin,Musical/Film,New-age,Pop,Prolific_id,Provo_ID,R&B,Rap,Reggae,Religious,Rock,Soul,Swing,Traditional,age,artist_name,correct,correctResponse,distraction,duration,education,ended_on,familiarity,gender,headphone_check_performance,item,list,music_frequency,offensiveness,pleasantness,position_correct,preference,response,response_action,snippet_file,song_name,song_rating,sound,stimulus_1,stimulus_2,stimulus_3,text,time_commit,time_end,time_render,time_run,time_show,time_switch,url,word,word_ID
Prolific ID,html.Form,0,2022-04-25T11:53:11.698Z,"{""labjs_version"":""20.2.2"",""labjs_build"":{""flavor"":""production"",""commit"":""a25486e0c714a0ae2ce03ff94b7bb6896854dcfa""},""location"":""https://run.pavlovia.org/mvasilev/prolific3_music_a/"",""userAgent"":""Mozilla/5.0 (Windows NT 10.0; Win64; x64) AppleWebKit/537.36 (KHTML, like Gecko) Chrome/100.0.4896.127 Safari/537.36"",""platform"":""Win32"",""language"":""en-GB"",""locale"":""en-GB"",""timeZone"":""Europe/London"",""timezoneOffset"":-60,""screen_width"":1680,""screen_height"":1050,""scroll_width"":1680,""scroll_height"":891,""window_innerWidth"":1680,""window_innerHeight"":939,""devicePixelRatio"":1}",,,,,,,,,,,,,,,6037a63eb08c240350cfd0db,,,,,,,,,,,,,,,7521.284,,form submission,,,,,,,,,,,,,,,,,,,,,13739.399999976158,13739,6201.072,6214.399999976158,6217.716,13753.431,{},,
Introduction,html.Screen,1_0,2022-04-25T11:53:17.523Z,,,,,,,,,,,,,,,,,,,,,,,,,,,,,,,5810.868999952316,,response,,,,,,,,,,,continue,click button,,,,,,,,,19565,19564.299999952316,13736.675,13739.799999952316,13753.431,19571.756,,,
Volume calibration,html.Screen,1_1,2022-04-25T11:54:08.084Z,,,,,,,,,,,,,,,,,,,,,,,,,,,,,,,50552.14399997616,,response,,,,,,,,,,,continue,click button,,,,,,,,,70125.79999995232,70123.89999997616,19555.168,19565.100000023842,19571.756,70137.125,,,
Task instructions,html.Screen,1_2,2022-04-25T11:54:21.242Z,,,,,,,,,,,,,,,,,,,,,,,,,,,,,,,13146.875,,response,,,,,,,,,,,continue,click button,,,,,,,,,83284.60000002384,83284,70120.622,70125.89999997616,70137.125,83291.16,,,
Sounds,html.Screen,1_3_0_0,2022-04-25T11:54:25.485Z,,,,,,,,,,,,,,,,,,,,,,,,,,,,,,,4251.379000000001,,timeout,,,,,,,,,3,,,,,,,,O,I,S,,87527.39999997616,87525.761,83274.274,83284.69999992847,83291.16,87542.539,,,
Judgement,html.Screen,1_3_0_1,2022-04-25T11:54:26.531Z,,,,,,,,,,,,,,,,,,,,,,,,,,,,false,3,,1029.6609999284701,,response,,,,,,,,,3,,1,click #choice-1,,,,,O,I,S,,88573,88572.19999992847,87525.761,87527.60000002384,87542.539,88575.85,,,
Trial,flow.Sequence,1_3_0,2022-04-25T11:54:26.531Z,,,,,,,,,,,,,,,,,,,,,,,,,,,,,,,5281.039999928471,,completion,,,,,,,,,3,,,,,,,,O,I,S,,88573.19999992847,88572.19999992847,83274.274,83284.69999992847,83291.16,88575.85,,,
Sounds,html.Screen,1_3_1_0,2022-04-25T11:54:30.769Z,,,,,,,,,,,,,,,,,,,,,,,,,,,,,,,4251.3689999999915,,timeout,,,,,,,,,1,,,,,,,,S,O,I,,92811.29999995232,92810.639,88559.489,88573.5,88575.85,92827.219,,,
Judgement,html.Screen,1_3_1_1,2022-04-25T11:54:36.843Z,,,,,,,,,,,,,,,,,,,,,,,,,,,,true,1,,6056.980999928477,,response,,,,,,,,,1,,1,click #choice-1,,,,,S,O,I,,98885.29999995232,98884.19999992847,92810.639,92811.39999997616,92827.219,98895.848,,,
Trial,flow.Sequence,1_3_1,2022-04-25T11:54:36.843Z,,,,,,,,,,,,,,,,,,,,,,,,,,,,,,,10308.349999928469,,completion,,,,,,,,,1,,,,,,,,S,O,I,,98885.60000002384,98884.19999992847,88559.489,88573.29999995232,88575.85,98895.848,,,
Sounds,html.Screen,1_3_2_0,2022-04-25T11:54:41.089Z,,,,,,,,,,,,,,,,,,,,,,,,,,,,,,,4251.127000000008,,timeout,,,,,,,,,2,,,,,,,,I,S,O,,103131.19999992847,103130.415,98878.937,98885.79999995232,98895.848,103146.975,,,
Judgement,html.Screen,1_3_2_1,2022-04-25T11:54:42.011Z,,,,,,,,,,,,,,,,,,,,,,,,,,,,true,2,,905.2249999284686,,response,,,,,,,,,2,,2,click #choice-2,,,,,I,S,O,,104053,104052.19999992847,103130.415,103131.29999995232,103146.975,104063.856,,,
Trial,flow.Sequence,1_3_2,2022-04-25T11:54:42.011Z,,,,,,,,,,,,,,,,,,,,,,,,,,,,,,,5156.351999928476,,completion,,,,,,,,,2,,,,,,,,I,S,O,,104053.19999992847,104052.19999992847,98878.937,98885.69999992847,98895.848,104063.856,,,
Sounds,html.Screen,1_3_3_0,2022-04-25T11:54:46.258Z,,,,,,,,,,,,,,,,,,,,,,,,,,,,,,,4251.479000000007,,timeout,,,,,,,,,3,,,,,,,,I,O,S,,108299.79999995232,108298.634,104047.192,104053.39999997616,104063.856,108315.335,,,
Judgement,html.Screen,1_3_3_1,2022-04-25T11:54:46.899Z,,,,,,,,,,,,,,,,,,,,,,,,,,,,true,3,,624.864999928468,,response,,,,,,,,,3,,3,click #choice-3,,,,,I,O,S,,108940.79999995232,108940.19999992847,108298.634,108300,108315.335,108948.651,,,
Trial,flow.Sequence,1_3_3,2022-04-25T11:54:46.899Z,,,,,,,,,,,,,,,,,,,,,,,,,,,,,,,4876.343999928475,,completion,,,,,,,,,3,,,,,,,,I,O,S,,108940.89999997616,108940.19999992847,104047.192,104053.29999995232,104063.856,108948.651,,,
Sounds,html.Screen,1_3_4_0,2022-04-25T11:54:51.142Z,,,,,,,,,,,,,,,,,,,,,,,,,,,,,,,4251.376000000004,,timeout,,,,,,,,,2,,,,,,,,O,S,I,,113184.19999992847,113183.505,108932.116,108941,108948.651,113200.027,,,
Judgement,html.Screen,1_3_4_1,2022-04-25T11:54:51.746Z,,,,,,,,,,,,,,,,,,,,,,,,,,,,true,2,,587.8729999761563,,response,,,,,,,,,2,,2,click #choice-2,,,,,O,S,I,,113788.5,113787.89999997616,113183.505,113184.29999995232,113200.027,113800.291,,,
Trial,flow.Sequence,1_3_4,2022-04-25T11:54:51.746Z,,,,,,,,,,,,,,,,,,,,,,,,,,,,,,,4839.24899997616,,completion,,,,,,,,,2,,,,,,,,O,S,I,,113788.69999992847,113787.89999997616,108932.116,108940.89999997616,108948.651,113800.291,,,
Sounds,html.Screen,1_3_5_0,2022-04-25T11:54:55.995Z,,,,,,,,,,,,,,,,,,,,,,,,,,,,,,,4251.447,,timeout,,,,,,,,,1,,,,,,,,S,I,O,,118036.79999995232,118034.737,113783.547,113788.69999992847,113800.291,118051.738,,,
Judgement,html.Screen,1_3_5_1,2022-04-25T11:54:56.819Z,,,,,,,,,,,,,,,,,,,,,,,,,,,,true,1,,808.3620000238443,,response,,,,,,,,,1,,1,click #choice-1,,,,,S,I,O,,118860.79999995232,118860.10000002384,118034.737,118036.79999995232,118051.738,118868.396,,,
Trial,flow.Sequence,1_3_5,2022-04-25T11:54:56.819Z,,,,,,,,,,,,,,,,,,,,,,,,,,,,,,,5059.809000023844,,completion,,,,,,,,,1,,,,,,,,S,I,O,,118860.89999997616,118860.10000002384,113783.547,113788.69999992847,113800.291,118868.396,,,
Task,flow.Loop,1_3,2022-04-25T11:54:56.822Z,,,,,,,,,,,,,,,,,,,,,,,,,,,,,,,35568.94000002384,,completion,,,0.8333333333333334,,,,,,,,,,,,,,,,,,118863.69999992847,118860.10000002384,83274.274,83284.69999992847,83291.16,118868.396,,,
Trap,html.Screen,1_4,2022-04-25T11:54:56.822Z,,,,,,,,,,,,,,,,,,,,,,,,,,,,,,,NaN,,skipped,,,,,,,,,,,,,,,,,,,,,118864.29999995232,118860.10000002384,,118864.29999995232,,118868.396,,,
Thanks,html.Screen,1_5,2022-04-25T11:55:01.315Z,,,,,,,,,,,,,,,,,,,,,,,,,,,,,,,4487.803999928481,,response,,,,,,,,,,,continue,click button,,,,,,,,,123356.69999992847,123356.19999992847,118851.633,118864.39999997616,118868.396,130788.538,,,
Headphone screening,flow.Sequence,1,2022-04-25T11:55:01.315Z,,,,,,,,,,,,,,,,,,,,,,,,,,,,,,,109602.76899992848,,completion,,,,,,,,,,,,,,,,,,,,,123356.89999997616,123356.19999992847,13736.675,13739.699999928474,13753.431,130788.538,,,
Instructions,html.Page,2_0,2022-04-25T11:55:39.396Z,,,,,,,,,,,,,,,,,,,,,,,,,,,,,,,30648.761999952316,,form submission,,,,,,,,,,,,,,,,,,,,,161437.60000002384,161437.29999995232,130772.164,130782.79999995232,130788.538,161447.903,,,
Holding screen,html.Screen,2_1_0_0,2022-04-25T11:55:49.393Z,,,,,,,,,,,,,,,,,,,,,,,,,,,,,,,10002.90300000002,,timeout,,,,,,,,,,,,,,,,,,,,,171434.60000002384,171434.125,161431.349,161437.69999992847,161447.903,171450.806,,,
screen,html.Screen,2_1_0_1_0,2022-04-25T11:55:50.518Z,,,,,,,,,,,,,,,,,53,,,,,,,,,,,,,,1106.9939999523049,,response,,,,99,,,,,,,Space,keypress(Space),,,,,,,,When -- ----- -- ------ - ------- --- ----------<br>------------- ------ ------ ---- ---- ------- ----- -- ----<br>-------- ------- -- ---------- --- - --- ----- ----- ----<br>---- --- --- ----- --- ---- ---- ------- ----- ---- -------<br>--- --- -- ----- -- --- ---- -- --- ---- -- ------ ------<br>--- ----- -- ----,172559.39999997616,172557.79999995232,171434.125,171434.69999992847,171450.806,172567.955,,0,When
screen,html.Screen,2_1_0_1_1,2022-04-25T11:55:51.133Z,,,,,,,,,,,,,,,,,53,,,,,,,,,,,,,,605.5450000000128,,response,,,,99,,,,,,,Space,keypress(Space),,,,,,,,---- it ----- -- ------ - ------- --- ----------<br>------------- ------ ------ ---- ---- ------- ----- -- ----<br>-------- ------- -- ---------- --- - --- ----- ----- ----<br>---- --- --- ----- --- ---- ---- ------- ----- ---- -------<br>--- --- -- ----- -- --- ---- -- --- ---- -- ------ ------<br>--- ----- -- ----,173174.10000002384,173173.5,172551.319,172559.5,172567.955,173184.68,,1,it
screen,html.Screen,2_1_0_1_2,2022-04-25T11:55:51.887Z,,,,,,,,,,,,,,,,,53,,,,,,,,,,,,,,743.7199999761651,,response,,,,99,,,,,,,Space,keypress(Space),,,,,,,,---- -- comes -- ------ - ------- --- ----------<br>------------- ------ ------ ---- ---- ------- ----- -- ----<br>-------- ------- -- ---------- --- - --- ----- ----- ----<br>---- --- --- ----- --- ---- ---- ------- ----- ---- -------<br>--- --- -- ----- -- --- ---- -- --- ---- -- ------ ------<br>--- ----- -- ----,173928.89999997616,173928.39999997616,173168.161,173174.29999995232,173184.68,173934.927,,2,comes
screen,html.Screen,2_1_0_1_3,2022-04-25T11:55:52.495Z,,,,,,,,,,,,,,,,,53,,,,,,,,,,,,,,601.4729999761621,,response,,,,99,,,,,,,Space,keypress(Space),,,,,,,,---- -- ----- to ------ - ------- --- ----------<br>------------- ------ ------ ---- ---- ------- ----- -- ----<br>-------- ------- -- ---------- --- - --- ----- ----- ----<br>---- --- --- ----- --- ---- ---- ------- ----- ---- -------<br>--- --- -- ----- -- --- ---- -- --- ---- -- ------ ------<br>--- ----- -- ----,174536.79999995232,174536.39999997616,173918.173,173928.89999997616,173934.927,174551.933,,3,to
screen,html.Screen,2_1_0_1_4,2022-04-25T11:55:53.016Z,,,,,,,,,,,,,,,,,53,,,,,,,,,,,,,,504.76699992848444,,response,,,,99,,,,,,,Space,keypress(Space),,,,,,,,---- -- ----- -- having - ------- --- ----------<br>------------- ------ ------ ---- ---- ------- ----- -- ----<br>-------- ------- -- ---------- --- - --- ----- ----- ----<br>---- --- --- ----- --- ---- ---- ------- ----- ---- -------<br>--- --- -- ----- -- --- ---- -- --- ---- -- ------ ------<br>--- ----- -- ----,175057.29999995232,175056.69999992847,174535.26,174536.79999995232,174551.933,175068.655,,4,having
screen,html.Screen,2_1_0_1_5,2022-04-25T11:55:53.639Z,,,,,,,,,,,,,,,,,53,,,,,,,,,,,,,,611.6449999523174,,response,,,,99,,,,,,,Space,keypress(Space),,,,,,,,---- -- ----- -- ------ a ------- --- ----------<br>------------- ------ ------ ---- ---- ------- ----- -- ----<br>-------- ------- -- ---------- --- - --- ----- ----- ----<br>---- --- --- ----- --- ---- ---- ------- ----- ---- -------<br>--- --- -- ----- -- --- ---- -- --- ---- -- ------ ------<br>--- ----- -- ----,175681,175680.29999995232,175052.053,175057.29999995232,175068.655,175685.491,,5,a
screen,html.Screen,2_1_0_1_6,2022-04-25T11:55:54.264Z,,,,,,,,,,,,,,,,,53,,,,,,,,,,,,,,619.1090000238328,,response,,,,99,,,,,,,Space,keypress(Space),,,,,,,,---- -- ----- -- ------ - lasting --- ----------<br>------------- ------ ------ ---- ---- ------- ----- -- ----<br>-------- ------- -- ---------- --- - --- ----- ----- ----<br>---- --- --- ----- --- ---- ---- ------- ----- ---- -------<br>--- --- -- ----- -- --- ---- -- --- ---- -- ------ ------<br>--- ----- -- ----,176305.19999992847,176304.60000002384,175668.912,175681,175685.491,176318.953,,6,lasting
screen,html.Screen,2_1_0_1_7,2022-04-25T11:55:54.923Z,,,,,,,,,,,,,,,,,53,,,,,,,,,,,,,,644.9469999761495,,response,,,,99,,,,,,,Space,keypress(Space),,,,,,,,---- -- ----- -- ------ - ------- and ----------<br>------------- ------ ------ ---- ---- ------- ----- -- ----<br>-------- ------- -- ---------- --- - --- ----- ----- ----<br>---- --- --- ----- --- ---- ---- ------- ----- ---- -------<br>--- --- -- ----- -- --- ---- -- --- ---- -- ------ ------<br>--- ----- -- ----,176964.29999995232,176963.89999997616,176302.479,176305.29999995232,176318.953,176969.213,,7,and
screen,html.Screen,2_1_0_1_8,2022-04-25T11:55:55.567Z,,,,,,,,,,,,,,,,,53,,,,,,,,,,,,,,638.4869999284856,,response,,,,99,,,,,,,Space,keypress(Space),,,,,,,,---- -- ----- -- ------ - ------- --- fulfilling<br>------------- ------ ------ ---- ---- ------- ----- -- ----<br>-------- ------- -- ---------- --- - --- ----- ----- ----<br>---- --- --- ----- --- ---- ---- ------- ----- ---- -------<br>--- --- -- ----- -- --- ---- -- --- ---- -- ------ ------<br>--- ----- -- ----,177608.19999992847,177607.69999992847,176952.67,176964.5,176969.213,177619.523,,8,fulfilling
screen,html.Screen,2_1_0_1_9,2022-04-25T11:55:56.191Z,,,,,,,,,,,,,,,,,53,,,,,,,,,,,,,,612.3769999761716,,response,,,,99,,,,,,,Space,keypress(Space),,,,,,,,"---- -- ----- -- ------ - ------- --- ----------<br>relationship, ------ ------ ---- ---- ------- ----- -- ----<br>-------- ------- -- ---------- --- - --- ----- ----- ----<br>---- --- --- ----- --- ---- ---- ------- ----- ---- -------<br>--- --- -- ----- -- --- ---- -- --- ---- -- ------ ------<br>--- ----- -- ----",178232.19999992847,178231.89999997616,177602.891,177608.39999997616,177619.523,178236.214,,9,"relationship,"
screen,html.Screen,2_1_0_1_10,2022-04-25T11:55:56.739Z,,,,,,,,,,,,,,,,,53,,,,,,,,,,,,,,543.6859999761509,,response,,,,99,,,,,,,Space,keypress(Space),,,,,,,,---- -- ----- -- ------ - ------- --- ----------<br>------------- common ------ ---- ---- ------- ----- -- ----<br>-------- ------- -- ---------- --- - --- ----- ----- ----<br>---- --- --- ----- --- ---- ---- ------- ----- ---- -------<br>--- --- -- ----- -- --- ---- -- --- ---- -- ------ ------<br>--- ----- -- ----,178780.29999995232,178779.89999997616,178219.51,178232.29999995232,178236.214,178786.351,,10,common
screen,html.Screen,2_1_0_1_11,2022-04-25T11:55:57.354Z,,,,,,,,,,,,,,,,,53,,,,,,,,,,,,,,609.2490000238467,,response,,,,99,,,,,,,Space,keypress(Space),,,,,,,,---- -- ----- -- ------ - ------- --- ----------<br>------------- ------ wisdom ---- ---- ------- ----- -- ----<br>-------- ------- -- ---------- --- - --- ----- ----- ----<br>---- --- --- ----- --- ---- ---- ------- ----- ---- -------<br>--- --- -- ----- -- --- ---- -- --- ---- -- ------ ------<br>--- ----- -- ----,179396.10000002384,179395.60000002384,178769.82,178780.5,178786.351,179403.214,,11,wisdom
screen,html.Screen,2_1_0_1_12,2022-04-25T11:55:57.930Z,,,,,,,,,,,,,,,,,53,,,,,,,,,,,,,,568.2859999999928,,response,,,,99,,,,,,,Space,keypress(Space),,,,,,,,---- -- ----- -- ------ - ------- --- ----------<br>------------- ------ ------ says ---- ------- ----- -- ----<br>-------- ------- -- ---------- --- - --- ----- ----- ----<br>---- --- --- ----- --- ---- ---- ------- ----- ---- -------<br>--- --- -- ----- -- --- ---- -- --- ---- -- ------ ------<br>--- ----- -- ----,179972,179971.5,179386.658,179396.19999992847,179403.214,179986.967,,12,says
screen,html.Screen,2_1_0_1_13,2022-04-25T11:55:58.414Z,,,,,,,,,,,,,,,,,53,,,,,,,,,,,,,,468.43299997615395,,response,,,,99,,,,,,,Space,keypress(Space),,,,,,,,---- -- ----- -- ------ - ------- --- ----------<br>------------- ------ ------ ---- that ------- ----- -- ----<br>-------- ------- -- ---------- --- - --- ----- ----- ----<br>---- --- --- ----- --- ---- ---- ------- ----- ---- -------<br>--- --- -- ----- -- --- ---- -- --- ---- -- ------ ------<br>--- ----- -- ----,180456.10000002384,180455.39999997616,179970.148,179972.10000002384,179986.967,180470.184,,13,that
screen,html.Screen,2_1_0_1_14,2022-04-25T11:55:59.022Z,,,,,,,,,,,,,,,,,53,,,,,,,,,,,,,,592.515999928466,,response,,,,99,,,,,,,Space,keypress(Space),,,,,,,,---- -- ----- -- ------ - ------- --- ----------<br>------------- ------ ------ ---- ---- feeling ----- -- ----<br>-------- ------- -- ---------- --- - --- ----- ----- ----<br>---- --- --- ----- --- ---- ---- ------- ----- ---- -------<br>--- --- -- ----- -- --- ---- -- --- ---- -- ------ ------<br>--- ----- -- ----,181063.19999992847,181062.69999992847,180453.465,180456.19999992847,180470.184,181070.391,,14,feeling
screen,html.Screen,2_1_0_1_15,2022-04-25T11:55:59.626Z,,,,,,,,,,,,,,,,,53,,,,,,,,,,,,,,596.3089999284712,,response,,,,99,,,,,,,Space,keypress(Space),,,,,,,,---- -- ----- -- ------ - ------- --- ----------<br>------------- ------ ------ ---- ---- ------- close -- ----<br>-------- ------- -- ---------- --- - --- ----- ----- ----<br>---- --- --- ----- --- ---- ---- ------- ----- ---- -------<br>--- --- -- ----- -- --- ---- -- --- ---- -- ------ ------<br>--- ----- -- ----,181667.19999992847,181666.69999992847,181053.688,181063.29999995232,181070.391,181670.523,,15,close
screen,html.Screen,2_1_0_1_16,2022-04-25T11:56:00.085Z,,,,,,,,,,,,,,,,,53,,,,,,,,,,,,,,455.67699992848793,,response,,,,99,,,,,,,Space,keypress(Space),,,,,,,,---- -- ----- -- ------ - ------- --- ----------<br>------------- ------ ------ ---- ---- ------- ----- to ----<br>-------- ------- -- ---------- --- - --- ----- ----- ----<br>---- --- --- ----- --- ---- ---- ------- ----- ---- -------<br>--- --- -- ----- -- --- ---- -- --- ---- -- ------ ------<br>--- ----- -- ----,182126.60000002384,182126.19999992847,181654.056,181667.19999992847,181670.523,182137.503,,16,to
screen,html.Screen,2_1_0_1_17,2022-04-25T11:56:00.662Z,,,,,,,,,,,,,,,,,53,,,,,,,,,,,,,,565.3969999761612,,response,,,,99,,,,,,,Space,keypress(Space),,,,,,,,---- -- ----- -- ------ - ------- --- ----------<br>------------- ------ ------ ---- ---- ------- ----- -- your<br>-------- ------- -- ---------- --- - --- ----- ----- ----<br>---- --- --- ----- --- ---- ---- ------- ----- ---- -------<br>--- --- -- ----- -- --- ---- -- --- ---- -- ------ ------<br>--- ----- -- ----,182703.19999992847,182702.89999997616,182120.863,182126.69999992847,182137.503,182726.315,,17,your
screen,html.Screen,2_1_0_1_18,2022-04-25T11:56:01.278Z,,,,,,,,,,,,,,,,,53,,,,,,,,,,,,,,592.3849999284721,,response,,,,99,,,,,,,Space,keypress(Space),,,,,,,,---- -- ----- -- ------ - ------- --- ----------<br>------------- ------ ------ ---- ---- ------- ----- -- ----<br>romantic ------- -- ---------- --- - --- ----- ----- ----<br>---- --- --- ----- --- ---- ---- ------- ----- ---- -------<br>--- --- -- ----- -- --- ---- -- --- ---- -- ------ ------<br>--- ----- -- ----,183319.19999992847,183318.69999992847,182687.595,182703.29999995232,182726.315,183321.049,,18,romantic
screen,html.Screen,2_1_0_1_19,2022-04-25T11:56:01.950Z,,,,,,,,,,,,,,,,,53,,,,,,,,,,,,,,669.5510000238428,,response,,,,99,,,,,,,Space,keypress(Space),,,,,,,,---- -- ----- -- ------ - ------- --- ----------<br>------------- ------ ------ ---- ---- ------- ----- -- ----<br>-------- partner -- ---------- --- - --- ----- ----- ----<br>---- --- --- ----- --- ---- ---- ------- ----- ---- -------<br>--- --- -- ----- -- --- ---- -- --- ---- -- ------ ------<br>--- ----- -- ----,183991.10000002384,183990.60000002384,183304.331,183319.39999997616,183321.049,184004.738,,19,partner
screen,html.Screen,2_1_0_1_20,2022-04-25T11:56:02.373Z,,,,,,,,,,,,,,,,,53,,,,,,,,,,,,,,409.0619999523042,,response,,,,99,,,,,,,Space,keypress(Space),,,,,,,,---- -- ----- -- ------ - ------- --- ----------<br>------------- ------ ------ ---- ---- ------- ----- -- ----<br>-------- ------- is ---------- --- - --- ----- ----- ----<br>---- --- --- ----- --- ---- ---- ------- ----- ---- -------<br>--- --- -- ----- -- --- ---- -- --- ---- -- ------ ------<br>--- ----- -- ----,184414.19999992847,184413.79999995232,183988.097,183991.29999995232,184004.738,184421.38,,20,is
screen,html.Screen,2_1_0_1_21,2022-04-25T11:56:02.997Z,,,,,,,,,,,,,,,,,53,,,,,,,,,,,,,,616.7200000238372,,response,,,,99,,,,,,,Space,keypress(Space),,,,,,,,---- -- ----- -- ------ - ------- --- ----------<br>------------- ------ ------ ---- ---- ------- ----- -- ----<br>-------- ------- -- paramount. --- - --- ----- ----- ----<br>---- --- --- ----- --- ---- ---- ------- ----- ---- -------<br>--- --- -- ----- -- --- ---- -- --- ---- -- ------ ------<br>--- ----- -- ----,185038.79999995232,185038.10000002384,184404.732,184414.39999997616,184421.38,185055.065,,21,paramount.
screen,html.Screen,2_1_0_1_22,2022-04-25T11:56:03.661Z,,,,,,,,,,,,,,,,,53,,,,,,,,,,,,,,646.6349999284721,,response,,,,99,,,,,,,Space,keypress(Space),,,,,,,,---- -- ----- -- ------ - ------- --- ----------<br>------------- ------ ------ ---- ---- ------- ----- -- ----<br>-------- ------- -- ---------- But - --- ----- ----- ----<br>---- --- --- ----- --- ---- ---- ------- ----- ---- -------<br>--- --- -- ----- -- --- ---- -- --- ---- -- ------ ------<br>--- ----- -- ----,185702.19999992847,185701.69999992847,185038.339,185039,185055.065,185705.174,,22,But
screen,html.Screen,2_1_0_1_23,2022-04-25T11:56:04.069Z,,,,,,,,,,,,,,,,,53,,,,,,,,,,,,,,404.4260000238428,,response,,,,99,,,,,,,Space,keypress(Space),,,,,,,,---- -- ----- -- ------ - ------- --- ----------<br>------------- ------ ------ ---- ---- ------- ----- -- ----<br>-------- ------- -- ---------- --- a --- ----- ----- ----<br>---- --- --- ----- --- ---- ---- ------- ----- ---- -------<br>--- --- -- ----- -- --- ---- -- --- ---- -- ------ ------<br>--- ----- -- ----,186110.29999995232,186109.60000002384,185688.471,185702.19999992847,185705.174,186121.925,,23,a
screen,html.Screen,2_1_0_1_24,2022-04-25T11:56:04.441Z,,,,,,,,,,,,,,,,,53,,,,,,,,,,,,,,360.1750000238535,,response,,,,99,,,,,,,Space,keypress(Space),,,,,,,,---- -- ----- -- ------ - ------- --- ----------<br>------------- ------ ------ ---- ---- ------- ----- -- ----<br>-------- ------- -- ---------- --- - new ----- ----- ----<br>---- --- --- ----- --- ---- ---- ------- ----- ---- -------<br>--- --- -- ----- -- --- ---- -- --- ---- -- ------ ------<br>--- ----- -- ----,186482.60000002384,186482.10000002384,186105.225,186110.29999995232,186121.925,186488.679,,24,new
screen,html.Screen,2_1_0_1_25,2022-04-25T11:56:05.002Z,,,,,,,,,,,,,,,,,53,,,,,,,,,,,,,,553.8209999999963,,response,,,,99,,,,,,,Space,keypress(Space),,,,,,,,---- -- ----- -- ------ - ------- --- ----------<br>------------- ------ ------ ---- ---- ------- ----- -- ----<br>-------- ------- -- ---------- --- - --- study ----- ----<br>---- --- --- ----- --- ---- ---- ------- ----- ---- -------<br>--- --- -- ----- -- --- ---- -- --- ---- -- ------ ------<br>--- ----- -- ----,187043.29999995232,187042.5,186472.008,186482.79999995232,186488.679,187055.493,,25,study
screen,html.Screen,2_1_0_1_26,2022-04-25T11:56:05.384Z,,,,,,,,,,,,,,,,,53,,,,,,,,,,,,,,369.8069999523286,,response,,,,99,,,,,,,Space,keypress(Space),,,,,,,,---- -- ----- -- ------ - ------- --- ----------<br>------------- ------ ------ ---- ---- ------- ----- -- ----<br>-------- ------- -- ---------- --- - --- ----- finds ----<br>---- --- --- ----- --- ---- ---- ------- ----- ---- -------<br>--- --- -- ----- -- --- ---- -- --- ---- -- ------ ------<br>--- ----- -- ----,187425.69999992847,187425.29999995232,187038.972,187043.5,187055.493,187438.925,,26,finds
screen,html.Screen,2_1_0_1_27,2022-04-25T11:56:05.820Z,,,,,,,,,,,,,,,,,53,,,,,,,,,,,,,,422.6750000238535,,response,,,,99,,,,,,,Space,keypress(Space),,,,,,,,---- -- ----- -- ------ - ------- --- ----------<br>------------- ------ ------ ---- ---- ------- ----- -- ----<br>-------- ------- -- ---------- --- - --- ----- ----- that<br>---- --- --- ----- --- ---- ---- ------- ----- ---- -------<br>--- --- -- ----- -- --- ---- -- --- ---- -- ------ ------<br>--- ----- -- ----,187862,187861.60000002384,187422.254,187425.79999995232,187438.925,187872.682,,27,that
screen,html.Screen,2_1_0_1_28,2022-04-25T11:56:06.269Z,,,,,,,,,,,,,,,,,53,,,,,,,,,,,,,,437.0179999284737,,response,,,,99,,,,,,,Space,keypress(Space),,,,,,,,---- -- ----- -- ------ - ------- --- ----------<br>------------- ------ ------ ---- ---- ------- ----- -- ----<br>-------- ------- -- ---------- --- - --- ----- ----- ----<br>it's --- --- ----- --- ---- ---- ------- ----- ---- -------<br>--- --- -- ----- -- --- ---- -- --- ---- -- ------ ------<br>--- ----- -- ----,188310.29999995232,188309.69999992847,187856.019,187862,187872.682,188322.712,,28,it's
screen,html.Screen,2_1_0_1_29,2022-04-25T11:56:06.648Z,,,,,,,,,,,,,,,,,53,,,,,,,,,,,,,,365.9879999284749,,response,,,,99,,,,,,,Space,keypress(Space),,,,,,,,---- -- ----- -- ------ - ------- --- ----------<br>------------- ------ ------ ---- ---- ------- ----- -- ----<br>-------- ------- -- ---------- --- - --- ----- ----- ----<br>---- not --- ----- --- ---- ---- ------- ----- ---- -------<br>--- --- -- ----- -- --- ---- -- --- ---- -- ------ ------<br>--- ----- -- ----,188689.5,188688.69999992847,188306.044,188310.39999997616,188322.712,188705.993,,29,not
screen,html.Screen,2_1_0_1_30,2022-04-25T11:56:07.000Z,,,,,,,,,,,,,,,,,53,,,,,,,,,,,,,,334.9069999761705,,response,,,,99,,,,,,,Space,keypress(Space),,,,,,,,---- -- ----- -- ------ - ------- --- ----------<br>------------- ------ ------ ---- ---- ------- ----- -- ----<br>-------- ------- -- ---------- --- - --- ----- ----- ----<br>---- --- how ----- --- ---- ---- ------- ----- ---- -------<br>--- --- -- ----- -- --- ---- -- --- ---- -- ------ ------<br>--- ----- -- ----,189041.60000002384,189040.89999997616,188689.334,188689.5,188705.993,189056.28,,30,how
screen,html.Screen,2_1_0_1_31,2022-04-25T11:56:07.392Z,,,,,,,,,,,,,,,,,53,,,,,,,,,,,,,,376.6199999761593,,response,,,,99,,,,,,,Space,keypress(Space),,,,,,,,---- -- ----- -- ------ - ------- --- ----------<br>------------- ------ ------ ---- ---- ------- ----- -- ----<br>-------- ------- -- ---------- --- - --- ----- ----- ----<br>---- --- --- close --- ---- ---- ------- ----- ---- -------<br>--- --- -- ----- -- --- ---- -- --- ---- -- ------ ------<br>--- ----- -- ----,189433.29999995232,189432.89999997616,189039.403,189041.60000002384,189056.28,189439.772,,31,close
screen,html.Screen,2_1_0_1_32,2022-04-25T11:56:07.740Z,,,,,,,,,,,,,,,,,53,,,,,,,,,,,,,,341.2280000000028,,response,,,,99,,,,,,,Space,keypress(Space),,,,,,,,---- -- ----- -- ------ - ------- --- ----------<br>------------- ------ ------ ---- ---- ------- ----- -- ----<br>-------- ------- -- ---------- --- - --- ----- ----- ----<br>---- --- --- ----- you ---- ---- ------- ----- ---- -------<br>--- --- -- ----- -- --- ---- -- --- ---- -- ------ ------<br>--- ----- -- ----,189781.60000002384,189781,189423.019,189433.29999995232,189439.772,189789.624,,32,you
screen,html.Screen,2_1_0_1_33,2022-04-25T11:56:08.059Z,,,,,,,,,,,,,,,,,53,,,,,,,,,,,,,,310.77599997614743,,response,,,,99,,,,,,,Space,keypress(Space),,,,,,,,---- -- ----- -- ------ - ------- --- ----------<br>------------- ------ ------ ---- ---- ------- ----- -- ----<br>-------- ------- -- ---------- --- - --- ----- ----- ----<br>---- --- --- ----- --- feel ---- ------- ----- ---- -------<br>--- --- -- ----- -- --- ---- -- --- ---- -- ------ ------<br>--- ----- -- ----,190101,190100.39999997616,189772.947,189781.69999992847,189789.624,190106.441,,33,feel
screen,html.Screen,2_1_0_1_34,2022-04-25T11:56:08.387Z,,,,,,,,,,,,,,,,,53,,,,,,,,,,,,,,322.15900002385024,,response,,,,99,,,,,,,Space,keypress(Space),,,,,,,,---- -- ----- -- ------ - ------- --- ----------<br>------------- ------ ------ ---- ---- ------- ----- -- ----<br>-------- ------- -- ---------- --- - --- ----- ----- ----<br>---- --- --- ----- --- ---- that ------- ----- ---- -------<br>--- --- -- ----- -- --- ---- -- --- ---- -- ------ ------<br>--- ----- -- ----,190428.89999997616,190428.60000002384,190089.761,190101.10000002384,190106.441,190439.846,,34,that
screen,html.Screen,2_1_0_1_35,2022-04-25T11:56:08.715Z,,,,,,,,,,,,,,,,,53,,,,,,,,,,,,,,316.5539999761677,,response,,,,99,,,,,,,Space,keypress(Space),,,,,,,,---- -- ----- -- ------ - ------- --- ----------<br>------------- ------ ------ ---- ---- ------- ----- -- ----<br>-------- ------- -- ---------- --- - --- ----- ----- ----<br>---- --- --- ----- --- ---- ---- matters ----- ---- -------<br>--- --- -- ----- -- --- ---- -- --- ---- -- ------ ------<br>--- ----- -- ----,190757.10000002384,190756.39999997616,190423.408,190429.10000002384,190439.846,190773.43,,35,matters
screen,html.Screen,2_1_0_1_36,2022-04-25T11:56:09.072Z,,,,,,,,,,,,,,,,,53,,,,,,,,,,,,,,339.4699999761651,,response,,,,99,,,,,,,Space,keypress(Space),,,,,,,,"---- -- ----- -- ------ - ------- --- ----------<br>------------- ------ ------ ---- ---- ------- ----- -- ----<br>-------- ------- -- ---------- --- - --- ----- ----- ----<br>---- --- --- ----- --- ---- ---- ------- most, ---- -------<br>--- --- -- ----- -- --- ---- -- --- ---- -- ------ ------<br>--- ----- -- ----",191113.29999995232,191112.89999997616,190756.623,190757.10000002384,190773.43,191123.363,,36,"most,"
screen,html.Screen,2_1_0_1_37,2022-04-25T11:56:09.412Z,,,,,,,,,,,,,,,,,53,,,,,,,,,,,,,,329.4369999523042,,response,,,,99,,,,,,,Space,keypress(Space),,,,,,,,---- -- ----- -- ------ - ------- --- ----------<br>------------- ------ ------ ---- ---- ------- ----- -- ----<br>-------- ------- -- ---------- --- - --- ----- ----- ----<br>---- --- --- ----- --- ---- ---- ------- ----- it's -------<br>--- --- -- ----- -- --- ---- -- --- ---- -- ------ ------<br>--- ----- -- ----,191453.19999992847,191452.79999995232,191106.916,191113.5,191123.363,191456.894,,37,it's
screen,html.Screen,2_1_0_1_38,2022-04-25T11:56:09.771Z,,,,,,,,,,,,,,,,,53,,,,,,,,,,,,,,355.0059999761579,,response,,,,99,,,,,,,Space,keypress(Space),,,,,,,,---- -- ----- -- ------ - ------- --- ----------<br>------------- ------ ------ ---- ---- ------- ----- -- ----<br>-------- ------- -- ---------- --- - --- ----- ----- ----<br>---- --- --- ----- --- ---- ---- ------- ----- ---- whether<br>--- --- -- ----- -- --- ---- -- --- ---- -- ------ ------<br>--- ----- -- ----,191812.5,191811.89999997616,191440.139,191453.29999995232,191456.894,191823.624,,38,whether
screen,html.Screen,2_1_0_1_39,2022-04-25T11:56:10.107Z,,,,,,,,,,,,,,,,,53,,,,,,,,,,,,,,324.1759999523056,,response,,,,99,,,,,,,Space,keypress(Space),,,,,,,,---- -- ----- -- ------ - ------- --- ----------<br>------------- ------ ------ ---- ---- ------- ----- -- ----<br>-------- ------- -- ---------- --- - --- ----- ----- ----<br>---- --- --- ----- --- ---- ---- ------- ----- ---- -------<br>you --- -- ----- -- --- ---- -- --- ---- -- ------ ------<br>--- ----- -- ----,192148.39999997616,192147.79999995232,191807.01,191812.60000002384,191823.624,192157.243,,39,you
screen,html.Screen,2_1_0_1_40,2022-04-25T11:56:10.455Z,,,,,,,,,,,,,,,,,53,,,,,,,,,,,,,,338.6569999761705,,response,,,,99,,,,,,,Space,keypress(Space),,,,,,,,---- -- ----- -- ------ - ------- --- ----------<br>------------- ------ ------ ---- ---- ------- ----- -- ----<br>-------- ------- -- ---------- --- - --- ----- ----- ----<br>---- --- --- ----- --- ---- ---- ------- ----- ---- -------<br>--- are -- ----- -- --- ---- -- --- ---- -- ------ ------<br>--- ----- -- ----,192496.60000002384,192495.89999997616,192140.471,192148.5,192157.243,192507.315,,40,are
screen,html.Screen,2_1_0_1_41,2022-04-25T11:56:10.747Z,,,,,,,,,,,,,,,,,53,,,,,,,,,,,,,,280.98499995231396,,response,,,,99,,,,,,,Space,keypress(Space),,,,,,,,---- -- ----- -- ------ - ------- --- ----------<br>------------- ------ ------ ---- ---- ------- ----- -- ----<br>-------- ------- -- ---------- --- - --- ----- ----- ----<br>---- --- --- ----- --- ---- ---- ------- ----- ---- -------<br>--- --- as ----- -- --- ---- -- --- ---- -- ------ ------<br>--- ----- -- ----,192788.89999997616,192788.29999995232,192490.627,192496.79999995232,192507.315,192811.461,,41,as
screen,html.Screen,2_1_0_1_42,2022-04-25T11:56:11.103Z,,,,,,,,,,,,,,,,,53,,,,,,,,,,,,,,332.9389999761479,,response,,,,99,,,,,,,Space,keypress(Space),,,,,,,,---- -- ----- -- ------ - ------- --- ----------<br>------------- ------ ------ ---- ---- ------- ----- -- ----<br>-------- ------- -- ---------- --- - --- ----- ----- ----<br>---- --- --- ----- --- ---- ---- ------- ----- ---- -------<br>--- --- -- close -- --- ---- -- --- ---- -- ------ ------<br>--- ----- -- ----,193144.89999997616,193144.39999997616,192774.062,192789,192811.461,193157.371,,42,close
screen,html.Screen,2_1_0_1_43,2022-04-25T11:56:11.499Z,,,,,,,,,,,,,,,,,53,,,,,,,,,,,,,,382.42899995230255,,response,,,,99,,,,,,,Space,keypress(Space),,,,,,,,---- -- ----- -- ------ - ------- --- ----------<br>------------- ------ ------ ---- ---- ------- ----- -- ----<br>-------- ------- -- ---------- --- - --- ----- ----- ----<br>---- --- --- ----- --- ---- ---- ------- ----- ---- -------<br>--- --- -- ----- as --- ---- -- --- ---- -- ------ ------<br>--- ----- -- ----,193540.39999997616,193539.79999995232,193140.844,193145.10000002384,193157.371,193574.105,,43,as
screen,html.Screen,2_1_0_1_44,2022-04-25T11:56:11.851Z,,,,,,,,,,,,,,,,,53,,,,,,,,,,,,,,317.8949999999895,,response,,,,99,,,,,,,Space,keypress(Space),,,,,,,,---- -- ----- -- ------ - ------- --- ----------<br>------------- ------ ------ ---- ---- ------- ----- -- ----<br>-------- ------- -- ---------- --- - --- ----- ----- ----<br>---- --- --- ----- --- ---- ---- ------- ----- ---- -------<br>--- --- -- ----- -- you ---- -- --- ---- -- ------ ------<br>--- ----- -- ----,193892.29999995232,193892,193557.491,193540.60000002384,193574.105,193907.826,,44,you
screen,html.Screen,2_1_0_1_45,2022-04-25T11:56:12.222Z,,,,,,,,,,,,,,,,,53,,,,,,,,,,,,,,355.67399999999907,,response,,,,99,,,,,,,Space,keypress(Space),,,,,,,,---- -- ----- -- ------ - ------- --- ----------<br>------------- ------ ------ ---- ---- ------- ----- -- ----<br>-------- ------- -- ---------- --- - --- ----- ----- ----<br>---- --- --- ----- --- ---- ---- ------- ----- ---- -------<br>--- --- -- ----- -- --- want -- --- ---- -- ------ ------<br>--- ----- -- ----,194264,194263.5,193890.924,193892.29999995232,193907.826,194274.489,,45,want
screen,html.Screen,2_1_0_1_46,2022-04-25T11:56:12.583Z,,,,,,,,,,,,,,,,,53,,,,,,,,,,,,,,349.3109999523149,,response,,,,99,,,,,,,Space,keypress(Space),,,,,,,,---- -- ----- -- ------ - ------- --- ----------<br>------------- ------ ------ ---- ---- ------- ----- -- ----<br>-------- ------- -- ---------- --- - --- ----- ----- ----<br>---- --- --- ----- --- ---- ---- ------- ----- ---- -------<br>--- --- -- ----- -- --- ---- to --- ---- -- ------ ------<br>--- ----- -- ----,194624.29999995232,194623.79999995232,194257.984,194264,194274.489,194641.37,,46,to
screen,html.Screen,2_1_0_1_47,2022-04-25T11:56:12.958Z,,,,,,,,,,,,,,,,,53,,,,,,,,,,,,,,358.0299999761628,,response,,,,99,,,,,,,Space,keypress(Space),,,,,,,,"---- -- ----- -- ------ - ------- --- ----------<br>------------- ------ ------ ---- ---- ------- ----- -- ----<br>-------- ------- -- ---------- --- - --- ----- ----- ----<br>---- --- --- ----- --- ---- ---- ------- ----- ---- -------<br>--- --- -- ----- -- --- ---- -- be, ---- -- ------ ------<br>--- ----- -- ----",194999.69999992847,194999.39999997616,194624.459,194624.39999997616,194641.37,195008.187,,47,"be,"
screen,html.Screen,2_1_0_1_48,2022-04-25T11:56:13.346Z,,,,,,,,,,,,,,,,,53,,,,,,,,,,,,,,378.61299995231093,,response,,,,99,,,,,,,Space,keypress(Space),,,,,,,,---- -- ----- -- ------ - ------- --- ----------<br>------------- ------ ------ ---- ---- ------- ----- -- ----<br>-------- ------- -- ---------- --- - --- ----- ----- ----<br>---- --- --- ----- --- ---- ---- ------- ----- ---- -------<br>--- --- -- ----- -- --- ---- -- --- even -- ------ ------<br>--- ----- -- ----,195387.29999995232,195386.79999995232,194991.194,194999.79999995232,195008.187,195391.319,,48,even
screen,html.Screen,2_1_0_1_49,2022-04-25T11:56:13.677Z,,,,,,,,,,,,,,,,,53,,,,,,,,,,,,,,327.28100002385327,,response,,,,99,,,,,,,Space,keypress(Space),,,,,,,,---- -- ----- -- ------ - ------- --- ----------<br>------------- ------ ------ ---- ---- ------- ----- -- ----<br>-------- ------- -- ---------- --- - --- ----- ----- ----<br>---- --- --- ----- --- ---- ---- ------- ----- ---- -------<br>--- --- -- ----- -- --- ---- -- --- ---- if ------ ------<br>--- ----- -- ----,195718.89999997616,195718.60000002384,195374.842,195387.5,195391.319,195724.843,,49,if
screen,html.Screen,2_1_0_1_50,2022-04-25T11:56:14.034Z,,,,,,,,,,,,,,,,,53,,,,,,,,,,,,,,349.7570000238484,,response,,,,99,,,,,,,Space,keypress(Space),,,,,,,,---- -- ----- -- ------ - ------- --- ----------<br>------------- ------ ------ ---- ---- ------- ----- -- ----<br>-------- ------- -- ---------- --- - --- ----- ----- ----<br>---- --- --- ----- --- ---- ---- ------- ----- ---- -------<br>--- --- -- ----- -- --- ---- -- --- ---- -- that's ------<br>--- ----- -- ----,196075.19999992847,196074.60000002384,195708.262,195719,195724.843,196091.693,,50,that's
screen,html.Screen,2_1_0_1_51,2022-04-25T11:56:14.398Z,,,,,,,,,,,,,,,,,53,,,,,,,,,,,,,,347.3070000000007,,response,,,,99,,,,,,,Space,keypress(Space),,,,,,,,---- -- ----- -- ------ - ------- --- ----------<br>------------- ------ ------ ---- ---- ------- ----- -- ----<br>-------- ------- -- ---------- --- - --- ----- ----- ----<br>---- --- --- ----- --- ---- ---- ------- ----- ---- -------<br>--- --- -- ----- -- --- ---- -- --- ---- -- ------ really<br>--- ----- -- ----,196439.5,196439,196075.029,196075.39999997616,196091.693,196441.674,,51,really
screen,html.Screen,2_1_0_1_52,2022-04-25T11:56:14.774Z,,,,,,,,,,,,,,,,,53,,,,,,,,,,,,,,373.02599992847536,,response,,,,99,,,,,,,Space,keypress(Space),,,,,,,,---- -- ----- -- ------ - ------- --- ----------<br>------------- ------ ------ ---- ---- ------- ----- -- ----<br>-------- ------- -- ---------- --- - --- ----- ----- ----<br>---- --- --- ----- --- ---- ---- ------- ----- ---- -------<br>--- --- -- ----- -- --- ---- -- --- ---- -- ------ ------<br>not ----- -- ----,196815.19999992847,196814.69999992847,196425.001,196439.69999992847,196441.674,196825.122,,52,not
screen,html.Screen,2_1_0_1_53,2022-04-25T11:56:15.130Z,,,,,,,,,,,,,,,,,53,,,,,,,,,,,,,,345.7779999761551,,response,,,,99,,,,,,,Space,keypress(Space),,,,,,,,---- -- ----- -- ------ - ------- --- ----------<br>------------- ------ ------ ---- ---- ------- ----- -- ----<br>-------- ------- -- ---------- --- - --- ----- ----- ----<br>---- --- --- ----- --- ---- ---- ------- ----- ---- -------<br>--- --- -- ----- -- --- ---- -- --- ---- -- ------ ------<br>--- close -- ----,197171.5,197170.89999997616,196808.497,196815.29999995232,196825.122,197175.23,,53,close
screen,html.Screen,2_1_0_1_54,2022-04-25T11:56:15.473Z,,,,,,,,,,,,,,,,,53,,,,,,,,,,,,,,339.16999997614766,,response,,,,99,,,,,,,Space,keypress(Space),,,,,,,,---- -- ----- -- ------ - ------- --- ----------<br>------------- ------ ------ ---- ---- ------- ----- -- ----<br>-------- ------- -- ---------- --- - --- ----- ----- ----<br>---- --- --- ----- --- ---- ---- ------- ----- ---- -------<br>--- --- -- ----- -- --- ---- -- --- ---- -- ------ ------<br>--- ----- at ----,197514.89999997616,197514.39999997616,197158.603,197171.60000002384,197175.23,197525.524,,54,at
screen,html.Screen,2_1_0_1_55,2022-04-25T11:56:17.213Z,,,,,,,,,,,,,,,,,53,,,,,,,,,,,,,,1728.1759999284695,,response,,,,99,,,,,,,Space,keypress(Space),,,,,,,,---- -- ----- -- ------ - ------- --- ----------<br>------------- ------ ------ ---- ---- ------- ----- -- ----<br>-------- ------- -- ---------- --- - --- ----- ----- ----<br>---- --- --- ----- --- ---- ---- ------- ----- ---- -------<br>--- --- -- ----- -- --- ---- -- --- ---- -- ------ ------<br>--- ----- -- all.,199254.29999995232,199253.69999992847,197508.842,197514.89999997616,197525.524,199259.169,,55,all.
Item 99,flow.Loop,2_1_0_1,2022-04-25T11:56:17.213Z,,,,,,,,,,,,,,,,,,,,,,,,,,,,,,,27802.893999928463,,completion,,,,,A,,,,,,,,,,,silence,,,,,199254.5,199253.69999992847,171434.125,171434.69999992847,171450.806,199259.169,,,
Question 1,html.Screen,2_1_0_2,2022-04-25T11:56:21.907Z,,,,,,,,,,,,,,,,,,,,,,,,,,,,true,FALSE,,4689.03099992848,,response,,,,99,A,,,,,,FALSE,click #choice-2,,,,silence,,,,,203948.79999995232,203948.19999992847,199242.621,199254.60000002384,199259.169,203960.784,,,
Question 2,html.Screen,2_1_0_3,2022-04-25T11:56:25.283Z,,,,,,,,,,,,,,,,,,,,,,,,,,,,true,TRUE,,3363.015999952302,,response,,,,99,A,,,,,,TRUE,click #choice-1,,,,silence,,,,,207324.39999997616,207323.79999995232,203943.886,203948.79999995232,203960.784,207328.227,,,
Item 99,flow.Sequence,2_1_0,2022-04-25T11:56:25.283Z,,,,,,,,,,,,,,,,,,,,,,,,,,,,,,,45875.896999952325,,completion,,,,,,,,,,,,,,,,,,,,,207324.60000002384,207323.79999995232,161431.349,161437.69999992847,161447.903,207328.227,,,
Holding screen,html.Screen,2_1_1_0,2022-04-25T11:56:35.274Z,,,,,,,,,,,,,,,,,,,,,,,,,,,,,,,10003.048999999999,,timeout,,,,,,,,,,,,,,,,,,,,,217315.29999995232,217314.661,207311.667,207324.60000002384,207328.227,217331.276,,,
screen,html.Screen,2_1_1_1_0,2022-04-25T11:56:36.471Z,,,,,,,,,,,,,,,,,54,,,,,,,,,,,,,,1181.4239999284619,,response,,,,100,,,,,,,Space,keypress(Space),,,,,,,,At --- ---- --- ------ ----- ------- ---- -- --- ------- --<br>------- ---------- ------ -- ----- -- ----- -- ---- ------<br>--- ----- --- --- ------ -------- ----- --- ------ ----- --<br>----- ----- ---------- --- --- ------ ------ ---- -- ------<br>------- --- ------ ----- --- ---- ------- -- ---- --- --<br>------- ------,218513.10000002384,218512.69999992847,217314.661,217315.5,217331.276,218514.925,,0,At
screen,html.Screen,2_1_1_1_1,2022-04-25T11:56:36.916Z,,,,,,,,,,,,,,,,,54,,,,,,,,,,,,,,442.3749999523279,,response,,,,100,,,,,,,Space,keypress(Space),,,,,,,,-- the ---- --- ------ ----- ------- ---- -- --- ------- --<br>------- ---------- ------ -- ----- -- ----- -- ---- ------<br>--- ----- --- --- ------ -------- ----- --- ------ ----- --<br>----- ----- ---------- --- --- ------ ------ ---- -- ------<br>------- --- ------ ----- --- ---- ------- -- ---- --- --<br>------- ------,218957.69999992847,218957.29999995232,218498.294,218513.19999992847,218514.925,218965.173,,1,the
screen,html.Screen,2_1_1_1_2,2022-04-25T11:56:37.369Z,,,,,,,,,,,,,,,,,54,,,,,,,,,,,,,,444.6269999523065,,response,,,,100,,,,,,,Space,keypress(Space),,,,,,,,-- --- time --- ------ ----- ------- ---- -- --- ------- --<br>------- ---------- ------ -- ----- -- ----- -- ---- ------<br>--- ----- --- --- ------ -------- ----- --- ------ ----- --<br>----- ----- ---------- --- --- ------ ------ ---- -- ------<br>------- --- ------ ----- --- ---- ------- -- ---- --- --<br>------- ------,219410.89999997616,219409.79999995232,218948.597,218957.79999995232,218965.173,219415.209,,2,time
screen,html.Screen,2_1_1_1_3,2022-04-25T11:56:37.796Z,,,,,,,,,,,,,,,,,54,,,,,,,,,,,,,,422.1909999761556,,response,,,,100,,,,,,,Space,keypress(Space),,,,,,,,-- --- ---- the ------ ----- ------- ---- -- --- ------- --<br>------- ---------- ------ -- ----- -- ----- -- ---- ------<br>--- ----- --- --- ------ -------- ----- --- ------ ----- --<br>----- ----- ---------- --- --- ------ ------ ---- -- ------<br>------- --- ------ ----- --- ---- ------- -- ---- --- --<br>------- ------,219838.10000002384,219837.39999997616,219398.805,219411.10000002384,219415.209,219848.828,,3,the
screen,html.Screen,2_1_1_1_4,2022-04-25T11:56:38.197Z,,,,,,,,,,,,,,,,,54,,,,,,,,,,,,,,388.3719999284658,,response,,,,100,,,,,,,Space,keypress(Space),,,,,,,,-- --- ---- --- French ----- ------- ---- -- --- ------- --<br>------- ---------- ------ -- ----- -- ----- -- ---- ------<br>--- ----- --- --- ------ -------- ----- --- ------ ----- --<br>----- ----- ---------- --- --- ------ ------ ---- -- ------<br>------- --- ------ ----- --- ---- ------- -- ---- --- --<br>------- ------,220238.10000002384,220237.19999992847,219832.251,219838.19999992847,219848.828,220248.889,,4,French
screen,html.Screen,2_1_1_1_5,2022-04-25T11:56:38.636Z,,,,,,,,,,,,,,,,,54,,,,,,,,,,,,,,427.81099992847885,,response,,,,100,,,,,,,Space,keypress(Space),,,,,,,,-- --- ---- --- ------ crown ------- ---- -- --- ------- --<br>------- ---------- ------ -- ----- -- ----- -- ---- ------<br>--- ----- --- --- ------ -------- ----- --- ------ ----- --<br>----- ----- ---------- --- --- ------ ------ ---- -- ------<br>------- --- ------ ----- --- ---- ------- -- ---- --- --<br>------- ------,220677.29999995232,220676.69999992847,220232.192,220238.39999997616,220248.889,220682.364,,5,crown
screen,html.Screen,2_1_1_1_6,2022-04-25T11:56:39.242Z,,,,,,,,,,,,,,,,,54,,,,,,,,,,,,,,601.0359999761567,,response,,,,100,,,,,,,Space,keypress(Space),,,,,,,,-- --- ---- --- ------ ----- secured ---- -- --- ------- --<br>------- ---------- ------ -- ----- -- ----- -- ---- ------<br>--- ----- --- --- ------ -------- ----- --- ------ ----- --<br>----- ----- ---------- --- --- ------ ------ ---- -- ------<br>------- --- ------ ----- --- ---- ------- -- ---- --- --<br>------- ------,221283.89999997616,221283.39999997616,220665.823,220677.39999997616,220682.364,221299.113,,6,secured
screen,html.Screen,2_1_1_1_7,2022-04-25T11:56:39.667Z,,,,,,,,,,,,,,,,,54,,,,,,,,,,,,,,408.6869999523042,,response,,,,100,,,,,,,Space,keypress(Space),,,,,,,,-- --- ---- --- ------ ----- ------- much -- --- ------- --<br>------- ---------- ------ -- ----- -- ----- -- ---- ------<br>--- ----- --- --- ------ -------- ----- --- ------ ----- --<br>----- ----- ---------- --- --- ------ ------ ---- -- ------<br>------- --- ------ ----- --- ---- ------- -- ---- --- --<br>------- ------,221708.29999995232,221707.79999995232,221282.607,221283.89999997616,221299.113,221716,,7,much
screen,html.Screen,2_1_1_1_8,2022-04-25T11:56:40.228Z,,,,,,,,,,,,,,,,,54,,,,,,,,,,,,,,552.5,,response,,,,100,,,,,,,Space,keypress(Space),,,,,,,,-- --- ---- --- ------ ----- ------- ---- of --- ------- --<br>------- ---------- ------ -- ----- -- ----- -- ---- ------<br>--- ----- --- --- ------ -------- ----- --- ------ ----- --<br>----- ----- ---------- --- --- ------ ------ ---- -- ------<br>------- --- ------ ----- --- ---- ------- -- ---- --- --<br>------- ------,222269.39999997616,222268.5,221699.235,221708.29999995232,221716,222283.016,,8,of
screen,html.Screen,2_1_1_1_9,2022-04-25T11:56:40.648Z,,,,,,,,,,,,,,,,,54,,,,,,,,,,,,,,405.48399999999674,,response,,,,100,,,,,,,Space,keypress(Space),,,,,,,,-- --- ---- --- ------ ----- ------- ---- -- its ------- --<br>------- ---------- ------ -- ----- -- ----- -- ---- ------<br>--- ----- --- --- ------ -------- ----- --- ------ ----- --<br>----- ----- ---------- --- --- ------ ------ ---- -- ------<br>------- --- ------ ----- --- ---- ------- -- ---- --- --<br>------- ------,222689.29999995232,222688.5,222266.079,222269.60000002384,222283.016,222699.608,,9,its
screen,html.Screen,2_1_1_1_10,2022-04-25T11:56:41.528Z,,,,,,,,,,,,,,,,,54,,,,,,,,,,,,,,868.7919999761507,,response,,,,100,,,,,,,Space,keypress(Space),,,,,,,,-- --- ---- --- ------ ----- ------- ---- -- --- revenue --<br>------- ---------- ------ -- ----- -- ----- -- ---- ------<br>--- ----- --- --- ------ -------- ----- --- ------ ----- --<br>----- ----- ---------- --- --- ------ ------ ---- -- ------<br>------- --- ------ ----- --- ---- ------- -- ---- --- --<br>------- ------,223569.29999995232,223568.39999997616,222683.112,222689.60000002384,222699.608,223583.197,,10,revenue
screen,html.Screen,2_1_1_1_11,2022-04-25T11:56:42.238Z,,,,,,,,,,,,,,,,,54,,,,,,,,,,,,,,696.2029999761726,,response,,,,100,,,,,,,Space,keypress(Space),,,,,,,,-- --- ---- --- ------ ----- ------- ---- -- --- ------- by<br>------- ---------- ------ -- ----- -- ----- -- ---- ------<br>--- ----- --- --- ------ -------- ----- --- ------ ----- --<br>----- ----- ---------- --- --- ------ ------ ---- -- ------<br>------- --- ------ ----- --- ---- ------- -- ---- --- --<br>------- ------,224279.79999995232,224279.39999997616,223566.691,223569.5,223583.197,224283.342,,11,by
screen,html.Screen,2_1_1_1_12,2022-04-25T11:56:42.987Z,,,,,,,,,,,,,,,,,54,,,,,,,,,,,,,,744.4579999523121,,response,,,,100,,,,,,,Space,keypress(Space),,,,,,,,-- --- ---- --- ------ ----- ------- ---- -- --- ------- --<br>issuing ---------- ------ -- ----- -- ----- -- ---- ------<br>--- ----- --- --- ------ -------- ----- --- ------ ----- --<br>----- ----- ---------- --- --- ------ ------ ---- -- ------<br>------- --- ------ ----- --- ---- ------- -- ---- --- --<br>------- ------,225028.79999995232,225027.79999995232,224266.884,224279.79999995232,224283.342,225033.688,,12,issuing
screen,html.Screen,2_1_1_1_13,2022-04-25T11:56:43.356Z,,,,,,,,,,,,,,,,,54,,,,,,,,,,,,,,363.2119999761635,,response,,,,100,,,,,,,Space,keypress(Space),,,,,,,,-- --- ---- --- ------ ----- ------- ---- -- --- ------- --<br>------- government ------ -- ----- -- ----- -- ---- ------<br>--- ----- --- --- ------ -------- ----- --- ------ ----- --<br>----- ----- ---------- --- --- ------ ------ ---- -- ------<br>------- --- ------ ----- --- ---- ------- -- ---- --- --<br>------- ------,225397.79999995232,225396.89999997616,225017.083,225029.10000002384,225033.688,225400.35,,13,government
screen,html.Screen,2_1_1_1_14,2022-04-25T11:56:44.271Z,,,,,,,,,,,,,,,,,54,,,,,,,,,,,,,,911.250000023836,,response,,,,100,,,,,,,Space,keypress(Space),,,,,,,,-- --- ---- --- ------ ----- ------- ---- -- --- ------- --<br>------- ---------- bonds. -- ----- -- ----- -- ---- ------<br>--- ----- --- --- ------ -------- ----- --- ------ ----- --<br>----- ----- ---------- --- --- ------ ------ ---- -- ------<br>------- --- ------ ----- --- ---- ------- -- ---- --- --<br>------- ------,226312.89999997616,226311.60000002384,225383.917,225398.10000002384,225400.35,226317.311,,14,bonds.
screen,html.Screen,2_1_1_1_15,2022-04-25T11:56:44.743Z,,,,,,,,,,,,,,,,,54,,,,,,,,,,,,,,466.18900000001304,,response,,,,100,,,,,,,Space,keypress(Space),,,,,,,,-- --- ---- --- ------ ----- ------- ---- -- --- ------- --<br>------- ---------- ------ In ----- -- ----- -- ---- ------<br>--- ----- --- --- ------ -------- ----- --- ------ ----- --<br>----- ----- ---------- --- --- ------ ------ ---- -- ------<br>------- --- ------ ----- --- ---- ------- -- ---- --- --<br>------- ------,226784.69999992847,226783.5,226300.791,226313.19999992847,226317.311,226801.021,,15,In
screen,html.Screen,2_1_1_1_16,2022-04-25T11:56:45.787Z,,,,,,,,,,,,,,,,,54,,,,,,,,,,,,,,1026.579000023834,,response,,,,100,,,,,,,Space,keypress(Space),,,,,,,,"-- --- ---- --- ------ ----- ------- ---- -- --- ------- --<br>------- ---------- ------ -- 1727, -- ----- -- ---- ------<br>--- ----- --- --- ------ -------- ----- --- ------ ----- --<br>----- ----- ---------- --- --- ------ ------ ---- -- ------<br>------- --- ------ ----- --- ---- ------- -- ---- --- --<br>------- ------",227829,227827.60000002384,226784.316,226784.89999997616,226801.021,227834.478,,16,"1727,"
screen,html.Screen,2_1_1_1_17,2022-04-25T11:56:46.323Z,,,,,,,,,,,,,,,,,54,,,,,,,,,,,,,,528.9219999761553,,response,,,,100,,,,,,,Space,keypress(Space),,,,,,,,-- --- ---- --- ------ ----- ------- ---- -- --- ------- --<br>------- ---------- ------ -- ----- in ----- -- ---- ------<br>--- ----- --- --- ------ -------- ----- --- ------ ----- --<br>----- ----- ---------- --- --- ------ ------ ---- -- ------<br>------- --- ------ ----- --- ---- ------- -- ---- --- --<br>------- ------,228364.19999992847,228363.39999997616,227817.985,227829.29999995232,227834.478,228367.953,,17,in
screen,html.Screen,2_1_1_1_18,2022-04-25T11:56:46.897Z,,,,,,,,,,,,,,,,,54,,,,,,,,,,,,,,569.9469999761495,,response,,,,100,,,,,,,Space,keypress(Space),,,,,,,,-- --- ---- --- ------ ----- ------- ---- -- --- ------- --<br>------- ---------- ------ -- ----- -- order -- ---- ------<br>--- ----- --- --- ------ -------- ----- --- ------ ----- --<br>----- ----- ---------- --- --- ------ ------ ---- -- ------<br>------- --- ------ ----- --- ---- ------- -- ---- --- --<br>------- ------,228938.39999997616,228937.89999997616,228351.583,228364.5,228367.953,228951.619,,18,order
screen,html.Screen,2_1_1_1_19,2022-04-25T11:56:47.337Z,,,,,,,,,,,,,,,,,54,,,,,,,,,,,,,,426.68099995231023,,response,,,,100,,,,,,,Space,keypress(Space),,,,,,,,-- --- ---- --- ------ ----- ------- ---- -- --- ------- --<br>------- ---------- ------ -- ----- -- ----- to ---- ------<br>--- ----- --- --- ------ -------- ----- --- ------ ----- --<br>----- ----- ---------- --- --- ------ ------ ---- -- ------<br>------- --- ------ ----- --- ---- ------- -- ---- --- --<br>------- ------,229379.19999992847,229378.29999995232,228934.971,228938.5,228951.619,229384.938,,19,to
screen,html.Screen,2_1_1_1_20,2022-04-25T11:56:47.868Z,,,,,,,,,,,,,,,,,54,,,,,,,,,,,,,,524.6620000238472,,response,,,,100,,,,,,,Space,keypress(Space),,,,,,,,-- --- ---- --- ------ ----- ------- ---- -- --- ------- --<br>------- ---------- ------ -- ----- -- ----- -- save ------<br>--- ----- --- --- ------ -------- ----- --- ------ ----- --<br>----- ----- ---------- --- --- ------ ------ ---- -- ------<br>------- --- ------ ----- --- ---- ------- -- ---- --- --<br>------- ------,229910.10000002384,229909.60000002384,229368.281,229379.39999997616,229384.938,229918.623,,20,save
screen,html.Screen,2_1_1_1_21,2022-04-25T11:56:48.422Z,,,,,,,,,,,,,,,,,54,,,,,,,,,,,,,,543.8770000000077,,response,,,,100,,,,,,,Space,keypress(Space),,,,,,,,"-- --- ---- --- ------ ----- ------- ---- -- --- ------- --<br>------- ---------- ------ -- ----- -- ----- -- ---- money,<br>--- ----- --- --- ------ -------- ----- --- ------ ----- --<br>----- ----- ---------- --- --- ------ ------ ---- -- ------<br>------- --- ------ ----- --- ---- ------- -- ---- --- --<br>------- ------",230463.39999997616,230462.5,229901.82,229910.10000002384,229918.623,230468.546,,21,"money,"
screen,html.Screen,2_1_1_1_22,2022-04-25T11:56:48.985Z,,,,,,,,,,,,,,,,,54,,,,,,,,,,,,,,557.4539999999979,,response,,,,100,,,,,,,Space,keypress(Space),,,,,,,,-- --- ---- --- ------ ----- ------- ---- -- --- ------- --<br>------- ---------- ------ -- ----- -- ----- -- ---- ------<br>the ----- --- --- ------ -------- ----- --- ------ ----- --<br>----- ----- ---------- --- --- ------ ------ ---- -- ------<br>------- --- ------ ----- --- ---- ------- -- ---- --- --<br>------- ------,231026.60000002384,231026,230451.923,230463.60000002384,230468.546,231035.585,,22,the
screen,html.Screen,2_1_1_1_23,2022-04-25T11:56:49.488Z,,,,,,,,,,,,,,,,,54,,,,,,,,,,,,,,494.01500002385,,response,,,,100,,,,,,,Space,keypress(Space),,,,,,,,-- --- ---- --- ------ ----- ------- ---- -- --- ------- --<br>------- ---------- ------ -- ----- -- ----- -- ---- ------<br>--- state --- --- ------ -------- ----- --- ------ ----- --<br>----- ----- ---------- --- --- ------ ------ ---- -- ------<br>------- --- ------ ----- --- ---- ------- -- ---- --- --<br>------- ------,231529.89999997616,231529.60000002384,231018.686,231026.79999995232,231035.585,231535.731,,23,state
screen,html.Screen,2_1_1_1_24,2022-04-25T11:56:49.929Z,,,,,,,,,,,,,,,,,54,,,,,,,,,,,,,,434.1689999761584,,response,,,,100,,,,,,,Space,keypress(Space),,,,,,,,-- --- ---- --- ------ ----- ------- ---- -- --- ------- --<br>------- ---------- ------ -- ----- -- ----- -- ---- ------<br>--- ----- cut --- ------ -------- ----- --- ------ ----- --<br>----- ----- ---------- --- --- ------ ------ ---- -- ------<br>------- --- ------ ----- --- ---- ------- -- ---- --- --<br>------- ------,231970.29999995232,231969.89999997616,231519.087,231530.10000002384,231535.731,231985.91,,24,cut
screen,html.Screen,2_1_1_1_25,2022-04-25T11:56:50.345Z,,,,,,,,,,,,,,,,,54,,,,,,,,,,,,,,399.8899999523128,,response,,,,100,,,,,,,Space,keypress(Space),,,,,,,,-- --- ---- --- ------ ----- ------- ---- -- --- ------- --<br>------- ---------- ------ -- ----- -- ----- -- ---- ------<br>--- ----- --- the ------ -------- ----- --- ------ ----- --<br>----- ----- ---------- --- --- ------ ------ ---- -- ------<br>------- --- ------ ----- --- ---- ------- -- ---- --- --<br>------- ------,232386.79999995232,232385.79999995232,231969.038,231970.39999997616,231985.91,232402.682,,25,the
screen,html.Screen,2_1_1_1_26,2022-04-25T11:56:50.727Z,,,,,,,,,,,,,,,,,54,,,,,,,,,,,,,,365.5179999284737,,response,,,,100,,,,,,,Space,keypress(Space),,,,,,,,-- --- ---- --- ------ ----- ------- ---- -- --- ------- --<br>------- ---------- ------ -- ----- -- ----- -- ---- ------<br>--- ----- --- --- bonds' -------- ----- --- ------ ----- --<br>----- ----- ---------- --- --- ------ ------ ---- -- ------<br>------- --- ------ ----- --- ---- ------- -- ---- --- --<br>------- ------,232768.5,232768.19999992847,232385.94,232387,232402.682,232798.186,,26,bonds'
screen,html.Screen,2_1_1_1_27,2022-04-25T11:56:51.367Z,,,,,,,,,,,,,,,,,54,,,,,,,,,,,,,,610.314000000013,,response,,,,100,,,,,,,Space,keypress(Space),,,,,,,,-- --- ---- --- ------ ----- ------- ---- -- --- ------- --<br>------- ---------- ------ -- ----- -- ----- -- ---- ------<br>--- ----- --- --- ------ interest ----- --- ------ ----- --<br>----- ----- ---------- --- --- ------ ------ ---- -- ------<br>------- --- ------ ----- --- ---- ------- -- ---- --- --<br>------- ------,233408.89999997616,233408.5,232752.786,232768.60000002384,232798.186,233419.56,,27,interest
screen,html.Screen,2_1_1_1_28,2022-04-25T11:56:51.839Z,,,,,,,,,,,,,,,,,54,,,,,,,,,,,,,,461.0400000238442,,response,,,,100,,,,,,,Space,keypress(Space),,,,,,,,-- --- ---- --- ------ ----- ------- ---- -- --- ------- --<br>------- ---------- ------ -- ----- -- ----- -- ---- ------<br>--- ----- --- --- ------ -------- rate. --- ------ ----- --<br>----- ----- ---------- --- --- ------ ------ ---- -- ------<br>------- --- ------ ----- --- ---- ------- -- ---- --- --<br>------- ------,233881,233880.60000002384,233403.091,233408.89999997616,233419.56,233886.222,,28,rate.
screen,html.Screen,2_1_1_1_29,2022-04-25T11:56:52.377Z,,,,,,,,,,,,,,,,,54,,,,,,,,,,,,,,531.2779999999912,,response,,,,100,,,,,,,Space,keypress(Space),,,,,,,,-- --- ---- --- ------ ----- ------- ---- -- --- ------- --<br>------- ---------- ------ -- ----- -- ----- -- ---- ------<br>--- ----- --- --- ------ -------- ----- The ------ ----- --<br>----- ----- ---------- --- --- ------ ------ ---- -- ------<br>------- --- ------ ----- --- ---- ------- -- ---- --- --<br>------- ------,234418.39999997616,234417.5,233869.761,233881.10000002384,233886.222,234446.593,,29,The
screen,html.Screen,2_1_1_1_30,2022-04-25T11:56:52.867Z,,,,,,,,,,,,,,,,,54,,,,,,,,,,,,,,462.0070000238484,,response,,,,100,,,,,,,Space,keypress(Space),,,,,,,,-- --- ---- --- ------ ----- ------- ---- -- --- ------- --<br>------- ---------- ------ -- ----- -- ----- -- ---- ------<br>--- ----- --- --- ------ -------- ----- --- market ----- --<br>----- ----- ---------- --- --- ------ ------ ---- -- ------<br>------- --- ------ ----- --- ---- ------- -- ---- --- --<br>------- ------,234909,234908.60000002384,234403.038,234418.60000002384,234446.593,234919.993,,30,market
screen,html.Screen,2_1_1_1_31,2022-04-25T11:56:53.333Z,,,,,,,,,,,,,,,,,54,,,,,,,,,,,,,,453.50700000001234,,response,,,,100,,,,,,,Space,keypress(Space),,,,,,,,-- --- ---- --- ------ ----- ------- ---- -- --- ------- --<br>------- ---------- ------ -- ----- -- ----- -- ---- ------<br>--- ----- --- --- ------ -------- ----- --- ------ value --<br>----- ----- ---------- --- --- ------ ------ ---- -- ------<br>------- --- ------ ----- --- ---- ------- -- ---- --- --<br>------- ------,235374.29999995232,235373.5,234903.535,234909,234919.993,235386.949,,31,value
screen,html.Screen,2_1_1_1_32,2022-04-25T11:56:53.785Z,,,,,,,,,,,,,,,,,54,,,,,,,,,,,,,,438.6510000238486,,response,,,,100,,,,,,,Space,keypress(Space),,,,,,,,-- --- ---- --- ------ ----- ------- ---- -- --- ------- --<br>------- ---------- ------ -- ----- -- ----- -- ---- ------<br>--- ----- --- --- ------ -------- ----- --- ------ ----- of<br>----- ----- ---------- --- --- ------ ------ ---- -- ------<br>------- --- ------ ----- --- ---- ------- -- ---- --- --<br>------- ------,235826.39999997616,235825.60000002384,235370.194,235374.60000002384,235386.949,235836.973,,32,of
screen,html.Screen,2_1_1_1_33,2022-04-25T11:56:54.182Z,,,,,,,,,,,,,,,,,54,,,,,,,,,,,,,,386.6270000238437,,response,,,,100,,,,,,,Space,keypress(Space),,,,,,,,-- --- ---- --- ------ ----- ------- ---- -- --- ------- --<br>------- ---------- ------ -- ----- -- ----- -- ---- ------<br>--- ----- --- --- ------ -------- ----- --- ------ ----- --<br>these ----- ---------- --- --- ------ ------ ---- -- ------<br>------- --- ------ ----- --- ---- ------- -- ---- --- --<br>------- ------,236224,236223.60000002384,235820.344,235826.69999992847,235836.973,236236.981,,33,these
screen,html.Screen,2_1_1_1_34,2022-04-25T11:56:54.568Z,,,,,,,,,,,,,,,,,54,,,,,,,,,,,,,,371.71899992847466,,response,,,,100,,,,,,,Space,keypress(Space),,,,,,,,-- --- ---- --- ------ ----- ------- ---- -- --- ------- --<br>------- ---------- ------ -- ----- -- ----- -- ---- ------<br>--- ----- --- --- ------ -------- ----- --- ------ ----- --<br>----- bonds ---------- --- --- ------ ------ ---- -- ------<br>------- --- ------ ----- --- ---- ------- -- ---- --- --<br>------- ------,236609.79999995232,236608.69999992847,236220.464,236224.10000002384,236236.981,236620.682,,34,bonds
screen,html.Screen,2_1_1_1_35,2022-04-25T11:56:55.574Z,,,,,,,,,,,,,,,,,54,,,,,,,,,,,,,,994.8179999999993,,response,,,,100,,,,,,,Space,keypress(Space),,,,,,,,"-- --- ---- --- ------ ----- ------- ---- -- --- ------- --<br>------- ---------- ------ -- ----- -- ----- -- ---- ------<br>--- ----- --- --- ------ -------- ----- --- ------ ----- --<br>----- ----- plummeted, --- --- ------ ------ ---- -- ------<br>------- --- ------ ----- --- ---- ------- -- ---- --- --<br>------- ------",237615.89999997616,237615.5,236603.784,236611.5,236620.682,237620.893,,35,"plummeted,"
screen,html.Screen,2_1_1_1_36,2022-04-25T11:56:56.082Z,,,,,,,,,,,,,,,,,54,,,,,,,,,,,,,,502.5069999761472,,response,,,,100,,,,,,,Space,keypress(Space),,,,,,,,-- --- ---- --- ------ ----- ------- ---- -- --- ------- --<br>------- ---------- ------ -- ----- -- ----- -- ---- ------<br>--- ----- --- --- ------ -------- ----- --- ------ ----- --<br>----- ----- ---------- and --- ------ ------ ---- -- ------<br>------- --- ------ ----- --- ---- ------- -- ---- --- --<br>------- ------,238123.79999995232,238123.39999997616,237604.268,237616,237620.893,238137.748,,36,and
screen,html.Screen,2_1_1_1_37,2022-04-25T11:56:56.444Z,,,,,,,,,,,,,,,,,54,,,,,,,,,,,,,,346.7520000000077,,response,,,,100,,,,,,,Space,keypress(Space),,,,,,,,-- --- ---- --- ------ ----- ------- ---- -- --- ------- --<br>------- ---------- ------ -- ----- -- ----- -- ---- ------<br>--- ----- --- --- ------ -------- ----- --- ------ ----- --<br>----- ----- ---------- --- the ------ ------ ---- -- ------<br>------- --- ------ ----- --- ---- ------- -- ---- --- --<br>------- ------,238485.39999997616,238484.5,238121.082,238123.79999995232,238137.748,238487.675,,37,the
screen,html.Screen,2_1_1_1_38,2022-04-25T11:56:56.781Z,,,,,,,,,,,,,,,,,54,,,,,,,,,,,,,,333.7249999761698,,response,,,,100,,,,,,,Space,keypress(Space),,,,,,,,-- --- ---- --- ------ ----- ------- ---- -- --- ------- --<br>------- ---------- ------ -- ----- -- ----- -- ---- ------<br>--- ----- --- --- ------ -------- ----- --- ------ ----- --<br>----- ----- ---------- --- --- market ------ ---- -- ------<br>------- --- ------ ----- --- ---- ------- -- ---- --- --<br>------- ------,238822.39999997616,238821.39999997616,238471.199,238485.60000002384,238487.675,238837.746,,38,market
screen,html.Screen,2_1_1_1_39,2022-04-25T11:56:57.187Z,,,,,,,,,,,,,,,,,54,,,,,,,,,,,,,,390.05399995230255,,response,,,,100,,,,,,,Space,keypress(Space),,,,,,,,-- --- ---- --- ------ ----- ------- ---- -- --- ------- --<br>------- ---------- ------ -- ----- -- ----- -- ---- ------<br>--- ----- --- --- ------ -------- ----- --- ------ ----- --<br>----- ----- ---------- --- --- ------ became ---- -- ------<br>------- --- ------ ----- --- ---- ------- -- ---- --- --<br>------- ------,239228.29999995232,239227.79999995232,238821.102,238822.5,238837.746,239237.825,,39,became
screen,html.Screen,2_1_1_1_40,2022-04-25T11:56:57.597Z,,,,,,,,,,,,,,,,,54,,,,,,,,,,,,,,400.67499999998836,,response,,,,100,,,,,,,Space,keypress(Space),,,,,,,,-- --- ---- --- ------ ----- ------- ---- -- --- ------- --<br>------- ---------- ------ -- ----- -- ----- -- ---- ------<br>--- ----- --- --- ------ -------- ----- --- ------ ----- --<br>----- ----- ---------- --- --- ------ ------ wary -- ------<br>------- --- ------ ----- --- ---- ------- -- ---- --- --<br>------- ------,239638.89999997616,239638.5,239221.432,239228.29999995232,239237.825,239654.906,,40,wary
screen,html.Screen,2_1_1_1_41,2022-04-25T11:56:57.981Z,,,,,,,,,,,,,,,,,54,,,,,,,,,,,,,,367.49399997617,,response,,,,100,,,,,,,Space,keypress(Space),,,,,,,,-- --- ---- --- ------ ----- ------- ---- -- --- ------- --<br>------- ---------- ------ -- ----- -- ----- -- ---- ------<br>--- ----- --- --- ------ -------- ----- --- ------ ----- --<br>----- ----- ---------- --- --- ------ ------ ---- of ------<br>------- --- ------ ----- --- ---- ------- -- ---- --- --<br>------- ------,240022.79999995232,240022.39999997616,239638.01,239639,239654.906,240038.265,,41,of
screen,html.Screen,2_1_1_1_42,2022-04-25T11:56:58.407Z,,,,,,,,,,,,,,,,,54,,,,,,,,,,,,,,409.3350000238279,,response,,,,100,,,,,,,Space,keypress(Space),,,,,,,,-- --- ---- --- ------ ----- ------- ---- -- --- ------- --<br>------- ---------- ------ -- ----- -- ----- -- ---- ------<br>--- ----- --- --- ------ -------- ----- --- ------ ----- --<br>----- ----- ---------- --- --- ------ ------ ---- -- French<br>------- --- ------ ----- --- ---- ------- -- ---- --- --<br>------- ------,240448.39999997616,240447.60000002384,240021.6,240022.79999995232,240038.265,240454.923,,42,French
screen,html.Screen,2_1_1_1_43,2022-04-25T11:56:59.197Z,,,,,,,,,,,,,,,,,54,,,,,,,,,,,,,,783.3769999523065,,response,,,,100,,,,,,,Space,keypress(Space),,,,,,,,-- --- ---- --- ------ ----- ------- ---- -- --- ------- --<br>------- ---------- ------ -- ----- -- ----- -- ---- ------<br>--- ----- --- --- ------ -------- ----- --- ------ ----- --<br>----- ----- ---------- --- --- ------ ------ ---- -- ------<br>credit. --- ------ ----- --- ---- ------- -- ---- --- --<br>------- ------,241238.69999992847,241238.29999995232,240438.422,240448.69999992847,240454.923,241255.38,,43,credit.
screen,html.Screen,2_1_1_1_44,2022-04-25T11:56:59.614Z,,,,,,,,,,,,,,,,,54,,,,,,,,,,,,,,399.31999992846977,,response,,,,100,,,,,,,Space,keypress(Space),,,,,,,,-- --- ---- --- ------ ----- ------- ---- -- --- ------- --<br>------- ---------- ------ -- ----- -- ----- -- ---- ------<br>--- ----- --- --- ------ -------- ----- --- ------ ----- --<br>----- ----- ---------- --- --- ------ ------ ---- -- ------<br>------- The ------ ----- --- ---- ------- -- ---- --- --<br>------- ------,241655.19999992847,241654.69999992847,241238.493,241238.69999992847,241255.38,241672.258,,44,The
screen,html.Screen,2_1_1_1_45,2022-04-25T11:57:00.041Z,,,,,,,,,,,,,,,,,54,,,,,,,,,,,,,,410.04199995231465,,response,,,,100,,,,,,,Space,keypress(Space),,,,,,,,-- --- ---- --- ------ ----- ------- ---- -- --- ------- --<br>------- ---------- ------ -- ----- -- ----- -- ---- ------<br>--- ----- --- --- ------ -------- ----- --- ------ ----- --<br>----- ----- ---------- --- --- ------ ------ ---- -- ------<br>------- --- French ----- --- ---- ------- -- ---- --- --<br>------- ------,242082.60000002384,242082.29999995232,241655.395,241655.29999995232,241672.258,242088.692,,45,French
screen,html.Screen,2_1_1_1_46,2022-04-25T11:57:00.487Z,,,,,,,,,,,,,,,,,54,,,,,,,,,,,,,,438.80799999999,,response,,,,100,,,,,,,Space,keypress(Space),,,,,,,,-- --- ---- --- ------ ----- ------- ---- -- --- ------- --<br>------- ---------- ------ -- ----- -- ----- -- ---- ------<br>--- ----- --- --- ------ -------- ----- --- ------ ----- --<br>----- ----- ---------- --- --- ------ ------ ---- -- ------<br>------- --- ------ state --- ---- ------- -- ---- --- --<br>------- ------,242528.5,242527.5,242072.217,242082.69999992847,242088.692,242539.067,,46,state
screen,html.Screen,2_1_1_1_47,2022-04-25T11:57:00.897Z,,,,,,,,,,,,,,,,,54,,,,,,,,,,,,,,399.53300002383185,,response,,,,100,,,,,,,Space,keypress(Space),,,,,,,,-- --- ---- --- ------ ----- ------- ---- -- --- ------- --<br>------- ---------- ------ -- ----- -- ----- -- ---- ------<br>--- ----- --- --- ------ -------- ----- --- ------ ----- --<br>----- ----- ---------- --- --- ------ ------ ---- -- ------<br>------- --- ------ ----- was ---- ------- -- ---- --- --<br>------- ------,242939,242938.60000002384,242522.398,242528.79999995232,242539.067,242955.851,,47,was
screen,html.Screen,2_1_1_1_48,2022-04-25T11:57:01.390Z,,,,,,,,,,,,,,,,,54,,,,,,,,,,,,,,474.6490000000049,,response,,,,100,,,,,,,Space,keypress(Space),,,,,,,,-- --- ---- --- ------ ----- ------- ---- -- --- ------- --<br>------- ---------- ------ -- ----- -- ----- -- ---- ------<br>--- ----- --- --- ------ -------- ----- --- ------ ----- --<br>----- ----- ---------- --- --- ------ ------ ---- -- ------<br>------- --- ------ ----- --- left ------- -- ---- --- --<br>------- ------,243431.39999997616,243430.5,242939.012,242939.10000002384,242955.851,243439.242,,48,left
screen,html.Screen,2_1_1_1_49,2022-04-25T11:57:01.842Z,,,,,,,,,,,,,,,,,54,,,,,,,,,,,,,,443.25800000000163,,response,,,,100,,,,,,,Space,keypress(Space),,,,,,,,-- --- ---- --- ------ ----- ------- ---- -- --- ------- --<br>------- ---------- ------ -- ----- -- ----- -- ---- ------<br>--- ----- --- --- ------ -------- ----- --- ------ ----- --<br>----- ----- ---------- --- --- ------ ------ ---- -- ------<br>------- --- ------ ----- --- ---- without -- ---- --- --<br>------- ------,243883.39999997616,243882.5,243422.485,243431.60000002384,243439.242,243889.233,,49,without
screen,html.Screen,2_1_1_1_50,2022-04-25T11:57:02.234Z,,,,,,,,,,,,,,,,,54,,,,,,,,,,,,,,385.466999928467,,response,,,,100,,,,,,,Space,keypress(Space),,,,,,,,-- --- ---- --- ------ ----- ------- ---- -- --- ------- --<br>------- ---------- ------ -- ----- -- ----- -- ---- ------<br>--- ----- --- --- ------ -------- ----- --- ------ ----- --<br>----- ----- ---------- --- --- ------ ------ ---- -- ------<br>------- --- ------ ----- --- ---- ------- an ---- --- --<br>------- ------,244275.69999992847,244274.69999992847,243872.786,243883.60000002384,243889.233,244289.49,,50,an
screen,html.Screen,2_1_1_1_51,2022-04-25T11:57:02.614Z,,,,,,,,,,,,,,,,,54,,,,,,,,,,,,,,365.0100000000093,,response,,,,100,,,,,,,Space,keypress(Space),,,,,,,,-- --- ---- --- ------ ----- ------- ---- -- --- ------- --<br>------- ---------- ------ -- ----- -- ----- -- ---- ------<br>--- ----- --- --- ------ -------- ----- --- ------ ----- --<br>----- ----- ---------- --- --- ------ ------ ---- -- ------<br>------- --- ------ ----- --- ---- ------- -- easy --- --<br>------- ------,244655.60000002384,244654.5,244272.905,244275.79999995232,244289.49,244672.881,,51,easy
screen,html.Screen,2_1_1_1_52,2022-04-25T11:57:03.026Z,,,,,,,,,,,,,,,,,54,,,,,,,,,,,,,,393.61900000000605,,response,,,,100,,,,,,,Space,keypress(Space),,,,,,,,-- --- ---- --- ------ ----- ------- ---- -- --- ------- --<br>------- ---------- ------ -- ----- -- ----- -- ---- ------<br>--- ----- --- --- ------ -------- ----- --- ------ ----- --<br>----- ----- ---------- --- --- ------ ------ ---- -- ------<br>------- --- ------ ----- --- ---- ------- -- ---- way --<br>------- ------,245067.39999997616,245066.5,244656.245,244655.79999995232,244672.881,245073.017,,52,way
screen,html.Screen,2_1_1_1_53,2022-04-25T11:57:03.470Z,,,,,,,,,,,,,,,,,54,,,,,,,,,,,,,,437.3829999761656,,response,,,,100,,,,,,,Space,keypress(Space),,,,,,,,-- --- ---- --- ------ ----- ------- ---- -- --- ------- --<br>------- ---------- ------ -- ----- -- ----- -- ---- ------<br>--- ----- --- --- ------ -------- ----- --- ------ ----- --<br>----- ----- ---------- --- --- ------ ------ ---- -- ------<br>------- --- ------ ----- --- ---- ------- -- ---- --- of<br>------- ------,245511.29999995232,245510.39999997616,245056.5,245067.60000002384,245073.017,245523.13,,53,of
screen,html.Screen,2_1_1_1_54,2022-04-25T11:57:03.878Z,,,,,,,,,,,,,,,,,54,,,,,,,,,,,,,,395.4700000238372,,response,,,,100,,,,,,,Space,keypress(Space),,,,,,,,-- --- ---- --- ------ ----- ------- ---- -- --- ------- --<br>------- ---------- ------ -- ----- -- ----- -- ---- ------<br>--- ----- --- --- ------ -------- ----- --- ------ ----- --<br>----- ----- ---------- --- --- ------ ------ ---- -- ------<br>------- --- ------ ----- --- ---- ------- -- ---- --- --<br>raising ------,245919.39999997616,245918.60000002384,245506.481,245511.5,245523.13,245923.273,,54,raising
screen,html.Screen,2_1_1_1_55,2022-04-25T11:57:05.969Z,,,,,,,,,,,,,,,,,54,,,,,,,,,,,,,,2086.2270000000135,,response,,,,100,,,,,,,Space,keypress(Space),,,,,,,,-- --- ---- --- ------ ----- ------- ---- -- --- ------- --<br>------- ---------- ------ -- ----- -- ----- -- ---- ------<br>--- ----- --- --- ------ -------- ----- --- ------ ----- --<br>----- ----- ---------- --- --- ------ ------ ---- -- ------<br>------- --- ------ ----- --- ---- ------- -- ---- --- --<br>------- money.,248010.5,248009.5,245906.715,245919.60000002384,245923.273,248023.877,,55,money.
Item 100,flow.Loop,2_1_1_1,2022-04-25T11:57:05.969Z,,,,,,,,,,,,,,,,,,,,,,,,,,,,,,,30678.223999999987,,completion,,,,,A,,,,,,,,,,,silence,,,,,248011,248009.5,217314.661,217315.5,217331.276,248023.877,,,
Question 1,html.Screen,2_1_1_2,2022-04-25T11:57:08.475Z,,,,,,,,,,,,,,,,,,,,,,,,,,,,true,TRUE,,2492.3229999284667,,response,,,,100,A,,,,,,TRUE,click #choice-1,,,,silence,,,,,250516.69999992847,250516.19999992847,248007.307,248011.29999995232,248023.877,250524.605,,,
Question 2,html.Screen,2_1_1_3,2022-04-25T11:57:10.507Z,,,,,,,,,,,,,,,,,,,,,,,,,,,,true,FALSE,,2023.3949999999895,,response,,,,100,A,,,,,,FALSE,click #choice-2,,,,silence,,,,,252548.39999997616,252548,250507.927,250516.79999995232,250524.605,252575.416,,,
Item 100,flow.Sequence,2_1_1,2022-04-25T11:57:10.507Z,,,,,,,,,,,,,,,,,,,,,,,,,,,,,,,45219.77299999999,,completion,,,,,,,,,,,,,,,,,,,,,252548.5,252548,207311.667,207324.60000002384,207328.227,252575.416,,,
End of Practice,html.Page,2_1_2,2022-04-25T11:57:16.483Z,,,,,,,,,,,,,,,,,,,,,,,,,,,,,,,5949.483999976161,,form submission,,,,,,,,,,,,,,,,,,,,,258525.10000002384,258524.89999997616,252558.796,252548.60000002384,252575.416,258527.011,,,
Practice,flow.Sequence,2_1,2022-04-25T11:57:16.484Z,,,,,,,,,,,,,,,,,,,,,,,,,,,,,,,97076.99699997617,,completion,,,,,,,,,,,,,,,,,,,,,258525.29999995232,258524.89999997616,161431.349,161437.69999992847,161447.903,258527.011,,,
Trap_instruction,html.Page,2_2_0,2022-04-25T11:57:19.612Z,,,,,,,,,,,,,,,,,,,,,,,,,,,,,,,3126.188999928476,,form submission,,,,,,,,,,,,,,,,,,,,,261653.39999997616,261653.19999992847,258510.548,258525.29999995232,258527.011,261661.273,,,
trap_trial,html.Screen,2_2_1,2022-04-25T11:57:23.523Z,,,,,,,,,,,,,,,,,,,,,,,,,,,,true,1,,3903.02699995233,,response,,,,,,,,,,,1,click #choice-1,,,,,,,,,265564.89999997616,265564.2999999523,261644.638,261653.60000002384,261661.273,265579.092,,,
end of trap trial,html.Page,2_2_2,2022-04-25T11:57:25.628Z,,,,,,,,,,,,,,,,,,,,,,,,,,,,,,,2089.907999999996,,form submission,,,,,,,,,,,,,,,,,,,,,267669.1999999285,267669,265562.666,265565,265579.092,267679.789,,,
Trap 1,flow.Sequence,2_2,2022-04-25T11:57:25.628Z,,,,,,,,,,,,,,,,,,,,,,,,,,,,,,,9141.989000000001,,completion,,,,,,,,,,,,,,,,,,,,,267669.39999997616,267669,258510.548,258525.29999995232,258527.011,267679.789,,,
Standby,html.Page,2_3_0,2022-04-25T11:57:33.625Z,,,,,,,,,,,,,,,,,,,,,,,,,,,,,,,8002.631999999983,,timeout,,,,,,,,,,,,,,,,,,,,,275666.5,275665.55,267663.124,267669.5,267679.789,275682.421,,,
Holding screen,html.Screen,2_3_1_0_0,2022-04-25T11:57:40.627Z,,,,,,,,,,,,,,,,,,,,,,,,,,,,,,,7002.06600000005,,timeout,,,,,,,,,,,,,,,,,,,,,282668.39999997616,282667.873,275665.55,275666.89999997616,275682.421,282684.487,,,
screen,html.Screen,2_3_1_0_1_0,2022-04-25T11:57:41.957Z,,,,,,,,,,,,,,,,,2,,,,,,,,,,,,,,1313.113000023819,,response,,,,1,A,,,,,,Space,keypress(Space),,,,silence,,,,Two ---- ------ --- ------- ---------- ------- ----------<br>--- --------- --- ----------- ------- ----- ------- ---<br>--------- ---- -- --- ---- -- --------- -- ---- -------<br>-- --------- ------ --- ----- ------ ---- --- --------- --<br>------ - ---- -- --- ----------- ------- ---- ----- -----<br>--- -------- - ------ ---- -- ----- ---- --- --- -----------<br>-- -------,283998.60000002384,283997.60000002384,282667.873,282668.5,282684.487,284001.379,,0,Two
screen,html.Screen,2_3_1_0_1_1,2022-04-25T11:57:42.470Z,,,,,,,,,,,,,,,,,2,,,,,,,,,,,,,,509.32099992845906,,response,,,,1,A,,,,,,Space,keypress(Space),,,,silence,,,,--- days ------ --- ------- ---------- ------- ----------<br>--- --------- --- ----------- ------- ----- ------- ---<br>--------- ---- -- --- ---- -- --------- -- ---- -------<br>-- --------- ------ --- ----- ------ ---- --- --------- --<br>------ - ---- -- --- ----------- ------- ---- ----- -----<br>--- -------- - ------ ---- -- ----- ---- --- --- -----------<br>-- -------,284511.10000002384,284510.6999999285,283984.714,283998.89999997616,284001.379,284518.388,,1,days
screen,html.Screen,2_3_1_0_1_2,2022-04-25T11:57:43.003Z,,,,,,,,,,,,,,,,,2,,,,,,,,,,,,,,525.011999976181,,response,,,,1,A,,,,,,Space,keypress(Space),,,,silence,,,,"--- ---- later, --- ------- ---------- ------- ----------<br>--- --------- --- ----------- ------- ----- ------- ---<br>--------- ---- -- --- ---- -- --------- -- ---- -------<br>-- --------- ------ --- ----- ------ ---- --- --------- --<br>------ - ---- -- --- ----------- ------- ---- ----- -----<br>--- -------- - ------ ---- -- ----- ---- --- --- -----------<br>-- -------",285044.2999999523,285043.39999997616,284501.667,284511.1999999285,284518.388,285051.729,,2,"later,"
screen,html.Screen,2_3_1_0_1_3,2022-04-25T11:57:43.551Z,,,,,,,,,,,,,,,,,2,,,,,,,,,,,,,,539.8710000238498,,response,,,,1,A,,,,,,Space,keypress(Space),,,,silence,,,,--- ---- ------ the ------- ---------- ------- ----------<br>--- --------- --- ----------- ------- ----- ------- ---<br>--------- ---- -- --- ---- -- --------- -- ---- -------<br>-- --------- ------ --- ----- ------ ---- --- --------- --<br>------ - ---- -- --- ----------- ------- ---- ----- -----<br>--- -------- - ------ ---- -- ----- ---- --- --- -----------<br>-- -------,285592.5,285591.60000002384,285035.116,285044.60000002384,285051.729,285601.838,,3,the
screen,html.Screen,2_3_1_0_1_4,2022-04-25T11:57:44.011Z,,,,,,,,,,,,,,,,,2,,,,,,,,,,,,,,449.6620000000112,,response,,,,1,A,,,,,,Space,keypress(Space),,,,silence,,,,--- ---- ------ --- British ---------- ------- ----------<br>--- --------- --- ----------- ------- ----- ------- ---<br>--------- ---- -- --- ---- -- --------- -- ---- -------<br>-- --------- ------ --- ----- ------ ---- --- --------- --<br>------ - ---- -- --- ----------- ------- ---- ----- -----<br>--- -------- - ------ ---- -- ----- ---- --- --- -----------<br>-- -------,286052.5,286051.5,285585.181,285592.6999999285,285601.838,286068.659,,4,British
screen,html.Screen,2_3_1_0_1_5,2022-04-25T11:57:44.664Z,,,,,,,,,,,,,,,,,2,,,,,,,,,,,,,,635.740999976173,,response,,,,1,A,,,,,,Space,keypress(Space),,,,silence,,,,--- ---- ------ --- ------- astronomer ------- ----------<br>--- --------- --- ----------- ------- ----- ------- ---<br>--------- ---- -- --- ---- -- --------- -- ---- -------<br>-- --------- ------ --- ----- ------ ---- --- --------- --<br>------ - ---- -- --- ----------- ------- ---- ----- -----<br>--- -------- - ------ ---- -- ----- ---- --- --- -----------<br>-- -------,286705.5,286704.39999997616,286052.146,286052.7999999523,286068.659,286719.061,,5,astronomer
screen,html.Screen,2_3_1_0_1_6,2022-04-25T11:57:45.127Z,,,,,,,,,,,,,,,,,2,,,,,,,,,,,,,,448.8389999761712,,response,,,,1,A,,,,,,Space,keypress(Space),,,,silence,,,,--- ---- ------ --- ------- ---------- Richard ----------<br>--- --------- --- ----------- ------- ----- ------- ---<br>--------- ---- -- --- ---- -- --------- -- ---- -------<br>-- --------- ------ --- ----- ------ ---- --- --------- --<br>------ - ---- -- --- ----------- ------- ---- ----- -----<br>--- -------- - ------ ---- -- ----- ---- --- --- -----------<br>-- -------,287169,287167.89999997616,286702.295,286705.60000002384,286719.061,287185.61,,6,Richard
screen,html.Screen,2_3_1_0_1_7,2022-04-25T11:57:45.674Z,,,,,,,,,,,,,,,,,2,,,,,,,,,,,,,,528.890000000014,,response,,,,1,A,,,,,,Space,keypress(Space),,,,silence,,,,--- ---- ------ --- ------- ---------- ------- Carrington<br>--- --------- --- ----------- ------- ----- ------- ---<br>--------- ---- -- --- ---- -- --------- -- ---- -------<br>-- --------- ------ --- ----- ------ ---- --- --------- --<br>------ - ---- -- --- ----------- ------- ---- ----- -----<br>--- -------- - ------ ---- -- ----- ---- --- --- -----------<br>-- -------,287715.5,287714.5,287169.156,287169.1999999285,287185.61,287719.194,,7,Carrington
screen,html.Screen,2_3_1_0_1_8,2022-04-25T11:57:46.170Z,,,,,,,,,,,,,,,,,2,,,,,,,,,,,,,,491.40600002382416,,response,,,,1,A,,,,,,Space,keypress(Space),,,,silence,,,,--- ---- ------ --- ------- ---------- ------- ----------<br>was --------- --- ----------- ------- ----- ------- ---<br>--------- ---- -- --- ---- -- --------- -- ---- -------<br>-- --------- ------ --- ----- ------ ---- --- --------- --<br>------ - ---- -- --- ----------- ------- ---- ----- -----<br>--- -------- - ------ ---- -- ----- ---- --- --- -----------<br>-- -------,288211.5,288210.60000002384,287702.612,287715.60000002384,287719.194,288219.342,,8,was
screen,html.Screen,2_3_1_0_1_9,2022-04-25T11:57:46.561Z,,,,,,,,,,,,,,,,,2,,,,,,,,,,,,,,382.4579999523121,,response,,,,1,A,,,,,,Space,keypress(Space),,,,silence,,,,--- ---- ------ --- ------- ---------- ------- ----------<br>--- observing --- ----------- ------- ----- ------- ---<br>--------- ---- -- --- ---- -- --------- -- ---- -------<br>-- --------- ------ --- ----- ------ ---- --- --------- --<br>------ - ---- -- --- ----------- ------- ---- ----- -----<br>--- -------- - ------ ---- -- ----- ---- --- --- -----------<br>-- -------,288602.2999999523,288601.7999999523,288202.791,288211.7999999523,288219.342,288619.561,,9,observing
screen,html.Screen,2_3_1_0_1_10,2022-04-25T11:57:46.893Z,,,,,,,,,,,,,,,,,2,,,,,,,,,,,,,,314.3389999761712,,response,,,,1,A,,,,,,Space,keypress(Space),,,,silence,,,,--- ---- ------ --- ------- ---------- ------- ----------<br>--- --------- the ----------- ------- ----- ------- ---<br>--------- ---- -- --- ---- -- --------- -- ---- -------<br>-- --------- ------ --- ----- ------ ---- --- --------- --<br>------ - ---- -- --- ----------- ------- ---- ----- -----<br>--- -------- - ------ ---- -- ----- ---- --- --- -----------<br>-- -------,288934.5,288933.89999997616,288602.781,288602.5,288619.561,288967.314,,10,the
screen,html.Screen,2_3_1_0_1_11,2022-04-25T11:57:47.333Z,,,,,,,,,,,,,,,,,2,,,,,,,,,,,,,,406.3859999284614,,response,,,,1,A,,,,,,Space,keypress(Space),,,,silence,,,,--- ---- ------ --- ------- ---------- ------- ----------<br>--- --------- --- interesting ------- ----- ------- ---<br>--------- ---- -- --- ---- -- --------- -- ---- -------<br>-- --------- ------ --- ----- ------ ---- --- --------- --<br>------ - ---- -- --- ----------- ------- ---- ----- -----<br>--- -------- - ------ ---- -- ----- ---- --- --- -----------<br>-- -------,289374.10000002384,289373.6999999285,288919.686,288934.60000002384,288967.314,289386.26,,11,interesting
screen,html.Screen,2_3_1_0_1_12,2022-04-25T11:57:47.805Z,,,,,,,,,,,,,,,,,2,,,,,,,,,,,,,,459.4399999284651,,response,,,,1,A,,,,,,Space,keypress(Space),,,,silence,,,,--- ---- ------ --- ------- ---------- ------- ----------<br>--- --------- --- ----------- sunspot ----- ------- ---<br>--------- ---- -- --- ---- -- --------- -- ---- -------<br>-- --------- ------ --- ----- ------ ---- --- --------- --<br>------ - ---- -- --- ----------- ------- ---- ----- -----<br>--- -------- - ------ ---- -- ----- ---- --- --- -----------<br>-- -------,289846.1999999285,289845.6999999285,289369.846,289374.1999999285,289386.26,289853.208,,12,sunspot
screen,html.Screen,2_3_1_0_1_13,2022-04-25T11:57:48.504Z,,,,,,,,,,,,,,,,,2,,,,,,,,,,,,,,692.0919999523321,,response,,,,1,A,,,,,,Space,keypress(Space),,,,silence,,,,--- ---- ------ --- ------- ---------- ------- ----------<br>--- --------- --- ----------- ------- group ------- ---<br>--------- ---- -- --- ---- -- --------- -- ---- -------<br>-- --------- ------ --- ----- ------ ---- --- --------- --<br>------ - ---- -- --- ----------- ------- ---- ----- -----<br>--- -------- - ------ ---- -- ----- ---- --- --- -----------<br>-- -------,290545.6999999285,290545.2999999523,289836.675,289846.1999999285,289853.208,290553.369,,13,group
screen,html.Screen,2_3_1_0_1_14,2022-04-25T11:57:48.929Z,,,,,,,,,,,,,,,,,2,,,,,,,,,,,,,,415.93099995231023,,response,,,,1,A,,,,,,Space,keypress(Space),,,,silence,,,,--- ---- ------ --- ------- ---------- ------- ----------<br>--- --------- --- ----------- ------- ----- through ---<br>--------- ---- -- --- ---- -- --------- -- ---- -------<br>-- --------- ------ --- ----- ------ ---- --- --------- --<br>------ - ---- -- --- ----------- ------- ---- ----- -----<br>--- -------- - ------ ---- -- ----- ---- --- --- -----------<br>-- -------,290970.39999997616,290969.2999999523,290536.682,290545.6999999285,290553.369,290987.006,,14,through
screen,html.Screen,2_3_1_0_1_15,2022-04-25T11:57:49.344Z,,,,,,,,,,,,,,,,,2,,,,,,,,,,,,,,397.0940000238479,,response,,,,1,A,,,,,,Space,keypress(Space),,,,silence,,,,--- ---- ------ --- ------- ---------- ------- ----------<br>--- --------- --- ----------- ------- ----- ------- his<br>--------- ---- -- --- ---- -- --------- -- ---- -------<br>-- --------- ------ --- ----- ------ ---- --- --------- --<br>------ - ---- -- --- ----------- ------- ---- ----- -----<br>--- -------- - ------ ---- -- ----- ---- --- --- -----------<br>-- -------,291385.10000002384,291384.10000002384,290970.314,290970.60000002384,290987.006,291386.86,,15,his
screen,html.Screen,2_3_1_0_1_16,2022-04-25T11:57:49.683Z,,,,,,,,,,,,,,,,,2,,,,,,,,,,,,,,337.7400000238558,,response,,,,1,A,,,,,,Space,keypress(Space),,,,silence,,,,--- ---- ------ --- ------- ---------- ------- ----------<br>--- --------- --- ----------- ------- ----- ------- ---<br>telescope ---- -- --- ---- -- --------- -- ---- -------<br>-- --------- ------ --- ----- ------ ---- --- --------- --<br>------ - ---- -- --- ----------- ------- ---- ----- -----<br>--- -------- - ------ ---- -- ----- ---- --- --- -----------<br>-- -------,291725,291724.60000002384,291370.307,291385.2999999523,291386.86,291737.18,,16,telescope
screen,html.Screen,2_3_1_0_1_17,2022-04-25T11:57:50.225Z,,,,,,,,,,,,,,,,,2,,,,,,,,,,,,,,528.4200000238488,,response,,,,1,A,,,,,,Space,keypress(Space),,,,silence,,,,--- ---- ------ --- ------- ---------- ------- ----------<br>--- --------- --- ----------- ------- ----- ------- ---<br>--------- when -- --- ---- -- --------- -- ---- -------<br>-- --------- ------ --- ----- ------ ---- --- --------- --<br>------ - ---- -- --- ----------- ------- ---- ----- -----<br>--- -------- - ------ ---- -- ----- ---- --- --- -----------<br>-- -------,292266.5,292265.60000002384,291720.295,291725,291737.18,292270.444,,17,when
screen,html.Screen,2_3_1_0_1_18,2022-04-25T11:57:50.579Z,,,,,,,,,,,,,,,,,2,,,,,,,,,,,,,,349.8559999522986,,response,,,,1,A,,,,,,Space,keypress(Space),,,,silence,,,,--- ---- ------ --- ------- ---------- ------- ----------<br>--- --------- --- ----------- ------- ----- ------- ---<br>--------- ---- he --- ---- -- --------- -- ---- -------<br>-- --------- ------ --- ----- ------ ---- --- --------- --<br>------ - ---- -- --- ----------- ------- ---- ----- -----<br>--- -------- - ------ ---- -- ----- ---- --- --- -----------<br>-- -------,292620.6999999285,292620.2999999523,292253.974,292266.6999999285,292270.444,292637.251,,18,he
screen,html.Screen,2_3_1_0_1_19,2022-04-25T11:57:50.997Z,,,,,,,,,,,,,,,,,2,,,,,,,,,,,,,,400.44899992848514,,response,,,,1,A,,,,,,Space,keypress(Space),,,,silence,,,,--- ---- ------ --- ------- ---------- ------- ----------<br>--- --------- --- ----------- ------- ----- ------- ---<br>--------- ---- -- saw ---- -- --------- -- ---- -------<br>-- --------- ------ --- ----- ------ ---- --- --------- --<br>------ - ---- -- --- ----------- ------- ---- ----- -----<br>--- -------- - ------ ---- -- ----- ---- --- --- -----------<br>-- -------,293038.60000002384,293037.6999999285,292620.642,292620.6999999285,292637.251,293054.109,,19,saw
screen,html.Screen,2_3_1_0_1_20,2022-04-25T11:57:51.365Z,,,,,,,,,,,,,,,,,2,,,,,,,,,,,,,,351.39100000000326,,response,,,,1,A,,,,,,Space,keypress(Space),,,,silence,,,,--- ---- ------ --- ------- ---------- ------- ----------<br>--- --------- --- ----------- ------- ----- ------- ---<br>--------- ---- -- --- what -- --------- -- ---- -------<br>-- --------- ------ --- ----- ------ ---- --- --------- --<br>------ - ---- -- --- ----------- ------- ---- ----- -----<br>--- -------- - ------ ---- -- ----- ---- --- --- -----------<br>-- -------,293406.5,293405.5,293037.576,293038.7999999523,293054.109,293421.066,,20,what
screen,html.Screen,2_3_1_0_1_21,2022-04-25T11:57:51.765Z,,,,,,,,,,,,,,,,,2,,,,,,,,,,,,,,384.53400002385024,,response,,,,1,A,,,,,,Space,keypress(Space),,,,silence,,,,--- ---- ------ --- ------- ---------- ------- ----------<br>--- --------- --- ----------- ------- ----- ------- ---<br>--------- ---- -- --- ---- he --------- -- ---- -------<br>-- --------- ------ --- ----- ------ ---- --- --------- --<br>------ - ---- -- --- ----------- ------- ---- ----- -----<br>--- -------- - ------ ---- -- ----- ---- --- --- -----------<br>-- -------,293806.5,293805.60000002384,293404.405,293406.6999999285,293421.066,293821.186,,21,he
screen,html.Screen,2_3_1_0_1_22,2022-04-25T11:57:52.110Z,,,,,,,,,,,,,,,,,2,,,,,,,,,,,,,,328.9140000238549,,response,,,,1,A,,,,,,Space,keypress(Space),,,,silence,,,,--- ---- ------ --- ------- ---------- ------- ----------<br>--- --------- --- ----------- ------- ----- ------- ---<br>--------- ---- -- --- ---- -- described -- ---- -------<br>-- --------- ------ --- ----- ------ ---- --- --------- --<br>------ - ---- -- --- ----------- ------- ---- ----- -----<br>--- -------- - ------ ---- -- ----- ---- --- --- -----------<br>-- -------,294151.10000002384,294150.10000002384,293804.512,293806.6999999285,293821.186,294154.443,,22,described
screen,html.Screen,2_3_1_0_1_23,2022-04-25T11:57:52.484Z,,,,,,,,,,,,,,,,,2,,,,,,,,,,,,,,369.95699997612974,,response,,,,1,A,,,,,,Space,keypress(Space),,,,silence,,,,--- ---- ------ --- ------- ---------- ------- ----------<br>--- --------- --- ----------- ------- ----- ------- ---<br>--------- ---- -- --- ---- -- --------- as ---- -------<br>-- --------- ------ --- ----- ------ ---- --- --------- --<br>------ - ---- -- --- ----------- ------- ---- ----- -----<br>--- -------- - ------ ---- -- ----- ---- --- --- -----------<br>-- -------,294525.2999999523,294524.39999997616,294137.891,294151.2999999523,294154.443,294538.097,,23,as
screen,html.Screen,2_3_1_0_1_24,2022-04-25T11:57:52.899Z,,,,,,,,,,,,,,,,,2,,,,,,,,,,,,,,401.6029999284656,,response,,,,1,A,,,,,,Space,keypress(Space),,,,silence,,,,"--- ---- ------ --- ------- ---------- ------- ----------<br>--- --------- --- ----------- ------- ----- ------- ---<br>--------- ---- -- --- ---- -- --------- -- ""two -------<br>-- --------- ------ --- ----- ------ ---- --- --------- --<br>------ - ---- -- --- ----------- ------- ---- ----- -----<br>--- -------- - ------ ---- -- ----- ---- --- --- -----------<br>-- -------",294940.2999999523,294939.6999999285,294521.117,294525.60000002384,294538.097,294954.875,,24,"""two"
screen,html.Screen,2_3_1_0_1_25,2022-04-25T11:57:53.371Z,,,,,,,,,,,,,,,,,2,,,,,,,,,,,,,,457.02499997615814,,response,,,,1,A,,,,,,Space,keypress(Space),,,,silence,,,,--- ---- ------ --- ------- ---------- ------- ----------<br>--- --------- --- ----------- ------- ----- ------- ---<br>--------- ---- -- --- ---- -- --------- -- ---- patches<br>-- --------- ------ --- ----- ------ ---- --- --------- --<br>------ - ---- -- --- ----------- ------- ---- ----- -----<br>--- -------- - ------ ---- -- ----- ---- --- --- -----------<br>-- -------,295412.39999997616,295411.89999997616,294938.1,294940.39999997616,294954.875,295421.592,,25,patches
screen,html.Screen,2_3_1_0_1_26,2022-04-25T11:57:53.779Z,,,,,,,,,,,,,,,,,2,,,,,,,,,,,,,,398.30799997615395,,response,,,,1,A,,,,,,Space,keypress(Space),,,,silence,,,,--- ---- ------ --- ------- ---------- ------- ----------<br>--- --------- --- ----------- ------- ----- ------- ---<br>--------- ---- -- --- ---- -- --------- -- ---- -------<br>of --------- ------ --- ----- ------ ---- --- --------- --<br>------ - ---- -- --- ----------- ------- ---- ----- -----<br>--- -------- - ------ ---- -- ----- ---- --- --- -----------<br>-- -------,295820.39999997616,295819.89999997616,295405.003,295412.60000002384,295421.592,295842.804,,26,of
screen,html.Screen,2_3_1_0_1_27,2022-04-25T11:57:54.208Z,,,,,,,,,,,,,,,,,2,,,,,,,,,,,,,,405.6959999999963,,response,,,,1,A,,,,,,Space,keypress(Space),,,,silence,,,,--- ---- ------ --- ------- ---------- ------- ----------<br>--- --------- --- ----------- ------- ----- ------- ---<br>--------- ---- -- --- ---- -- --------- -- ---- -------<br>-- intensely ------ --- ----- ------ ---- --- --------- --<br>------ - ---- -- --- ----------- ------- ---- ----- -----<br>--- -------- - ------ ---- -- ----- ---- --- --- -----------<br>-- -------,296249.39999997616,296248.5,295804.884,295820.60000002384,295842.804,296255.002,,27,intensely
screen,html.Screen,2_3_1_0_1_28,2022-04-25T11:57:54.670Z,,,,,,,,,,,,,,,,,2,,,,,,,,,,,,,,456.5980000238633,,response,,,,1,A,,,,,,Space,keypress(Space),,,,silence,,,,--- ---- ------ --- ------- ---------- ------- ----------<br>--- --------- --- ----------- ------- ----- ------- ---<br>--------- ---- -- --- ---- -- --------- -- ---- -------<br>-- --------- bright --- ----- ------ ---- --- --------- --<br>------ - ---- -- --- ----------- ------- ---- ----- -----<br>--- -------- - ------ ---- -- ----- ---- --- --- -----------<br>-- -------,296711.89999997616,296711.60000002384,296238.378,296249.60000002384,296255.002,296722.029,,28,bright
screen,html.Screen,2_3_1_0_1_29,2022-04-25T11:57:55.070Z,,,,,,,,,,,,,,,,,2,,,,,,,,,,,,,,389.3709999761777,,response,,,,1,A,,,,,,Space,keypress(Space),,,,silence,,,,--- ---- ------ --- ------- ---------- ------- ----------<br>--- --------- --- ----------- ------- ----- ------- ---<br>--------- ---- -- --- ---- -- --------- -- ---- -------<br>-- --------- ------ and ----- ------ ---- --- --------- --<br>------ - ---- -- --- ----------- ------- ---- ----- -----<br>--- -------- - ------ ---- -- ----- ---- --- --- -----------<br>-- -------,297111.89999997616,297111.39999997616,296705.425,296712,296722.029,297122.141,,29,and
screen,html.Screen,2_3_1_0_1_30,2022-04-25T11:57:55.458Z,,,,,,,,,,,,,,,,,2,,,,,,,,,,,,,,377.35899999999674,,response,,,,1,A,,,,,,Space,keypress(Space),,,,silence,,,,--- ---- ------ --- ------- ---------- ------- ----------<br>--- --------- --- ----------- ------- ----- ------- ---<br>--------- ---- -- --- ---- -- --------- -- ---- -------<br>-- --------- ------ --- white ------ ---- --- --------- --<br>------ - ---- -- --- ----------- ------- ---- ----- -----<br>--- -------- - ------ ---- -- ----- ---- --- --- -----------<br>-- -------,297499.89999997616,297499.5,297105.235,297112,297122.141,297505.345,,30,white
screen,html.Screen,2_3_1_0_1_31,2022-04-25T11:57:56.191Z,,,,,,,,,,,,,,,,,2,,,,,,,,,,,,,,726.1550000000279,,response,,,,1,A,,,,,,Space,keypress(Space),,,,silence,,,,"--- ---- ------ --- ------- ---------- ------- ----------<br>--- --------- --- ----------- ------- ----- ------- ---<br>--------- ---- -- --- ---- -- --------- -- ---- -------<br>-- --------- ------ --- ----- light"" ---- --- --------- --<br>------ - ---- -- --- ----------- ------- ---- ----- -----<br>--- -------- - ------ ---- -- ----- ---- --- --- -----------<br>-- -------",298232.39999997616,298231.5,297488.946,297500.10000002384,297505.345,298238.969,,31,"light"""
screen,html.Screen,2_3_1_0_1_32,2022-04-25T11:57:56.710Z,,,,,,,,,,,,,,,,,2,,,,,,,,,,,,,,511.6310000238591,,response,,,,1,A,,,,,,Space,keypress(Space),,,,silence,,,,--- ---- ------ --- ------- ---------- ------- ----------<br>--- --------- --- ----------- ------- ----- ------- ---<br>--------- ---- -- --- ---- -- --------- -- ---- -------<br>-- --------- ------ --- ----- ------ over --- --------- --<br>------ - ---- -- --- ----------- ------- ---- ----- -----<br>--- -------- - ------ ---- -- ----- ---- --- --- -----------<br>-- -------,298751.1999999285,298750.60000002384,298222.445,298232.5,298238.969,298755.717,,32,over
screen,html.Screen,2_3_1_0_1_33,2022-04-25T11:57:57.074Z,,,,,,,,,,,,,,,,,2,,,,,,,,,,,,,,358.98299992847024,,response,,,,1,A,,,,,,Space,keypress(Space),,,,silence,,,,--- ---- ------ --- ------- ---------- ------- ----------<br>--- --------- --- ----------- ------- ----- ------- ---<br>--------- ---- -- --- ---- -- --------- -- ---- -------<br>-- --------- ------ --- ----- ------ ---- the --------- --<br>------ - ---- -- --- ----------- ------- ---- ----- -----<br>--- -------- - ------ ---- -- ----- ---- --- --- -----------<br>-- -------,299115.1999999285,299114.6999999285,298739.157,298751.2999999523,298755.717,299122.61,,33,the
screen,html.Screen,2_3_1_0_1_34,2022-04-25T11:57:57.862Z,,,,,,,,,,,,,,,,,2,,,,,,,,,,,,,,780.890000000014,,response,,,,1,A,,,,,,Space,keypress(Space),,,,silence,,,,--- ---- ------ --- ------- ---------- ------- ----------<br>--- --------- --- ----------- ------- ----- ------- ---<br>--------- ---- -- --- ---- -- --------- -- ---- -------<br>-- --------- ------ --- ----- ------ ---- --- sunspots. --<br>------ - ---- -- --- ----------- ------- ---- ----- -----<br>--- -------- - ------ ---- -- ----- ---- --- --- -----------<br>-- -------,299903.89999997616,299903.5,299106.156,299115.1999999285,299122.61,299906.062,,34,sunspots.
screen,html.Screen,2_3_1_0_1_35,2022-04-25T11:57:58.555Z,,,,,,,,,,,,,,,,,2,,,,,,,,,,,,,,689.5380000238656,,response,,,,1,A,,,,,,Space,keypress(Space),,,,silence,,,,--- ---- ------ --- ------- ---------- ------- ----------<br>--- --------- --- ----------- ------- ----- ------- ---<br>--------- ---- -- --- ---- -- --------- -- ---- -------<br>-- --------- ------ --- ----- ------ ---- --- --------- He<br>------ - ---- -- --- ----------- ------- ---- ----- -----<br>--- -------- - ------ ---- -- ----- ---- --- --- -----------<br>-- -------,300596.6999999285,300595.60000002384,299889.411,299903.89999997616,299906.062,300606.374,,35,He
screen,html.Screen,2_3_1_0_1_36,2022-04-25T11:57:59.122Z,,,,,,,,,,,,,,,,,2,,,,,,,,,,,,,,556.2260000238311,,response,,,,1,A,,,,,,Space,keypress(Space),,,,silence,,,,--- ---- ------ --- ------- ---------- ------- ----------<br>--- --------- --- ----------- ------- ----- ------- ---<br>--------- ---- -- --- ---- -- --------- -- ---- -------<br>-- --------- ------ --- ----- ------ ---- --- --------- --<br>jotted - ---- -- --- ----------- ------- ---- ----- -----<br>--- -------- - ------ ---- -- ----- ---- --- --- -----------<br>-- -------,301163.10000002384,301162.60000002384,300589.669,300597,300606.374,301173.35,,36,jotted
screen,html.Screen,2_3_1_0_1_37,2022-04-25T11:57:59.575Z,,,,,,,,,,,,,,,,,2,,,,,,,,,,,,,,441.94999995233957,,response,,,,1,A,,,,,,Space,keypress(Space),,,,silence,,,,--- ---- ------ --- ------- ---------- ------- ----------<br>--- --------- --- ----------- ------- ----- ------- ---<br>--------- ---- -- --- ---- -- --------- -- ---- -------<br>-- --------- ------ --- ----- ------ ---- --- --------- --<br>------ a ---- -- --- ----------- ------- ---- ----- -----<br>--- -------- - ------ ---- -- ----- ---- --- --- -----------<br>-- -------,301616.1999999285,301615.2999999523,301156.667,301163.1999999285,301173.35,301623.34,,37,a
