sender,sender_type,sender_id,timestamp,meta,,Blues,Classical,Country,Dance,Electronic,Folk,Gospel,Hip-Hop,Jazz,Latin,Musical/Film,New-age,Pop,Prolific_id,Provo_ID,R&B,Rap,Reggae,Religious,Rock,Soul,Swing,Traditional,age,artist_name,correct,correctResponse,distraction,duration,education,ended_on,familiarity,gender,headphone_check_performance,item,list,music_frequency,offensiveness,pleasantness,position_correct,preference,response,response_action,snippet_file,song_name,song_rating,sound,stimulus_1,stimulus_2,stimulus_3,text,time_commit,time_end,time_render,time_run,time_show,time_switch,url,word,word_ID
Prolific ID,html.Form,0,2022-04-27T12:56:58.650Z,"{""labjs_version"":""20.2.2"",""labjs_build"":{""flavor"":""production"",""commit"":""a25486e0c714a0ae2ce03ff94b7bb6896854dcfa""},""location"":""https://run.pavlovia.org/mvasilev/prolific3_music_c/"",""userAgent"":""Mozilla/5.0 (Windows NT 6.3; Win64; x64) AppleWebKit/537.36 (KHTML, like Gecko) Chrome/100.0.4896.127 Safari/537.36"",""platform"":""Win32"",""language"":""en-GB"",""locale"":""en-GB"",""timeZone"":""Europe/London"",""timezoneOffset"":-60,""screen_width"":1366,""screen_height"":768,""scroll_width"":1366,""scroll_height"":609,""window_innerWidth"":1366,""window_innerHeight"":657,""devicePixelRatio"":1}",,,,,,,,,,,,,,,6085427d9e9c17df3f2c6204,,,,,,,,,,,,,,,10440.627000023842,,form submission,,,,,,,,,,,,,,,,,,,,,24654.100000023842,24653.600000023842,14179.517,14189.200000047684,14212.973,24671.896,{},,
Introduction,html.Screen,1_0,2022-04-27T12:57:08.389Z,,,,,,,,,,,,,,,,,,,,,,,,,,,,,,,9720.204000023841,,response,,,,,,,,,,,continue,click button,,,,,,,,,34393.10000002384,34392.10000002384,24655.172,24654.5,24671.896,34408.405,,,
Volume calibration,html.Screen,1_1,2022-04-27T12:57:35.600Z,,,,,,,,,,,,,,,,,,,,,,,,,,,,,,,27194.695000023843,,response,,,,,,,,,,,continue,click button,,,,,,,,,61604,61603.10000002384,34391.684,34393.300000071526,34408.405,61617.739,,,
Task instructions,html.Screen,1_2,2022-04-27T12:57:50.236Z,,,,,,,,,,,,,,,,,,,,,,,,,,,,,,,14621.36100002384,,response,,,,,,,,,,,continue,click button,,,,,,,,,76239.70000004768,76239.10000002384,61601.005,61604.10000002384,61617.739,76243.272,,,
Sounds,html.Screen,1_3_0_0,2022-04-27T12:57:54.478Z,,,,,,,,,,,,,,,,,,,,,,,,,,,,,,,4249.368000000002,,timeout,,,,,,,,,2,,,,,,,,O,S,I,,80481.30000007153,80475.905,76226.537,76239.90000009537,76243.272,80492.64,,,
Judgement,html.Screen,1_3_0_1,2022-04-27T12:57:58.805Z,,,,,,,,,,,,,,,,,,,,,,,,,,,,true,2,,4315.360000000001,,response,,,,,,,,,2,,2,click #choice-2,,,,,O,S,I,,84808.80000007153,84808,80475.905,80481.60000002384,80492.64,84808.463,,,
Trial,flow.Sequence,1_3_0,2022-04-27T12:57:58.807Z,,,,,,,,,,,,,,,,,,,,,,,,,,,,,,,8564.728000000003,,completion,,,,,,,,,2,,,,,,,,O,S,I,,84810.60000002384,84808,76226.537,76239.90000009537,76243.272,84808.463,,,
Sounds,html.Screen,1_3_1_0,2022-04-27T12:58:03.037Z,,,,,,,,,,,,,,,,,,,,,,,,,,,,,,,4247.430999999997,,timeout,,,,,,,,,2,,,,,,,,I,S,O,,89040.70000004768,89039.176,84791.739,84811,84808.463,89055.894,,,
Judgement,html.Screen,1_3_1_1,2022-04-27T12:58:05.027Z,,,,,,,,,,,,,,,,,,,,,,,,,,,,true,2,,1973.5060000953672,,response,,,,,,,,,2,,2,click #choice-2,,,,,I,S,O,,91030.30000007153,91029.40000009537,89039.176,89040.90000009537,89055.894,91032.824,,,
Trial,flow.Sequence,1_3_1,2022-04-27T12:58:05.027Z,,,,,,,,,,,,,,,,,,,,,,,,,,,,,,,6220.937000095364,,completion,,,,,,,,,2,,,,,,,,I,S,O,,91030.5,91029.40000009537,84791.739,84810.70000004768,84808.463,91032.824,,,
Sounds,html.Screen,1_3_2_0,2022-04-27T12:58:09.263Z,,,,,,,,,,,,,,,,,,,,,,,,,,,,,,,4248.768000000011,,timeout,,,,,,,,,1,,,,,,,,S,I,O,,95266.30000007153,95264.869,91016.098,91030.80000007153,91032.824,95281.592,,,
Judgement,html.Screen,1_3_2_1,2022-04-27T12:58:10.891Z,,,,,,,,,,,,,,,,,,,,,,,,,,,,true,1,,1611.9079999999958,,response,,,,,,,,,1,,1,click #choice-1,,,,,S,I,O,,96894.30000007153,96893.5,95264.869,95266.5,95281.592,96906.367,,,
Trial,flow.Sequence,1_3_2,2022-04-27T12:58:10.891Z,,,,,,,,,,,,,,,,,,,,,,,,,,,,,,,5860.676000000007,,completion,,,,,,,,,1,,,,,,,,S,I,O,,96894.5,96893.5,91016.098,91030.70000004768,91032.824,96906.367,,,
Sounds,html.Screen,1_3_3_0,2022-04-27T12:58:15.135Z,,,,,,,,,,,,,,,,,,,,,,,,,,,,,,,4246.790000000008,,timeout,,,,,,,,,3,,,,,,,,I,O,S,,101138.10000002384,101136.437,96889.645,96894.60000002384,96906.367,101153.157,,,
Judgement,html.Screen,1_3_3_1,2022-04-27T12:58:16.644Z,,,,,,,,,,,,,,,,,,,,,,,,,,,,true,3,,1493.4430000238353,,response,,,,,,,,,3,,3,click #choice-3,,,,,I,O,S,,102647.20000004768,102646.60000002384,101136.437,101138.40000009537,101153.157,102662.458,,,
Trial,flow.Sequence,1_3_3,2022-04-27T12:58:16.644Z,,,,,,,,,,,,,,,,,,,,,,,,,,,,,,,5740.2330000238435,,completion,,,,,,,,,3,,,,,,,,I,O,S,,102647.5,102646.60000002384,96889.645,96894.60000002384,96906.367,102662.458,,,
Sounds,html.Screen,1_3_4_0,2022-04-27T12:58:20.892Z,,,,,,,,,,,,,,,,,,,,,,,,,,,,,,,4248.490000000005,,timeout,,,,,,,,,3,,,,,,,,O,I,S,,106895.80000007153,106894.223,102645.734,102647.5,102662.458,106910.948,,,
Judgement,html.Screen,1_3_4_1,2022-04-27T12:58:22.119Z,,,,,,,,,,,,,,,,,,,,,,,,,,,,true,3,,1211.051999999996,,response,,,,,,,,,3,,3,click #choice-3,,,,,O,I,S,,108122.80000007153,108122,106894.223,106896.10000002384,106910.948,108133.748,,,
Trial,flow.Sequence,1_3_4,2022-04-27T12:58:22.119Z,,,,,,,,,,,,,,,,,,,,,,,,,,,,,,,5459.542000000001,,completion,,,,,,,,,3,,,,,,,,O,I,S,,108122.90000009537,108122,102645.734,102647.5,102662.458,108133.748,,,
Sounds,html.Screen,1_3_5_0,2022-04-27T12:58:26.365Z,,,,,,,,,,,,,,,,,,,,,,,,,,,,,,,4250.7959999999875,,timeout,,,,,,,,,1,,,,,,,,S,O,I,,112368.90000009537,112367.811,108117.024,108123,108133.748,112384.544,,,
Judgement,html.Screen,1_3_5_1,2022-04-27T12:58:27.831Z,,,,,,,,,,,,,,,,,,,,,,,,,,,,true,1,,1448.856000095373,,response,,,,,,,,,1,,1,click #choice-1,,,,,S,O,I,,113834.20000004768,113833.40000009537,112367.811,112369.10000002384,112384.544,113840.144,,,
Trial,flow.Sequence,1_3_5,2022-04-27T12:58:27.831Z,,,,,,,,,,,,,,,,,,,,,,,,,,,,,,,5699.652000095361,,completion,,,,,,,,,1,,,,,,,,S,O,I,,113834.40000009537,113833.40000009537,108117.024,108123,108133.748,113840.144,,,
Task,flow.Loop,1_3,2022-04-27T12:58:27.836Z,,,,,,,,,,,,,,,,,,,,,,,,,,,,,,,37590.12800009537,,completion,,,1,,,,,,,,,,,,,,,,,,113839.80000007153,113833.40000009537,76226.537,76239.90000009537,76243.272,113840.144,,,
Trap,html.Screen,1_4,2022-04-27T12:58:27.838Z,,,,,,,,,,,,,,,,,,,,,,,,,,,,,,,NaN,,skipped,,,,,,,,,,,,,,,,,,,,,113841.10000002384,113833.40000009537,,113841,,113840.144,,,
Thanks,html.Screen,1_5,2022-04-27T12:58:32.318Z,,,,,,,,,,,,,,,,,,,,,,,,,,,,,,,4480.956000023842,,response,,,,,,,,,,,continue,click button,,,,,,,,,118321.90000009537,118321.10000002384,113823.413,113841.20000004768,113840.144,121302.618,,,
Headphone screening,flow.Sequence,1,2022-04-27T12:58:32.318Z,,,,,,,,,,,,,,,,,,,,,,,,,,,,,,,93649.20400002383,,completion,,,,,,,,,,,,,,,,,,,,,118322.10000002384,118321.10000002384,24655.172,24654.5,24671.896,121302.618,,,
Instructions,html.Page,2_0,2022-04-27T12:59:02.532Z,,,,,,,,,,,,,,,,,,,,,,,,,,,,,,,27232.682000071523,,form submission,,,,,,,,,,,,,,,,,,,,,148535.80000007153,148535.30000007153,121285.887,121291.40000009537,121302.618,148543.567,,,
Holding screen,html.Screen,2_1_0_0,2022-04-27T12:59:12.531Z,,,,,,,,,,,,,,,,,,,,,,,,,,,,,,,10039.554000000004,,timeout,,,,,,,,,,,,,,,,,,,,,158534.60000002384,158532.928,148526.837,148536,148543.567,158583.121,,,
screen,html.Screen,2_1_0_1_0,2022-04-27T12:59:13.480Z,,,,,,,,,,,,,,,,,53,,,,,,,,,,,,,,895.57900004767,,response,,,,99,,,,,,,Space,keypress(Space),,,,,,,,When -- ----- -- ------ - ------- --- ----------<br>------------- ------ ------ ---- ---- ------- ----- -- ----<br>-------- ------- -- ---------- --- - --- ----- ----- ----<br>---- --- --- ----- --- ---- ---- ------- ----- ---- -------<br>--- --- -- ----- -- --- ---- -- --- ---- -- ------ ------<br>--- ----- -- ----,159484,159478.70000004768,158532.928,158534.90000009537,158583.121,159486.593,,0,When
screen,html.Screen,2_1_0_1_1,2022-04-27T12:59:13.937Z,,,,,,,,,,,,,,,,,53,,,,,,,,,,,,,,453.30700009537395,,response,,,,99,,,,,,,Space,keypress(Space),,,,,,,,---- it ----- -- ------ - ------- --- ----------<br>------------- ------ ------ ---- ---- ------- ----- -- ----<br>-------- ------- -- ---------- --- - --- ----- ----- ----<br>---- --- --- ----- --- ---- ---- ------- ----- ---- -------<br>--- --- -- ----- -- --- ---- -- --- ---- -- ------ ------<br>--- ----- -- ----,159940.80000007153,159939.90000009537,159469.862,159484.30000007153,159486.593,159955.301,,1,it
screen,html.Screen,2_1_0_1_2,2022-04-27T12:59:14.484Z,,,,,,,,,,,,,,,,,53,,,,,,,,,,,,,,531.4990000715188,,response,,,,99,,,,,,,Space,keypress(Space),,,,,,,,---- -- comes -- ------ - ------- --- ----------<br>------------- ------ ------ ---- ---- ------- ----- -- ----<br>-------- ------- -- ---------- --- - --- ----- ----- ----<br>---- --- --- ----- --- ---- ---- ------- ----- ---- -------<br>--- --- -- ----- -- --- ---- -- --- ---- -- ------ ------<br>--- ----- -- ----,160487.70000004768,160486.80000007153,159938.568,159941.10000002384,159955.301,160490.719,,2,comes
screen,html.Screen,2_1_0_1_3,2022-04-27T12:59:14.867Z,,,,,,,,,,,,,,,,,53,,,,,,,,,,,,,,379.5810000715137,,response,,,,99,,,,,,,Space,keypress(Space),,,,,,,,---- -- ----- to ------ - ------- --- ----------<br>------------- ------ ------ ---- ---- ------- ----- -- ----<br>-------- ------- -- ---------- --- - --- ----- ----- ----<br>---- --- --- ----- --- ---- ---- ------- ----- ---- -------<br>--- --- -- ----- -- --- ---- -- --- ---- -- ------ ------<br>--- ----- -- ----,160871.20000004768,160870.30000007153,160473.987,160487.90000009537,160490.719,160875.488,,3,to
screen,html.Screen,2_1_0_1_4,2022-04-27T12:59:15.521Z,,,,,,,,,,,,,,,,,53,,,,,,,,,,,,,,648.7120000476716,,response,,,,99,,,,,,,Space,keypress(Space),,,,,,,,---- -- ----- -- having - ------- --- ----------<br>------------- ------ ------ ---- ---- ------- ----- -- ----<br>-------- ------- -- ---------- --- - --- ----- ----- ----<br>---- --- --- ----- --- ---- ---- ------- ----- ---- -------<br>--- --- -- ----- -- --- ---- -- --- ---- -- ------ ------<br>--- ----- -- ----,161525.20000004768,161524.20000004768,160858.757,160871.40000009537,160875.488,161528.174,,4,having
screen,html.Screen,2_1_0_1_5,2022-04-27T12:59:15.949Z,,,,,,,,,,,,,,,,,53,,,,,,,,,,,,,,424.22600009536836,,response,,,,99,,,,,,,Space,keypress(Space),,,,,,,,---- -- ----- -- ------ a ------- --- ----------<br>------------- ------ ------ ---- ---- ------- ----- -- ----<br>-------- ------- -- ---------- --- - --- ----- ----- ----<br>---- --- --- ----- --- ---- ---- ------- ----- ---- -------<br>--- --- -- ----- -- --- ---- -- --- ---- -- ------ ------<br>--- ----- -- ----,161953.20000004768,161952.40000009537,161511.441,161525.40000009537,161528.174,161963.115,,5,a
screen,html.Screen,2_1_0_1_6,2022-04-27T12:59:16.475Z,,,,,,,,,,,,,,,,,53,,,,,,,,,,,,,,515.1850000715349,,response,,,,99,,,,,,,Space,keypress(Space),,,,,,,,---- -- ----- -- ------ - lasting --- ----------<br>------------- ------ ------ ---- ---- ------- ----- -- ----<br>-------- ------- -- ---------- --- - --- ----- ----- ----<br>---- --- --- ----- --- ---- ---- ------- ----- ---- -------<br>--- --- -- ----- -- --- ---- -- --- ---- -- ------ ------<br>--- ----- -- ----,162479.20000004768,162478.30000007153,161946.386,161953.5,161963.115,162481.794,,6,lasting
screen,html.Screen,2_1_0_1_7,2022-04-27T12:59:17.096Z,,,,,,,,,,,,,,,,,53,,,,,,,,,,,,,,617.606000095373,,response,,,,99,,,,,,,Space,keypress(Space),,,,,,,,---- -- ----- -- ------ - ------- and ----------<br>------------- ------ ------ ---- ---- ------- ----- -- ----<br>-------- ------- -- ---------- --- - --- ----- ----- ----<br>---- --- --- ----- --- ---- ---- ------- ----- ---- -------<br>--- --- -- ----- -- --- ---- -- --- ---- -- ------ ------<br>--- ----- -- ----,163100.30000007153,163099.40000009537,162465.065,162479.40000009537,162481.794,163117.66,,7,and
screen,html.Screen,2_1_0_1_8,2022-04-27T12:59:17.809Z,,,,,,,,,,,,,,,,,53,,,,,,,,,,,,,,694.2400000953639,,response,,,,99,,,,,,,Space,keypress(Space),,,,,,,,---- -- ----- -- ------ - ------- --- fulfilling<br>------------- ------ ------ ---- ---- ------- ----- -- ----<br>-------- ------- -- ---------- --- - --- ----- ----- ----<br>---- --- --- ----- --- ---- ---- ------- ----- ---- -------<br>--- --- -- ----- -- --- ---- -- --- ---- -- ------ ------<br>--- ----- -- ----,163812.80000007153,163811.90000009537,163100.93,163100.60000002384,163117.66,163820.245,,8,fulfilling
screen,html.Screen,2_1_0_1_9,2022-04-27T12:59:18.428Z,,,,,,,,,,,,,,,,,53,,,,,,,,,,,,,,610.9550000476884,,response,,,,99,,,,,,,Space,keypress(Space),,,,,,,,"---- -- ----- -- ------ - ------- --- ----------<br>relationship, ------ ------ ---- ---- ------- ----- -- ----<br>-------- ------- -- ---------- --- - --- ----- ----- ----<br>---- --- --- ----- --- ---- ---- ------- ----- ---- -------<br>--- --- -- ----- -- --- ---- -- --- ---- -- ------ ------<br>--- ----- -- ----",164432.40000009537,164431.20000004768,163803.519,163813,163820.245,164439.351,,9,"relationship,"
screen,html.Screen,2_1_0_1_10,2022-04-27T12:59:19.083Z,,,,,,,,,,,,,,,,,53,,,,,,,,,,,,,,646.2490000238467,,response,,,,99,,,,,,,Space,keypress(Space),,,,,,,,---- -- ----- -- ------ - ------- --- ----------<br>------------- common ------ ---- ---- ------- ----- -- ----<br>-------- ------- -- ---------- --- - --- ----- ----- ----<br>---- --- --- ----- --- ---- ---- ------- ----- ---- -------<br>--- --- -- ----- -- --- ---- -- --- ---- -- ------ ------<br>--- ----- -- ----,165086.5,165085.60000002384,164422.626,164432.70000004768,164439.351,165091.743,,10,common
screen,html.Screen,2_1_0_1_11,2022-04-27T12:59:19.696Z,,,,,,,,,,,,,,,,,53,,,,,,,,,,,,,,607.5570000715379,,response,,,,99,,,,,,,Space,keypress(Space),,,,,,,,---- -- ----- -- ------ - ------- --- ----------<br>------------- ------ wisdom ---- ---- ------- ----- -- ----<br>-------- ------- -- ---------- --- - --- ----- ----- ----<br>---- --- --- ----- --- ---- ---- ------- ----- ---- -------<br>--- --- -- ----- -- --- ---- -- --- ---- -- ------ ------<br>--- ----- -- ----,165700.30000007153,165699.30000007153,165075.021,165086.80000007153,165091.743,165711.072,,11,wisdom
screen,html.Screen,2_1_0_1_12,2022-04-27T12:59:20.391Z,,,,,,,,,,,,,,,,,53,,,,,,,,,,,,,,682.6280000476982,,response,,,,99,,,,,,,Space,keypress(Space),,,,,,,,---- -- ----- -- ------ - ------- --- ----------<br>------------- ------ ------ says ---- ------- ----- -- ----<br>-------- ------- -- ---------- --- - --- ----- ----- ----<br>---- --- --- ----- --- ---- ---- ------- ----- ---- -------<br>--- --- -- ----- -- --- ---- -- --- ---- -- ------ ------<br>--- ----- -- ----,166394.80000007153,166393.70000004768,165694.346,165700.60000002384,165711.072,166396.479,,12,says
screen,html.Screen,2_1_0_1_13,2022-04-27T12:59:20.948Z,,,,,,,,,,,,,,,,,53,,,,,,,,,,,,,,554.4210000953753,,response,,,,99,,,,,,,Space,keypress(Space),,,,,,,,---- -- ----- -- ------ - ------- --- ----------<br>------------- ------ ------ ---- that ------- ----- -- ----<br>-------- ------- -- ---------- --- - --- ----- ----- ----<br>---- --- --- ----- --- ---- ---- ------- ----- ---- -------<br>--- --- -- ----- -- --- ---- -- --- ---- -- ------ ------<br>--- ----- -- ----,166951.90000009537,166950.90000009537,166379.757,166395.10000002384,166396.479,166965.991,,13,that
screen,html.Screen,2_1_0_1_14,2022-04-27T12:59:21.574Z,,,,,,,,,,,,,,,,,53,,,,,,,,,,,,,,611.2090000476746,,response,,,,99,,,,,,,Space,keypress(Space),,,,,,,,---- -- ----- -- ------ - ------- --- ----------<br>------------- ------ ------ ---- ---- feeling ----- -- ----<br>-------- ------- -- ---------- --- - --- ----- ----- ----<br>---- --- --- ----- --- ---- ---- ------- ----- ---- -------<br>--- --- -- ----- -- --- ---- -- --- ---- -- ------ ------<br>--- ----- -- ----,167578.30000007153,167577.20000004768,166949.265,166952.10000002384,166965.991,167585.152,,14,feeling
screen,html.Screen,2_1_0_1_15,2022-04-27T12:59:22.160Z,,,,,,,,,,,,,,,,,53,,,,,,,,,,,,,,577.94800002384,,response,,,,99,,,,,,,Space,keypress(Space),,,,,,,,---- -- ----- -- ------ - ------- --- ----------<br>------------- ------ ------ ---- ---- ------- close -- ----<br>-------- ------- -- ---------- --- - --- ----- ----- ----<br>---- --- --- ----- --- ---- ---- ------- ----- ---- -------<br>--- --- -- ----- -- --- ---- -- --- ---- -- ------ ------<br>--- ----- -- ----,168164.10000002384,168163.10000002384,167568.425,167578.5,167585.152,168170.332,,15,close
screen,html.Screen,2_1_0_1_16,2022-04-27T12:59:22.694Z,,,,,,,,,,,,,,,,,53,,,,,,,,,,,,,,526.0680000953726,,response,,,,99,,,,,,,Space,keypress(Space),,,,,,,,---- -- ----- -- ------ - ------- --- ----------<br>------------- ------ ------ ---- ---- ------- ----- to ----<br>-------- ------- -- ---------- --- - --- ----- ----- ----<br>---- --- --- ----- --- ---- ---- ------- ----- ---- -------<br>--- --- -- ----- -- --- ---- -- --- ---- -- ------ ------<br>--- ----- -- ----,168697.5,168696.40000009537,168153.608,168164.30000007153,168170.332,168706.306,,16,to
screen,html.Screen,2_1_0_1_17,2022-04-27T12:59:23.174Z,,,,,,,,,,,,,,,,,53,,,,,,,,,,,,,,470.79400002383045,,response,,,,99,,,,,,,Space,keypress(Space),,,,,,,,---- -- ----- -- ------ - ------- --- ----------<br>------------- ------ ------ ---- ---- ------- ----- -- your<br>-------- ------- -- ---------- --- - --- ----- ----- ----<br>---- --- --- ----- --- ---- ---- ------- ----- ---- -------<br>--- --- -- ----- -- --- ---- -- --- ---- -- ------ ------<br>--- ----- -- ----,169178.30000007153,169177.10000002384,168689.578,168697.70000004768,168706.306,169191.523,,17,your
screen,html.Screen,2_1_0_1_18,2022-04-27T12:59:23.851Z,,,,,,,,,,,,,,,,,53,,,,,,,,,,,,,,662.1770000476972,,response,,,,99,,,,,,,Space,keypress(Space),,,,,,,,---- -- ----- -- ------ - ------- --- ----------<br>------------- ------ ------ ---- ---- ------- ----- -- ----<br>romantic ------- -- ---------- --- - --- ----- ----- ----<br>---- --- --- ----- --- ---- ---- ------- ----- ---- -------<br>--- --- -- ----- -- --- ---- -- --- ---- -- ------ ------<br>--- ----- -- ----,169854.70000004768,169853.70000004768,169174.796,169178.60000002384,169191.523,169860.654,,18,romantic
screen,html.Screen,2_1_0_1_19,2022-04-27T12:59:24.419Z,,,,,,,,,,,,,,,,,53,,,,,,,,,,,,,,561.0460000476742,,response,,,,99,,,,,,,Space,keypress(Space),,,,,,,,---- -- ----- -- ------ - ------- --- ----------<br>------------- ------ ------ ---- ---- ------- ----- -- ----<br>-------- partner -- ---------- --- - --- ----- ----- ----<br>---- --- --- ----- --- ---- ---- ------- ----- ---- -------<br>--- --- -- ----- -- --- ---- -- --- ---- -- ------ ------<br>--- ----- -- ----,170422.80000007153,170421.70000004768,169843.93,169855,169860.654,170429.558,,19,partner
screen,html.Screen,2_1_0_1_20,2022-04-27T12:59:24.873Z,,,,,,,,,,,,,,,,,53,,,,,,,,,,,,,,445.94200000001,,response,,,,99,,,,,,,Space,keypress(Space),,,,,,,,---- -- ----- -- ------ - ------- --- ----------<br>------------- ------ ------ ---- ---- ------- ----- -- ----<br>-------- ------- is ---------- --- - --- ----- ----- ----<br>---- --- --- ----- --- ---- ---- ------- ----- ---- -------<br>--- --- -- ----- -- --- ---- -- --- ---- -- ------ ------<br>--- ----- -- ----,170876.5,170875.5,170412.836,170423,170429.558,170881.059,,20,is
screen,html.Screen,2_1_0_1_21,2022-04-27T12:59:25.579Z,,,,,,,,,,,,,,,,,53,,,,,,,,,,,,,,700.6410000476753,,response,,,,99,,,,,,,Space,keypress(Space),,,,,,,,---- -- ----- -- ------ - ------- --- ----------<br>------------- ------ ------ ---- ---- ------- ----- -- ----<br>-------- ------- -- paramount. --- - --- ----- ----- ----<br>---- --- --- ----- --- ---- ---- ------- ----- ---- -------<br>--- --- -- ----- -- --- ---- -- --- ---- -- ------ ------<br>--- ----- -- ----,171582.70000004768,171581.70000004768,170864.337,170876.80000007153,170881.059,171584.125,,21,paramount.
screen,html.Screen,2_1_0_1_22,2022-04-27T12:59:26.158Z,,,,,,,,,,,,,,,,,53,,,,,,,,,,,,,,576.6750000715256,,response,,,,99,,,,,,,Space,keypress(Space),,,,,,,,---- -- ----- -- ------ - ------- --- ----------<br>------------- ------ ------ ---- ---- ------- ----- -- ----<br>-------- ------- -- ---------- But - --- ----- ----- ----<br>---- --- --- ----- --- ---- ---- ------- ----- ---- -------<br>--- --- -- ----- -- --- ---- -- --- ---- -- ------ ------<br>--- ----- -- ----,172161.80000007153,172160.80000007153,171567.399,171583,171584.125,172169.949,,22,But
screen,html.Screen,2_1_0_1_23,2022-04-27T12:59:26.646Z,,,,,,,,,,,,,,,,,53,,,,,,,,,,,,,,478.9510000953742,,response,,,,99,,,,,,,Space,keypress(Space),,,,,,,,---- -- ----- -- ------ - ------- --- ----------<br>------------- ------ ------ ---- ---- ------- ----- -- ----<br>-------- ------- -- ---------- --- a --- ----- ----- ----<br>---- --- --- ----- --- ---- ---- ------- ----- ---- -------<br>--- --- -- ----- -- --- ---- -- --- ---- -- ------ ------<br>--- ----- -- ----,172649.90000009537,172648.90000009537,172153.219,172162.10000002384,172169.949,172655.343,,23,a
screen,html.Screen,2_1_0_1_24,2022-04-27T12:59:27.079Z,,,,,,,,,,,,,,,,,53,,,,,,,,,,,,,,426.7570000238484,,response,,,,99,,,,,,,Space,keypress(Space),,,,,,,,---- -- ----- -- ------ - ------- --- ----------<br>------------- ------ ------ ---- ---- ------- ----- -- ----<br>-------- ------- -- ---------- --- - new ----- ----- ----<br>---- --- --- ----- --- ---- ---- ------- ----- ---- -------<br>--- --- -- ----- -- --- ---- -- --- ---- -- ------ ------<br>--- ----- -- ----,173083,173082.10000002384,172638.61,172650.20000004768,172655.343,173090.382,,24,new
screen,html.Screen,2_1_0_1_25,2022-04-27T12:59:27.865Z,,,,,,,,,,,,,,,,,53,,,,,,,,,,,,,,777.7180000238295,,response,,,,99,,,,,,,Space,keypress(Space),,,,,,,,---- -- ----- -- ------ - ------- --- ----------<br>------------- ------ ------ ---- ---- ------- ----- -- ----<br>-------- ------- -- ---------- --- - --- study ----- ----<br>---- --- --- ----- --- ---- ---- ------- ----- ---- -------<br>--- --- -- ----- -- --- ---- -- --- ---- -- ------ ------<br>--- ----- -- ----,173869.10000002384,173868.10000002384,173073.649,173083.30000007153,173090.382,173876.998,,25,study
screen,html.Screen,2_1_0_1_26,2022-04-27T12:59:28.308Z,,,,,,,,,,,,,,,,,53,,,,,,,,,,,,,,434.0020000000077,,response,,,,99,,,,,,,Space,keypress(Space),,,,,,,,---- -- ----- -- ------ - ------- --- ----------<br>------------- ------ ------ ---- ---- ------- ----- -- ----<br>-------- ------- -- ---------- --- - --- ----- finds ----<br>---- --- --- ----- --- ---- ---- ------- ----- ---- -------<br>--- --- -- ----- -- --- ---- -- --- ---- -- ------ ------<br>--- ----- -- ----,174312.10000002384,174311,173860.263,173869.30000007153,173876.998,174328.433,,26,finds
screen,html.Screen,2_1_0_1_27,2022-04-27T12:59:28.724Z,,,,,,,,,,,,,,,,,53,,,,,,,,,,,,,,398.56700000001,,response,,,,99,,,,,,,Space,keypress(Space),,,,,,,,---- -- ----- -- ------ - ------- --- ----------<br>------------- ------ ------ ---- ---- ------- ----- -- ----<br>-------- ------- -- ---------- --- - --- ----- ----- that<br>---- --- --- ----- --- ---- ---- ------- ----- ---- -------<br>--- --- -- ----- -- --- ---- -- --- ---- -- ------ ------<br>--- ----- -- ----,174727.90000009537,174727,174311.702,174312.20000004768,174328.433,174730.247,,27,that
screen,html.Screen,2_1_0_1_28,2022-04-27T12:59:29.139Z,,,,,,,,,,,,,,,,,53,,,,,,,,,,,,,,412.252999999997,,response,,,,99,,,,,,,Space,keypress(Space),,,,,,,,---- -- ----- -- ------ - ------- --- ----------<br>------------- ------ ------ ---- ---- ------- ----- -- ----<br>-------- ------- -- ---------- --- - --- ----- ----- ----<br>it's --- --- ----- --- ---- ---- ------- ----- ---- -------<br>--- --- -- ----- -- --- ---- -- --- ---- -- ------ ------<br>--- ----- -- ----,175143.40000009537,175142.5,174713.513,174728.20000004768,174730.247,175148.481,,28,it's
screen,html.Screen,2_1_0_1_29,2022-04-27T12:59:29.499Z,,,,,,,,,,,,,,,,,53,,,,,,,,,,,,,,353.8190000715258,,response,,,,99,,,,,,,Space,keypress(Space),,,,,,,,---- -- ----- -- ------ - ------- --- ----------<br>------------- ------ ------ ---- ---- ------- ----- -- ----<br>-------- ------- -- ---------- --- - --- ----- ----- ----<br>---- not --- ----- --- ---- ---- ------- ----- ---- -------<br>--- --- -- ----- -- --- ---- -- --- ---- -- ------ ------<br>--- ----- -- ----,175503.30000007153,175502.30000007153,175131.749,175143.60000002384,175148.481,175516.525,,29,not
screen,html.Screen,2_1_0_1_30,2022-04-27T12:59:29.912Z,,,,,,,,,,,,,,,,,53,,,,,,,,,,,,,,398.2750000715314,,response,,,,99,,,,,,,Space,keypress(Space),,,,,,,,---- -- ----- -- ------ - ------- --- ----------<br>------------- ------ ------ ---- ---- ------- ----- -- ----<br>-------- ------- -- ---------- --- - --- ----- ----- ----<br>---- --- how ----- --- ---- ---- ------- ----- ---- -------<br>--- --- -- ----- -- --- ---- -- --- ---- -- ------ ------<br>--- ----- -- ----,175915.80000007153,175914.80000007153,175499.797,175503.5,175516.525,175918.057,,30,how
screen,html.Screen,2_1_0_1_31,2022-04-27T12:59:30.456Z,,,,,,,,,,,,,,,,,53,,,,,,,,,,,,,,540.7430000715249,,response,,,,99,,,,,,,Space,keypress(Space),,,,,,,,---- -- ----- -- ------ - ------- --- ----------<br>------------- ------ ------ ---- ---- ------- ----- -- ----<br>-------- ------- -- ---------- --- - --- ----- ----- ----<br>---- --- --- close --- ---- ---- ------- ----- ---- -------<br>--- --- -- ----- -- --- ---- -- --- ---- -- ------ ------<br>--- ----- -- ----,176459.90000009537,176458.80000007153,175901.33,175916,175918.057,176470.183,,31,close
screen,html.Screen,2_1_0_1_32,2022-04-27T12:59:30.975Z,,,,,,,,,,,,,,,,,53,,,,,,,,,,,,,,508.1170000715356,,response,,,,99,,,,,,,Space,keypress(Space),,,,,,,,---- -- ----- -- ------ - ------- --- ----------<br>------------- ------ ------ ---- ---- ------- ----- -- ----<br>-------- ------- -- ---------- --- - --- ----- ----- ----<br>---- --- --- ----- you ---- ---- ------- ----- ---- -------<br>--- --- -- ----- -- --- ---- -- --- ---- -- ------ ------<br>--- ----- -- ----,176979.30000007153,176978.30000007153,176453.455,176460,176470.183,176989.041,,32,you
screen,html.Screen,2_1_0_1_33,2022-04-27T12:59:31.373Z,,,,,,,,,,,,,,,,,53,,,,,,,,,,,,,,386.6590000476863,,response,,,,99,,,,,,,Space,keypress(Space),,,,,,,,---- -- ----- -- ------ - ------- --- ----------<br>------------- ------ ------ ---- ---- ------- ----- -- ----<br>-------- ------- -- ---------- --- - --- ----- ----- ----<br>---- --- --- ----- --- feel ---- ------- ----- ---- -------<br>--- --- -- ----- -- --- ---- -- --- ---- -- ------ ------<br>--- ----- -- ----,177376.70000004768,177375.70000004768,176972.31,176979.5,176989.041,177390.584,,33,feel
screen,html.Screen,2_1_0_1_34,2022-04-27T12:59:31.838Z,,,,,,,,,,,,,,,,,53,,,,,,,,,,,,,,450.5160000238393,,response,,,,99,,,,,,,Space,keypress(Space),,,,,,,,---- -- ----- -- ------ - ------- --- ----------<br>------------- ------ ------ ---- ---- ------- ----- -- ----<br>-------- ------- -- ---------- --- - --- ----- ----- ----<br>---- --- --- ----- --- ---- that ------- ----- ---- -------<br>--- --- -- ----- -- --- ---- -- --- ---- -- ------ ------<br>--- ----- -- ----,177842.10000002384,177841.10000002384,177373.853,177376.90000009537,177390.584,177859.216,,34,that
screen,html.Screen,2_1_0_1_35,2022-04-27T12:59:32.290Z,,,,,,,,,,,,,,,,,53,,,,,,,,,,,,,,434.18400009538163,,response,,,,99,,,,,,,Space,keypress(Space),,,,,,,,---- -- ----- -- ------ - ------- --- ----------<br>------------- ------ ------ ---- ---- ------- ----- -- ----<br>-------- ------- -- ---------- --- - --- ----- ----- ----<br>---- --- --- ----- --- ---- ---- matters ----- ---- -------<br>--- --- -- ----- -- --- ---- -- --- ---- -- ------ ------<br>--- ----- -- ----,178294.30000007153,178293.40000009537,177842.482,177842.40000009537,177859.216,178311.02,,35,matters
screen,html.Screen,2_1_0_1_36,2022-04-27T12:59:32.800Z,,,,,,,,,,,,,,,,,53,,,,,,,,,,,,,,491.4800000000105,,response,,,,99,,,,,,,Space,keypress(Space),,,,,,,,"---- -- ----- -- ------ - ------- --- ----------<br>------------- ------ ------ ---- ---- ------- ----- -- ----<br>-------- ------- -- ---------- --- - --- ----- ----- ----<br>---- --- --- ----- --- ---- ---- ------- most, ---- -------<br>--- --- -- ----- -- --- ---- -- --- ---- -- ------ ------<br>--- ----- -- ----",178803.5,178802.5,178294.285,178294.60000002384,178311.02,178813.018,,36,"most,"
screen,html.Screen,2_1_0_1_37,2022-04-27T12:59:33.261Z,,,,,,,,,,,,,,,,,53,,,,,,,,,,,,,,448.98199999998906,,response,,,,99,,,,,,,Space,keypress(Space),,,,,,,,---- -- ----- -- ------ - ------- --- ----------<br>------------- ------ ------ ---- ---- ------- ----- -- ----<br>-------- ------- -- ---------- --- - --- ----- ----- ----<br>---- --- --- ----- --- ---- ---- ------- ----- it's -------<br>--- --- -- ----- -- --- ---- -- --- ---- -- ------ ------<br>--- ----- -- ----,179264.70000004768,179262,178796.283,178803.70000004768,178813.018,179281.499,,37,it's
screen,html.Screen,2_1_0_1_38,2022-04-27T12:59:33.903Z,,,,,,,,,,,,,,,,,53,,,,,,,,,,,,,,624.201000047673,,response,,,,99,,,,,,,Space,keypress(Space),,,,,,,,---- -- ----- -- ------ - ------- --- ----------<br>------------- ------ ------ ---- ---- ------- ----- -- ----<br>-------- ------- -- ---------- --- - --- ----- ----- ----<br>---- --- --- ----- --- ---- ---- ------- ----- ---- whether<br>--- --- -- ----- -- --- ---- -- --- ---- -- ------ ------<br>--- ----- -- ----,179906.70000004768,179905.70000004768,179264.765,179265,179281.499,179917.308,,38,whether
screen,html.Screen,2_1_0_1_39,2022-04-27T12:59:34.354Z,,,,,,,,,,,,,,,,,53,,,,,,,,,,,,,,439.09200009537744,,response,,,,99,,,,,,,Space,keypress(Space),,,,,,,,---- -- ----- -- ------ - ------- --- ----------<br>------------- ------ ------ ---- ---- ------- ----- -- ----<br>-------- ------- -- ---------- --- - --- ----- ----- ----<br>---- --- --- ----- --- ---- ---- ------- ----- ---- -------<br>you --- -- ----- -- --- ---- -- --- ---- -- ------ ------<br>--- ----- -- ----,180357.40000009537,180356.40000009537,179900.574,179906.90000009537,179917.308,180369.003,,39,you
screen,html.Screen,2_1_0_1_40,2022-04-27T12:59:34.849Z,,,,,,,,,,,,,,,,,53,,,,,,,,,,,,,,482.69700004768674,,response,,,,99,,,,,,,Space,keypress(Space),,,,,,,,---- -- ----- -- ------ - ------- --- ----------<br>------------- ------ ------ ---- ---- ------- ----- -- ----<br>-------- ------- -- ---------- --- - --- ----- ----- ----<br>---- --- --- ----- --- ---- ---- ------- ----- ---- -------<br>--- are -- ----- -- --- ---- -- --- ---- -- ------ ------<br>--- ----- -- ----,180852.60000002384,180851.70000004768,180352.271,180357.60000002384,180369.003,180854.396,,40,are
screen,html.Screen,2_1_0_1_41,2022-04-27T12:59:35.373Z,,,,,,,,,,,,,,,,,53,,,,,,,,,,,,,,521.5040000953595,,response,,,,99,,,,,,,Space,keypress(Space),,,,,,,,---- -- ----- -- ------ - ------- --- ----------<br>------------- ------ ------ ---- ---- ------- ----- -- ----<br>-------- ------- -- ---------- --- - --- ----- ----- ----<br>---- --- --- ----- --- ---- ---- ------- ----- ---- -------<br>--- --- as ----- -- --- ---- -- --- ---- -- ------ ------<br>--- ----- -- ----,181377,181375.90000009537,180837.66,180852.90000009537,180854.396,181389.892,,41,as
screen,html.Screen,2_1_0_1_42,2022-04-27T12:59:35.811Z,,,,,,,,,,,,,,,,,53,,,,,,,,,,,,,,423.5080000953749,,response,,,,99,,,,,,,Space,keypress(Space),,,,,,,,---- -- ----- -- ------ - ------- --- ----------<br>------------- ------ ------ ---- ---- ------- ----- -- ----<br>-------- ------- -- ---------- --- - --- ----- ----- ----<br>---- --- --- ----- --- ---- ---- ------- ----- ---- -------<br>--- --- -- close -- --- ---- -- --- ---- -- ------ ------<br>--- ----- -- ----,181814.30000007153,181813.40000009537,181373.155,181377.20000004768,181389.892,181824.869,,42,close
screen,html.Screen,2_1_0_1_43,2022-04-27T12:59:36.254Z,,,,,,,,,,,,,,,,,53,,,,,,,,,,,,,,432.13099999999395,,response,,,,99,,,,,,,Space,keypress(Space),,,,,,,,---- -- ----- -- ------ - ------- --- ----------<br>------------- ------ ------ ---- ---- ------- ----- -- ----<br>-------- ------- -- ---------- --- - --- ----- ----- ----<br>---- --- --- ----- --- ---- ---- ------- ----- ---- -------<br>--- --- -- ----- as --- ---- -- --- ---- -- ------ ------<br>--- ----- -- ----,182258,182257,181808.132,181814.5,181824.869,182260.052,,43,as
screen,html.Screen,2_1_0_1_44,2022-04-27T12:59:36.664Z,,,,,,,,,,,,,,,,,53,,,,,,,,,,,,,,406.5480000238458,,response,,,,99,,,,,,,Space,keypress(Space),,,,,,,,---- -- ----- -- ------ - ------- --- ----------<br>------------- ------ ------ ---- ---- ------- ----- -- ----<br>-------- ------- -- ---------- --- - --- ----- ----- ----<br>---- --- --- ----- --- ---- ---- ------- ----- ---- -------<br>--- --- -- ----- -- you ---- -- --- ---- -- ------ ------<br>--- ----- -- ----,182667.60000002384,182666.60000002384,182243.312,182258.20000004768,182260.052,182678.262,,44,you
screen,html.Screen,2_1_0_1_45,2022-04-27T12:59:37.037Z,,,,,,,,,,,,,,,,,53,,,,,,,,,,,,,,361.2380000000121,,response,,,,99,,,,,,,Space,keypress(Space),,,,,,,,---- -- ----- -- ------ - ------- --- ----------<br>------------- ------ ------ ---- ---- ------- ----- -- ----<br>-------- ------- -- ---------- --- - --- ----- ----- ----<br>---- --- --- ----- --- ---- ---- ------- ----- ---- -------<br>--- --- -- ----- -- --- want -- --- ---- -- ------ ------<br>--- ----- -- ----,183040.5,183039.5,182661.526,182667.80000007153,182678.262,183046.383,,45,want
screen,html.Screen,2_1_0_1_46,2022-04-27T12:59:37.435Z,,,,,,,,,,,,,,,,,53,,,,,,,,,,,,,,391.11699999999837,,response,,,,99,,,,,,,Space,keypress(Space),,,,,,,,---- -- ----- -- ------ - ------- --- ----------<br>------------- ------ ------ ---- ---- ------- ----- -- ----<br>-------- ------- -- ---------- --- - --- ----- ----- ----<br>---- --- --- ----- --- ---- ---- ------- ----- ---- -------<br>--- --- -- ----- -- --- ---- to --- ---- -- ------ ------<br>--- ----- -- ----,183438.5,183437.5,183029.647,183040.80000007153,183046.383,183447.929,,46,to
screen,html.Screen,2_1_0_1_47,2022-04-27T12:59:37.777Z,,,,,,,,,,,,,,,,,53,,,,,,,,,,,,,,331.67100002383813,,response,,,,99,,,,,,,Space,keypress(Space),,,,,,,,"---- -- ----- -- ------ - ------- --- ----------<br>------------- ------ ------ ---- ---- ------- ----- -- ----<br>-------- ------- -- ---------- --- - --- ----- ----- ----<br>---- --- --- ----- --- ---- ---- ------- ----- ---- -------<br>--- --- -- ----- -- --- ---- -- be, ---- -- ------ ------<br>--- ----- -- ----",183780.60000002384,183779.60000002384,183431.194,183438.70000004768,183447.929,183782.474,,47,"be,"
screen,html.Screen,2_1_0_1_48,2022-04-27T12:59:38.272Z,,,,,,,,,,,,,,,,,53,,,,,,,,,,,,,,491.92600009538,,response,,,,99,,,,,,,Space,keypress(Space),,,,,,,,---- -- ----- -- ------ - ------- --- ----------<br>------------- ------ ------ ---- ---- ------- ----- -- ----<br>-------- ------- -- ---------- --- - --- ----- ----- ----<br>---- --- --- ----- --- ---- ---- ------- ----- ---- -------<br>--- --- -- ----- -- --- ---- -- --- even -- ------ ------<br>--- ----- -- ----,184275.5,184274.40000009537,183765.743,183780.80000007153,183782.474,184284.488,,48,even
screen,html.Screen,2_1_0_1_49,2022-04-27T12:59:38.672Z,,,,,,,,,,,,,,,,,53,,,,,,,,,,,,,,389.9120000953553,,response,,,,99,,,,,,,Space,keypress(Space),,,,,,,,---- -- ----- -- ------ - ------- --- ----------<br>------------- ------ ------ ---- ---- ------- ----- -- ----<br>-------- ------- -- ---------- --- - --- ----- ----- ----<br>---- --- --- ----- --- ---- ---- ------- ----- ---- -------<br>--- --- -- ----- -- --- ---- -- --- ---- if ------ ------<br>--- ----- -- ----,184675.5,184674.40000009537,184267.756,184275.70000004768,184284.488,184686.057,,49,if
screen,html.Screen,2_1_0_1_50,2022-04-27T12:59:39.142Z,,,,,,,,,,,,,,,,,53,,,,,,,,,,,,,,458.34300009536673,,response,,,,99,,,,,,,Space,keypress(Space),,,,,,,,---- -- ----- -- ------ - ------- --- ----------<br>------------- ------ ------ ---- ---- ------- ----- -- ----<br>-------- ------- -- ---------- --- - --- ----- ----- ----<br>---- --- --- ----- --- ---- ---- ------- ----- ---- -------<br>--- --- -- ----- -- --- ---- -- --- ---- -- that's ------<br>--- ----- -- ----,185145.5,185144.40000009537,184669.325,184675.80000007153,184686.057,185154.619,,50,that's
screen,html.Screen,2_1_0_1_51,2022-04-27T12:59:39.554Z,,,,,,,,,,,,,,,,,53,,,,,,,,,,,,,,401.6810000715195,,response,,,,99,,,,,,,Space,keypress(Space),,,,,,,,---- -- ----- -- ------ - ------- --- ----------<br>------------- ------ ------ ---- ---- ------- ----- -- ----<br>-------- ------- -- ---------- --- - --- ----- ----- ----<br>---- --- --- ----- --- ---- ---- ------- ----- ---- -------<br>--- --- -- ----- -- --- ---- -- --- ---- -- ------ really<br>--- ----- -- ----,185557.40000009537,185556.30000007153,185137.886,185145.70000004768,185154.619,185572.881,,51,really
screen,html.Screen,2_1_0_1_52,2022-04-27T12:59:40.034Z,,,,,,,,,,,,,,,,,53,,,,,,,,,,,,,,463.81900004768977,,response,,,,99,,,,,,,Space,keypress(Space),,,,,,,,---- -- ----- -- ------ - ------- --- ----------<br>------------- ------ ------ ---- ---- ------- ----- -- ----<br>-------- ------- -- ---------- --- - --- ----- ----- ----<br>---- --- --- ----- --- ---- ---- ------- ----- ---- -------<br>--- --- -- ----- -- --- ---- -- --- ---- -- ------ ------<br>not ----- -- ----,186037.70000004768,186036.70000004768,185556.148,185557.60000002384,185572.881,186041.53,,52,not
screen,html.Screen,2_1_0_1_53,2022-04-27T12:59:40.540Z,,,,,,,,,,,,,,,,,53,,,,,,,,,,,,,,501.27000007152674,,response,,,,99,,,,,,,Space,keypress(Space),,,,,,,,---- -- ----- -- ------ - ------- --- ----------<br>------------- ------ ------ ---- ---- ------- ----- -- ----<br>-------- ------- -- ---------- --- - --- ----- ----- ----<br>---- --- --- ----- --- ---- ---- ------- ----- ---- -------<br>--- --- -- ----- -- --- ---- -- --- ---- -- ------ ------<br>--- close -- ----,186543.80000007153,186542.80000007153,186024.794,186037.90000009537,186041.53,186560.219,,53,close
screen,html.Screen,2_1_0_1_54,2022-04-27T12:59:41.004Z,,,,,,,,,,,,,,,,,53,,,,,,,,,,,,,,446.0810000715137,,response,,,,99,,,,,,,Space,keypress(Space),,,,,,,,---- -- ----- -- ------ - ------- --- ----------<br>------------- ------ ------ ---- ---- ------- ----- -- ----<br>-------- ------- -- ---------- --- - --- ----- ----- ----<br>---- --- --- ----- --- ---- ---- ------- ----- ---- -------<br>--- --- -- ----- -- --- ---- -- --- ---- -- ------ ------<br>--- ----- at ----,187007.40000009537,187006.30000007153,186543.484,186544,186560.219,187011.991,,54,at
screen,html.Screen,2_1_0_1_55,2022-04-27T12:59:41.621Z,,,,,,,,,,,,,,,,,53,,,,,,,,,,,,,,611.4090000953584,,response,,,,99,,,,,,,Space,keypress(Space),,,,,,,,---- -- ----- -- ------ - ------- --- ----------<br>------------- ------ ------ ---- ---- ------- ----- -- ----<br>-------- ------- -- ---------- --- - --- ----- ----- ----<br>---- --- --- ----- --- ---- ---- ------- ----- ---- -------<br>--- --- -- ----- -- --- ---- -- --- ---- -- ------ ------<br>--- ----- -- all.,187624.5,187623.40000009537,186995.256,187007.5,187011.991,187631.072,,55,all.
Item 99,flow.Loop,2_1_0_1,2022-04-27T12:59:41.621Z,,,,,,,,,,,,,,,,,,,,,,,,,,,,,,,29040.279000095354,,completion,,,,,C,,,,,,,,,,,silence,,,,,187624.90000009537,187623.40000009537,158532.928,158534.80000007153,158583.121,187631.072,,,
Question 1,html.Screen,2_1_0_2,2022-04-27T12:59:56.019Z,,,,,,,,,,,,,,,,,,,,,,,,,,,,false,FALSE,,14390.628000047698,,response,,,,99,C,,,,,,TRUE,click #choice-1,,,,silence,,,,,202022.40000009537,202021.70000004768,187614.338,187625.10000002384,187631.072,202037.793,,,
Question 2,html.Screen,2_1_0_3,2022-04-27T13:00:07.182Z,,,,,,,,,,,,,,,,,,,,,,,,,,,,true,TRUE,,11147.706999999995,,response,,,,99,C,,,,,,TRUE,click #choice-1,,,,silence,,,,,213186.20000004768,213185.5,202021.06,202022.5,202037.793,213198.414,,,
Item 99,flow.Sequence,2_1_0,2022-04-27T13:00:07.183Z,,,,,,,,,,,,,,,,,,,,,,,,,,,,,,,64641.93299999999,,completion,,,,,,,,,,,,,,,,,,,,,213186.40000009537,213185.5,148526.837,148536,148543.567,213198.414,,,
Holding screen,html.Screen,2_1_1_0,2022-04-27T13:00:17.186Z,,,,,,,,,,,,,,,,,,,,,,,,,,,,,,,10006.292000000016,,timeout,,,,,,,,,,,,,,,,,,,,,223189.30000007153,223187.971,213181.684,213186.5,213198.414,223204.706,,,
screen,html.Screen,2_1_1_1_0,2022-04-27T13:00:18.715Z,,,,,,,,,,,,,,,,,54,,,,,,,,,,,,,,1512.59400007152,,response,,,,100,,,,,,,Space,keypress(Space),,,,,,,,At --- ---- --- ------ ----- ------- ---- -- --- ------- --<br>------- ---------- ------ -- ----- -- ----- -- ---- ------<br>--- ----- --- --- ------ -------- ----- --- ------ ----- --<br>----- ----- ---------- --- --- ------ ------ ---- -- ------<br>------- --- ------ ----- --- ---- ------- -- ---- --- --<br>------- ------,224718.5,224717.30000007153,223187.971,223189.5,223204.706,224727.452,,0,At
screen,html.Screen,2_1_1_1_1,2022-04-27T13:00:19.117Z,,,,,,,,,,,,,,,,,54,,,,,,,,,,,,,,392.2480000476935,,response,,,,100,,,,,,,Space,keypress(Space),,,,,,,,-- the ---- --- ------ ----- ------- ---- -- --- ------- --<br>------- ---------- ------ -- ----- -- ----- -- ---- ------<br>--- ----- --- --- ------ -------- ----- --- ------ ----- --<br>----- ----- ---------- --- --- ------ ------ ---- -- ------<br>------- --- ------ ----- --- ---- ------- -- ---- --- --<br>------- ------,225120.70000004768,225119.70000004768,224710.717,224718.80000007153,224727.452,225128.825,,1,the
screen,html.Screen,2_1_1_1_2,2022-04-27T13:00:19.448Z,,,,,,,,,,,,,,,,,54,,,,,,,,,,,,,,322.17499999998836,,response,,,,100,,,,,,,Space,keypress(Space),,,,,,,,-- --- time --- ------ ----- ------- ---- -- --- ------- --<br>------- ---------- ------ -- ----- -- ----- -- ---- ------<br>--- ----- --- --- ------ -------- ----- --- ------ ----- --<br>----- ----- ---------- --- --- ------ ------ ---- -- ------<br>------- --- ------ ----- --- ---- ------- -- ---- --- --<br>------- ------,225452,225451,225112.091,225120.90000009537,225128.825,225463.512,,2,time
screen,html.Screen,2_1_1_1_3,2022-04-27T13:00:19.829Z,,,,,,,,,,,,,,,,,54,,,,,,,,,,,,,,367.9880000000121,,response,,,,100,,,,,,,Space,keypress(Space),,,,,,,,-- --- ---- the ------ ----- ------- ---- -- --- ------- --<br>------- ---------- ------ -- ----- -- ----- -- ---- ------<br>--- ----- --- --- ------ -------- ----- --- ------ ----- --<br>----- ----- ---------- --- --- ------ ------ ---- -- ------<br>------- --- ------ ----- --- ---- ------- -- ---- --- --<br>------- ------,225832.40000009537,225831.5,225446.776,225452.10000002384,225463.512,225848.423,,3,the
screen,html.Screen,2_1_1_1_4,2022-04-27T13:00:20.171Z,,,,,,,,,,,,,,,,,54,,,,,,,,,,,,,,325.27700004767394,,response,,,,100,,,,,,,Space,keypress(Space),,,,,,,,-- --- ---- --- French ----- ------- ---- -- --- ------- --<br>------- ---------- ------ -- ----- -- ----- -- ---- ------<br>--- ----- --- --- ------ -------- ----- --- ------ ----- --<br>----- ----- ---------- --- --- ------ ------ ---- -- ------<br>------- --- ------ ----- --- ---- ------- -- ---- --- --<br>------- ------,226174.40000009537,226173.70000004768,225831.686,225832.60000002384,225848.423,226183.023,,4,French
screen,html.Screen,2_1_1_1_5,2022-04-27T13:00:20.574Z,,,,,,,,,,,,,,,,,54,,,,,,,,,,,,,,393.2770000715391,,response,,,,100,,,,,,,Space,keypress(Space),,,,,,,,-- --- ---- --- ------ crown ------- ---- -- --- ------- --<br>------- ---------- ------ -- ----- -- ----- -- ---- ------<br>--- ----- --- --- ------ -------- ----- --- ------ ----- --<br>----- ----- ---------- --- --- ------ ------ ---- -- ------<br>------- --- ------ ----- --- ---- ------- -- ---- --- --<br>------- ------,226577.30000007153,226576.30000007153,226166.287,226174.70000004768,226183.023,226584.661,,5,crown
screen,html.Screen,2_1_1_1_6,2022-04-27T13:00:21.139Z,,,,,,,,,,,,,,,,,54,,,,,,,,,,,,,,557.4390000238491,,response,,,,100,,,,,,,Space,keypress(Space),,,,,,,,-- --- ---- --- ------ ----- secured ---- -- --- ------- --<br>------- ---------- ------ -- ----- -- ----- -- ---- ------<br>--- ----- --- --- ------ -------- ----- --- ------ ----- --<br>----- ----- ---------- --- --- ------ ------ ---- -- ------<br>------- --- ------ ----- --- ---- ------- -- ---- --- --<br>------- ------,227142.80000007153,227142.10000002384,226567.924,226577.5,226584.661,227153.657,,6,secured
screen,html.Screen,2_1_1_1_7,2022-04-27T13:00:21.831Z,,,,,,,,,,,,,,,,,54,,,,,,,,,,,,,,680.143000071519,,response,,,,100,,,,,,,Space,keypress(Space),,,,,,,,-- --- ---- --- ------ ----- ------- much -- --- ------- --<br>------- ---------- ------ -- ----- -- ----- -- ---- ------<br>--- ----- --- --- ------ -------- ----- --- ------ ----- --<br>----- ----- ---------- --- --- ------ ------ ---- -- ------<br>------- --- ------ ----- --- ---- ------- -- ---- --- --<br>------- ------,227834.70000004768,227833.80000007153,227136.921,227143,227153.657,227839.642,,7,much
screen,html.Screen,2_1_1_1_8,2022-04-27T13:00:22.231Z,,,,,,,,,,,,,,,,,54,,,,,,,,,,,,,,393.7580000953749,,response,,,,100,,,,,,,Space,keypress(Space),,,,,,,,-- --- ---- --- ------ ----- ------- ---- of --- ------- --<br>------- ---------- ------ -- ----- -- ----- -- ---- ------<br>--- ----- --- --- ------ -------- ----- --- ------ ----- --<br>----- ----- ---------- --- --- ------ ------ ---- -- ------<br>------- --- ------ ----- --- ---- ------- -- ---- --- --<br>------- ------,228234.20000004768,228233.40000009537,227822.906,227834.90000009537,227839.642,228241.142,,8,of
screen,html.Screen,2_1_1_1_9,2022-04-27T13:00:22.608Z,,,,,,,,,,,,,,,,,54,,,,,,,,,,,,,,369.4580000238493,,response,,,,100,,,,,,,Space,keypress(Space),,,,,,,,-- --- ---- --- ------ ----- ------- ---- -- its ------- --<br>------- ---------- ------ -- ----- -- ----- -- ---- ------<br>--- ----- --- --- ------ -------- ----- --- ------ ----- --<br>----- ----- ---------- --- --- ------ ------ ---- -- ------<br>------- --- ------ ----- --- ---- ------- -- ---- --- --<br>------- ------,228611.70000004768,228610.60000002384,228224.407,228234.5,228241.142,228626.042,,9,its
screen,html.Screen,2_1_1_1_10,2022-04-27T13:00:22.977Z,,,,,,,,,,,,,,,,,54,,,,,,,,,,,,,,353.75800007153885,,response,,,,100,,,,,,,Space,keypress(Space),,,,,,,,-- --- ---- --- ------ ----- ------- ---- -- --- revenue --<br>------- ---------- ------ -- ----- -- ----- -- ---- ------<br>--- ----- --- --- ------ -------- ----- --- ------ ----- --<br>----- ----- ---------- --- --- ------ ------ ---- -- ------<br>------- --- ------ ----- --- ---- ------- -- ---- --- --<br>------- ------,228980.70000004768,228979.80000007153,228609.307,228611.90000009537,228626.042,228994.043,,10,revenue
screen,html.Screen,2_1_1_1_11,2022-04-27T13:00:23.443Z,,,,,,,,,,,,,,,,,54,,,,,,,,,,,,,,451.6570000476786,,response,,,,100,,,,,,,Space,keypress(Space),,,,,,,,-- --- ---- --- ------ ----- ------- ---- -- --- ------- by<br>------- ---------- ------ -- ----- -- ----- -- ---- ------<br>--- ----- --- --- ------ -------- ----- --- ------ ----- --<br>----- ----- ---------- --- --- ------ ------ ---- -- ------<br>------- --- ------ ----- --- ---- ------- -- ---- --- --<br>------- ------,229446.5,229445.70000004768,228977.309,228980.90000009537,228994.043,229462.577,,11,by
screen,html.Screen,2_1_1_1_12,2022-04-27T13:00:23.857Z,,,,,,,,,,,,,,,,,54,,,,,,,,,,,,,,397.4230000000098,,response,,,,100,,,,,,,Space,keypress(Space),,,,,,,,-- --- ---- --- ------ ----- ------- ---- -- --- ------- --<br>issuing ---------- ------ -- ----- -- ----- -- ---- ------<br>--- ----- --- --- ------ -------- ----- --- ------ ----- --<br>----- ----- ---------- --- --- ------ ------ ---- -- ------<br>------- --- ------ ----- --- ---- ------- -- ---- --- --<br>------- ------,229861.10000002384,229860,229445.844,229446.80000007153,229462.577,229864.095,,12,issuing
screen,html.Screen,2_1_1_1_13,2022-04-27T13:00:24.476Z,,,,,,,,,,,,,,,,,54,,,,,,,,,,,,,,614.4049999999988,,response,,,,100,,,,,,,Space,keypress(Space),,,,,,,,-- --- ---- --- ------ ----- ------- ---- -- --- ------- --<br>------- government ------ -- ----- -- ----- -- ---- ------<br>--- ----- --- --- ------ -------- ----- --- ------ ----- --<br>----- ----- ---------- --- --- ------ ------ ---- -- ------<br>------- --- ------ ----- --- ---- ------- -- ---- --- --<br>------- ------,230479.70000004768,230478.5,229847.362,229861.40000009537,229864.095,230483.354,,13,government
screen,html.Screen,2_1_1_1_14,2022-04-27T13:00:24.961Z,,,,,,,,,,,,,,,,,54,,,,,,,,,,,,,,480.4460000715335,,response,,,,100,,,,,,,Space,keypress(Space),,,,,,,,-- --- ---- --- ------ ----- ------- ---- -- --- ------- --<br>------- ---------- bonds. -- ----- -- ----- -- ---- ------<br>--- ----- --- --- ------ -------- ----- --- ------ ----- --<br>----- ----- ---------- --- --- ------ ------ ---- -- ------<br>------- --- ------ ----- --- ---- ------- -- ---- --- --<br>------- ------,230964.70000004768,230963.80000007153,230466.617,230479.90000009537,230483.354,230968.709,,14,bonds.
screen,html.Screen,2_1_1_1_15,2022-04-27T13:00:25.790Z,,,,,,,,,,,,,,,,,54,,,,,,,,,,,,,,823.9910000476812,,response,,,,100,,,,,,,Space,keypress(Space),,,,,,,,-- --- ---- --- ------ ----- ------- ---- -- --- ------- --<br>------- ---------- ------ In ----- -- ----- -- ---- ------<br>--- ----- --- --- ------ -------- ----- --- ------ ----- --<br>----- ----- ---------- --- --- ------ ------ ---- -- ------<br>------- --- ------ ----- --- ---- ------- -- ---- --- --<br>------- ------,231793.80000007153,231792.70000004768,230951.969,230964.90000009537,230968.709,231805.396,,15,In
screen,html.Screen,2_1_1_1_16,2022-04-27T13:00:27.047Z,,,,,,,,,,,,,,,,,54,,,,,,,,,,,,,,1244.103999999992,,response,,,,100,,,,,,,Space,keypress(Space),,,,,,,,"-- --- ---- --- ------ ----- ------- ---- -- --- ------- --<br>------- ---------- ------ -- 1727, -- ----- -- ---- ------<br>--- ----- --- --- ------ -------- ----- --- ------ ----- --<br>----- ----- ---------- --- --- ------ ------ ---- -- ------<br>------- --- ------ ----- --- ---- ------- -- ---- --- --<br>------- ------",233050.5,233049.5,231788.658,231794.10000002384,231805.396,233060.474,,16,"1727,"
screen,html.Screen,2_1_1_1_17,2022-04-27T13:00:28.291Z,,,,,,,,,,,,,,,,,54,,,,,,,,,,,,,,1233.2260000476963,,response,,,,100,,,,,,,Space,keypress(Space),,,,,,,,-- --- ---- --- ------ ----- ------- ---- -- --- ------- --<br>------- ---------- ------ -- ----- in ----- -- ---- ------<br>--- ----- --- --- ------ -------- ----- --- ------ ----- --<br>----- ----- ---------- --- --- ------ ------ ---- -- ------<br>------- --- ------ ----- --- ---- ------- -- ---- --- --<br>------- ------,234294.80000007153,234293.70000004768,233043.736,233050.70000004768,233060.474,234298.69,,17,in
screen,html.Screen,2_1_1_1_18,2022-04-27T13:00:28.948Z,,,,,,,,,,,,,,,,,54,,,,,,,,,,,,,,651.6100000715232,,response,,,,100,,,,,,,Space,keypress(Space),,,,,,,,-- --- ---- --- ------ ----- ------- ---- -- --- ------- --<br>------- ---------- ------ -- ----- -- order -- ---- ------<br>--- ----- --- --- ------ -------- ----- --- ------ ----- --<br>----- ----- ---------- --- --- ------ ------ ---- -- ------<br>------- --- ------ ----- --- ---- ------- -- ---- --- --<br>------- ------,234951.30000007153,234950.30000007153,234281.952,234295,234298.69,234967.806,,18,order
screen,html.Screen,2_1_1_1_19,2022-04-27T13:00:29.312Z,,,,,,,,,,,,,,,,,54,,,,,,,,,,,,,,347.3940000476723,,response,,,,100,,,,,,,Space,keypress(Space),,,,,,,,-- --- ---- --- ------ ----- ------- ---- -- --- ------- --<br>------- ---------- ------ -- ----- -- ----- to ---- ------<br>--- ----- --- --- ------ -------- ----- --- ------ ----- --<br>----- ----- ---------- --- --- ------ ------ ---- -- ------<br>------- --- ------ ----- --- ---- ------- -- ---- --- --<br>------- ------,235316.20000004768,235315.20000004768,234951.068,234951.60000002384,234967.806,235318.977,,19,to
screen,html.Screen,2_1_1_1_20,2022-04-27T13:00:29.689Z,,,,,,,,,,,,,,,,,54,,,,,,,,,,,,,,372.5229999999865,,response,,,,100,,,,,,,Space,keypress(Space),,,,,,,,-- --- ---- --- ------ ----- ------- ---- -- --- ------- --<br>------- ---------- ------ -- ----- -- ----- -- save ------<br>--- ----- --- --- ------ -------- ----- --- ------ ----- --<br>----- ----- ---------- --- --- ------ ------ ---- -- ------<br>------- --- ------ ----- --- ---- ------- -- ---- --- --<br>------- ------,235692.60000002384,235691.5,235302.244,235316.40000009537,235318.977,235703.783,,20,save
screen,html.Screen,2_1_1_1_21,2022-04-27T13:00:30.091Z,,,,,,,,,,,,,,,,,54,,,,,,,,,,,,,,390.4170000476879,,response,,,,100,,,,,,,Space,keypress(Space),,,,,,,,"-- --- ---- --- ------ ----- ------- ---- -- --- ------- --<br>------- ---------- ------ -- ----- -- ----- -- ---- money,<br>--- ----- --- --- ------ -------- ----- --- ------ ----- --<br>----- ----- ---------- --- --- ------ ------ ---- -- ------<br>------- --- ------ ----- --- ---- ------- -- ---- --- --<br>------- ------",236095.10000002384,236094.20000004768,235687.05,235692.80000007153,235703.783,236105.519,,21,"money,"
screen,html.Screen,2_1_1_1_22,2022-04-27T13:00:32.141Z,,,,,,,,,,,,,,,,,54,,,,,,,,,,,,,,2037.6810000476835,,response,,,,100,,,,,,,Space,keypress(Space),,,,,,,,-- --- ---- --- ------ ----- ------- ---- -- --- ------- --<br>------- ---------- ------ -- ----- -- ----- -- ---- ------<br>the ----- --- --- ------ -------- ----- --- ------ ----- --<br>----- ----- ---------- --- --- ------ ------ ---- -- ------<br>------- --- ------ ----- --- ---- ------- -- ---- --- --<br>------- ------,238144.30000007153,238143.20000004768,236088.782,236095.30000007153,236105.519,238147.205,,22,the
screen,html.Screen,2_1_1_1_23,2022-04-27T13:00:32.966Z,,,,,,,,,,,,,,,,,54,,,,,,,,,,,,,,821.5950000715384,,response,,,,100,,,,,,,Space,keypress(Space),,,,,,,,-- --- ---- --- ------ ----- ------- ---- -- --- ------- --<br>------- ---------- ------ -- ----- -- ----- -- ---- ------<br>--- state --- --- ------ -------- ----- --- ------ ----- --<br>----- ----- ---------- --- --- ------ ------ ---- -- ------<br>------- --- ------ ----- --- ---- ------- -- ---- --- --<br>------- ------,238969.80000007153,238968.80000007153,238130.469,238144.60000002384,238147.205,238983.585,,23,state
screen,html.Screen,2_1_1_1_24,2022-04-27T13:00:33.737Z,,,,,,,,,,,,,,,,,54,,,,,,,,,,,,,,756.4150000000081,,response,,,,100,,,,,,,Space,keypress(Space),,,,,,,,-- --- ---- --- ------ ----- ------- ---- -- --- ------- --<br>------- ---------- ------ -- ----- -- ----- -- ---- ------<br>--- ----- cut --- ------ -------- ----- --- ------ ----- --<br>----- ----- ---------- --- --- ------ ------ ---- -- ------<br>------- --- ------ ----- --- ---- ------- -- ---- --- --<br>------- ------,239741.10000002384,239740,238966.849,238970,238983.585,239753.278,,24,cut
screen,html.Screen,2_1_1_1_25,2022-04-27T13:00:34.421Z,,,,,,,,,,,,,,,,,54,,,,,,,,,,,,,,670.1220000953763,,response,,,,100,,,,,,,Space,keypress(Space),,,,,,,,-- --- ---- --- ------ ----- ------- ---- -- --- ------- --<br>------- ---------- ------ -- ----- -- ----- -- ---- ------<br>--- ----- --- the ------ -------- ----- --- ------ ----- --<br>----- ----- ---------- --- --- ------ ------ ---- -- ------<br>------- --- ------ ----- --- ---- ------- -- ---- --- --<br>------- ------,240425,240423.40000009537,239736.542,239741.30000007153,239753.278,240439.228,,25,the
screen,html.Screen,2_1_1_1_26,2022-04-27T13:00:35.330Z,,,,,,,,,,,,,,,,,54,,,,,,,,,,,,,,893.4720000476809,,response,,,,100,,,,,,,Space,keypress(Space),,,,,,,,-- --- ---- --- ------ ----- ------- ---- -- --- ------- --<br>------- ---------- ------ -- ----- -- ----- -- ---- ------<br>--- ----- --- --- bonds' -------- ----- --- ------ ----- --<br>----- ----- ---------- --- --- ------ ------ ---- -- ------<br>------- --- ------ ----- --- ---- ------- -- ---- --- --<br>------- ------,241333.70000004768,241332.70000004768,240422.493,240425.20000004768,240439.228,241342.947,,26,bonds'
screen,html.Screen,2_1_1_1_27,2022-04-27T13:00:36.243Z,,,,,,,,,,,,,,,,,54,,,,,,,,,,,,,,902.7530000476982,,response,,,,100,,,,,,,Space,keypress(Space),,,,,,,,-- --- ---- --- ------ ----- ------- ---- -- --- ------- --<br>------- ---------- ------ -- ----- -- ----- -- ---- ------<br>--- ----- --- --- ------ interest ----- --- ------ ----- --<br>----- ----- ---------- --- --- ------ ------ ---- -- ------<br>------- --- ------ ----- --- ---- ------- -- ---- --- --<br>------- ------,242246.70000004768,242245.70000004768,241326.21,241334,241342.947,242263.194,,27,interest
screen,html.Screen,2_1_1_1_28,2022-04-27T13:00:37.138Z,,,,,,,,,,,,,,,,,54,,,,,,,,,,,,,,877.8060000000114,,response,,,,100,,,,,,,Space,keypress(Space),,,,,,,,-- --- ---- --- ------ ----- ------- ---- -- --- ------- --<br>------- ---------- ------ -- ----- -- ----- -- ---- ------<br>--- ----- --- --- ------ -------- rate. --- ------ ----- --<br>----- ----- ---------- --- --- ------ ------ ---- -- ------<br>------- --- ------ ----- --- ---- ------- -- ---- --- --<br>------- ------,243142.10000002384,243141,242246.457,242246.80000007153,242263.194,243150.235,,28,rate.
screen,html.Screen,2_1_1_1_29,2022-04-27T13:00:37.796Z,,,,,,,,,,,,,,,,,54,,,,,,,,,,,,,,648.8650000238558,,response,,,,100,,,,,,,Space,keypress(Space),,,,,,,,-- --- ---- --- ------ ----- ------- ---- -- --- ------- --<br>------- ---------- ------ -- ----- -- ----- -- ---- ------<br>--- ----- --- --- ------ -------- ----- The ------ ----- --<br>----- ----- ---------- --- --- ------ ------ ---- -- ------<br>------- --- ------ ----- --- ---- ------- -- ---- --- --<br>------- ------,243800.10000002384,243799.10000002384,243133.495,243142.5,243150.235,243803.086,,29,The
screen,html.Screen,2_1_1_1_30,2022-04-27T13:00:38.117Z,,,,,,,,,,,,,,,,,54,,,,,,,,,,,,,,316.5140000238316,,response,,,,100,,,,,,,Space,keypress(Space),,,,,,,,-- --- ---- --- ------ ----- ------- ---- -- --- ------- --<br>------- ---------- ------ -- ----- -- ----- -- ---- ------<br>--- ----- --- --- ------ -------- ----- --- market ----- --<br>----- ----- ---------- --- --- ------ ------ ---- -- ------<br>------- --- ------ ----- --- ---- ------- -- ---- --- --<br>------- ------,244120.60000002384,244119.60000002384,243786.346,243800.30000007153,243803.086,244137.191,,30,market
screen,html.Screen,2_1_1_1_31,2022-04-27T13:00:38.532Z,,,,,,,,,,,,,,,,,54,,,,,,,,,,,,,,397.90900002385024,,response,,,,100,,,,,,,Space,keypress(Space),,,,,,,,-- --- ---- --- ------ ----- ------- ---- -- --- ------- --<br>------- ---------- ------ -- ----- -- ----- -- ---- ------<br>--- ----- --- --- ------ -------- ----- --- ------ value --<br>----- ----- ---------- --- --- ------ ------ ---- -- ------<br>------- --- ------ ----- --- ---- ------- -- ---- --- --<br>------- ------,244536.10000002384,244535.10000002384,244120.452,244120.80000007153,244137.191,244538.683,,31,value
screen,html.Screen,2_1_1_1_32,2022-04-27T13:00:38.970Z,,,,,,,,,,,,,,,,,54,,,,,,,,,,,,,,433.91700002385187,,response,,,,100,,,,,,,Space,keypress(Space),,,,,,,,-- --- ---- --- ------ ----- ------- ---- -- --- ------- --<br>------- ---------- ------ -- ----- -- ----- -- ---- ------<br>--- ----- --- --- ------ -------- ----- --- ------ ----- of<br>----- ----- ---------- --- --- ------ ------ ---- -- ------<br>------- --- ------ ----- --- ---- ------- -- ---- --- --<br>------- ------,244973.5,244972.60000002384,244521.949,244536.30000007153,244538.683,244990.36,,32,of
screen,html.Screen,2_1_1_1_33,2022-04-27T13:00:39.344Z,,,,,,,,,,,,,,,,,54,,,,,,,,,,,,,,356.44000007153954,,response,,,,100,,,,,,,Space,keypress(Space),,,,,,,,-- --- ---- --- ------ ----- ------- ---- -- --- ------- --<br>------- ---------- ------ -- ----- -- ----- -- ---- ------<br>--- ----- --- --- ------ -------- ----- --- ------ ----- --<br>these ----- ---------- --- --- ------ ------ ---- -- ------<br>------- --- ------ ----- --- ---- ------- -- ---- --- --<br>------- ------,245347.80000007153,245346.80000007153,244973.63,244973.80000007153,244990.36,245358.455,,33,these
screen,html.Screen,2_1_1_1_34,2022-04-27T13:00:39.664Z,,,,,,,,,,,,,,,,,54,,,,,,,,,,,,,,307.94500009538024,,response,,,,100,,,,,,,Space,keypress(Space),,,,,,,,-- --- ---- --- ------ ----- ------- ---- -- --- ------- --<br>------- ---------- ------ -- ----- -- ----- -- ---- ------<br>--- ----- --- --- ------ -------- ----- --- ------ ----- --<br>----- bonds ---------- --- --- ------ ------ ---- -- ------<br>------- --- ------ ----- --- ---- ------- -- ---- --- --<br>------- ------,245667.40000009537,245666.40000009537,245341.726,245348.10000002384,245358.455,245676.363,,34,bonds
screen,html.Screen,2_1_1_1_35,2022-04-27T13:00:40.126Z,,,,,,,,,,,,,,,,,54,,,,,,,,,,,,,,452.3370000476716,,response,,,,100,,,,,,,Space,keypress(Space),,,,,,,,"-- --- ---- --- ------ ----- ------- ---- -- --- ------- --<br>------- ---------- ------ -- ----- -- ----- -- ---- ------<br>--- ----- --- --- ------ -------- ----- --- ------ ----- --<br>----- ----- plummeted, --- --- ------ ------ ---- -- ------<br>------- --- ------ ----- --- ---- ------- -- ---- --- --<br>------- ------",246129.70000004768,246128.70000004768,245659.633,245668.60000002384,245676.363,246144.901,,35,"plummeted,"
screen,html.Screen,2_1_1_1_36,2022-04-27T13:00:40.539Z,,,,,,,,,,,,,,,,,54,,,,,,,,,,,,,,396.5989999999874,,response,,,,100,,,,,,,Space,keypress(Space),,,,,,,,-- --- ---- --- ------ ----- ------- ---- -- --- ------- --<br>------- ---------- ------ -- ----- -- ----- -- ---- ------<br>--- ----- --- --- ------ -------- ----- --- ------ ----- --<br>----- ----- ---------- and --- ------ ------ ---- -- ------<br>------- --- ------ ----- --- ---- ------- -- ---- --- --<br>------- ------,246542.5,246541.5,246128.169,246129.90000009537,246144.901,246546.639,,36,and
screen,html.Screen,2_1_1_1_37,2022-04-27T13:00:40.897Z,,,,,,,,,,,,,,,,,54,,,,,,,,,,,,,,353.4610000238463,,response,,,,100,,,,,,,Space,keypress(Space),,,,,,,,-- --- ---- --- ------ ----- ------- ---- -- --- ------- --<br>------- ---------- ------ -- ----- -- ----- -- ---- ------<br>--- ----- --- --- ------ -------- ----- --- ------ ----- --<br>----- ----- ---------- --- the ------ ------ ---- -- ------<br>------- --- ------ ----- --- ---- ------- -- ---- --- --<br>------- ------,246901,246900.10000002384,246529.903,246542.70000004768,246546.639,246914.65,,37,the
screen,html.Screen,2_1_1_1_38,2022-04-27T13:00:41.373Z,,,,,,,,,,,,,,,,,54,,,,,,,,,,,,,,461.3500000000058,,response,,,,100,,,,,,,Space,keypress(Space),,,,,,,,-- --- ---- --- ------ ----- ------- ---- -- --- ------- --<br>------- ---------- ------ -- ----- -- ----- -- ---- ------<br>--- ----- --- --- ------ -------- ----- --- ------ ----- --<br>----- ----- ---------- --- --- market ------ ---- -- ------<br>------- --- ------ ----- --- ---- ------- -- ---- --- --<br>------- ------,247377.10000002384,247376,246897.916,246901.20000004768,246914.65,247383.344,,38,market
screen,html.Screen,2_1_1_1_39,2022-04-27T13:00:41.998Z,,,,,,,,,,,,,,,,,54,,,,,,,,,,,,,,617.0560000953556,,response,,,,100,,,,,,,Space,keypress(Space),,,,,,,,-- --- ---- --- ------ ----- ------- ---- -- --- ------- --<br>------- ---------- ------ -- ----- -- ----- -- ---- ------<br>--- ----- --- --- ------ -------- ----- --- ------ ----- --<br>----- ----- ---------- --- --- ------ became ---- -- ------<br>------- --- ------ ----- --- ---- ------- -- ---- --- --<br>------- ------,248001.40000009537,248000.40000009537,247366.606,247377.30000007153,247383.344,248002.381,,39,became
screen,html.Screen,2_1_1_1_40,2022-04-27T13:00:42.719Z,,,,,,,,,,,,,,,,,54,,,,,,,,,,,,,,719.3190000476898,,response,,,,100,,,,,,,Space,keypress(Space),,,,,,,,-- --- ---- --- ------ ----- ------- ---- -- --- ------- --<br>------- ---------- ------ -- ----- -- ----- -- ---- ------<br>--- ----- --- --- ------ -------- ----- --- ------ ----- --<br>----- ----- ---------- --- --- ------ ------ wary -- ------<br>------- --- ------ ----- --- ---- ------- -- ---- --- --<br>------- ------,248722.70000004768,248721.70000004768,247985.645,248001.60000002384,248002.381,248738.769,,40,wary
screen,html.Screen,2_1_1_1_41,2022-04-27T13:00:43.148Z,,,,,,,,,,,,,,,,,54,,,,,,,,,,,,,,411.8310000238416,,response,,,,100,,,,,,,Space,keypress(Space),,,,,,,,-- --- ---- --- ------ ----- ------- ---- -- --- ------- --<br>------- ---------- ------ -- ----- -- ----- -- ---- ------<br>--- ----- --- --- ------ -------- ----- --- ------ ----- --<br>----- ----- ---------- --- --- ------ ------ ---- of ------<br>------- --- ------ ----- --- ---- ------- -- ---- --- --<br>------- ------,249151.60000002384,249150.60000002384,248722.031,248722.90000009537,248738.769,249156.925,,41,of
screen,html.Screen,2_1_1_1_42,2022-04-27T13:00:43.682Z,,,,,,,,,,,,,,,,,54,,,,,,,,,,,,,,527.7750000476954,,response,,,,100,,,,,,,Space,keypress(Space),,,,,,,,-- --- ---- --- ------ ----- ------- ---- -- --- ------- --<br>------- ---------- ------ -- ----- -- ----- -- ---- ------<br>--- ----- --- --- ------ -------- ----- --- ------ ----- --<br>----- ----- ---------- --- --- ------ ------ ---- -- French<br>------- --- ------ ----- --- ---- ------- -- ---- --- --<br>------- ------,249685.80000007153,249684.70000004768,249140.187,249151.80000007153,249156.925,249692.543,,42,French
screen,html.Screen,2_1_1_1_43,2022-04-27T13:00:44.060Z,,,,,,,,,,,,,,,,,54,,,,,,,,,,,,,,370.1570000476786,,response,,,,100,,,,,,,Space,keypress(Space),,,,,,,,-- --- ---- --- ------ ----- ------- ---- -- --- ------- --<br>------- ---------- ------ -- ----- -- ----- -- ---- ------<br>--- ----- --- --- ------ -------- ----- --- ------ ----- --<br>----- ----- ---------- --- --- ------ ------ ---- -- ------<br>credit. --- ------ ----- --- ---- ------- -- ---- --- --<br>------- ------,250063.60000002384,250062.70000004768,249675.802,249686,249692.543,250077.229,,43,credit.
screen,html.Screen,2_1_1_1_44,2022-04-27T13:00:44.529Z,,,,,,,,,,,,,,,,,54,,,,,,,,,,,,,,454.3710000238498,,response,,,,100,,,,,,,Space,keypress(Space),,,,,,,,-- --- ---- --- ------ ----- ------- ---- -- --- ------- --<br>------- ---------- ------ -- ----- -- ----- -- ---- ------<br>--- ----- --- --- ------ -------- ----- --- ------ ----- --<br>----- ----- ---------- --- --- ------ ------ ---- -- ------<br>------- The ------ ----- --- ---- ------- -- ---- --- --<br>------- ------,250532.60000002384,250531.60000002384,250060.492,250063.80000007153,250077.229,250545.782,,44,The
screen,html.Screen,2_1_1_1_45,2022-04-27T13:00:44.876Z,,,,,,,,,,,,,,,,,54,,,,,,,,,,,,,,333.4180000476772,,response,,,,100,,,,,,,Space,keypress(Space),,,,,,,,-- --- ---- --- ------ ----- ------- ---- -- --- ------- --<br>------- ---------- ------ -- ----- -- ----- -- ---- ------<br>--- ----- --- --- ------ -------- ----- --- ------ ----- --<br>----- ----- ---------- --- --- ------ ------ ---- -- ------<br>------- --- French ----- --- ---- ------- -- ---- --- --<br>------- ------,250880.10000002384,250879.20000004768,250529.045,250532.80000007153,250545.782,250897.039,,45,French
screen,html.Screen,2_1_1_1_46,2022-04-27T13:00:45.226Z,,,,,,,,,,,,,,,,,54,,,,,,,,,,,,,,331.2610000715358,,response,,,,100,,,,,,,Space,keypress(Space),,,,,,,,-- --- ---- --- ------ ----- ------- ---- -- --- ------- --<br>------- ---------- ------ -- ----- -- ----- -- ---- ------<br>--- ----- --- --- ------ -------- ----- --- ------ ----- --<br>----- ----- ---------- --- --- ------ ------ ---- -- ------<br>------- --- ------ state --- ---- ------- -- ---- --- --<br>------- ------,251229.30000007153,251228.30000007153,250880.306,250880.30000007153,250897.039,251231.645,,46,state
screen,html.Screen,2_1_1_1_47,2022-04-27T13:00:45.672Z,,,,,,,,,,,,,,,,,54,,,,,,,,,,,,,,442.65500007153605,,response,,,,100,,,,,,,Space,keypress(Space),,,,,,,,-- --- ---- --- ------ ----- ------- ---- -- --- ------- --<br>------- ---------- ------ -- ----- -- ----- -- ---- ------<br>--- ----- --- --- ------ -------- ----- --- ------ ----- --<br>----- ----- ---------- --- --- ------ ------ ---- -- ------<br>------- --- ------ ----- was ---- ------- -- ---- --- --<br>------- ------,251675.30000007153,251674.30000007153,251214.912,251229.60000002384,251231.645,251683.558,,47,was
screen,html.Screen,2_1_1_1_48,2022-04-27T13:00:46.116Z,,,,,,,,,,,,,,,,,54,,,,,,,,,,,,,,434.7420000715356,,response,,,,100,,,,,,,Space,keypress(Space),,,,,,,,-- --- ---- --- ------ ----- ------- ---- -- --- ------- --<br>------- ---------- ------ -- ----- -- ----- -- ---- ------<br>--- ----- --- --- ------ -------- ----- --- ------ ----- --<br>----- ----- ---------- --- --- ------ ------ ---- -- ------<br>------- --- ------ ----- --- left ------- -- ---- --- --<br>------- ------,252119.30000007153,252118.30000007153,251666.822,251675.60000002384,251683.558,252135.236,,48,left
screen,html.Screen,2_1_1_1_49,2022-04-27T13:00:46.518Z,,,,,,,,,,,,,,,,,54,,,,,,,,,,,,,,385.164000095363,,response,,,,100,,,,,,,Space,keypress(Space),,,,,,,,-- --- ---- --- ------ ----- ------- ---- -- --- ------- --<br>------- ---------- ------ -- ----- -- ----- -- ---- ------<br>--- ----- --- --- ------ -------- ----- --- ------ ----- --<br>----- ----- ---------- --- --- ------ ------ ---- -- ------<br>------- --- ------ ----- --- ---- without -- ---- --- --<br>------- ------,252521.5,252520.40000009537,252118.504,252119.60000002384,252135.236,252536.818,,49,without
screen,html.Screen,2_1_1_1_50,2022-04-27T13:00:46.953Z,,,,,,,,,,,,,,,,,54,,,,,,,,,,,,,,418.58200009536813,,response,,,,100,,,,,,,Space,keypress(Space),,,,,,,,-- --- ---- --- ------ ----- ------- ---- -- --- ------- --<br>------- ---------- ------ -- ----- -- ----- -- ---- ------<br>--- ----- --- --- ------ -------- ----- --- ------ ----- --<br>----- ----- ---------- --- --- ------ ------ ---- -- ------<br>------- --- ------ ----- --- ---- ------- an ---- --- --<br>------- ------,252956.40000009537,252955.40000009537,252520.086,252521.60000002384,252536.818,252971.793,,50,an
screen,html.Screen,2_1_1_1_51,2022-04-27T13:00:47.358Z,,,,,,,,,,,,,,,,,54,,,,,,,,,,,,,,389.1070000953623,,response,,,,100,,,,,,,Space,keypress(Space),,,,,,,,-- --- ---- --- ------ ----- ------- ---- -- --- ------- --<br>------- ---------- ------ -- ----- -- ----- -- ---- ------<br>--- ----- --- --- ------ -------- ----- --- ------ ----- --<br>----- ----- ---------- --- --- ------ ------ ---- -- ------<br>------- --- ------ ----- --- ---- ------- -- easy --- --<br>------- ------,253361.90000009537,253360.90000009537,252955.064,252956.60000002384,252971.793,253373.384,,51,easy
screen,html.Screen,2_1_1_1_52,2022-04-27T13:00:47.766Z,,,,,,,,,,,,,,,,,54,,,,,,,,,,,,,,395.6160000000091,,response,,,,100,,,,,,,Space,keypress(Space),,,,,,,,-- --- ---- --- ------ ----- ------- ---- -- --- ------- --<br>------- ---------- ------ -- ----- -- ----- -- ---- ------<br>--- ----- --- --- ------ -------- ----- --- ------ ----- --<br>----- ----- ---------- --- --- ------ ------ ---- -- ------<br>------- --- ------ ----- --- ---- ------- -- ---- way --<br>------- ------,253770,253769,253356.655,253362.10000002384,253373.384,253774.966,,52,way
screen,html.Screen,2_1_1_1_53,2022-04-27T13:00:48.239Z,,,,,,,,,,,,,,,,,54,,,,,,,,,,,,,,466.93400009538163,,response,,,,100,,,,,,,Space,keypress(Space),,,,,,,,-- --- ---- --- ------ ----- ------- ---- -- --- ------- --<br>------- ---------- ------ -- ----- -- ----- -- ---- ------<br>--- ----- --- --- ------ -------- ----- --- ------ ----- --<br>----- ----- ---------- --- --- ------ ------ ---- -- ------<br>------- --- ------ ----- --- ---- ------- -- ---- --- of<br>------- ------,254242.90000009537,254241.90000009537,253758.237,253770.20000004768,253774.966,254260.151,,53,of
screen,html.Screen,2_1_1_1_54,2022-04-27T13:00:48.624Z,,,,,,,,,,,,,,,,,54,,,,,,,,,,,,,,366.149000071513,,response,,,,100,,,,,,,Space,keypress(Space),,,,,,,,-- --- ---- --- ------ ----- ------- ---- -- --- ------- --<br>------- ---------- ------ -- ----- -- ----- -- ---- ------<br>--- ----- --- --- ------ -------- ----- --- ------ ----- --<br>----- ----- ---------- --- --- ------ ------ ---- -- ------<br>------- --- ------ ----- --- ---- ------- -- ---- --- --<br>raising ------,254627.30000007153,254626.30000007153,254243.422,254243.10000002384,254260.151,254628.38,,54,raising
screen,html.Screen,2_1_1_1_55,2022-04-27T13:00:49.414Z,,,,,,,,,,,,,,,,,54,,,,,,,,,,,,,,788.6199999999953,,response,,,,100,,,,,,,Space,keypress(Space),,,,,,,,-- --- ---- --- ------ ----- ------- ---- -- --- ------- --<br>------- ---------- ------ -- ----- -- ----- -- ---- ------<br>--- ----- --- --- ------ -------- ----- --- ------ ----- --<br>----- ----- ---------- --- --- ------ ------ ---- -- ------<br>------- --- ------ ----- --- ---- ------- -- ---- --- --<br>------- money.,255418,255417,254611.649,254627.40000009537,254628.38,255431.466,,55,money.
Item 100,flow.Loop,2_1_1_1,2022-04-27T13:00:49.415Z,,,,,,,,,,,,,,,,,,,,,,,,,,,,,,,32212.293999999994,,completion,,,,,C,,,,,,,,,,,silence,,,,,255418.30000007153,255417,223187.971,223189.40000009537,223204.706,255431.466,,,
Question 1,html.Screen,2_1_1_2,2022-04-27T13:00:55.183Z,,,,,,,,,,,,,,,,,,,,,,,,,,,,true,TRUE,,5755.034000000014,,response,,,,100,C,,,,,,TRUE,click #choice-1,,,,silence,,,,,261187.10000002384,261186.5,255414.735,255418.60000002384,255431.466,261187.571,,,
Question 2,html.Screen,2_1_1_3,2022-04-27T13:00:58.270Z,,,,,,,,,,,,,,,,,,,,,,,,,,,,true,FALSE,,3085.6290000476874,,response,,,,100,C,,,,,,FALSE,click #choice-2,,,,silence,,,,,264273.90000009537,264273.2000000477,261170.839,261187.30000007153,261187.571,264283.145,,,
Item 100,flow.Sequence,2_1_1,2022-04-27T13:00:58.270Z,,,,,,,,,,,,,,,,,,,,,,,,,,,,,,,51074.786000047694,,completion,,,,,,,,,,,,,,,,,,,,,264274.10000002384,264273.2000000477,213181.684,213186.5,213198.414,264283.145,,,
End of Practice,html.Page,2_1_2,2022-04-27T13:01:02.283Z,,,,,,,,,,,,,,,,,,,,,,,,,,,,,,,4003.255000095349,,form submission,,,,,,,,,,,,,,,,,,,,,268286.7000000477,268286.40000009537,264266.407,264274.2000000477,264283.145,268299.011,,,
Practice,flow.Sequence,2_1,2022-04-27T13:01:02.283Z,,,,,,,,,,,,,,,,,,,,,,,,,,,,,,,119742.83300009536,,completion,,,,,,,,,,,,,,,,,,,,,268286.90000009537,268286.40000009537,148526.837,148535.90000009537,148543.567,268299.011,,,
Trap_instruction,html.Page,2_2_0,2022-04-27T13:01:08.178Z,,,,,,,,,,,,,,,,,,,,,,,,,,,,,,,5882.189000047685,,form submission,,,,,,,,,,,,,,,,,,,,,274181.40000009537,274181.2000000477,268282.276,268287,268299.011,274238.979,,,
trap_trial,html.Screen,2_2_1,2022-04-27T13:01:12.535Z,,,,,,,,,,,,,,,,,,,,,,,,,,,,true,1,,4299.12100002385,,response,,,,,,,,,,,1,click #choice-1,,,,,,,,,278538.90000009537,278538.10000002384,274172.047,274181.5,274238.979,278540.595,,,
end of trap trial,html.Page,2_2_2,2022-04-27T13:01:14.688Z,,,,,,,,,,,,,,,,,,,,,,,,,,,,,,,2151.00500002387,,form submission,,,,,,,,,,,,,,,,,,,,,280691.7000000477,280691.60000002384,278523.857,278539,278540.595,280697.963,,,
Trap 1,flow.Sequence,2_2,2022-04-27T13:01:14.688Z,,,,,,,,,,,,,,,,,,,,,,,,,,,,,,,12392.589000023843,,completion,,,,,,,,,,,,,,,,,,,,,280692,280691.60000002384,268282.276,268286.90000009537,268299.011,280697.963,,,
Standby,html.Page,2_3_0,2022-04-27T13:01:22.678Z,,,,,,,,,,,,,,,,,,,,,,,,,,,,,,,7998.673999999999,,timeout,,,,,,,,,,,,,,,,,,,,,288681.8000000715,288679.903,280681.226,280692.10000002384,280697.963,288696.637,,,
Holding screen,html.Screen,2_3_1_0_0,2022-04-27T13:01:29.671Z,,,,,,,,,,,,,,,,,,,,,,,,,,,,,,,6993.179999999993,,timeout,,,,,,,,,,,,,,,,,,,,,295674.3000000715,295673.088,288679.903,288682.2000000477,288696.637,295689.817,,,
screen,html.Screen,2_3_1_0_1_0,2022-04-27T13:01:30.914Z,,,,,,,,,,,,,,,,,40,,,,,,,,,,,,,,1226.783000023861,,response,,,,9,C,,,,,,Space,keypress(Space),,,,instrumental,,,,Police -- ------- ---- ---- ---- - -------- ----- --- --<br>----- ----- ------ -- ---- -- --- - ---- -- - ----- -----<br>------ ---- ------ ---- - -------- ------- -- --- --------<br>-------- ----------- ---- ------ ---- ------ ---- --- ---<br>-------- --- -----,296917.90000009537,296916.60000002384,295673.088,295674.90000009537,295689.817,296928.436,,0,Police
screen,html.Screen,2_3_1_0_1_1,2022-04-27T13:01:31.608Z,,,,,,,,,,,,,,,,,40,,,,,,,,,,,,,,682.064000000013,,response,,,,9,C,,,,,,Space,keypress(Space),,,,instrumental,,,,------ in ------- ---- ---- ---- - -------- ----- --- --<br>----- ----- ------ -- ---- -- --- - ---- -- - ----- -----<br>------ ---- ------ ---- - -------- ------- -- --- --------<br>-------- ----------- ---- ------ ---- ------ ---- --- ---<br>-------- --- -----,297611.40000009537,297610.5,296911.703,296918.10000002384,296928.436,297614.643,,1,in
screen,html.Screen,2_3_1_0_1_2,2022-04-27T13:01:32.314Z,,,,,,,,,,,,,,,,,40,,,,,,,,,,,,,,701.8570000000182,,response,,,,9,C,,,,,,Space,keypress(Space),,,,instrumental,,,,------ -- Georgia ---- ---- ---- - -------- ----- --- --<br>----- ----- ------ -- ---- -- --- - ---- -- - ----- -----<br>------ ---- ------ ---- - -------- ------- -- --- --------<br>-------- ----------- ---- ------ ---- ------ ---- --- ---<br>-------- --- -----,298317.3000000715,298316.5,297597.906,297611.5,297614.643,298334.226,,2,Georgia
screen,html.Screen,2_3_1_0_1_3,2022-04-27T13:01:33.138Z,,,,,,,,,,,,,,,,,40,,,,,,,,,,,,,,806.5740000715014,,response,,,,9,C,,,,,,Space,keypress(Space),,,,instrumental,,,,------ -- ------- have ---- ---- - -------- ----- --- --<br>----- ----- ------ -- ---- -- --- - ---- -- - ----- -----<br>------ ---- ------ ---- - -------- ------- -- --- --------<br>-------- ----------- ---- ------ ---- ------ ---- --- ---<br>-------- --- -----,299141.8000000715,299140.8000000715,298317.488,298317.5,298334.226,299154.056,,3,have
screen,html.Screen,2_3_1_0_1_4,2022-04-27T13:01:34.166Z,,,,,,,,,,,,,,,,,40,,,,,,,,,,,,,,1014.8440000953851,,response,,,,9,C,,,,,,Space,keypress(Space),,,,instrumental,,,,------ -- ------- ---- shut ---- - -------- ----- --- --<br>----- ----- ------ -- ---- -- --- - ---- -- - ----- -----<br>------ ---- ------ ---- - -------- ------- -- --- --------<br>-------- ----------- ---- ------ ---- ------ ---- --- ---<br>-------- --- -----,300169.90000009537,300168.90000009537,299137.319,299142,299154.056,300175.034,,4,shut
screen,html.Screen,2_3_1_0_1_5,2022-04-27T13:01:34.831Z,,,,,,,,,,,,,,,,,40,,,,,,,,,,,,,,660.3660000953823,,response,,,,9,C,,,,,,Space,keypress(Space),,,,instrumental,,,,------ -- ------- ---- ---- down - -------- ----- --- --<br>----- ----- ------ -- ---- -- --- - ---- -- - ----- -----<br>------ ---- ------ ---- - -------- ------- -- --- --------<br>-------- ----------- ---- ------ ---- ------ ---- --- ---<br>-------- --- -----,300836.2000000477,300835.40000009537,300158.294,300170.10000002384,300175.034,300844.12,,5,down
screen,html.Screen,2_3_1_0_1_6,2022-04-27T13:01:35.495Z,,,,,,,,,,,,,,,,,40,,,,,,,,,,,,,,655.4800000238465,,response,,,,9,C,,,,,,Space,keypress(Space),,,,instrumental,,,,------ -- ------- ---- ---- ---- a -------- ----- --- --<br>----- ----- ------ -- ---- -- --- - ---- -- - ----- -----<br>------ ---- ------ ---- - -------- ------- -- --- --------<br>-------- ----------- ---- ------ ---- ------ ---- --- ---<br>-------- --- -----,301500.60000002384,301499.60000002384,300827.38,300836.5,300844.12,301513.546,,6,a
screen,html.Screen,2_3_1_0_1_7,2022-04-27T13:01:36.160Z,,,,,,,,,,,,,,,,,40,,,,,,,,,,,,,,651.2540000715526,,response,,,,9,C,,,,,,Space,keypress(Space),,,,instrumental,,,,------ -- ------- ---- ---- ---- - lemonade ----- --- --<br>----- ----- ------ -- ---- -- --- - ---- -- - ----- -----<br>------ ---- ------ ---- - -------- ------- -- --- --------<br>-------- ----------- ---- ------ ---- ------ ---- --- ---<br>-------- --- -----,302165.60000002384,302164.8000000715,301496.804,301500.8000000715,301513.546,302182.889,,7,lemonade
screen,html.Screen,2_3_1_0_1_8,2022-04-27T13:01:36.778Z,,,,,,,,,,,,,,,,,40,,,,,,,,,,,,,,599.7110000238172,,response,,,,9,C,,,,,,Space,keypress(Space),,,,instrumental,,,,------ -- ------- ---- ---- ---- - -------- stand --- --<br>----- ----- ------ -- ---- -- --- - ---- -- - ----- -----<br>------ ---- ------ ---- - -------- ------- -- --- --------<br>-------- ----------- ---- ------ ---- ------ ---- --- ---<br>-------- --- -----,302783.5,302782.60000002384,302166.146,302165.8000000715,302182.889,302785.251,,8,stand
screen,html.Screen,2_3_1_0_1_9,2022-04-27T13:01:37.248Z,,,,,,,,,,,,,,,,,40,,,,,,,,,,,,,,467.4490000476944,,response,,,,9,C,,,,,,Space,keypress(Space),,,,instrumental,,,,------ -- ------- ---- ---- ---- - -------- ----- run --<br>----- ----- ------ -- ---- -- --- - ---- -- - ----- -----<br>------ ---- ------ ---- - -------- ------- -- --- --------<br>-------- ----------- ---- ------ ---- ------ ---- --- ---<br>-------- --- -----,303253.5,303252.7000000477,302768.508,302783.7000000477,302785.251,303270.415,,9,run
screen,html.Screen,2_3_1_0_1_10,2022-04-27T13:01:37.820Z,,,,,,,,,,,,,,,,,40,,,,,,,,,,,,,,553.4850000953884,,response,,,,9,C,,,,,,Space,keypress(Space),,,,instrumental,,,,------ -- ------- ---- ---- ---- - -------- ----- --- by<br>----- ----- ------ -- ---- -- --- - ---- -- - ----- -----<br>------ ---- ------ ---- - -------- ------- -- --- --------<br>-------- ----------- ---- ------ ---- ------ ---- --- ---<br>-------- --- -----,303824.90000009537,303823.90000009537,303253.672,303253.7000000477,303270.415,303839.316,,10,by
screen,html.Screen,2_3_1_0_1_11,2022-04-27T13:01:38.436Z,,,,,,,,,,,,,,,,,40,,,,,,,,,,,,,,601.484000071534,,response,,,,9,C,,,,,,Space,keypress(Space),,,,instrumental,,,,------ -- ------- ---- ---- ---- - -------- ----- --- --<br>three ----- ------ -- ---- -- --- - ---- -- - ----- -----<br>------ ---- ------ ---- - -------- ------- -- --- --------<br>-------- ----------- ---- ------ ---- ------ ---- --- ---<br>-------- --- -----,304441.7000000477,304440.8000000715,303822.575,303825.10000002384,303839.316,304458.412,,11,three
screen,html.Screen,2_3_1_0_1_12,2022-04-27T13:01:39.004Z,,,,,,,,,,,,,,,,,40,,,,,,,,,,,,,,549.7880000476725,,response,,,,9,C,,,,,,Space,keypress(Space),,,,instrumental,,,,------ -- ------- ---- ---- ---- - -------- ----- --- --<br>----- girls ------ -- ---- -- --- - ---- -- - ----- -----<br>------ ---- ------ ---- - -------- ------- -- --- --------<br>-------- ----------- ---- ------ ---- ------ ---- --- ---<br>-------- --- -----,305009.2000000477,305008.2000000477,304441.672,304442,304458.412,305010.523,,12,girls
screen,html.Screen,2_3_1_0_1_13,2022-04-27T13:01:39.659Z,,,,,,,,,,,,,,,,,40,,,,,,,,,,,,,,652.2770000715391,,response,,,,9,C,,,,,,Space,keypress(Space),,,,instrumental,,,,------ -- ------- ---- ---- ---- - -------- ----- --- --<br>----- ----- trying -- ---- -- --- - ---- -- - ----- -----<br>------ ---- ------ ---- - -------- ------- -- --- --------<br>-------- ----------- ---- ------ ---- ------ ---- --- ---<br>-------- --- -----,305663.8000000715,305662.8000000715,304993.784,305009.40000009537,305010.523,305679.827,,13,trying
screen,html.Screen,2_3_1_0_1_14,2022-04-27T13:01:40.130Z,,,,,,,,,,,,,,,,,40,,,,,,,,,,,,,,454.1730000000098,,response,,,,9,C,,,,,,Space,keypress(Space),,,,instrumental,,,,------ -- ------- ---- ---- ---- - -------- ----- --- --<br>----- ----- ------ to ---- -- --- - ---- -- - ----- -----<br>------ ---- ------ ---- - -------- ------- -- --- --------<br>-------- ----------- ---- ------ ---- ------ ---- --- ---<br>-------- --- -----,306135.10000002384,306134,305663.089,305664.10000002384,305679.827,306148.255,,14,to
screen,html.Screen,2_3_1_0_1_15,2022-04-27T13:01:40.473Z,,,,,,,,,,,,,,,,,40,,,,,,,,,,,,,,329.3450000238372,,response,,,,9,C,,,,,,Space,keypress(Space),,,,instrumental,,,,------ -- ------- ---- ---- ---- - -------- ----- --- --<br>----- ----- ------ -- save -- --- - ---- -- - ----- -----<br>------ ---- ------ ---- - -------- ------- -- --- --------<br>-------- ----------- ---- ------ ---- ------ ---- --- ---<br>-------- --- -----,306478.7000000477,306477.60000002384,306131.518,306135.2000000477,306148.255,306482.87,,15,save
screen,html.Screen,2_3_1_0_1_16,2022-04-27T13:01:40.905Z,,,,,,,,,,,,,,,,,40,,,,,,,,,,,,,,426.8300000476884,,response,,,,9,C,,,,,,Space,keypress(Space),,,,instrumental,,,,------ -- ------- ---- ---- ---- - -------- ----- --- --<br>----- ----- ------ -- ---- up --- - ---- -- - ----- -----<br>------ ---- ------ ---- - -------- ------- -- --- --------<br>-------- ----------- ---- ------ ---- ------ ---- --- ---<br>-------- --- -----,306910.60000002384,306909.7000000477,306466.133,306478.8000000715,306482.87,306917.904,,16,up
screen,html.Screen,2_3_1_0_1_17,2022-04-27T13:01:41.271Z,,,,,,,,,,,,,,,,,40,,,,,,,,,,,,,,357.7960000477033,,response,,,,9,C,,,,,,Space,keypress(Space),,,,instrumental,,,,------ -- ------- ---- ---- ---- - -------- ----- --- --<br>----- ----- ------ -- ---- -- for - ---- -- - ----- -----<br>------ ---- ------ ---- - -------- ------- -- --- --------<br>-------- ----------- ---- ------ ---- ------ ---- --- ---<br>-------- --- -----,307276.7000000477,307275.7000000477,306901.168,306910.90000009537,306917.904,307286.1,,17,for
screen,html.Screen,2_3_1_0_1_18,2022-04-27T13:01:41.651Z,,,,,,,,,,,,,,,,,40,,,,,,,,,,,,,,369.4000000000233,,response,,,,9,C,,,,,,Space,keypress(Space),,,,instrumental,,,,------ -- ------- ---- ---- ---- - -------- ----- --- --<br>----- ----- ------ -- ---- -- --- a ---- -- - ----- -----<br>------ ---- ------ ---- - -------- ------- -- --- --------<br>-------- ----------- ---- ------ ---- ------ ---- --- ---<br>-------- --- -----,307656.5,307655.5,307269.364,307276.90000009537,307286.1,307670.875,,18,a
screen,html.Screen,2_3_1_0_1_19,2022-04-27T13:01:42.028Z,,,,,,,,,,,,,,,,,40,,,,,,,,,,,,,,361.3250000476837,,response,,,,9,C,,,,,,Space,keypress(Space),,,,instrumental,,,,------ -- ------- ---- ---- ---- - -------- ----- --- --<br>----- ----- ------ -- ---- -- --- - trip -- - ----- -----<br>------ ---- ------ ---- - -------- ------- -- --- --------<br>-------- ----------- ---- ------ ---- ------ ---- --- ---<br>-------- --- -----,308033.2000000477,308032.2000000477,307654.139,307656.7000000477,307670.875,308038.99,,19,trip
screen,html.Screen,2_3_1_0_1_20,2022-04-27T13:01:42.382Z,,,,,,,,,,,,,,,,,40,,,,,,,,,,,,,,347.41000009537674,,response,,,,9,C,,,,,,Space,keypress(Space),,,,instrumental,,,,------ -- ------- ---- ---- ---- - -------- ----- --- --<br>----- ----- ------ -- ---- -- --- - ---- to - ----- -----<br>------ ---- ------ ---- - -------- ------- -- --- --------<br>-------- ----------- ---- ------ ---- ------ ---- --- ---<br>-------- --- -----,308387.40000009537,308386.40000009537,308022.254,308033.5,308038.99,308390.27,,20,to
screen,html.Screen,2_3_1_0_1_21,2022-04-27T13:01:42.818Z,,,,,,,,,,,,,,,,,40,,,,,,,,,,,,,,431.7299999999814,,response,,,,9,C,,,,,,Space,keypress(Space),,,,instrumental,,,,------ -- ------- ---- ---- ---- - -------- ----- --- --<br>----- ----- ------ -- ---- -- --- - ---- -- a ----- -----<br>------ ---- ------ ---- - -------- ------- -- --- --------<br>-------- ----------- ---- ------ ---- ------ ---- --- ---<br>-------- --- -----,308823,308822,308373.539,308387.60000002384,308390.27,308825.308,,21,a
screen,html.Screen,2_3_1_0_1_22,2022-04-27T13:01:43.245Z,,,,,,,,,,,,,,,,,40,,,,,,,,,,,,,,423.4920000715065,,response,,,,9,C,,,,,,Space,keypress(Space),,,,instrumental,,,,------ -- ------- ---- ---- ---- - -------- ----- --- --<br>----- ----- ------ -- ---- -- --- - ---- -- - water -----<br>------ ---- ------ ---- - -------- ------- -- --- --------<br>-------- ----------- ---- ------ ---- ------ ---- --- ---<br>-------- --- -----,309249.8000000715,309248.8000000715,308808.577,308823.2000000477,308825.308,309260.295,,22,water
screen,html.Screen,2_3_1_0_1_23,2022-04-27T13:01:43.621Z,,,,,,,,,,,,,,,,,40,,,,,,,,,,,,,,364.7050000000163,,response,,,,9,C,,,,,,Space,keypress(Space),,,,instrumental,,,,"------ -- ------- ---- ---- ---- - -------- ----- --- --<br>----- ----- ------ -- ---- -- --- - ---- -- - ----- park,<br>------ ---- ------ ---- - -------- ------- -- --- --------<br>-------- ----------- ---- ------ ---- ------ ---- --- ---<br>-------- --- -----",309626.10000002384,309625,309243.564,309250,309260.295,309628.53,,23,"park,"
screen,html.Screen,2_3_1_0_1_24,2022-04-27T13:01:44.078Z,,,,,,,,,,,,,,,,,40,,,,,,,,,,,,,,453.96999999997206,,response,,,,9,C,,,,,,Space,keypress(Space),,,,instrumental,,,,------ -- ------- ---- ---- ---- - -------- ----- --- --<br>----- ----- ------ -- ---- -- --- - ---- -- - ----- -----<br>saying ---- ------ ---- - -------- ------- -- --- --------<br>-------- ----------- ---- ------ ---- ------ ---- --- ---<br>-------- --- -----,310083.5,310082.5,309611.796,309626.3000000715,309628.53,310097.091,,24,saying
screen,html.Screen,2_3_1_0_1_25,2022-04-27T13:01:44.492Z,,,,,,,,,,,,,,,,,40,,,,,,,,,,,,,,398.7090000715107,,response,,,,9,C,,,,,,Space,keypress(Space),,,,instrumental,,,,------ -- ------- ---- ---- ---- - -------- ----- --- --<br>----- ----- ------ -- ---- -- --- - ---- -- - ----- -----<br>------ they ------ ---- - -------- ------- -- --- --------<br>-------- ----------- ---- ------ ---- ------ ---- --- ---<br>-------- --- -----,310496.8000000715,310495.8000000715,310080.356,310083.7000000477,310097.091,310498.667,,25,they
screen,html.Screen,2_3_1_0_1_26,2022-04-27T13:01:44.935Z,,,,,,,,,,,,,,,,,40,,,,,,,,,,,,,,440.2330000953516,,response,,,,9,C,,,,,,Space,keypress(Space),,,,instrumental,,,,------ -- ------- ---- ---- ---- - -------- ----- --- --<br>----- ----- ------ -- ---- -- --- - ---- -- - ----- -----<br>------ ---- didn't ---- - -------- ------- -- --- --------<br>-------- ----------- ---- ------ ---- ------ ---- --- ---<br>-------- --- -----,310939.90000009537,310938.90000009537,310481.932,310496.90000009537,310498.667,310950.399,,26,didn't
screen,html.Screen,2_3_1_0_1_27,2022-04-27T13:01:45.309Z,,,,,,,,,,,,,,,,,40,,,,,,,,,,,,,,363.30100004770793,,response,,,,9,C,,,,,,Space,keypress(Space),,,,instrumental,,,,------ -- ------- ---- ---- ---- - -------- ----- --- --<br>----- ----- ------ -- ---- -- --- - ---- -- - ----- -----<br>------ ---- ------ have - -------- ------- -- --- --------<br>-------- ----------- ---- ------ ---- ------ ---- --- ---<br>-------- --- -----,311314.7000000477,311313.7000000477,310933.666,310940.2000000477,310950.399,311318.516,,27,have
screen,html.Screen,2_3_1_0_1_28,2022-04-27T13:01:45.778Z,,,,,,,,,,,,,,,,,40,,,,,,,,,,,,,,463.68400004768046,,response,,,,9,C,,,,,,Space,keypress(Space),,,,instrumental,,,,------ -- ------- ---- ---- ---- - -------- ----- --- --<br>----- ----- ------ -- ---- -- --- - ---- -- - ----- -----<br>------ ---- ------ ---- a -------- ------- -- --- --------<br>-------- ----------- ---- ------ ---- ------ ---- --- ---<br>-------- --- -----,311783.10000002384,311782.2000000477,311301.783,311315,311318.516,311786.976,,28,a
screen,html.Screen,2_3_1_0_1_29,2022-04-27T13:01:46.241Z,,,,,,,,,,,,,,,,,40,,,,,,,,,,,,,,458.12400002381764,,response,,,,9,C,,,,,,Space,keypress(Space),,,,instrumental,,,,------ -- ------- ---- ---- ---- - -------- ----- --- --<br>----- ----- ------ -- ---- -- --- - ---- -- - ----- -----<br>------ ---- ------ ---- - business ------- -- --- --------<br>-------- ----------- ---- ------ ---- ------ ---- --- ---<br>-------- --- -----,312246,312245.10000002384,311770.243,311783.40000009537,311786.976,312255.626,,29,business
screen,html.Screen,2_3_1_0_1_30,2022-04-27T13:01:46.751Z,,,,,,,,,,,,,,,,,40,,,,,,,,,,,,,,499.8740000000107,,response,,,,9,C,,,,,,Space,keypress(Space),,,,instrumental,,,,------ -- ------- ---- ---- ---- - -------- ----- --- --<br>----- ----- ------ -- ---- -- --- - ---- -- - ----- -----<br>------ ---- ------ ---- - -------- license -- --- --------<br>-------- ----------- ---- ------ ---- ------ ---- --- ---<br>-------- --- -----,312756.5,312755.5,312238.89,312246.3000000715,312255.626,312757.57,,30,license
screen,html.Screen,2_3_1_0_1_31,2022-04-27T13:01:47.243Z,,,,,,,,,,,,,,,,,40,,,,,,,,,,,,,,489.5300000238349,,response,,,,9,C,,,,,,Space,keypress(Space),,,,instrumental,,,,------ -- ------- ---- ---- ---- - -------- ----- --- --<br>----- ----- ------ -- ---- -- --- - ---- -- - ----- -----<br>------ ---- ------ ---- - -------- ------- or --- --------<br>-------- ----------- ---- ------ ---- ------ ---- --- ---<br>-------- --- -----,313248,313247.10000002384,312740.835,312756.8000000715,312757.57,313259.578,,31,or
screen,html.Screen,2_3_1_0_1_32,2022-04-27T13:01:47.672Z,,,,,,,,,,,,,,,,,40,,,,,,,,,,,,,,416.22200007154606,,response,,,,9,C,,,,,,Space,keypress(Space),,,,instrumental,,,,------ -- ------- ---- ---- ---- - -------- ----- --- --<br>----- ----- ------ -- ---- -- --- - ---- -- - ----- -----<br>------ ---- ------ ---- - -------- ------- -- the --------<br>-------- ----------- ---- ------ ---- ------ ---- --- ---<br>-------- --- -----,313676.90000009537,313675.8000000715,313242.842,313248.3000000715,313259.578,313677.867,,32,the
screen,html.Screen,2_3_1_0_1_33,2022-04-27T13:01:48.215Z,,,,,,,,,,,,,,,,,40,,,,,,,,,,,,,,541.2330000238144,,response,,,,9,C,,,,,,Space,keypress(Space),,,,instrumental,,,,------ -- ------- ---- ---- ---- - -------- ----- --- --<br>----- ----- ------ -- ---- -- --- - ---- -- - ----- -----<br>------ ---- ------ ---- - -------- ------- -- --- required<br>-------- ----------- ---- ------ ---- ------ ---- --- ---<br>-------- --- -----,314220.3000000715,314219.10000002384,313661.132,313677.10000002384,313677.867,314230.004,,33,required
screen,html.Screen,2_3_1_0_1_34,2022-04-27T13:01:48.744Z,,,,,,,,,,,,,,,,,40,,,,,,,,,,,,,,518.2960000715102,,response,,,,9,C,,,,,,Space,keypress(Space),,,,instrumental,,,,------ -- ------- ---- ---- ---- - -------- ----- --- --<br>----- ----- ------ -- ---- -- --- - ---- -- - ----- -----<br>------ ---- ------ ---- - -------- ------- -- --- --------<br>permits. ----------- ---- ------ ---- ------ ---- --- ---<br>-------- --- -----,314749.40000009537,314748.3000000715,314213.271,314220.5,314230.004,314765.406,,34,permits.
screen,html.Screen,2_3_1_0_1_35,2022-04-27T13:01:50.199Z,,,,,,,,,,,,,,,,,40,,,,,,,,,,,,,,1437.4940000953502,,response,,,,9,C,,,,,,Space,keypress(Space),,,,instrumental,,,,------ -- ------- ---- ---- ---- - -------- ----- --- --<br>----- ----- ------ -- ---- -- --- - ---- -- - ----- -----<br>------ ---- ------ ---- - -------- ------- -- --- --------<br>-------- Morningstar ---- ------ ---- ------ ---- --- ---<br>-------- --- -----,316204,316202.90000009537,314748.674,314749.60000002384,314765.406,316220.994,,35,Morningstar
screen,html.Screen,2_3_1_0_1_36,2022-04-27T13:01:50.690Z,,,,,,,,,,,,,,,,,40,,,,,,,,,,,,,,473.6060000238358,,response,,,,9,C,,,,,,Space,keypress(Space),,,,instrumental,,,,------ -- ------- ---- ---- ---- - -------- ----- --- --<br>----- ----- ------ -- ---- -- --- - ---- -- - ----- -----<br>------ ---- ------ ---- - -------- ------- -- --- --------<br>-------- ----------- says ------ ---- ------ ---- --- ---<br>-------- --- -----,316695.7000000477,316694.60000002384,316204.263,316204.2000000477,316220.994,316706.36,,36,says
screen,html.Screen,2_3_1_0_1_37,2022-04-27T13:01:51.270Z,,,,,,,,,,,,,,,,,40,,,,,,,,,,,,,,567.7400000238558,,response,,,,9,C,,,,,,Space,keypress(Space),,,,instrumental,,,,------ -- ------- ---- ---- ---- - -------- ----- --- --<br>----- ----- ------ -- ---- -- --- - ---- -- - ----- -----<br>------ ---- ------ ---- - -------- ------- -- --- --------<br>-------- ----------- ---- police ---- ------ ---- --- ---<br>-------- --- -----,317275.2000000477,317274.10000002384,316689.627,316695.90000009537,316706.36,317292.032,,37,police
screen,html.Screen,2_3_1_0_1_38,2022-04-27T13:01:51.619Z,,,,,,,,,,,,,,,,,40,,,,,,,,,,,,,,331.3680000953609,,response,,,,9,C,,,,,,Space,keypress(Space),,,,instrumental,,,,------ -- ------- ---- ---- ---- - -------- ----- --- --<br>----- ----- ------ -- ---- -- --- - ---- -- - ----- -----<br>------ ---- ------ ---- - -------- ------- -- --- --------<br>-------- ----------- ---- ------ also ------ ---- --- ---<br>-------- --- -----,317624.40000009537,317623.40000009537,317275.3,317277,317292.032,317626.661,,38,also
screen,html.Screen,2_3_1_0_1_39,2022-04-27T13:01:52.035Z,,,,,,,,,,,,,,,,,40,,,,,,,,,,,,,,412.1390000715037,,response,,,,9,C,,,,,,Space,keypress(Space),,,,instrumental,,,,------ -- ------- ---- ---- ---- - -------- ----- --- --<br>----- ----- ------ -- ---- -- --- - ---- -- - ----- -----<br>------ ---- ------ ---- - -------- ------- -- --- --------<br>-------- ----------- ---- ------ ---- didn't ---- --- ---<br>-------- --- -----,318039.90000009537,318038.8000000715,317609.93,317624.60000002384,317626.661,318044.941,,39,didn't
screen,html.Screen,2_3_1_0_1_40,2022-04-27T13:01:52.513Z,,,,,,,,,,,,,,,,,40,,,,,,,,,,,,,,471.9590000953758,,response,,,,9,C,,,,,,Space,keypress(Space),,,,instrumental,,,,------ -- ------- ---- ---- ---- - -------- ----- --- --<br>----- ----- ------ -- ---- -- --- - ---- -- - ----- -----<br>------ ---- ------ ---- - -------- ------- -- --- --------<br>-------- ----------- ---- ------ ---- ------ know --- ---<br>-------- --- -----,318518,318516.90000009537,318028.21,318040,318044.941,318530.271,,40,know
screen,html.Screen,2_3_1_0_1_41,2022-04-27T13:01:52.918Z,,,,,,,,,,,,,,,,,40,,,,,,,,,,,,,,392.2289999999921,,response,,,,9,C,,,,,,Space,keypress(Space),,,,instrumental,,,,------ -- ------- ---- ---- ---- - -------- ----- --- --<br>----- ----- ------ -- ---- -- --- - ---- -- - ----- -----<br>------ ---- ------ ---- - -------- ------- -- --- --------<br>-------- ----------- ---- ------ ---- ------ ---- how ---<br>-------- --- -----,318923.5,318922.5,318513.538,318518.10000002384,318530.271,318931.856,,41,how
screen,html.Screen,2_3_1_0_1_42,2022-04-27T13:01:53.344Z,,,,,,,,,,,,,,,,,40,,,,,,,,,,,,,,416.744000023813,,response,,,,9,C,,,,,,Space,keypress(Space),,,,instrumental,,,,------ -- ------- ---- ---- ---- - -------- ----- --- --<br>----- ----- ------ -- ---- -- --- - ---- -- - ----- -----<br>------ ---- ------ ---- - -------- ------- -- --- --------<br>-------- ----------- ---- ------ ---- ------ ---- --- the<br>-------- --- -----,319349.60000002384,319348.60000002384,318915.123,318923.7000000477,318931.856,319366.827,,42,the
screen,html.Screen,2_3_1_0_1_43,2022-04-27T13:01:53.810Z,,,,,,,,,,,,,,,,,40,,,,,,,,,,,,,,447.0730000953772,,response,,,,9,C,,,,,,Space,keypress(Space),,,,instrumental,,,,------ -- ------- ---- ---- ---- - -------- ----- --- --<br>----- ----- ------ -- ---- -- --- - ---- -- - ----- -----<br>------ ---- ------ ---- - -------- ------- -- --- --------<br>-------- ----------- ---- ------ ---- ------ ---- --- ---<br>lemonade --- -----,319814.90000009537,319813.90000009537,319350.097,319349.90000009537,319366.827,319818.549,,43,lemonade
screen,html.Screen,2_3_1_0_1_44,2022-04-27T13:01:54.313Z,,,,,,,,,,,,,,,,,40,,,,,,,,,,,,,,498.35100009536836,,response,,,,9,C,,,,,,Space,keypress(Space),,,,instrumental,,,,------ -- ------- ---- ---- ---- - -------- ----- --- --<br>----- ----- ------ -- ---- -- --- - ---- -- - ----- -----<br>------ ---- ------ ---- - -------- ------- -- --- --------<br>-------- ----------- ---- ------ ---- ------ ---- --- ---<br>-------- was -----,320317.90000009537,320316.90000009537,319801.82,319815.2000000477,319818.549,320320.577,,44,was
screen,html.Screen,2_3_1_0_1_45,2022-04-27T13:01:55.011Z,,,,,,,,,,,,,,,,,40,,,,,,,,,,,,,,694.2230000715354,,response,,,,9,C,,,,,,Space,keypress(Space),,,,instrumental,,,,------ -- ------- ---- ---- ---- - -------- ----- --- --<br>----- ----- ------ -- ---- -- --- - ---- -- - ----- -----<br>------ ---- ------ ---- - -------- ------- -- --- --------<br>-------- ----------- ---- ------ ---- ------ ---- --- ---<br>-------- --- made.,321015.8000000715,321014.8000000715,320303.847,320318.10000002384,320320.577,321023.272,,45,made.
Item 9,flow.Loop,2_3_1_0_1,2022-04-27T13:01:55.011Z,,,,,,,,,,,,,,,,,,,,,,,,,,,,,,,25324.983000071545,,completion,,,,,,,,,,,,,,,,,,,,,321016.10000002384,321014.8000000715,295673.088,295674.7000000477,295689.817,321023.272,,,
Question 1,html.Screen,2_3_1_0_2,2022-04-27T13:01:58.614Z,,,,,,,,,,,,,,,,,,,,,,,,,,,,true,FALSE,,3595.62800009537,,response,,,,9,C,,,,,,FALSE,click #choice-2,,,,instrumental,,,,,324619.7000000477,324618.90000009537,321006.543,321016.40000009537,321023.272,324620.888,,,
