sender,sender_type,sender_id,timestamp,meta,,Blues,Classical,Country,Dance,Electronic,Folk,Gospel,Hip-Hop,Jazz,Latin,Musical/Film,New-age,Pop,Prolific_id,Provo_ID,R&B,Rap,Reggae,Religious,Rock,Soul,Swing,Traditional,age,artist_name,correct,correctResponse,distraction,duration,education,ended_on,familiarity,gender,headphone_check_performance,item,list,music_frequency,offensiveness,pleasantness,position_correct,preference,response,response_action,snippet_file,song_name,song_rating,sound,stimulus_1,stimulus_2,stimulus_3,text,time_commit,time_end,time_render,time_run,time_show,time_switch,url,word,word_ID
Prolific ID,html.Form,0,2022-05-02T10:55:44.325Z,"{""labjs_version"":""20.2.2"",""labjs_build"":{""flavor"":""production"",""commit"":""a25486e0c714a0ae2ce03ff94b7bb6896854dcfa""},""location"":""https://run.pavlovia.org/mvasilev/prolific3_music_e/"",""userAgent"":""Mozilla/5.0 (Windows NT 10.0; Win64; x64) AppleWebKit/537.36 (KHTML, like Gecko) Chrome/100.0.4896.127 Safari/537.36"",""platform"":""Win32"",""language"":""en-GB"",""locale"":""en-GB"",""timeZone"":""Europe/London"",""timezoneOffset"":-60,""screen_width"":1536,""screen_height"":864,""scroll_width"":1536,""scroll_height"":698,""window_innerWidth"":1536,""window_innerHeight"":746,""devicePixelRatio"":1.25}",,,,,,,,,,,,,,,5cf656e90acc8f000147f643,,,,,,,,,,,,,,,9795.944000035763,,form submission,,,,,,,,,,,,,,,,,,,,,15109.300000011921,15108.900000035763,5286.751,5289.400000035763,5312.956,15119.435,{},,
Introduction,html.Screen,1_0,2022-05-02T10:55:47.860Z,,,,,,,,,,,,,,,,,,,,,,,,,,,,,,,3521.0650000000005,,response,,,,,,,,,,,continue,click button,,,,,,,,,18643.600000023842,18640.5,15088.048,15109.400000035763,15119.435,18643.14,,,
Volume calibration,html.Screen,1_1,2022-05-02T10:56:11.428Z,,,,,,,,,,,,,,,,,,,,,,,,,,,,,,,23566.05999998808,,response,,,,,,,,,,,continue,click button,,,,,,,,,42212.30000001192,42209.19999998808,18626.878,18643.69999998808,18643.14,42211.897,,,
Task instructions,html.Screen,1_2,2022-05-02T10:56:17.916Z,,,,,,,,,,,,,,,,,,,,,,,,,,,,,,,6487.302999988082,,response,,,,,,,,,,,continue,click button,,,,,,,,,48699.90000003576,48699.19999998808,42195.105,42212.40000003576,42211.897,48710.709,,,
Sounds,html.Screen,1_3_0_0,2022-05-02T10:56:22.169Z,,,,,,,,,,,,,,,,,,,,,,,,,,,,,,,4255.060999999994,,timeout,,,,,,,,,3,,,,,,,,I,O,S,,52953.19999998808,52949.175,48694.125,48700,48710.709,52965.77,,,
Judgement,html.Screen,1_3_0_1,2022-05-02T10:56:23.236Z,,,,,,,,,,,,,,,,,,,,,,,,,,,,true,3,,1053.330000023845,,response,,,,,,,,,3,,3,click #choice-3,,,,,I,O,S,,54019.80000001192,54019.10000002384,52949.175,52953.40000003576,52965.77,54029.513,,,
Trial,flow.Sequence,1_3_0,2022-05-02T10:56:23.236Z,,,,,,,,,,,,,,,,,,,,,,,,,,,,,,,5308.391000023839,,completion,,,,,,,,,3,,,,,,,,I,O,S,,54020,54019.10000002384,48694.125,48700,48710.709,54029.513,,,
Sounds,html.Screen,1_3_1_0,2022-05-02T10:56:27.485Z,,,,,,,,,,,,,,,,,,,,,,,,,,,,,,,4255.237999999998,,timeout,,,,,,,,,3,,,,,,,,O,I,S,,58269.30000001192,58267.915,54013.221,54020.10000002384,54029.513,58284.751,,,
Judgement,html.Screen,1_3_1_1,2022-05-02T10:56:28.164Z,,,,,,,,,,,,,,,,,,,,,,,,,,,,true,3,,662.0490000119244,,response,,,,,,,,,3,,3,click #choice-3,,,,,O,I,S,,58948,58946.80000001192,58267.915,58269.40000003576,58284.751,58949.375,,,
Trial,flow.Sequence,1_3_1,2022-05-02T10:56:28.164Z,,,,,,,,,,,,,,,,,,,,,,,,,,,,,,,4917.287000011922,,completion,,,,,,,,,3,,,,,,,,O,I,S,,58948.19999998808,58946.80000001192,54013.221,54020.10000002384,54029.513,58949.375,,,
Sounds,html.Screen,1_3_2_0,2022-05-02T10:56:32.405Z,,,,,,,,,,,,,,,,,,,,,,,,,,,,,,,4254.9649999999965,,timeout,,,,,,,,,2,,,,,,,,I,S,O,,63188.19999998808,63187.741,58933.799,58948.30000001192,58949.375,63204.34,,,
Judgement,html.Screen,1_3_2_1,2022-05-02T10:56:33.029Z,,,,,,,,,,,,,,,,,,,,,,,,,,,,true,2,,607.2600000238454,,response,,,,,,,,,2,,2,click #choice-2,,,,,I,S,O,,63812.69999998808,63811.60000002384,63187.741,63188.40000003576,63204.34,63819.317,,,
Trial,flow.Sequence,1_3_2,2022-05-02T10:56:33.030Z,,,,,,,,,,,,,,,,,,,,,,,,,,,,,,,4862.225000023842,,completion,,,,,,,,,2,,,,,,,,I,S,O,,63813,63811.60000002384,58933.799,58948.30000001192,58949.375,63819.317,,,
Sounds,html.Screen,1_3_3_0,2022-05-02T10:56:37.276Z,,,,,,,,,,,,,,,,,,,,,,,,,,,,,,,4255.018000000004,,timeout,,,,,,,,,1,,,,,,,,S,I,O,,68059.60000002384,68057.764,63802.029,63813.10000002384,63819.317,68074.335,,,
Judgement,html.Screen,1_3_3_1,2022-05-02T10:56:37.805Z,,,,,,,,,,,,,,,,,,,,,,,,,,,,true,1,,512.5650000357564,,response,,,,,,,,,1,,1,click #choice-1,,,,,S,I,O,,68587.90000003576,68586.90000003576,68057.764,68059.60000002384,68074.335,68589.636,,,
Trial,flow.Sequence,1_3_3,2022-05-02T10:56:37.805Z,,,,,,,,,,,,,,,,,,,,,,,,,,,,,,,4767.58300003576,,completion,,,,,,,,,1,,,,,,,,S,I,O,,68588,68586.90000003576,63802.029,63813.10000002384,63819.317,68589.636,,,
Sounds,html.Screen,1_3_4_0,2022-05-02T10:56:42.046Z,,,,,,,,,,,,,,,,,,,,,,,,,,,,,,,4254.968999999997,,timeout,,,,,,,,,1,,,,,,,,S,O,I,,72829.69999998808,72828.047,68573.514,68588.10000002384,68589.636,72844.605,,,
Judgement,html.Screen,1_3_4_1,2022-05-02T10:56:42.610Z,,,,,,,,,,,,,,,,,,,,,,,,,,,,true,1,,547.4950000238459,,response,,,,,,,,,1,,1,click #choice-1,,,,,S,O,I,,73393.5,73392.10000002384,72828.047,72829.80000001192,72844.605,73423.081,,,
Trial,flow.Sequence,1_3_4,2022-05-02T10:56:42.610Z,,,,,,,,,,,,,,,,,,,,,,,,,,,,,,,4802.464000023843,,completion,,,,,,,,,1,,,,,,,,S,O,I,,73393.60000002384,73392.10000002384,68573.514,68588.10000002384,68589.636,73423.081,,,
Sounds,html.Screen,1_3_5_0,2022-05-02T10:56:46.883Z,,,,,,,,,,,,,,,,,,,,,,,,,,,,,,,4258.258999999991,,timeout,,,,,,,,,2,,,,,,,,O,S,I,,77666.40000003576,77664.8,73377.946,73393.80000001192,73423.081,77681.34,,,
Judgement,html.Screen,1_3_5_1,2022-05-02T10:56:47.448Z,,,,,,,,,,,,,,,,,,,,,,,,,,,,true,2,,549.1600000000035,,response,,,,,,,,,2,,2,click #choice-2,,,,,O,S,I,,78231.60000002384,78230.5,77664.8,77666.5,77681.34,78246.472,,,
Trial,flow.Sequence,1_3_5,2022-05-02T10:56:47.448Z,,,,,,,,,,,,,,,,,,,,,,,,,,,,,,,4807.418999999994,,completion,,,,,,,,,2,,,,,,,,O,S,I,,78231.69999998808,78230.5,73377.946,73393.69999998808,73423.081,78246.472,,,
Task,flow.Loop,1_3,2022-05-02T10:56:47.452Z,,,,,,,,,,,,,,,,,,,,,,,,,,,,,,,29519.790999999997,,completion,,,1,,,,,,,,,,,,,,,,,,78235.69999998808,78230.5,48694.125,48699.90000003576,48710.709,78246.472,,,
Trap,html.Screen,1_4,2022-05-02T10:56:47.453Z,,,,,,,,,,,,,,,,,,,,,,,,,,,,,,,NaN,,skipped,,,,,,,,,,,,,,,,,,,,,78236.60000002384,78230.5,,78236.5,,78246.472,,,
Thanks,html.Screen,1_5,2022-05-02T10:56:52.309Z,,,,,,,,,,,,,,,,,,,,,,,,,,,,,,,4845.528000000006,,response,,,,,,,,,,,continue,click button,,,,,,,,,83092.69999998808,83092,78214.967,78236.69999998808,78246.472,85593.067,,,
Headphone screening,flow.Sequence,1,2022-05-02T10:56:52.310Z,,,,,,,,,,,,,,,,,,,,,,,,,,,,,,,67972.565,,completion,,,,,,,,,,,,,,,,,,,,,83092.90000003576,83092,15088.048,15109.400000035763,15119.435,85593.067,,,
Instructions,html.Page,2_0,2022-05-02T10:57:18.434Z,,,,,,,,,,,,,,,,,,,,,,,,,,,,,,,23624.333000035767,,form submission,,,,,,,,,,,,,,,,,,,,,109217.60000002384,109217.40000003576,85576.428,85590.19999998808,85593.067,109228.336,,,
Holding screen,html.Screen,2_1_0_0,2022-05-02T10:57:28.437Z,,,,,,,,,,,,,,,,,,,,,,,,,,,,,,,10006.091,,timeout,,,,,,,,,,,,,,,,,,,,,119220.40000003576,119217.686,109212.144,109217.80000001192,109228.336,119234.427,,,
screen,html.Screen,2_1_0_1_0,2022-05-02T10:57:29.566Z,,,,,,,,,,,,,,,,,53,,,,,,,,,,,,,,1112.4730000357667,,response,,,,99,,,,,,,Space,keypress(Space),,,,,,,,When -- ----- -- ------ - ------- --- ----------<br>------------- ------ ------ ---- ---- ------- ----- -- ----<br>-------- ------- -- ---------- --- - --- ----- ----- ----<br>---- --- --- ----- --- ---- ---- ------- ----- ---- -------<br>--- --- -- ----- -- --- ---- -- --- ---- -- ------ ------<br>--- ----- -- ----,120349.19999998808,120346.90000003576,119217.686,119220.60000002384,119234.427,120365.037,,0,When
screen,html.Screen,2_1_0_1_1,2022-05-02T10:57:30.357Z,,,,,,,,,,,,,,,,,53,,,,,,,,,,,,,,775.2630000119243,,response,,,,99,,,,,,,Space,keypress(Space),,,,,,,,---- it ----- -- ------ - ------- --- ----------<br>------------- ------ ------ ---- ---- ------- ----- -- ----<br>-------- ------- -- ---------- --- - --- ----- ----- ----<br>---- --- --- ----- --- ---- ---- ------- ----- ---- -------<br>--- --- -- ----- -- --- ---- -- --- ---- -- ------ ------<br>--- ----- -- ----,121140.69999998808,121140.30000001192,120333.812,120349.30000001192,120365.037,121145.673,,1,it
screen,html.Screen,2_1_0_1_2,2022-05-02T10:57:30.877Z,,,,,,,,,,,,,,,,,53,,,,,,,,,,,,,,513.3270000000048,,response,,,,99,,,,,,,Space,keypress(Space),,,,,,,,---- -- comes -- ------ - ------- --- ----------<br>------------- ------ ------ ---- ---- ------- ----- -- ----<br>-------- ------- -- ---------- --- - --- ----- ----- ----<br>---- --- --- ----- --- ---- ---- ------- ----- ---- -------<br>--- --- -- ----- -- --- ---- -- --- ---- -- ------ ------<br>--- ----- -- ----,121659.90000003576,121659,121130.885,121140.90000003576,121145.673,121691.133,,2,comes
screen,html.Screen,2_1_0_1_3,2022-05-02T10:57:31.377Z,,,,,,,,,,,,,,,,,53,,,,,,,,,,,,,,469.06699998807744,,response,,,,99,,,,,,,Space,keypress(Space),,,,,,,,---- -- ----- to ------ - ------- --- ----------<br>------------- ------ ------ ---- ---- ------- ----- -- ----<br>-------- ------- -- ---------- --- - --- ----- ----- ----<br>---- --- --- ----- --- ---- ---- ------- ----- ---- -------<br>--- --- -- ----- -- --- ---- -- --- ---- -- ------ ------<br>--- ----- -- ----,122160.69999998808,122160.19999998808,121645.562,121660,121691.133,122176.682,,3,to
screen,html.Screen,2_1_0_1_4,2022-05-02T10:57:31.910Z,,,,,,,,,,,,,,,,,53,,,,,,,,,,,,,,516.2180000357621,,response,,,,99,,,,,,,Space,keypress(Space),,,,,,,,---- -- ----- -- having - ------- --- ----------<br>------------- ------ ------ ---- ---- ------- ----- -- ----<br>-------- ------- -- ---------- --- - --- ----- ----- ----<br>---- --- --- ----- --- ---- ---- ------- ----- ---- -------<br>--- --- -- ----- -- --- ---- -- --- ---- -- ------ ------<br>--- ----- -- ----,122693.69999998808,122692.90000003576,122161.129,122160.80000001192,122176.682,122708.159,,4,having
screen,html.Screen,2_1_0_1_5,2022-05-02T10:57:32.295Z,,,,,,,,,,,,,,,,,53,,,,,,,,,,,,,,370.4410000238422,,response,,,,99,,,,,,,Space,keypress(Space),,,,,,,,---- -- ----- -- ------ a ------- --- ----------<br>------------- ------ ------ ---- ---- ------- ----- -- ----<br>-------- ------- -- ---------- --- - --- ----- ----- ----<br>---- --- --- ----- --- ---- ---- ------- ----- ---- -------<br>--- --- -- ----- -- --- ---- -- --- ---- -- ------ ------<br>--- ----- -- ----,123078.90000003576,123078.60000002384,122693.071,122693.80000001192,122708.159,123090.404,,5,a
screen,html.Screen,2_1_0_1_6,2022-05-02T10:57:32.786Z,,,,,,,,,,,,,,,,,53,,,,,,,,,,,,,,478.4960000357678,,response,,,,99,,,,,,,Space,keypress(Space),,,,,,,,---- -- ----- -- ------ - lasting --- ----------<br>------------- ------ ------ ---- ---- ------- ----- -- ----<br>-------- ------- -- ---------- --- - --- ----- ----- ----<br>---- --- --- ----- --- ---- ---- ------- ----- ---- -------<br>--- --- -- ----- -- --- ---- -- --- ---- -- ------ ------<br>--- ----- -- ----,123569.69999998808,123568.90000003576,123075.061,123079.10000002384,123090.404,123572.329,,6,lasting
screen,html.Screen,2_1_0_1_7,2022-05-02T10:57:33.279Z,,,,,,,,,,,,,,,,,53,,,,,,,,,,,,,,489.5710000357649,,response,,,,99,,,,,,,Space,keypress(Space),,,,,,,,---- -- ----- -- ------ - ------- and ----------<br>------------- ------ ------ ---- ---- ------- ----- -- ----<br>-------- ------- -- ---------- --- - --- ----- ----- ----<br>---- --- --- ----- --- ---- ---- ------- ----- ---- -------<br>--- --- -- ----- -- --- ---- -- --- ---- -- ------ ------<br>--- ----- -- ----,124062.80000001192,124061.90000003576,123557.405,123569.90000003576,123572.329,124070.972,,7,and
screen,html.Screen,2_1_0_1_8,2022-05-02T10:57:33.742Z,,,,,,,,,,,,,,,,,53,,,,,,,,,,,,,,454.4280000357685,,response,,,,99,,,,,,,Space,keypress(Space),,,,,,,,---- -- ----- -- ------ - ------- --- fulfilling<br>------------- ------ ------ ---- ---- ------- ----- -- ----<br>-------- ------- -- ---------- --- - --- ----- ----- ----<br>---- --- --- ----- --- ---- ---- ------- ----- ---- -------<br>--- --- -- ----- -- --- ---- -- --- ---- -- ------ ------<br>--- ----- -- ----,124525.90000003576,124525.40000003576,124055.763,124062.90000003576,124070.972,124536.369,,8,fulfilling
screen,html.Screen,2_1_0_1_9,2022-05-02T10:57:35.218Z,,,,,,,,,,,,,,,,,53,,,,,,,,,,,,,,1464.2310000238358,,response,,,,99,,,,,,,Space,keypress(Space),,,,,,,,"---- -- ----- -- ------ - ------- --- ----------<br>relationship, ------ ------ ---- ---- ------- ----- -- ----<br>-------- ------- -- ---------- --- - --- ----- ----- ----<br>---- --- --- ----- --- ---- ---- ------- ----- ---- -------<br>--- --- -- ----- -- --- ---- -- --- ---- -- ------ ------<br>--- ----- -- ----",126001.30000001192,126000.60000002384,124520.738,124526,124536.369,126015.656,,9,"relationship,"
screen,html.Screen,2_1_0_1_10,2022-05-02T10:57:35.746Z,,,,,,,,,,,,,,,,,53,,,,,,,,,,,,,,513.2440000357601,,response,,,,99,,,,,,,Space,keypress(Space),,,,,,,,---- -- ----- -- ------ - ------- --- ----------<br>------------- common ------ ---- ---- ------- ----- -- ----<br>-------- ------- -- ---------- --- - --- ----- ----- ----<br>---- --- --- ----- --- ---- ---- ------- ----- ---- -------<br>--- --- -- ----- -- --- ---- -- --- ---- -- ------ ------<br>--- ----- -- ----,126529.60000002384,126528.90000003576,125985.74,126001.5,126015.656,126548.464,,10,common
screen,html.Screen,2_1_0_1_11,2022-05-02T10:57:36.189Z,,,,,,,,,,,,,,,,,53,,,,,,,,,,,,,,423.8360000119137,,response,,,,99,,,,,,,Space,keypress(Space),,,,,,,,---- -- ----- -- ------ - ------- --- ----------<br>------------- ------ wisdom ---- ---- ------- ----- -- ----<br>-------- ------- -- ---------- --- - --- ----- ----- ----<br>---- --- --- ----- --- ---- ---- ------- ----- ---- -------<br>--- --- -- ----- -- --- ---- -- --- ---- -- ------ ------<br>--- ----- -- ----,126972.90000003576,126972.30000001192,126515.357,126529.69999998808,126548.464,126979.868,,11,wisdom
screen,html.Screen,2_1_0_1_12,2022-05-02T10:57:36.723Z,,,,,,,,,,,,,,,,,53,,,,,,,,,,,,,,525.5320000357606,,response,,,,99,,,,,,,Space,keypress(Space),,,,,,,,---- -- ----- -- ------ - ------- --- ----------<br>------------- ------ ------ says ---- ------- ----- -- ----<br>-------- ------- -- ---------- --- - --- ----- ----- ----<br>---- --- --- ----- --- ---- ---- ------- ----- ---- -------<br>--- --- -- ----- -- --- ---- -- --- ---- -- ------ ------<br>--- ----- -- ----,127506.19999998808,127505.40000003576,126964.083,126973.10000002384,126979.868,127511.775,,12,says
screen,html.Screen,2_1_0_1_13,2022-05-02T10:57:37.161Z,,,,,,,,,,,,,,,,,53,,,,,,,,,,,,,,432.2250000000058,,response,,,,99,,,,,,,Space,keypress(Space),,,,,,,,---- -- ----- -- ------ - ------- --- ----------<br>------------- ------ ------ ---- that ------- ----- -- ----<br>-------- ------- -- ---------- --- - --- ----- ----- ----<br>---- --- --- ----- --- ---- ---- ------- ----- ---- -------<br>--- --- -- ----- -- --- ---- -- --- ---- -- ------ ------<br>--- ----- -- ----,127944.69999998808,127944,127496.656,127506.30000001192,127511.775,127960.77,,13,that
screen,html.Screen,2_1_0_1_14,2022-05-02T10:57:37.587Z,,,,,,,,,,,,,,,,,53,,,,,,,,,,,,,,409.3300000238378,,response,,,,99,,,,,,,Space,keypress(Space),,,,,,,,---- -- ----- -- ------ - ------- --- ----------<br>------------- ------ ------ ---- ---- feeling ----- -- ----<br>-------- ------- -- ---------- --- - --- ----- ----- ----<br>---- --- --- ----- --- ---- ---- ------- ----- ---- -------<br>--- --- -- ----- -- --- ---- -- --- ---- -- ------ ------<br>--- ----- -- ----,128370.5,128370.10000002384,127944.784,127944.90000003576,127960.77,128375.958,,14,feeling
screen,html.Screen,2_1_0_1_15,2022-05-02T10:57:38.011Z,,,,,,,,,,,,,,,,,53,,,,,,,,,,,,,,418.3420000119222,,response,,,,99,,,,,,,Space,keypress(Space),,,,,,,,---- -- ----- -- ------ - ------- --- ----------<br>------------- ------ ------ ---- ---- ------- close -- ----<br>-------- ------- -- ---------- --- - --- ----- ----- ----<br>---- --- --- ----- --- ---- ---- ------- ----- ---- -------<br>--- --- -- ----- -- --- ---- -- --- ---- -- ------ ------<br>--- ----- -- ----,128794.60000002384,128794.30000001192,128360.649,128370.60000002384,128375.958,128808.154,,15,close
screen,html.Screen,2_1_0_1_16,2022-05-02T10:57:38.380Z,,,,,,,,,,,,,,,,,53,,,,,,,,,,,,,,354.346000000005,,response,,,,99,,,,,,,Space,keypress(Space),,,,,,,,---- -- ----- -- ------ - ------- --- ----------<br>------------- ------ ------ ---- ---- ------- ----- to ----<br>-------- ------- -- ---------- --- - --- ----- ----- ----<br>---- --- --- ----- --- ---- ---- ------- ----- ---- -------<br>--- --- -- ----- -- --- ---- -- --- ---- -- ------ ------<br>--- ----- -- ----,129163.40000003576,129162.5,128792.378,128794.80000001192,128808.154,129174.121,,16,to
screen,html.Screen,2_1_0_1_17,2022-05-02T10:57:38.829Z,,,,,,,,,,,,,,,,,53,,,,,,,,,,,,,,437.2790000357636,,response,,,,99,,,,,,,Space,keypress(Space),,,,,,,,---- -- ----- -- ------ - ------- --- ----------<br>------------- ------ ------ ---- ---- ------- ----- -- your<br>-------- ------- -- ---------- --- - --- ----- ----- ----<br>---- --- --- ----- --- ---- ---- ------- ----- ---- -------<br>--- --- -- ----- -- --- ---- -- --- ---- -- ------ ------<br>--- ----- -- ----,129612.19999998808,129611.40000003576,129158.345,129163.60000002384,129174.121,129622.431,,17,your
screen,html.Screen,2_1_0_1_18,2022-05-02T10:57:39.298Z,,,,,,,,,,,,,,,,,53,,,,,,,,,,,,,,458.8690000119241,,response,,,,99,,,,,,,Space,keypress(Space),,,,,,,,---- -- ----- -- ------ - ------- --- ----------<br>------------- ------ ------ ---- ---- ------- ----- -- ----<br>romantic ------- -- ---------- --- - --- ----- ----- ----<br>---- --- --- ----- --- ---- ---- ------- ----- ---- -------<br>--- --- -- ----- -- --- ---- -- --- ---- -- ------ ------<br>--- ----- -- ----,130081.90000003576,130081.30000001192,129606.908,129612.40000003576,129622.431,130087.784,,18,romantic
screen,html.Screen,2_1_0_1_19,2022-05-02T10:57:39.726Z,,,,,,,,,,,,,,,,,53,,,,,,,,,,,,,,420.61600003576314,,response,,,,99,,,,,,,Space,keypress(Space),,,,,,,,---- -- ----- -- ------ - ------- --- ----------<br>------------- ------ ------ ---- ---- ------- ----- -- ----<br>-------- partner -- ---------- --- - --- ----- ----- ----<br>---- --- --- ----- --- ---- ---- ------- ----- ---- -------<br>--- --- -- ----- -- --- ---- -- --- ---- -- ------ ------<br>--- ----- -- ----,130509.30000001192,130508.40000003576,130071.937,130082.10000002384,130087.784,130520.14,,19,partner
screen,html.Screen,2_1_0_1_20,2022-05-02T10:57:40.137Z,,,,,,,,,,,,,,,,,53,,,,,,,,,,,,,,400.26000003576337,,response,,,,99,,,,,,,Space,keypress(Space),,,,,,,,---- -- ----- -- ------ - ------- --- ----------<br>------------- ------ ------ ---- ---- ------- ----- -- ----<br>-------- ------- is ---------- --- - --- ----- ----- ----<br>---- --- --- ----- --- ---- ---- ------- ----- ---- -------<br>--- --- -- ----- -- --- ---- -- --- ---- -- ------ ------<br>--- ----- -- ----,130920.80000001192,130920.40000003576,130504.268,130509.5,130520.14,130935.812,,20,is
screen,html.Screen,2_1_0_1_21,2022-05-02T10:57:42.024Z,,,,,,,,,,,,,,,,,53,,,,,,,,,,,,,,1870.5880000357574,,response,,,,99,,,,,,,Space,keypress(Space),,,,,,,,---- -- ----- -- ------ - ------- --- ----------<br>------------- ------ ------ ---- ---- ------- ----- -- ----<br>-------- ------- -- paramount. --- - --- ----- ----- ----<br>---- --- --- ----- --- ---- ---- ------- ----- ---- -------<br>--- --- -- ----- -- --- ---- -- --- ---- -- ------ ------<br>--- ----- -- ----,132807.19999998808,132806.40000003576,130920.295,130921,130935.812,132813.802,,21,paramount.
screen,html.Screen,2_1_0_1_22,2022-05-02T10:57:42.492Z,,,,,,,,,,,,,,,,,53,,,,,,,,,,,,,,460.2980000238458,,response,,,,99,,,,,,,Space,keypress(Space),,,,,,,,---- -- ----- -- ------ - ------- --- ----------<br>------------- ------ ------ ---- ---- ------- ----- -- ----<br>-------- ------- -- ---------- But - --- ----- ----- ----<br>---- --- --- ----- --- ---- ---- ------- ----- ---- -------<br>--- --- -- ----- -- --- ---- -- --- ---- -- ------ ------<br>--- ----- -- ----,133275.10000002384,133274.10000002384,132801.801,132807.30000001192,132813.802,133279.098,,22,But
screen,html.Screen,2_1_0_1_23,2022-05-02T10:57:42.891Z,,,,,,,,,,,,,,,,,53,,,,,,,,,,,,,,394.60199998808093,,response,,,,99,,,,,,,Space,keypress(Space),,,,,,,,---- -- ----- -- ------ - ------- --- ----------<br>------------- ------ ------ ---- ---- ------- ----- -- ----<br>-------- ------- -- ---------- --- a --- ----- ----- ----<br>---- --- --- ----- --- ---- ---- ------- ----- ---- -------<br>--- --- -- ----- -- --- ---- -- --- ---- -- ------ ------<br>--- ----- -- ----,133674.10000002384,133673.69999998808,133263.469,133275.30000001192,133279.098,133677.991,,23,a
screen,html.Screen,2_1_0_1_24,2022-05-02T10:57:43.397Z,,,,,,,,,,,,,,,,,53,,,,,,,,,,,,,,502.5089999999909,,response,,,,99,,,,,,,Space,keypress(Space),,,,,,,,---- -- ----- -- ------ - ------- --- ----------<br>------------- ------ ------ ---- ---- ------- ----- -- ----<br>-------- ------- -- ---------- --- - new ----- ----- ----<br>---- --- --- ----- --- ---- ---- ------- ----- ---- -------<br>--- --- -- ----- -- --- ---- -- --- ---- -- ------ ------<br>--- ----- -- ----,134180.90000003576,134180.5,133662.725,133674.19999998808,133677.991,134193.391,,24,new
screen,html.Screen,2_1_0_1_25,2022-05-02T10:57:43.802Z,,,,,,,,,,,,,,,,,53,,,,,,,,,,,,,,391.0090000357595,,response,,,,99,,,,,,,Space,keypress(Space),,,,,,,,---- -- ----- -- ------ - ------- --- ----------<br>------------- ------ ------ ---- ---- ------- ----- -- ----<br>-------- ------- -- ---------- --- - --- study ----- ----<br>---- --- --- ----- --- ---- ---- ------- ----- ---- -------<br>--- --- -- ----- -- --- ---- -- --- ---- -- ------ ------<br>--- ----- -- ----,134585.30000001192,134584.40000003576,134177.73,134180.90000003576,134193.391,134592.122,,25,study
screen,html.Screen,2_1_0_1_26,2022-05-02T10:57:44.193Z,,,,,,,,,,,,,,,,,53,,,,,,,,,,,,,,383.27800003575976,,response,,,,99,,,,,,,Space,keypress(Space),,,,,,,,---- -- ----- -- ------ - ------- --- ----------<br>------------- ------ ------ ---- ---- ------- ----- -- ----<br>-------- ------- -- ---------- --- - --- ----- finds ----<br>---- --- --- ----- --- ---- ---- ------- ----- ---- -------<br>--- --- -- ----- -- --- ---- -- --- ---- -- ------ ------<br>--- ----- -- ----,134976.19999998808,134975.40000003576,134576.988,134585.40000003576,134592.122,134991.075,,26,finds
screen,html.Screen,2_1_0_1_27,2022-05-02T10:57:44.567Z,,,,,,,,,,,,,,,,,53,,,,,,,,,,,,,,358.82500003575115,,response,,,,99,,,,,,,Space,keypress(Space),,,,,,,,---- -- ----- -- ------ - ------- --- ----------<br>------------- ------ ------ ---- ---- ------- ----- -- ----<br>-------- ------- -- ---------- --- - --- ----- ----- that<br>---- --- --- ----- --- ---- ---- ------- ----- ---- -------<br>--- --- -- ----- -- --- ---- -- --- ---- -- ------ ------<br>--- ----- -- ----,135350.30000001192,135349.90000003576,134975.366,134976.30000001192,134991.075,135356.734,,27,that
screen,html.Screen,2_1_0_1_28,2022-05-02T10:57:44.913Z,,,,,,,,,,,,,,,,,53,,,,,,,,,,,,,,338.5660000119242,,response,,,,99,,,,,,,Space,keypress(Space),,,,,,,,---- -- ----- -- ------ - ------- --- ----------<br>------------- ------ ------ ---- ---- ------- ----- -- ----<br>-------- ------- -- ---------- --- - --- ----- ----- ----<br>it's --- --- ----- --- ---- ---- ------- ----- ---- -------<br>--- --- -- ----- -- --- ---- -- --- ---- -- ------ ------<br>--- ----- -- ----,135696.19999998808,135695.30000001192,135341.42,135350.40000003576,135356.734,135705.912,,28,it's
screen,html.Screen,2_1_0_1_29,2022-05-02T10:57:45.328Z,,,,,,,,,,,,,,,,,53,,,,,,,,,,,,,,405.1880000238307,,response,,,,99,,,,,,,Space,keypress(Space),,,,,,,,---- -- ----- -- ------ - ------- --- ----------<br>------------- ------ ------ ---- ---- ------- ----- -- ----<br>-------- ------- -- ---------- --- - --- ----- ----- ----<br>---- not --- ----- --- ---- ---- ------- ----- ---- -------<br>--- --- -- ----- -- --- ---- -- --- ---- -- ------ ------<br>--- ----- -- ----,136111.90000003576,136111.10000002384,135689.946,135696.40000003576,135705.912,136121.476,,29,not
screen,html.Screen,2_1_0_1_30,2022-05-02T10:57:45.701Z,,,,,,,,,,,,,,,,,53,,,,,,,,,,,,,,362.0240000000049,,response,,,,99,,,,,,,Space,keypress(Space),,,,,,,,---- -- ----- -- ------ - ------- --- ----------<br>------------- ------ ------ ---- ---- ------- ----- -- ----<br>-------- ------- -- ---------- --- - --- ----- ----- ----<br>---- --- how ----- --- ---- ---- ------- ----- ---- -------<br>--- --- -- ----- -- --- ---- -- --- ---- -- ------ ------<br>--- ----- -- ----,136484.40000003576,136483.5,136105.576,136112,136121.476,136486.945,,30,how
screen,html.Screen,2_1_0_1_31,2022-05-02T10:57:46.336Z,,,,,,,,,,,,,,,,,53,,,,,,,,,,,,,,632.054999999993,,response,,,,99,,,,,,,Space,keypress(Space),,,,,,,,---- -- ----- -- ------ - ------- --- ----------<br>------------- ------ ------ ---- ---- ------- ----- -- ----<br>-------- ------- -- ---------- --- - --- ----- ----- ----<br>---- --- --- close --- ---- ---- ------- ----- ---- -------<br>--- --- -- ----- -- --- ---- -- --- ---- -- ------ ------<br>--- ----- -- ----,137119.69999998808,137119,136471.947,136484.40000003576,136486.945,137135.815,,31,close
screen,html.Screen,2_1_0_1_32,2022-05-02T10:57:46.783Z,,,,,,,,,,,,,,,,,53,,,,,,,,,,,,,,429.58500003576046,,response,,,,99,,,,,,,Space,keypress(Space),,,,,,,,---- -- ----- -- ------ - ------- --- ----------<br>------------- ------ ------ ---- ---- ------- ----- -- ----<br>-------- ------- -- ---------- --- - --- ----- ----- ----<br>---- --- --- ----- you ---- ---- ------- ----- ---- -------<br>--- --- -- ----- -- --- ---- -- --- ---- -- ------ ------<br>--- ----- -- ----,137566.10000002384,137565.40000003576,137103.775,137119.80000001192,137135.815,137595.827,,32,you
screen,html.Screen,2_1_0_1_33,2022-05-02T10:57:47.239Z,,,,,,,,,,,,,,,,,53,,,,,,,,,,,,,,426.07300003577257,,response,,,,99,,,,,,,Space,keypress(Space),,,,,,,,---- -- ----- -- ------ - ------- --- ----------<br>------------- ------ ------ ---- ---- ------- ----- -- ----<br>-------- ------- -- ---------- --- - --- ----- ----- ----<br>---- --- --- ----- --- feel ---- ------- ----- ---- -------<br>--- --- -- ----- -- --- ---- -- --- ---- -- ------ ------<br>--- ----- -- ----,138022.19999998808,138021.90000003576,137552.002,137566.19999998808,137595.827,138033.175,,33,feel
screen,html.Screen,2_1_0_1_34,2022-05-02T10:57:47.606Z,,,,,,,,,,,,,,,,,53,,,,,,,,,,,,,,355.4250000238535,,response,,,,99,,,,,,,Space,keypress(Space),,,,,,,,---- -- ----- -- ------ - ------- --- ----------<br>------------- ------ ------ ---- ---- ------- ----- -- ----<br>-------- ------- -- ---------- --- - --- ----- ----- ----<br>---- --- --- ----- --- ---- that ------- ----- ---- -------<br>--- --- -- ----- -- --- ---- -- --- ---- -- ------ ------<br>--- ----- -- ----,138389.40000003576,138388.60000002384,138017.157,138022.40000003576,138033.175,138398.539,,34,that
screen,html.Screen,2_1_0_1_35,2022-05-02T10:57:47.954Z,,,,,,,,,,,,,,,,,53,,,,,,,,,,,,,,338.1609999880893,,response,,,,99,,,,,,,Space,keypress(Space),,,,,,,,---- -- ----- -- ------ - ------- --- ----------<br>------------- ------ ------ ---- ---- ------- ----- -- ----<br>-------- ------- -- ---------- --- - --- ----- ----- ----<br>---- --- --- ----- --- ---- ---- matters ----- ---- -------<br>--- --- -- ----- -- --- ---- -- --- ---- -- ------ ------<br>--- ----- -- ----,138737.19999998808,138736.69999998808,138383.062,138389.60000002384,138398.539,138747.74,,35,matters
screen,html.Screen,2_1_0_1_36,2022-05-02T10:57:48.266Z,,,,,,,,,,,,,,,,,53,,,,,,,,,,,,,,300.86000002385117,,response,,,,99,,,,,,,Space,keypress(Space),,,,,,,,"---- -- ----- -- ------ - ------- --- ----------<br>------------- ------ ------ ---- ---- ------- ----- -- ----<br>-------- ------- -- ---------- --- - --- ----- ----- ----<br>---- --- --- ----- --- ---- ---- ------- most, ---- -------<br>--- --- -- ----- -- --- ---- -- --- ---- -- ------ ------<br>--- ----- -- ----",139049.10000002384,139048.60000002384,138732.087,138737.19999998808,138747.74,139063.221,,36,"most,"
screen,html.Screen,2_1_0_1_37,2022-05-02T10:57:48.902Z,,,,,,,,,,,,,,,,,53,,,,,,,,,,,,,,621.6790000357723,,response,,,,99,,,,,,,Space,keypress(Space),,,,,,,,---- -- ----- -- ------ - ------- --- ----------<br>------------- ------ ------ ---- ---- ------- ----- -- ----<br>-------- ------- -- ---------- --- - --- ----- ----- ----<br>---- --- --- ----- --- ---- ---- ------- ----- it's -------<br>--- --- -- ----- -- --- ---- -- --- ---- -- ------ ------<br>--- ----- -- ----,139685.30000001192,139684.90000003576,139047.804,139049.19999998808,139063.221,139695.292,,37,it's
screen,html.Screen,2_1_0_1_38,2022-05-02T10:57:49.346Z,,,,,,,,,,,,,,,,,53,,,,,,,,,,,,,,433.5080000119342,,response,,,,99,,,,,,,Space,keypress(Space),,,,,,,,---- -- ----- -- ------ - ------- --- ----------<br>------------- ------ ------ ---- ---- ------- ----- -- ----<br>-------- ------- -- ---------- --- - --- ----- ----- ----<br>---- --- --- ----- --- ---- ---- ------- ----- ---- whether<br>--- --- -- ----- -- --- ---- -- --- ---- -- ------ ------<br>--- ----- -- ----,140129.40000003576,140128.80000001192,139679.6,139685.40000003576,139695.292,140143.895,,38,whether
screen,html.Screen,2_1_0_1_39,2022-05-02T10:57:49.768Z,,,,,,,,,,,,,,,,,53,,,,,,,,,,,,,,407.4050000119314,,response,,,,99,,,,,,,Space,keypress(Space),,,,,,,,---- -- ----- -- ------ - ------- --- ----------<br>------------- ------ ------ ---- ---- ------- ----- -- ----<br>-------- ------- -- ---------- --- - --- ----- ----- ----<br>---- --- --- ----- --- ---- ---- ------- ----- ---- -------<br>you --- -- ----- -- --- ---- -- --- ---- -- ------ ------<br>--- ----- -- ----,140551.90000003576,140551.30000001192,140127.954,140129.60000002384,140143.895,140559.104,,39,you
screen,html.Screen,2_1_0_1_40,2022-05-02T10:57:50.217Z,,,,,,,,,,,,,,,,,53,,,,,,,,,,,,,,440.9960000238498,,response,,,,99,,,,,,,Space,keypress(Space),,,,,,,,---- -- ----- -- ------ - ------- --- ----------<br>------------- ------ ------ ---- ---- ------- ----- -- ----<br>-------- ------- -- ---------- --- - --- ----- ----- ----<br>---- --- --- ----- --- ---- ---- ------- ----- ---- -------<br>--- are -- ----- -- --- ---- -- --- ---- -- ------ ------<br>--- ----- -- ----,141000.60000002384,141000.10000002384,140543.635,140551.90000003576,140559.104,141007.869,,40,are
screen,html.Screen,2_1_0_1_41,2022-05-02T10:57:50.625Z,,,,,,,,,,,,,,,,,53,,,,,,,,,,,,,,399.7310000238358,,response,,,,99,,,,,,,Space,keypress(Space),,,,,,,,---- -- ----- -- ------ - ------- --- ----------<br>------------- ------ ------ ---- ---- ------- ----- -- ----<br>-------- ------- -- ---------- --- - --- ----- ----- ----<br>---- --- --- ----- --- ---- ---- ------- ----- ---- -------<br>--- --- as ----- -- --- ---- -- --- ---- -- ------ ------<br>--- ----- -- ----,141408,141407.60000002384,140992.207,141000.69999998808,141007.869,141423.493,,41,as
screen,html.Screen,2_1_0_1_42,2022-05-02T10:57:51.031Z,,,,,,,,,,,,,,,,,53,,,,,,,,,,,,,,390.4070000357751,,response,,,,99,,,,,,,Space,keypress(Space),,,,,,,,---- -- ----- -- ------ - ------- --- ----------<br>------------- ------ ------ ---- ---- ------- ----- -- ----<br>-------- ------- -- ---------- --- - --- ----- ----- ----<br>---- --- --- ----- --- ---- ---- ------- ----- ---- -------<br>--- --- -- close -- --- ---- -- --- ---- -- ------ ------<br>--- ----- -- ----,141814.60000002384,141813.90000003576,141407.769,141408.10000002384,141423.493,141822.537,,42,close
screen,html.Screen,2_1_0_1_43,2022-05-02T10:57:51.436Z,,,,,,,,,,,,,,,,,53,,,,,,,,,,,,,,396.5630000238307,,response,,,,99,,,,,,,Space,keypress(Space),,,,,,,,---- -- ----- -- ------ - ------- --- ----------<br>------------- ------ ------ ---- ---- ------- ----- -- ----<br>-------- ------- -- ---------- --- - --- ----- ----- ----<br>---- --- --- ----- --- ---- ---- ------- ----- ---- -------<br>--- --- -- ----- as --- ---- -- --- ---- -- ------ ------<br>--- ----- -- ----,142219.69999998808,142219.10000002384,141806.577,141814.69999998808,141822.537,142239.931,,43,as
screen,html.Screen,2_1_0_1_44,2022-05-02T10:57:51.835Z,,,,,,,,,,,,,,,,,53,,,,,,,,,,,,,,378.26899998806766,,response,,,,99,,,,,,,Space,keypress(Space),,,,,,,,---- -- ----- -- ------ - ------- --- ----------<br>------------- ------ ------ ---- ---- ------- ----- -- ----<br>-------- ------- -- ---------- --- - --- ----- ----- ----<br>---- --- --- ----- --- ---- ---- ------- ----- ---- -------<br>--- --- -- ----- -- you ---- -- --- ---- -- ------ ------<br>--- ----- -- ----,142618.69999998808,142618.19999998808,142205.485,142219.90000003576,142239.931,142651.948,,44,you
screen,html.Screen,2_1_0_1_45,2022-05-02T10:57:52.193Z,,,,,,,,,,,,,,,,,53,,,,,,,,,,,,,,323.6520000238379,,response,,,,99,,,,,,,Space,keypress(Space),,,,,,,,---- -- ----- -- ------ - ------- --- ----------<br>------------- ------ ------ ---- ---- ------- ----- -- ----<br>-------- ------- -- ---------- --- - --- ----- ----- ----<br>---- --- --- ----- --- ---- ---- ------- ----- ---- -------<br>--- --- -- ----- -- --- want -- --- ---- -- ------ ------<br>--- ----- -- ----,142976.30000001192,142975.60000002384,142604.449,142618.80000001192,142651.948,142985.84,,45,want
screen,html.Screen,2_1_0_1_46,2022-05-02T10:57:52.497Z,,,,,,,,,,,,,,,,,53,,,,,,,,,,,,,,294.0600000357663,,response,,,,99,,,,,,,Space,keypress(Space),,,,,,,,---- -- ----- -- ------ - ------- --- ----------<br>------------- ------ ------ ---- ---- ------- ----- -- ----<br>-------- ------- -- ---------- --- - --- ----- ----- ----<br>---- --- --- ----- --- ---- ---- ------- ----- ---- -------<br>--- --- -- ----- -- --- ---- to --- ---- -- ------ ------<br>--- ----- -- ----,143280.40000003576,143279.90000003576,142969.92,142976.40000003576,142985.84,143285.02,,46,to
screen,html.Screen,2_1_0_1_47,2022-05-02T10:57:52.865Z,,,,,,,,,,,,,,,,,53,,,,,,,,,,,,,,363.38000003577326,,response,,,,99,,,,,,,Space,keypress(Space),,,,,,,,"---- -- ----- -- ------ - ------- --- ----------<br>------------- ------ ------ ---- ---- ------- ----- -- ----<br>-------- ------- -- ---------- --- - --- ----- ----- ----<br>---- --- --- ----- --- ---- ---- ------- ----- ---- -------<br>--- --- -- ----- -- --- ---- -- be, ---- -- ------ ------<br>--- ----- -- ----",143648.80000001192,143648.40000003576,143269.019,143280.60000002384,143285.02,143650.689,,47,"be,"
screen,html.Screen,2_1_0_1_48,2022-05-02T10:57:53.360Z,,,,,,,,,,,,,,,,,53,,,,,,,,,,,,,,492.71100003574975,,response,,,,99,,,,,,,Space,keypress(Space),,,,,,,,---- -- ----- -- ------ - ------- --- ----------<br>------------- ------ ------ ---- ---- ------- ----- -- ----<br>-------- ------- -- ---------- --- - --- ----- ----- ----<br>---- --- --- ----- --- ---- ---- ------- ----- ---- -------<br>--- --- -- ----- -- --- ---- -- --- even -- ------ ------<br>--- ----- -- ----,144144,144143.40000003576,143635.374,143648.90000003576,143650.689,144149.343,,48,even
screen,html.Screen,2_1_0_1_49,2022-05-02T10:57:53.664Z,,,,,,,,,,,,,,,,,53,,,,,,,,,,,,,,297.8569999880856,,response,,,,99,,,,,,,Space,keypress(Space),,,,,,,,---- -- ----- -- ------ - ------- --- ----------<br>------------- ------ ------ ---- ---- ------- ----- -- ----<br>-------- ------- -- ---------- --- - --- ----- ----- ----<br>---- --- --- ----- --- ---- ---- ------- ----- ---- -------<br>--- --- -- ----- -- --- ---- -- --- ---- if ------ ------<br>--- ----- -- ----,144447.90000003576,144447.19999998808,144134.52,144144.10000002384,144149.343,144477.299,,49,if
screen,html.Screen,2_1_0_1_50,2022-05-02T10:57:54.206Z,,,,,,,,,,,,,,,,,53,,,,,,,,,,,,,,511.50100001192186,,response,,,,99,,,,,,,Space,keypress(Space),,,,,,,,---- -- ----- -- ------ - ------- --- ----------<br>------------- ------ ------ ---- ---- ------- ----- -- ----<br>-------- ------- -- ---------- --- - --- ----- ----- ----<br>---- --- --- ----- --- ---- ---- ------- ----- ---- -------<br>--- --- -- ----- -- --- ---- -- --- ---- -- that's ------<br>--- ----- -- ----,144989.19999998808,144988.80000001192,144432.53,144447.90000003576,144477.299,144997.592,,50,that's
screen,html.Screen,2_1_0_1_51,2022-05-02T10:57:54.555Z,,,,,,,,,,,,,,,,,53,,,,,,,,,,,,,,340.50800002383767,,response,,,,99,,,,,,,Space,keypress(Space),,,,,,,,---- -- ----- -- ------ - ------- --- ----------<br>------------- ------ ------ ---- ---- ------- ----- -- ----<br>-------- ------- -- ---------- --- - --- ----- ----- ----<br>---- --- --- ----- --- ---- ---- ------- ----- ---- -------<br>--- --- -- ----- -- --- ---- -- --- ---- -- ------ really<br>--- ----- -- ----,145338.90000003576,145338.10000002384,144981.663,144989.30000001192,144997.592,145346.036,,51,really
screen,html.Screen,2_1_0_1_52,2022-05-02T10:57:54.997Z,,,,,,,,,,,,,,,,,53,,,,,,,,,,,,,,434.26400001192815,,response,,,,99,,,,,,,Space,keypress(Space),,,,,,,,---- -- ----- -- ------ - ------- --- ----------<br>------------- ------ ------ ---- ---- ------- ----- -- ----<br>-------- ------- -- ---------- --- - --- ----- ----- ----<br>---- --- --- ----- --- ---- ---- ------- ----- ---- -------<br>--- --- -- ----- -- --- ---- -- --- ---- -- ------ ------<br>not ----- -- ----,145780.80000001192,145780.30000001192,145330.162,145338.90000003576,145346.036,145795.296,,52,not
screen,html.Screen,2_1_0_1_53,2022-05-02T10:57:55.605Z,,,,,,,,,,,,,,,,,53,,,,,,,,,,,,,,592.903999988077,,response,,,,99,,,,,,,Space,keypress(Space),,,,,,,,---- -- ----- -- ------ - ------- --- ----------<br>------------- ------ ------ ---- ---- ------- ----- -- ----<br>-------- ------- -- ---------- --- - --- ----- ----- ----<br>---- --- --- ----- --- ---- ---- ------- ----- ---- -------<br>--- --- -- ----- -- --- ---- -- --- ---- -- ------ ------<br>--- close -- ----,146388.5,146388.19999998808,145779.357,145780.80000001192,145795.296,146393.125,,53,close
screen,html.Screen,2_1_0_1_54,2022-05-02T10:57:55.967Z,,,,,,,,,,,,,,,,,53,,,,,,,,,,,,,,356.17500001192093,,response,,,,99,,,,,,,Space,keypress(Space),,,,,,,,---- -- ----- -- ------ - ------- --- ----------<br>------------- ------ ------ ---- ---- ------- ----- -- ----<br>-------- ------- -- ---------- --- - --- ----- ----- ----<br>---- --- --- ----- --- ---- ---- ------- ----- ---- -------<br>--- --- -- ----- -- --- ---- -- --- ---- -- ------ ------<br>--- ----- at ----,146750,146749.30000001192,146377.96,146388.69999998808,146393.125,146758.96,,54,at
screen,html.Screen,2_1_0_1_55,2022-05-02T10:57:56.286Z,,,,,,,,,,,,,,,,,53,,,,,,,,,,,,,,309.8400000119291,,response,,,,99,,,,,,,Space,keypress(Space),,,,,,,,---- -- ----- -- ------ - ------- --- ----------<br>------------- ------ ------ ---- ---- ------- ----- -- ----<br>-------- ------- -- ---------- --- - --- ----- ----- ----<br>---- --- --- ----- --- ---- ---- ------- ----- ---- -------<br>--- --- -- ----- -- --- ---- -- --- ---- -- ------ ------<br>--- ----- -- all.,147069.30000001192,147068.80000001192,146743.64,146750.10000002384,146758.96,147074.64,,55,all.
Item 99,flow.Loop,2_1_0_1,2022-05-02T10:57:56.286Z,,,,,,,,,,,,,,,,,,,,,,,,,,,,,,,27834.373000011925,,completion,,,,,E,,,,,,,,,,,silence,,,,,147069.40000003576,147068.80000001192,119217.686,119220.5,119234.427,147074.64,,,
Question 1,html.Screen,2_1_0_2,2022-05-02T10:58:08.411Z,,,,,,,,,,,,,,,,,,,,,,,,,,,,true,FALSE,,12118.660000011907,,response,,,,99,E,,,,,,FALSE,click #choice-2,,,,silence,,,,,159194.30000001192,159193.30000001192,147058.671,147069.60000002384,147074.64,159208.014,,,
Question 2,html.Screen,2_1_0_3,2022-05-02T10:58:14.814Z,,,,,,,,,,,,,,,,,,,,,,,,,,,,true,TRUE,,6388.086000023846,,response,,,,99,E,,,,,,TRUE,click #choice-1,,,,silence,,,,,165597.30000001192,165596.10000002384,159191.619,159194.40000003576,159208.014,165607.139,,,
Item 99,flow.Sequence,2_1_0,2022-05-02T10:58:14.814Z,,,,,,,,,,,,,,,,,,,,,,,,,,,,,,,56367.764000023846,,completion,,,,,,,,,,,,,,,,,,,,,165597.5,165596.10000002384,109212.144,109217.80000001192,109228.336,165607.139,,,
Holding screen,html.Screen,2_1_1_0,2022-05-02T10:58:24.814Z,,,,,,,,,,,,,,,,,,,,,,,,,,,,,,,10005.95199999999,,timeout,,,,,,,,,,,,,,,,,,,,,175597.69999998808,175597.07,165591.065,165597.60000002384,165607.139,175613.091,,,
screen,html.Screen,2_1_1_1_0,2022-05-02T10:58:25.721Z,,,,,,,,,,,,,,,,,54,,,,,,,,,,,,,,891.1089999880933,,response,,,,100,,,,,,,Space,keypress(Space),,,,,,,,At --- ---- --- ------ ----- ------- ---- -- --- ------- --<br>------- ---------- ------ -- ----- -- ----- -- ---- ------<br>--- ----- --- --- ------ -------- ----- --- ------ ----- --<br>----- ----- ---------- --- --- ------ ------ ---- -- ------<br>------- --- ------ ----- --- ---- ------- -- ---- --- --<br>------- ------,176504.90000003576,176504.19999998808,175597.07,175597.90000003576,175613.091,176510.711,,0,At
screen,html.Screen,2_1_1_1_1,2022-05-02T10:58:26.103Z,,,,,,,,,,,,,,,,,54,,,,,,,,,,,,,,374.78899999998976,,response,,,,100,,,,,,,Space,keypress(Space),,,,,,,,-- the ---- --- ------ ----- ------- ---- -- --- ------- --<br>------- ---------- ------ -- ----- -- ----- -- ---- ------<br>--- ----- --- --- ------ -------- ----- --- ------ ----- --<br>----- ----- ---------- --- --- ------ ------ ---- -- ------<br>------- --- ------ ----- --- ---- ------- -- ---- --- --<br>------- ------,176886.30000001192,176885.5,176496.067,176505,176510.711,176892.976,,1,the
screen,html.Screen,2_1_1_1_2,2022-05-02T10:58:26.518Z,,,,,,,,,,,,,,,,,54,,,,,,,,,,,,,,407.72399998808396,,response,,,,100,,,,,,,Space,keypress(Space),,,,,,,,-- --- time --- ------ ----- ------- ---- -- --- ------- --<br>------- ---------- ------ -- ----- -- ----- -- ---- ------<br>--- ----- --- --- ------ -------- ----- --- ------ ----- --<br>----- ----- ---------- --- --- ------ ------ ---- -- ------<br>------- --- ------ ----- --- ---- ------- -- ---- --- --<br>------- ------,177301.10000002384,177300.69999998808,176877.187,176886.5,176892.976,177308.441,,2,time
screen,html.Screen,2_1_1_1_3,2022-05-02T10:58:26.905Z,,,,,,,,,,,,,,,,,54,,,,,,,,,,,,,,379.3590000119293,,response,,,,100,,,,,,,Space,keypress(Space),,,,,,,,-- --- ---- the ------ ----- ------- ---- -- --- ------- --<br>------- ---------- ------ -- ----- -- ----- -- ---- ------<br>--- ----- --- --- ------ -------- ----- --- ------ ----- --<br>----- ----- ---------- --- --- ------ ------ ---- -- ------<br>------- --- ------ ----- --- ---- ------- -- ---- --- --<br>------- ------,177688.5,177687.80000001192,177293.261,177301.19999998808,177308.441,177690.774,,3,the
screen,html.Screen,2_1_1_1_4,2022-05-02T10:58:27.340Z,,,,,,,,,,,,,,,,,54,,,,,,,,,,,,,,432.02600001191604,,response,,,,100,,,,,,,Space,keypress(Space),,,,,,,,-- --- ---- --- French ----- ------- ---- -- --- ------- --<br>------- ---------- ------ -- ----- -- ----- -- ---- ------<br>--- ----- --- --- ------ -------- ----- --- ------ ----- --<br>----- ----- ---------- --- --- ------ ------ ---- -- ------<br>------- --- ------ ----- --- ---- ------- -- ---- --- --<br>------- ------,178123.30000001192,178122.80000001192,177675.491,177688.80000001192,177690.774,178139.54,,4,French
screen,html.Screen,2_1_1_1_5,2022-05-02T10:58:28.113Z,,,,,,,,,,,,,,,,,54,,,,,,,,,,,,,,756.3600000357546,,response,,,,100,,,,,,,Space,keypress(Space),,,,,,,,-- --- ---- --- ------ crown ------- ---- -- --- ------- --<br>------- ---------- ------ -- ----- -- ----- -- ---- ------<br>--- ----- --- --- ------ -------- ----- --- ------ ----- --<br>----- ----- ---------- --- --- ------ ------ ---- -- ------<br>------- --- ------ ----- --- ---- ------- -- ---- --- --<br>------- ------,178896.60000002384,178895.90000003576,178123.911,178123.5,178139.54,178904.105,,5,crown
screen,html.Screen,2_1_1_1_6,2022-05-02T10:58:28.643Z,,,,,,,,,,,,,,,,,54,,,,,,,,,,,,,,521.8949999999895,,response,,,,100,,,,,,,Space,keypress(Space),,,,,,,,-- --- ---- --- ------ ----- secured ---- -- --- ------- --<br>------- ---------- ------ -- ----- -- ----- -- ---- ------<br>--- ----- --- --- ------ -------- ----- --- ------ ----- --<br>----- ----- ---------- --- --- ------ ------ ---- -- ------<br>------- --- ------ ----- --- ---- ------- -- ---- --- --<br>------- ------,179426.80000001192,179426,178889.204,178896.80000001192,178904.105,179436.41,,6,secured
screen,html.Screen,2_1_1_1_7,2022-05-02T10:58:29.091Z,,,,,,,,,,,,,,,,,54,,,,,,,,,,,,,,437.9900000357593,,response,,,,100,,,,,,,Space,keypress(Space),,,,,,,,-- --- ---- --- ------ ----- ------- much -- --- ------- --<br>------- ---------- ------ -- ----- -- ----- -- ---- ------<br>--- ----- --- --- ------ -------- ----- --- ------ ----- --<br>----- ----- ---------- --- --- ------ ------ ---- -- ------<br>------- --- ------ ----- --- ---- ------- -- ---- --- --<br>------- ------,179874.80000001192,179874.40000003576,179420.643,179427,179436.41,179885.473,,7,much
screen,html.Screen,2_1_1_1_8,2022-05-02T10:58:29.562Z,,,,,,,,,,,,,,,,,54,,,,,,,,,,,,,,459.42700003576465,,response,,,,100,,,,,,,Space,keypress(Space),,,,,,,,-- --- ---- --- ------ ----- ------- ---- of --- ------- --<br>------- ---------- ------ -- ----- -- ----- -- ---- ------<br>--- ----- --- --- ------ -------- ----- --- ------ ----- --<br>----- ----- ---------- --- --- ------ ------ ---- -- ------<br>------- --- ------ ----- --- ---- ------- -- ---- --- --<br>------- ------,180345.69999998808,180344.90000003576,179869.342,179874.90000003576,179885.473,180350.154,,8,of
screen,html.Screen,2_1_1_1_9,2022-05-02T10:58:29.899Z,,,,,,,,,,,,,,,,,54,,,,,,,,,,,,,,331.4460000238323,,response,,,,100,,,,,,,Space,keypress(Space),,,,,,,,-- --- ---- --- ------ ----- ------- ---- -- its ------- --<br>------- ---------- ------ -- ----- -- ----- -- ---- ------<br>--- ----- --- --- ------ -------- ----- --- ------ ----- --<br>----- ----- ---------- --- --- ------ ------ ---- -- ------<br>------- --- ------ ----- --- ---- ------- -- ---- --- --<br>------- ------,180682.19999998808,180681.60000002384,180334.624,180345.80000001192,180350.154,180699.254,,9,its
screen,html.Screen,2_1_1_1_10,2022-05-02T10:58:31.065Z,,,,,,,,,,,,,,,,,54,,,,,,,,,,,,,,1148.1460000357765,,response,,,,100,,,,,,,Space,keypress(Space),,,,,,,,-- --- ---- --- ------ ----- ------- ---- -- --- revenue --<br>------- ---------- ------ -- ----- -- ----- -- ---- ------<br>--- ----- --- --- ------ -------- ----- --- ------ ----- --<br>----- ----- ---------- --- --- ------ ------ ---- -- ------<br>------- --- ------ ----- --- ---- ------- -- ---- --- --<br>------- ------,181848.10000002384,181847.40000003576,180667.261,180682.40000003576,180699.254,181862.629,,10,revenue
screen,html.Screen,2_1_1_1_11,2022-05-02T10:58:31.506Z,,,,,,,,,,,,,,,,,54,,,,,,,,,,,,,,425.7710000357765,,response,,,,100,,,,,,,Space,keypress(Space),,,,,,,,-- --- ---- --- ------ ----- ------- ---- -- --- ------- by<br>------- ---------- ------ -- ----- -- ----- -- ---- ------<br>--- ----- --- --- ------ -------- ----- --- ------ ----- --<br>----- ----- ---------- --- --- ------ ------ ---- -- ------<br>------- --- ------ ----- --- ---- ------- -- ---- --- --<br>------- ------,182289.19999998808,182288.40000003576,181848.848,181848.19999998808,181862.629,182295.448,,11,by
screen,html.Screen,2_1_1_1_12,2022-05-02T10:58:32.086Z,,,,,,,,,,,,,,,,,54,,,,,,,,,,,,,,572.852000011917,,response,,,,100,,,,,,,Space,keypress(Space),,,,,,,,-- --- ---- --- ------ ----- ------- ---- -- --- ------- --<br>issuing ---------- ------ -- ----- -- ----- -- ---- ------<br>--- ----- --- --- ------ -------- ----- --- ------ ----- --<br>----- ----- ---------- --- --- ------ ------ ---- -- ------<br>------- --- ------ ----- --- ---- ------- -- ---- --- --<br>------- ------,182869.19999998808,182868.30000001192,182279.123,182289.30000001192,182295.448,182876.564,,12,issuing
screen,html.Screen,2_1_1_1_13,2022-05-02T10:58:32.940Z,,,,,,,,,,,,,,,,,54,,,,,,,,,,,,,,845.635999988066,,response,,,,100,,,,,,,Space,keypress(Space),,,,,,,,-- --- ---- --- ------ ----- ------- ---- -- --- ------- --<br>------- government ------ -- ----- -- ----- -- ---- ------<br>--- ----- --- --- ------ -------- ----- --- ------ ----- --<br>----- ----- ---------- --- --- ------ ------ ---- -- ------<br>------- --- ------ ----- --- ---- ------- -- ---- --- --<br>------- ------,183723.19999998808,183722.19999998808,182861.193,182869.5,182876.564,183741.584,,13,government
screen,html.Screen,2_1_1_1_14,2022-05-02T10:58:34.559Z,,,,,,,,,,,,,,,,,54,,,,,,,,,,,,,,1600.7160000119184,,response,,,,100,,,,,,,Space,keypress(Space),,,,,,,,-- --- ---- --- ------ ----- ------- ---- -- --- ------- --<br>------- ---------- bonds. -- ----- -- ----- -- ---- ------<br>--- ----- --- --- ------ -------- ----- --- ------ ----- --<br>----- ----- ---------- --- --- ------ ------ ---- -- ------<br>------- --- ------ ----- --- ---- ------- -- ---- --- --<br>------- ------,185343,185342.30000001192,183709.554,183723.30000001192,183741.584,185353.566,,14,bonds.
screen,html.Screen,2_1_1_1_15,2022-05-02T10:58:35.043Z,,,,,,,,,,,,,,,,,54,,,,,,,,,,,,,,472.7340000119293,,response,,,,100,,,,,,,Space,keypress(Space),,,,,,,,-- --- ---- --- ------ ----- ------- ---- -- --- ------- --<br>------- ---------- ------ In ----- -- ----- -- ---- ------<br>--- ----- --- --- ------ -------- ----- --- ------ ----- --<br>----- ----- ---------- --- --- ------ ------ ---- -- ------<br>------- --- ------ ----- --- ---- ------- -- ---- --- --<br>------- ------,185826.90000003576,185826.30000001192,185340.205,185343.30000001192,185353.566,185835.104,,15,In
screen,html.Screen,2_1_1_1_16,2022-05-02T10:58:36.393Z,,,,,,,,,,,,,,,,,54,,,,,,,,,,,,,,1340.9960000238498,,response,,,,100,,,,,,,Space,keypress(Space),,,,,,,,"-- --- ---- --- ------ ----- ------- ---- -- --- ------- --<br>------- ---------- ------ -- 1727, -- ----- -- ---- ------<br>--- ----- --- --- ------ -------- ----- --- ------ ----- --<br>----- ----- ---------- --- --- ------ ------ ---- -- ------<br>------- --- ------ ----- --- ---- ------- -- ---- --- --<br>------- ------",187176.80000001192,187176.10000002384,185820.157,185827.10000002384,185835.104,187181.49,,16,"1727,"
screen,html.Screen,2_1_1_1_17,2022-05-02T10:58:38.185Z,,,,,,,,,,,,,,,,,54,,,,,,,,,,,,,,1786.6100000238512,,response,,,,100,,,,,,,Space,keypress(Space),,,,,,,,-- --- ---- --- ------ ----- ------- ---- -- --- ------- --<br>------- ---------- ------ -- ----- in ----- -- ---- ------<br>--- ----- --- --- ------ -------- ----- --- ------ ----- --<br>----- ----- ---------- --- --- ------ ------ ---- -- ------<br>------- --- ------ ----- --- ---- ------- -- ---- --- --<br>------- ------,188968.80000001192,188968.10000002384,187167.977,187177,187181.49,188976.484,,17,in
screen,html.Screen,2_1_1_1_18,2022-05-02T10:58:38.839Z,,,,,,,,,,,,,,,,,54,,,,,,,,,,,,,,645.3160000119242,,response,,,,100,,,,,,,Space,keypress(Space),,,,,,,,-- --- ---- --- ------ ----- ------- ---- -- --- ------- --<br>------- ---------- ------ -- ----- -- order -- ---- ------<br>--- ----- --- --- ------ -------- ----- --- ------ ----- --<br>----- ----- ---------- --- --- ------ ------ ---- -- ------<br>------- --- ------ ----- --- ---- ------- -- ---- --- --<br>------- ------,189622.5,189621.80000001192,188964.094,188968.90000003576,188976.484,189624.72,,18,order
screen,html.Screen,2_1_1_1_19,2022-05-02T10:58:39.168Z,,,,,,,,,,,,,,,,,54,,,,,,,,,,,,,,326.1800000357616,,response,,,,100,,,,,,,Space,keypress(Space),,,,,,,,-- --- ---- --- ------ ----- ------- ---- -- --- ------- --<br>------- ---------- ------ -- ----- -- ----- to ---- ------<br>--- ----- --- --- ------ -------- ----- --- ------ ----- --<br>----- ----- ---------- --- --- ------ ------ ---- -- ------<br>------- --- ------ ----- --- ---- ------- -- ---- --- --<br>------- ------,189951.60000002384,189950.90000003576,189609.788,189622.69999998808,189624.72,189957.107,,19,to
screen,html.Screen,2_1_1_1_20,2022-05-02T10:58:39.595Z,,,,,,,,,,,,,,,,,54,,,,,,,,,,,,,,420.4930000238528,,response,,,,100,,,,,,,Space,keypress(Space),,,,,,,,-- --- ---- --- ------ ----- ------- ---- -- --- ------- --<br>------- ---------- ------ -- ----- -- ----- -- save ------<br>--- ----- --- --- ------ -------- ----- --- ------ ----- --<br>----- ----- ---------- --- --- ------ ------ ---- -- ------<br>------- --- ------ ----- --- ---- ------- -- ---- --- --<br>------- ------,190378.30000001192,190377.60000002384,189941.234,189951.69999998808,189957.107,190389.401,,20,save
screen,html.Screen,2_1_1_1_21,2022-05-02T10:58:40.696Z,,,,,,,,,,,,,,,,,54,,,,,,,,,,,,,,1089.3990000119084,,response,,,,100,,,,,,,Space,keypress(Space),,,,,,,,"-- --- ---- --- ------ ----- ------- ---- -- --- ------- --<br>------- ---------- ------ -- ----- -- ----- -- ---- money,<br>--- ----- --- --- ------ -------- ----- --- ------ ----- --<br>----- ----- ---------- --- --- ------ ------ ---- -- ------<br>------- --- ------ ----- --- ---- ------- -- ---- --- --<br>------- ------",191479.19999998808,191478.80000001192,190373.621,190378.30000001192,190389.401,191486.261,,21,"money,"
screen,html.Screen,2_1_1_1_22,2022-05-02T10:58:40.983Z,,,,,,,,,,,,,,,,,54,,,,,,,,,,,,,,279.7390000000014,,response,,,,100,,,,,,,Space,keypress(Space),,,,,,,,-- --- ---- --- ------ ----- ------- ---- -- --- ------- --<br>------- ---------- ------ -- ----- -- ----- -- ---- ------<br>the ----- --- --- ------ -------- ----- --- ------ ----- --<br>----- ----- ---------- --- --- ------ ------ ---- -- ------<br>------- --- ------ ----- --- ---- ------- -- ---- --- --<br>------- ------,191766.90000003576,191766,191472.789,191479.19999998808,191486.261,191768.837,,22,the
screen,html.Screen,2_1_1_1_23,2022-05-02T10:58:41.578Z,,,,,,,,,,,,,,,,,54,,,,,,,,,,,,,,592.8629999880795,,response,,,,100,,,,,,,Space,keypress(Space),,,,,,,,-- --- ---- --- ------ ----- ------- ---- -- --- ------- --<br>------- ---------- ------ -- ----- -- ----- -- ---- ------<br>--- state --- --- ------ -------- ----- --- ------ ----- --<br>----- ----- ---------- --- --- ------ ------ ---- -- ------<br>------- --- ------ ----- --- ---- ------- -- ---- --- --<br>------- ------,192362,192361.69999998808,191752.776,191767,191768.837,192367.169,,23,state
screen,html.Screen,2_1_1_1_24,2022-05-02T10:58:42.100Z,,,,,,,,,,,,,,,,,54,,,,,,,,,,,,,,515.1310000119265,,response,,,,100,,,,,,,Space,keypress(Space),,,,,,,,-- --- ---- --- ------ ----- ------- ---- -- --- ------- --<br>------- ---------- ------ -- ----- -- ----- -- ---- ------<br>--- ----- cut --- ------ -------- ----- --- ------ ----- --<br>----- ----- ---------- --- --- ------ ------ ---- -- ------<br>------- --- ------ ----- --- ---- ------- -- ---- --- --<br>------- ------,192883.19999998808,192882.30000001192,192352.032,192362.19999998808,192367.169,192899.265,,24,cut
screen,html.Screen,2_1_1_1_25,2022-05-02T10:58:42.466Z,,,,,,,,,,,,,,,,,54,,,,,,,,,,,,,,350.23499999998603,,response,,,,100,,,,,,,Space,keypress(Space),,,,,,,,-- --- ---- --- ------ ----- ------- ---- -- --- ------- --<br>------- ---------- ------ -- ----- -- ----- -- ---- ------<br>--- ----- --- the ------ -------- ----- --- ------ ----- --<br>----- ----- ---------- --- --- ------ ------ ---- -- ------<br>------- --- ------ ----- --- ---- ------- -- ---- --- --<br>------- ------,193250.10000002384,193249.5,192883.748,192883.40000003576,192899.265,193265.086,,25,the
screen,html.Screen,2_1_1_1_26,2022-05-02T10:58:44.126Z,,,,,,,,,,,,,,,,,54,,,,,,,,,,,,,,1643.5140000238316,,response,,,,100,,,,,,,Space,keypress(Space),,,,,,,,-- --- ---- --- ------ ----- ------- ---- -- --- ------- --<br>------- ---------- ------ -- ----- -- ----- -- ---- ------<br>--- ----- --- --- bonds' -------- ----- --- ------ ----- --<br>----- ----- ---------- --- --- ------ ------ ---- -- ------<br>------- --- ------ ----- --- ---- ------- -- ---- --- --<br>------- ------,194909.40000003576,194908.60000002384,193249.394,193250.19999998808,193265.086,194927.44,,26,bonds'
screen,html.Screen,2_1_1_1_27,2022-05-02T10:58:44.606Z,,,,,,,,,,,,,,,,,54,,,,,,,,,,,,,,461.75999998807674,,response,,,,100,,,,,,,Space,keypress(Space),,,,,,,,-- --- ---- --- ------ ----- ------- ---- -- --- ------- --<br>------- ---------- ------ -- ----- -- ----- -- ---- ------<br>--- ----- --- --- ------ interest ----- --- ------ ----- --<br>----- ----- ---------- --- --- ------ ------ ---- -- ------<br>------- --- ------ ----- --- ---- ------- -- ---- --- --<br>------- ------,195389.80000001192,195389.19999998808,194897.744,194909.5,194927.44,195392.248,,27,interest
screen,html.Screen,2_1_1_1_28,2022-05-02T10:58:46.097Z,,,,,,,,,,,,,,,,,54,,,,,,,,,,,,,,1488.0520000119286,,response,,,,100,,,,,,,Space,keypress(Space),,,,,,,,-- --- ---- --- ------ ----- ------- ---- -- --- ------- --<br>------- ---------- ------ -- ----- -- ----- -- ---- ------<br>--- ----- --- --- ------ -------- rate. --- ------ ----- --<br>----- ----- ---------- --- --- ------ ------ ---- -- ------<br>------- --- ------ ----- --- ---- ------- -- ---- --- --<br>------- ------,196880.90000003576,196880.30000001192,195376.706,195390,195392.248,196888.282,,28,rate.
screen,html.Screen,2_1_1_1_29,2022-05-02T10:58:46.465Z,,,,,,,,,,,,,,,,,54,,,,,,,,,,,,,,359.81800002383534,,response,,,,100,,,,,,,Space,keypress(Space),,,,,,,,-- --- ---- --- ------ ----- ------- ---- -- --- ------- --<br>------- ---------- ------ -- ----- -- ----- -- ---- ------<br>--- ----- --- --- ------ -------- ----- The ------ ----- --<br>----- ----- ---------- --- --- ------ ------ ---- -- ------<br>------- --- ------ ----- --- ---- ------- -- ---- --- --<br>------- ------,197248.90000003576,197248.10000002384,196875.459,196880.90000003576,196888.282,197253.834,,29,The
screen,html.Screen,2_1_1_1_30,2022-05-02T10:58:47.004Z,,,,,,,,,,,,,,,,,54,,,,,,,,,,,,,,533.4660000119184,,response,,,,100,,,,,,,Space,keypress(Space),,,,,,,,-- --- ---- --- ------ ----- ------- ---- -- --- ------- --<br>------- ---------- ------ -- ----- -- ----- -- ---- ------<br>--- ----- --- --- ------ -------- ----- --- market ----- --<br>----- ----- ---------- --- --- ------ ------ ---- -- ------<br>------- --- ------ ----- --- ---- ------- -- ---- --- --<br>------- ------,197787.69999998808,197787.30000001192,197238.521,197249,197253.834,197802.555,,30,market
screen,html.Screen,2_1_1_1_31,2022-05-02T10:58:47.396Z,,,,,,,,,,,,,,,,,54,,,,,,,,,,,,,,376.2450000119279,,response,,,,100,,,,,,,Space,keypress(Space),,,,,,,,-- --- ---- --- ------ ----- ------- ---- -- --- ------- --<br>------- ---------- ------ -- ----- -- ----- -- ---- ------<br>--- ----- --- --- ------ -------- ----- --- ------ value --<br>----- ----- ---------- --- --- ------ ------ ---- -- ------<br>------- --- ------ ----- --- ---- ------- -- ---- --- --<br>------- ------,198179.30000001192,198178.80000001192,197787.253,197787.80000001192,197802.555,198184.69,,31,value
screen,html.Screen,2_1_1_1_32,2022-05-02T10:58:47.787Z,,,,,,,,,,,,,,,,,54,,,,,,,,,,,,,,385.6100000119186,,response,,,,100,,,,,,,Space,keypress(Space),,,,,,,,-- --- ---- --- ------ ----- ------- ---- -- --- ------- --<br>------- ---------- ------ -- ----- -- ----- -- ---- ------<br>--- ----- --- --- ------ -------- ----- --- ------ ----- of<br>----- ----- ---------- --- --- ------ ------ ---- -- ------<br>------- --- ------ ----- --- ---- ------- -- ---- --- --<br>------- ------,198570.69999998808,198570.30000001192,198169.361,198179.5,198184.69,198583.907,,32,of
screen,html.Screen,2_1_1_1_33,2022-05-02T10:58:48.185Z,,,,,,,,,,,,,,,,,54,,,,,,,,,,,,,,384.49300003575627,,response,,,,100,,,,,,,Space,keypress(Space),,,,,,,,-- --- ---- --- ------ ----- ------- ---- -- --- ------- --<br>------- ---------- ------ -- ----- -- ----- -- ---- ------<br>--- ----- --- --- ------ -------- ----- --- ------ ----- --<br>these ----- ---------- --- --- ------ ------ ---- -- ------<br>------- --- ------ ----- --- ---- ------- -- ---- --- --<br>------- ------,198968.90000003576,198968.40000003576,198567.869,198570.80000001192,198583.907,198982.485,,33,these
screen,html.Screen,2_1_1_1_34,2022-05-02T10:58:48.635Z,,,,,,,,,,,,,,,,,54,,,,,,,,,,,,,,435.6150000238558,,response,,,,100,,,,,,,Space,keypress(Space),,,,,,,,-- --- ---- --- ------ ----- ------- ---- -- --- ------- --<br>------- ---------- ------ -- ----- -- ----- -- ---- ------<br>--- ----- --- --- ------ -------- ----- --- ------ ----- --<br>----- bonds ---------- --- --- ------ ------ ---- -- ------<br>------- --- ------ ----- --- ---- ------- -- ---- --- --<br>------- ------,199418.5,199418.10000002384,198967.024,198968.90000003576,198982.485,199431.691,,34,bonds
screen,html.Screen,2_1_1_1_35,2022-05-02T10:58:50.163Z,,,,,,,,,,,,,,,,,54,,,,,,,,,,,,,,1514.7090000357712,,response,,,,100,,,,,,,Space,keypress(Space),,,,,,,,"-- --- ---- --- ------ ----- ------- ---- -- --- ------- --<br>------- ---------- ------ -- ----- -- ----- -- ---- ------<br>--- ----- --- --- ------ -------- ----- --- ------ ----- --<br>----- ----- plummeted, --- --- ------ ------ ---- -- ------<br>------- --- ------ ----- --- ---- ------- -- ---- --- --<br>------- ------",200946.90000003576,200946.40000003576,199416.08,199418.60000002384,199431.691,200960.359,,35,"plummeted,"
screen,html.Screen,2_1_1_1_36,2022-05-02T10:58:50.582Z,,,,,,,,,,,,,,,,,54,,,,,,,,,,,,,,404.7410000238451,,response,,,,100,,,,,,,Space,keypress(Space),,,,,,,,-- --- ---- --- ------ ----- ------- ---- -- --- ------- --<br>------- ---------- ------ -- ----- -- ----- -- ---- ------<br>--- ----- --- --- ------ -------- ----- --- ------ ----- --<br>----- ----- ---------- and --- ------ ------ ---- -- ------<br>------- --- ------ ----- --- ---- ------- -- ---- --- --<br>------- ------,201365.69999998808,201365.10000002384,200931.189,200946.90000003576,200960.359,201375.919,,36,and
screen,html.Screen,2_1_1_1_37,2022-05-02T10:58:50.978Z,,,,,,,,,,,,,,,,,54,,,,,,,,,,,,,,385.18100002384745,,response,,,,100,,,,,,,Space,keypress(Space),,,,,,,,-- --- ---- --- ------ ----- ------- ---- -- --- ------- --<br>------- ---------- ------ -- ----- -- ----- -- ---- ------<br>--- ----- --- --- ------ -------- ----- --- ------ ----- --<br>----- ----- ---------- --- the ------ ------ ---- -- ------<br>------- --- ------ ----- --- ---- ------- -- ---- --- --<br>------- ------,201761.60000002384,201761.10000002384,201360.325,201365.80000001192,201375.919,201774.793,,37,the
screen,html.Screen,2_1_1_1_38,2022-05-02T10:58:51.442Z,,,,,,,,,,,,,,,,,54,,,,,,,,,,,,,,450.30700002383674,,response,,,,100,,,,,,,Space,keypress(Space),,,,,,,,-- --- ---- --- ------ ----- ------- ---- -- --- ------- --<br>------- ---------- ------ -- ----- -- ----- -- ---- ------<br>--- ----- --- --- ------ -------- ----- --- ------ ----- --<br>----- ----- ---------- --- --- market ------ ---- -- ------<br>------- --- ------ ----- --- ---- ------- -- ---- --- --<br>------- ------,202225.60000002384,202225.10000002384,201759.036,201761.69999998808,201774.793,202240.351,,38,market
screen,html.Screen,2_1_1_1_39,2022-05-02T10:58:51.829Z,,,,,,,,,,,,,,,,,54,,,,,,,,,,,,,,371.34899998808396,,response,,,,100,,,,,,,Space,keypress(Space),,,,,,,,-- --- ---- --- ------ ----- ------- ---- -- --- ------- --<br>------- ---------- ------ -- ----- -- ----- -- ---- ------<br>--- ----- --- --- ------ -------- ----- --- ------ ----- --<br>----- ----- ---------- --- --- ------ became ---- -- ------<br>------- --- ------ ----- --- ---- ------- -- ---- --- --<br>------- ------,202612.60000002384,202611.69999998808,202224.535,202225.69999998808,202240.351,202622.895,,39,became
screen,html.Screen,2_1_1_1_40,2022-05-02T10:58:52.186Z,,,,,,,,,,,,,,,,,54,,,,,,,,,,,,,,346.00500003577326,,response,,,,100,,,,,,,Space,keypress(Space),,,,,,,,-- --- ---- --- ------ ----- ------- ---- -- --- ------- --<br>------- ---------- ------ -- ----- -- ----- -- ---- ------<br>--- ----- --- --- ------ -------- ----- --- ------ ----- --<br>----- ----- ---------- --- --- ------ ------ wary -- ------<br>------- --- ------ ----- --- ---- ------- -- ---- --- --<br>------- ------,202969.30000001192,202968.90000003576,202606.628,202612.69999998808,202622.895,202971.506,,40,wary
screen,html.Screen,2_1_1_1_41,2022-05-02T10:58:52.587Z,,,,,,,,,,,,,,,,,54,,,,,,,,,,,,,,398.6939999880851,,response,,,,100,,,,,,,Space,keypress(Space),,,,,,,,-- --- ---- --- ------ ----- ------- ---- -- --- ------- --<br>------- ---------- ------ -- ----- -- ----- -- ---- ------<br>--- ----- --- --- ------ -------- ----- --- ------ ----- --<br>----- ----- ---------- --- --- ------ ------ ---- of ------<br>------- --- ------ ----- --- ---- ------- -- ---- --- --<br>------- ------,203370.69999998808,203370.19999998808,202956.187,202969.40000003576,202971.506,203387.144,,41,of
screen,html.Screen,2_1_1_1_42,2022-05-02T10:58:53.036Z,,,,,,,,,,,,,,,,,54,,,,,,,,,,,,,,431.85599999999977,,response,,,,100,,,,,,,Space,keypress(Space),,,,,,,,-- --- ---- --- ------ ----- ------- ---- -- --- ------- --<br>------- ---------- ------ -- ----- -- ----- -- ---- ------<br>--- ----- --- --- ------ -------- ----- --- ------ ----- --<br>----- ----- ---------- --- --- ------ ------ ---- -- French<br>------- --- ------ ----- --- ---- ------- -- ---- --- --<br>------- ------,203819.60000002384,203819,203355.18,203370.80000001192,203387.144,203836.525,,42,French
screen,html.Screen,2_1_1_1_43,2022-05-02T10:58:54.821Z,,,,,,,,,,,,,,,,,54,,,,,,,,,,,,,,1767.9750000000058,,response,,,,100,,,,,,,Space,keypress(Space),,,,,,,,-- --- ---- --- ------ ----- ------- ---- -- --- ------- --<br>------- ---------- ------ -- ----- -- ----- -- ---- ------<br>--- ----- --- --- ------ -------- ----- --- ------ ----- --<br>----- ----- ---------- --- --- ------ ------ ---- -- ------<br>credit. --- ------ ----- --- ---- ------- -- ---- --- --<br>------- ------,205605,205604.5,203803.902,203819.69999998808,203836.525,205614.261,,43,credit.
screen,html.Screen,2_1_1_1_44,2022-05-02T10:58:55.229Z,,,,,,,,,,,,,,,,,54,,,,,,,,,,,,,,397.33900002384325,,response,,,,100,,,,,,,Space,keypress(Space),,,,,,,,-- --- ---- --- ------ ----- ------- ---- -- --- ------- --<br>------- ---------- ------ -- ----- -- ----- -- ---- ------<br>--- ----- --- --- ------ -------- ----- --- ------ ----- --<br>----- ----- ---------- --- --- ------ ------ ---- -- ------<br>------- The ------ ----- --- ---- ------- -- ---- --- --<br>------- ------,206012.19999998808,206011.60000002384,205602.271,205605.10000002384,205614.261,206033.789,,44,The
screen,html.Screen,2_1_1_1_45,2022-05-02T10:58:55.949Z,,,,,,,,,,,,,,,,,54,,,,,,,,,,,,,,698.4109999880893,,response,,,,100,,,,,,,Space,keypress(Space),,,,,,,,-- --- ---- --- ------ ----- ------- ---- -- --- ------- --<br>------- ---------- ------ -- ----- -- ----- -- ---- ------<br>--- ----- --- --- ------ -------- ----- --- ------ ----- --<br>----- ----- ---------- --- --- ------ ------ ---- -- ------<br>------- --- French ----- --- ---- ------- -- ---- --- --<br>------- ------,206732.69999998808,206732.19999998808,205997.339,206012.30000001192,206033.789,206744.699,,45,French
screen,html.Screen,2_1_1_1_46,2022-05-02T10:58:56.351Z,,,,,,,,,,,,,,,,,54,,,,,,,,,,,,,,389.20100003576954,,response,,,,100,,,,,,,Space,keypress(Space),,,,,,,,-- --- ---- --- ------ ----- ------- ---- -- --- ------- --<br>------- ---------- ------ -- ----- -- ----- -- ---- ------<br>--- ----- --- --- ------ -------- ----- --- ------ ----- --<br>----- ----- ---------- --- --- ------ ------ ---- -- ------<br>------- --- ------ state --- ---- ------- -- ---- --- --<br>------- ------,207134.69999998808,207133.90000003576,206728.213,206732.90000003576,206744.699,207143.886,,46,state
screen,html.Screen,2_1_1_1_47,2022-05-02T10:58:56.732Z,,,,,,,,,,,,,,,,,54,,,,,,,,,,,,,,370.9140000119223,,response,,,,100,,,,,,,Space,keypress(Space),,,,,,,,-- --- ---- --- ------ ----- ------- ---- -- --- ------- --<br>------- ---------- ------ -- ----- -- ----- -- ---- ------<br>--- ----- --- --- ------ -------- ----- --- ------ ----- --<br>----- ----- ---------- --- --- ------ ------ ---- -- ------<br>------- --- ------ ----- was ---- ------- -- ---- --- --<br>------- ------,207515.40000003576,207514.80000001192,207127.749,207134.80000001192,207143.886,207526.214,,47,was
screen,html.Screen,2_1_1_1_48,2022-05-02T10:58:57.160Z,,,,,,,,,,,,,,,,,54,,,,,,,,,,,,,,416.38600002383464,,response,,,,100,,,,,,,Space,keypress(Space),,,,,,,,-- --- ---- --- ------ ----- ------- ---- -- --- ------- --<br>------- ---------- ------ -- ----- -- ----- -- ---- ------<br>--- ----- --- --- ------ -------- ----- --- ------ ----- --<br>----- ----- ---------- --- --- ------ ------ ---- -- ------<br>------- --- ------ ----- --- left ------- -- ---- --- --<br>------- ------,207943.19999998808,207942.60000002384,207510.691,207515.5,207526.214,207957.917,,48,left
screen,html.Screen,2_1_1_1_49,2022-05-02T10:58:57.538Z,,,,,,,,,,,,,,,,,54,,,,,,,,,,,,,,362.98300003577606,,response,,,,100,,,,,,,Space,keypress(Space),,,,,,,,-- --- ---- --- ------ ----- ------- ---- -- --- ------- --<br>------- ---------- ------ -- ----- -- ----- -- ---- ------<br>--- ----- --- --- ------ -------- ----- --- ------ ----- --<br>----- ----- ---------- --- --- ------ ------ ---- -- ------<br>------- --- ------ ----- --- ---- without -- ---- --- --<br>------- ------,208321.5,208320.90000003576,207942.121,207943.30000001192,207957.917,208323.482,,49,without
screen,html.Screen,2_1_1_1_50,2022-05-02T10:58:57.843Z,,,,,,,,,,,,,,,,,54,,,,,,,,,,,,,,302.71799998809,,response,,,,100,,,,,,,Space,keypress(Space),,,,,,,,-- --- ---- --- ------ ----- ------- ---- -- --- ------- --<br>------- ---------- ------ -- ----- -- ----- -- ---- ------<br>--- ----- --- --- ------ -------- ----- --- ------ ----- --<br>----- ----- ---------- --- --- ------ ------ ---- -- ------<br>------- --- ------ ----- --- ---- ------- an ---- --- --<br>------- ------,208626.60000002384,208626.19999998808,208308.2,208321.69999998808,208323.482,208639.27,,50,an
screen,html.Screen,2_1_1_1_51,2022-05-02T10:58:58.200Z,,,,,,,,,,,,,,,,,54,,,,,,,,,,,,,,344.13000003577326,,response,,,,100,,,,,,,Space,keypress(Space),,,,,,,,-- --- ---- --- ------ ----- ------- ---- -- --- ------- --<br>------- ---------- ------ -- ----- -- ----- -- ---- ------<br>--- ----- --- --- ------ -------- ----- --- ------ ----- --<br>----- ----- ---------- --- --- ------ ------ ---- -- ------<br>------- --- ------ ----- --- ---- ------- -- easy --- --<br>------- ------,208984.10000002384,208983.40000003576,208623.861,208626.69999998808,208639.27,208988.366,,51,easy
screen,html.Screen,2_1_1_1_52,2022-05-02T10:58:58.462Z,,,,,,,,,,,,,,,,,54,,,,,,,,,,,,,,256.7340000238328,,response,,,,100,,,,,,,Space,keypress(Space),,,,,,,,-- --- ---- --- ------ ----- ------- ---- -- --- ------- --<br>------- ---------- ------ -- ----- -- ----- -- ---- ------<br>--- ----- --- --- ------ -------- ----- --- ------ ----- --<br>----- ----- ---------- --- --- ------ ------ ---- -- ------<br>------- --- ------ ----- --- ---- ------- -- ---- way --<br>------- ------,209245.69999998808,209245.10000002384,208973.005,208984.19999998808,208988.366,209254.473,,52,way
screen,html.Screen,2_1_1_1_53,2022-05-02T10:58:58.782Z,,,,,,,,,,,,,,,,,54,,,,,,,,,,,,,,310.02700000000186,,response,,,,100,,,,,,,Space,keypress(Space),,,,,,,,-- --- ---- --- ------ ----- ------- ---- -- --- ------- --<br>------- ---------- ------ -- ----- -- ----- -- ---- ------<br>--- ----- --- --- ------ -------- ----- --- ------ ----- --<br>----- ----- ---------- --- --- ------ ------ ---- -- ------<br>------- --- ------ ----- --- ---- ------- -- ---- --- of<br>------- ------,209565.19999998808,209564.5,209238.689,209245.90000003576,209254.473,209570.047,,53,of
screen,html.Screen,2_1_1_1_54,2022-05-02T10:58:59.168Z,,,,,,,,,,,,,,,,,54,,,,,,,,,,,,,,381.5530000238505,,response,,,,100,,,,,,,Space,keypress(Space),,,,,,,,-- --- ---- --- ------ ----- ------- ---- -- --- ------- --<br>------- ---------- ------ -- ----- -- ----- -- ---- ------<br>--- ----- --- --- ------ -------- ----- --- ------ ----- --<br>----- ----- ---------- --- --- ------ ------ ---- -- ------<br>------- --- ------ ----- --- ---- ------- -- ---- --- --<br>raising ------,209952,209951.60000002384,209554.087,209565.30000001192,209570.047,209969.088,,54,raising
screen,html.Screen,2_1_1_1_55,2022-05-02T10:58:59.670Z,,,,,,,,,,,,,,,,,54,,,,,,,,,,,,,,484.11199998809025,,response,,,,100,,,,,,,Space,keypress(Space),,,,,,,,-- --- ---- --- ------ ----- ------- ---- -- --- ------- --<br>------- ---------- ------ -- ----- -- ----- -- ---- ------<br>--- ----- --- --- ------ -------- ----- --- ------ ----- --<br>----- ----- ---------- --- --- ------ ------ ---- -- ------<br>------- --- ------ ----- --- ---- ------- -- ---- --- --<br>------- money.,210453.60000002384,210453.19999998808,209936.552,209952.19999998808,209969.088,210467.606,,55,money.
Item 100,flow.Loop,2_1_1_1,2022-05-02T10:58:59.670Z,,,,,,,,,,,,,,,,,,,,,,,,,,,,,,,34840.10899998809,,completion,,,,,E,,,,,,,,,,,silence,,,,,210453.80000001192,210453.19999998808,175597.07,175597.80000001192,175613.091,210467.606,,,
Question 1,html.Screen,2_1_1_2,2022-05-02T10:59:02.624Z,,,,,,,,,,,,,,,,,,,,,,,,,,,,true,TRUE,,2938.494000023842,,response,,,,100,E,,,,,,TRUE,click #choice-1,,,,silence,,,,,213407.60000002384,213406.10000002384,210453.345,210453.80000001192,210467.606,213409.567,,,
Question 2,html.Screen,2_1_1_3,2022-05-02T10:59:07.096Z,,,,,,,,,,,,,,,,,,,,,,,,,,,,true,FALSE,,4468.733000011911,,response,,,,100,E,,,,,,FALSE,click #choice-2,,,,silence,,,,,217879.19999998808,217878.30000001192,213393.375,213407.80000001192,213409.567,217880.655,,,
Item 100,flow.Sequence,2_1_1,2022-05-02T10:59:07.096Z,,,,,,,,,,,,,,,,,,,,,,,,,,,,,,,52271.161000011925,,completion,,,,,,,,,,,,,,,,,,,,,217879.30000001192,217878.30000001192,165591.065,165597.60000002384,165607.139,217880.655,,,
End of Practice,html.Page,2_1_2,2022-05-02T10:59:10.808Z,,,,,,,,,,,,,,,,,,,,,,,,,,,,,,,3710.345000000001,,form submission,,,,,,,,,,,,,,,,,,,,,221591.10000002384,221591,217864.963,217879.40000003576,217880.655,221604.029,,,
Practice,flow.Sequence,2_1,2022-05-02T10:59:10.808Z,,,,,,,,,,,,,,,,,,,,,,,,,,,,,,,112362.664,,completion,,,,,,,,,,,,,,,,,,,,,221591.30000001192,221591,109212.144,109217.80000001192,109228.336,221604.029,,,
Trap_instruction,html.Page,2_2_0,2022-05-02T10:59:17.086Z,,,,,,,,,,,,,,,,,,,,,,,,,,,,,,,6264.97099999999,,form submission,,,,,,,,,,,,,,,,,,,,,227869.30000001192,227869,221587.706,221591.40000003576,221604.029,227886.572,,,
trap_trial,html.Screen,2_2_1,2022-05-02T10:59:21.030Z,,,,,,,,,,,,,,,,,,,,,,,,,,,,true,1,,3926.4280000000144,,response,,,,,,,,,,,1,click #choice-1,,,,,,,,,231814,231813,227853.807,227869.40000003576,227886.572,231825.725,,,
end of trap trial,html.Page,2_2_2,2022-05-02T10:59:23.810Z,,,,,,,,,,,,,,,,,,,,,,,,,,,,,,,2767.274999999994,,form submission,,,,,,,,,,,,,,,,,,,,,234593.40000003576,234593,231809.576,231814.19999998808,231825.725,234601.462,,,
Trap 1,flow.Sequence,2_2,2022-05-02T10:59:23.810Z,,,,,,,,,,,,,,,,,,,,,,,,,,,,,,,12988.97099999999,,completion,,,,,,,,,,,,,,,,,,,,,234593.5,234593,221587.706,221591.40000003576,221604.029,234601.462,,,
Standby,html.Page,2_3_0,2022-05-02T10:59:31.797Z,,,,,,,,,,,,,,,,,,,,,,,,,,,,,,,7994.804000000004,,timeout,,,,,,,,,,,,,,,,,,,,,242580.30000001192,242579.748,234585.37,234593.60000002384,234601.462,242596.266,,,
Holding screen,html.Screen,2_3_1_0_0,2022-05-02T10:59:38.795Z,,,,,,,,,,,,,,,,,,,,,,,,,,,,,,,6997.620999999985,,timeout,,,,,,,,,,,,,,,,,,,,,249578.69999998808,249577.184,242579.748,242580.5,242596.266,249593.887,,,
screen,html.Screen,2_3_1_0_1_0,2022-05-02T10:59:40.133Z,,,,,,,,,,,,,,,,,12,,,,,,,,,,,,,,1322.213000023854,,response,,,,5,E,,,,,,Space,keypress(Space),,,,silence,,,,Some ------ ------ ------- ------ --- ------- -----------<br>-- ----- --- ---- -- --- ------ ---- - ---- -- ----------<br>-- ------ ---- --- ---- --- --- --- ----- -- -------- ---<br>------ ------- -------- --- ---- -- ------- ------------ --<br>------ -- ---- -- --- ---- -- -------- -- --- ------ ------,250917,250916.10000002384,249577.184,249578.80000001192,249593.887,250923.497,,0,Some
screen,html.Screen,2_3_1_0_1_1,2022-05-02T10:59:40.554Z,,,,,,,,,,,,,,,,,12,,,,,,,,,,,,,,413.3030000119179,,response,,,,5,E,,,,,,Space,keypress(Space),,,,silence,,,,---- months ------ ------- ------ --- ------- -----------<br>-- ----- --- ---- -- --- ------ ---- - ---- -- ----------<br>-- ------ ---- --- ---- --- --- --- ----- -- -------- ---<br>------ ------- -------- --- ---- -- ------- ------------ --<br>------ -- ---- -- --- ---- -- -------- -- --- ------ ------,251337.60000002384,251336.80000001192,250909.9,250917.10000002384,250923.497,251371.615,,1,months
screen,html.Screen,2_3_1_0_1_2,2022-05-02T10:59:41.613Z,,,,,,,,,,,,,,,,,12,,,,,,,,,,,,,,1024.5849999880884,,response,,,,5,E,,,,,,Space,keypress(Space),,,,silence,,,,"---- ------ later, ------- ------ --- ------- -----------<br>-- ----- --- ---- -- --- ------ ---- - ---- -- ----------<br>-- ------ ---- --- ---- --- --- --- ----- -- -------- ---<br>------ ------- -------- --- ---- -- ------- ------------ --<br>------ -- ---- -- --- ---- -- -------- -- --- ------ ------",252396.90000003576,252396.19999998808,251323.818,251337.69999998808,251371.615,252403.183,,2,"later,"
screen,html.Screen,2_3_1_0_1_3,2022-05-02T10:59:42.016Z,,,,,,,,,,,,,,,,,12,,,,,,,,,,,,,,395.31700000001,,response,,,,5,E,,,,,,Space,keypress(Space),,,,silence,,,,---- ------ ------ Michael ------ --- ------- -----------<br>-- ----- --- ---- -- --- ------ ---- - ---- -- ----------<br>-- ------ ---- --- ---- --- --- --- ----- -- -------- ---<br>------ ------- -------- --- ---- -- ------- ------------ --<br>------ -- ---- -- --- ---- -- -------- -- --- ------ ------,252799.30000001192,252798.5,252389.089,252397,252403.183,252801.654,,3,Michael
screen,html.Screen,2_3_1_0_1_4,2022-05-02T10:59:42.432Z,,,,,,,,,,,,,,,,,12,,,,,,,,,,,,,,412.6460000119114,,response,,,,5,E,,,,,,Space,keypress(Space),,,,silence,,,,---- ------ ------ ------- Larson --- ------- -----------<br>-- ----- --- ---- -- --- ------ ---- - ---- -- ----------<br>-- ------ ---- --- ---- --- --- --- ----- -- -------- ---<br>------ ------- -------- --- ---- -- ------- ------------ --<br>------ -- ---- -- --- ---- -- -------- -- --- ------ ------,253215.19999998808,253214.30000001192,252786.443,252799.40000003576,252801.654,253217.195,,4,Larson
screen,html.Screen,2_3_1_0_1_5,2022-05-02T10:59:42.883Z,,,,,,,,,,,,,,,,,12,,,,,,,,,,,,,,448.4050000238349,,response,,,,5,E,,,,,,Space,keypress(Space),,,,silence,,,,---- ------ ------ ------- ------ saw ------- -----------<br>-- ----- --- ---- -- --- ------ ---- - ---- -- ----------<br>-- ------ ---- --- ---- --- --- --- ----- -- -------- ---<br>------ ------- -------- --- ---- -- ------- ------------ --<br>------ -- ---- -- --- ---- -- -------- -- --- ------ ------,253666.30000001192,253665.60000002384,253202.111,253215.40000003576,253217.195,253683.347,,5,saw
screen,html.Screen,2_3_1_0_1_6,2022-05-02T10:59:43.359Z,,,,,,,,,,,,,,,,,12,,,,,,,,,,,,,,458.3529999880702,,response,,,,5,E,,,,,,Space,keypress(Space),,,,silence,,,,---- ------ ------ ------- ------ --- another -----------<br>-- ----- --- ---- -- --- ------ ---- - ---- -- ----------<br>-- ------ ---- --- ---- --- --- --- ----- -- -------- ---<br>------ ------- -------- --- ---- -- ------- ------------ --<br>------ -- ---- -- --- ---- -- -------- -- --- ------ ------,254142.19999998808,254141.69999998808,253650.779,253666.40000003576,253683.347,254147.928,,6,another
screen,html.Screen,2_3_1_0_1_7,2022-05-02T10:59:43.886Z,,,,,,,,,,,,,,,,,12,,,,,,,,,,,,,,520.8720000119065,,response,,,,5,E,,,,,,Space,keypress(Space),,,,silence,,,,---- ------ ------ ------- ------ --- ------- opportunity<br>-- ----- --- ---- -- --- ------ ---- - ---- -- ----------<br>-- ------ ---- --- ---- --- --- --- ----- -- -------- ---<br>------ ------- -------- --- ---- -- ------- ------------ --<br>------ -- ---- -- --- ---- -- -------- -- --- ------ ------,254669.30000001192,254668.80000001192,254132.454,254142.5,254147.928,254679.847,,7,opportunity
screen,html.Screen,2_3_1_0_1_8,2022-05-02T10:59:44.398Z,,,,,,,,,,,,,,,,,12,,,,,,,,,,,,,,501.253000023833,,response,,,,5,E,,,,,,Space,keypress(Space),,,,silence,,,,---- ------ ------ ------- ------ --- ------- -----------<br>to ----- --- ---- -- --- ------ ---- - ---- -- ----------<br>-- ------ ---- --- ---- --- --- --- ----- -- -------- ---<br>------ ------- -------- --- ---- -- ------- ------------ --<br>------ -- ---- -- --- ---- -- -------- -- --- ------ ------,255181.5,255181.10000002384,254664.613,254669.40000003576,254679.847,255195.592,,8,to
screen,html.Screen,2_3_1_0_1_9,2022-05-02T10:59:44.773Z,,,,,,,,,,,,,,,,,12,,,,,,,,,,,,,,360.6079999880749,,response,,,,5,E,,,,,,Space,keypress(Space),,,,silence,,,,---- ------ ------ ------- ------ --- ------- -----------<br>-- stack --- ---- -- --- ------ ---- - ---- -- ----------<br>-- ------ ---- --- ---- --- --- --- ----- -- -------- ---<br>------ ------- -------- --- ---- -- ------- ------------ --<br>------ -- ---- -- --- ---- -- -------- -- --- ------ ------,255556.90000003576,255556.19999998808,255179.612,255181.60000002384,255195.592,255560.738,,9,stack
screen,html.Screen,2_3_1_0_1_10,2022-05-02T10:59:45.275Z,,,,,,,,,,,,,,,,,12,,,,,,,,,,,,,,497.36200002382975,,response,,,,5,E,,,,,,Space,keypress(Space),,,,silence,,,,---- ------ ------ ------- ------ --- ------- -----------<br>-- ----- the ---- -- --- ------ ---- - ---- -- ----------<br>-- ------ ---- --- ---- --- --- --- ----- -- -------- ---<br>------ ------- -------- --- ---- -- ------- ------------ --<br>------ -- ---- -- --- ---- -- -------- -- --- ------ ------,256058.80000001192,256058.10000002384,255545.062,255557,255560.738,256088.885,,10,the
screen,html.Screen,2_3_1_0_1_11,2022-05-02T10:59:45.679Z,,,,,,,,,,,,,,,,,12,,,,,,,,,,,,,,372.81499998806976,,response,,,,5,E,,,,,,Space,keypress(Space),,,,silence,,,,---- ------ ------ ------- ------ --- ------- -----------<br>-- ----- --- odds -- --- ------ ---- - ---- -- ----------<br>-- ------ ---- --- ---- --- --- --- ----- -- -------- ---<br>------ ------- -------- --- ---- -- ------- ------------ --<br>------ -- ---- -- --- ---- -- -------- -- --- ------ ------,256462.5,256461.69999998808,256043.963,256059,256088.885,256475.237,,11,odds
screen,html.Screen,2_3_1_0_1_12,2022-05-02T10:59:46.064Z,,,,,,,,,,,,,,,,,12,,,,,,,,,,,,,,372.0630000119272,,response,,,,5,E,,,,,,Space,keypress(Space),,,,silence,,,,---- ------ ------ ------- ------ --- ------- -----------<br>-- ----- --- ---- in --- ------ ---- - ---- -- ----------<br>-- ------ ---- --- ---- --- --- --- ----- -- -------- ---<br>------ ------- -------- --- ---- -- ------- ------------ --<br>------ -- ---- -- --- ---- -- -------- -- --- ------ ------,256847.69999998808,256847.30000001192,256459.163,256462.69999998808,256475.237,256857.238,,12,in
screen,html.Screen,2_3_1_0_1_13,2022-05-02T10:59:46.443Z,,,,,,,,,,,,,,,,,12,,,,,,,,,,,,,,368.46199998806696,,response,,,,5,E,,,,,,Space,keypress(Space),,,,silence,,,,---- ------ ------ ------- ------ --- ------- -----------<br>-- ----- --- ---- -- his ------ ---- - ---- -- ----------<br>-- ------ ---- --- ---- --- --- --- ----- -- -------- ---<br>------ ------- -------- --- ---- -- ------- ------------ --<br>------ -- ---- -- --- ---- -- -------- -- --- ------ ------,257226.10000002384,257225.69999998808,256841.496,256847.90000003576,256857.238,257239.547,,13,his
screen,html.Screen,2_3_1_0_1_14,2022-05-02T10:59:48.038Z,,,,,,,,,,,,,,,,,12,,,,,,,,,,,,,,1581.7530000119295,,response,,,,5,E,,,,,,Space,keypress(Space),,,,silence,,,,---- ------ ------ ------- ------ --- ------- -----------<br>-- ----- --- ---- -- --- favour ---- - ---- -- ----------<br>-- ------ ---- --- ---- --- --- --- ----- -- -------- ---<br>------ ------- -------- --- ---- -- ------- ------------ --<br>------ -- ---- -- --- ---- -- -------- -- --- ------ ------,258821.90000003576,258821.30000001192,257223.729,257226.10000002384,257239.547,258835.091,,14,favour
screen,html.Screen,2_3_1_0_1_15,2022-05-02T10:59:48.513Z,,,,,,,,,,,,,,,,,12,,,,,,,,,,,,,,460.9090000000142,,response,,,,5,E,,,,,,Space,keypress(Space),,,,silence,,,,---- ------ ------ ------- ------ --- ------- -----------<br>-- ----- --- ---- -- --- ------ with - ---- -- ----------<br>-- ------ ---- --- ---- --- --- --- ----- -- -------- ---<br>------ ------- -------- --- ---- -- ------- ------------ --<br>------ -- ---- -- --- ---- -- -------- -- --- ------ ------,259296.69999998808,259296,258806.098,258822,258835.091,259300.516,,15,with
screen,html.Screen,2_3_1_0_1_16,2022-05-02T10:59:48.851Z,,,,,,,,,,,,,,,,,12,,,,,,,,,,,,,,333.5840000238386,,response,,,,5,E,,,,,,Space,keypress(Space),,,,silence,,,,---- ------ ------ ------- ------ --- ------- -----------<br>-- ----- --- ---- -- --- ------ ---- a ---- -- ----------<br>-- ------ ---- --- ---- --- --- --- ----- -- -------- ---<br>------ ------- -------- --- ---- -- ------- ------------ --<br>------ -- ---- -- --- ---- -- -------- -- --- ------ ------,259634.5,259634.10000002384,259284.974,259296.90000003576,259300.516,259649.519,,16,a
screen,html.Screen,2_3_1_0_1_17,2022-05-02T10:59:49.239Z,,,,,,,,,,,,,,,,,12,,,,,,,,,,,,,,372.38100003576255,,response,,,,5,E,,,,,,Space,keypress(Space),,,,silence,,,,---- ------ ------ ------- ------ --- ------- -----------<br>-- ----- --- ---- -- --- ------ ---- - dash -- ----------<br>-- ------ ---- --- ---- --- --- --- ----- -- -------- ---<br>------ ------- -------- --- ---- -- ------- ------------ --<br>------ -- ---- -- --- ---- -- -------- -- --- ------ ------,260022.19999998808,260021.90000003576,259633.681,259634.60000002384,259649.519,260032.311,,17,dash
screen,html.Screen,2_3_1_0_1_18,2022-05-02T10:59:49.637Z,,,,,,,,,,,,,,,,,12,,,,,,,,,,,,,,387.98900001193397,,response,,,,5,E,,,,,,Space,keypress(Space),,,,silence,,,,---- ------ ------ ------- ------ --- ------- -----------<br>-- ----- --- ---- -- --- ------ ---- - ---- of ----------<br>-- ------ ---- --- ---- --- --- --- ----- -- -------- ---<br>------ ------- -------- --- ---- -- ------- ------------ --<br>------ -- ---- -- --- ---- -- -------- -- --- ------ ------,260420.80000001192,260420.30000001192,260016.022,260022.30000001192,260032.311,260430.796,,18,of
screen,html.Screen,2_3_1_0_1_19,2022-05-02T10:59:51.397Z,,,,,,,,,,,,,,,,,12,,,,,,,,,,,,,,1749.703999999998,,response,,,,5,E,,,,,,Space,keypress(Space),,,,silence,,,,---- ------ ------ ------- ------ --- ------- -----------<br>-- ----- --- ---- -- --- ------ ---- - ---- -- ingenuity.<br>-- ------ ---- --- ---- --- --- --- ----- -- -------- ---<br>------ ------- -------- --- ---- -- ------- ------------ --<br>------ -- ---- -- --- ---- -- -------- -- --- ------ ------,262181.10000002384,262180.5,260415.831,260420.90000003576,260430.796,262192.583,,19,ingenuity.
screen,html.Screen,2_3_1_0_1_20,2022-05-02T10:59:52.199Z,,,,,,,,,,,,,,,,,12,,,,,,,,,,,,,,789.6169999880949,,response,,,,5,E,,,,,,Space,keypress(Space),,,,silence,,,,---- ------ ------ ------- ------ --- ------- -----------<br>-- ----- --- ---- -- --- ------ ---- - ---- -- ----------<br>He ------ ---- --- ---- --- --- --- ----- -- -------- ---<br>------ ------- -------- --- ---- -- ------- ------------ --<br>------ -- ---- -- --- ---- -- -------- -- --- ------ ------,262982.6999999881,262982.1999999881,262180.11,262181.1999999881,262192.583,262990.829,,20,He
screen,html.Screen,2_3_1_0_1_21,2022-05-02T10:59:52.916Z,,,,,,,,,,,,,,,,,12,,,,,,,,,,,,,,707.5710000357358,,response,,,,5,E,,,,,,Space,keypress(Space),,,,silence,,,,---- ------ ------ ------- ------ --- ------- -----------<br>-- ----- --- ---- -- --- ------ ---- - ---- -- ----------<br>-- walked ---- --- ---- --- --- --- ----- -- -------- ---<br>------ ------- -------- --- ---- -- ------- ------------ --<br>------ -- ---- -- --- ---- -- -------- -- --- ------ ------,263699.10000002384,263698.40000003576,262975.654,262982.8000000119,262990.829,263705.073,,21,walked
screen,html.Screen,2_3_1_0_1_22,2022-05-02T10:59:53.844Z,,,,,,,,,,,,,,,,,12,,,,,,,,,,,,,,921.7270000119461,,response,,,,5,E,,,,,,Space,keypress(Space),,,,silence,,,,---- ------ ------ ------- ------ --- ------- -----------<br>-- ----- --- ---- -- --- ------ ---- - ---- -- ----------<br>-- ------ into --- ---- --- --- --- ----- -- -------- ---<br>------ ------- -------- --- ---- -- ------- ------------ --<br>------ -- ---- -- --- ---- -- -------- -- --- ------ ------,264627.40000003576,264626.8000000119,263690.102,263699.3000000119,263705.073,264635.962,,22,into
screen,html.Screen,2_3_1_0_1_23,2022-05-02T10:59:54.274Z,,,,,,,,,,,,,,,,,12,,,,,,,,,,,,,,421.23799998807954,,response,,,,5,E,,,,,,Space,keypress(Space),,,,silence,,,,---- ------ ------ ------- ------ --- ------- -----------<br>-- ----- --- ---- -- --- ------ ---- - ---- -- ----------<br>-- ------ ---- his ---- --- --- --- ----- -- -------- ---<br>------ ------- -------- --- ---- -- ------- ------------ --<br>------ -- ---- -- --- ---- -- -------- -- --- ------ ------,265057.8000000119,265057.1999999881,264621.364,264627.40000003576,264635.962,265068.154,,23,his
screen,html.Screen,2_3_1_0_1_24,2022-05-02T10:59:55.125Z,,,,,,,,,,,,,,,,,12,,,,,,,,,,,,,,839.4460000238614,,response,,,,5,E,,,,,,Space,keypress(Space),,,,silence,,,,---- ------ ------ ------- ------ --- ------- -----------<br>-- ----- --- ---- -- --- ------ ---- - ---- -- ----------<br>-- ------ ---- --- bank --- --- --- ----- -- -------- ---<br>------ ------- -------- --- ---- -- ------- ------------ --<br>------ -- ---- -- --- ---- -- -------- -- --- ------ ------,265908.40000003576,265907.60000002384,265052.333,265057.90000003576,265068.154,265916.287,,24,bank
screen,html.Screen,2_3_1_0_1_25,2022-05-02T10:59:55.595Z,,,,,,,,,,,,,,,,,12,,,,,,,,,,,,,,461.7129999999888,,response,,,,5,E,,,,,,Space,keypress(Space),,,,silence,,,,---- ------ ------ ------- ------ --- ------- -----------<br>-- ----- --- ---- -- --- ------ ---- - ---- -- ----------<br>-- ------ ---- --- ---- one --- --- ----- -- -------- ---<br>------ ------- -------- --- ---- -- ------- ------------ --<br>------ -- ---- -- --- ---- -- -------- -- --- ------ ------,266378.6999999881,266378,265901.334,265908.5,265916.287,266381.098,,25,one
screen,html.Screen,2_3_1_0_1_26,2022-05-02T10:59:56.494Z,,,,,,,,,,,,,,,,,12,,,,,,,,,,,,,,896.0020000238437,,response,,,,5,E,,,,,,Space,keypress(Space),,,,silence,,,,---- ------ ------ ------- ------ --- ------- -----------<br>-- ----- --- ---- -- --- ------ ---- - ---- -- ----------<br>-- ------ ---- --- ---- --- day --- ----- -- -------- ---<br>------ ------- -------- --- ---- -- ------- ------------ --<br>------ -- ---- -- --- ---- -- -------- -- --- ------ ------,267277.6999999881,267277.10000002384,266365.524,266378.8000000119,266381.098,267306.136,,26,day
screen,html.Screen,2_3_1_0_1_27,2022-05-02T10:59:56.846Z,,,,,,,,,,,,,,,,,12,,,,,,,,,,,,,,323.1640000119223,,response,,,,5,E,,,,,,Space,keypress(Space),,,,silence,,,,---- ------ ------ ------- ------ --- ------- -----------<br>-- ----- --- ---- -- --- ------ ---- - ---- -- ----------<br>-- ------ ---- --- ---- --- --- and ----- -- -------- ---<br>------ ------- -------- --- ---- -- ------- ------------ --<br>------ -- ---- -- --- ---- -- -------- -- --- ------ ------,267630,267629.3000000119,267264.717,267277.8000000119,267306.136,267644.61,,27,and
screen,html.Screen,2_3_1_0_1_28,2022-05-02T10:59:57.570Z,,,,,,,,,,,,,,,,,12,,,,,,,,,,,,,,708.890000000014,,response,,,,5,E,,,,,,Space,keypress(Space),,,,silence,,,,---- ------ ------ ------- ------ --- ------- -----------<br>-- ----- --- ---- -- --- ------ ---- - ---- -- ----------<br>-- ------ ---- --- ---- --- --- --- asked -- -------- ---<br>------ ------- -------- --- ---- -- ------- ------------ --<br>------ -- ---- -- --- ---- -- -------- -- --- ------ ------,268354.10000002384,268353.5,267629.054,267630.10000002384,267644.61,268359.097,,28,asked
screen,html.Screen,2_3_1_0_1_29,2022-05-02T10:59:57.941Z,,,,,,,,,,,,,,,,,12,,,,,,,,,,,,,,365.2030000119121,,response,,,,5,E,,,,,,Space,keypress(Space),,,,silence,,,,---- ------ ------ ------- ------ --- ------- -----------<br>-- ----- --- ---- -- --- ------ ---- - ---- -- ----------<br>-- ------ ---- --- ---- --- --- --- ----- to -------- ---<br>------ ------- -------- --- ---- -- ------- ------------ --<br>------ -- ---- -- --- ---- -- -------- -- --- ------ ------,268725,268724.3000000119,268344.047,268354.10000002384,268359.097,268741.817,,29,to
screen,html.Screen,2_3_1_0_1_30,2022-05-02T10:59:58.299Z,,,,,,,,,,,,,,,,,12,,,,,,,,,,,,,,340.48300001194,,response,,,,5,E,,,,,,Space,keypress(Space),,,,silence,,,,---- ------ ------ ------- ------ --- ------- -----------<br>-- ----- --- ---- -- --- ------ ---- - ---- -- ----------<br>-- ------ ---- --- ---- --- --- --- ----- -- withdraw ---<br>------ ------- -------- --- ---- -- ------- ------------ --<br>------ -- ---- -- --- ---- -- -------- -- --- ------ ------,269082.8000000119,269082.3000000119,268708.89,268725.1999999881,268741.817,269090.372,,30,withdraw
screen,html.Screen,2_3_1_0_1_31,2022-05-02T10:59:58.727Z,,,,,,,,,,,,,,,,,12,,,,,,,,,,,,,,419.428000011947,,response,,,,5,E,,,,,,Space,keypress(Space),,,,silence,,,,---- ------ ------ ------- ------ --- ------- -----------<br>-- ----- --- ---- -- --- ------ ---- - ---- -- ----------<br>-- ------ ---- --- ---- --- --- --- ----- -- -------- his<br>------ ------- -------- --- ---- -- ------- ------------ --<br>------ -- ---- -- --- ---- -- -------- -- --- ------ ------,269510.3000000119,269509.8000000119,269074.946,269082.90000003576,269090.372,269523.079,,31,his
screen,html.Screen,2_3_1_0_1_32,2022-05-02T10:59:59.374Z,,,,,,,,,,,,,,,,,12,,,,,,,,,,,,,,634.0210000238148,,response,,,,5,E,,,,,,Space,keypress(Space),,,,silence,,,,---- ------ ------ ------- ------ --- ------- -----------<br>-- ----- --- ---- -- --- ------ ---- - ---- -- ----------<br>-- ------ ---- --- ---- --- --- --- ----- -- -------- ---<br>entire ------- -------- --- ---- -- ------- ------------ --<br>------ -- ---- -- --- ---- -- -------- -- --- ------ ------,270157.5,270157.10000002384,269507.349,269510.5,269523.079,270171.191,,32,entire
screen,html.Screen,2_3_1_0_1_33,2022-05-02T11:00:00.136Z,,,,,,,,,,,,,,,,,12,,,,,,,,,,,,,,748.2090000357712,,response,,,,5,E,,,,,,Space,keypress(Space),,,,silence,,,,---- ------ ------ ------- ------ --- ------- -----------<br>-- ----- --- ---- -- --- ------ ---- - ---- -- ----------<br>-- ------ ---- --- ---- --- --- --- ----- -- -------- ---<br>------ account -------- --- ---- -- ------- ------------ --<br>------ -- ---- -- --- ---- -- -------- -- --- ------ ------,270919.90000003576,270919.40000003576,270155.645,270157.60000002384,270171.191,270935.326,,33,account
screen,html.Screen,2_3_1_0_1_34,2022-05-02T11:00:01.565Z,,,,,,,,,,,,,,,,,12,,,,,,,,,,,,,,1412.8739999880781,,response,,,,5,E,,,,,,Space,keypress(Space),,,,silence,,,,"---- ------ ------ ------- ------ --- ------- -----------<br>-- ----- --- ---- -- --- ------ ---- - ---- -- ----------<br>-- ------ ---- --- ---- --- --- --- ----- -- -------- ---<br>------ ------- balance, --- ---- -- ------- ------------ --<br>------ -- ---- -- --- ---- -- -------- -- --- ------ ------",272348.8000000119,272348.1999999881,270904.251,270920,270935.326,272364.684,,34,"balance,"
screen,html.Screen,2_3_1_0_1_35,2022-05-02T11:00:01.949Z,,,,,,,,,,,,,,,,,12,,,,,,,,,,,,,,367.11600001191255,,response,,,,5,E,,,,,,Space,keypress(Space),,,,silence,,,,---- ------ ------ ------- ------ --- ------- -----------<br>-- ----- --- ---- -- --- ------ ---- - ---- -- ----------<br>-- ------ ---- --- ---- --- --- --- ----- -- -------- ---<br>------ ------- -------- but ---- -- ------- ------------ --<br>------ -- ---- -- --- ---- -- -------- -- --- ------ ------,272732.5,272731.8000000119,272334.771,272348.90000003576,272364.684,272747.026,,35,but
screen,html.Screen,2_3_1_0_1_36,2022-05-02T11:00:02.312Z,,,,,,,,,,,,,,,,,12,,,,,,,,,,,,,,347.3740000357502,,response,,,,5,E,,,,,,Space,keypress(Space),,,,silence,,,,---- ------ ------ ------- ------ --- ------- -----------<br>-- ----- --- ---- -- --- ------ ---- - ---- -- ----------<br>-- ------ ---- --- ---- --- --- --- ----- -- -------- ---<br>------ ------- -------- --- with -- ------- ------------ --<br>------ -- ---- -- --- ---- -- -------- -- --- ------ ------,273095.1999999881,273094.40000003576,272731.206,272732.6999999881,272747.026,273115.314,,36,with
screen,html.Screen,2_3_1_0_1_37,2022-05-02T11:00:02.749Z,,,,,,,,,,,,,,,,,12,,,,,,,,,,,,,,416.7860000238288,,response,,,,5,E,,,,,,Space,keypress(Space),,,,silence,,,,---- ------ ------ ------- ------ --- ------- -----------<br>-- ----- --- ---- -- --- ------ ---- - ---- -- ----------<br>-- ------ ---- --- ---- --- --- --- ----- -- -------- ---<br>------ ------- -------- --- ---- an ------- ------------ --<br>------ -- ---- -- --- ---- -- -------- -- --- ------ ------,273533,273532.10000002384,273080.643,273095.40000003576,273115.314,273545.062,,37,an
screen,html.Screen,2_3_1_0_1_38,2022-05-02T11:00:03.212Z,,,,,,,,,,,,,,,,,12,,,,,,,,,,,,,,449.7380000119447,,response,,,,5,E,,,,,,Space,keypress(Space),,,,silence,,,,---- ------ ------ ------- ------ --- ------- -----------<br>-- ----- --- ---- -- --- ------ ---- - ---- -- ----------<br>-- ------ ---- --- ---- --- --- --- ----- -- -------- ---<br>------ ------- -------- --- ---- -- unusual ------------ --<br>------ -- ---- -- --- ---- -- -------- -- --- ------ ------,273995.60000002384,273994.8000000119,273529.381,273533.1999999881,273545.062,274010.353,,38,unusual
screen,html.Screen,2_3_1_0_1_39,2022-05-02T11:00:04.607Z,,,,,,,,,,,,,,,,,12,,,,,,,,,,,,,,1380.04700003576,,response,,,,5,E,,,,,,Space,keypress(Space),,,,silence,,,,---- ------ ------ ------- ------ --- ------- -----------<br>-- ----- --- ---- -- --- ------ ---- - ---- -- ----------<br>-- ------ ---- --- ---- --- --- --- ----- -- -------- ---<br>------ ------- -------- --- ---- -- ------- stipulation: --<br>------ -- ---- -- --- ---- -- -------- -- --- ------ ------,275390.8000000119,275390.40000003576,273994.752,273995.6999999881,274010.353,275406.971,,39,stipulation:
screen,html.Screen,2_3_1_0_1_40,2022-05-02T11:00:05.539Z,,,,,,,,,,,,,,,,,12,,,,,,,,,,,,,,915.2289999880595,,response,,,,5,E,,,,,,Space,keypress(Space),,,,silence,,,,---- ------ ------ ------- ------ --- ------- -----------<br>-- ----- --- ---- -- --- ------ ---- - ---- -- ----------<br>-- ------ ---- --- ---- --- --- --- ----- -- -------- ---<br>------ ------- -------- --- ---- -- ------- ------------ He<br>------ -- ---- -- --- ---- -- -------- -- --- ------ ------,276323,276322.1999999881,275376.428,275391,275406.971,276337.219,,40,He
screen,html.Screen,2_3_1_0_1_41,2022-05-02T11:00:05.972Z,,,,,,,,,,,,,,,,,12,,,,,,,,,,,,,,417.68100003578,,response,,,,5,E,,,,,,Space,keypress(Space),,,,silence,,,,---- ------ ------ ------- ------ --- ------- -----------<br>-- ----- --- ---- -- --- ------ ---- - ---- -- ----------<br>-- ------ ---- --- ---- --- --- --- ----- -- -------- ---<br>------ ------- -------- --- ---- -- ------- ------------ --<br>wanted -- ---- -- --- ---- -- -------- -- --- ------ ------,276755.3000000119,276754.90000003576,276322.94,276323.10000002384,276337.219,276769.396,,41,wanted
screen,html.Screen,2_3_1_0_1_42,2022-05-02T11:00:06.423Z,,,,,,,,,,,,,,,,,12,,,,,,,,,,,,,,435.904000011913,,response,,,,5,E,,,,,,Space,keypress(Space),,,,silence,,,,---- ------ ------ ------- ------ --- ------- -----------<br>-- ----- --- ---- -- --- ------ ---- - ---- -- ----------<br>-- ------ ---- --- ---- --- --- --- ----- -- -------- ---<br>------ ------- -------- --- ---- -- ------- ------------ --<br>------ as ---- -- --- ---- -- -------- -- --- ------ ------,277206.10000002384,277205.3000000119,276754.216,276755.5,276769.396,277218.252,,42,as
