sender,sender_type,sender_id,timestamp,meta,,Blues,Classical,Country,Dance,Electronic,Folk,Gospel,Hip-Hop,Jazz,Latin,Musical/Film,New-age,Pop,Prolific_id,Provo_ID,R&B,Rap,Reggae,Religious,Rock,Soul,Swing,Traditional,age,artist_name,correct,correctResponse,distraction,duration,education,ended_on,familiarity,gender,headphone_check_performance,item,list,music_frequency,offensiveness,pleasantness,position_correct,preference,response,response_action,snippet_file,song_name,song_rating,sound,stimulus_1,stimulus_2,stimulus_3,text,time_commit,time_end,time_render,time_run,time_show,time_switch,url,word,word_ID
Prolific ID,html.Form,0,2022-05-03T12:38:27.432Z,"{""labjs_version"":""20.2.2"",""labjs_build"":{""flavor"":""production"",""commit"":""a25486e0c714a0ae2ce03ff94b7bb6896854dcfa""},""location"":""https://run.pavlovia.org/mvasilev/prolific3_music_h/"",""userAgent"":""Mozilla/5.0 (Macintosh; Intel Mac OS X 10_15_7) AppleWebKit/537.36 (KHTML, like Gecko) Chrome/100.0.4896.88 Safari/537.36"",""platform"":""MacIntel"",""language"":""en-GB"",""locale"":""en-GB"",""timeZone"":""Europe/London"",""timezoneOffset"":-60,""screen_width"":1680,""screen_height"":1050,""scroll_width"":1680,""scroll_height"":850,""window_innerWidth"":1680,""window_innerHeight"":898,""devicePixelRatio"":2}",,,,,,,,,,,,,,,5e66c77e8ebdaf4466e26326,,,,,,,,,,,,,,,9074.989999809266,,form submission,,,,,,,,,,,,,,,,,,,,,17990.5,17990.199999809265,8898.543,8901.5,8915.21,18015.392,{},,
Introduction,html.Screen,1_0,2022-05-03T12:38:31.514Z,,,,,,,,,,,,,,,,,,,,,,,,,,,,,,,4053.108,,response,,,,,,,,,,,continue,click button,,,,,,,,,22073.10000038147,22068.5,17998.725,17990.60000038147,18015.392,22082.14,,,
Volume calibration,html.Screen,1_1,2022-05-03T12:38:49.454Z,,,,,,,,,,,,,,,,,,,,,,,,,,,,,,,17925.75999961853,,response,,,,,,,,,,,continue,click button,,,,,,,,,40013.60000038147,40007.89999961853,22065.473,22073.300000190735,22082.14,40015.832,,,
Task instructions,html.Screen,1_2,2022-05-03T12:38:55.606Z,,,,,,,,,,,,,,,,,,,,,,,,,,,,,,,6146.867999809263,,response,,,,,,,,,,,continue,click button,,,,,,,,,46166.10000038147,46162.699999809265,39999.165,40017.89999961853,40015.832,46182.622,,,
Sounds,html.Screen,1_3_0_0,2022-05-03T12:38:59.863Z,,,,,,,,,,,,,,,,,,,,,,,,,,,,,,,4249.981,,timeout,,,,,,,,,3,,,,,,,,O,I,S,,50422.39999961853,50415.936,46165.955,46166.5,46182.622,50432.603,,,
Judgement,html.Screen,1_3_0_1,2022-05-03T12:39:00.785Z,,,,,,,,,,,,,,,,,,,,,,,,,,,,true,3,,909.7969996185275,,response,,,,,,,,,3,,3,click #choice-3,,,,,O,I,S,,51344.89999961853,51342.39999961853,50415.936,50422.60000038147,50432.603,51349.288,,,
Trial,flow.Sequence,1_3_0,2022-05-03T12:39:00.786Z,,,,,,,,,,,,,,,,,,,,,,,,,,,,,,,5159.777999618527,,completion,,,,,,,,,3,,,,,,,,O,I,S,,51345.39999961853,51342.39999961853,46165.955,46166.39999961853,46182.622,51349.288,,,
Sounds,html.Screen,1_3_1_0,2022-05-03T12:39:05.025Z,,,,,,,,,,,,,,,,,,,,,,,,,,,,,,,4250.084999999999,,timeout,,,,,,,,,1,,,,,,,,S,O,I,,55585.199999809265,55582.706,51332.621,51345.699999809265,51349.288,55599.373,,,
Judgement,html.Screen,1_3_1_1,2022-05-03T12:39:05.565Z,,,,,,,,,,,,,,,,,,,,,,,,,,,,true,1,,523.8269998092655,,response,,,,,,,,,1,,1,click #choice-1,,,,,S,O,I,,56124.800000190735,56123.199999809265,55582.706,55585.300000190735,55599.373,56132.717,,,
Trial,flow.Sequence,1_3_1,2022-05-03T12:39:05.565Z,,,,,,,,,,,,,,,,,,,,,,,,,,,,,,,4773.911999809265,,completion,,,,,,,,,1,,,,,,,,S,O,I,,56124.89999961853,56123.199999809265,51332.621,51345.39999961853,51349.288,56132.717,,,
Sounds,html.Screen,1_3_2_0,2022-05-03T12:39:09.808Z,,,,,,,,,,,,,,,,,,,,,,,,,,,,,,,4250.019,,timeout,,,,,,,,,1,,,,,,,,S,I,O,,60368.5,60366.069,56116.05,56125,56132.717,60382.736,,,
Judgement,html.Screen,1_3_2_1,2022-05-03T12:39:10.221Z,,,,,,,,,,,,,,,,,,,,,,,,,,,,true,1,,395.8640003814726,,response,,,,,,,,,1,,1,click #choice-1,,,,,S,I,O,,60781.39999961853,60778.60000038147,60366.069,60368.60000038147,60382.736,60782.744,,,
Trial,flow.Sequence,1_3_2,2022-05-03T12:39:10.222Z,,,,,,,,,,,,,,,,,,,,,,,,,,,,,,,4645.883000381473,,completion,,,,,,,,,1,,,,,,,,S,I,O,,60781.60000038147,60778.60000038147,56116.05,56124.89999961853,56132.717,60782.744,,,
Sounds,html.Screen,1_3_3_0,2022-05-03T12:39:14.458Z,,,,,,,,,,,,,,,,,,,,,,,,,,,,,,,4250.084999999999,,timeout,,,,,,,,,2,,,,,,,,I,S,O,,65018.300000190735,65016.162,60766.077,60781.89999961853,60782.744,65032.829,,,
Judgement,html.Screen,1_3_3_1,2022-05-03T12:39:14.964Z,,,,,,,,,,,,,,,,,,,,,,,,,,,,true,2,,490.07099961853237,,response,,,,,,,,,2,,2,click #choice-2,,,,,I,S,O,,65524.10000038147,65522.89999961853,65016.162,65018.39999961853,65032.829,65549.506,,,
Trial,flow.Sequence,1_3_3,2022-05-03T12:39:14.964Z,,,,,,,,,,,,,,,,,,,,,,,,,,,,,,,4740.1559996185315,,completion,,,,,,,,,2,,,,,,,,I,S,O,,65524.300000190735,65522.89999961853,60766.077,60781.800000190735,60782.744,65549.506,,,
Sounds,html.Screen,1_3_4_0,2022-05-03T12:39:19.225Z,,,,,,,,,,,,,,,,,,,,,,,,,,,,,,,4250.085000000006,,timeout,,,,,,,,,2,,,,,,,,O,S,I,,69785.30000019073,69782.924,65532.839,65524.39999961853,65549.506,69799.591,,,
Judgement,html.Screen,1_3_4_1,2022-05-03T12:39:19.617Z,,,,,,,,,,,,,,,,,,,,,,,,,,,,true,2,,375.6089998092648,,response,,,,,,,,,2,,2,click #choice-2,,,,,O,S,I,,70177.60000038147,70175.19999980927,69782.924,69785.5,69799.591,70182.932,,,
Trial,flow.Sequence,1_3_4,2022-05-03T12:39:19.617Z,,,,,,,,,,,,,,,,,,,,,,,,,,,,,,,4625.693999809271,,completion,,,,,,,,,2,,,,,,,,O,S,I,,70177.69999980927,70175.19999980927,65532.839,65524.300000190735,65549.506,70182.932,,,
Sounds,html.Screen,1_3_5_0,2022-05-03T12:39:23.859Z,,,,,,,,,,,,,,,,,,,,,,,,,,,,,,,4250.013999999996,,timeout,,,,,,,,,3,,,,,,,,I,O,S,,74419.39999961853,74416.279,70166.265,70177.89999961853,70182.932,74432.946,,,
Judgement,html.Screen,1_3_5_1,2022-05-03T12:39:24.381Z,,,,,,,,,,,,,,,,,,,,,,,,,,,,true,3,,507.65400038147345,,response,,,,,,,,,3,,3,click #choice-3,,,,,I,O,S,,74942.10000038147,74940.60000038147,74416.279,74419.60000038147,74432.946,74949.623,,,
Trial,flow.Sequence,1_3_5,2022-05-03T12:39:24.382Z,,,,,,,,,,,,,,,,,,,,,,,,,,,,,,,4757.668000381469,,completion,,,,,,,,,3,,,,,,,,I,O,S,,74942.19999980927,74940.60000038147,70166.265,70177.89999961853,70182.932,74949.623,,,
Task,flow.Loop,1_3,2022-05-03T12:39:24.391Z,,,,,,,,,,,,,,,,,,,,,,,,,,,,,,,28757.978000381467,,completion,,,1,,,,,,,,,,,,,,,,,,74952.10000038147,74940.60000038147,46165.955,46166.300000190735,46182.622,74949.623,,,
Trap,html.Screen,1_4,2022-05-03T12:39:24.393Z,,,,,,,,,,,,,,,,,,,,,,,,,,,,,,,NaN,,skipped,,,,,,,,,,,,,,,,,,,,,74953.80000019073,74940.60000038147,,74953.69999980927,,74949.623,,,
Thanks,html.Screen,1_5,2022-05-03T12:39:36.099Z,,,,,,,,,,,,,,,,,,,,,,,,,,,,,,,11707.177000190728,,response,,,,,,,,,,,continue,click button,,,,,,,,,86659.80000019073,86656.80000019073,74932.956,74953.89999961853,74949.623,89333.188,,,
Headphone screening,flow.Sequence,1,2022-05-03T12:39:36.099Z,,,,,,,,,,,,,,,,,,,,,,,,,,,,,,,68641.40800019074,,completion,,,,,,,,,,,,,,,,,,,,,86660,86656.80000019073,17998.725,17990.60000038147,18015.392,89333.188,,,
Instructions,html.Page,2_0,2022-05-03T12:40:00.300Z,,,,,,,,,,,,,,,,,,,,,,,,,,,,,,,21528.312000000005,,form submission,,,,,,,,,,,,,,,,,,,,,110862.10000038147,110861.5,89316.521,89330.39999961853,89333.188,110883.619,,,
Holding screen,html.Screen,2_1_0_0,2022-05-03T12:40:10.307Z,,,,,,,,,,,,,,,,,,,,,,,,,,,,,,,10016.838999999993,,timeout,,,,,,,,,,,,,,,,,,,,,120869.39999961853,120867.124,110866.952,110862.5,110883.619,120900.458,,,
screen,html.Screen,2_1_0_1_0,2022-05-03T12:40:11.154Z,,,,,,,,,,,,,,,,,53,,,,,,,,,,,,,,798.642000381471,,response,,,,99,,,,,,,Space,keypress(Space),,,,,,,,When -- ----- -- ------ - ------- --- ----------<br>------------- ------ ------ ---- ---- ------- ----- -- ----<br>-------- ------- -- ---------- --- - --- ----- ----- ----<br>---- --- --- ----- --- ---- ---- ------- ----- ---- -------<br>--- --- -- ----- -- --- ---- -- --- ---- -- ------ ------<br>--- ----- -- ----,121716,121699.10000038147,120867.124,120869.80000019073,120900.458,121717.141,,0,When
screen,html.Screen,2_1_0_1_1,2022-05-03T12:40:11.457Z,,,,,,,,,,,,,,,,,53,,,,,,,,,,,,,,297.1590001907316,,response,,,,99,,,,,,,Space,keypress(Space),,,,,,,,---- it ----- -- ------ - ------- --- ----------<br>------------- ------ ------ ---- ---- ------- ----- -- ----<br>-------- ------- -- ---------- --- - --- ----- ----- ----<br>---- --- --- ----- --- ---- ---- ------- ----- ---- -------<br>--- --- -- ----- -- --- ---- -- --- ---- -- ------ ------<br>--- ----- -- ----,122019.5,122014.30000019073,121700.474,121716.19999980927,121717.141,122033.753,,1,it
screen,html.Screen,2_1_0_1_2,2022-05-03T12:40:11.802Z,,,,,,,,,,,,,,,,,53,,,,,,,,,,,,,,324.5470001907379,,response,,,,99,,,,,,,Space,keypress(Space),,,,,,,,---- -- comes -- ------ - ------- --- ----------<br>------------- ------ ------ ---- ---- ------- ----- -- ----<br>-------- ------- -- ---------- --- - --- ----- ----- ----<br>---- --- --- ----- --- ---- ---- ------- ----- ---- -------<br>--- --- -- ----- -- --- ---- -- --- ---- -- ------ ------<br>--- ----- -- ----,122364.5,122358.30000019073,122017.086,122019.80000019073,122033.753,122367.093,,2,comes
screen,html.Screen,2_1_0_1_3,2022-05-03T12:40:12.277Z,,,,,,,,,,,,,,,,,53,,,,,,,,,,,,,,466.3069996185368,,response,,,,99,,,,,,,Space,keypress(Space),,,,,,,,---- -- ----- to ------ - ------- --- ----------<br>------------- ------ ------ ---- ---- ------- ----- -- ----<br>-------- ------- -- ---------- --- - --- ----- ----- ----<br>---- --- --- ----- --- ---- ---- ------- ----- ---- -------<br>--- --- -- ----- -- --- ---- -- --- ---- -- ------ ------<br>--- ----- -- ----,122839,122833.39999961853,122350.426,122364.69999980927,122367.093,122850.436,,3,to
screen,html.Screen,2_1_0_1_4,2022-05-03T12:40:12.591Z,,,,,,,,,,,,,,,,,53,,,,,,,,,,,,,,297.0639999999985,,response,,,,99,,,,,,,Space,keypress(Space),,,,,,,,---- -- ----- -- having - ------- --- ----------<br>------------- ------ ------ ---- ---- ------- ----- -- ----<br>-------- ------- -- ---------- --- - --- ----- ----- ----<br>---- --- --- ----- --- ---- ---- ------- ----- ---- -------<br>--- --- -- ----- -- --- ---- -- --- ---- -- ------ ------<br>--- ----- -- ----,123153.19999980927,123147.5,122833.769,122841.5,122850.436,123167.109,,4,having
screen,html.Screen,2_1_0_1_5,2022-05-03T12:40:12.869Z,,,,,,,,,,,,,,,,,53,,,,,,,,,,,,,,259.0909998092684,,response,,,,99,,,,,,,Space,keypress(Space),,,,,,,,---- -- ----- -- ------ a ------- --- ----------<br>------------- ------ ------ ---- ---- ------- ----- -- ----<br>-------- ------- -- ---------- --- - --- ----- ----- ----<br>---- --- --- ----- --- ---- ---- ------- ----- ---- -------<br>--- --- -- ----- -- --- ---- -- --- ---- -- ------ ------<br>--- ----- -- ----,123431.30000019073,123426.19999980927,123150.442,123153.30000019073,123167.109,123433.781,,5,a
screen,html.Screen,2_1_0_1_6,2022-05-03T12:40:13.152Z,,,,,,,,,,,,,,,,,53,,,,,,,,,,,,,,275.41899980926246,,response,,,,99,,,,,,,Space,keypress(Space),,,,,,,,---- -- ----- -- ------ - lasting --- ----------<br>------------- ------ ------ ---- ---- ------- ----- -- ----<br>-------- ------- -- ---------- --- - --- ----- ----- ----<br>---- --- --- ----- --- ---- ---- ------- ----- ---- -------<br>--- --- -- ----- -- --- ---- -- --- ---- -- ------ ------<br>--- ----- -- ----,123714.60000038147,123709.19999980927,123417.114,123431.5,123433.781,123717.12,,6,lasting
screen,html.Screen,2_1_0_1_7,2022-05-03T12:40:13.527Z,,,,,,,,,,,,,,,,,53,,,,,,,,,,,,,,367.27999961853493,,response,,,,99,,,,,,,Space,keypress(Space),,,,,,,,---- -- ----- -- ------ - ------- and ----------<br>------------- ------ ------ ---- ---- ------- ----- -- ----<br>-------- ------- -- ---------- --- - --- ----- ----- ----<br>---- --- --- ----- --- ---- ---- ------- ----- ---- -------<br>--- --- -- ----- -- --- ---- -- --- ---- -- ------ ------<br>--- ----- -- ----,124089.69999980927,124084.39999961853,123700.453,123715.10000038147,123717.12,124100.461,,7,and
screen,html.Screen,2_1_0_1_8,2022-05-03T12:40:13.913Z,,,,,,,,,,,,,,,,,53,,,,,,,,,,,,,,369.0390000000043,,response,,,,99,,,,,,,Space,keypress(Space),,,,,,,,---- -- ----- -- ------ - ------- --- fulfilling<br>------------- ------ ------ ---- ---- ------- ----- -- ----<br>-------- ------- -- ---------- --- - --- ----- ----- ----<br>---- --- --- ----- --- ---- ---- ------- ----- ---- -------<br>--- --- -- ----- -- --- ---- -- --- ---- -- ------ ------<br>--- ----- -- ----,124474.89999961853,124469.5,124083.794,124089.89999961853,124100.461,124483.802,,8,fulfilling
screen,html.Screen,2_1_0_1_9,2022-05-03T12:40:14.479Z,,,,,,,,,,,,,,,,,53,,,,,,,,,,,,,,551.698000000004,,response,,,,99,,,,,,,Space,keypress(Space),,,,,,,,"---- -- ----- -- ------ - ------- --- ----------<br>relationship, ------ ------ ---- ---- ------- ----- -- ----<br>-------- ------- -- ---------- --- - --- ----- ----- ----<br>---- --- --- ----- --- ---- ---- ------- ----- ---- -------<br>--- --- -- ----- -- --- ---- -- --- ---- -- ------ ------<br>--- ----- -- ----",125041,125035.5,124467.135,124475,124483.802,125050.48,,9,"relationship,"
screen,html.Screen,2_1_0_1_10,2022-05-03T12:40:15.068Z,,,,,,,,,,,,,,,,,53,,,,,,,,,,,,,,574.0200000000041,,response,,,,99,,,,,,,Space,keypress(Space),,,,,,,,---- -- ----- -- ------ - ------- --- ----------<br>------------- common ------ ---- ---- ------- ----- -- ----<br>-------- ------- -- ---------- --- - --- ----- ----- ----<br>---- --- --- ----- --- ---- ---- ------- ----- ---- -------<br>--- --- -- ----- -- --- ---- -- --- ---- -- ------ ------<br>--- ----- -- ----,125630.39999961853,125624.5,125033.813,125041.39999961853,125050.48,125633.825,,10,common
screen,html.Screen,2_1_0_1_11,2022-05-03T12:40:15.445Z,,,,,,,,,,,,,,,,,53,,,,,,,,,,,,,,367.9750001907378,,response,,,,99,,,,,,,Space,keypress(Space),,,,,,,,---- -- ----- -- ------ - ------- --- ----------<br>------------- ------ wisdom ---- ---- ------- ----- -- ----<br>-------- ------- -- ---------- --- - --- ----- ----- ----<br>---- --- --- ----- --- ---- ---- ------- ----- ---- -------<br>--- --- -- ----- -- --- ---- -- --- ---- -- ------ ------<br>--- ----- -- ----,126007,126001.80000019073,125617.158,125630.69999980927,125633.825,126017.166,,11,wisdom
screen,html.Screen,2_1_0_1_12,2022-05-03T12:40:15.798Z,,,,,,,,,,,,,,,,,53,,,,,,,,,,,,,,338.4340003814723,,response,,,,99,,,,,,,Space,keypress(Space),,,,,,,,---- -- ----- -- ------ - ------- --- ----------<br>------------- ------ ------ says ---- ------- ----- -- ----<br>-------- ------- -- ---------- --- - --- ----- ----- ----<br>---- --- --- ----- --- ---- ---- ------- ----- ---- -------<br>--- --- -- ----- -- --- ---- -- --- ---- -- ------ ------<br>--- ----- -- ----,126360.80000019073,126355.60000038147,126000.499,126007.19999980927,126017.166,126367.173,,12,says
screen,html.Screen,2_1_0_1_13,2022-05-03T12:40:16.135Z,,,,,,,,,,,,,,,,,53,,,,,,,,,,,,,,325.4270003814745,,response,,,,99,,,,,,,Space,keypress(Space),,,,,,,,---- -- ----- -- ------ - ------- --- ----------<br>------------- ------ ------ ---- that ------- ----- -- ----<br>-------- ------- -- ---------- --- - --- ----- ----- ----<br>---- --- --- ----- --- ---- ---- ------- ----- ---- -------<br>--- --- -- ----- -- --- ---- -- --- ---- -- ------ ------<br>--- ----- -- ----,126697.5,126692.60000038147,126350.506,126361,126367.173,126700.513,,13,that
screen,html.Screen,2_1_0_1_14,2022-05-03T12:40:16.326Z,,,,,,,,,,,,,,,,,53,,,,,,,,,,,,,,182.28700019072858,,response,,,,99,,,,,,,Space,keypress(Space),,,,,,,,---- -- ----- -- ------ - ------- --- ----------<br>------------- ------ ------ ---- ---- feeling ----- -- ----<br>-------- ------- -- ---------- --- - --- ----- ----- ----<br>---- --- --- ----- --- ---- ---- ------- ----- ---- -------<br>--- --- -- ----- -- --- ---- -- --- ---- -- ------ ------<br>--- ----- -- ----,126888.19999980927,126882.80000019073,126683.846,126697.80000019073,126700.513,126900.517,,14,feeling
screen,html.Screen,2_1_0_1_15,2022-05-03T12:40:16.719Z,,,,,,,,,,,,,,,,,53,,,,,,,,,,,,,,374.8829996185232,,response,,,,99,,,,,,,Space,keypress(Space),,,,,,,,---- -- ----- -- ------ - ------- --- ----------<br>------------- ------ ------ ---- ---- ------- close -- ----<br>-------- ------- -- ---------- --- - --- ----- ----- ----<br>---- --- --- ----- --- ---- ---- ------- ----- ---- -------<br>--- --- -- ----- -- --- ---- -- --- ---- -- ------ ------<br>--- ----- -- ----,127281,127275.39999961853,126883.85,126888.39999961853,126900.517,127283.858,,15,close
screen,html.Screen,2_1_0_1_16,2022-05-03T12:40:17.052Z,,,,,,,,,,,,,,,,,53,,,,,,,,,,,,,,324.2420003814768,,response,,,,99,,,,,,,Space,keypress(Space),,,,,,,,---- -- ----- -- ------ - ------- --- ----------<br>------------- ------ ------ ---- ---- ------- ----- to ----<br>-------- ------- -- ---------- --- - --- ----- ----- ----<br>---- --- --- ----- --- ---- ---- ------- ----- ---- -------<br>--- --- -- ----- -- --- ---- -- --- ---- -- ------ ------<br>--- ----- -- ----,127614.10000038147,127608.10000038147,127267.191,127281.30000019073,127283.858,127617.198,,16,to
screen,html.Screen,2_1_0_1_17,2022-05-03T12:40:17.489Z,,,,,,,,,,,,,,,,,53,,,,,,,,,,,,,,429.0019998092612,,response,,,,99,,,,,,,Space,keypress(Space),,,,,,,,---- -- ----- -- ------ - ------- --- ----------<br>------------- ------ ------ ---- ---- ------- ----- -- your<br>-------- ------- -- ---------- --- - --- ----- ----- ----<br>---- --- --- ----- --- ---- ---- ------- ----- ---- -------<br>--- --- -- ----- -- --- ---- -- --- ---- -- ------ ------<br>--- ----- -- ----,128051.80000019073,128046.19999980927,127600.531,127614.30000019073,127617.198,128067.207,,17,your
screen,html.Screen,2_1_0_1_18,2022-05-03T12:40:17.962Z,,,,,,,,,,,,,,,,,53,,,,,,,,,,,,,,451.49299980927026,,response,,,,99,,,,,,,Space,keypress(Space),,,,,,,,---- -- ----- -- ------ - ------- --- ----------<br>------------- ------ ------ ---- ---- ------- ----- -- ----<br>romantic ------- -- ---------- --- - --- ----- ----- ----<br>---- --- --- ----- --- ---- ---- ------- ----- ---- -------<br>--- --- -- ----- -- --- ---- -- --- ---- -- ------ ------<br>--- ----- -- ----,128524.30000019073,128518.69999980927,128050.54,128052,128067.207,128533.883,,18,romantic
screen,html.Screen,2_1_0_1_19,2022-05-03T12:40:18.398Z,,,,,,,,,,,,,,,,,53,,,,,,,,,,,,,,421.2170003814681,,response,,,,99,,,,,,,Space,keypress(Space),,,,,,,,---- -- ----- -- ------ - ------- --- ----------<br>------------- ------ ------ ---- ---- ------- ----- -- ----<br>-------- partner -- ---------- --- - --- ----- ----- ----<br>---- --- --- ----- --- ---- ---- ------- ----- ---- -------<br>--- --- -- ----- -- --- ---- -- --- ---- -- ------ ------<br>--- ----- -- ----,128960.60000038147,128955.10000038147,128517.216,128524.5,128533.883,128967.225,,19,partner
screen,html.Screen,2_1_0_1_20,2022-05-03T12:40:18.749Z,,,,,,,,,,,,,,,,,53,,,,,,,,,,,,,,338.9749998092593,,response,,,,99,,,,,,,Space,keypress(Space),,,,,,,,---- -- ----- -- ------ - ------- --- ----------<br>------------- ------ ------ ---- ---- ------- ----- -- ----<br>-------- ------- is ---------- --- - --- ----- ----- ----<br>---- --- --- ----- --- ---- ---- ------- ----- ---- -------<br>--- --- -- ----- -- --- ---- -- --- ---- -- ------ ------<br>--- ----- -- ----,129311.80000019073,129306.19999980927,128950.558,128960.80000019073,128967.225,129317.232,,20,is
screen,html.Screen,2_1_0_1_21,2022-05-03T12:40:19.000Z,,,,,,,,,,,,,,,,,53,,,,,,,,,,,,,,240.16799961852666,,response,,,,99,,,,,,,Space,keypress(Space),,,,,,,,---- -- ----- -- ------ - ------- --- ----------<br>------------- ------ ------ ---- ---- ------- ----- -- ----<br>-------- ------- -- paramount. --- - --- ----- ----- ----<br>---- --- --- ----- --- ---- ---- ------- ----- ---- -------<br>--- --- -- ----- -- --- ---- -- --- ---- -- ------ ------<br>--- ----- -- ----,129562.89999961853,129557.39999961853,129300.565,129312.10000038147,129317.232,129567.237,,21,paramount.
screen,html.Screen,2_1_0_1_22,2022-05-03T12:40:19.411Z,,,,,,,,,,,,,,,,,53,,,,,,,,,,,,,,401.2630000000063,,response,,,,99,,,,,,,Space,keypress(Space),,,,,,,,---- -- ----- -- ------ - ------- --- ----------<br>------------- ------ ------ ---- ---- ------- ----- -- ----<br>-------- ------- -- ---------- But - --- ----- ----- ----<br>---- --- --- ----- --- ---- ---- ------- ----- ---- -------<br>--- --- -- ----- -- --- ---- -- --- ---- -- ------ ------<br>--- ----- -- ----,129973.80000019073,129968.5,129550.57,129563.19999980927,129567.237,129983.912,,22,But
screen,html.Screen,2_1_0_1_23,2022-05-03T12:40:19.811Z,,,,,,,,,,,,,,,,,53,,,,,,,,,,,,,,383.7879998092685,,response,,,,99,,,,,,,Space,keypress(Space),,,,,,,,---- -- ----- -- ------ - ------- --- ----------<br>------------- ------ ------ ---- ---- ------- ----- -- ----<br>-------- ------- -- ---------- --- a --- ----- ----- ----<br>---- --- --- ----- --- ---- ---- ------- ----- ---- -------<br>--- --- -- ----- -- --- ---- -- --- ---- -- ------ ------<br>--- ----- -- ----,130373.19999980927,130367.69999980927,129967.245,129973.89999961853,129983.912,130383.92,,23,a
screen,html.Screen,2_1_0_1_24,2022-05-03T12:40:20.036Z,,,,,,,,,,,,,,,,,53,,,,,,,,,,,,,,209.77999980926688,,response,,,,99,,,,,,,Space,keypress(Space),,,,,,,,---- -- ----- -- ------ - ------- --- ----------<br>------------- ------ ------ ---- ---- ------- ----- -- ----<br>-------- ------- -- ---------- --- - new ----- ----- ----<br>---- --- --- ----- --- ---- ---- ------- ----- ---- -------<br>--- --- -- ----- -- --- ---- -- --- ---- -- ------ ------<br>--- ----- -- ----,130598.80000019073,130593.69999980927,130367.253,130373.5,130383.92,130600.591,,24,new
screen,html.Screen,2_1_0_1_25,2022-05-03T12:40:20.274Z,,,,,,,,,,,,,,,,,53,,,,,,,,,,,,,,231.1089998092648,,response,,,,99,,,,,,,Space,keypress(Space),,,,,,,,---- -- ----- -- ------ - ------- --- ----------<br>------------- ------ ------ ---- ---- ------- ----- -- ----<br>-------- ------- -- ---------- --- - --- study ----- ----<br>---- --- --- ----- --- ---- ---- ------- ----- ---- -------<br>--- --- -- ----- -- --- ---- -- --- ---- -- ------ ------<br>--- ----- -- ----,130836.39999961853,130831.69999980927,130583.924,130599.10000038147,130600.591,130850.596,,25,study
screen,html.Screen,2_1_0_1_26,2022-05-03T12:40:20.543Z,,,,,,,,,,,,,,,,,53,,,,,,,,,,,,,,249.903999999995,,response,,,,99,,,,,,,Space,keypress(Space),,,,,,,,---- -- ----- -- ------ - ------- --- ----------<br>------------- ------ ------ ---- ---- ------- ----- -- ----<br>-------- ------- -- ---------- --- - --- ----- finds ----<br>---- --- --- ----- --- ---- ---- ------- ----- ---- -------<br>--- --- -- ----- -- --- ---- -- --- ---- -- ------ ------<br>--- ----- -- ----,131106,131100.5,130833.929,130836.69999980927,130850.596,131117.268,,26,finds
screen,html.Screen,2_1_0_1_27,2022-05-03T12:40:20.878Z,,,,,,,,,,,,,,,,,53,,,,,,,,,,,,,,317.9319998092542,,response,,,,99,,,,,,,Space,keypress(Space),,,,,,,,---- -- ----- -- ------ - ------- --- ----------<br>------------- ------ ------ ---- ---- ------- ----- -- ----<br>-------- ------- -- ---------- --- - --- ----- ----- that<br>---- --- --- ----- --- ---- ---- ------- ----- ---- -------<br>--- --- -- ----- -- --- ---- -- --- ---- -- ------ ------<br>--- ----- -- ----,131440.60000038147,131435.19999980927,131100.601,131106.19999980927,131117.268,131450.608,,27,that
screen,html.Screen,2_1_0_1_28,2022-05-03T12:40:21.205Z,,,,,,,,,,,,,,,,,53,,,,,,,,,,,,,,311.6920001907274,,response,,,,99,,,,,,,Space,keypress(Space),,,,,,,,---- -- ----- -- ------ - ------- --- ----------<br>------------- ------ ------ ---- ---- ------- ----- -- ----<br>-------- ------- -- ---------- --- - --- ----- ----- ----<br>it's --- --- ----- --- ---- ---- ------- ----- ---- -------<br>--- --- -- ----- -- --- ---- -- --- ---- -- ------ ------<br>--- ----- -- ----,131767.69999980927,131762.30000019073,131433.941,131440.80000019073,131450.608,131783.985,,28,it's
screen,html.Screen,2_1_0_1_29,2022-05-03T12:40:21.537Z,,,,,,,,,,,,,,,,,53,,,,,,,,,,,,,,310.91499961854424,,response,,,,99,,,,,,,Space,keypress(Space),,,,,,,,---- -- ----- -- ------ - ------- --- ----------<br>------------- ------ ------ ---- ---- ------- ----- -- ----<br>-------- ------- -- ---------- --- - --- ----- ----- ----<br>---- not --- ----- --- ---- ---- ------- ----- ---- -------<br>--- --- -- ----- -- --- ---- -- --- ---- -- ------ ------<br>--- ----- -- ----,132099.39999961853,132094.89999961853,131767.318,131767.80000019073,131783.985,132100.658,,29,not
screen,html.Screen,2_1_0_1_30,2022-05-03T12:40:21.842Z,,,,,,,,,,,,,,,,,53,,,,,,,,,,,,,,300.24199961853446,,response,,,,99,,,,,,,Space,keypress(Space),,,,,,,,---- -- ----- -- ------ - ------- --- ----------<br>------------- ------ ------ ---- ---- ------- ----- -- ----<br>-------- ------- -- ---------- --- - --- ----- ----- ----<br>---- --- how ----- --- ---- ---- ------- ----- ---- -------<br>--- --- -- ----- -- --- ---- -- --- ---- -- ------ ------<br>--- ----- -- ----,132405,132400.89999961853,132083.991,132099.60000038147,132100.658,132417.331,,30,how
screen,html.Screen,2_1_0_1_31,2022-05-03T12:40:21.991Z,,,,,,,,,,,,,,,,,53,,,,,,,,,,,,,,132.86899980925955,,response,,,,99,,,,,,,Space,keypress(Space),,,,,,,,---- -- ----- -- ------ - ------- --- ----------<br>------------- ------ ------ ---- ---- ------- ----- -- ----<br>-------- ------- -- ---------- --- - --- ----- ----- ----<br>---- --- --- close --- ---- ---- ------- ----- ---- -------<br>--- --- -- ----- -- --- ---- -- --- ---- -- ------ ------<br>--- ----- -- ----,132553.10000038147,132550.19999980927,132400.664,132405.19999980927,132417.331,132567.334,,31,close
screen,html.Screen,2_1_0_1_32,2022-05-03T12:40:22.489Z,,,,,,,,,,,,,,,,,53,,,,,,,,,,,,,,480.4660001907323,,response,,,,99,,,,,,,Space,keypress(Space),,,,,,,,---- -- ----- -- ------ - ------- --- ----------<br>------------- ------ ------ ---- ---- ------- ----- -- ----<br>-------- ------- -- ---------- --- - --- ----- ----- ----<br>---- --- --- ----- you ---- ---- ------- ----- ---- -------<br>--- --- -- ----- -- --- ---- -- --- ---- -- ------ ------<br>--- ----- -- ----,133051.60000038147,133047.80000019073,132550.667,132553.30000019073,132567.334,133067.344,,32,you
screen,html.Screen,2_1_0_1_33,2022-05-03T12:40:22.745Z,,,,,,,,,,,,,,,,,53,,,,,,,,,,,,,,235.85599980925326,,response,,,,99,,,,,,,Space,keypress(Space),,,,,,,,---- -- ----- -- ------ - ------- --- ----------<br>------------- ------ ------ ---- ---- ------- ----- -- ----<br>-------- ------- -- ---------- --- - --- ----- ----- ----<br>---- --- --- ----- --- feel ---- ------- ----- ---- -------<br>--- --- -- ----- -- --- ---- -- --- ---- -- ------ ------<br>--- ----- -- ----,133308,133303.19999980927,133050.677,133051.80000019073,133067.344,133317.349,,33,feel
screen,html.Screen,2_1_0_1_34,2022-05-03T12:40:22.998Z,,,,,,,,,,,,,,,,,53,,,,,,,,,,,,,,237.2510003814823,,response,,,,99,,,,,,,Space,keypress(Space),,,,,,,,---- -- ----- -- ------ - ------- --- ----------<br>------------- ------ ------ ---- ---- ------- ----- -- ----<br>-------- ------- -- ---------- --- - --- ----- ----- ----<br>---- --- --- ----- --- ---- that ------- ----- ---- -------<br>--- --- -- ----- -- --- ---- -- --- ---- -- ------ ------<br>--- ----- -- ----,133560.19999980927,133554.60000038147,133300.682,133308.10000038147,133317.349,133567.354,,34,that
screen,html.Screen,2_1_0_1_35,2022-05-03T12:40:23.262Z,,,,,,,,,,,,,,,,,53,,,,,,,,,,,,,,251.24600038147764,,response,,,,99,,,,,,,Space,keypress(Space),,,,,,,,---- -- ----- -- ------ - ------- --- ----------<br>------------- ------ ------ ---- ---- ------- ----- -- ----<br>-------- ------- -- ---------- --- - --- ----- ----- ----<br>---- --- --- ----- --- ---- ---- matters ----- ---- -------<br>--- --- -- ----- -- --- ---- -- --- ---- -- ------ ------<br>--- ----- -- ----,133824.19999980927,133818.60000038147,133550.687,133560.39999961853,133567.354,133834.026,,35,matters
screen,html.Screen,2_1_0_1_36,2022-05-03T12:40:23.776Z,,,,,,,,,,,,,,,,,53,,,,,,,,,,,,,,498.67399980925256,,response,,,,99,,,,,,,Space,keypress(Space),,,,,,,,"---- -- ----- -- ------ - ------- --- ----------<br>------------- ------ ------ ---- ---- ------- ----- -- ----<br>-------- ------- -- ---------- --- - --- ----- ----- ----<br>---- --- --- ----- --- ---- ---- ------- most, ---- -------<br>--- --- -- ----- -- --- ---- -- --- ---- -- ------ ------<br>--- ----- -- ----",134338.39999961853,134332.69999980927,133817.359,133824.5,133834.026,134350.703,,36,"most,"
screen,html.Screen,2_1_0_1_37,2022-05-03T12:40:24.186Z,,,,,,,,,,,,,,,,,53,,,,,,,,,,,,,,391.9969998092565,,response,,,,99,,,,,,,Space,keypress(Space),,,,,,,,---- -- ----- -- ------ - ------- --- ----------<br>------------- ------ ------ ---- ---- ------- ----- -- ----<br>-------- ------- -- ---------- --- - --- ----- ----- ----<br>---- --- --- ----- --- ---- ---- ------- ----- it's -------<br>--- --- -- ----- -- --- ---- -- --- ---- -- ------ ------<br>--- ----- -- ----,134748.30000019073,134742.69999980927,134334.036,134338.60000038147,134350.703,134750.711,,37,it's
screen,html.Screen,2_1_0_1_38,2022-05-03T12:40:24.598Z,,,,,,,,,,,,,,,,,53,,,,,,,,,,,,,,404.8890003814595,,response,,,,99,,,,,,,Space,keypress(Space),,,,,,,,---- -- ----- -- ------ - ------- --- ----------<br>------------- ------ ------ ---- ---- ------- ----- -- ----<br>-------- ------- -- ---------- --- - --- ----- ----- ----<br>---- --- --- ----- --- ---- ---- ------- ----- ---- whether<br>--- --- -- ----- -- --- ---- -- --- ---- -- ------ ------<br>--- ----- -- ----,135161,135155.60000038147,134734.044,134748.60000038147,134750.711,135167.386,,38,whether
screen,html.Screen,2_1_0_1_39,2022-05-03T12:40:24.960Z,,,,,,,,,,,,,,,,,53,,,,,,,,,,,,,,349.81399980926653,,response,,,,99,,,,,,,Space,keypress(Space),,,,,,,,---- -- ----- -- ------ - ------- --- ----------<br>------------- ------ ------ ---- ---- ------- ----- -- ----<br>-------- ------- -- ---------- --- - --- ----- ----- ----<br>---- --- --- ----- --- ---- ---- ------- ----- ---- -------<br>you --- -- ----- -- --- ---- -- --- ---- -- ------ ------<br>--- ----- -- ----,135522.60000038147,135517.19999980927,135150.719,135161.30000019073,135167.386,135534.06,,39,you
screen,html.Screen,2_1_0_1_40,2022-05-03T12:40:25.241Z,,,,,,,,,,,,,,,,,53,,,,,,,,,,,,,,264.54000038147205,,response,,,,99,,,,,,,Space,keypress(Space),,,,,,,,---- -- ----- -- ------ - ------- --- ----------<br>------------- ------ ------ ---- ---- ------- ----- -- ----<br>-------- ------- -- ---------- --- - --- ----- ----- ----<br>---- --- --- ----- --- ---- ---- ------- ----- ---- -------<br>--- are -- ----- -- --- ---- -- --- ---- -- ------ ------<br>--- ----- -- ----,135804.19999980927,135798.60000038147,135517.393,135522.69999980927,135534.06,135817.399,,40,are
screen,html.Screen,2_1_0_1_41,2022-05-03T12:40:25.522Z,,,,,,,,,,,,,,,,,53,,,,,,,,,,,,,,262.40100019073,,response,,,,99,,,,,,,Space,keypress(Space),,,,,,,,---- -- ----- -- ------ - ------- --- ----------<br>------------- ------ ------ ---- ---- ------- ----- -- ----<br>-------- ------- -- ---------- --- - --- ----- ----- ----<br>---- --- --- ----- --- ---- ---- ------- ----- ---- -------<br>--- --- as ----- -- --- ---- -- --- ---- -- ------ ------<br>--- ----- -- ----,136084.80000019073,136079.80000019073,135800.732,135804.5,135817.399,136100.738,,41,as
screen,html.Screen,2_1_0_1_42,2022-05-03T12:40:25.915Z,,,,,,,,,,,,,,,,,53,,,,,,,,,,,,,,371.8620003814576,,response,,,,99,,,,,,,Space,keypress(Space),,,,,,,,---- -- ----- -- ------ - ------- --- ----------<br>------------- ------ ------ ---- ---- ------- ----- -- ----<br>-------- ------- -- ---------- --- - --- ----- ----- ----<br>---- --- --- ----- --- ---- ---- ------- ----- ---- -------<br>--- --- -- close -- --- ---- -- --- ---- -- ------ ------<br>--- ----- -- ----,136477.60000038147,136472.60000038147,136084.071,136085,136100.738,136484.079,,42,close
screen,html.Screen,2_1_0_1_43,2022-05-03T12:40:26.215Z,,,,,,,,,,,,,,,,,53,,,,,,,,,,,,,,288.72100019073696,,response,,,,99,,,,,,,Space,keypress(Space),,,,,,,,---- -- ----- -- ------ - ------- --- ----------<br>------------- ------ ------ ---- ---- ------- ----- -- ----<br>-------- ------- -- ---------- --- - --- ----- ----- ----<br>---- --- --- ----- --- ---- ---- ------- ----- ---- -------<br>--- --- -- ----- as --- ---- -- --- ---- -- ------ ------<br>--- ----- -- ----,136777.5,136772.80000019073,136467.412,136477.69999980927,136484.079,136784.085,,43,as
screen,html.Screen,2_1_0_1_44,2022-05-03T12:40:26.710Z,,,,,,,,,,,,,,,,,53,,,,,,,,,,,,,,482.3149996185384,,response,,,,99,,,,,,,Space,keypress(Space),,,,,,,,---- -- ----- -- ------ - ------- --- ----------<br>------------- ------ ------ ---- ---- ------- ----- -- ----<br>-------- ------- -- ---------- --- - --- ----- ----- ----<br>---- --- --- ----- --- ---- ---- ------- ----- ---- -------<br>--- --- -- ----- -- you ---- -- --- ---- -- ------ ------<br>--- ----- -- ----,137272.60000038147,137266.39999961853,136767.418,136777.69999980927,136784.085,137284.095,,44,you
screen,html.Screen,2_1_0_1_45,2022-05-03T12:40:27.077Z,,,,,,,,,,,,,,,,,53,,,,,,,,,,,,,,350.50500038146856,,response,,,,99,,,,,,,Space,keypress(Space),,,,,,,,---- -- ----- -- ------ - ------- --- ----------<br>------------- ------ ------ ---- ---- ------- ----- -- ----<br>-------- ------- -- ---------- --- - --- ----- ----- ----<br>---- --- --- ----- --- ---- ---- ------- ----- ---- -------<br>--- --- -- ----- -- --- want -- --- ---- -- ------ ------<br>--- ----- -- ----,137640.10000038147,137634.60000038147,137267.428,137272.69999980927,137284.095,137650.769,,45,want
screen,html.Screen,2_1_0_1_46,2022-05-03T12:40:27.369Z,,,,,,,,,,,,,,,,,53,,,,,,,,,,,,,,275.53100019073463,,response,,,,99,,,,,,,Space,keypress(Space),,,,,,,,---- -- ----- -- ------ - ------- --- ----------<br>------------- ------ ------ ---- ---- ------- ----- -- ----<br>-------- ------- -- ---------- --- - --- ----- ----- ----<br>---- --- --- ----- --- ---- ---- ------- ----- ---- -------<br>--- --- -- ----- -- --- ---- to --- ---- -- ------ ------<br>--- ----- -- ----,137931.80000019073,137926.30000019073,137634.102,137640.39999961853,137650.769,137934.108,,46,to
screen,html.Screen,2_1_0_1_47,2022-05-03T12:40:27.651Z,,,,,,,,,,,,,,,,,53,,,,,,,,,,,,,,274.39199999999255,,response,,,,99,,,,,,,Space,keypress(Space),,,,,,,,"---- -- ----- -- ------ - ------- --- ----------<br>------------- ------ ------ ---- ---- ------- ----- -- ----<br>-------- ------- -- ---------- --- - --- ----- ----- ----<br>---- --- --- ----- --- ---- ---- ------- ----- ---- -------<br>--- --- -- ----- -- --- ---- -- be, ---- -- ------ ------<br>--- ----- -- ----",138214.10000038147,138208.5,137917.441,137932,137934.108,138217.447,,47,"be,"
screen,html.Screen,2_1_0_1_48,2022-05-03T12:40:28.086Z,,,,,,,,,,,,,,,,,53,,,,,,,,,,,,,,426.15300038148416,,response,,,,99,,,,,,,Space,keypress(Space),,,,,,,,---- -- ----- -- ------ - ------- --- ----------<br>------------- ------ ------ ---- ---- ------- ----- -- ----<br>-------- ------- -- ---------- --- - --- ----- ----- ----<br>---- --- --- ----- --- ---- ---- ------- ----- ---- -------<br>--- --- -- ----- -- --- ---- -- --- even -- ------ ------<br>--- ----- -- ----,138648.60000038147,138643.60000038147,138200.78,138214.30000019073,138217.447,138650.789,,48,even
screen,html.Screen,2_1_0_1_49,2022-05-03T12:40:28.375Z,,,,,,,,,,,,,,,,,53,,,,,,,,,,,,,,281.81100038147997,,response,,,,99,,,,,,,Space,keypress(Space),,,,,,,,---- -- ----- -- ------ - ------- --- ----------<br>------------- ------ ------ ---- ---- ------- ----- -- ----<br>-------- ------- -- ---------- --- - --- ----- ----- ----<br>---- --- --- ----- --- ---- ---- ------- ----- ---- -------<br>--- --- -- ----- -- --- ---- -- --- ---- if ------ ------<br>--- ----- -- ----,138937.80000019073,138932.60000038147,138634.122,138648.80000019073,138650.789,138950.795,,49,if
screen,html.Screen,2_1_0_1_50,2022-05-03T12:40:28.765Z,,,,,,,,,,,,,,,,,53,,,,,,,,,,,,,,371.8050003814569,,response,,,,99,,,,,,,Space,keypress(Space),,,,,,,,---- -- ----- -- ------ - ------- --- ----------<br>------------- ------ ------ ---- ---- ------- ----- -- ----<br>-------- ------- -- ---------- --- - --- ----- ----- ----<br>---- --- --- ----- --- ---- ---- ------- ----- ---- -------<br>--- --- -- ----- -- --- ---- -- --- ---- -- that's ------<br>--- ----- -- ----,139327.80000019073,139322.60000038147,138934.128,138938,138950.795,139334.136,,50,that's
screen,html.Screen,2_1_0_1_51,2022-05-03T12:40:29.236Z,,,,,,,,,,,,,,,,,53,,,,,,,,,,,,,,461.4640003814711,,response,,,,99,,,,,,,Space,keypress(Space),,,,,,,,---- -- ----- -- ------ - ------- --- ----------<br>------------- ------ ------ ---- ---- ------- ----- -- ----<br>-------- ------- -- ---------- --- - --- ----- ----- ----<br>---- --- --- ----- --- ---- ---- ------- ----- ---- -------<br>--- --- -- ----- -- --- ---- -- --- ---- -- ------ really<br>--- ----- -- ----,139798.69999980927,139795.60000038147,139317.469,139328,139334.136,139800.812,,51,really
screen,html.Screen,2_1_0_1_52,2022-05-03T12:40:29.635Z,,,,,,,,,,,,,,,,,53,,,,,,,,,,,,,,391.68799999999464,,response,,,,99,,,,,,,Space,keypress(Space),,,,,,,,---- -- ----- -- ------ - ------- --- ----------<br>------------- ------ ------ ---- ---- ------- ----- -- ----<br>-------- ------- -- ---------- --- - --- ----- ----- ----<br>---- --- --- ----- --- ---- ---- ------- ----- ---- -------<br>--- --- -- ----- -- --- ---- -- --- ---- -- ------ ------<br>not ----- -- ----,140197.60000038147,140192.5,139784.145,139798.80000019073,139800.812,140200.82,,52,not
screen,html.Screen,2_1_0_1_53,2022-05-03T12:40:30.010Z,,,,,,,,,,,,,,,,,53,,,,,,,,,,,,,,366.9800001907279,,response,,,,99,,,,,,,Space,keypress(Space),,,,,,,,---- -- ----- -- ------ - ------- --- ----------<br>------------- ------ ------ ---- ---- ------- ----- -- ----<br>-------- ------- -- ---------- --- - --- ----- ----- ----<br>---- --- --- ----- --- ---- ---- ------- ----- ---- -------<br>--- --- -- ----- -- --- ---- -- --- ---- -- ------ ------<br>--- close -- ----,140573.30000019073,140567.80000019073,140184.153,140197.89999961853,140200.82,140584.161,,53,close
screen,html.Screen,2_1_0_1_54,2022-05-03T12:40:30.348Z,,,,,,,,,,,,,,,,,53,,,,,,,,,,,,,,321.43900038147694,,response,,,,99,,,,,,,Space,keypress(Space),,,,,,,,---- -- ----- -- ------ - ------- --- ----------<br>------------- ------ ------ ---- ---- ------- ----- -- ----<br>-------- ------- -- ---------- --- - --- ----- ----- ----<br>---- --- --- ----- --- ---- ---- ------- ----- ---- -------<br>--- --- -- ----- -- --- ---- -- --- ---- -- ------ ------<br>--- ----- at ----,140911.19999980927,140905.60000038147,140567.494,140573.60000038147,140584.161,140917.501,,54,at
screen,html.Screen,2_1_0_1_55,2022-05-03T12:40:30.775Z,,,,,,,,,,,,,,,,,53,,,,,,,,,,,,,,414.898999618541,,response,,,,99,,,,,,,Space,keypress(Space),,,,,,,,---- -- ----- -- ------ - ------- --- ----------<br>------------- ------ ------ ---- ---- ------- ----- -- ----<br>-------- ------- -- ---------- --- - --- ----- ----- ----<br>---- --- --- ----- --- ---- ---- ------- ----- ---- -------<br>--- --- -- ----- -- --- ---- -- --- ---- -- ------ ------<br>--- ----- -- all.,141337.60000038147,141332.39999961853,140900.834,140911.39999961853,140917.501,141350.843,,55,all.
Item 99,flow.Loop,2_1_0_1,2022-05-03T12:40:30.775Z,,,,,,,,,,,,,,,,,,,,,,,,,,,,,,,20431.94199961853,,completion,,,,,H,,,,,,,,,,,silence,,,,,141338.10000038147,141332.39999961853,120867.124,120869.60000038147,120900.458,141350.843,,,
Question 1,html.Screen,2_1_0_2,2022-05-03T12:40:36.770Z,,,,,,,,,,,,,,,,,,,,,,,,,,,,true,FALSE,,5980.957000190741,,response,,,,99,H,,,,,,FALSE,click #choice-2,,,,silence,,,,,147333.5,147331.80000019073,141334.176,141338.30000019073,141350.843,147350.963,,,
Question 2,html.Screen,2_1_0_3,2022-05-03T12:40:41.371Z,,,,,,,,,,,,,,,,,,,,,,,,,,,,true,TRUE,,4581.037000000011,,response,,,,99,H,,,,,,TRUE,click #choice-1,,,,silence,,,,,151934.69999980927,151932,147334.296,147333.69999980927,147350.963,151951.055,,,
Item 99,flow.Sequence,2_1_0,2022-05-03T12:40:41.372Z,,,,,,,,,,,,,,,,,,,,,,,,,,,,,,,41048.380999999994,,completion,,,,,,,,,,,,,,,,,,,,,151935,151932,110866.952,110862.39999961853,110883.619,151951.055,,,
Holding screen,html.Screen,2_1_1_0,2022-05-03T12:40:51.373Z,,,,,,,,,,,,,,,,,,,,,,,,,,,,,,,10000.23000000001,,timeout,,,,,,,,,,,,,,,,,,,,,161937,161934.618,151934.388,151935.19999980927,151951.055,161951.285,,,
screen,html.Screen,2_1_1_1_0,2022-05-03T12:40:52.498Z,,,,,,,,,,,,,,,,,54,,,,,,,,,,,,,,1099.6149996185268,,response,,,,100,,,,,,,Space,keypress(Space),,,,,,,,At --- ---- --- ------ ----- ------- ---- -- --- ------- --<br>------- ---------- ------ -- ----- -- ----- -- ---- ------<br>--- ----- --- --- ------ -------- ----- --- ------ ----- --<br>----- ----- ---------- --- --- ------ ------ ---- -- ------<br>------- --- ------ ----- --- ---- ------- -- ---- --- --<br>------- ------,163061.80000019073,163050.89999961853,161934.618,161937.5,161951.285,163067.974,,0,At
screen,html.Screen,2_1_1_1_1,2022-05-03T12:40:52.846Z,,,,,,,,,,,,,,,,,54,,,,,,,,,,,,,,335.92599961854285,,response,,,,100,,,,,,,Space,keypress(Space),,,,,,,,-- the ---- --- ------ ----- ------- ---- -- --- ------- --<br>------- ---------- ------ -- ----- -- ----- -- ---- ------<br>--- ----- --- --- ------ -------- ----- --- ------ ----- --<br>----- ----- ---------- --- --- ------ ------ ---- -- ------<br>------- --- ------ ----- --- ---- ------- -- ---- --- --<br>------- ------,163409.69999980927,163403.89999961853,163051.307,163061.89999961853,163067.974,163417.981,,1,the
screen,html.Screen,2_1_1_1_2,2022-05-03T12:40:53.176Z,,,,,,,,,,,,,,,,,54,,,,,,,,,,,,,,316.01900000000023,,response,,,,100,,,,,,,Space,keypress(Space),,,,,,,,-- --- time --- ------ ----- ------- ---- -- --- ------- --<br>------- ---------- ------ -- ----- -- ----- -- ---- ------<br>--- ----- --- --- ------ -------- ----- --- ------ ----- --<br>----- ----- ---------- --- --- ------ ------ ---- -- ------<br>------- --- ------ ----- --- ---- ------- -- ---- --- --<br>------- ------,163739.80000019073,163734,163401.314,163409.89999961853,163417.981,163751.315,,2,time
screen,html.Screen,2_1_1_1_3,2022-05-03T12:40:53.314Z,,,,,,,,,,,,,,,,,54,,,,,,,,,,,,,,121.2850003814674,,response,,,,100,,,,,,,Space,keypress(Space),,,,,,,,-- --- ---- the ------ ----- ------- ---- -- --- ------- --<br>------- ---------- ------ -- ----- -- ----- -- ---- ------<br>--- ----- --- --- ------ -------- ----- --- ------ ----- --<br>----- ----- ---------- --- --- ------ ------ ---- -- ------<br>------- --- ------ ----- --- ---- ------- -- ---- --- --<br>------- ------,163878.10000038147,163872.60000038147,163734.648,163740.10000038147,163751.315,163884.651,,3,the
screen,html.Screen,2_1_1_1_4,2022-05-03T12:40:53.489Z,,,,,,,,,,,,,,,,,54,,,,,,,,,,,,,,162.7489996185177,,response,,,,100,,,,,,,Space,keypress(Space),,,,,,,,-- --- ---- --- French ----- ------- ---- -- --- ------- --<br>------- ---------- ------ -- ----- -- ----- -- ---- ------<br>--- ----- --- --- ------ -------- ----- --- ------ ----- --<br>----- ----- ---------- --- --- ------ ------ ---- -- ------<br>------- --- ------ ----- --- ---- ------- -- ---- --- --<br>------- ------,164053,164047.39999961853,163867.984,163878.30000019073,163884.651,164067.988,,4,French
screen,html.Screen,2_1_1_1_5,2022-05-03T12:40:53.703Z,,,,,,,,,,,,,,,,,54,,,,,,,,,,,,,,193.71199980925303,,response,,,,100,,,,,,,Space,keypress(Space),,,,,,,,-- --- ---- --- ------ crown ------- ---- -- --- ------- --<br>------- ---------- ------ -- ----- -- ----- -- ---- ------<br>--- ----- --- --- ------ -------- ----- --- ------ ----- --<br>----- ----- ---------- --- --- ------ ------ ---- -- ------<br>------- --- ------ ----- --- ---- ------- -- ---- --- --<br>------- ------,164267.19999980927,164261.69999980927,164051.321,164053.19999980927,164067.988,164284.659,,5,crown
screen,html.Screen,2_1_1_1_6,2022-05-03T12:40:53.982Z,,,,,,,,,,,,,,,,,54,,,,,,,,,,,,,,255.94100038145552,,response,,,,100,,,,,,,Space,keypress(Space),,,,,,,,-- --- ---- --- ------ ----- secured ---- -- --- ------- --<br>------- ---------- ------ -- ----- -- ----- -- ---- ------<br>--- ----- --- --- ------ -------- ----- --- ------ ----- --<br>----- ----- ---------- --- --- ------ ------ ---- -- ------<br>------- --- ------ ----- --- ---- ------- -- ---- --- --<br>------- ------,164545.80000019073,164540.60000038147,164267.992,164267.60000038147,164284.659,164551.331,,6,secured
screen,html.Screen,2_1_1_1_7,2022-05-03T12:40:54.309Z,,,,,,,,,,,,,,,,,54,,,,,,,,,,,,,,316.36899980925955,,response,,,,100,,,,,,,Space,keypress(Space),,,,,,,,-- --- ---- --- ------ ----- ------- much -- --- ------- --<br>------- ---------- ------ -- ----- -- ----- -- ---- ------<br>--- ----- --- --- ------ -------- ----- --- ------ ----- --<br>----- ----- ---------- --- --- ------ ------ ---- -- ------<br>------- --- ------ ----- --- ---- ------- -- ---- --- --<br>------- ------,164873.10000038147,164867.69999980927,164534.664,164546,164551.331,164884.671,,7,much
screen,html.Screen,2_1_1_1_8,2022-05-03T12:40:54.637Z,,,,,,,,,,,,,,,,,54,,,,,,,,,,,,,,310.3289999999979,,response,,,,100,,,,,,,Space,keypress(Space),,,,,,,,-- --- ---- --- ------ ----- ------- ---- of --- ------- --<br>------- ---------- ------ -- ----- -- ----- -- ---- ------<br>--- ----- --- --- ------ -------- ----- --- ------ ----- --<br>----- ----- ---------- --- --- ------ ------ ---- -- ------<br>------- --- ------ ----- --- ---- ------- -- ---- --- --<br>------- ------,165200.39999961853,165195,164868.004,164873.39999961853,164884.671,165218.011,,8,of
screen,html.Screen,2_1_1_1_9,2022-05-03T12:40:54.935Z,,,,,,,,,,,,,,,,,54,,,,,,,,,,,,,,275.5890003814711,,response,,,,100,,,,,,,Space,keypress(Space),,,,,,,,-- --- ---- --- ------ ----- ------- ---- -- its ------- --<br>------- ---------- ------ -- ----- -- ----- -- ---- ------<br>--- ----- --- --- ------ -------- ----- --- ------ ----- --<br>----- ----- ---------- --- --- ------ ------ ---- -- ------<br>------- --- ------ ----- --- ---- ------- -- ---- --- --<br>------- ------,165499.19999980927,165493.60000038147,165201.344,165200.60000038147,165218.011,165501.35,,9,its
screen,html.Screen,2_1_1_1_10,2022-05-03T12:40:55.288Z,,,,,,,,,,,,,,,,,54,,,,,,,,,,,,,,344.8499998092593,,response,,,,100,,,,,,,Space,keypress(Space),,,,,,,,-- --- ---- --- ------ ----- ------- ---- -- --- revenue --<br>------- ---------- ------ -- ----- -- ----- -- ---- ------<br>--- ----- --- --- ------ -------- ----- --- ------ ----- --<br>----- ----- ---------- --- --- ------ ------ ---- -- ------<br>------- --- ------ ----- --- ---- ------- -- ---- --- --<br>------- ------,165851.80000019073,165846.19999980927,165484.683,165499.5,165501.35,165868.024,,10,revenue
screen,html.Screen,2_1_1_1_11,2022-05-03T12:40:55.661Z,,,,,,,,,,,,,,,,,54,,,,,,,,,,,,,,351.3759996185254,,response,,,,100,,,,,,,Space,keypress(Space),,,,,,,,-- --- ---- --- ------ ----- ------- ---- -- --- ------- by<br>------- ---------- ------ -- ----- -- ----- -- ---- ------<br>--- ----- --- --- ------ -------- ----- --- ------ ----- --<br>----- ----- ---------- --- --- ------ ------ ---- -- ------<br>------- --- ------ ----- --- ---- ------- -- ---- --- --<br>------- ------,166224.69999980927,166219.39999961853,165851.357,165852.10000038147,165868.024,166234.698,,11,by
screen,html.Screen,2_1_1_1_12,2022-05-03T12:40:55.963Z,,,,,,,,,,,,,,,,,54,,,,,,,,,,,,,,288.40200038146577,,response,,,,100,,,,,,,Space,keypress(Space),,,,,,,,-- --- ---- --- ------ ----- ------- ---- -- --- ------- --<br>issuing ---------- ------ -- ----- -- ----- -- ---- ------<br>--- ----- --- --- ------ -------- ----- --- ------ ----- --<br>----- ----- ---------- --- --- ------ ------ ---- -- ------<br>------- --- ------ ----- --- ---- ------- -- ---- --- --<br>------- ------,166526.60000038147,166523.10000038147,166218.031,166225,166234.698,166534.704,,12,issuing
screen,html.Screen,2_1_1_1_13,2022-05-03T12:40:56.249Z,,,,,,,,,,,,,,,,,54,,,,,,,,,,,,,,271.7960000000021,,response,,,,100,,,,,,,Space,keypress(Space),,,,,,,,-- --- ---- --- ------ ----- ------- ---- -- --- ------- --<br>------- government ------ -- ----- -- ----- -- ---- ------<br>--- ----- --- --- ------ -------- ----- --- ------ ----- --<br>----- ----- ---------- --- --- ------ ------ ---- -- ------<br>------- --- ------ ----- --- ---- ------- -- ---- --- --<br>------- ------,166812.30000019073,166806.5,166518.037,166526.69999980927,166534.704,166818.043,,13,government
screen,html.Screen,2_1_1_1_14,2022-05-03T12:40:56.463Z,,,,,,,,,,,,,,,,,54,,,,,,,,,,,,,,202.65699980926001,,response,,,,100,,,,,,,Space,keypress(Space),,,,,,,,-- --- ---- --- ------ ----- ------- ---- -- --- ------- --<br>------- ---------- bonds. -- ----- -- ----- -- ---- ------<br>--- ----- --- --- ------ -------- ----- --- ------ ----- --<br>----- ----- ---------- --- --- ------ ------ ---- -- ------<br>------- --- ------ ----- --- ---- ------- -- ---- --- --<br>------- ------,167026.60000038147,167020.69999980927,166801.376,166814.19999980927,166818.043,167034.714,,14,bonds.
screen,html.Screen,2_1_1_1_15,2022-05-03T12:40:56.755Z,,,,,,,,,,,,,,,,,54,,,,,,,,,,,,,,278.7859999999928,,response,,,,100,,,,,,,Space,keypress(Space),,,,,,,,-- --- ---- --- ------ ----- ------- ---- -- --- ------- --<br>------- ---------- ------ In ----- -- ----- -- ---- ------<br>--- ----- --- --- ------ -------- ----- --- ------ ----- --<br>----- ----- ---------- --- --- ------ ------ ---- -- ------<br>------- --- ------ ----- --- ---- ------- -- ---- --- --<br>------- ------,167318.69999980927,167313.5,167018.047,167026.80000019073,167034.714,167334.72,,15,In
screen,html.Screen,2_1_1_1_16,2022-05-03T12:40:57.005Z,,,,,,,,,,,,,,,,,54,,,,,,,,,,,,,,228.1799996185291,,response,,,,100,,,,,,,Space,keypress(Space),,,,,,,,"-- --- ---- --- ------ ----- ------- ---- -- --- ------- --<br>------- ---------- ------ -- 1727, -- ----- -- ---- ------<br>--- ----- --- --- ------ -------- ----- --- ------ ----- --<br>----- ----- ---------- --- --- ------ ------ ---- -- ------<br>------- --- ------ ----- --- ---- ------- -- ---- --- --<br>------- ------",167568.60000038147,167562.89999961853,167318.053,167318.89999961853,167334.72,167584.725,,16,"1727,"
screen,html.Screen,2_1_1_1_17,2022-05-03T12:40:57.234Z,,,,,,,,,,,,,,,,,54,,,,,,,,,,,,,,208.17499961852445,,response,,,,100,,,,,,,Space,keypress(Space),,,,,,,,-- --- ---- --- ------ ----- ------- ---- -- --- ------- --<br>------- ---------- ------ -- ----- in ----- -- ---- ------<br>--- ----- --- --- ------ -------- ----- --- ------ ----- --<br>----- ----- ---------- --- --- ------ ------ ---- -- ------<br>------- --- ------ ----- --- ---- ------- -- ---- --- --<br>------- ------,167797.69999980927,167792.89999961853,167568.058,167568.89999961853,167584.725,167801.396,,17,in
screen,html.Screen,2_1_1_1_18,2022-05-03T12:40:58.404Z,,,,,,,,,,,,,,,,,54,,,,,,,,,,,,,,1160.5039996185224,,response,,,,100,,,,,,,Space,keypress(Space),,,,,,,,-- --- ---- --- ------ ----- ------- ---- -- --- ------- --<br>------- ---------- ------ -- ----- -- order -- ---- ------<br>--- ----- --- --- ------ -------- ----- --- ------ ----- --<br>----- ----- ---------- --- --- ------ ------ ---- -- ------<br>------- --- ------ ----- --- ---- ------- -- ---- --- --<br>------- ------,168967.39999961853,168961.89999961853,167784.729,167798,167801.396,168984.753,,18,order
screen,html.Screen,2_1_1_1_19,2022-05-03T12:40:58.869Z,,,,,,,,,,,,,,,,,54,,,,,,,,,,,,,,442.94699980926816,,response,,,,100,,,,,,,Space,keypress(Space),,,,,,,,-- --- ---- --- ------ ----- ------- ---- -- --- ------- --<br>------- ---------- ------ -- ----- -- ----- to ---- ------<br>--- ----- --- --- ------ -------- ----- --- ------ ----- --<br>----- ----- ---------- --- --- ------ ------ ---- -- ------<br>------- --- ------ ----- --- ---- ------- -- ---- --- --<br>------- ------,169432.89999961853,169427.69999980927,168968.086,168967.69999980927,168984.753,169434.762,,19,to
screen,html.Screen,2_1_1_1_20,2022-05-03T12:40:59.315Z,,,,,,,,,,,,,,,,,54,,,,,,,,,,,,,,438.7380000000121,,response,,,,100,,,,,,,Space,keypress(Space),,,,,,,,-- --- ---- --- ------ ----- ------- ---- -- --- ------- --<br>------- ---------- ------ -- ----- -- ----- -- save ------<br>--- ----- --- --- ------ -------- ----- --- ------ ----- --<br>----- ----- ---------- --- --- ------ ------ ---- -- ------<br>------- --- ------ ----- --- ---- ------- -- ---- --- --<br>------- ------,169879.10000038147,169873.5,169418.095,169433.10000038147,169434.762,169884.771,,20,save
screen,html.Screen,2_1_1_1_21,2022-05-03T12:40:59.676Z,,,,,,,,,,,,,,,,,54,,,,,,,,,,,,,,349.9289998092572,,response,,,,100,,,,,,,Space,keypress(Space),,,,,,,,"-- --- ---- --- ------ ----- ------- ---- -- --- ------- --<br>------- ---------- ------ -- ----- -- ----- -- ---- money,<br>--- ----- --- --- ------ -------- ----- --- ------ ----- --<br>----- ----- ---------- --- --- ------ ------ ---- -- ------<br>------- --- ------ ----- --- ---- ------- -- ---- --- --<br>------- ------",170240.19999980927,170234.69999980927,169868.104,169879.5,169884.771,170251.445,,21,"money,"
screen,html.Screen,2_1_1_1_22,2022-05-03T12:41:00.001Z,,,,,,,,,,,,,,,,,54,,,,,,,,,,,,,,307.25499980925815,,response,,,,100,,,,,,,Space,keypress(Space),,,,,,,,-- --- ---- --- ------ ----- ------- ---- -- --- ------- --<br>------- ---------- ------ -- ----- -- ----- -- ---- ------<br>the ----- --- --- ------ -------- ----- --- ------ ----- --<br>----- ----- ---------- --- --- ------ ------ ---- -- ------<br>------- --- ------ ----- --- ---- ------- -- ---- --- --<br>------- ------,170564.39999961853,170558.69999980927,170234.778,170240.5,170251.445,170568.118,,22,the
screen,html.Screen,2_1_1_1_23,2022-05-03T12:41:00.292Z,,,,,,,,,,,,,,,,,54,,,,,,,,,,,,,,282.38200000001234,,response,,,,100,,,,,,,Space,keypress(Space),,,,,,,,-- --- ---- --- ------ ----- ------- ---- -- --- ------- --<br>------- ---------- ------ -- ----- -- ----- -- ---- ------<br>--- state --- --- ------ -------- ----- --- ------ ----- --<br>----- ----- ---------- --- --- ------ ------ ---- -- ------<br>------- --- ------ ----- --- ---- ------- -- ---- --- --<br>------- ------,170855.5,170850.5,170551.451,170564.80000019073,170568.118,170868.124,,23,state
screen,html.Screen,2_1_1_1_24,2022-05-03T12:41:00.637Z,,,,,,,,,,,,,,,,,54,,,,,,,,,,,,,,327.67600019072415,,response,,,,100,,,,,,,Space,keypress(Space),,,,,,,,-- --- ---- --- ------ ----- ------- ---- -- --- ------- --<br>------- ---------- ------ -- ----- -- ----- -- ---- ------<br>--- ----- cut --- ------ -------- ----- --- ------ ----- --<br>----- ----- ---------- --- --- ------ ------ ---- -- ------<br>------- --- ------ ----- --- ---- ------- -- ---- --- --<br>------- ------,171201.30000019073,171195.80000019073,170851.457,170855.69999980927,170868.124,171218.131,,24,cut
screen,html.Screen,2_1_1_1_25,2022-05-03T12:41:00.959Z,,,,,,,,,,,,,,,,,54,,,,,,,,,,,,,,299.2689996185363,,response,,,,100,,,,,,,Space,keypress(Space),,,,,,,,-- --- ---- --- ------ ----- ------- ---- -- --- ------- --<br>------- ---------- ------ -- ----- -- ----- -- ---- ------<br>--- ----- --- the ------ -------- ----- --- ------ ----- --<br>----- ----- ---------- --- --- ------ ------ ---- -- ------<br>------- --- ------ ----- --- ---- ------- -- ---- --- --<br>------- ------,171523.10000038147,171517.39999961853,171201.464,171201.69999980927,171218.131,171534.804,,25,the
screen,html.Screen,2_1_1_1_26,2022-05-03T12:41:01.247Z,,,,,,,,,,,,,,,,,54,,,,,,,,,,,,,,271.3959998092614,,response,,,,100,,,,,,,Space,keypress(Space),,,,,,,,-- --- ---- --- ------ ----- ------- ---- -- --- ------- --<br>------- ---------- ------ -- ----- -- ----- -- ---- ------<br>--- ----- --- --- bonds' -------- ----- --- ------ ----- --<br>----- ----- ---------- --- --- ------ ------ ---- -- ------<br>------- --- ------ ----- --- ---- ------- -- ---- --- --<br>------- ------,171810.80000019073,171806.19999980927,171518.137,171523.30000019073,171534.804,171818.143,,26,bonds'
screen,html.Screen,2_1_1_1_27,2022-05-03T12:41:01.561Z,,,,,,,,,,,,,,,,,54,,,,,,,,,,,,,,301.5569998092542,,response,,,,100,,,,,,,Space,keypress(Space),,,,,,,,-- --- ---- --- ------ ----- ------- ---- -- --- ------- --<br>------- ---------- ------ -- ----- -- ----- -- ---- ------<br>--- ----- --- --- ------ interest ----- --- ------ ----- --<br>----- ----- ---------- --- --- ------ ------ ---- -- ------<br>------- --- ------ ----- --- ---- ------- -- ---- --- --<br>------- ------,172125.39999961853,172119.69999980927,171801.476,171811,171818.143,172134.816,,27,interest
screen,html.Screen,2_1_1_1_28,2022-05-03T12:41:01.874Z,,,,,,,,,,,,,,,,,54,,,,,,,,,,,,,,297.6840000000084,,response,,,,100,,,,,,,Space,keypress(Space),,,,,,,,-- --- ---- --- ------ ----- ------- ---- -- --- ------- --<br>------- ---------- ------ -- ----- -- ----- -- ---- ------<br>--- ----- --- --- ------ -------- rate. --- ------ ----- --<br>----- ----- ---------- --- --- ------ ------ ---- -- ------<br>------- --- ------ ----- --- ---- ------- -- ---- --- --<br>------- ------,172438.10000038147,172432.5,172118.149,172125.80000019073,172134.816,172451.489,,28,rate.
screen,html.Screen,2_1_1_1_29,2022-05-03T12:41:02.166Z,,,,,,,,,,,,,,,,,54,,,,,,,,,,,,,,272.9109996185289,,response,,,,100,,,,,,,Space,keypress(Space),,,,,,,,-- --- ---- --- ------ ----- ------- ---- -- --- ------- --<br>------- ---------- ------ -- ----- -- ----- -- ---- ------<br>--- ----- --- --- ------ -------- ----- The ------ ----- --<br>----- ----- ---------- --- --- ------ ------ ---- -- ------<br>------- --- ------ ----- --- ---- ------- -- ---- --- --<br>------- ------,172729.69999980927,172724.39999961853,172434.822,172438.39999961853,172451.489,172734.828,,29,The
screen,html.Screen,2_1_1_1_30,2022-05-03T12:41:02.590Z,,,,,,,,,,,,,,,,,54,,,,,,,,,,,,,,412.8719998092565,,response,,,,100,,,,,,,Space,keypress(Space),,,,,,,,-- --- ---- --- ------ ----- ------- ---- -- --- ------- --<br>------- ---------- ------ -- ----- -- ----- -- ---- ------<br>--- ----- --- --- ------ -------- ----- --- market ----- --<br>----- ----- ---------- --- --- ------ ------ ---- -- ------<br>------- --- ------ ----- --- ---- ------- -- ---- --- --<br>------- ------,173154.19999980927,173147.69999980927,172718.161,172729.89999961853,172734.828,173168.17,,30,market
screen,html.Screen,2_1_1_1_31,2022-05-03T12:41:02.957Z,,,,,,,,,,,,,,,,,54,,,,,,,,,,,,,,346.8299999999872,,response,,,,100,,,,,,,Space,keypress(Space),,,,,,,,-- --- ---- --- ------ ----- ------- ---- -- --- ------- --<br>------- ---------- ------ -- ----- -- ----- -- ---- ------<br>--- ----- --- --- ------ -------- ----- --- ------ value --<br>----- ----- ---------- --- --- ------ ------ ---- -- ------<br>------- --- ------ ----- --- ---- ------- -- ---- --- --<br>------- ------,173520.69999980927,173515,173151.503,173154.39999961853,173168.17,173534.844,,31,value
screen,html.Screen,2_1_1_1_32,2022-05-03T12:41:03.337Z,,,,,,,,,,,,,,,,,54,,,,,,,,,,,,,,360.75600038145785,,response,,,,100,,,,,,,Space,keypress(Space),,,,,,,,-- --- ---- --- ------ ----- ------- ---- -- --- ------- --<br>------- ---------- ------ -- ----- -- ----- -- ---- ------<br>--- ----- --- --- ------ -------- ----- --- ------ ----- of<br>----- ----- ---------- --- --- ------ ------ ---- -- ------<br>------- --- ------ ----- --- ---- ------- -- ---- --- --<br>------- ------,173901.19999980927,173895.60000038147,173518.177,173521,173534.844,173918.239,,32,of
screen,html.Screen,2_1_1_1_33,2022-05-03T12:41:03.742Z,,,,,,,,,,,,,,,,,54,,,,,,,,,,,,,,382.86100038146833,,response,,,,100,,,,,,,Space,keypress(Space),,,,,,,,-- --- ---- --- ------ ----- ------- ---- -- --- ------- --<br>------- ---------- ------ -- ----- -- ----- -- ---- ------<br>--- ----- --- --- ------ -------- ----- --- ------ ----- --<br>these ----- ---------- --- --- ------ ------ ---- -- ------<br>------- --- ------ ----- --- ---- ------- -- ---- --- --<br>------- ------,174306,174301.10000038147,173901.572,173901.60000038147,173918.239,174318.247,,33,these
screen,html.Screen,2_1_1_1_34,2022-05-03T12:41:04.088Z,,,,,,,,,,,,,,,,,54,,,,,,,,,,,,,,328.4529998092621,,response,,,,100,,,,,,,Space,keypress(Space),,,,,,,,-- --- ---- --- ------ ----- ------- ---- -- --- ------- --<br>------- ---------- ------ -- ----- -- ----- -- ---- ------<br>--- ----- --- --- ------ -------- ----- --- ------ ----- --<br>----- bonds ---------- --- --- ------ ------ ---- -- ------<br>------- --- ------ ----- --- ---- ------- -- ---- --- --<br>------- ------,174651.80000019073,174646.69999980927,174301.58,174306.19999980927,174318.247,174668.254,,34,bonds
screen,html.Screen,2_1_1_1_35,2022-05-03T12:41:04.453Z,,,,,,,,,,,,,,,,,54,,,,,,,,,,,,,,343.145999618544,,response,,,,100,,,,,,,Space,keypress(Space),,,,,,,,"-- --- ---- --- ------ ----- ------- ---- -- --- ------- --<br>------- ---------- ------ -- ----- -- ----- -- ---- ------<br>--- ----- --- --- ------ -------- ----- --- ------ ----- --<br>----- ----- plummeted, --- --- ------ ------ ---- -- ------<br>------- --- ------ ----- --- ---- ------- -- ---- --- --<br>------- ------",175017,175011.39999961853,174651.587,174652,174668.254,175034.928,,35,"plummeted,"
screen,html.Screen,2_1_1_1_36,2022-05-03T12:41:04.858Z,,,,,,,,,,,,,,,,,54,,,,,,,,,,,,,,382.47199961851584,,response,,,,100,,,,,,,Space,keypress(Space),,,,,,,,-- --- ---- --- ------ ----- ------- ---- -- --- ------- --<br>------- ---------- ------ -- ----- -- ----- -- ---- ------<br>--- ----- --- --- ------ -------- ----- --- ------ ----- --<br>----- ----- ---------- and --- ------ ------ ---- -- ------<br>------- --- ------ ----- --- ---- ------- -- ---- --- --<br>------- ------,175422.19999980927,175417.39999961853,175018.261,175017.19999980927,175034.928,175434.936,,36,and
screen,html.Screen,2_1_1_1_37,2022-05-03T12:41:05.140Z,,,,,,,,,,,,,,,,,54,,,,,,,,,,,,,,264.4639996185433,,response,,,,100,,,,,,,Space,keypress(Space),,,,,,,,-- --- ---- --- ------ ----- ------- ---- -- --- ------- --<br>------- ---------- ------ -- ----- -- ----- -- ---- ------<br>--- ----- --- --- ------ -------- ----- --- ------ ----- --<br>----- ----- ---------- --- the ------ ------ ---- -- ------<br>------- --- ------ ----- --- ---- ------- -- ---- --- --<br>------- ------,175704.30000019073,175699.39999961853,175418.269,175422.39999961853,175434.936,175718.275,,37,the
screen,html.Screen,2_1_1_1_38,2022-05-03T12:41:05.390Z,,,,,,,,,,,,,,,,,54,,,,,,,,,,,,,,230.32500038147555,,response,,,,100,,,,,,,Space,keypress(Space),,,,,,,,-- --- ---- --- ------ ----- ------- ---- -- --- ------- --<br>------- ---------- ------ -- ----- -- ----- -- ---- ------<br>--- ----- --- --- ------ -------- ----- --- ------ ----- --<br>----- ----- ---------- --- --- market ------ ---- -- ------<br>------- --- ------ ----- --- ---- ------- -- ---- --- --<br>------- ------,175954.10000038147,175948.60000038147,175701.608,175704.39999961853,175718.275,175968.28,,38,market
screen,html.Screen,2_1_1_1_39,2022-05-03T12:41:05.660Z,,,,,,,,,,,,,,,,,54,,,,,,,,,,,,,,250.22000000000116,,response,,,,100,,,,,,,Space,keypress(Space),,,,,,,,-- --- ---- --- ------ ----- ------- ---- -- --- ------- --<br>------- ---------- ------ -- ----- -- ----- -- ---- ------<br>--- ----- --- --- ------ -------- ----- --- ------ ----- --<br>----- ----- ---------- --- --- ------ became ---- -- ------<br>------- --- ------ ----- --- ---- ------- -- ---- --- --<br>------- ------,176224.10000038147,176218.5,175951.613,175954.60000038147,175968.28,176234.952,,39,became
screen,html.Screen,2_1_1_1_40,2022-05-03T12:41:06.009Z,,,,,,,,,,,,,,,,,54,,,,,,,,,,,,,,333.6480003814795,,response,,,,100,,,,,,,Space,keypress(Space),,,,,,,,-- --- ---- --- ------ ----- ------- ---- -- --- ------- --<br>------- ---------- ------ -- ----- -- ----- -- ---- ------<br>--- ----- --- --- ------ -------- ----- --- ------ ----- --<br>----- ----- ---------- --- --- ------ ------ wary -- ------<br>------- --- ------ ----- --- ---- ------- -- ---- --- --<br>------- ------,176573.60000038147,176568.60000038147,176218.285,176224.19999980927,176234.952,176584.959,,40,wary
screen,html.Screen,2_1_1_1_41,2022-05-03T12:41:06.382Z,,,,,,,,,,,,,,,,,54,,,,,,,,,,,,,,358.3410001907323,,response,,,,100,,,,,,,Space,keypress(Space),,,,,,,,-- --- ---- --- ------ ----- ------- ---- -- --- ------- --<br>------- ---------- ------ -- ----- -- ----- -- ---- ------<br>--- ----- --- --- ------ -------- ----- --- ------ ----- --<br>----- ----- ---------- --- --- ------ ------ ---- of ------<br>------- --- ------ ----- --- ---- ------- -- ---- --- --<br>------- ------,176946.60000038147,176943.30000019073,176568.292,176573.80000019073,176584.959,176951.633,,41,of
screen,html.Screen,2_1_1_1_42,2022-05-03T12:41:06.817Z,,,,,,,,,,,,,,,,,54,,,,,,,,,,,,,,423.9670003814681,,response,,,,100,,,,,,,Space,keypress(Space),,,,,,,,-- --- ---- --- ------ ----- ------- ---- -- --- ------- --<br>------- ---------- ------ -- ----- -- ----- -- ---- ------<br>--- ----- --- --- ------ -------- ----- --- ------ ----- --<br>----- ----- ---------- --- --- ------ ------ ---- -- French<br>------- --- ------ ----- --- ---- ------- -- ---- --- --<br>------- ------,177381,177375.60000038147,176934.966,176946.69999980927,176951.633,177384.975,,42,French
screen,html.Screen,2_1_1_1_43,2022-05-03T12:41:07.307Z,,,,,,,,,,,,,,,,,54,,,,,,,,,,,,,,480.6250003814639,,response,,,,100,,,,,,,Space,keypress(Space),,,,,,,,-- --- ---- --- ------ ----- ------- ---- -- --- ------- --<br>------- ---------- ------ -- ----- -- ----- -- ---- ------<br>--- ----- --- --- ------ -------- ----- --- ------ ----- --<br>----- ----- ---------- --- --- ------ ------ ---- -- ------<br>credit. --- ------ ----- --- ---- ------- -- ---- --- --<br>------- ------,177870.89999961853,177865.60000038147,177368.308,177381.19999980927,177384.975,177884.985,,43,credit.
screen,html.Screen,2_1_1_1_44,2022-05-03T12:41:07.610Z,,,,,,,,,,,,,,,,,54,,,,,,,,,,,,,,283.01500000001397,,response,,,,100,,,,,,,Space,keypress(Space),,,,,,,,-- --- ---- --- ------ ----- ------- ---- -- --- ------- --<br>------- ---------- ------ -- ----- -- ----- -- ---- ------<br>--- ----- --- --- ------ -------- ----- --- ------ ----- --<br>----- ----- ---------- --- --- ------ ------ ---- -- ------<br>------- The ------ ----- --- ---- ------- -- ---- --- --<br>------- ------,178173.69999980927,178168,177868.318,177871.10000038147,177884.985,178184.991,,44,The
screen,html.Screen,2_1_1_1_45,2022-05-03T12:41:07.837Z,,,,,,,,,,,,,,,,,54,,,,,,,,,,,,,,210.9089996185212,,response,,,,100,,,,,,,Space,keypress(Space),,,,,,,,-- --- ---- --- ------ ----- ------- ---- -- --- ------- --<br>------- ---------- ------ -- ----- -- ----- -- ---- ------<br>--- ----- --- --- ------ -------- ----- --- ------ ----- --<br>----- ----- ---------- --- --- ------ ------ ---- -- ------<br>------- --- French ----- --- ---- ------- -- ---- --- --<br>------- ------,178401.39999961853,178395.89999961853,178168.324,178173.89999961853,178184.991,178418.329,,45,French
screen,html.Screen,2_1_1_1_46,2022-05-03T12:41:08.161Z,,,,,,,,,,,,,,,,,54,,,,,,,,,,,,,,301.2710003814718,,response,,,,100,,,,,,,Space,keypress(Space),,,,,,,,-- --- ---- --- ------ ----- ------- ---- -- --- ------- --<br>------- ---------- ------ -- ----- -- ----- -- ---- ------<br>--- ----- --- --- ------ -------- ----- --- ------ ----- --<br>----- ----- ---------- --- --- ------ ------ ---- -- ------<br>------- --- ------ state --- ---- ------- -- ---- --- --<br>------- ------,178725.30000019073,178719.60000038147,178401.662,178401.69999980927,178418.329,178735.002,,46,state
screen,html.Screen,2_1_1_1_47,2022-05-03T12:41:08.721Z,,,,,,,,,,,,,,,,,54,,,,,,,,,,,,,,545.4979999999923,,response,,,,100,,,,,,,Space,keypress(Space),,,,,,,,-- --- ---- --- ------ ----- ------- ---- -- --- ------- --<br>------- ---------- ------ -- ----- -- ----- -- ---- ------<br>--- ----- --- --- ------ -------- ----- --- ------ ----- --<br>----- ----- ---------- --- --- ------ ------ ---- -- ------<br>------- --- ------ ----- was ---- ------- -- ---- --- --<br>------- ------,179285.60000038147,179280.5,178718.335,178725.5,178735.002,179301.68,,47,was
screen,html.Screen,2_1_1_1_48,2022-05-03T12:41:09.016Z,,,,,,,,,,,,,,,,,54,,,,,,,,,,,,,,273.12000019074185,,response,,,,100,,,,,,,Space,keypress(Space),,,,,,,,-- --- ---- --- ------ ----- ------- ---- -- --- ------- --<br>------- ---------- ------ -- ----- -- ----- -- ---- ------<br>--- ----- --- --- ------ -------- ----- --- ------ ----- --<br>----- ----- ---------- --- --- ------ ------ ---- -- ------<br>------- --- ------ ----- --- left ------- -- ---- --- --<br>------- ------,179580.60000038147,179574.80000019073,179285.013,179285.80000019073,179301.68,179585.019,,48,left
screen,html.Screen,2_1_1_1_49,2022-05-03T12:41:09.367Z,,,,,,,,,,,,,,,,,54,,,,,,,,,,,,,,340.5810003814695,,response,,,,100,,,,,,,Space,keypress(Space),,,,,,,,-- --- ---- --- ------ ----- ------- ---- -- --- ------- --<br>------- ---------- ------ -- ----- -- ----- -- ---- ------<br>--- ----- --- --- ------ -------- ----- --- ------ ----- --<br>----- ----- ---------- --- --- ------ ------ ---- -- ------<br>------- --- ------ ----- --- ---- without -- ---- --- --<br>------- ------,179930.89999961853,179925.60000038147,179568.352,179580.89999961853,179585.019,179935.026,,49,without
screen,html.Screen,2_1_1_1_50,2022-05-03T12:41:09.666Z,,,,,,,,,,,,,,,,,54,,,,,,,,,,,,,,290.3739996185177,,response,,,,100,,,,,,,Space,keypress(Space),,,,,,,,-- --- ---- --- ------ ----- ------- ---- -- --- ------- --<br>------- ---------- ------ -- ----- -- ----- -- ---- ------<br>--- ----- --- --- ------ -------- ----- --- ------ ----- --<br>----- ----- ---------- --- --- ------ ------ ---- -- ------<br>------- --- ------ ----- --- ---- ------- an ---- --- --<br>------- ------,180230.5,180225.39999961853,179918.359,179931.19999980927,179935.026,180235.032,,50,an
screen,html.Screen,2_1_1_1_51,2022-05-03T12:41:09.901Z,,,,,,,,,,,,,,,,,54,,,,,,,,,,,,,,224.86799961852375,,response,,,,100,,,,,,,Space,keypress(Space),,,,,,,,-- --- ---- --- ------ ----- ------- ---- -- --- ------- --<br>------- ---------- ------ -- ----- -- ----- -- ---- ------<br>--- ----- --- --- ------ -------- ----- --- ------ ----- --<br>----- ----- ---------- --- --- ------ ------ ---- -- ------<br>------- --- ------ ----- --- ---- ------- -- easy --- --<br>------- ------,180465.60000038147,180459.89999961853,180218.365,180231.80000019073,180235.032,180468.37,,51,easy
screen,html.Screen,2_1_1_1_52,2022-05-03T12:41:10.265Z,,,,,,,,,,,,,,,,,54,,,,,,,,,,,,,,355.2300003814744,,response,,,,100,,,,,,,Space,keypress(Space),,,,,,,,-- --- ---- --- ------ ----- ------- ---- -- --- ------- --<br>------- ---------- ------ -- ----- -- ----- -- ---- ------<br>--- ----- --- --- ------ -------- ----- --- ------ ----- --<br>----- ----- ---------- --- --- ------ ------ ---- -- ------<br>------- --- ------ ----- --- ---- ------- -- ---- way --<br>------- ------,180829.10000038147,180823.60000038147,180451.703,180465.89999961853,180468.37,180835.044,,52,way
screen,html.Screen,2_1_1_1_53,2022-05-03T12:41:10.648Z,,,,,,,,,,,,,,,,,54,,,,,,,,,,,,,,373.0560003814753,,response,,,,100,,,,,,,Space,keypress(Space),,,,,,,,-- --- ---- --- ------ ----- ------- ---- -- --- ------- --<br>------- ---------- ------ -- ----- -- ----- -- ---- ------<br>--- ----- --- --- ------ -------- ----- --- ------ ----- --<br>----- ----- ---------- --- --- ------ ------ ---- -- ------<br>------- --- ------ ----- --- ---- ------- -- ---- --- of<br>------- ------,181212,181208.10000038147,180818.377,180829.39999961853,180835.044,181218.385,,53,of
screen,html.Screen,2_1_1_1_54,2022-05-03T12:41:11.051Z,,,,,,,,,,,,,,,,,54,,,,,,,,,,,,,,391.2150003814604,,response,,,,100,,,,,,,Space,keypress(Space),,,,,,,,-- --- ---- --- ------ ----- ------- ---- -- --- ------- --<br>------- ---------- ------ -- ----- -- ----- -- ---- ------<br>--- ----- --- --- ------ -------- ----- --- ------ ----- --<br>----- ----- ---------- --- --- ------ ------ ---- -- ------<br>------- --- ------ ----- --- ---- ------- -- ---- --- --<br>raising ------,181615.19999980927,181609.60000038147,181201.718,181212.19999980927,181218.385,181618.393,,54,raising
screen,html.Screen,2_1_1_1_55,2022-05-03T12:41:11.506Z,,,,,,,,,,,,,,,,,54,,,,,,,,,,,,,,447.9070001907239,,response,,,,100,,,,,,,Space,keypress(Space),,,,,,,,-- --- ---- --- ------ ----- ------- ---- -- --- ------- --<br>------- ---------- ------ -- ----- -- ----- -- ---- ------<br>--- ----- --- --- ------ -------- ----- --- ------ ----- --<br>----- ----- ---------- --- --- ------ ------ ---- -- ------<br>------- --- ------ ----- --- ---- ------- -- ---- --- --<br>------- money.,182070.5,182066.30000019073,181601.726,181615.39999961853,181618.393,182085.069,,55,money.
Item 100,flow.Loop,2_1_1_1,2022-05-03T12:41:11.507Z,,,,,,,,,,,,,,,,,,,,,,,,,,,,,,,20115.01500019073,,completion,,,,,H,,,,,,,,,,,silence,,,,,182070.89999961853,182066.30000019073,161934.618,161937.30000019073,161951.285,182085.069,,,
Question 1,html.Screen,2_1_1_2,2022-05-03T12:41:13.859Z,,,,,,,,,,,,,,,,,,,,,,,,,,,,true,TRUE,,2336.1309998092765,,response,,,,100,H,,,,,,TRUE,click #choice-1,,,,silence,,,,,184423.19999980927,184421.19999980927,182068.402,182070.89999961853,182085.069,184435.062,,,
Question 2,html.Screen,2_1_1_3,2022-05-03T12:41:15.573Z,,,,,,,,,,,,,,,,,,,,,,,,,,,,true,FALSE,,1700.5380003814644,,response,,,,100,H,,,,,,FALSE,click #choice-2,,,,silence,,,,,186137.5,186135.60000038147,184418.395,184423.5,184435.062,186151.763,,,
Item 100,flow.Sequence,2_1_1,2022-05-03T12:41:15.573Z,,,,,,,,,,,,,,,,,,,,,,,,,,,,,,,34184.54500038148,,completion,,,,,,,,,,,,,,,,,,,,,186137.89999961853,186135.60000038147,151934.388,151935.19999980927,151951.055,186151.763,,,
End of Practice,html.Page,2_1_2,2022-05-03T12:41:18.198Z,,,,,,,,,,,,,,,,,,,,,,,,,,,,,,,2611.0370001907286,,form submission,,,,,,,,,,,,,,,,,,,,,188763,188762.80000019073,186135.096,186138,186151.763,188785.149,,,
Practice,flow.Sequence,2_1,2022-05-03T12:41:18.199Z,,,,,,,,,,,,,,,,,,,,,,,,,,,,,,,77879.18100019073,,completion,,,,,,,,,,,,,,,,,,,,,188763.10000038147,188762.80000019073,110866.952,110862.39999961853,110883.619,188785.149,,,
Trap_instruction,html.Page,2_2_0,2022-05-03T12:41:22.677Z,,,,,,,,,,,,,,,,,,,,,,,,,,,,,,,4456.750999618525,,form submission,,,,,,,,,,,,,,,,,,,,,193242.19999980927,193241.89999961853,188768.482,188763.19999980927,188785.149,193268.572,,,
trap_trial,html.Screen,2_2_1,2022-05-03T12:41:25.375Z,,,,,,,,,,,,,,,,,,,,,,,,,,,,true,1,,2669.2280001907493,,response,,,,,,,,,,,1,click #choice-1,,,,,,,,,195939.80000019073,195937.80000019073,193251.905,193242.30000019073,193268.572,195951.959,,,
end of trap trial,html.Page,2_2_2,2022-05-03T12:41:27.082Z,,,,,,,,,,,,,,,,,,,,,,,,,,,,,,,1694.8410001907323,,form submission,,,,,,,,,,,,,,,,,,,,,197647.10000038147,197646.80000019073,195935.292,195940,195951.959,197668.781,,,
Trap 1,flow.Sequence,2_2,2022-05-03T12:41:27.083Z,,,,,,,,,,,,,,,,,,,,,,,,,,,,,,,8861.65100019073,,completion,,,,,,,,,,,,,,,,,,,,,197647.39999961853,197646.80000019073,188768.482,188763.19999980927,188785.149,197668.781,,,
Standby,html.Page,2_3_0,2022-05-03T12:41:35.097Z,,,,,,,,,,,,,,,,,,,,,,,,,,,,,,,8000.1600000000035,,timeout,,,,,,,,,,,,,,,,,,,,,205662,205652.274,197652.114,197647.60000038147,197668.781,205668.941,,,
Holding screen,html.Screen,2_3_1_0_0,2022-05-03T12:41:42.089Z,,,,,,,,,,,,,,,,,,,,,,,,,,,,,,,7000.2149999999965,,timeout,,,,,,,,,,,,,,,,,,,,,212654.80000019073,212652.489,205652.274,205662.60000038147,205668.941,212669.156,,,
screen,html.Screen,2_3_1_0_1_0,2022-05-03T12:41:42.634Z,,,,,,,,,,,,,,,,,19,,,,,,,,,,,,,,515.3440000000119,,response,,,,17,H,,,,,,Space,keypress(Space),,,,speech,,,,"Interestingly, --- -------- -------- ---------- ---- -------<br>-- ---------- -- --- ----- ------ ----- ---- --------- ----<br>------- ------ -------- -- ------ ---------- ------ ---<br>------ -- -- ---- -- ---------- -------- ------ ---- -------<br>---- --- --------- ------- ----- --------- ---- ----- --<br>------ -------- -- ------ -- ---- ------------",213199.19999980927,213184.5,212652.489,212656.19999980927,212669.156,213202.5,,0,"Interestingly,"
screen,html.Screen,2_3_1_0_1_1,2022-05-03T12:41:42.976Z,,,,,,,,,,,,,,,,,19,,,,,,,,,,,,,,332.69999980926514,,response,,,,17,H,,,,,,Space,keypress(Space),,,,speech,,,,-------------- the -------- -------- ---------- ---- -------<br>-- ---------- -- --- ----- ------ ----- ---- --------- ----<br>------- ------ -------- -- ------ ---------- ------ ---<br>------ -- -- ---- -- ---------- -------- ------ ---- -------<br>---- --- --------- ------- ----- --------- ---- ----- --<br>------ -------- -- ------ -- ---- ------------,213540.89999961853,213535.19999980927,213185.833,213199.30000019073,213202.5,213552.507,,1,the
screen,html.Screen,2_3_1_0_1_2,2022-05-03T12:41:43.167Z,,,,,,,,,,,,,,,,,19,,,,,,,,,,,,,,174.1929998092528,,response,,,,17,H,,,,,,Space,keypress(Space),,,,speech,,,,-------------- --- heaviest -------- ---------- ---- -------<br>-- ---------- -- --- ----- ------ ----- ---- --------- ----<br>------- ------ -------- -- ------ ---------- ------ ---<br>------ -- -- ---- -- ---------- -------- ------ ---- -------<br>---- --- --------- ------- ----- --------- ---- ----- --<br>------ -------- -- ------ -- ---- ------------,213732.19999980927,213726.69999980927,213535.84,213541.19999980927,213552.507,213735.844,,2,heaviest
screen,html.Screen,2_3_1_0_1_3,2022-05-03T12:41:43.376Z,,,,,,,,,,,,,,,,,19,,,,,,,,,,,,,,200.0559996185184,,response,,,,17,H,,,,,,Space,keypress(Space),,,,speech,,,,-------------- --- -------- isotopes ---------- ---- -------<br>-- ---------- -- --- ----- ------ ----- ---- --------- ----<br>------- ------ -------- -- ------ ---------- ------ ---<br>------ -- -- ---- -- ---------- -------- ------ ---- -------<br>---- --- --------- ------- ----- --------- ---- ----- --<br>------ -------- -- ------ -- ---- ------------,213941.30000019073,213935.89999961853,213719.177,213732.5,213735.844,213952.515,,3,isotopes
screen,html.Screen,2_3_1_0_1_4,2022-05-03T12:41:44.161Z,,,,,,,,,,,,,,,,,19,,,,,,,,,,,,,,768.484999999986,,response,,,,17,H,,,,,,Space,keypress(Space),,,,speech,,,,-------------- --- -------- -------- physicists ---- -------<br>-- ---------- -- --- ----- ------ ----- ---- --------- ----<br>------- ------ -------- -- ------ ---------- ------ ---<br>------ -- -- ---- -- ---------- -------- ------ ---- -------<br>---- --- --------- ------- ----- --------- ---- ----- --<br>------ -------- -- ------ -- ---- ------------,214726.60000038147,214721,213935.848,213941.5,213952.515,214735.864,,4,physicists
screen,html.Screen,2_3_1_0_1_5,2022-05-03T12:41:44.450Z,,,,,,,,,,,,,,,,,19,,,,,,,,,,,,,,274.23600038146833,,response,,,,17,H,,,,,,Space,keypress(Space),,,,speech,,,,-------------- --- -------- -------- ---------- have -------<br>-- ---------- -- --- ----- ------ ----- ---- --------- ----<br>------- ------ -------- -- ------ ---------- ------ ---<br>------ -- -- ---- -- ---------- -------- ------ ---- -------<br>---- --- --------- ------- ----- --------- ---- ----- --<br>------ -------- -- ------ -- ---- ------------,215015.10000038147,215010.10000038147,214719.197,214727,214735.864,215019.203,,5,have
screen,html.Screen,2_3_1_0_1_6,2022-05-03T12:41:44.758Z,,,,,,,,,,,,,,,,,19,,,,,,,,,,,,,,298.7969999999914,,response,,,,17,H,,,,,,Space,keypress(Space),,,,speech,,,,-------------- --- -------- -------- ---------- ---- managed<br>-- ---------- -- --- ----- ------ ----- ---- --------- ----<br>------- ------ -------- -- ------ ---------- ------ ---<br>------ -- -- ---- -- ---------- -------- ------ ---- -------<br>---- --- --------- ------- ----- --------- ---- ----- --<br>------ -------- -- ------ -- ---- ------------,215323.89999961853,215318,215002.536,215015.39999961853,215019.203,215335.876,,6,managed
screen,html.Screen,2_3_1_0_1_7,2022-05-03T12:41:45.091Z,,,,,,,,,,,,,,,,,19,,,,,,,,,,,,,,315.22400038148044,,response,,,,17,H,,,,,,Space,keypress(Space),,,,speech,,,,-------------- --- -------- -------- ---------- ---- -------<br>to ---------- -- --- ----- ------ ----- ---- --------- ----<br>------- ------ -------- -- ------ ---------- ------ ---<br>------ -- -- ---- -- ---------- -------- ------ ---- -------<br>---- --- --------- ------- ----- --------- ---- ----- --<br>------ -------- -- ------ -- ---- ------------,215656.5,215651.10000038147,215319.209,215324,215335.876,215669.216,,7,to
screen,html.Screen,2_3_1_0_1_8,2022-05-03T12:41:45.370Z,,,,,,,,,,,,,,,,,19,,,,,,,,,,,,,,260.88400038148393,,response,,,,17,H,,,,,,Space,keypress(Space),,,,speech,,,,-------------- --- -------- -------- ---------- ---- -------<br>-- synthesize -- --- ----- ------ ----- ---- --------- ----<br>------- ------ -------- -- ------ ---------- ------ ---<br>------ -- -- ---- -- ---------- -------- ------ ---- -------<br>---- --- --------- ------- ----- --------- ---- ----- --<br>------ -------- -- ------ -- ---- ------------,215935.69999980927,215930.10000038147,215652.549,215656.69999980927,215669.216,215952.555,,8,synthesize
screen,html.Screen,2_3_1_0_1_9,2022-05-03T12:41:45.651Z,,,,,,,,,,,,,,,,,19,,,,,,,,,,,,,,258.34499961853726,,response,,,,17,H,,,,,,Space,keypress(Space),,,,speech,,,,-------------- --- -------- -------- ---------- ---- -------<br>-- ---------- so --- ----- ------ ----- ---- --------- ----<br>------- ------ -------- -- ------ ---------- ------ ---<br>------ -- -- ---- -- ---------- -------- ------ ---- -------<br>---- --- --------- ------- ----- --------- ---- ----- --<br>------ -------- -- ------ -- ---- ------------,216216,216210.89999961853,215935.888,215936,215952.555,216219.227,,9,so
screen,html.Screen,2_3_1_0_1_10,2022-05-03T12:41:45.939Z,,,,,,,,,,,,,,,,,19,,,,,,,,,,,,,,279.8730003814562,,response,,,,17,H,,,,,,Space,keypress(Space),,,,speech,,,,-------------- --- -------- -------- ---------- ---- -------<br>-- ---------- -- far ----- ------ ----- ---- --------- ----<br>------- ------ -------- -- ------ ---------- ------ ---<br>------ -- -- ---- -- ---------- -------- ------ ---- -------<br>---- --- --------- ------- ----- --------- ---- ----- --<br>------ -------- -- ------ -- ---- ------------,216504.60000038147,216499.10000038147,216202.56,216216.39999961853,216219.227,216519.233,,10,far
screen,html.Screen,2_3_1_0_1_11,2022-05-03T12:41:46.189Z,,,,,,,,,,,,,,,,,19,,,,,,,,,,,,,,229.76699999999255,,response,,,,17,H,,,,,,Space,keypress(Space),,,,speech,,,,-------------- --- -------- -------- ---------- ---- -------<br>-- ---------- -- --- don't ------ ----- ---- --------- ----<br>------- ------ -------- -- ------ ---------- ------ ---<br>------ -- -- ---- -- ---------- -------- ------ ---- -------<br>---- --- --------- ------- ----- --------- ---- ----- --<br>------ -------- -- ------ -- ---- ------------,216754.30000019073,216749,216502.566,216505,216519.233,216769.238,,11,don't
screen,html.Screen,2_3_1_0_1_12,2022-05-03T12:41:46.475Z,,,,,,,,,,,,,,,,,19,,,,,,,,,,,,,,265.7619999999879,,response,,,,17,H,,,,,,Space,keypress(Space),,,,speech,,,,-------------- --- -------- -------- ---------- ---- -------<br>-- ---------- -- --- ----- behave ----- ---- --------- ----<br>------- ------ -------- -- ------ ---------- ------ ---<br>------ -- -- ---- -- ---------- -------- ------ ---- -------<br>---- --- --------- ------- ----- --------- ---- ----- --<br>------ -------- -- ------ -- ---- ------------,217040.89999961853,217035,216752.571,216754.39999961853,216769.238,217052.577,,12,behave
screen,html.Screen,2_3_1_0_1_13,2022-05-03T12:41:46.784Z,,,,,,,,,,,,,,,,,19,,,,,,,,,,,,,,291.72300019074464,,response,,,,17,H,,,,,,Space,keypress(Space),,,,speech,,,,-------------- --- -------- -------- ---------- ---- -------<br>-- ---------- -- --- ----- ------ quite ---- --------- ----<br>------- ------ -------- -- ------ ---------- ------ ---<br>------ -- -- ---- -- ---------- -------- ------ ---- -------<br>---- --- --------- ------- ----- --------- ---- ----- --<br>------ -------- -- ------ -- ---- ------------,217350,217344.30000019073,217035.91,217041.19999980927,217052.577,217352.547,,13,quite
screen,html.Screen,2_3_1_0_1_14,2022-05-03T12:41:47.049Z,,,,,,,,,,,,,,,,,19,,,,,,,,,,,,,,256.3529996185389,,response,,,,17,H,,,,,,Space,keypress(Space),,,,speech,,,,-------------- --- -------- -------- ---------- ---- -------<br>-- ---------- -- --- ----- ------ ----- like --------- ----<br>------- ------ -------- -- ------ ---------- ------ ---<br>------ -- -- ---- -- ---------- -------- ------ ---- -------<br>---- --- --------- ------- ----- --------- ---- ----- --<br>------ -------- -- ------ -- ---- ------------,217615.10000038147,217608.89999961853,217335.88,217350.19999980927,217352.547,217619.219,,14,like
screen,html.Screen,2_3_1_0_1_15,2022-05-03T12:41:47.356Z,,,,,,,,,,,,,,,,,19,,,,,,,,,,,,,,296.2809999999881,,response,,,,17,H,,,,,,Space,keypress(Space),,,,speech,,,,-------------- --- -------- -------- ---------- ---- -------<br>-- ---------- -- --- ----- ------ ----- ---- science's ----<br>------- ------ -------- -- ------ ---------- ------ ---<br>------ -- -- ---- -- ---------- -------- ------ ---- -------<br>---- --- --------- ------- ----- --------- ---- ----- --<br>------ -------- -- ------ -- ---- ------------,217921.5,217915.5,217602.552,217615.19999980927,217619.219,217935.892,,15,science's
screen,html.Screen,2_3_1_0_1_16,2022-05-03T12:41:47.641Z,,,,,,,,,,,,,,,,,19,,,,,,,,,,,,,,264.9080001907423,,response,,,,17,H,,,,,,Space,keypress(Space),,,,speech,,,,-------------- --- -------- -------- ---------- ---- -------<br>-- ---------- -- --- ----- ------ ----- ---- --------- best<br>------- ------ -------- -- ------ ---------- ------ ---<br>------ -- -- ---- -- ---------- -------- ------ ---- -------<br>---- --- --------- ------- ----- --------- ---- ----- --<br>------ -------- -- ------ -- ---- ------------,218206.60000038147,218200.80000019073,217919.225,217921.80000019073,217935.892,218219.231,,16,best
screen,html.Screen,2_3_1_0_1_17,2022-05-03T12:41:48.144Z,,,,,,,,,,,,,,,,,19,,,,,,,,,,,,,,485.46899980926537,,response,,,,17,H,,,,,,Space,keypress(Space),,,,speech,,,,-------------- --- -------- -------- ---------- ---- -------<br>-- ---------- -- --- ----- ------ ----- ---- --------- ----<br>current ------ -------- -- ------ ---------- ------ ---<br>------ -- -- ---- -- ---------- -------- ------ ---- -------<br>---- --- --------- ------- ----- --------- ---- ----- --<br>------ -------- -- ------ -- ---- ------------,218709.69999980927,218704.69999980927,218202.564,218206.80000019073,218219.231,218719.241,,17,current
screen,html.Screen,2_3_1_0_1_18,2022-05-03T12:41:48.434Z,,,,,,,,,,,,,,,,,19,,,,,,,,,,,,,,275.2589999999909,,response,,,,17,H,,,,,,Space,keypress(Space),,,,speech,,,,-------------- --- -------- -------- ---------- ---- -------<br>-- ---------- -- --- ----- ------ ----- ---- --------- ----<br>------- models -------- -- ------ ---------- ------ ---<br>------ -- -- ---- -- ---------- -------- ------ ---- -------<br>---- --- --------- ------- ----- --------- ---- ----- --<br>------ -------- -- ------ -- ---- ------------,218999.89999961853,218994.5,218702.574,218709.80000019073,218719.241,219002.58,,18,models
screen,html.Screen,2_3_1_0_1_19,2022-05-03T12:41:48.844Z,,,,,,,,,,,,,,,,,19,,,,,,,,,,,,,,401.72000019074767,,response,,,,17,H,,,,,,Space,keypress(Space),,,,speech,,,,"-------------- --- -------- -------- ---------- ---- -------<br>-- ---------- -- --- ----- ------ ----- ---- --------- ----<br>------- ------ predict, -- ------ ---------- ------ ---<br>------ -- -- ---- -- ---------- -------- ------ ---- -------<br>---- --- --------- ------- ----- --------- ---- ----- --<br>------ -------- -- ------ -- ---- ------------",219410,219404.30000019073,218985.913,219000.39999961853,219002.58,219419.255,,19,"predict,"
screen,html.Screen,2_3_1_0_1_20,2022-05-03T12:41:49.230Z,,,,,,,,,,,,,,,,,19,,,,,,,,,,,,,,370.6449996185256,,response,,,,17,H,,,,,,Space,keypress(Space),,,,speech,,,,-------------- --- -------- -------- ---------- ---- -------<br>-- ---------- -- --- ----- ------ ----- ---- --------- ----<br>------- ------ -------- so ------ ---------- ------ ---<br>------ -- -- ---- -- ---------- -------- ------ ---- -------<br>---- --- --------- ------- ----- --------- ---- ----- --<br>------ -------- -- ------ -- ---- ------------,219795.39999961853,219789.89999961853,219402.588,219410.19999980927,219419.255,219802.596,,20,so
screen,html.Screen,2_3_1_0_1_21,2022-05-03T12:41:49.517Z,,,,,,,,,,,,,,,,,19,,,,,,,,,,,,,,274.3039996185398,,response,,,,17,H,,,,,,Space,keypress(Space),,,,speech,,,,-------------- --- -------- -------- ---------- ---- -------<br>-- ---------- -- --- ----- ------ ----- ---- --------- ----<br>------- ------ -------- -- stable ---------- ------ ---<br>------ -- -- ---- -- ---------- -------- ------ ---- -------<br>---- --- --------- ------- ----- --------- ---- ----- --<br>------ -------- -- ------ -- ---- ------------,220082.69999980927,220076.89999961853,219785.929,219795.60000038147,219802.596,220085.935,,21,stable
screen,html.Screen,2_3_1_0_1_22,2022-05-03T12:41:49.825Z,,,,,,,,,,,,,,,,,19,,,,,,,,,,,,,,298.9649996185326,,response,,,,17,H,,,,,,Space,keypress(Space),,,,speech,,,,-------------- --- -------- -------- ---------- ---- -------<br>-- ---------- -- --- ----- ------ ----- ---- --------- ----<br>------- ------ -------- -- ------ superheavy ------ ---<br>------ -- -- ---- -- ---------- -------- ------ ---- -------<br>---- --- --------- ------- ----- --------- ---- ----- --<br>------ -------- -- ------ -- ---- ------------,220390.39999961853,220384.89999961853,220069.268,220083.10000038147,220085.935,220402.608,,22,superheavy
screen,html.Screen,2_3_1_0_1_23,2022-05-03T12:41:50.174Z,,,,,,,,,,,,,,,,,19,,,,,,,,,,,,,,330.89199999999255,,response,,,,17,H,,,,,,Space,keypress(Space),,,,speech,,,,-------------- --- -------- -------- ---------- ---- -------<br>-- ---------- -- --- ----- ------ ----- ---- --------- ----<br>------- ------ -------- -- ------ ---------- nuclei ---<br>------ -- -- ---- -- ---------- -------- ------ ---- -------<br>---- --- --------- ------- ----- --------- ---- ----- --<br>------ -------- -- ------ -- ---- ------------,220739.19999980927,220733.5,220385.941,220390.80000019073,220402.608,220752.615,,23,nuclei
screen,html.Screen,2_3_1_0_1_24,2022-05-03T12:41:50.631Z,,,,,,,,,,,,,,,,,19,,,,,,,,,,,,,,438.6850001907442,,response,,,,17,H,,,,,,Space,keypress(Space),,,,speech,,,,-------------- --- -------- -------- ---------- ---- -------<br>-- ---------- -- --- ----- ------ ----- ---- --------- ----<br>------- ------ -------- -- ------ ---------- ------ are<br>------ -- -- ---- -- ---------- -------- ------ ---- -------<br>---- --- --------- ------- ----- --------- ---- ----- --<br>------ -------- -- ------ -- ---- ------------,221196.39999961853,221191.30000019073,220735.948,220739.5,220752.615,221202.624,,24,are
screen,html.Screen,2_3_1_0_1_25,2022-05-03T12:41:51.054Z,,,,,,,,,,,,,,,,,19,,,,,,,,,,,,,,411.67600019072415,,response,,,,17,H,,,,,,Space,keypress(Space),,,,speech,,,,-------------- --- -------- -------- ---------- ---- -------<br>-- ---------- -- --- ----- ------ ----- ---- --------- ----<br>------- ------ -------- -- ------ ---------- ------ ---<br>likely -- -- ---- -- ---------- -------- ------ ---- -------<br>---- --- --------- ------- ----- --------- ---- ----- --<br>------ -------- -- ------ -- ---- ------------,221619.5,221614.30000019073,221185.957,221196.69999980927,221202.624,221635.966,,25,likely
screen,html.Screen,2_3_1_0_1_26,2022-05-03T12:41:51.351Z,,,,,,,,,,,,,,,,,19,,,,,,,,,,,,,,275.5340000000142,,response,,,,17,H,,,,,,Space,keypress(Space),,,,speech,,,,-------------- --- -------- -------- ---------- ---- -------<br>-- ---------- -- --- ----- ------ ----- ---- --------- ----<br>------- ------ -------- -- ------ ---------- ------ ---<br>------ to -- ---- -- ---------- -------- ------ ---- -------<br>---- --- --------- ------- ----- --------- ---- ----- --<br>------ -------- -- ------ -- ---- ------------,221916.39999961853,221911.5,221619.299,221619.69999980927,221635.966,221919.305,,26,to
screen,html.Screen,2_3_1_0_1_27,2022-05-03T12:41:51.696Z,,,,,,,,,,,,,,,,,19,,,,,,,,,,,,,,336.8949998092721,,response,,,,17,H,,,,,,Space,keypress(Space),,,,speech,,,,-------------- --- -------- -------- ---------- ---- -------<br>-- ---------- -- --- ----- ------ ----- ---- --------- ----<br>------- ------ -------- -- ------ ---------- ------ ---<br>------ -- be ---- -- ---------- -------- ------ ---- -------<br>---- --- --------- ------- ----- --------- ---- ----- --<br>------ -------- -- ------ -- ---- ------------,222261.69999980927,222256.19999980927,221902.638,221916.69999980927,221919.305,222269.312,,27,be
screen,html.Screen,2_3_1_0_1_28,2022-05-03T12:41:51.975Z,,,,,,,,,,,,,,,,,19,,,,,,,,,,,,,,266.18799999999464,,response,,,,17,H,,,,,,Space,keypress(Space),,,,speech,,,,-------------- --- -------- -------- ---------- ---- -------<br>-- ---------- -- --- ----- ------ ----- ---- --------- ----<br>------- ------ -------- -- ------ ---------- ------ ---<br>------ -- -- full -- ---------- -------- ------ ---- -------<br>---- --- --------- ------- ----- --------- ---- ----- --<br>------ -------- -- ------ -- ---- ------------,222541,222535.5,222252.645,222261.89999961853,222269.312,222552.651,,28,full
screen,html.Screen,2_3_1_0_1_29,2022-05-03T12:41:52.269Z,,,,,,,,,,,,,,,,,19,,,,,,,,,,,,,,276.3489999999874,,response,,,,17,H,,,,,,Space,keypress(Space),,,,speech,,,,-------------- --- -------- -------- ---------- ---- -------<br>-- ---------- -- --- ----- ------ ----- ---- --------- ----<br>------- ------ -------- -- ------ ---------- ------ ---<br>------ -- -- ---- of ---------- -------- ------ ---- -------<br>---- --- --------- ------- ----- --------- ---- ----- --<br>------ -------- -- ------ -- ---- ------------,222834.69999980927,222829,222535.984,222541.19999980927,222552.651,222835.99,,29,of
screen,html.Screen,2_3_1_0_1_30,2022-05-03T12:41:52.524Z,,,,,,,,,,,,,,,,,19,,,,,,,,,,,,,,249.31000019074418,,response,,,,17,H,,,,,,Space,keypress(Space),,,,speech,,,,-------------- --- -------- -------- ---------- ---- -------<br>-- ---------- -- --- ----- ------ ----- ---- --------- ----<br>------- ------ -------- -- ------ ---------- ------ ---<br>------ -- -- ---- -- surprises. -------- ------ ---- -------<br>---- --- --------- ------- ----- --------- ---- ----- --<br>------ -------- -- ------ -- ---- ------------,223089.60000038147,223085.30000019073,222819.323,222835,222835.99,223102.662,,30,surprises.
screen,html.Screen,2_3_1_0_1_31,2022-05-03T12:41:52.910Z,,,,,,,,,,,,,,,,,19,,,,,,,,,,,,,,367.53799980925396,,response,,,,17,H,,,,,,Space,keypress(Space),,,,speech,,,,-------------- --- -------- -------- ---------- ---- -------<br>-- ---------- -- --- ----- ------ ----- ---- --------- ----<br>------- ------ -------- -- ------ ---------- ------ ---<br>------ -- -- ---- -- ---------- Chemists ------ ---- -------<br>---- --- --------- ------- ----- --------- ---- ----- --<br>------ -------- -- ------ -- ---- ------------,223475.89999961853,223470.19999980927,223085.995,223089.69999980927,223102.662,223486.003,,31,Chemists
screen,html.Screen,2_3_1_0_1_32,2022-05-03T12:41:53.209Z,,,,,,,,,,,,,,,,,19,,,,,,,,,,,,,,284.19699980926816,,response,,,,17,H,,,,,,Space,keypress(Space),,,,speech,,,,-------------- --- -------- -------- ---------- ---- -------<br>-- ---------- -- --- ----- ------ ----- ---- --------- ----<br>------- ------ -------- -- ------ ---------- ------ ---<br>------ -- -- ---- -- ---------- -------- cannot ---- -------<br>---- --- --------- ------- ----- --------- ---- ----- --<br>------ -------- -- ------ -- ---- ------------,223775,223770.19999980927,223469.336,223476.19999980927,223486.003,223786.009,,32,cannot
screen,html.Screen,2_3_1_0_1_33,2022-05-03T12:41:53.511Z,,,,,,,,,,,,,,,,,19,,,,,,,,,,,,,,285.4910000000091,,response,,,,17,H,,,,,,Space,keypress(Space),,,,speech,,,,-------------- --- -------- -------- ---------- ---- -------<br>-- ---------- -- --- ----- ------ ----- ---- --------- ----<br>------- ------ -------- -- ------ ---------- ------ ---<br>------ -- -- ---- -- ---------- -------- ------ even -------<br>---- --- --------- ------- ----- --------- ---- ----- --<br>------ -------- -- ------ -- ---- ------------,224076.5,224071.5,223769.342,223775.10000038147,223786.009,224086.015,,33,even
screen,html.Screen,2_3_1_0_1_34,2022-05-03T12:41:53.899Z,,,,,,,,,,,,,,,,,19,,,,,,,,,,,,,,373.3849996185163,,response,,,,17,H,,,,,,Space,keypress(Space),,,,speech,,,,-------------- --- -------- -------- ---------- ---- -------<br>-- ---------- -- --- ----- ------ ----- ---- --------- ----<br>------- ------ -------- -- ------ ---------- ------ ---<br>------ -- -- ---- -- ---------- -------- ------ ---- predict<br>---- --- --------- ------- ----- --------- ---- ----- --<br>------ -------- -- ------ -- ---- ------------,224464.39999961853,224459.39999961853,224069.348,224076.80000019073,224086.015,224469.356,,34,predict
screen,html.Screen,2_3_1_0_1_35,2022-05-03T12:41:54.305Z,,,,,,,,,,,,,,,,,19,,,,,,,,,,,,,,398.0439996185305,,response,,,,17,H,,,,,,Space,keypress(Space),,,,speech,,,,-------------- --- -------- -------- ---------- ---- -------<br>-- ---------- -- --- ----- ------ ----- ---- --------- ----<br>------- ------ -------- -- ------ ---------- ------ ---<br>------ -- -- ---- -- ---------- -------- ------ ---- -------<br>with --- --------- ------- ----- --------- ---- ----- --<br>------ -------- -- ------ -- ---- ------------,224870.5,224867.39999961853,224452.689,224464.5,224469.356,224886.031,,35,with
screen,html.Screen,2_3_1_0_1_36,2022-05-03T12:41:54.618Z,,,,,,,,,,,,,,,,,19,,,,,,,,,,,,,,290.9690000000119,,response,,,,17,H,,,,,,Space,keypress(Space),,,,speech,,,,-------------- --- -------- -------- ---------- ---- -------<br>-- ---------- -- --- ----- ------ ----- ---- --------- ----<br>------- ------ -------- -- ------ ---------- ------ ---<br>------ -- -- ---- -- ---------- -------- ------ ---- -------<br>---- any --------- ------- ----- --------- ---- ----- --<br>------ -------- -- ------ -- ---- ------------,225183.39999961853,225177,224869.364,224870.69999980927,224886.031,225186.037,,36,any
screen,html.Screen,2_3_1_0_1_37,2022-05-03T12:41:54.936Z,,,,,,,,,,,,,,,,,19,,,,,,,,,,,,,,311.4629999999888,,response,,,,17,H,,,,,,Space,keypress(Space),,,,speech,,,,-------------- --- -------- -------- ---------- ---- -------<br>-- ---------- -- --- ----- ------ ----- ---- --------- ----<br>------- ------ -------- -- ------ ---------- ------ ---<br>------ -- -- ---- -- ---------- -------- ------ ---- -------<br>---- --- certainty ------- ----- --------- ---- ----- --<br>------ -------- -- ------ -- ---- ------------,225502,225497.5,225169.37,225183.60000038147,225186.037,225519.377,,37,certainty
screen,html.Screen,2_3_1_0_1_38,2022-05-03T12:41:55.318Z,,,,,,,,,,,,,,,,,19,,,,,,,,,,,,,,359.6229999999923,,response,,,,17,H,,,,,,Space,keypress(Space),,,,speech,,,,-------------- --- -------- -------- ---------- ---- -------<br>-- ---------- -- --- ----- ------ ----- ---- --------- ----<br>------- ------ -------- -- ------ ---------- ------ ---<br>------ -- -- ---- -- ---------- -------- ------ ---- -------<br>---- --- --------- whether ----- --------- ---- ----- --<br>------ -------- -- ------ -- ---- ------------,225884.19999980927,225879,225502.71,225502.10000038147,225519.377,225886.051,,38,whether
screen,html.Screen,2_3_1_0_1_39,2022-05-03T12:41:55.672Z,,,,,,,,,,,,,,,,,19,,,,,,,,,,,,,,347.2490001907281,,response,,,,17,H,,,,,,Space,keypress(Space),,,,speech,,,,-------------- --- -------- -------- ---------- ---- -------<br>-- ---------- -- --- ----- ------ ----- ---- --------- ----<br>------- ------ -------- -- ------ ---------- ------ ---<br>------ -- -- ---- -- ---------- -------- ------ ---- -------<br>---- --- --------- ------- these --------- ---- ----- --<br>------ -------- -- ------ -- ---- ------------,226238.30000019073,226233.30000019073,225869.384,225884.39999961853,225886.051,226252.725,,39,these
