sender,sender_type,sender_id,timestamp,meta,,Blues,Classical,Country,Dance,Electronic,Folk,Gospel,Hip-Hop,Jazz,Latin,Musical/Film,New-age,Pop,Prolific_id,Provo_ID,R&B,Rap,Reggae,Religious,Rock,Soul,Swing,Traditional,age,artist_name,correct,correctResponse,distraction,duration,education,ended_on,familiarity,gender,headphone_check_performance,item,list,music_frequency,offensiveness,pleasantness,position_correct,preference,response,response_action,snippet_file,song_name,song_rating,sound,stimulus_1,stimulus_2,stimulus_3,text,time_commit,time_end,time_render,time_run,time_show,time_switch,url,word,word_ID
Prolific ID,html.Form,0,2022-04-25T14:18:47.741Z,"{""labjs_version"":""20.2.2"",""labjs_build"":{""flavor"":""production"",""commit"":""a25486e0c714a0ae2ce03ff94b7bb6896854dcfa""},""location"":""https://run.pavlovia.org/mvasilev/prolific3_music_a/"",""userAgent"":""Mozilla/5.0 (Macintosh; Intel Mac OS X 10_15_6) AppleWebKit/605.1.15 (KHTML, like Gecko) Version/14.0.3 Safari/605.1.15"",""platform"":""MacIntel"",""language"":""en-gb"",""locale"":""en-GB"",""timeZone"":""Europe/London"",""timezoneOffset"":-60,""screen_width"":1440,""screen_height"":900,""scroll_width"":1440,""scroll_height"":772,""window_innerWidth"":1440,""window_innerHeight"":820,""devicePixelRatio"":2}",,,,,,,,,,,,,,,60d075b6af3d46debaf3cfd8,,,,,,,,,,,,,,,5950,,form submission,,,,,,,,,,,,,,,,,,,,,13785,13785,7819,7802.000000000001,7835,13802,{},,
Introduction,html.Screen,1_0,2022-04-25T14:19:02.161Z,,,,,,,,,,,,,,,,,,,,,,,,,,,,,,,14432,,response,,,,,,,,,,,continue,click button,,,,,,,,,28205.000000000004,28219,13787,13785,13802,28235,,,
Volume calibration,html.Screen,1_1,2022-04-25T14:19:19.950Z,,,,,,,,,,,,,,,,,,,,,,,,,,,,,,,17789,,response,,,,,,,,,,,continue,click button,,,,,,,,,45995,46008,28219,28206,28235,46020,,,
Task instructions,html.Screen,1_2,2022-04-25T14:19:27.671Z,,,,,,,,,,,,,,,,,,,,,,,,,,,,,,,7728,,response,,,,,,,,,,,continue,click button,,,,,,,,,53717,53731,46003,45995,46020,53737,,,
Sounds,html.Screen,1_3_0_0,2022-04-25T14:19:31.927Z,,,,,,,,,,,,,,,,,,,,,,,,,,,,,,,4250,,timeout,,,,,,,,,2,,,,,,,,I,S,O,,57973,57971,53720,53717,53737,57987,,,
Judgement,html.Screen,1_3_0_1,2022-04-25T14:19:33.727Z,,,,,,,,,,,,,,,,,,,,,,,,,,,,true,2,,1818,,response,,,,,,,,,2,,2,click #choice-2,,,,,I,S,O,,59773,59789,57971,57974.00000000001,57987,59804,,,
Trial,flow.Sequence,1_3_0,2022-04-25T14:19:33.728Z,,,,,,,,,,,,,,,,,,,,,,,,,,,,,,,6052,,completion,,,,,,,,,2,,,,,,,,I,S,O,,59774,59789,53720,53717,53737,59804,,,
Sounds,html.Screen,1_3_1_0,2022-04-25T14:19:37.992Z,,,,,,,,,,,,,,,,,,,,,,,,,,,,,,,4250,,timeout,,,,,,,,,3,,,,,,,,O,I,S,,64038,64037,59787,59775,59804,64054,,,
Judgement,html.Screen,1_3_1_1,2022-04-25T14:19:38.733Z,,,,,,,,,,,,,,,,,,,,,,,,,,,,true,3,,758,,response,,,,,,,,,3,,3,click #choice-3,,,,,O,I,S,,64779,64795,64037,64039,64054,64803,,,
Trial,flow.Sequence,1_3_1,2022-04-25T14:19:38.734Z,,,,,,,,,,,,,,,,,,,,,,,,,,,,,,,4991,,completion,,,,,,,,,3,,,,,,,,O,I,S,,64780,64795,59787,59775,59804,64803,,,
Sounds,html.Screen,1_3_2_0,2022-04-25T14:19:42.992Z,,,,,,,,,,,,,,,,,,,,,,,,,,,,,,,4251,,timeout,,,,,,,,,2,,,,,,,,O,S,I,,69039,69038,64787,64780,64803,69054,,,
Judgement,html.Screen,1_3_2_1,2022-04-25T14:19:43.603Z,,,,,,,,,,,,,,,,,,,,,,,,,,,,true,2,,629,,response,,,,,,,,,2,,2,click #choice-2,,,,,O,S,I,,69650,69667,69038,69039,69054,69670,,,
Trial,flow.Sequence,1_3_2,2022-04-25T14:19:43.604Z,,,,,,,,,,,,,,,,,,,,,,,,,,,,,,,4864,,completion,,,,,,,,,2,,,,,,,,O,S,I,,69650,69667,64787,64780,64803,69670,,,
Sounds,html.Screen,1_3_3_0,2022-04-25T14:19:47.858Z,,,,,,,,,,,,,,,,,,,,,,,,,,,,,,,4251,,timeout,,,,,,,,,1,,,,,,,,S,I,O,,73905,73904,69654,69650,69670,73921,,,
Judgement,html.Screen,1_3_3_1,2022-04-25T14:19:48.502Z,,,,,,,,,,,,,,,,,,,,,,,,,,,,true,1,,660,,response,,,,,,,,,1,,1,click #choice-1,,,,,S,I,O,,74549,74564,73904,73905,73921,74571,,,
Trial,flow.Sequence,1_3_3,2022-04-25T14:19:48.503Z,,,,,,,,,,,,,,,,,,,,,,,,,,,,,,,4894,,completion,,,,,,,,,1,,,,,,,,S,I,O,,74549,74564,69654,69650,69670,74571,,,
Sounds,html.Screen,1_3_4_0,2022-04-25T14:19:52.759Z,,,,,,,,,,,,,,,,,,,,,,,,,,,,,,,4250,,timeout,,,,,,,,,3,,,,,,,,I,O,S,,78806,78805,74554,74550,74571,78821,,,
Judgement,html.Screen,1_3_4_1,2022-04-25T14:19:53.182Z,,,,,,,,,,,,,,,,,,,,,,,,,,,,true,3,,442,,response,,,,,,,,,3,,3,click #choice-3,,,,,I,O,S,,79229,79247,78805,78806,78821,79255,,,
Trial,flow.Sequence,1_3_4,2022-04-25T14:19:53.183Z,,,,,,,,,,,,,,,,,,,,,,,,,,,,,,,4676,,completion,,,,,,,,,3,,,,,,,,I,O,S,,79230,79247,74554,74550,74571,79255,,,
Sounds,html.Screen,1_3_5_0,2022-04-25T14:19:57.441Z,,,,,,,,,,,,,,,,,,,,,,,,,,,,,,,4250,,timeout,,,,,,,,,1,,,,,,,,S,O,I,,83488,83487,79238,79231.00000000001,79255,83505,,,
Judgement,html.Screen,1_3_5_1,2022-04-25T14:19:57.921Z,,,,,,,,,,,,,,,,,,,,,,,,,,,,true,1,,498,,response,,,,,,,,,1,,1,click #choice-1,,,,,S,O,I,,83968,83985,83487,83489,83505,84005,,,
Trial,flow.Sequence,1_3_5,2022-04-25T14:19:57.921Z,,,,,,,,,,,,,,,,,,,,,,,,,,,,,,,4730,,completion,,,,,,,,,1,,,,,,,,S,O,I,,83968,83985,79238,79230,79255,84005,,,
Task,flow.Loop,1_3,2022-04-25T14:19:57.926Z,,,,,,,,,,,,,,,,,,,,,,,,,,,,,,,30248,,completion,,,1,,,,,,,,,,,,,,,,,,83973,83985,53720,53717,53737,84005,,,
Trap,html.Screen,1_4,2022-04-25T14:19:57.928Z,,,,,,,,,,,,,,,,,,,,,,,,,,,,,,,NaN,,skipped,,,,,,,,,,,,,,,,,,,,,83975.00000000001,83985,,83975.00000000001,,84005,,,
Thanks,html.Screen,1_5,2022-04-25T14:20:00.949Z,,,,,,,,,,,,,,,,,,,,,,,,,,,,,,,3025,,response,,,,,,,,,,,continue,click button,,,,,,,,,86997,87013,83988,83975.00000000001,84005,88822,,,
Headphone screening,flow.Sequence,1,2022-04-25T14:20:00.950Z,,,,,,,,,,,,,,,,,,,,,,,,,,,,,,,73211,,completion,,,,,,,,,,,,,,,,,,,,,86998,87013,13787,13785,13802,88822,,,
Instructions,html.Page,2_0,2022-04-25T14:20:17.071Z,,,,,,,,,,,,,,,,,,,,,,,,,,,,,,,14297,,form submission,,,,,,,,,,,,,,,,,,,,,103119,103119,88805,88792,88822,103139,,,
Holding screen,html.Screen,2_1_0_0,2022-04-25T14:20:27.075Z,,,,,,,,,,,,,,,,,,,,,,,,,,,,,,,10000,,timeout,,,,,,,,,,,,,,,,,,,,,113124.00000000001,113123,103122,103119,103139,113139,,,
screen,html.Screen,2_1_0_1_0,2022-04-25T14:20:27.825Z,,,,,,,,,,,,,,,,,53,,,,,,,,,,,,,,764,,response,,,,99,,,,,,,Space,keypress(Space),,,,,,,,When -- ----- -- ------ - ------- --- ----------<br>------------- ------ ------ ---- ---- ------- ----- -- ----<br>-------- ------- -- ---------- --- - --- ----- ----- ----<br>---- --- --- ----- --- ---- ---- ------- ----- ---- -------<br>--- --- -- ----- -- --- ---- -- --- ---- -- ------ ------<br>--- ----- -- ----,113874.00000000001,113887,113123,113124.00000000001,113139,113906,,0,When
screen,html.Screen,2_1_0_1_1,2022-04-25T14:20:28.437Z,,,,,,,,,,,,,,,,,53,,,,,,,,,,,,,,612,,response,,,,99,,,,,,,Space,keypress(Space),,,,,,,,---- it ----- -- ------ - ------- --- ----------<br>------------- ------ ------ ---- ---- ------- ----- -- ----<br>-------- ------- -- ---------- --- - --- ----- ----- ----<br>---- --- --- ----- --- ---- ---- ------- ----- ---- -------<br>--- --- -- ----- -- --- ---- -- --- ---- -- ------ ------<br>--- ----- -- ----,114485,114501,113889,113874.00000000001,113906,114523,,1,it
screen,html.Screen,2_1_0_1_2,2022-04-25T14:20:29.084Z,,,,,,,,,,,,,,,,,53,,,,,,,,,,,,,,641,,response,,,,99,,,,,,,Space,keypress(Space),,,,,,,,---- -- comes -- ------ - ------- --- ----------<br>------------- ------ ------ ---- ---- ------- ----- -- ----<br>-------- ------- -- ---------- --- - --- ----- ----- ----<br>---- --- --- ----- --- ---- ---- ------- ----- ---- -------<br>--- --- -- ----- -- --- ---- -- --- ---- -- ------ ------<br>--- ----- -- ----,115132,115147,114506,114485,114523,115172,,2,comes
screen,html.Screen,2_1_0_1_3,2022-04-25T14:20:29.600Z,,,,,,,,,,,,,,,,,53,,,,,,,,,,,,,,509,,response,,,,99,,,,,,,Space,keypress(Space),,,,,,,,---- -- ----- to ------ - ------- --- ----------<br>------------- ------ ------ ---- ---- ------- ----- -- ----<br>-------- ------- -- ---------- --- - --- ----- ----- ----<br>---- --- --- ----- --- ---- ---- ------- ----- ---- -------<br>--- --- -- ----- -- --- ---- -- --- ---- -- ------ ------<br>--- ----- -- ----,115648,115665,115156,115133,115172,115689,,3,to
screen,html.Screen,2_1_0_1_4,2022-04-25T14:20:30.131Z,,,,,,,,,,,,,,,,,53,,,,,,,,,,,,,,522.0000000000146,,response,,,,99,,,,,,,Space,keypress(Space),,,,,,,,---- -- ----- -- having - ------- --- ----------<br>------------- ------ ------ ---- ---- ------- ----- -- ----<br>-------- ------- -- ---------- --- - --- ----- ----- ----<br>---- --- --- ----- --- ---- ---- ------- ----- ---- -------<br>--- --- -- ----- -- --- ---- -- --- ---- -- ------ ------<br>--- ----- -- ----,116180,116195.00000000001,115673,115649,115689,116223,,4,having
screen,html.Screen,2_1_0_1_5,2022-04-25T14:20:30.583Z,,,,,,,,,,,,,,,,,53,,,,,,,,,,,,,,441,,response,,,,99,,,,,,,Space,keypress(Space),,,,,,,,---- -- ----- -- ------ a ------- --- ----------<br>------------- ------ ------ ---- ---- ------- ----- -- ----<br>-------- ------- -- ---------- --- - --- ----- ----- ----<br>---- --- --- ----- --- ---- ---- ------- ----- ---- -------<br>--- --- -- ----- -- --- ---- -- --- ---- -- ------ ------<br>--- ----- -- ----,116631,116647,116206,116181,116223,116672,,5,a
screen,html.Screen,2_1_0_1_6,2022-04-25T14:20:31.197Z,,,,,,,,,,,,,,,,,53,,,,,,,,,,,,,,605,,response,,,,99,,,,,,,Space,keypress(Space),,,,,,,,---- -- ----- -- ------ - lasting --- ----------<br>------------- ------ ------ ---- ---- ------- ----- -- ----<br>-------- ------- -- ---------- --- - --- ----- ----- ----<br>---- --- --- ----- --- ---- ---- ------- ----- ---- -------<br>--- --- -- ----- -- --- ---- -- --- ---- -- ------ ------<br>--- ----- -- ----,117245,117261,116656,116632,116672,117273,,6,lasting
screen,html.Screen,2_1_0_1_7,2022-04-25T14:20:31.761Z,,,,,,,,,,,,,,,,,53,,,,,,,,,,,,,,570.0000000000146,,response,,,,99,,,,,,,Space,keypress(Space),,,,,,,,---- -- ----- -- ------ - ------- and ----------<br>------------- ------ ------ ---- ---- ------- ----- -- ----<br>-------- ------- -- ---------- --- - --- ----- ----- ----<br>---- --- --- ----- --- ---- ---- ------- ----- ---- -------<br>--- --- -- ----- -- --- ---- -- --- ---- -- ------ ------<br>--- ----- -- ----,117809,117826.00000000001,117256,117246.00000000001,117273,117839,,7,and
screen,html.Screen,2_1_0_1_8,2022-04-25T14:20:32.459Z,,,,,,,,,,,,,,,,,53,,,,,,,,,,,,,,701,,response,,,,99,,,,,,,Space,keypress(Space),,,,,,,,---- -- ----- -- ------ - ------- --- fulfilling<br>------------- ------ ------ ---- ---- ------- ----- -- ----<br>-------- ------- -- ---------- --- - --- ----- ----- ----<br>---- --- --- ----- --- ---- ---- ------- ----- ---- -------<br>--- --- -- ----- -- --- ---- -- --- ---- -- ------ ------<br>--- ----- -- ----,118508,118524,117823,117810,117839,118540,,8,fulfilling
screen,html.Screen,2_1_0_1_9,2022-04-25T14:20:33.588Z,,,,,,,,,,,,,,,,,53,,,,,,,,,,,,,,1131,,response,,,,99,,,,,,,Space,keypress(Space),,,,,,,,"---- -- ----- -- ------ - ------- --- ----------<br>relationship, ------ ------ ---- ---- ------- ----- -- ----<br>-------- ------- -- ---------- --- - --- ----- ----- ----<br>---- --- --- ----- --- ---- ---- ------- ----- ---- -------<br>--- --- -- ----- -- --- ---- -- --- ---- -- ------ ------<br>--- ----- -- ----",119637,119654,118523,118509,118540,119673,,9,"relationship,"
screen,html.Screen,2_1_0_1_10,2022-04-25T14:20:34.267Z,,,,,,,,,,,,,,,,,53,,,,,,,,,,,,,,677,,response,,,,99,,,,,,,Space,keypress(Space),,,,,,,,---- -- ----- -- ------ - ------- --- ----------<br>------------- common ------ ---- ---- ------- ----- -- ----<br>-------- ------- -- ---------- --- - --- ----- ----- ----<br>---- --- --- ----- --- ---- ---- ------- ----- ---- -------<br>--- --- -- ----- -- --- ---- -- --- ---- -- ------ ------<br>--- ----- -- ----,120316,120333,119656,119638,119673,120356,,10,common
screen,html.Screen,2_1_0_1_11,2022-04-25T14:20:35.045Z,,,,,,,,,,,,,,,,,53,,,,,,,,,,,,,,770,,response,,,,99,,,,,,,Space,keypress(Space),,,,,,,,---- -- ----- -- ------ - ------- --- ----------<br>------------- ------ wisdom ---- ---- ------- ----- -- ----<br>-------- ------- -- ---------- --- - --- ----- ----- ----<br>---- --- --- ----- --- ---- ---- ------- ----- ---- -------<br>--- --- -- ----- -- --- ---- -- --- ---- -- ------ ------<br>--- ----- -- ----,121094.00000000001,121110,120340,120317,120356,121122,,11,wisdom
screen,html.Screen,2_1_0_1_12,2022-04-25T14:20:35.899Z,,,,,,,,,,,,,,,,,53,,,,,,,,,,,,,,857.0000000000146,,response,,,,99,,,,,,,Space,keypress(Space),,,,,,,,---- -- ----- -- ------ - ------- --- ----------<br>------------- ------ ------ says ---- ------- ----- -- ----<br>-------- ------- -- ---------- --- - --- ----- ----- ----<br>---- --- --- ----- --- ---- ---- ------- ----- ---- -------<br>--- --- -- ----- -- --- ---- -- --- ---- -- ------ ------<br>--- ----- -- ----,121948.00000000001,121963.00000000001,121106,121094.00000000001,121122,121990,,12,says
screen,html.Screen,2_1_0_1_13,2022-04-25T14:20:36.677Z,,,,,,,,,,,,,,,,,53,,,,,,,,,,,,,,770,,response,,,,99,,,,,,,Space,keypress(Space),,,,,,,,---- -- ----- -- ------ - ------- --- ----------<br>------------- ------ ------ ---- that ------- ----- -- ----<br>-------- ------- -- ---------- --- - --- ----- ----- ----<br>---- --- --- ----- --- ---- ---- ------- ----- ---- -------<br>--- --- -- ----- -- --- ---- -- --- ---- -- ------ ------<br>--- ----- -- ----,122726,122742,121972,121948.00000000001,121990,122757,,13,that
screen,html.Screen,2_1_0_1_14,2022-04-25T14:20:37.531Z,,,,,,,,,,,,,,,,,53,,,,,,,,,,,,,,855,,response,,,,99,,,,,,,Space,keypress(Space),,,,,,,,---- -- ----- -- ------ - ------- --- ----------<br>------------- ------ ------ ---- ---- feeling ----- -- ----<br>-------- ------- -- ---------- --- - --- ----- ----- ----<br>---- --- --- ----- --- ---- ---- ------- ----- ---- -------<br>--- --- -- ----- -- --- ---- -- --- ---- -- ------ ------<br>--- ----- -- ----,123580,123595,122740,122726,122757,123623,,14,feeling
screen,html.Screen,2_1_0_1_15,2022-04-25T14:20:38.275Z,,,,,,,,,,,,,,,,,53,,,,,,,,,,,,,,733,,response,,,,99,,,,,,,Space,keypress(Space),,,,,,,,---- -- ----- -- ------ - ------- --- ----------<br>------------- ------ ------ ---- ---- ------- close -- ----<br>-------- ------- -- ---------- --- - --- ----- ----- ----<br>---- --- --- ----- --- ---- ---- ------- ----- ---- -------<br>--- --- -- ----- -- --- ---- -- --- ---- -- ------ ------<br>--- ----- -- ----,124324,124340,123607,123580,123623,124357,,15,close
screen,html.Screen,2_1_0_1_16,2022-04-25T14:20:38.795Z,,,,,,,,,,,,,,,,,53,,,,,,,,,,,,,,520,,response,,,,99,,,,,,,Space,keypress(Space),,,,,,,,---- -- ----- -- ------ - ------- --- ----------<br>------------- ------ ------ ---- ---- ------- ----- to ----<br>-------- ------- -- ---------- --- - --- ----- ----- ----<br>---- --- --- ----- --- ---- ---- ------- ----- ---- -------<br>--- --- -- ----- -- --- ---- -- --- ---- -- ------ ------<br>--- ----- -- ----,124845,124860,124340,124325,124357,124873,,16,to
screen,html.Screen,2_1_0_1_17,2022-04-25T14:20:39.368Z,,,,,,,,,,,,,,,,,53,,,,,,,,,,,,,,576,,response,,,,99,,,,,,,Space,keypress(Space),,,,,,,,---- -- ----- -- ------ - ------- --- ----------<br>------------- ------ ------ ---- ---- ------- ----- -- your<br>-------- ------- -- ---------- --- - --- ----- ----- ----<br>---- --- --- ----- --- ---- ---- ------- ----- ---- -------<br>--- --- -- ----- -- --- ---- -- --- ---- -- ------ ------<br>--- ----- -- ----,125417,125433,124857,124845,124873,125457,,17,your
screen,html.Screen,2_1_0_1_18,2022-04-25T14:20:40.243Z,,,,,,,,,,,,,,,,,53,,,,,,,,,,,,,,868,,response,,,,99,,,,,,,Space,keypress(Space),,,,,,,,---- -- ----- -- ------ - ------- --- ----------<br>------------- ------ ------ ---- ---- ------- ----- -- ----<br>romantic ------- -- ---------- --- - --- ----- ----- ----<br>---- --- --- ----- --- ---- ---- ------- ----- ---- -------<br>--- --- -- ----- -- --- ---- -- --- ---- -- ------ ------<br>--- ----- -- ----,126292,126308,125440,125417,125457,126323,,18,romantic
screen,html.Screen,2_1_0_1_19,2022-04-25T14:20:40.916Z,,,,,,,,,,,,,,,,,53,,,,,,,,,,,,,,676,,response,,,,99,,,,,,,Space,keypress(Space),,,,,,,,---- -- ----- -- ------ - ------- --- ----------<br>------------- ------ ------ ---- ---- ------- ----- -- ----<br>-------- partner -- ---------- --- - --- ----- ----- ----<br>---- --- --- ----- --- ---- ---- ------- ----- ---- -------<br>--- --- -- ----- -- --- ---- -- --- ---- -- ------ ------<br>--- ----- -- ----,126966.00000000001,126983,126307,126293,126323,127006,,19,partner
screen,html.Screen,2_1_0_1_20,2022-04-25T14:20:41.553Z,,,,,,,,,,,,,,,,,53,,,,,,,,,,,,,,628.0000000000146,,response,,,,99,,,,,,,Space,keypress(Space),,,,,,,,---- -- ----- -- ------ - ------- --- ----------<br>------------- ------ ------ ---- ---- ------- ----- -- ----<br>-------- ------- is ---------- --- - --- ----- ----- ----<br>---- --- --- ----- --- ---- ---- ------- ----- ---- -------<br>--- --- -- ----- -- --- ---- -- --- ---- -- ------ ------<br>--- ----- -- ----,127602,127618.00000000001,126990,126966.00000000001,127006,127640,,20,is
screen,html.Screen,2_1_0_1_21,2022-04-25T14:20:42.547Z,,,,,,,,,,,,,,,,,53,,,,,,,,,,,,,,990,,response,,,,99,,,,,,,Space,keypress(Space),,,,,,,,---- -- ----- -- ------ - ------- --- ----------<br>------------- ------ ------ ---- ---- ------- ----- -- ----<br>-------- ------- -- paramount. --- - --- ----- ----- ----<br>---- --- --- ----- --- ---- ---- ------- ----- ---- -------<br>--- --- -- ----- -- --- ---- -- --- ---- -- ------ ------<br>--- ----- -- ----,128596,128613,127623,127603.00000000001,127640,128623,,21,paramount.
screen,html.Screen,2_1_0_1_22,2022-04-25T14:20:43.233Z,,,,,,,,,,,,,,,,,53,,,,,,,,,,,,,,692,,response,,,,99,,,,,,,Space,keypress(Space),,,,,,,,---- -- ----- -- ------ - ------- --- ----------<br>------------- ------ ------ ---- ---- ------- ----- -- ----<br>-------- ------- -- ---------- But - --- ----- ----- ----<br>---- --- --- ----- --- ---- ---- ------- ----- ---- -------<br>--- --- -- ----- -- --- ---- -- --- ---- -- ------ ------<br>--- ----- -- ----,129282.00000000001,129299,128607,128596,128623,129323,,22,But
screen,html.Screen,2_1_0_1_23,2022-04-25T14:20:43.993Z,,,,,,,,,,,,,,,,,53,,,,,,,,,,,,,,752,,response,,,,99,,,,,,,Space,keypress(Space),,,,,,,,---- -- ----- -- ------ - ------- --- ----------<br>------------- ------ ------ ---- ---- ------- ----- -- ----<br>-------- ------- -- ---------- --- a --- ----- ----- ----<br>---- --- --- ----- --- ---- ---- ------- ----- ---- -------<br>--- --- -- ----- -- --- ---- -- --- ---- -- ------ ------<br>--- ----- -- ----,130042,130059,129307,129282.00000000001,129323,130073,,23,a
screen,html.Screen,2_1_0_1_24,2022-04-25T14:20:44.717Z,,,,,,,,,,,,,,,,,53,,,,,,,,,,,,,,726.0000000000146,,response,,,,99,,,,,,,Space,keypress(Space),,,,,,,,---- -- ----- -- ------ - ------- --- ----------<br>------------- ------ ------ ---- ---- ------- ----- -- ----<br>-------- ------- -- ---------- --- - new ----- ----- ----<br>---- --- --- ----- --- ---- ---- ------- ----- ---- -------<br>--- --- -- ----- -- --- ---- -- --- ---- -- ------ ------<br>--- ----- -- ----,130767,130783.00000000001,130057,130043,130073,130807,,24,new
screen,html.Screen,2_1_0_1_25,2022-04-25T14:20:45.415Z,,,,,,,,,,,,,,,,,53,,,,,,,,,,,,,,691,,response,,,,99,,,,,,,Space,keypress(Space),,,,,,,,---- -- ----- -- ------ - ------- --- ----------<br>------------- ------ ------ ---- ---- ------- ----- -- ----<br>-------- ------- -- ---------- --- - --- study ----- ----<br>---- --- --- ----- --- ---- ---- ------- ----- ---- -------<br>--- --- -- ----- -- --- ---- -- --- ---- -- ------ ------<br>--- ----- -- ----,131464,131480,130789,130767,130807,131507,,25,study
screen,html.Screen,2_1_0_1_26,2022-04-25T14:20:46.108Z,,,,,,,,,,,,,,,,,53,,,,,,,,,,,,,,684,,response,,,,99,,,,,,,Space,keypress(Space),,,,,,,,---- -- ----- -- ------ - ------- --- ----------<br>------------- ------ ------ ---- ---- ------- ----- -- ----<br>-------- ------- -- ---------- --- - --- ----- finds ----<br>---- --- --- ----- --- ---- ---- ------- ----- ---- -------<br>--- --- -- ----- -- --- ---- -- --- ---- -- ------ ------<br>--- ----- -- ----,132157,132174,131490,131465,131507,132190,,26,finds
screen,html.Screen,2_1_0_1_27,2022-04-25T14:20:46.762Z,,,,,,,,,,,,,,,,,53,,,,,,,,,,,,,,654,,response,,,,99,,,,,,,Space,keypress(Space),,,,,,,,---- -- ----- -- ------ - ------- --- ----------<br>------------- ------ ------ ---- ---- ------- ----- -- ----<br>-------- ------- -- ---------- --- - --- ----- ----- that<br>---- --- --- ----- --- ---- ---- ------- ----- ---- -------<br>--- --- -- ----- -- --- ---- -- --- ---- -- ------ ------<br>--- ----- -- ----,132811,132828,132174,132162,132190,132839,,27,that
screen,html.Screen,2_1_0_1_28,2022-04-25T14:20:47.445Z,,,,,,,,,,,,,,,,,53,,,,,,,,,,,,,,687,,response,,,,99,,,,,,,Space,keypress(Space),,,,,,,,---- -- ----- -- ------ - ------- --- ----------<br>------------- ------ ------ ---- ---- ------- ----- -- ----<br>-------- ------- -- ---------- --- - --- ----- ----- ----<br>it's --- --- ----- --- ---- ---- ------- ----- ---- -------<br>--- --- -- ----- -- --- ---- -- --- ---- -- ------ ------<br>--- ----- -- ----,133494,133511,132824,132811,132839,133524,,28,it's
screen,html.Screen,2_1_0_1_29,2022-04-25T14:20:48.064Z,,,,,,,,,,,,,,,,,53,,,,,,,,,,,,,,624,,response,,,,99,,,,,,,Space,keypress(Space),,,,,,,,---- -- ----- -- ------ - ------- --- ----------<br>------------- ------ ------ ---- ---- ------- ----- -- ----<br>-------- ------- -- ---------- --- - --- ----- ----- ----<br>---- not --- ----- --- ---- ---- ------- ----- ---- -------<br>--- --- -- ----- -- --- ---- -- --- ---- -- ------ ------<br>--- ----- -- ----,134114,134131,133507,133495,133524,134157,,29,not
screen,html.Screen,2_1_0_1_30,2022-04-25T14:20:48.773Z,,,,,,,,,,,,,,,,,53,,,,,,,,,,,,,,700,,response,,,,99,,,,,,,Space,keypress(Space),,,,,,,,---- -- ----- -- ------ - ------- --- ----------<br>------------- ------ ------ ---- ---- ------- ----- -- ----<br>-------- ------- -- ---------- --- - --- ----- ----- ----<br>---- --- how ----- --- ---- ---- ------- ----- ---- -------<br>--- --- -- ----- -- --- ---- -- --- ---- -- ------ ------<br>--- ----- -- ----,134823,134840,134140,134114,134157,134857,,30,how
screen,html.Screen,2_1_0_1_31,2022-04-25T14:20:49.492Z,,,,,,,,,,,,,,,,,53,,,,,,,,,,,,,,720,,response,,,,99,,,,,,,Space,keypress(Space),,,,,,,,---- -- ----- -- ------ - ------- --- ----------<br>------------- ------ ------ ---- ---- ------- ----- -- ----<br>-------- ------- -- ---------- --- - --- ----- ----- ----<br>---- --- --- close --- ---- ---- ------- ----- ---- -------<br>--- --- -- ----- -- --- ---- -- --- ---- -- ------ ------<br>--- ----- -- ----,135542,135560,134840,134823,134857,135574,,31,close
screen,html.Screen,2_1_0_1_32,2022-04-25T14:20:50.186Z,,,,,,,,,,,,,,,,,53,,,,,,,,,,,,,,695,,response,,,,99,,,,,,,Space,keypress(Space),,,,,,,,---- -- ----- -- ------ - ------- --- ----------<br>------------- ------ ------ ---- ---- ------- ----- -- ----<br>-------- ------- -- ---------- --- - --- ----- ----- ----<br>---- --- --- ----- you ---- ---- ------- ----- ---- -------<br>--- --- -- ----- -- --- ---- -- --- ---- -- ------ ------<br>--- ----- -- ----,136235,136252,135557,135542,135574,136273,,32,you
screen,html.Screen,2_1_0_1_33,2022-04-25T14:20:50.846Z,,,,,,,,,,,,,,,,,53,,,,,,,,,,,,,,656,,response,,,,99,,,,,,,Space,keypress(Space),,,,,,,,---- -- ----- -- ------ - ------- --- ----------<br>------------- ------ ------ ---- ---- ------- ----- -- ----<br>-------- ------- -- ---------- --- - --- ----- ----- ----<br>---- --- --- ----- --- feel ---- ------- ----- ---- -------<br>--- --- -- ----- -- --- ---- -- --- ---- -- ------ ------<br>--- ----- -- ----,136896.00000000003,136913,136257,136236,136273,136924,,33,feel
screen,html.Screen,2_1_0_1_34,2022-04-25T14:20:51.536Z,,,,,,,,,,,,,,,,,53,,,,,,,,,,,,,,694,,response,,,,99,,,,,,,Space,keypress(Space),,,,,,,,---- -- ----- -- ------ - ------- --- ----------<br>------------- ------ ------ ---- ---- ------- ----- -- ----<br>-------- ------- -- ---------- --- - --- ----- ----- ----<br>---- --- --- ----- --- ---- that ------- ----- ---- -------<br>--- --- -- ----- -- --- ---- -- --- ---- -- ------ ------<br>--- ----- -- ----,137585,137601,136907,136896.00000000003,136924,137624,,34,that
screen,html.Screen,2_1_0_1_35,2022-04-25T14:20:52.327Z,,,,,,,,,,,,,,,,,53,,,,,,,,,,,,,,783.0000000000291,,response,,,,99,,,,,,,Space,keypress(Space),,,,,,,,---- -- ----- -- ------ - ------- --- ----------<br>------------- ------ ------ ---- ---- ------- ----- -- ----<br>-------- ------- -- ---------- --- - --- ----- ----- ----<br>---- --- --- ----- --- ---- ---- matters ----- ---- -------<br>--- --- -- ----- -- --- ---- -- --- ---- -- ------ ------<br>--- ----- -- ----,138376,138390.00000000003,137607,137586,137624,138407,,35,matters
screen,html.Screen,2_1_0_1_36,2022-04-25T14:20:53.022Z,,,,,,,,,,,,,,,,,53,,,,,,,,,,,,,,697,,response,,,,99,,,,,,,Space,keypress(Space),,,,,,,,"---- -- ----- -- ------ - ------- --- ----------<br>------------- ------ ------ ---- ---- ------- ----- -- ----<br>-------- ------- -- ---------- --- - --- ----- ----- ----<br>---- --- --- ----- --- ---- ---- ------- most, ---- -------<br>--- --- -- ----- -- --- ---- -- --- ---- -- ------ ------<br>--- ----- -- ----",139071,139087,138390,138377,138407,139107,,36,"most,"
screen,html.Screen,2_1_0_1_37,2022-04-25T14:20:53.789Z,,,,,,,,,,,,,,,,,53,,,,,,,,,,,,,,764,,response,,,,99,,,,,,,Space,keypress(Space),,,,,,,,---- -- ----- -- ------ - ------- --- ----------<br>------------- ------ ------ ---- ---- ------- ----- -- ----<br>-------- ------- -- ---------- --- - --- ----- ----- ----<br>---- --- --- ----- --- ---- ---- ------- ----- it's -------<br>--- --- -- ----- -- --- ---- -- --- ---- -- ------ ------<br>--- ----- -- ----,139839,139855,139091,139072,139107,139874,,37,it's
screen,html.Screen,2_1_0_1_38,2022-04-25T14:20:54.541Z,,,,,,,,,,,,,,,,,53,,,,,,,,,,,,,,751,,response,,,,99,,,,,,,Space,keypress(Space),,,,,,,,---- -- ----- -- ------ - ------- --- ----------<br>------------- ------ ------ ---- ---- ------- ----- -- ----<br>-------- ------- -- ---------- --- - --- ----- ----- ----<br>---- --- --- ----- --- ---- ---- ------- ----- ---- whether<br>--- --- -- ----- -- --- ---- -- --- ---- -- ------ ------<br>--- ----- -- ----,140590,140608,139857,139839,139874,140624,,38,whether
screen,html.Screen,2_1_0_1_39,2022-04-25T14:20:55.271Z,,,,,,,,,,,,,,,,,53,,,,,,,,,,,,,,731,,response,,,,99,,,,,,,Space,keypress(Space),,,,,,,,---- -- ----- -- ------ - ------- --- ----------<br>------------- ------ ------ ---- ---- ------- ----- -- ----<br>-------- ------- -- ---------- --- - --- ----- ----- ----<br>---- --- --- ----- --- ---- ---- ------- ----- ---- -------<br>you --- -- ----- -- --- ---- -- --- ---- -- ------ ------<br>--- ----- -- ----,141321,141338,140607,140591,140624,141357,,39,you
screen,html.Screen,2_1_0_1_40,2022-04-25T14:20:55.989Z,,,,,,,,,,,,,,,,,53,,,,,,,,,,,,,,716.0000000000291,,response,,,,99,,,,,,,Space,keypress(Space),,,,,,,,---- -- ----- -- ------ - ------- --- ----------<br>------------- ------ ------ ---- ---- ------- ----- -- ----<br>-------- ------- -- ---------- --- - --- ----- ----- ----<br>---- --- --- ----- --- ---- ---- ------- ----- ---- -------<br>--- are -- ----- -- --- ---- -- --- ---- -- ------ ------<br>--- ----- -- ----,142039.00000000003,142057.00000000003,141341,141321,141357,142074,,40,are
screen,html.Screen,2_1_0_1_41,2022-04-25T14:20:56.662Z,,,,,,,,,,,,,,,,,53,,,,,,,,,,,,,,673,,response,,,,99,,,,,,,Space,keypress(Space),,,,,,,,---- -- ----- -- ------ - ------- --- ----------<br>------------- ------ ------ ---- ---- ------- ----- -- ----<br>-------- ------- -- ---------- --- - --- ----- ----- ----<br>---- --- --- ----- --- ---- ---- ------- ----- ---- -------<br>--- --- as ----- -- --- ---- -- --- ---- -- ------ ------<br>--- ----- -- ----,142711,142730,142057,142039.00000000003,142074,142740,,41,as
screen,html.Screen,2_1_0_1_42,2022-04-25T14:20:57.361Z,,,,,,,,,,,,,,,,,53,,,,,,,,,,,,,,705,,response,,,,99,,,,,,,Space,keypress(Space),,,,,,,,---- -- ----- -- ------ - ------- --- ----------<br>------------- ------ ------ ---- ---- ------- ----- -- ----<br>-------- ------- -- ---------- --- - --- ----- ----- ----<br>---- --- --- ----- --- ---- ---- ------- ----- ---- -------<br>--- --- -- close -- --- ---- -- --- ---- -- ------ ------<br>--- ----- -- ----,143411,143429,142724,142712,142740,143441,,42,close
screen,html.Screen,2_1_0_1_43,2022-04-25T14:20:57.970Z,,,,,,,,,,,,,,,,,53,,,,,,,,,,,,,,614,,response,,,,99,,,,,,,Space,keypress(Space),,,,,,,,---- -- ----- -- ------ - ------- --- ----------<br>------------- ------ ------ ---- ---- ------- ----- -- ----<br>-------- ------- -- ---------- --- - --- ----- ----- ----<br>---- --- --- ----- --- ---- ---- ------- ----- ---- -------<br>--- --- -- ----- as --- ---- -- --- ---- -- ------ ------<br>--- ----- -- ----,144020,144038,143424,143411,143441,144056,,43,as
screen,html.Screen,2_1_0_1_44,2022-04-25T14:20:58.594Z,,,,,,,,,,,,,,,,,53,,,,,,,,,,,,,,621,,response,,,,99,,,,,,,Space,keypress(Space),,,,,,,,---- -- ----- -- ------ - ------- --- ----------<br>------------- ------ ------ ---- ---- ------- ----- -- ----<br>-------- ------- -- ---------- --- - --- ----- ----- ----<br>---- --- --- ----- --- ---- ---- ------- ----- ---- -------<br>--- --- -- ----- -- you ---- -- --- ---- -- ------ ------<br>--- ----- -- ----,144644,144662,144041,144021.00000000003,144056,144674,,44,you
screen,html.Screen,2_1_0_1_45,2022-04-25T14:20:59.264Z,,,,,,,,,,,,,,,,,53,,,,,,,,,,,,,,674,,response,,,,99,,,,,,,Space,keypress(Space),,,,,,,,---- -- ----- -- ------ - ------- --- ----------<br>------------- ------ ------ ---- ---- ------- ----- -- ----<br>-------- ------- -- ---------- --- - --- ----- ----- ----<br>---- --- --- ----- --- ---- ---- ------- ----- ---- -------<br>--- --- -- ----- -- --- want -- --- ---- -- ------ ------<br>--- ----- -- ----,145314,145331,144657,144644,144674,145341,,45,want
screen,html.Screen,2_1_0_1_46,2022-04-25T14:20:59.896Z,,,,,,,,,,,,,,,,,53,,,,,,,,,,,,,,640,,response,,,,99,,,,,,,Space,keypress(Space),,,,,,,,---- -- ----- -- ------ - ------- --- ----------<br>------------- ------ ------ ---- ---- ------- ----- -- ----<br>-------- ------- -- ---------- --- - --- ----- ----- ----<br>---- --- --- ----- --- ---- ---- ------- ----- ---- -------<br>--- --- -- ----- -- --- ---- to --- ---- -- ------ ------<br>--- ----- -- ----,145946,145964,145324,145314,145341,145974,,46,to
screen,html.Screen,2_1_0_1_47,2022-04-25T14:21:00.563Z,,,,,,,,,,,,,,,,,53,,,,,,,,,,,,,,674,,response,,,,99,,,,,,,Space,keypress(Space),,,,,,,,"---- -- ----- -- ------ - ------- --- ----------<br>------------- ------ ------ ---- ---- ------- ----- -- ----<br>-------- ------- -- ---------- --- - --- ----- ----- ----<br>---- --- --- ----- --- ---- ---- ------- ----- ---- -------<br>--- --- -- ----- -- --- ---- -- be, ---- -- ------ ------<br>--- ----- -- ----",146613,146631,145957,145947,145974,146641,,47,"be,"
screen,html.Screen,2_1_0_1_48,2022-04-25T14:21:01.211Z,,,,,,,,,,,,,,,,,53,,,,,,,,,,,,,,654,,response,,,,99,,,,,,,Space,keypress(Space),,,,,,,,---- -- ----- -- ------ - ------- --- ----------<br>------------- ------ ------ ---- ---- ------- ----- -- ----<br>-------- ------- -- ---------- --- - --- ----- ----- ----<br>---- --- --- ----- --- ---- ---- ------- ----- ---- -------<br>--- --- -- ----- -- --- ---- -- --- even -- ------ ------<br>--- ----- -- ----,147261,147278,146624,146613,146641,147291,,48,even
screen,html.Screen,2_1_0_1_49,2022-04-25T14:21:01.770Z,,,,,,,,,,,,,,,,,53,,,,,,,,,,,,,,563,,response,,,,99,,,,,,,Space,keypress(Space),,,,,,,,---- -- ----- -- ------ - ------- --- ----------<br>------------- ------ ------ ---- ---- ------- ----- -- ----<br>-------- ------- -- ---------- --- - --- ----- ----- ----<br>---- --- --- ----- --- ---- ---- ------- ----- ---- -------<br>--- --- -- ----- -- --- ---- -- --- ---- if ------ ------<br>--- ----- -- ----,147820,147837,147274,147261,147291,147858,,49,if
screen,html.Screen,2_1_0_1_50,2022-04-25T14:21:02.284Z,,,,,,,,,,,,,,,,,53,,,,,,,,,,,,,,510,,response,,,,99,,,,,,,Space,keypress(Space),,,,,,,,---- -- ----- -- ------ - ------- --- ----------<br>------------- ------ ------ ---- ---- ------- ----- -- ----<br>-------- ------- -- ---------- --- - --- ----- ----- ----<br>---- --- --- ----- --- ---- ---- ------- ----- ---- -------<br>--- --- -- ----- -- --- ---- -- --- ---- -- that's ------<br>--- ----- -- ----,148334,148351,147841,147820,147858,148374,,50,that's
screen,html.Screen,2_1_0_1_51,2022-04-25T14:21:02.798Z,,,,,,,,,,,,,,,,,53,,,,,,,,,,,,,,511,,response,,,,99,,,,,,,Space,keypress(Space),,,,,,,,---- -- ----- -- ------ - ------- --- ----------<br>------------- ------ ------ ---- ---- ------- ----- -- ----<br>-------- ------- -- ---------- --- - --- ----- ----- ----<br>---- --- --- ----- --- ---- ---- ------- ----- ---- -------<br>--- --- -- ----- -- --- ---- -- --- ---- -- ------ really<br>--- ----- -- ----,148848,148868,148357,148334,148374,148890,,51,really
screen,html.Screen,2_1_0_1_52,2022-04-25T14:21:03.345Z,,,,,,,,,,,,,,,,,53,,,,,,,,,,,,,,537,,response,,,,99,,,,,,,Space,keypress(Space),,,,,,,,---- -- ----- -- ------ - ------- --- ----------<br>------------- ------ ------ ---- ---- ------- ----- -- ----<br>-------- ------- -- ---------- --- - --- ----- ----- ----<br>---- --- --- ----- --- ---- ---- ------- ----- ---- -------<br>--- --- -- ----- -- --- ---- -- --- ---- -- ------ ------<br>not ----- -- ----,149395,149411,148874,148849,148890,149424,,52,not
screen,html.Screen,2_1_0_1_53,2022-04-25T14:21:03.809Z,,,,,,,,,,,,,,,,,53,,,,,,,,,,,,,,470,,response,,,,99,,,,,,,Space,keypress(Space),,,,,,,,---- -- ----- -- ------ - ------- --- ----------<br>------------- ------ ------ ---- ---- ------- ----- -- ----<br>-------- ------- -- ---------- --- - --- ----- ----- ----<br>---- --- --- ----- --- ---- ---- ------- ----- ---- -------<br>--- --- -- ----- -- --- ---- -- --- ---- -- ------ ------<br>--- close -- ----,149860,149878,149408,149395,149424,149891,,53,close
screen,html.Screen,2_1_0_1_54,2022-04-25T14:21:04.216Z,,,,,,,,,,,,,,,,,53,,,,,,,,,,,,,,412,,response,,,,99,,,,,,,Space,keypress(Space),,,,,,,,---- -- ----- -- ------ - ------- --- ----------<br>------------- ------ ------ ---- ---- ------- ----- -- ----<br>-------- ------- -- ---------- --- - --- ----- ----- ----<br>---- --- --- ----- --- ---- ---- ------- ----- ---- -------<br>--- --- -- ----- -- --- ---- -- --- ---- -- ------ ------<br>--- ----- at ----,150267,150286,149874,149860,149891,150308,,54,at
screen,html.Screen,2_1_0_1_55,2022-04-25T14:21:05.099Z,,,,,,,,,,,,,,,,,53,,,,,,,,,,,,,,875,,response,,,,99,,,,,,,Space,keypress(Space),,,,,,,,---- -- ----- -- ------ - ------- --- ----------<br>------------- ------ ------ ---- ---- ------- ----- -- ----<br>-------- ------- -- ---------- --- - --- ----- ----- ----<br>---- --- --- ----- --- ---- ---- ------- ----- ---- -------<br>--- --- -- ----- -- --- ---- -- --- ---- -- ------ ------<br>--- ----- -- all.,151150,151166,150291,150267,150308,151191,,55,all.
Item 99,flow.Loop,2_1_0_1,2022-04-25T14:21:05.101Z,,,,,,,,,,,,,,,,,,,,,,,,,,,,,,,38027,,completion,,,,,A,,,,,,,,,,,silence,,,,,151151,151166,113123,113124.00000000001,113139,151191,,,
Question 1,html.Screen,2_1_0_2,2022-04-25T14:21:09.326Z,,,,,,,,,,,,,,,,,,,,,,,,,,,,true,FALSE,,4223,,response,,,,99,A,,,,,,FALSE,click #choice-2,,,,silence,,,,,155377,155397,151174,151151,151191,155408,,,
Question 2,html.Screen,2_1_0_3,2022-04-25T14:21:12.330Z,,,,,,,,,,,,,,,,,,,,,,,,,,,,true,TRUE,,3010,,response,,,,99,A,,,,,,TRUE,click #choice-1,,,,silence,,,,,158381,158401,155391,155377,155408,158414,,,
Item 99,flow.Sequence,2_1_0,2022-04-25T14:21:12.331Z,,,,,,,,,,,,,,,,,,,,,,,,,,,,,,,55262,,completion,,,,,,,,,,,,,,,,,,,,,158381,158401,103122,103119,103139,158414,,,
Holding screen,html.Screen,2_1_1_0,2022-04-25T14:21:22.342Z,,,,,,,,,,,,,,,,,,,,,,,,,,,,,,,9994,,timeout,,,,,,,,,,,,,,,,,,,,,168393,168392,158391,158382,158414,168408,,,
screen,html.Screen,2_1_1_1_0,2022-04-25T14:21:23.319Z,,,,,,,,,,,,,,,,,54,,,,,,,,,,,,,,995,,response,,,,100,,,,,,,Space,keypress(Space),,,,,,,,At --- ---- --- ------ ----- ------- ---- -- --- ------- --<br>------- ---------- ------ -- ----- -- ----- -- ---- ------<br>--- ----- --- --- ------ -------- ----- --- ------ ----- --<br>----- ----- ---------- --- --- ------ ------ ---- -- ------<br>------- --- ------ ----- --- ---- ------- -- ---- --- --<br>------- ------,169370,169387,168392,168394,168408,169408,,0,At
screen,html.Screen,2_1_1_1_1,2022-04-25T14:21:23.846Z,,,,,,,,,,,,,,,,,54,,,,,,,,,,,,,,526,,response,,,,100,,,,,,,Space,keypress(Space),,,,,,,,-- the ---- --- ------ ----- ------- ---- -- --- ------- --<br>------- ---------- ------ -- ----- -- ----- -- ---- ------<br>--- ----- --- --- ------ -------- ----- --- ------ ----- --<br>----- ----- ---------- --- --- ------ ------ ---- -- ------<br>------- --- ------ ----- --- ---- ------- -- ---- --- --<br>------- ------,169897,169917,169391,169371,169408,169925,,1,the
screen,html.Screen,2_1_1_1_2,2022-04-25T14:21:24.487Z,,,,,,,,,,,,,,,,,54,,,,,,,,,,,,,,647,,response,,,,100,,,,,,,Space,keypress(Space),,,,,,,,-- --- time --- ------ ----- ------- ---- -- --- ------- --<br>------- ---------- ------ -- ----- -- ----- -- ---- ------<br>--- ----- --- --- ------ -------- ----- --- ------ ----- --<br>----- ----- ---------- --- --- ------ ------ ---- -- ------<br>------- --- ------ ----- --- ---- ------- -- ---- --- --<br>------- ------,170538,170556,169909,169898,169925,170574,,2,time
screen,html.Screen,2_1_1_1_3,2022-04-25T14:21:25.142Z,,,,,,,,,,,,,,,,,54,,,,,,,,,,,,,,655,,response,,,,100,,,,,,,Space,keypress(Space),,,,,,,,-- --- ---- the ------ ----- ------- ---- -- --- ------- --<br>------- ---------- ------ -- ----- -- ----- -- ---- ------<br>--- ----- --- --- ------ -------- ----- --- ------ ----- --<br>----- ----- ---------- --- --- ------ ------ ---- -- ------<br>------- --- ------ ----- --- ---- ------- -- ---- --- --<br>------- ------,171194.00000000003,171213,170558,170538,170574,171225,,3,the
screen,html.Screen,2_1_1_1_4,2022-04-25T14:21:25.782Z,,,,,,,,,,,,,,,,,54,,,,,,,,,,,,,,643,,response,,,,100,,,,,,,Space,keypress(Space),,,,,,,,-- --- ---- --- French ----- ------- ---- -- --- ------- --<br>------- ---------- ------ -- ----- -- ----- -- ---- ------<br>--- ----- --- --- ------ -------- ----- --- ------ ----- --<br>----- ----- ---------- --- --- ------ ------ ---- -- ------<br>------- --- ------ ----- --- ---- ------- -- ---- --- --<br>------- ------,171833,171851,171208,171194.00000000003,171225,171875,,4,French
screen,html.Screen,2_1_1_1_5,2022-04-25T14:21:26.289Z,,,,,,,,,,,,,,,,,54,,,,,,,,,,,,,,501,,response,,,,100,,,,,,,Space,keypress(Space),,,,,,,,-- --- ---- --- ------ crown ------- ---- -- --- ------- --<br>------- ---------- ------ -- ----- -- ----- -- ---- ------<br>--- ----- --- --- ------ -------- ----- --- ------ ----- --<br>----- ----- ---------- --- --- ------ ------ ---- -- ------<br>------- --- ------ ----- --- ---- ------- -- ---- --- --<br>------- ------,172340,172360,171859,171834,171875,172374,,5,crown
screen,html.Screen,2_1_1_1_6,2022-04-25T14:21:26.781Z,,,,,,,,,,,,,,,,,54,,,,,,,,,,,,,,494,,response,,,,100,,,,,,,Space,keypress(Space),,,,,,,,-- --- ---- --- ------ ----- secured ---- -- --- ------- --<br>------- ---------- ------ -- ----- -- ----- -- ---- ------<br>--- ----- --- --- ------ -------- ----- --- ------ ----- --<br>----- ----- ---------- --- --- ------ ------ ---- -- ------<br>------- --- ------ ----- --- ---- ------- -- ---- --- --<br>------- ------,172832,172852,172358,172341,172374,172875,,6,secured
screen,html.Screen,2_1_1_1_7,2022-04-25T14:21:27.313Z,,,,,,,,,,,,,,,,,54,,,,,,,,,,,,,,524,,response,,,,100,,,,,,,Space,keypress(Space),,,,,,,,-- --- ---- --- ------ ----- ------- much -- --- ------- --<br>------- ---------- ------ -- ----- -- ----- -- ---- ------<br>--- ----- --- --- ------ -------- ----- --- ------ ----- --<br>----- ----- ---------- --- --- ------ ------ ---- -- ------<br>------- --- ------ ----- --- ---- ------- -- ---- --- --<br>------- ------,173364,173383,172859,172833,172875,173392,,7,much
screen,html.Screen,2_1_1_1_8,2022-04-25T14:21:27.830Z,,,,,,,,,,,,,,,,,54,,,,,,,,,,,,,,526,,response,,,,100,,,,,,,Space,keypress(Space),,,,,,,,-- --- ---- --- ------ ----- ------- ---- of --- ------- --<br>------- ---------- ------ -- ----- -- ----- -- ---- ------<br>--- ----- --- --- ------ -------- ----- --- ------ ----- --<br>----- ----- ---------- --- --- ------ ------ ---- -- ------<br>------- --- ------ ----- --- ---- ------- -- ---- --- --<br>------- ------,173881,173901,173375,173365,173392,173909,,8,of
screen,html.Screen,2_1_1_1_9,2022-04-25T14:21:28.283Z,,,,,,,,,,,,,,,,,54,,,,,,,,,,,,,,461,,response,,,,100,,,,,,,Space,keypress(Space),,,,,,,,-- --- ---- --- ------ ----- ------- ---- -- its ------- --<br>------- ---------- ------ -- ----- -- ----- -- ---- ------<br>--- ----- --- --- ------ -------- ----- --- ------ ----- --<br>----- ----- ---------- --- --- ------ ------ ---- -- ------<br>------- --- ------ ----- --- ---- ------- -- ---- --- --<br>------- ------,174334,174353,173892,173881,173909,174375,,9,its
screen,html.Screen,2_1_1_1_10,2022-04-25T14:21:28.753Z,,,,,,,,,,,,,,,,,54,,,,,,,,,,,,,,466,,response,,,,100,,,,,,,Space,keypress(Space),,,,,,,,-- --- ---- --- ------ ----- ------- ---- -- --- revenue --<br>------- ---------- ------ -- ----- -- ----- -- ---- ------<br>--- ----- --- --- ------ -------- ----- --- ------ ----- --<br>----- ----- ---------- --- --- ------ ------ ---- -- ------<br>------- --- ------ ----- --- ---- ------- -- ---- --- --<br>------- ------,174805,174824,174358,174335,174375,174841,,10,revenue
screen,html.Screen,2_1_1_1_11,2022-04-25T14:21:29.206Z,,,,,,,,,,,,,,,,,54,,,,,,,,,,,,,,451,,response,,,,100,,,,,,,Space,keypress(Space),,,,,,,,-- --- ---- --- ------ ----- ------- ---- -- --- ------- by<br>------- ---------- ------ -- ----- -- ----- -- ---- ------<br>--- ----- --- --- ------ -------- ----- --- ------ ----- --<br>----- ----- ---------- --- --- ------ ------ ---- -- ------<br>------- --- ------ ----- --- ---- ------- -- ---- --- --<br>------- ------,175258,175276,174825,174805,174841,175292,,11,by
screen,html.Screen,2_1_1_1_12,2022-04-25T14:21:29.671Z,,,,,,,,,,,,,,,,,54,,,,,,,,,,,,,,466,,response,,,,100,,,,,,,Space,keypress(Space),,,,,,,,-- --- ---- --- ------ ----- ------- ---- -- --- ------- --<br>issuing ---------- ------ -- ----- -- ----- -- ---- ------<br>--- ----- --- --- ------ -------- ----- --- ------ ----- --<br>----- ----- ---------- --- --- ------ ------ ---- -- ------<br>------- --- ------ ----- --- ---- ------- -- ---- --- --<br>------- ------,175722,175741,175275,175258,175292,175758,,12,issuing
screen,html.Screen,2_1_1_1_13,2022-04-25T14:21:30.252Z,,,,,,,,,,,,,,,,,54,,,,,,,,,,,,,,580,,response,,,,100,,,,,,,Space,keypress(Space),,,,,,,,-- --- ---- --- ------ ----- ------- ---- -- --- ------- --<br>------- government ------ -- ----- -- ----- -- ---- ------<br>--- ----- --- --- ------ -------- ----- --- ------ ----- --<br>----- ----- ---------- --- --- ------ ------ ---- -- ------<br>------- --- ------ ----- --- ---- ------- -- ---- --- --<br>------- ------,176304,176322,175742,175723,175758,176342,,13,government
screen,html.Screen,2_1_1_1_14,2022-04-25T14:21:30.771Z,,,,,,,,,,,,,,,,,54,,,,,,,,,,,,,,516,,response,,,,100,,,,,,,Space,keypress(Space),,,,,,,,-- --- ---- --- ------ ----- ------- ---- -- --- ------- --<br>------- ---------- bonds. -- ----- -- ----- -- ---- ------<br>--- ----- --- --- ------ -------- ----- --- ------ ----- --<br>----- ----- ---------- --- --- ------ ------ ---- -- ------<br>------- --- ------ ----- --- ---- ------- -- ---- --- --<br>------- ------,176823,176841,176325,176304,176342,176859,,14,bonds.
screen,html.Screen,2_1_1_1_15,2022-04-25T14:21:31.286Z,,,,,,,,,,,,,,,,,54,,,,,,,,,,,,,,515,,response,,,,100,,,,,,,Space,keypress(Space),,,,,,,,-- --- ---- --- ------ ----- ------- ---- -- --- ------- --<br>------- ---------- ------ In ----- -- ----- -- ---- ------<br>--- ----- --- --- ------ -------- ----- --- ------ ----- --<br>----- ----- ---------- --- --- ------ ------ ---- -- ------<br>------- --- ------ ----- --- ---- ------- -- ---- --- --<br>------- ------,177337.00000000003,177357,176842,176823,176859,177375,,15,In
screen,html.Screen,2_1_1_1_16,2022-04-25T14:21:31.982Z,,,,,,,,,,,,,,,,,54,,,,,,,,,,,,,,692.0000000000291,,response,,,,100,,,,,,,Space,keypress(Space),,,,,,,,"-- --- ---- --- ------ ----- ------- ---- -- --- ------- --<br>------- ---------- ------ -- 1727, -- ----- -- ---- ------<br>--- ----- --- --- ------ -------- ----- --- ------ ----- --<br>----- ----- ---------- --- --- ------ ------ ---- -- ------<br>------- --- ------ ----- --- ---- ------- -- ---- --- --<br>------- ------",178033.00000000003,178051.00000000003,177359,177337.00000000003,177375,178075,,16,"1727,"
screen,html.Screen,2_1_1_1_17,2022-04-25T14:21:32.507Z,,,,,,,,,,,,,,,,,54,,,,,,,,,,,,,,518,,response,,,,100,,,,,,,Space,keypress(Space),,,,,,,,-- --- ---- --- ------ ----- ------- ---- -- --- ------- --<br>------- ---------- ------ -- ----- in ----- -- ---- ------<br>--- ----- --- --- ------ -------- ----- --- ------ ----- --<br>----- ----- ---------- --- --- ------ ------ ---- -- ------<br>------- --- ------ ----- --- ---- ------- -- ---- --- --<br>------- ------,178558,178577,178059,178033.00000000003,178075,178592,,17,in
screen,html.Screen,2_1_1_1_18,2022-04-25T14:21:32.994Z,,,,,,,,,,,,,,,,,54,,,,,,,,,,,,,,489,,response,,,,100,,,,,,,Space,keypress(Space),,,,,,,,-- --- ---- --- ------ ----- ------- ---- -- --- ------- --<br>------- ---------- ------ -- ----- -- order -- ---- ------<br>--- ----- --- --- ------ -------- ----- --- ------ ----- --<br>----- ----- ---------- --- --- ------ ------ ---- -- ------<br>------- --- ------ ----- --- ---- ------- -- ---- --- --<br>------- ------,179045.00000000003,179064,178575,178559,178592,179075,,18,order
screen,html.Screen,2_1_1_1_19,2022-04-25T14:21:33.409Z,,,,,,,,,,,,,,,,,54,,,,,,,,,,,,,,421,,response,,,,100,,,,,,,Space,keypress(Space),,,,,,,,-- --- ---- --- ------ ----- ------- ---- -- --- ------- --<br>------- ---------- ------ -- ----- -- ----- to ---- ------<br>--- ----- --- --- ------ -------- ----- --- ------ ----- --<br>----- ----- ---------- --- --- ------ ------ ---- -- ------<br>------- --- ------ ----- --- ---- ------- -- ---- --- --<br>------- ------,179461,179480,179059,179046,179075,179492,,19,to
screen,html.Screen,2_1_1_1_20,2022-04-25T14:21:33.794Z,,,,,,,,,,,,,,,,,54,,,,,,,,,,,,,,389,,response,,,,100,,,,,,,Space,keypress(Space),,,,,,,,-- --- ---- --- ------ ----- ------- ---- -- --- ------- --<br>------- ---------- ------ -- ----- -- ----- -- save ------<br>--- ----- --- --- ------ -------- ----- --- ------ ----- --<br>----- ----- ---------- --- --- ------ ------ ---- -- ------<br>------- --- ------ ----- --- ---- ------- -- ---- --- --<br>------- ------,179845,179864,179475,179461,179492,179875,,20,save
screen,html.Screen,2_1_1_1_21,2022-04-25T14:21:34.297Z,,,,,,,,,,,,,,,,,54,,,,,,,,,,,,,,509,,response,,,,100,,,,,,,Space,keypress(Space),,,,,,,,"-- --- ---- --- ------ ----- ------- ---- -- --- ------- --<br>------- ---------- ------ -- ----- -- ----- -- ---- money,<br>--- ----- --- --- ------ -------- ----- --- ------ ----- --<br>----- ----- ---------- --- --- ------ ------ ---- -- ------<br>------- --- ------ ----- --- ---- ------- -- ---- --- --<br>------- ------",180348,180367,179858,179846,179875,180375,,21,"money,"
screen,html.Screen,2_1_1_1_22,2022-04-25T14:21:34.710Z,,,,,,,,,,,,,,,,,54,,,,,,,,,,,,,,423,,response,,,,100,,,,,,,Space,keypress(Space),,,,,,,,-- --- ---- --- ------ ----- ------- ---- -- --- ------- --<br>------- ---------- ------ -- ----- -- ----- -- ---- ------<br>the ----- --- --- ------ -------- ----- --- ------ ----- --<br>----- ----- ---------- --- --- ------ ------ ---- -- ------<br>------- --- ------ ----- --- ---- ------- -- ---- --- --<br>------- ------,180762,180782,180359,180348,180375,180792,,22,the
screen,html.Screen,2_1_1_1_23,2022-04-25T14:21:35.136Z,,,,,,,,,,,,,,,,,54,,,,,,,,,,,,,,432,,response,,,,100,,,,,,,Space,keypress(Space),,,,,,,,-- --- ---- --- ------ ----- ------- ---- -- --- ------- --<br>------- ---------- ------ -- ----- -- ----- -- ---- ------<br>--- state --- --- ------ -------- ----- --- ------ ----- --<br>----- ----- ---------- --- --- ------ ------ ---- -- ------<br>------- --- ------ ----- --- ---- ------- -- ---- --- --<br>------- ------,181188.00000000003,181207,180775,180762,180792,181225,,23,state
screen,html.Screen,2_1_1_1_24,2022-04-25T14:21:35.531Z,,,,,,,,,,,,,,,,,54,,,,,,,,,,,,,,393,,response,,,,100,,,,,,,Space,keypress(Space),,,,,,,,-- --- ---- --- ------ ----- ------- ---- -- --- ------- --<br>------- ---------- ------ -- ----- -- ----- -- ---- ------<br>--- ----- cut --- ------ -------- ----- --- ------ ----- --<br>----- ----- ---------- --- --- ------ ------ ---- -- ------<br>------- --- ------ ----- --- ---- ------- -- ---- --- --<br>------- ------,181582,181601,181208,181188.00000000003,181225,181609,,24,cut
screen,html.Screen,2_1_1_1_25,2022-04-25T14:21:35.910Z,,,,,,,,,,,,,,,,,54,,,,,,,,,,,,,,388,,response,,,,100,,,,,,,Space,keypress(Space),,,,,,,,-- --- ---- --- ------ ----- ------- ---- -- --- ------- --<br>------- ---------- ------ -- ----- -- ----- -- ---- ------<br>--- ----- --- the ------ -------- ----- --- ------ ----- --<br>----- ----- ---------- --- --- ------ ------ ---- -- ------<br>------- --- ------ ----- --- ---- ------- -- ---- --- --<br>------- ------,181961,181980,181592,181582,181609,181991,,25,the
screen,html.Screen,2_1_1_1_26,2022-04-25T14:21:36.486Z,,,,,,,,,,,,,,,,,54,,,,,,,,,,,,,,581,,response,,,,100,,,,,,,Space,keypress(Space),,,,,,,,-- --- ---- --- ------ ----- ------- ---- -- --- ------- --<br>------- ---------- ------ -- ----- -- ----- -- ---- ------<br>--- ----- --- --- bonds' -------- ----- --- ------ ----- --<br>----- ----- ---------- --- --- ------ ------ ---- -- ------<br>------- --- ------ ----- --- ---- ------- -- ---- --- --<br>------- ------,182538,182556,181975,181962.00000000003,181991,182575,,26,bonds'
screen,html.Screen,2_1_1_1_27,2022-04-25T14:21:37.441Z,,,,,,,,,,,,,,,,,54,,,,,,,,,,,,,,949,,response,,,,100,,,,,,,Space,keypress(Space),,,,,,,,-- --- ---- --- ------ ----- ------- ---- -- --- ------- --<br>------- ---------- ------ -- ----- -- ----- -- ---- ------<br>--- ----- --- --- ------ interest ----- --- ------ ----- --<br>----- ----- ---------- --- --- ------ ------ ---- -- ------<br>------- --- ------ ----- --- ---- ------- -- ---- --- --<br>------- ------,183492,183508,182559,182538,182575,183525,,27,interest
screen,html.Screen,2_1_1_1_28,2022-04-25T14:21:38.176Z,,,,,,,,,,,,,,,,,54,,,,,,,,,,,,,,737,,response,,,,100,,,,,,,Space,keypress(Space),,,,,,,,-- --- ---- --- ------ ----- ------- ---- -- --- ------- --<br>------- ---------- ------ -- ----- -- ----- -- ---- ------<br>--- ----- --- --- ------ -------- rate. --- ------ ----- --<br>----- ----- ---------- --- --- ------ ------ ---- -- ------<br>------- --- ------ ----- --- ---- ------- -- ---- --- --<br>------- ------,184228,184246,183509,183493,183525,184258,,28,rate.
screen,html.Screen,2_1_1_1_29,2022-04-25T14:21:38.591Z,,,,,,,,,,,,,,,,,54,,,,,,,,,,,,,,420,,response,,,,100,,,,,,,Space,keypress(Space),,,,,,,,-- --- ---- --- ------ ----- ------- ---- -- --- ------- --<br>------- ---------- ------ -- ----- -- ----- -- ---- ------<br>--- ----- --- --- ------ -------- ----- The ------ ----- --<br>----- ----- ---------- --- --- ------ ------ ---- -- ------<br>------- --- ------ ----- --- ---- ------- -- ---- --- --<br>------- ------,184643,184662,184242,184228,184258,184676,,29,The
screen,html.Screen,2_1_1_1_30,2022-04-25T14:21:39.123Z,,,,,,,,,,,,,,,,,54,,,,,,,,,,,,,,534,,response,,,,100,,,,,,,Space,keypress(Space),,,,,,,,-- --- ---- --- ------ ----- ------- ---- -- --- ------- --<br>------- ---------- ------ -- ----- -- ----- -- ---- ------<br>--- ----- --- --- ------ -------- ----- --- market ----- --<br>----- ----- ---------- --- --- ------ ------ ---- -- ------<br>------- --- ------ ----- --- ---- ------- -- ---- --- --<br>------- ------,185175,185193,184659,184643,184676,185209,,30,market
screen,html.Screen,2_1_1_1_31,2022-04-25T14:21:39.550Z,,,,,,,,,,,,,,,,,54,,,,,,,,,,,,,,429,,response,,,,100,,,,,,,Space,keypress(Space),,,,,,,,-- --- ---- --- ------ ----- ------- ---- -- --- ------- --<br>------- ---------- ------ -- ----- -- ----- -- ---- ------<br>--- ----- --- --- ------ -------- ----- --- ------ value --<br>----- ----- ---------- --- --- ------ ------ ---- -- ------<br>------- --- ------ ----- --- ---- ------- -- ---- --- --<br>------- ------,185602,185621,185192,185175,185209,185642,,31,value
screen,html.Screen,2_1_1_1_32,2022-04-25T14:21:40.033Z,,,,,,,,,,,,,,,,,54,,,,,,,,,,,,,,479,,response,,,,100,,,,,,,Space,keypress(Space),,,,,,,,-- --- ---- --- ------ ----- ------- ---- -- --- ------- --<br>------- ---------- ------ -- ----- -- ----- -- ---- ------<br>--- ----- --- --- ------ -------- ----- --- ------ ----- of<br>----- ----- ---------- --- --- ------ ------ ---- -- ------<br>------- --- ------ ----- --- ---- ------- -- ---- --- --<br>------- ------,186085,186105,185626,185602,185642,186125,,32,of
screen,html.Screen,2_1_1_1_33,2022-04-25T14:21:40.442Z,,,,,,,,,,,,,,,,,54,,,,,,,,,,,,,,405,,response,,,,100,,,,,,,Space,keypress(Space),,,,,,,,-- --- ---- --- ------ ----- ------- ---- -- --- ------- --<br>------- ---------- ------ -- ----- -- ----- -- ---- ------<br>--- ----- --- --- ------ -------- ----- --- ------ ----- --<br>these ----- ---------- --- --- ------ ------ ---- -- ------<br>------- --- ------ ----- --- ---- ------- -- ---- --- --<br>------- ------,186494,186514,186109,186085,186125,186526,,33,these
screen,html.Screen,2_1_1_1_34,2022-04-25T14:21:40.919Z,,,,,,,,,,,,,,,,,54,,,,,,,,,,,,,,481,,response,,,,100,,,,,,,Space,keypress(Space),,,,,,,,-- --- ---- --- ------ ----- ------- ---- -- --- ------- --<br>------- ---------- ------ -- ----- -- ----- -- ---- ------<br>--- ----- --- --- ------ -------- ----- --- ------ ----- --<br>----- bonds ---------- --- --- ------ ------ ---- -- ------<br>------- --- ------ ----- --- ---- ------- -- ---- --- --<br>------- ------,186971,186990,186509,186494,186526,187009,,34,bonds
screen,html.Screen,2_1_1_1_35,2022-04-25T14:21:41.464Z,,,,,,,,,,,,,,,,,54,,,,,,,,,,,,,,544,,response,,,,100,,,,,,,Space,keypress(Space),,,,,,,,"-- --- ---- --- ------ ----- ------- ---- -- --- ------- --<br>------- ---------- ------ -- ----- -- ----- -- ---- ------<br>--- ----- --- --- ------ -------- ----- --- ------ ----- --<br>----- ----- plummeted, --- --- ------ ------ ---- -- ------<br>------- --- ------ ----- --- ---- ------- -- ---- --- --<br>------- ------",187516,187536,186992,186971,187009,187559,,35,"plummeted,"
screen,html.Screen,2_1_1_1_36,2022-04-25T14:21:41.934Z,,,,,,,,,,,,,,,,,54,,,,,,,,,,,,,,463,,response,,,,100,,,,,,,Space,keypress(Space),,,,,,,,-- --- ---- --- ------ ----- ------- ---- -- --- ------- --<br>------- ---------- ------ -- ----- -- ----- -- ---- ------<br>--- ----- --- --- ------ -------- ----- --- ------ ----- --<br>----- ----- ---------- and --- ------ ------ ---- -- ------<br>------- --- ------ ----- --- ---- ------- -- ---- --- --<br>------- ------,187986,188005,187542,187516,187559,188026,,36,and
screen,html.Screen,2_1_1_1_37,2022-04-25T14:21:42.354Z,,,,,,,,,,,,,,,,,54,,,,,,,,,,,,,,418,,response,,,,100,,,,,,,Space,keypress(Space),,,,,,,,-- --- ---- --- ------ ----- ------- ---- -- --- ------- --<br>------- ---------- ------ -- ----- -- ----- -- ---- ------<br>--- ----- --- --- ------ -------- ----- --- ------ ----- --<br>----- ----- ---------- --- the ------ ------ ---- -- ------<br>------- --- ------ ----- --- ---- ------- -- ---- --- --<br>------- ------,188406,188427,188009,187986,188026,188443,,37,the
screen,html.Screen,2_1_1_1_38,2022-04-25T14:21:42.774Z,,,,,,,,,,,,,,,,,54,,,,,,,,,,,,,,421,,response,,,,100,,,,,,,Space,keypress(Space),,,,,,,,-- --- ---- --- ------ ----- ------- ---- -- --- ------- --<br>------- ---------- ------ -- ----- -- ----- -- ---- ------<br>--- ----- --- --- ------ -------- ----- --- ------ ----- --<br>----- ----- ---------- --- --- market ------ ---- -- ------<br>------- --- ------ ----- --- ---- ------- -- ---- --- --<br>------- ------,188826,188846,188425,188407,188443,188858,,38,market
screen,html.Screen,2_1_1_1_39,2022-04-25T14:21:43.362Z,,,,,,,,,,,,,,,,,54,,,,,,,,,,,,,,591,,response,,,,100,,,,,,,Space,keypress(Space),,,,,,,,-- --- ---- --- ------ ----- ------- ---- -- --- ------- --<br>------- ---------- ------ -- ----- -- ----- -- ---- ------<br>--- ----- --- --- ------ -------- ----- --- ------ ----- --<br>----- ----- ---------- --- --- ------ became ---- -- ------<br>------- --- ------ ----- --- ---- ------- -- ---- --- --<br>------- ------,189413,189433,188842,188827,188858,189443,,39,became
screen,html.Screen,2_1_1_1_40,2022-04-25T14:21:43.870Z,,,,,,,,,,,,,,,,,54,,,,,,,,,,,,,,515,,response,,,,100,,,,,,,Space,keypress(Space),,,,,,,,-- --- ---- --- ------ ----- ------- ---- -- --- ------- --<br>------- ---------- ------ -- ----- -- ----- -- ---- ------<br>--- ----- --- --- ------ -------- ----- --- ------ ----- --<br>----- ----- ---------- --- --- ------ ------ wary -- ------<br>------- --- ------ ----- --- ---- ------- -- ---- --- --<br>------- ------,189922,189940,189425,189414.00000000003,189443,189959,,40,wary
screen,html.Screen,2_1_1_1_41,2022-04-25T14:21:44.311Z,,,,,,,,,,,,,,,,,54,,,,,,,,,,,,,,439,,response,,,,100,,,,,,,Space,keypress(Space),,,,,,,,-- --- ---- --- ------ ----- ------- ---- -- --- ------- --<br>------- ---------- ------ -- ----- -- ----- -- ---- ------<br>--- ----- --- --- ------ -------- ----- --- ------ ----- --<br>----- ----- ---------- --- --- ------ ------ ---- of ------<br>------- --- ------ ----- --- ---- ------- -- ---- --- --<br>------- ------,190363,190382,189943,189922,189959,190393,,41,of
screen,html.Screen,2_1_1_1_42,2022-04-25T14:21:44.811Z,,,,,,,,,,,,,,,,,54,,,,,,,,,,,,,,508,,response,,,,100,,,,,,,Space,keypress(Space),,,,,,,,-- --- ---- --- ------ ----- ------- ---- -- --- ------- --<br>------- ---------- ------ -- ----- -- ----- -- ---- ------<br>--- ----- --- --- ------ -------- ----- --- ------ ----- --<br>----- ----- ---------- --- --- ------ ------ ---- -- French<br>------- --- ------ ----- --- ---- ------- -- ---- --- --<br>------- ------,190863,190884,190376,190363,190393,190893,,42,French
screen,html.Screen,2_1_1_1_43,2022-04-25T14:21:45.238Z,,,,,,,,,,,,,,,,,54,,,,,,,,,,,,,,434,,response,,,,100,,,,,,,Space,keypress(Space),,,,,,,,-- --- ---- --- ------ ----- ------- ---- -- --- ------- --<br>------- ---------- ------ -- ----- -- ----- -- ---- ------<br>--- ----- --- --- ------ -------- ----- --- ------ ----- --<br>----- ----- ---------- --- --- ------ ------ ---- -- ------<br>credit. --- ------ ----- --- ---- ------- -- ---- --- --<br>------- ------,191290,191310,190876,190864,190893,191325,,43,credit.
screen,html.Screen,2_1_1_1_44,2022-04-25T14:21:45.970Z,,,,,,,,,,,,,,,,,54,,,,,,,,,,,,,,732,,response,,,,100,,,,,,,Space,keypress(Space),,,,,,,,-- --- ---- --- ------ ----- ------- ---- -- --- ------- --<br>------- ---------- ------ -- ----- -- ----- -- ---- ------<br>--- ----- --- --- ------ -------- ----- --- ------ ----- --<br>----- ----- ---------- --- --- ------ ------ ---- -- ------<br>------- The ------ ----- --- ---- ------- -- ---- --- --<br>------- ------,192022,192041,191309,191290,191325,192059,,44,The
screen,html.Screen,2_1_1_1_45,2022-04-25T14:21:46.464Z,,,,,,,,,,,,,,,,,54,,,,,,,,,,,,,,493,,response,,,,100,,,,,,,Space,keypress(Space),,,,,,,,-- --- ---- --- ------ ----- ------- ---- -- --- ------- --<br>------- ---------- ------ -- ----- -- ----- -- ---- ------<br>--- ----- --- --- ------ -------- ----- --- ------ ----- --<br>----- ----- ---------- --- --- ------ ------ ---- -- ------<br>------- --- French ----- --- ---- ------- -- ---- --- --<br>------- ------,192516,192535,192042,192023,192059,192559,,45,French
screen,html.Screen,2_1_1_1_46,2022-04-25T14:21:46.896Z,,,,,,,,,,,,,,,,,54,,,,,,,,,,,,,,426.0000000000291,,response,,,,100,,,,,,,Space,keypress(Space),,,,,,,,-- --- ---- --- ------ ----- ------- ---- -- --- ------- --<br>------- ---------- ------ -- ----- -- ----- -- ---- ------<br>--- ----- --- --- ------ -------- ----- --- ------ ----- --<br>----- ----- ---------- --- --- ------ ------ ---- -- ------<br>------- --- ------ state --- ---- ------- -- ---- --- --<br>------- ------,192948,192968.00000000003,192542,192517,192559,192976,,46,state
screen,html.Screen,2_1_1_1_47,2022-04-25T14:21:47.356Z,,,,,,,,,,,,,,,,,54,,,,,,,,,,,,,,469,,response,,,,100,,,,,,,Space,keypress(Space),,,,,,,,-- --- ---- --- ------ ----- ------- ---- -- --- ------- --<br>------- ---------- ------ -- ----- -- ----- -- ---- ------<br>--- ----- --- --- ------ -------- ----- --- ------ ----- --<br>----- ----- ---------- --- --- ------ ------ ---- -- ------<br>------- --- ------ ----- was ---- ------- -- ---- --- --<br>------- ------,193408.00000000003,193428,192959,192948,192976,193443,,47,was
screen,html.Screen,2_1_1_1_48,2022-04-25T14:21:47.797Z,,,,,,,,,,,,,,,,,54,,,,,,,,,,,,,,443,,response,,,,100,,,,,,,Space,keypress(Space),,,,,,,,-- --- ---- --- ------ ----- ------- ---- -- --- ------- --<br>------- ---------- ------ -- ----- -- ----- -- ---- ------<br>--- ----- --- --- ------ -------- ----- --- ------ ----- --<br>----- ----- ---------- --- --- ------ ------ ---- -- ------<br>------- --- ------ ----- --- left ------- -- ---- --- --<br>------- ------,193849.00000000003,193869,193426,193408.00000000003,193443,193876,,48,left
screen,html.Screen,2_1_1_1_49,2022-04-25T14:21:48.268Z,,,,,,,,,,,,,,,,,54,,,,,,,,,,,,,,481,,response,,,,100,,,,,,,Space,keypress(Space),,,,,,,,-- --- ---- --- ------ ----- ------- ---- -- --- ------- --<br>------- ---------- ------ -- ----- -- ----- -- ---- ------<br>--- ----- --- --- ------ -------- ----- --- ------ ----- --<br>----- ----- ---------- --- --- ------ ------ ---- -- ------<br>------- --- ------ ----- --- ---- without -- ---- --- --<br>------- ------,194320,194340,193859,193849.00000000003,193876,194359,,49,without
screen,html.Screen,2_1_1_1_50,2022-04-25T14:21:48.726Z,,,,,,,,,,,,,,,,,54,,,,,,,,,,,,,,451,,response,,,,100,,,,,,,Space,keypress(Space),,,,,,,,-- --- ---- --- ------ ----- ------- ---- -- --- ------- --<br>------- ---------- ------ -- ----- -- ----- -- ---- ------<br>--- ----- --- --- ------ -------- ----- --- ------ ----- --<br>----- ----- ---------- --- --- ------ ------ ---- -- ------<br>------- --- ------ ----- --- ---- ------- an ---- --- --<br>------- ------,194778,194794,194343,194321,194359,194809,,50,an
screen,html.Screen,2_1_1_1_51,2022-04-25T14:21:49.223Z,,,,,,,,,,,,,,,,,54,,,,,,,,,,,,,,502.0000000000291,,response,,,,100,,,,,,,Space,keypress(Space),,,,,,,,-- --- ---- --- ------ ----- ------- ---- -- --- ------- --<br>------- ---------- ------ -- ----- -- ----- -- ---- ------<br>--- ----- --- --- ------ -------- ----- --- ------ ----- --<br>----- ----- ---------- --- --- ------ ------ ---- -- ------<br>------- --- ------ ----- --- ---- ------- -- easy --- --<br>------- ------,195275,195295.00000000003,194793,194778,194809,195309,,51,easy
screen,html.Screen,2_1_1_1_52,2022-04-25T14:21:49.648Z,,,,,,,,,,,,,,,,,54,,,,,,,,,,,,,,427,,response,,,,100,,,,,,,Space,keypress(Space),,,,,,,,-- --- ---- --- ------ ----- ------- ---- -- --- ------- --<br>------- ---------- ------ -- ----- -- ----- -- ---- ------<br>--- ----- --- --- ------ -------- ----- --- ------ ----- --<br>----- ----- ---------- --- --- ------ ------ ---- -- ------<br>------- --- ------ ----- --- ---- ------- -- ---- way --<br>------- ------,195700.00000000003,195720,195293,195276,195309,195742,,52,way
screen,html.Screen,2_1_1_1_53,2022-04-25T14:21:50.110Z,,,,,,,,,,,,,,,,,54,,,,,,,,,,,,,,457.0000000000291,,response,,,,100,,,,,,,Space,keypress(Space),,,,,,,,-- --- ---- --- ------ ----- ------- ---- -- --- ------- --<br>------- ---------- ------ -- ----- -- ----- -- ---- ------<br>--- ----- --- --- ------ -------- ----- --- ------ ----- --<br>----- ----- ---------- --- --- ------ ------ ---- -- ------<br>------- --- ------ ----- --- ---- ------- -- ---- --- of<br>------- ------,196162,196182.00000000003,195725,195701,195742,196192,,53,of
screen,html.Screen,2_1_1_1_54,2022-04-25T14:21:50.675Z,,,,,,,,,,,,,,,,,54,,,,,,,,,,,,,,571,,response,,,,100,,,,,,,Space,keypress(Space),,,,,,,,-- --- ---- --- ------ ----- ------- ---- -- --- ------- --<br>------- ---------- ------ -- ----- -- ----- -- ---- ------<br>--- ----- --- --- ------ -------- ----- --- ------ ----- --<br>----- ----- ---------- --- --- ------ ------ ---- -- ------<br>------- --- ------ ----- --- ---- ------- -- ---- --- --<br>raising ------,196727,196747,196176,196162,196192,196759,,54,raising
screen,html.Screen,2_1_1_1_55,2022-04-25T14:21:51.257Z,,,,,,,,,,,,,,,,,54,,,,,,,,,,,,,,585,,response,,,,100,,,,,,,Space,keypress(Space),,,,,,,,-- --- ---- --- ------ ----- ------- ---- -- --- ------- --<br>------- ---------- ------ -- ----- -- ----- -- ---- ------<br>--- ----- --- --- ------ -------- ----- --- ------ ----- --<br>----- ----- ---------- --- --- ------ ------ ---- -- ------<br>------- --- ------ ----- --- ---- ------- -- ---- --- --<br>------- money.,197309,197328,196743,196728,196759,197342,,55,money.
Item 100,flow.Loop,2_1_1_1,2022-04-25T14:21:51.258Z,,,,,,,,,,,,,,,,,,,,,,,,,,,,,,,28920,,completion,,,,,A,,,,,,,,,,,silence,,,,,197311,197328,168392,168394,168408,197342,,,
Question 1,html.Screen,2_1_1_2,2022-04-25T14:21:55.394Z,,,,,,,,,,,,,,,,,,,,,,,,,,,,true,TRUE,,4142.000000000029,,response,,,,100,A,,,,,,TRUE,click #choice-1,,,,silence,,,,,201446,201468.00000000003,197326,197311,197342,201476,,,
Question 2,html.Screen,2_1_1_3,2022-04-25T14:21:57.546Z,,,,,,,,,,,,,,,,,,,,,,,,,,,,true,FALSE,,2161,,response,,,,100,A,,,,,,FALSE,click #choice-2,,,,silence,,,,,203598,203621,201460,201447,201476,203626,,,
Item 100,flow.Sequence,2_1_1,2022-04-25T14:21:57.547Z,,,,,,,,,,,,,,,,,,,,,,,,,,,,,,,45207,,completion,,,,,,,,,,,,,,,,,,,,,203599.00000000003,203621,158391,158382,158414,203626,,,
End of Practice,html.Page,2_1_2,2022-04-25T14:22:00.897Z,,,,,,,,,,,,,,,,,,,,,,,,,,,,,,,3323,,form submission,,,,,,,,,,,,,,,,,,,,,206950.00000000003,206949,203610,203599.00000000003,203626,206977,,,
Practice,flow.Sequence,2_1,2022-04-25T14:22:00.898Z,,,,,,,,,,,,,,,,,,,,,,,,,,,,,,,103810,,completion,,,,,,,,,,,,,,,,,,,,,206950.00000000003,206949,103122,103119,103139,206977,,,
Trap_instruction,html.Page,2_2_0,2022-04-25T14:22:05.101Z,,,,,,,,,,,,,,,,,,,,,,,,,,,,,,,4176,,form submission,,,,,,,,,,,,,,,,,,,,,211154,211153,206960,206951,206977,211177,,,
trap_trial,html.Screen,2_2_1,2022-04-25T14:22:08.255Z,,,,,,,,,,,,,,,,,,,,,,,,,,,,true,1,,3169.000000000029,,response,,,,,,,,,,,1,click #choice-1,,,,,,,,,214308,214331.00000000003,211162,211154,211177,214348,,,
end of trap trial,html.Page,2_2_2,2022-04-25T14:22:09.956Z,,,,,,,,,,,,,,,,,,,,,,,,,,,,,,,1660,,form submission,,,,,,,,,,,,,,,,,,,,,216009,216008,214344,214309,214348,216027,,,
Trap 1,flow.Sequence,2_2,2022-04-25T14:22:09.956Z,,,,,,,,,,,,,,,,,,,,,,,,,,,,,,,9031,,completion,,,,,,,,,,,,,,,,,,,,,216009,216008,206960,206951,206977,216027,,,
Standby,html.Page,2_3_0,2022-04-25T14:22:17.958Z,,,,,,,,,,,,,,,,,,,,,,,,,,,,,,,8000,,timeout,,,,,,,,,,,,,,,,,,,,,224011,224010,216012,216010,216027,224027,,,
Holding screen,html.Screen,2_3_1_0_0,2022-04-25T14:22:24.963Z,,,,,,,,,,,,,,,,,,,,,,,,,,,,,,,7000,,timeout,,,,,,,,,,,,,,,,,,,,,231017,231011,224010,224012,224027,231027,,,
screen,html.Screen,2_3_1_0_1_0,2022-04-25T14:22:25.966Z,,,,,,,,,,,,,,,,,19,,,,,,,,,,,,,,1028.000000000029,,response,,,,17,A,,,,,,Space,keypress(Space),,,,silence,,,,"Interestingly, --- -------- -------- ---------- ---- -------<br>-- ---------- -- --- ----- ------ ----- ---- --------- ----<br>------- ------ -------- -- ------ ---------- ------ ---<br>------ -- -- ---- -- ---------- -------- ------ ---- -------<br>---- --- --------- ------- ----- --------- ---- ----- --<br>------ -------- -- ------ -- ---- ------------",232020,232039.00000000003,231011,231017,231027,232061,,0,"Interestingly,"
screen,html.Screen,2_3_1_0_1_1,2022-04-25T14:22:26.584Z,,,,,,,,,,,,,,,,,19,,,,,,,,,,,,,,614.0000000000291,,response,,,,17,A,,,,,,Space,keypress(Space),,,,silence,,,,-------------- the -------- -------- ---------- ---- -------<br>-- ---------- -- --- ----- ------ ----- ---- --------- ----<br>------- ------ -------- -- ------ ---------- ------ ---<br>------ -- -- ---- -- ---------- -------- ------ ---- -------<br>---- --- --------- ------- ----- --------- ---- ----- --<br>------ -------- -- ------ -- ---- ------------,232638,232658.00000000003,232044,232020,232061,232678,,1,the
screen,html.Screen,2_3_1_0_1_2,2022-04-25T14:22:27.151Z,,,,,,,,,,,,,,,,,19,,,,,,,,,,,,,,565,,response,,,,17,A,,,,,,Space,keypress(Space),,,,silence,,,,-------------- --- heaviest -------- ---------- ---- -------<br>-- ---------- -- --- ----- ------ ----- ---- --------- ----<br>------- ------ -------- -- ------ ---------- ------ ---<br>------ -- -- ---- -- ---------- -------- ------ ---- -------<br>---- --- --------- ------- ----- --------- ---- ----- --<br>------ -------- -- ------ -- ---- ------------,233205,233226,232661,232638,232678,233243,,2,heaviest
screen,html.Screen,2_3_1_0_1_3,2022-04-25T14:22:28.042Z,,,,,,,,,,,,,,,,,19,,,,,,,,,,,,,,889,,response,,,,17,A,,,,,,Space,keypress(Space),,,,silence,,,,-------------- --- -------- isotopes ---------- ---- -------<br>-- ---------- -- --- ----- ------ ----- ---- --------- ----<br>------- ------ -------- -- ------ ---------- ------ ---<br>------ -- -- ---- -- ---------- -------- ------ ---- -------<br>---- --- --------- ------- ----- --------- ---- ----- --<br>------ -------- -- ------ -- ---- ------------,234096,234116,233227,233206.00000000003,233243,234128,,3,isotopes
screen,html.Screen,2_3_1_0_1_4,2022-04-25T14:22:28.620Z,,,,,,,,,,,,,,,,,19,,,,,,,,,,,,,,584,,response,,,,17,A,,,,,,Space,keypress(Space),,,,silence,,,,-------------- --- -------- -------- physicists ---- -------<br>-- ---------- -- --- ----- ------ ----- ---- --------- ----<br>------- ------ -------- -- ------ ---------- ------ ---<br>------ -- -- ---- -- ---------- -------- ------ ---- -------<br>---- --- --------- ------- ----- --------- ---- ----- --<br>------ -------- -- ------ -- ---- ------------,234674,234695,234111,234096,234128,234711,,4,physicists
screen,html.Screen,2_3_1_0_1_5,2022-04-25T14:22:29.058Z,,,,,,,,,,,,,,,,,19,,,,,,,,,,,,,,440,,response,,,,17,A,,,,,,Space,keypress(Space),,,,silence,,,,-------------- --- -------- -------- ---------- have -------<br>-- ---------- -- --- ----- ------ ----- ---- --------- ----<br>------- ------ -------- -- ------ ---------- ------ ---<br>------ -- -- ---- -- ---------- -------- ------ ---- -------<br>---- --- --------- ------- ----- --------- ---- ----- --<br>------ -------- -- ------ -- ---- ------------,235112,235134,234694,234674,234711,235144,,5,have
screen,html.Screen,2_3_1_0_1_6,2022-04-25T14:22:29.548Z,,,,,,,,,,,,,,,,,19,,,,,,,,,,,,,,495.0000000000291,,response,,,,17,A,,,,,,Space,keypress(Space),,,,silence,,,,-------------- --- -------- -------- ---------- ---- managed<br>-- ---------- -- --- ----- ------ ----- ---- --------- ----<br>------- ------ -------- -- ------ ---------- ------ ---<br>------ -- -- ---- -- ---------- -------- ------ ---- -------<br>---- --- --------- ------- ----- --------- ---- ----- --<br>------ -------- -- ------ -- ---- ------------,235602,235623.00000000003,235128,235113,235144,235643,,6,managed
screen,html.Screen,2_3_1_0_1_7,2022-04-25T14:22:29.991Z,,,,,,,,,,,,,,,,,19,,,,,,,,,,,,,,438,,response,,,,17,A,,,,,,Space,keypress(Space),,,,silence,,,,-------------- --- -------- -------- ---------- ---- -------<br>to ---------- -- --- ----- ------ ----- ---- --------- ----<br>------- ------ -------- -- ------ ---------- ------ ---<br>------ -- -- ---- -- ---------- -------- ------ ---- -------<br>---- --- --------- ------- ----- --------- ---- ----- --<br>------ -------- -- ------ -- ---- ------------,236045.00000000003,236066,235628,235602,235643,236078,,7,to
screen,html.Screen,2_3_1_0_1_8,2022-04-25T14:22:30.784Z,,,,,,,,,,,,,,,,,19,,,,,,,,,,,,,,799,,response,,,,17,A,,,,,,Space,keypress(Space),,,,silence,,,,-------------- --- -------- -------- ---------- ---- -------<br>-- synthesize -- --- ----- ------ ----- ---- --------- ----<br>------- ------ -------- -- ------ ---------- ------ ---<br>------ -- -- ---- -- ---------- -------- ------ ---- -------<br>---- --- --------- ------- ----- --------- ---- ----- --<br>------ -------- -- ------ -- ---- ------------,236838,236860,236061,236045.00000000003,236078,236877,,8,synthesize
screen,html.Screen,2_3_1_0_1_9,2022-04-25T14:22:31.305Z,,,,,,,,,,,,,,,,,19,,,,,,,,,,,,,,520,,response,,,,17,A,,,,,,Space,keypress(Space),,,,silence,,,,-------------- --- -------- -------- ---------- ---- -------<br>-- ---------- so --- ----- ------ ----- ---- --------- ----<br>------- ------ -------- -- ------ ---------- ------ ---<br>------ -- -- ---- -- ---------- -------- ------ ---- -------<br>---- --- --------- ------- ----- --------- ---- ----- --<br>------ -------- -- ------ -- ---- ------------,237359,237381,236861,236839,236877,237394,,9,so
screen,html.Screen,2_3_1_0_1_10,2022-04-25T14:22:31.801Z,,,,,,,,,,,,,,,,,19,,,,,,,,,,,,,,500,,response,,,,17,A,,,,,,Space,keypress(Space),,,,silence,,,,-------------- --- -------- -------- ---------- ---- -------<br>-- ---------- -- far ----- ------ ----- ---- --------- ----<br>------- ------ -------- -- ------ ---------- ------ ---<br>------ -- -- ---- -- ---------- -------- ------ ---- -------<br>---- --- --------- ------- ----- --------- ---- ----- --<br>------ -------- -- ------ -- ---- ------------,237855.00000000003,237878,237378,237359,237394,237894,,10,far
screen,html.Screen,2_3_1_0_1_11,2022-04-25T14:22:32.235Z,,,,,,,,,,,,,,,,,19,,,,,,,,,,,,,,434,,response,,,,17,A,,,,,,Space,keypress(Space),,,,silence,,,,-------------- --- -------- -------- ---------- ---- -------<br>-- ---------- -- --- don't ------ ----- ---- --------- ----<br>------- ------ -------- -- ------ ---------- ------ ---<br>------ -- -- ---- -- ---------- -------- ------ ---- -------<br>---- --- --------- ------- ----- --------- ---- ----- --<br>------ -------- -- ------ -- ---- ------------,238289.00000000003,238312,237878,237856,237894,238328,,11,don't
screen,html.Screen,2_3_1_0_1_12,2022-04-25T14:22:32.755Z,,,,,,,,,,,,,,,,,19,,,,,,,,,,,,,,521,,response,,,,17,A,,,,,,Space,keypress(Space),,,,silence,,,,-------------- --- -------- -------- ---------- ---- -------<br>-- ---------- -- --- ----- behave ----- ---- --------- ----<br>------- ------ -------- -- ------ ---------- ------ ---<br>------ -- -- ---- -- ---------- -------- ------ ---- -------<br>---- --- --------- ------- ----- --------- ---- ----- --<br>------ -------- -- ------ -- ---- ------------,238809,238832,238311,238290,238328,238844,,12,behave
screen,html.Screen,2_3_1_0_1_13,2022-04-25T14:22:33.221Z,,,,,,,,,,,,,,,,,19,,,,,,,,,,,,,,469,,response,,,,17,A,,,,,,Space,keypress(Space),,,,silence,,,,-------------- --- -------- -------- ---------- ---- -------<br>-- ---------- -- --- ----- ------ quite ---- --------- ----<br>------- ------ -------- -- ------ ---------- ------ ---<br>------ -- -- ---- -- ---------- -------- ------ ---- -------<br>---- --- --------- ------- ----- --------- ---- ----- --<br>------ -------- -- ------ -- ---- ------------,239275,239296,238827,238809,238844,239311,,13,quite
screen,html.Screen,2_3_1_0_1_14,2022-04-25T14:22:33.643Z,,,,,,,,,,,,,,,,,19,,,,,,,,,,,,,,425,,response,,,,17,A,,,,,,Space,keypress(Space),,,,silence,,,,-------------- --- -------- -------- ---------- ---- -------<br>-- ---------- -- --- ----- ------ ----- like --------- ----<br>------- ------ -------- -- ------ ---------- ------ ---<br>------ -- -- ---- -- ---------- -------- ------ ---- -------<br>---- --- --------- ------- ----- --------- ---- ----- --<br>------ -------- -- ------ -- ---- ------------,239697,239719,239294,239276,239311,239727,,14,like
screen,html.Screen,2_3_1_0_1_15,2022-04-25T14:22:34.092Z,,,,,,,,,,,,,,,,,19,,,,,,,,,,,,,,458,,response,,,,17,A,,,,,,Space,keypress(Space),,,,silence,,,,-------------- --- -------- -------- ---------- ---- -------<br>-- ---------- -- --- ----- ------ ----- ---- science's ----<br>------- ------ -------- -- ------ ---------- ------ ---<br>------ -- -- ---- -- ---------- -------- ------ ---- -------<br>---- --- --------- ------- ----- --------- ---- ----- --<br>------ -------- -- ------ -- ---- ------------,240146.00000000003,240169,239711,239698,239727,240178,,15,science's
screen,html.Screen,2_3_1_0_1_16,2022-04-25T14:22:34.575Z,,,,,,,,,,,,,,,,,19,,,,,,,,,,,,,,489,,response,,,,17,A,,,,,,Space,keypress(Space),,,,silence,,,,-------------- --- -------- -------- ---------- ---- -------<br>-- ---------- -- --- ----- ------ ----- ---- --------- best<br>------- ------ -------- -- ------ ---------- ------ ---<br>------ -- -- ---- -- ---------- -------- ------ ---- -------<br>---- --- --------- ------- ----- --------- ---- ----- --<br>------ -------- -- ------ -- ---- ------------,240629.00000000003,240650,240161,240147,240178,240661,,16,best
screen,html.Screen,2_3_1_0_1_17,2022-04-25T14:22:35.049Z,,,,,,,,,,,,,,,,,19,,,,,,,,,,,,,,481,,response,,,,17,A,,,,,,Space,keypress(Space),,,,silence,,,,-------------- --- -------- -------- ---------- ---- -------<br>-- ---------- -- --- ----- ------ ----- ---- --------- ----<br>current ------ -------- -- ------ ---------- ------ ---<br>------ -- -- ---- -- ---------- -------- ------ ---- -------<br>---- --- --------- ------- ----- --------- ---- ----- --<br>------ -------- -- ------ -- ---- ------------,241103,241125,240644,240630,240661,241145,,17,current
screen,html.Screen,2_3_1_0_1_18,2022-04-25T14:22:35.507Z,,,,,,,,,,,,,,,,,19,,,,,,,,,,,,,,456,,response,,,,17,A,,,,,,Space,keypress(Space),,,,silence,,,,-------------- --- -------- -------- ---------- ---- -------<br>-- ---------- -- --- ----- ------ ----- ---- --------- ----<br>------- models -------- -- ------ ---------- ------ ---<br>------ -- -- ---- -- ---------- -------- ------ ---- -------<br>---- --- --------- ------- ----- --------- ---- ----- --<br>------ -------- -- ------ -- ---- ------------,241561,241584,241128,241103,241145,241595,,18,models
screen,html.Screen,2_3_1_0_1_19,2022-04-25T14:22:36.010Z,,,,,,,,,,,,,,,,,19,,,,,,,,,,,,,,508,,response,,,,17,A,,,,,,Space,keypress(Space),,,,silence,,,,"-------------- --- -------- -------- ---------- ---- -------<br>-- ---------- -- --- ----- ------ ----- ---- --------- ----<br>------- ------ predict, -- ------ ---------- ------ ---<br>------ -- -- ---- -- ---------- -------- ------ ---- -------<br>---- --- --------- ------- ----- --------- ---- ----- --<br>------ -------- -- ------ -- ---- ------------",242064,242086,241578,241561,241595,242094,,19,"predict,"
screen,html.Screen,2_3_1_0_1_20,2022-04-25T14:22:36.577Z,,,,,,,,,,,,,,,,,19,,,,,,,,,,,,,,577,,response,,,,17,A,,,,,,Space,keypress(Space),,,,silence,,,,-------------- --- -------- -------- ---------- ---- -------<br>-- ---------- -- --- ----- ------ ----- ---- --------- ----<br>------- ------ -------- so ------ ---------- ------ ---<br>------ -- -- ---- -- ---------- -------- ------ ---- -------<br>---- --- --------- ------- ----- --------- ---- ----- --<br>------ -------- -- ------ -- ---- ------------,242631,242655,242078,242064,242094,242660,,20,so
screen,html.Screen,2_3_1_0_1_21,2022-04-25T14:22:37.052Z,,,,,,,,,,,,,,,,,19,,,,,,,,,,,,,,485.0000000000291,,response,,,,17,A,,,,,,Space,keypress(Space),,,,silence,,,,-------------- --- -------- -------- ---------- ---- -------<br>-- ---------- -- --- ----- ------ ----- ---- --------- ----<br>------- ------ -------- -- stable ---------- ------ ---<br>------ -- -- ---- -- ---------- -------- ------ ---- -------<br>---- --- --------- ------- ----- --------- ---- ----- --<br>------ -------- -- ------ -- ---- ------------,243107,243129.00000000003,242644,242631,242660,243145,,21,stable
screen,html.Screen,2_3_1_0_1_22,2022-04-25T14:22:37.527Z,,,,,,,,,,,,,,,,,19,,,,,,,,,,,,,,476,,response,,,,17,A,,,,,,Space,keypress(Space),,,,silence,,,,-------------- --- -------- -------- ---------- ---- -------<br>-- ---------- -- --- ----- ------ ----- ---- --------- ----<br>------- ------ -------- -- ------ superheavy ------ ---<br>------ -- -- ---- -- ---------- -------- ------ ---- -------<br>---- --- --------- ------- ----- --------- ---- ----- --<br>------ -------- -- ------ -- ---- ------------,243581.00000000003,243603,243127,243107,243145,243611,,22,superheavy
screen,html.Screen,2_3_1_0_1_23,2022-04-25T14:22:38.219Z,,,,,,,,,,,,,,,,,19,,,,,,,,,,,,,,700.0000000000291,,response,,,,17,A,,,,,,Space,keypress(Space),,,,silence,,,,-------------- --- -------- -------- ---------- ---- -------<br>-- ---------- -- --- ----- ------ ----- ---- --------- ----<br>------- ------ -------- -- ------ ---------- nuclei ---<br>------ -- -- ---- -- ---------- -------- ------ ---- -------<br>---- --- --------- ------- ----- --------- ---- ----- --<br>------ -------- -- ------ -- ---- ------------,244273,244295.00000000003,243595,243582,243611,244310,,23,nuclei
screen,html.Screen,2_3_1_0_1_24,2022-04-25T14:22:38.717Z,,,,,,,,,,,,,,,,,19,,,,,,,,,,,,,,499,,response,,,,17,A,,,,,,Space,keypress(Space),,,,silence,,,,-------------- --- -------- -------- ---------- ---- -------<br>-- ---------- -- --- ----- ------ ----- ---- --------- ----<br>------- ------ -------- -- ------ ---------- ------ are<br>------ -- -- ---- -- ---------- -------- ------ ---- -------<br>---- --- --------- ------- ----- --------- ---- ----- --<br>------ -------- -- ------ -- ---- ------------,244771.00000000003,244794,244295,244274,244310,244811,,24,are
screen,html.Screen,2_3_1_0_1_25,2022-04-25T14:22:39.140Z,,,,,,,,,,,,,,,,,19,,,,,,,,,,,,,,421,,response,,,,17,A,,,,,,Space,keypress(Space),,,,silence,,,,-------------- --- -------- -------- ---------- ---- -------<br>-- ---------- -- --- ----- ------ ----- ---- --------- ----<br>------- ------ -------- -- ------ ---------- ------ ---<br>likely -- -- ---- -- ---------- -------- ------ ---- -------<br>---- --- --------- ------- ----- --------- ---- ----- --<br>------ -------- -- ------ -- ---- ------------,245195,245216,244795,244772,244811,245228,,25,likely
screen,html.Screen,2_3_1_0_1_26,2022-04-25T14:22:39.545Z,,,,,,,,,,,,,,,,,19,,,,,,,,,,,,,,411,,response,,,,17,A,,,,,,Space,keypress(Space),,,,silence,,,,-------------- --- -------- -------- ---------- ---- -------<br>-- ---------- -- --- ----- ------ ----- ---- --------- ----<br>------- ------ -------- -- ------ ---------- ------ ---<br>------ to -- ---- -- ---------- -------- ------ ---- -------<br>---- --- --------- ------- ----- --------- ---- ----- --<br>------ -------- -- ------ -- ---- ------------,245600,245622,245211,245195,245228,245628,,26,to
screen,html.Screen,2_3_1_0_1_27,2022-04-25T14:22:39.925Z,,,,,,,,,,,,,,,,,19,,,,,,,,,,,,,,391,,response,,,,17,A,,,,,,Space,keypress(Space),,,,silence,,,,-------------- --- -------- -------- ---------- ---- -------<br>-- ---------- -- --- ----- ------ ----- ---- --------- ----<br>------- ------ -------- -- ------ ---------- ------ ---<br>------ -- be ---- -- ---------- -------- ------ ---- -------<br>---- --- --------- ------- ----- --------- ---- ----- --<br>------ -------- -- ------ -- ---- ------------,245979,246002,245611,245600,245628,246011,,27,be
screen,html.Screen,2_3_1_0_1_28,2022-04-25T14:22:40.322Z,,,,,,,,,,,,,,,,,19,,,,,,,,,,,,,,404,,response,,,,17,A,,,,,,Space,keypress(Space),,,,silence,,,,-------------- --- -------- -------- ---------- ---- -------<br>-- ---------- -- --- ----- ------ ----- ---- --------- ----<br>------- ------ -------- -- ------ ---------- ------ ---<br>------ -- -- full -- ---------- -------- ------ ---- -------<br>---- --- --------- ------- ----- --------- ---- ----- --<br>------ -------- -- ------ -- ---- ------------,246376,246399,245995,245980.00000000003,246011,246395,,28,full
screen,html.Screen,2_3_1_0_1_29,2022-04-25T14:22:40.726Z,,,,,,,,,,,,,,,,,19,,,,,,,,,,,,,,426,,response,,,,17,A,,,,,,Space,keypress(Space),,,,silence,,,,-------------- --- -------- -------- ---------- ---- -------<br>-- ---------- -- --- ----- ------ ----- ---- --------- ----<br>------- ------ -------- -- ------ ---------- ------ ---<br>------ -- -- ---- of ---------- -------- ------ ---- -------<br>---- --- --------- ------- ----- --------- ---- ----- --<br>------ -------- -- ------ -- ---- ------------,246781,246804,246378,246376,246395,246811,,29,of
screen,html.Screen,2_3_1_0_1_30,2022-04-25T14:22:41.165Z,,,,,,,,,,,,,,,,,19,,,,,,,,,,,,,,448.0000000000291,,response,,,,17,A,,,,,,Space,keypress(Space),,,,silence,,,,-------------- --- -------- -------- ---------- ---- -------<br>-- ---------- -- --- ----- ------ ----- ---- --------- ----<br>------- ------ -------- -- ------ ---------- ------ ---<br>------ -- -- ---- -- surprises. -------- ------ ---- -------<br>---- --- --------- ------- ----- --------- ---- ----- --<br>------ -------- -- ------ -- ---- ------------,247220,247242.00000000003,246794,246781,246811,247261,,30,surprises.
screen,html.Screen,2_3_1_0_1_31,2022-04-25T14:22:41.812Z,,,,,,,,,,,,,,,,,19,,,,,,,,,,,,,,644,,response,,,,17,A,,,,,,Space,keypress(Space),,,,silence,,,,-------------- --- -------- -------- ---------- ---- -------<br>-- ---------- -- --- ----- ------ ----- ---- --------- ----<br>------- ------ -------- -- ------ ---------- ------ ---<br>------ -- -- ---- -- ---------- Chemists ------ ---- -------<br>---- --- --------- ------- ----- --------- ---- ----- --<br>------ -------- -- ------ -- ---- ------------,247866,247889,247245,247220,247261,247894,,31,Chemists
screen,html.Screen,2_3_1_0_1_32,2022-04-25T14:22:42.230Z,,,,,,,,,,,,,,,,,19,,,,,,,,,,,,,,428,,response,,,,17,A,,,,,,Space,keypress(Space),,,,silence,,,,-------------- --- -------- -------- ---------- ---- -------<br>-- ---------- -- --- ----- ------ ----- ---- --------- ----<br>------- ------ -------- -- ------ ---------- ------ ---<br>------ -- -- ---- -- ---------- -------- cannot ---- -------<br>---- --- --------- ------- ----- --------- ---- ----- --<br>------ -------- -- ------ -- ---- ------------,248284,248306,247878,247866,247894,248311,,32,cannot
screen,html.Screen,2_3_1_0_1_33,2022-04-25T14:22:42.662Z,,,,,,,,,,,,,,,,,19,,,,,,,,,,,,,,444,,response,,,,17,A,,,,,,Space,keypress(Space),,,,silence,,,,-------------- --- -------- -------- ---------- ---- -------<br>-- ---------- -- --- ----- ------ ----- ---- --------- ----<br>------- ------ -------- -- ------ ---------- ------ ---<br>------ -- -- ---- -- ---------- -------- ------ even -------<br>---- --- --------- ------- ----- --------- ---- ----- --<br>------ -------- -- ------ -- ---- ------------,248716,248739,248295,248285,248311,248745,,33,even
screen,html.Screen,2_3_1_0_1_34,2022-04-25T14:22:43.102Z,,,,,,,,,,,,,,,,,19,,,,,,,,,,,,,,450,,response,,,,17,A,,,,,,Space,keypress(Space),,,,silence,,,,-------------- --- -------- -------- ---------- ---- -------<br>-- ---------- -- --- ----- ------ ----- ---- --------- ----<br>------- ------ -------- -- ------ ---------- ------ ---<br>------ -- -- ---- -- ---------- -------- ------ ---- predict<br>---- --- --------- ------- ----- --------- ---- ----- --<br>------ -------- -- ------ -- ---- ------------,249157,249178,248728,248717,248745,249194,,34,predict
screen,html.Screen,2_3_1_0_1_35,2022-04-25T14:22:43.531Z,,,,,,,,,,,,,,,,,19,,,,,,,,,,,,,,430,,response,,,,17,A,,,,,,Space,keypress(Space),,,,silence,,,,-------------- --- -------- -------- ---------- ---- -------<br>-- ---------- -- --- ----- ------ ----- ---- --------- ----<br>------- ------ -------- -- ------ ---------- ------ ---<br>------ -- -- ---- -- ---------- -------- ------ ---- -------<br>with --- --------- ------- ----- --------- ---- ----- --<br>------ -------- -- ------ -- ---- ------------,249585,249608,249178,249157,249194,249627,,35,with
screen,html.Screen,2_3_1_0_1_36,2022-04-25T14:22:43.969Z,,,,,,,,,,,,,,,,,19,,,,,,,,,,,,,,435,,response,,,,17,A,,,,,,Space,keypress(Space),,,,silence,,,,-------------- --- -------- -------- ---------- ---- -------<br>-- ---------- -- --- ----- ------ ----- ---- --------- ----<br>------- ------ -------- -- ------ ---------- ------ ---<br>------ -- -- ---- -- ---------- -------- ------ ---- -------<br>---- any --------- ------- ----- --------- ---- ----- --<br>------ -------- -- ------ -- ---- ------------,250023,250046,249611,249586,249627,250061,,36,any
screen,html.Screen,2_3_1_0_1_37,2022-04-25T14:22:44.426Z,,,,,,,,,,,,,,,,,19,,,,,,,,,,,,,,458,,response,,,,17,A,,,,,,Space,keypress(Space),,,,silence,,,,-------------- --- -------- -------- ---------- ---- -------<br>-- ---------- -- --- ----- ------ ----- ---- --------- ----<br>------- ------ -------- -- ------ ---------- ------ ---<br>------ -- -- ---- -- ---------- -------- ------ ---- -------<br>---- --- certainty ------- ----- --------- ---- ----- --<br>------ -------- -- ------ -- ---- ------------,250481,250503,250045,250024,250061,250512,,37,certainty
screen,html.Screen,2_3_1_0_1_38,2022-04-25T14:22:44.893Z,,,,,,,,,,,,,,,,,19,,,,,,,,,,,,,,473.0000000000291,,response,,,,17,A,,,,,,Space,keypress(Space),,,,silence,,,,-------------- --- -------- -------- ---------- ---- -------<br>-- ---------- -- --- ----- ------ ----- ---- --------- ----<br>------- ------ -------- -- ------ ---------- ------ ---<br>------ -- -- ---- -- ---------- -------- ------ ---- -------<br>---- --- --------- whether ----- --------- ---- ----- --<br>------ -------- -- ------ -- ---- ------------,250947,250968.00000000003,250495,250481,250512,250977,,38,whether
screen,html.Screen,2_3_1_0_1_39,2022-04-25T14:22:45.336Z,,,,,,,,,,,,,,,,,19,,,,,,,,,,,,,,451,,response,,,,17,A,,,,,,Space,keypress(Space),,,,silence,,,,-------------- --- -------- -------- ---------- ---- -------<br>-- ---------- -- --- ----- ------ ----- ---- --------- ----<br>------- ------ -------- -- ------ ---------- ------ ---<br>------ -- -- ---- -- ---------- -------- ------ ---- -------<br>---- --- --------- ------- these --------- ---- ----- --<br>------ -------- -- ------ -- ---- ------------,251391,251413,250962,250948,250977,251428,,39,these
screen,html.Screen,2_3_1_0_1_40,2022-04-25T14:22:45.799Z,,,,,,,,,,,,,,,,,19,,,,,,,,,,,,,,465,,response,,,,17,A,,,,,,Space,keypress(Space),,,,silence,,,,-------------- --- -------- -------- ---------- ---- -------<br>-- ---------- -- --- ----- ------ ----- ---- --------- ----<br>------- ------ -------- -- ------ ---------- ------ ---<br>------ -- -- ---- -- ---------- -------- ------ ---- -------<br>---- --- --------- ------- ----- materials ---- ----- --<br>------ -------- -- ------ -- ---- ------------,251854,251876,251411,251392,251428,251895,,40,materials
screen,html.Screen,2_3_1_0_1_41,2022-04-25T14:22:46.242Z,,,,,,,,,,,,,,,,,19,,,,,,,,,,,,,,440,,response,,,,17,A,,,,,,Space,keypress(Space),,,,silence,,,,-------------- --- -------- -------- ---------- ---- -------<br>-- ---------- -- --- ----- ------ ----- ---- --------- ----<br>------- ------ -------- -- ------ ---------- ------ ---<br>------ -- -- ---- -- ---------- -------- ------ ---- -------<br>---- --- --------- ------- ----- --------- will ----- --<br>------ -------- -- ------ -- ---- ------------,252296,252318,251878,251854,251895,252328,,41,will
screen,html.Screen,2_3_1_0_1_42,2022-04-25T14:22:46.681Z,,,,,,,,,,,,,,,,,19,,,,,,,,,,,,,,445,,response,,,,17,A,,,,,,Space,keypress(Space),,,,silence,,,,-------------- --- -------- -------- ---------- ---- -------<br>-- ---------- -- --- ----- ------ ----- ---- --------- ----<br>------- ------ -------- -- ------ ---------- ------ ---<br>------ -- -- ---- -- ---------- -------- ------ ---- -------<br>---- --- --------- ------- ----- --------- ---- exist --<br>------ -------- -- ------ -- ---- ------------,252736.00000000003,252757,252312,252297,252328,252778,,42,exist
screen,html.Screen,2_3_1_0_1_43,2022-04-25T14:22:47.119Z,,,,,,,,,,,,,,,,,19,,,,,,,,,,,,,,436,,response,,,,17,A,,,,,,Space,keypress(Space),,,,silence,,,,-------------- --- -------- -------- ---------- ---- -------<br>-- ---------- -- --- ----- ------ ----- ---- --------- ----<br>------- ------ -------- -- ------ ---------- ------ ---<br>------ -- -- ---- -- ---------- -------- ------ ---- -------<br>---- --- --------- ------- ----- --------- ---- ----- as<br>------ -------- -- ------ -- ---- ------------,253174,253198,252762,252737,252778,253212,,43,as
screen,html.Screen,2_3_1_0_1_44,2022-04-25T14:22:47.556Z,,,,,,,,,,,,,,,,,19,,,,,,,,,,,,,,438,,response,,,,17,A,,,,,,Space,keypress(Space),,,,silence,,,,"-------------- --- -------- -------- ---------- ---- -------<br>-- ---------- -- --- ----- ------ ----- ---- --------- ----<br>------- ------ -------- -- ------ ---------- ------ ---<br>------ -- -- ---- -- ---------- -------- ------ ---- -------<br>---- --- --------- ------- ----- --------- ---- ----- --<br>gases, -------- -- ------ -- ---- ------------",253611.00000000003,253633,253195,253175,253212,253644,,44,"gases,"
screen,html.Screen,2_3_1_0_1_45,2022-04-25T14:22:48.003Z,,,,,,,,,,,,,,,,,19,,,,,,,,,,,,,,453,,response,,,,17,A,,,,,,Space,keypress(Space),,,,silence,,,,"-------------- --- -------- -------- ---------- ---- -------<br>-- ---------- -- --- ----- ------ ----- ---- --------- ----<br>------- ------ -------- -- ------ ---------- ------ ---<br>------ -- -- ---- -- ---------- -------- ------ ---- -------<br>---- --- --------- ------- ----- --------- ---- ----- --<br>------ liquids, -- ------ -- ---- ------------",254058,254080,253627,253611.00000000003,253644,254095,,45,"liquids,"
screen,html.Screen,2_3_1_0_1_46,2022-04-25T14:22:48.450Z,,,,,,,,,,,,,,,,,19,,,,,,,,,,,,,,450,,response,,,,17,A,,,,,,Space,keypress(Space),,,,silence,,,,-------------- --- -------- -------- ---------- ---- -------<br>-- ---------- -- --- ----- ------ ----- ---- --------- ----<br>------- ------ -------- -- ------ ---------- ------ ---<br>------ -- -- ---- -- ---------- -------- ------ ---- -------<br>---- --- --------- ------- ----- --------- ---- ----- --<br>------ -------- or ------ -- ---- ------------,254505,254528,254078,254058,254095,254545,,46,or
screen,html.Screen,2_3_1_0_1_47,2022-04-25T14:22:48.854Z,,,,,,,,,,,,,,,,,19,,,,,,,,,,,,,,404.0000000000291,,response,,,,17,A,,,,,,Space,keypress(Space),,,,silence,,,,-------------- --- -------- -------- ---------- ---- -------<br>-- ---------- -- --- ----- ------ ----- ---- --------- ----<br>------- ------ -------- -- ------ ---------- ------ ---<br>------ -- -- ---- -- ---------- -------- ------ ---- -------<br>---- --- --------- ------- ----- --------- ---- ----- --<br>------ -------- -- solids -- ---- ------------,254909,254932.00000000003,254528,254505,254545,254928,,47,solids
screen,html.Screen,2_3_1_0_1_48,2022-04-25T14:22:49.281Z,,,,,,,,,,,,,,,,,19,,,,,,,,,,,,,,447,,response,,,,17,A,,,,,,Space,keypress(Space),,,,silence,,,,-------------- --- -------- -------- ---------- ---- -------<br>-- ---------- -- --- ----- ------ ----- ---- --------- ----<br>------- ------ -------- -- ------ ---------- ------ ---<br>------ -- -- ---- -- ---------- -------- ------ ---- -------<br>---- --- --------- ------- ----- --------- ---- ----- --<br>------ -------- -- ------ at ---- ------------,255336,255359,254912,254910,254928,255378,,48,at
screen,html.Screen,2_3_1_0_1_49,2022-04-25T14:22:49.650Z,,,,,,,,,,,,,,,,,19,,,,,,,,,,,,,,367,,response,,,,17,A,,,,,,Space,keypress(Space),,,,silence,,,,-------------- --- -------- -------- ---------- ---- -------<br>-- ---------- -- --- ----- ------ ----- ---- --------- ----<br>------- ------ -------- -- ------ ---------- ------ ---<br>------ -- -- ---- -- ---------- -------- ------ ---- -------<br>---- --- --------- ------- ----- --------- ---- ----- --<br>------ -------- -- ------ -- room ------------,255705,255729,255362,255336,255378,255728,,49,room
screen,html.Screen,2_3_1_0_1_50,2022-04-25T14:22:51.457Z,,,,,,,,,,,,,,,,,19,,,,,,,,,,,,,,1822,,response,,,,17,A,,,,,,Space,keypress(Space),,,,silence,,,,-------------- --- -------- -------- ---------- ---- -------<br>-- ---------- -- --- ----- ------ ----- ---- --------- ----<br>------- ------ -------- -- ------ ---------- ------ ---<br>------ -- -- ---- -- ---------- -------- ------ ---- -------<br>---- --- --------- ------- ----- --------- ---- ----- --<br>------ -------- -- ------ -- ---- temperature.,257512,257534,255712,255705,255728,257545,,50,temperature.
Item 17,flow.Loop,2_3_1_0_1,2022-04-25T14:22:51.458Z,,,,,,,,,,,,,,,,,,,,,,,,,,,,,,,26507,,completion,,,,,,,,,,,,,,,,,,,,,257513.00000000003,257534,231011,231017,231027,257545,,,
Question 1,html.Screen,2_3_1_0_2,2022-04-25T14:22:54.050Z,,,,,,,,,,,,,,,,,,,,,,,,,,,,true,FALSE,,2603.000000000029,,response,,,,17,A,,,,,,FALSE,click #choice-2,,,,silence,,,,,260106,260131.00000000003,257528,257513.00000000003,257545,260128,,,
Question 2,html.Screen,2_3_1_0_3,2022-04-25T14:22:55.876Z,,,,,,,,,,,,,,,,,,,,,,,,,,,,true,FALSE,,1844.000000000029,,response,,,,17,A,,,,,,FALSE,click #choice-2,,,,silence,,,,,261930.99999999997,261956.00000000003,260112,260106,260128,261962,,,
Item 17,flow.Sequence,2_3_1_0,2022-04-25T14:22:55.877Z,,,,,,,,,,,,,,,,,,,,,,,,,,,,,,,37929.00000000003,,completion,,,,,,,,,,,,,,,,,,,,,261932.00000000003,261956.00000000003,224010,224012,224027,261962,,,
Holding screen,html.Screen,2_3_1_1_0,2022-04-25T14:23:02.890Z,,,,,,,,,,,,,,,,,,,,,,,,,,,,,,,6999,,timeout,,,,,,,,,,,,,,,,,,,,,268945,268945,261945,261932.00000000003,261962,268961,,,
screen,html.Screen,2_3_1_1_1_0,2022-04-25T14:23:03.778Z,,,,,,,,,,,,,,,,,40,,,,,,,,,,,,,,911,,response,,,,9,A,,,,,,Space,keypress(Space),,,,silence,,,,Police -- ------- ---- ---- ---- - -------- ----- --- --<br>----- ----- ------ -- ---- -- --- - ---- -- - ----- -----<br>------ ---- ------ ---- - -------- ------- -- --- --------<br>-------- ----------- ---- ------ ---- ------ ---- --- ---<br>-------- --- -----,269834,269856,268945,268946,268961,269862,,0,Police
screen,html.Screen,2_3_1_1_1_1,2022-04-25T14:23:04.156Z,,,,,,,,,,,,,,,,,40,,,,,,,,,,,,,,390,,response,,,,9,A,,,,,,Space,keypress(Space),,,,silence,,,,------ in ------- ---- ---- ---- - -------- ----- --- --<br>----- ----- ------ -- ---- -- --- - ---- -- - ----- -----<br>------ ---- ------ ---- - -------- ------- -- --- --------<br>-------- ----------- ---- ------ ---- ------ ---- --- ---<br>-------- --- -----,270212,270235,269845,269834,269862,270245,,1,in
screen,html.Screen,2_3_1_1_1_2,2022-04-25T14:23:04.688Z,,,,,,,,,,,,,,,,,40,,,,,,,,,,,,,,538,,response,,,,9,A,,,,,,Space,keypress(Space),,,,silence,,,,------ -- Georgia ---- ---- ---- - -------- ----- --- --<br>----- ----- ------ -- ---- -- --- - ---- -- - ----- -----<br>------ ---- ------ ---- - -------- ------- -- --- --------<br>-------- ----------- ---- ------ ---- ------ ---- --- ---<br>-------- --- -----,270743,270767,270229,270212,270245,270779,,2,Georgia
screen,html.Screen,2_3_1_1_1_3,2022-04-25T14:23:05.088Z,,,,,,,,,,,,,,,,,40,,,,,,,,,,,,,,406,,response,,,,9,A,,,,,,Space,keypress(Space),,,,silence,,,,------ -- ------- have ---- ---- - -------- ----- --- --<br>----- ----- ------ -- ---- -- --- - ---- -- - ----- -----<br>------ ---- ------ ---- - -------- ------- -- --- --------<br>-------- ----------- ---- ------ ---- ------ ---- --- ---<br>-------- --- -----,271144,271168,270762,270744,270779,271161,,3,have
