sender,sender_type,sender_id,timestamp,meta,,Blues,Classical,Country,Dance,Electronic,Folk,Gospel,Hip-Hop,Jazz,Latin,Musical/Film,New-age,Pop,Prolific_id,Provo_ID,R&B,Rap,Reggae,Religious,Rock,Soul,Swing,Traditional,age,artist_name,correct,correctResponse,distraction,duration,education,ended_on,familiarity,gender,headphone_check_performance,item,list,music_frequency,offensiveness,pleasantness,position_correct,preference,response,response_action,snippet_file,song_name,song_rating,sound,stimulus_1,stimulus_2,stimulus_3,text,time_commit,time_end,time_render,time_run,time_show,time_switch,url,word,word_ID
Prolific ID,html.Form,0,2022-04-27T12:54:52.722Z,"{""labjs_version"":""20.2.2"",""labjs_build"":{""flavor"":""production"",""commit"":""a25486e0c714a0ae2ce03ff94b7bb6896854dcfa""},""location"":""https://run.pavlovia.org/mvasilev/prolific3_music_c/"",""userAgent"":""Mozilla/5.0 (Windows NT 10.0; Win64; x64) AppleWebKit/537.36 (KHTML, like Gecko) Chrome/100.0.4896.127 Safari/537.36"",""platform"":""Win32"",""language"":""en-US"",""locale"":""en-US"",""timeZone"":""Europe/London"",""timezoneOffset"":-60,""screen_width"":1280,""screen_height"":720,""scroll_width"":1280,""scroll_height"":561,""window_innerWidth"":1280,""window_innerHeight"":609,""devicePixelRatio"":1.5}",,,,,,,,,,,,,,,5cec46d8bc1ea400184030fb,,,,,,,,,,,,,,,10583.34500001192,,form submission,,,,,,,,,,,,,,,,,,,,,92943.19999998808,92940.30000001192,82123.631,82135.59999999404,82356.955,93164.083,{},,
Introduction,html.Screen,1_0,2022-04-27T12:55:01.330Z,,,,,,,,,,,,,,,,,,,,,,,,,,,,,,,8383.417000000001,,response,,,,,,,,,,,continue,click button,,,,,,,,,101551.19999998808,101547.5,92914.093,92945.90000000596,93164.083,101562.41,,,
Volume calibration,html.Screen,1_1,2022-04-27T12:55:31.681Z,,,,,,,,,,,,,,,,,,,,,,,,,,,,,,,30322.890000011917,,response,,,,,,,,,,,continue,click button,,,,,,,,,131902.69999998808,131885.30000001192,101545.744,101551.40000000596,101562.41,131925.019,,,
Task instructions,html.Screen,1_2,2022-04-27T12:55:45.432Z,,,,,,,,,,,,,,,,,,,,,,,,,,,,,,,13727.78100001192,,response,,,,,,,,,,,continue,click button,,,,,,,,,145653.59999999404,145652.80000001192,131875.021,131903.30000001192,131925.019,145656.611,,,
Sounds,html.Screen,1_3_0_0,2022-04-27T12:55:49.678Z,,,,,,,,,,,,,,,,,,,,,,,,,,,,,,,4265.649000000005,,timeout,,,,,,,,,2,,,,,,,,O,S,I,,149899.69999998808,149888.928,145639.945,145653.80000001192,145656.611,149922.26,,,
Judgement,html.Screen,1_3_0_1,2022-04-27T12:55:52.826Z,,,,,,,,,,,,,,,,,,,,,,,,,,,,true,2,,3124.0400000119116,,response,,,,,,,,,2,,2,click #choice-2,,,,,O,S,I,,153047.19999998808,153046.30000001192,149888.928,149900.40000000596,149922.26,153054.735,,,
Trial,flow.Sequence,1_3_0,2022-04-27T12:55:52.826Z,,,,,,,,,,,,,,,,,,,,,,,,,,,,,,,7389.6890000119165,,completion,,,,,,,,,2,,,,,,,,O,S,I,,153047.5,153046.30000001192,145639.945,145653.69999998808,145656.611,153054.735,,,
Sounds,html.Screen,1_3_1_0,2022-04-27T12:55:57.069Z,,,,,,,,,,,,,,,,,,,,,,,,,,,,,,,4249.965000000026,,timeout,,,,,,,,,2,,,,,,,,I,S,O,,157290.19999998808,157288.034,153038.069,153047.80000001192,153054.735,157304.7,,,
Judgement,html.Screen,1_3_1_1,2022-04-27T12:55:57.945Z,,,,,,,,,,,,,,,,,,,,,,,,,,,,true,2,,859.8999999940279,,response,,,,,,,,,2,,2,click #choice-2,,,,,I,S,O,,158165.69999998808,158164.59999999404,157288.034,157290.40000000596,157304.7,158170.647,,,
Trial,flow.Sequence,1_3_1,2022-04-27T12:55:57.945Z,,,,,,,,,,,,,,,,,,,,,,,,,,,,,,,5109.8649999940535,,completion,,,,,,,,,2,,,,,,,,I,S,O,,158166.09999999404,158164.59999999404,153038.069,153047.59999999404,153054.735,158170.647,,,
Sounds,html.Screen,1_3_2_0,2022-04-27T12:56:02.184Z,,,,,,,,,,,,,,,,,,,,,,,,,,,,,,,4249.837999999989,,timeout,,,,,,,,,3,,,,,,,,O,I,S,,162405.19999998808,162403.819,158153.981,158166.19999998808,158170.647,162420.485,,,
Judgement,html.Screen,1_3_2_1,2022-04-27T12:56:03.028Z,,,,,,,,,,,,,,,,,,,,,,,,,,,,true,3,,827.714999988093,,response,,,,,,,,,3,,3,click #choice-3,,,,,O,I,S,,163249.09999999404,163248.19999998808,162403.819,162405.59999999404,162420.485,163253.296,,,
Trial,flow.Sequence,1_3_2,2022-04-27T12:56:03.028Z,,,,,,,,,,,,,,,,,,,,,,,,,,,,,,,5077.552999988082,,completion,,,,,,,,,3,,,,,,,,O,I,S,,163249.19999998808,163248.19999998808,158153.981,158166.09999999404,158170.647,163253.296,,,
Sounds,html.Screen,1_3_3_0,2022-04-27T12:56:07.267Z,,,,,,,,,,,,,,,,,,,,,,,,,,,,,,,4249.7699999999895,,timeout,,,,,,,,,3,,,,,,,,I,O,S,,167488.5,167486.4,163236.63,163249.30000001192,163253.296,167503.066,,,
Judgement,html.Screen,1_3_3_1,2022-04-27T12:56:08.031Z,,,,,,,,,,,,,,,,,,,,,,,,,,,,true,3,,748.3340000059688,,response,,,,,,,,,3,,3,click #choice-3,,,,,I,O,S,,168252.09999999404,168251.40000000596,167486.4,167488.69999998808,167503.066,168252.743,,,
Trial,flow.Sequence,1_3_3,2022-04-27T12:56:08.031Z,,,,,,,,,,,,,,,,,,,,,,,,,,,,,,,4998.104000005958,,completion,,,,,,,,,3,,,,,,,,I,O,S,,168252.30000001192,168251.40000000596,163236.63,163249.30000001192,163253.296,168252.743,,,
Sounds,html.Screen,1_3_4_0,2022-04-27T12:56:12.267Z,,,,,,,,,,,,,,,,,,,,,,,,,,,,,,,4249.567999999999,,timeout,,,,,,,,,1,,,,,,,,S,I,O,,172487.90000000596,172485.645,168236.077,168252.40000000596,168252.743,172502.311,,,
Judgement,html.Screen,1_3_4_1,2022-04-27T12:56:13.216Z,,,,,,,,,,,,,,,,,,,,,,,,,,,,true,1,,934.0890000059735,,response,,,,,,,,,1,,1,click #choice-1,,,,,S,I,O,,173437.19999998808,173436.40000000596,172485.645,172488.30000001192,172502.311,173451.794,,,
Trial,flow.Sequence,1_3_4,2022-04-27T12:56:13.216Z,,,,,,,,,,,,,,,,,,,,,,,,,,,,,,,5183.657000005973,,completion,,,,,,,,,1,,,,,,,,S,I,O,,173437.30000001192,173436.40000000596,168236.077,168252.40000000596,168252.743,173451.794,,,
Sounds,html.Screen,1_3_5_0,2022-04-27T12:56:17.466Z,,,,,,,,,,,,,,,,,,,,,,,,,,,,,,,4249.94200000001,,timeout,,,,,,,,,1,,,,,,,,S,O,I,,177686.69999998808,177685.07,173435.128,173437.40000000596,173451.794,177701.736,,,
Judgement,html.Screen,1_3_5_1,2022-04-27T12:56:18.385Z,,,,,,,,,,,,,,,,,,,,,,,,,,,,true,1,,902.8639999940351,,response,,,,,,,,,1,,1,click #choice-1,,,,,S,O,I,,178605.69999998808,178604.59999999404,177685.07,177686.80000001192,177701.736,178617.662,,,
Trial,flow.Sequence,1_3_5,2022-04-27T12:56:18.385Z,,,,,,,,,,,,,,,,,,,,,,,,,,,,,,,5152.805999994045,,completion,,,,,,,,,1,,,,,,,,S,O,I,,178605.90000000596,178604.59999999404,173435.128,173437.40000000596,173451.794,178617.662,,,
Task,flow.Loop,1_3,2022-04-27T12:56:18.390Z,,,,,,,,,,,,,,,,,,,,,,,,,,,,,,,32947.988999994035,,completion,,,1,,,,,,,,,,,,,,,,,,178610.69999998808,178604.59999999404,145639.945,145653.69999998808,145656.611,178617.662,,,
Trap,html.Screen,1_4,2022-04-27T12:56:18.391Z,,,,,,,,,,,,,,,,,,,,,,,,,,,,,,,NaN,,skipped,,,,,,,,,,,,,,,,,,,,,178612.09999999404,178604.59999999404,,178611.90000000596,,178617.662,,,
Thanks,html.Screen,1_5,2022-04-27T12:56:23.415Z,,,,,,,,,,,,,,,,,,,,,,,,,,,,,,,5017.037999988068,,response,,,,,,,,,,,continue,click button,,,,,,,,,183635.90000000596,183634.69999998808,178600.996,178612.30000001192,178617.662,187933.408,,,
Headphone screening,flow.Sequence,1,2022-04-27T12:56:23.415Z,,,,,,,,,,,,,,,,,,,,,,,,,,,,,,,90470.61699998808,,completion,,,,,,,,,,,,,,,,,,,,,183636.09999999404,183634.69999998808,92914.093,92945.30000001192,93164.083,187933.408,,,
Instructions,html.Page,2_0,2022-04-27T12:56:54.001Z,,,,,,,,,,,,,,,,,,,,,,,,,,,,,,,26288.092000000004,,form submission,,,,,,,,,,,,,,,,,,,,,214221.80000001192,214221.5,187916.742,187935.59999999404,187933.408,214229.359,,,
Holding screen,html.Screen,2_1_0_0,2022-04-27T12:57:03.992Z,,,,,,,,,,,,,,,,,,,,,,,,,,,,,,,10015.175000000017,,timeout,,,,,,,,,,,,,,,,,,,,,224212.90000000596,224211.202,214212.693,214222,214229.359,224244.534,,,
screen,html.Screen,2_1_0_1_0,2022-04-27T12:57:05.459Z,,,,,,,,,,,,,,,,,53,,,,,,,,,,,,,,1429.3660000059463,,response,,,,99,,,,,,,Space,keypress(Space),,,,,,,,When -- ----- -- ------ - ------- --- ----------<br>------------- ------ ------ ---- ---- ------- ----- -- ----<br>-------- ------- -- ---------- --- - --- ----- ----- ----<br>---- --- --- ----- --- ---- ---- ------- ----- ---- -------<br>--- --- -- ----- -- --- ---- -- --- ---- -- ------ ------<br>--- ----- -- ----,225679.59999999404,225673.90000000596,224211.202,224215.5,224244.534,225694.492,,0,When
screen,html.Screen,2_1_0_1_1,2022-04-27T12:57:06.287Z,,,,,,,,,,,,,,,,,53,,,,,,,,,,,,,,811.9080000059621,,response,,,,99,,,,,,,Space,keypress(Space),,,,,,,,---- it ----- -- ------ - ------- --- ----------<br>------------- ------ ------ ---- ---- ------- ----- -- ----<br>-------- ------- -- ---------- --- - --- ----- ----- ----<br>---- --- --- ----- --- ---- ---- ------- ----- ---- -------<br>--- --- -- ----- -- --- ---- -- --- ---- -- ------ ------<br>--- ----- -- ----,226507.5,226506.40000000596,225677.826,225680.09999999404,225694.492,226510.974,,1,it
screen,html.Screen,2_1_0_1_2,2022-04-27T12:57:06.897Z,,,,,,,,,,,,,,,,,53,,,,,,,,,,,,,,605.7259999880916,,response,,,,99,,,,,,,Space,keypress(Space),,,,,,,,---- -- comes -- ------ - ------- --- ----------<br>------------- ------ ------ ---- ---- ------- ----- -- ----<br>-------- ------- -- ---------- --- - --- ----- ----- ----<br>---- --- --- ----- --- ---- ---- ------- ----- ---- -------<br>--- --- -- ----- -- --- ---- -- --- ---- -- ------ ------<br>--- ----- -- ----,227118,227116.69999998808,226494.308,226507.80000001192,226510.974,227127.504,,2,comes
screen,html.Screen,2_1_0_1_3,2022-04-27T12:57:07.439Z,,,,,,,,,,,,,,,,,53,,,,,,,,,,,,,,530.6959999880928,,response,,,,99,,,,,,,Space,keypress(Space),,,,,,,,---- -- ----- to ------ - ------- --- ----------<br>------------- ------ ------ ---- ---- ------- ----- -- ----<br>-------- ------- -- ---------- --- - --- ----- ----- ----<br>---- --- --- ----- --- ---- ---- ------- ----- ---- -------<br>--- --- -- ----- -- --- ---- -- --- ---- -- ------ ------<br>--- ----- -- ----,227659.90000000596,227658.19999998808,227110.838,227118.40000000596,227127.504,227677.42,,3,to
screen,html.Screen,2_1_0_1_4,2022-04-27T12:57:07.958Z,,,,,,,,,,,,,,,,,53,,,,,,,,,,,,,,499.98000000594766,,response,,,,99,,,,,,,Space,keypress(Space),,,,,,,,---- -- ----- -- having - ------- --- ----------<br>------------- ------ ------ ---- ---- ------- ----- -- ----<br>-------- ------- -- ---------- --- - --- ----- ----- ----<br>---- --- --- ----- --- ---- ---- ------- ----- ---- -------<br>--- --- -- ----- -- --- ---- -- --- ---- -- ------ ------<br>--- ----- -- ----,228178.59999999404,228177.40000000596,227660.754,227660.09999999404,227677.42,228193.945,,4,having
screen,html.Screen,2_1_0_1_5,2022-04-27T12:57:08.475Z,,,,,,,,,,,,,,,,,53,,,,,,,,,,,,,,500.7549999880721,,response,,,,99,,,,,,,Space,keypress(Space),,,,,,,,---- -- ----- -- ------ a ------- --- ----------<br>------------- ------ ------ ---- ---- ------- ----- -- ----<br>-------- ------- -- ---------- --- - --- ----- ----- ----<br>---- --- --- ----- --- ---- ---- ------- ----- ---- -------<br>--- --- -- ----- -- --- ---- -- --- ---- -- ------ ------<br>--- ----- -- ----,228695.80000001192,228694.69999998808,228177.279,228178.80000001192,228193.945,228710.591,,5,a
screen,html.Screen,2_1_0_1_6,2022-04-27T12:57:08.969Z,,,,,,,,,,,,,,,,,53,,,,,,,,,,,,,,478.00899999405374,,response,,,,99,,,,,,,Space,keypress(Space),,,,,,,,---- -- ----- -- ------ - lasting --- ----------<br>------------- ------ ------ ---- ---- ------- ----- -- ----<br>-------- ------- -- ---------- --- - --- ----- ----- ----<br>---- --- --- ----- --- ---- ---- ------- ----- ---- -------<br>--- --- -- ----- -- --- ---- -- --- ---- -- ------ ------<br>--- ----- -- ----,229189.69999998808,229188.59999999404,228693.925,228696.09999999404,228710.591,229193.87,,6,lasting
screen,html.Screen,2_1_0_1_7,2022-04-27T12:57:09.460Z,,,,,,,,,,,,,,,,,53,,,,,,,,,,,,,,485.9300000119256,,response,,,,99,,,,,,,Space,keypress(Space),,,,,,,,---- -- ----- -- ------ - ------- and ----------<br>------------- ------ ------ ---- ---- ------- ----- -- ----<br>-------- ------- -- ---------- --- - --- ----- ----- ----<br>---- --- --- ----- --- ---- ---- ------- ----- ---- -------<br>--- --- -- ----- -- --- ---- -- --- ---- -- ------ ------<br>--- ----- -- ----,229681,229679.80000001192,229177.204,229190,229193.87,229693.752,,7,and
screen,html.Screen,2_1_0_1_8,2022-04-27T12:57:10.026Z,,,,,,,,,,,,,,,,,53,,,,,,,,,,,,,,551.2479999999923,,response,,,,99,,,,,,,Space,keypress(Space),,,,,,,,---- -- ----- -- ------ - ------- --- fulfilling<br>------------- ------ ------ ---- ---- ------- ----- -- ----<br>-------- ------- -- ---------- --- - --- ----- ----- ----<br>---- --- --- ----- --- ---- ---- ------- ----- ---- -------<br>--- --- -- ----- -- --- ---- -- --- ---- -- ------ ------<br>--- ----- -- ----,230246.40000000596,230245,229677.086,229681.19999998808,229693.752,230260.434,,8,fulfilling
screen,html.Screen,2_1_0_1_9,2022-04-27T12:57:11.242Z,,,,,,,,,,,,,,,,,53,,,,,,,,,,,,,,1200.3660000119125,,response,,,,99,,,,,,,Space,keypress(Space),,,,,,,,"---- -- ----- -- ------ - ------- --- ----------<br>relationship, ------ ------ ---- ---- ------- ----- -- ----<br>-------- ------- -- ---------- --- - --- ----- ----- ----<br>---- --- --- ----- --- ---- ---- ------- ----- ---- -------<br>--- --- -- ----- -- --- ---- -- --- ---- -- ------ ------<br>--- ----- -- ----",231462.30000001192,231460.80000001192,230243.768,230246.59999999404,230260.434,231476.94,,9,"relationship,"
screen,html.Screen,2_1_0_1_10,2022-04-27T12:57:11.838Z,,,,,,,,,,,,,,,,,53,,,,,,,,,,,,,,580.2599999880767,,response,,,,99,,,,,,,Space,keypress(Space),,,,,,,,---- -- ----- -- ------ - ------- --- ----------<br>------------- common ------ ---- ---- ------- ----- -- ----<br>-------- ------- -- ---------- --- - --- ----- ----- ----<br>---- --- --- ----- --- ---- ---- ------- ----- ---- -------<br>--- --- -- ----- -- --- ---- -- --- ---- -- ------ ------<br>--- ----- -- ----,232058.5,232057.19999998808,231460.274,231462.59999999404,231476.94,232060.198,,10,common
screen,html.Screen,2_1_0_1_11,2022-04-27T12:57:12.608Z,,,,,,,,,,,,,,,,,53,,,,,,,,,,,,,,766.7020000059565,,response,,,,99,,,,,,,Space,keypress(Space),,,,,,,,---- -- ----- -- ------ - ------- --- ----------<br>------------- ------ wisdom ---- ---- ------- ----- -- ----<br>-------- ------- -- ---------- --- - --- ----- ----- ----<br>---- --- --- ----- --- ---- ---- ------- ----- ---- -------<br>--- --- -- ----- -- --- ---- -- --- ---- -- ------ ------<br>--- ----- -- ----,232828.09999999404,232826.90000000596,232043.532,232058.69999998808,232060.198,232843.374,,11,wisdom
screen,html.Screen,2_1_0_1_12,2022-04-27T12:57:13.393Z,,,,,,,,,,,,,,,,,53,,,,,,,,,,,,,,769.4260000119102,,response,,,,99,,,,,,,Space,keypress(Space),,,,,,,,---- -- ----- -- ------ - ------- --- ----------<br>------------- ------ ------ says ---- ------- ----- -- ----<br>-------- ------- -- ---------- --- - --- ----- ----- ----<br>---- --- --- ----- --- ---- ---- ------- ----- ---- -------<br>--- --- -- ----- -- --- ---- -- --- ---- -- ------ ------<br>--- ----- -- ----,233614,233612.80000001192,232826.708,232828.40000000596,232843.374,233626.687,,12,says
screen,html.Screen,2_1_0_1_13,2022-04-27T12:57:13.913Z,,,,,,,,,,,,,,,,,53,,,,,,,,,,,,,,505.4129999940342,,response,,,,99,,,,,,,Space,keypress(Space),,,,,,,,---- -- ----- -- ------ - ------- --- ----------<br>------------- ------ ------ ---- that ------- ----- -- ----<br>-------- ------- -- ---------- --- - --- ----- ----- ----<br>---- --- --- ----- --- ---- ---- ------- ----- ---- -------<br>--- --- -- ----- -- --- ---- -- --- ---- -- ------ ------<br>--- ----- -- ----,234133.5,234132.09999999404,233610.021,233614.19999998808,233626.687,234143.163,,13,that
screen,html.Screen,2_1_0_1_14,2022-04-27T12:57:14.402Z,,,,,,,,,,,,,,,,,53,,,,,,,,,,,,,,477.93699999403907,,response,,,,99,,,,,,,Space,keypress(Space),,,,,,,,---- -- ----- -- ------ - ------- --- ----------<br>------------- ------ ------ ---- ---- feeling ----- -- ----<br>-------- ------- -- ---------- --- - --- ----- ----- ----<br>---- --- --- ----- --- ---- ---- ------- ----- ---- -------<br>--- --- -- ----- -- --- ---- -- --- ---- -- ------ ------<br>--- ----- -- ----,234622.5,234621.09999999404,234126.497,234133.69999998808,234143.163,234626.399,,14,feeling
screen,html.Screen,2_1_0_1_15,2022-04-27T12:57:14.859Z,,,,,,,,,,,,,,,,,53,,,,,,,,,,,,,,451.70099999403465,,response,,,,99,,,,,,,Space,keypress(Space),,,,,,,,---- -- ----- -- ------ - ------- --- ----------<br>------------- ------ ------ ---- ---- ------- close -- ----<br>-------- ------- -- ---------- --- - --- ----- ----- ----<br>---- --- --- ----- --- ---- ---- ------- ----- ---- -------<br>--- --- -- ----- -- --- ---- -- --- ---- -- ------ ------<br>--- ----- -- ----,235079.40000000596,235078.09999999404,234609.733,234622.69999998808,234626.399,235093.158,,15,close
screen,html.Screen,2_1_0_1_16,2022-04-27T12:57:15.277Z,,,,,,,,,,,,,,,,,53,,,,,,,,,,,,,,402.8420000000042,,response,,,,99,,,,,,,Space,keypress(Space),,,,,,,,---- -- ----- -- ------ - ------- --- ----------<br>------------- ------ ------ ---- ---- ------- ----- to ----<br>-------- ------- -- ---------- --- - --- ----- ----- ----<br>---- --- --- ----- --- ---- ---- ------- ----- ---- -------<br>--- --- -- ----- -- --- ---- -- --- ---- -- ------ ------<br>--- ----- -- ----,235497.40000000596,235496,235076.492,235079.59999999404,235093.158,235509.612,,16,to
screen,html.Screen,2_1_0_1_17,2022-04-27T12:57:15.821Z,,,,,,,,,,,,,,,,,53,,,,,,,,,,,,,,530.0879999880854,,response,,,,99,,,,,,,Space,keypress(Space),,,,,,,,---- -- ----- -- ------ - ------- --- ----------<br>------------- ------ ------ ---- ---- ------- ----- -- your<br>-------- ------- -- ---------- --- - --- ----- ----- ----<br>---- --- --- ----- --- ---- ---- ------- ----- ---- -------<br>--- --- -- ----- -- --- ---- -- --- ---- -- ------ ------<br>--- ----- -- ----,236041.19999998808,236039.69999998808,235492.946,235497.80000001192,235509.612,236042.715,,17,your
screen,html.Screen,2_1_0_1_18,2022-04-27T12:57:16.521Z,,,,,,,,,,,,,,,,,53,,,,,,,,,,,,,,698.0850000119244,,response,,,,99,,,,,,,Space,keypress(Space),,,,,,,,---- -- ----- -- ------ - ------- --- ----------<br>------------- ------ ------ ---- ---- ------- ----- -- ----<br>romantic ------- -- ---------- --- - --- ----- ----- ----<br>---- --- --- ----- --- ---- ---- ------- ----- ---- -------<br>--- --- -- ----- -- --- ---- -- --- ---- -- ------ ------<br>--- ----- -- ----,236742,236740.80000001192,236026.049,236041.40000000596,236042.715,236759.463,,18,romantic
screen,html.Screen,2_1_0_1_19,2022-04-27T12:57:17.044Z,,,,,,,,,,,,,,,,,53,,,,,,,,,,,,,,504.0370000000112,,response,,,,99,,,,,,,Space,keypress(Space),,,,,,,,---- -- ----- -- ------ - ------- --- ----------<br>------------- ------ ------ ---- ---- ------- ----- -- ----<br>-------- partner -- ---------- --- - --- ----- ----- ----<br>---- --- --- ----- --- ---- ---- ------- ----- ---- -------<br>--- --- -- ----- -- --- ---- -- --- ---- -- ------ ------<br>--- ----- -- ----,237264.80000001192,237263.5,236742.797,236742.30000001192,236759.463,237275.816,,19,partner
screen,html.Screen,2_1_0_1_20,2022-04-27T12:57:17.532Z,,,,,,,,,,,,,,,,,53,,,,,,,,,,,,,,475.38399998808745,,response,,,,99,,,,,,,Space,keypress(Space),,,,,,,,---- -- ----- -- ------ - ------- --- ----------<br>------------- ------ ------ ---- ---- ------- ----- -- ----<br>-------- ------- is ---------- --- - --- ----- ----- ----<br>---- --- --- ----- --- ---- ---- ------- ----- ---- -------<br>--- --- -- ----- -- --- ---- -- --- ---- -- ------ ------<br>--- ----- -- ----,237752.80000001192,237751.19999998808,237259.15,237265,237275.816,237759.304,,20,is
screen,html.Screen,2_1_0_1_21,2022-04-27T12:57:18.215Z,,,,,,,,,,,,,,,,,53,,,,,,,,,,,,,,675.3959999880753,,response,,,,99,,,,,,,Space,keypress(Space),,,,,,,,---- -- ----- -- ------ - ------- --- ----------<br>------------- ------ ------ ---- ---- ------- ----- -- ----<br>-------- ------- -- paramount. --- - --- ----- ----- ----<br>---- --- --- ----- --- ---- ---- ------- ----- ---- -------<br>--- --- -- ----- -- --- ---- -- --- ---- -- ------ ------<br>--- ----- -- ----,238436,238434.69999998808,237742.638,237753.09999999404,237759.304,238442.605,,21,paramount.
screen,html.Screen,2_1_0_1_22,2022-04-27T12:57:19.166Z,,,,,,,,,,,,,,,,,53,,,,,,,,,,,,,,942.1950000119105,,response,,,,99,,,,,,,Space,keypress(Space),,,,,,,,---- -- ----- -- ------ - ------- --- ----------<br>------------- ------ ------ ---- ---- ------- ----- -- ----<br>-------- ------- -- ---------- But - --- ----- ----- ----<br>---- --- --- ----- --- ---- ---- ------- ----- ---- -------<br>--- --- -- ----- -- --- ---- -- --- ---- -- ------ ------<br>--- ----- -- ----,239386.40000000596,239384.80000001192,238425.939,238436.09999999404,238442.605,239392.442,,22,But
screen,html.Screen,2_1_0_1_23,2022-04-27T12:57:19.544Z,,,,,,,,,,,,,,,,,53,,,,,,,,,,,,,,370.3580000119109,,response,,,,99,,,,,,,Space,keypress(Space),,,,,,,,---- -- ----- -- ------ - ------- --- ----------<br>------------- ------ ------ ---- ---- ------- ----- -- ----<br>-------- ------- -- ---------- --- a --- ----- ----- ----<br>---- --- --- ----- --- ---- ---- ------- ----- ---- -------<br>--- --- -- ----- -- --- ---- -- --- ---- -- ------ ------<br>--- ----- -- ----,239764.09999999404,239762.80000001192,239375.776,239386.80000001192,239392.442,239775.703,,23,a
screen,html.Screen,2_1_0_1_24,2022-04-27T12:57:19.954Z,,,,,,,,,,,,,,,,,53,,,,,,,,,,,,,,397.8969999940309,,response,,,,99,,,,,,,Space,keypress(Space),,,,,,,,---- -- ----- -- ------ - ------- --- ----------<br>------------- ------ ------ ---- ---- ------- ----- -- ----<br>-------- ------- -- ---------- --- - new ----- ----- ----<br>---- --- --- ----- --- ---- ---- ------- ----- ---- -------<br>--- --- -- ----- -- --- ---- -- --- ---- -- ------ ------<br>--- ----- -- ----,240174.80000001192,240173.59999999404,239759.037,239764.40000000596,239775.703,240192.245,,24,new
screen,html.Screen,2_1_0_1_25,2022-04-27T12:57:20.341Z,,,,,,,,,,,,,,,,,53,,,,,,,,,,,,,,368.25500000000466,,response,,,,99,,,,,,,Space,keypress(Space),,,,,,,,---- -- ----- -- ------ - ------- --- ----------<br>------------- ------ ------ ---- ---- ------- ----- -- ----<br>-------- ------- -- ---------- --- - --- study ----- ----<br>---- --- --- ----- --- ---- ---- ------- ----- ---- -------<br>--- --- -- ----- -- --- ---- -- --- ---- -- ------ ------<br>--- ----- -- ----,240561.90000000596,240560.5,240175.579,240175,240192.245,240575.523,,25,study
screen,html.Screen,2_1_0_1_26,2022-04-27T12:57:20.740Z,,,,,,,,,,,,,,,,,53,,,,,,,,,,,,,,383.77700001193443,,response,,,,99,,,,,,,Space,keypress(Space),,,,,,,,---- -- ----- -- ------ - ------- --- ----------<br>------------- ------ ------ ---- ---- ------- ----- -- ----<br>-------- ------- -- ---------- --- - --- ----- finds ----<br>---- --- --- ----- --- ---- ---- ------- ----- ---- -------<br>--- --- -- ----- -- --- ---- -- --- ---- -- ------ ------<br>--- ----- -- ----,240960.59999999404,240959.30000001192,240558.857,240562.09999999404,240575.523,240975.466,,26,finds
screen,html.Screen,2_1_0_1_27,2022-04-27T12:57:21.137Z,,,,,,,,,,,,,,,,,53,,,,,,,,,,,,,,380.7339999880933,,response,,,,99,,,,,,,Space,keypress(Space),,,,,,,,---- -- ----- -- ------ - ------- --- ----------<br>------------- ------ ------ ---- ---- ------- ----- -- ----<br>-------- ------- -- ---------- --- - --- ----- ----- that<br>---- --- --- ----- --- ---- ---- ------- ----- ---- -------<br>--- --- -- ----- -- --- ---- -- --- ---- -- ------ ------<br>--- ----- -- ----,241357.59999999404,241356.19999998808,240958.8,240960.90000000596,240975.466,241375.38,,27,that
screen,html.Screen,2_1_0_1_28,2022-04-27T12:57:21.571Z,,,,,,,,,,,,,,,,,53,,,,,,,,,,,,,,414.9200000119163,,response,,,,99,,,,,,,Space,keypress(Space),,,,,,,,---- -- ----- -- ------ - ------- --- ----------<br>------------- ------ ------ ---- ---- ------- ----- -- ----<br>-------- ------- -- ---------- --- - --- ----- ----- ----<br>it's --- --- ----- --- ---- ---- ------- ----- ---- -------<br>--- --- -- ----- -- --- ---- -- --- ---- -- ------ ------<br>--- ----- -- ----,241791.5,241790.30000001192,241358.714,241357.90000000596,241375.38,241808.678,,28,it's
screen,html.Screen,2_1_0_1_29,2022-04-27T12:57:21.925Z,,,,,,,,,,,,,,,,,53,,,,,,,,,,,,,,335.4219999940251,,response,,,,99,,,,,,,Space,keypress(Space),,,,,,,,---- -- ----- -- ------ - ------- --- ----------<br>------------- ------ ------ ---- ---- ------- ----- -- ----<br>-------- ------- -- ---------- --- - --- ----- ----- ----<br>---- not --- ----- --- ---- ---- ------- ----- ---- -------<br>--- --- -- ----- -- --- ---- -- --- ---- -- ------ ------<br>--- ----- -- ----,242145.30000001192,242144.09999999404,241792.012,241791.80000001192,241808.678,242158.629,,29,not
screen,html.Screen,2_1_0_1_30,2022-04-27T12:57:22.324Z,,,,,,,,,,,,,,,,,53,,,,,,,,,,,,,,384.9709999940533,,response,,,,99,,,,,,,Space,keypress(Space),,,,,,,,---- -- ----- -- ------ - ------- --- ----------<br>------------- ------ ------ ---- ---- ------- ----- -- ----<br>-------- ------- -- ---------- --- - --- ----- ----- ----<br>---- --- how ----- --- ---- ---- ------- ----- ---- -------<br>--- --- -- ----- -- --- ---- -- --- ---- -- ------ ------<br>--- ----- -- ----,242544.80000001192,242543.59999999404,242141.963,242145.59999999404,242158.629,242558.532,,30,how
screen,html.Screen,2_1_0_1_31,2022-04-27T12:57:22.716Z,,,,,,,,,,,,,,,,,53,,,,,,,,,,,,,,377.2680000119144,,response,,,,99,,,,,,,Space,keypress(Space),,,,,,,,---- -- ----- -- ------ - ------- --- ----------<br>------------- ------ ------ ---- ---- ------- ----- -- ----<br>-------- ------- -- ---------- --- - --- ----- ----- ----<br>---- --- --- close --- ---- ---- ------- ----- ---- -------<br>--- --- -- ----- -- --- ---- -- --- ---- -- ------ ------<br>--- ----- -- ----,242937.09999999404,242935.80000001192,242541.866,242545.09999999404,242558.532,242941.863,,31,close
screen,html.Screen,2_1_0_1_32,2022-04-27T12:57:23.096Z,,,,,,,,,,,,,,,,,53,,,,,,,,,,,,,,373.7369999940274,,response,,,,99,,,,,,,Space,keypress(Space),,,,,,,,---- -- ----- -- ------ - ------- --- ----------<br>------------- ------ ------ ---- ---- ------- ----- -- ----<br>-------- ------- -- ---------- --- - --- ----- ----- ----<br>---- --- --- ----- you ---- ---- ------- ----- ---- -------<br>--- --- -- ----- -- --- ---- -- --- ---- -- ------ ------<br>--- ----- -- ----,243316.90000000596,243315.59999999404,242925.197,242937.30000001192,242941.863,243325.183,,32,you
screen,html.Screen,2_1_0_1_33,2022-04-27T12:57:23.477Z,,,,,,,,,,,,,,,,,53,,,,,,,,,,,,,,370.7170000059705,,response,,,,99,,,,,,,Space,keypress(Space),,,,,,,,---- -- ----- -- ------ - ------- --- ----------<br>------------- ------ ------ ---- ---- ------- ----- -- ----<br>-------- ------- -- ---------- --- - --- ----- ----- ----<br>---- --- --- ----- --- feel ---- ------- ----- ---- -------<br>--- --- -- ----- -- --- ---- -- --- ---- -- ------ ------<br>--- ----- -- ----,243697.19999998808,243695.90000000596,243308.517,243319.40000000596,243325.183,243708.322,,33,feel
screen,html.Screen,2_1_0_1_34,2022-04-27T12:57:23.869Z,,,,,,,,,,,,,,,,,53,,,,,,,,,,,,,,379.97800001193536,,response,,,,99,,,,,,,Space,keypress(Space),,,,,,,,---- -- ----- -- ------ - ------- --- ----------<br>------------- ------ ------ ---- ---- ------- ----- -- ----<br>-------- ------- -- ---------- --- - --- ----- ----- ----<br>---- --- --- ----- --- ---- that ------- ----- ---- -------<br>--- --- -- ----- -- --- ---- -- --- ---- -- ------ ------<br>--- ----- -- ----,244089.69999998808,244088.30000001192,243691.656,243697.40000000596,243708.322,244091.632,,34,that
screen,html.Screen,2_1_0_1_35,2022-04-27T12:57:24.242Z,,,,,,,,,,,,,,,,,53,,,,,,,,,,,,,,369.56799998806673,,response,,,,99,,,,,,,Space,keypress(Space),,,,,,,,---- -- ----- -- ------ - ------- --- ----------<br>------------- ------ ------ ---- ---- ------- ----- -- ----<br>-------- ------- -- ---------- --- - --- ----- ----- ----<br>---- --- --- ----- --- ---- ---- matters ----- ---- -------<br>--- --- -- ----- -- --- ---- -- --- ---- -- ------ ------<br>--- ----- -- ----,244462.40000000596,244461.19999998808,244074.966,244090,244091.632,244474.949,,35,matters
screen,html.Screen,2_1_0_1_36,2022-04-27T12:57:24.623Z,,,,,,,,,,,,,,,,,53,,,,,,,,,,,,,,367.05100000000675,,response,,,,99,,,,,,,Space,keypress(Space),,,,,,,,"---- -- ----- -- ------ - ------- --- ----------<br>------------- ------ ------ ---- ---- ------- ----- -- ----<br>-------- ------- -- ---------- --- - --- ----- ----- ----<br>---- --- --- ----- --- ---- ---- ------- most, ---- -------<br>--- --- -- ----- -- --- ---- -- --- ---- -- ------ ------<br>--- ----- -- ----",244843.59999999404,244842,244458.283,244462.59999999404,244474.949,244858.201,,36,"most,"
screen,html.Screen,2_1_0_1_37,2022-04-27T12:57:25.059Z,,,,,,,,,,,,,,,,,53,,,,,,,,,,,,,,419.8989999940386,,response,,,,99,,,,,,,Space,keypress(Space),,,,,,,,---- -- ----- -- ------ - ------- --- ----------<br>------------- ------ ------ ---- ---- ------- ----- -- ----<br>-------- ------- -- ---------- --- - --- ----- ----- ----<br>---- --- --- ----- --- ---- ---- ------- ----- it's -------<br>--- --- -- ----- -- --- ---- -- --- ---- -- ------ ------<br>--- ----- -- ----,245279.5,245278.09999999404,244841.535,244843.80000001192,244858.201,245291.579,,37,it's
screen,html.Screen,2_1_0_1_38,2022-04-27T12:57:25.438Z,,,,,,,,,,,,,,,,,53,,,,,,,,,,,,,,365.4210000000021,,response,,,,99,,,,,,,Space,keypress(Space),,,,,,,,---- -- ----- -- ------ - ------- --- ----------<br>------------- ------ ------ ---- ---- ------- ----- -- ----<br>-------- ------- -- ---------- --- - --- ----- ----- ----<br>---- --- --- ----- --- ---- ---- ------- ----- ---- whether<br>--- --- -- ----- -- --- ---- -- --- ---- -- ------ ------<br>--- ----- -- ----,245658.30000001192,245657,245274.913,245279.69999998808,245291.579,245674.718,,38,whether
screen,html.Screen,2_1_0_1_39,2022-04-27T12:57:25.882Z,,,,,,,,,,,,,,,,,53,,,,,,,,,,,,,,426.682000005967,,response,,,,99,,,,,,,Space,keypress(Space),,,,,,,,---- -- ----- -- ------ - ------- --- ----------<br>------------- ------ ------ ---- ---- ------- ----- -- ----<br>-------- ------- -- ---------- --- - --- ----- ----- ----<br>---- --- --- ----- --- ---- ---- ------- ----- ---- -------<br>you --- -- ----- -- --- ---- -- --- ---- -- ------ ------<br>--- ----- -- ----,246102.69999998808,246101.40000000596,245658.052,245658.5,245674.718,246108.011,,39,you
screen,html.Screen,2_1_0_1_40,2022-04-27T12:57:26.888Z,,,,,,,,,,,,,,,,,53,,,,,,,,,,,,,,999.3890000059619,,response,,,,99,,,,,,,Space,keypress(Space),,,,,,,,---- -- ----- -- ------ - ------- --- ----------<br>------------- ------ ------ ---- ---- ------- ----- -- ----<br>-------- ------- -- ---------- --- - --- ----- ----- ----<br>---- --- --- ----- --- ---- ---- ------- ----- ---- -------<br>--- are -- ----- -- --- ---- -- --- ---- -- ------ ------<br>--- ----- -- ----,247108.59999999404,247107.40000000596,246091.345,246103,246108.011,247124.682,,40,are
screen,html.Screen,2_1_0_1_41,2022-04-27T12:57:27.377Z,,,,,,,,,,,,,,,,,53,,,,,,,,,,,,,,472.71800000595977,,response,,,,99,,,,,,,Space,keypress(Space),,,,,,,,---- -- ----- -- ------ - ------- --- ----------<br>------------- ------ ------ ---- ---- ------- ----- -- ----<br>-------- ------- -- ---------- --- - --- ----- ----- ----<br>---- --- --- ----- --- ---- ---- ------- ----- ---- -------<br>--- --- as ----- -- --- ---- -- --- ---- -- ------ ------<br>--- ----- -- ----,247598,247597.40000000596,247108.016,247108.90000000596,247124.682,247607.916,,41,as
screen,html.Screen,2_1_0_1_42,2022-04-27T12:57:27.827Z,,,,,,,,,,,,,,,,,53,,,,,,,,,,,,,,439.484000005963,,response,,,,99,,,,,,,Space,keypress(Space),,,,,,,,---- -- ----- -- ------ - ------- --- ----------<br>------------- ------ ------ ---- ---- ------- ----- -- ----<br>-------- ------- -- ---------- --- - --- ----- ----- ----<br>---- --- --- ----- --- ---- ---- ------- ----- ---- -------<br>--- --- -- close -- --- ---- -- --- ---- -- ------ ------<br>--- ----- -- ----,248048,248047.40000000596,247591.25,247598.19999998808,247607.916,248057.778,,42,close
screen,html.Screen,2_1_0_1_43,2022-04-27T12:57:28.215Z,,,,,,,,,,,,,,,,,53,,,,,,,,,,,,,,376.8219999940484,,response,,,,99,,,,,,,Space,keypress(Space),,,,,,,,---- -- ----- -- ------ - ------- --- ----------<br>------------- ------ ------ ---- ---- ------- ----- -- ----<br>-------- ------- -- ---------- --- - --- ----- ----- ----<br>---- --- --- ----- --- ---- ---- ------- ----- ---- -------<br>--- --- -- ----- as --- ---- -- --- ---- -- ------ ------<br>--- ----- -- ----,248435.80000001192,248434.59999999404,248041.112,248048.09999999404,248057.778,248440.863,,43,as
screen,html.Screen,2_1_0_1_44,2022-04-27T12:57:28.718Z,,,,,,,,,,,,,,,,,53,,,,,,,,,,,,,,496.6369999999879,,response,,,,99,,,,,,,Space,keypress(Space),,,,,,,,---- -- ----- -- ------ - ------- --- ----------<br>------------- ------ ------ ---- ---- ------- ----- -- ----<br>-------- ------- -- ---------- --- - --- ----- ----- ----<br>---- --- --- ----- --- ---- ---- ------- ----- ---- -------<br>--- --- -- ----- -- you ---- -- --- ---- -- ------ ------<br>--- ----- -- ----,248938.69999998808,248937.5,248424.197,248436.09999999404,248440.863,248940.891,,44,you
screen,html.Screen,2_1_0_1_45,2022-04-27T12:57:29.193Z,,,,,,,,,,,,,,,,,53,,,,,,,,,,,,,,470.90900001191767,,response,,,,99,,,,,,,Space,keypress(Space),,,,,,,,---- -- ----- -- ------ - ------- --- ----------<br>------------- ------ ------ ---- ---- ------- ----- -- ----<br>-------- ------- -- ---------- --- - --- ----- ----- ----<br>---- --- --- ----- --- ---- ---- ------- ----- ---- -------<br>--- --- -- ----- -- --- want -- --- ---- -- ------ ------<br>--- ----- -- ----,249413.5,249411.80000001192,248924.225,248939,248940.891,249424.254,,45,want
screen,html.Screen,2_1_0_1_46,2022-04-27T12:57:29.591Z,,,,,,,,,,,,,,,,,53,,,,,,,,,,,,,,386.4459999880928,,response,,,,99,,,,,,,Space,keypress(Space),,,,,,,,---- -- ----- -- ------ - ------- --- ----------<br>------------- ------ ------ ---- ---- ------- ----- -- ----<br>-------- ------- -- ---------- --- - --- ----- ----- ----<br>---- --- --- ----- --- ---- ---- ------- ----- ---- -------<br>--- --- -- ----- -- --- ---- to --- ---- -- ------ ------<br>--- ----- -- ----,249812,249810.69999998808,249407.588,249413.80000001192,249424.254,249824.175,,46,to
screen,html.Screen,2_1_0_1_47,2022-04-27T12:57:30.024Z,,,,,,,,,,,,,,,,,53,,,,,,,,,,,,,,419.32500000001164,,response,,,,99,,,,,,,Space,keypress(Space),,,,,,,,"---- -- ----- -- ------ - ------- --- ----------<br>------------- ------ ------ ---- ---- ------- ----- -- ----<br>-------- ------- -- ---------- --- - --- ----- ----- ----<br>---- --- --- ----- --- ---- ---- ------- ----- ---- -------<br>--- --- -- ----- -- --- ---- -- be, ---- -- ------ ------<br>--- ----- -- ----",250244.80000001192,250243.5,249807.509,249812.19999998808,249824.175,250257.596,,47,"be,"
screen,html.Screen,2_1_0_1_48,2022-04-27T12:57:30.430Z,,,,,,,,,,,,,,,,,53,,,,,,,,,,,,,,392.1039999880886,,response,,,,99,,,,,,,Space,keypress(Space),,,,,,,,---- -- ----- -- ------ - ------- --- ----------<br>------------- ------ ------ ---- ---- ------- ----- -- ----<br>-------- ------- -- ---------- --- - --- ----- ----- ----<br>---- --- --- ----- --- ---- ---- ------- ----- ---- -------<br>--- --- -- ----- -- --- ---- -- --- even -- ------ ------<br>--- ----- -- ----,250651.09999999404,250649.69999998808,250240.93,250245.09999999404,250257.596,250657.403,,48,even
screen,html.Screen,2_1_0_1_49,2022-04-27T12:57:30.886Z,,,,,,,,,,,,,,,,,53,,,,,,,,,,,,,,448.1969999940484,,response,,,,99,,,,,,,Space,keypress(Space),,,,,,,,---- -- ----- -- ------ - ------- --- ----------<br>------------- ------ ------ ---- ---- ------- ----- -- ----<br>-------- ------- -- ---------- --- - --- ----- ----- ----<br>---- --- --- ----- --- ---- ---- ------- ----- ---- -------<br>--- --- -- ----- -- --- ---- -- --- ---- if ------ ------<br>--- ----- -- ----,251107.09999999404,251105.59999999404,250640.737,250651.40000000596,250657.403,251123.922,,49,if
screen,html.Screen,2_1_0_1_50,2022-04-27T12:57:31.298Z,,,,,,,,,,,,,,,,,53,,,,,,,,,,,,,,393.67799999404815,,response,,,,99,,,,,,,Space,keypress(Space),,,,,,,,---- -- ----- -- ------ - ------- --- ----------<br>------------- ------ ------ ---- ---- ------- ----- -- ----<br>-------- ------- -- ---------- --- - --- ----- ----- ----<br>---- --- --- ----- --- ---- ---- ------- ----- ---- -------<br>--- --- -- ----- -- --- ---- -- --- ---- -- that's ------<br>--- ----- -- ----,251518.90000000596,251517.59999999404,251107.256,251107.19999998808,251123.922,251523.94,,50,that's
screen,html.Screen,2_1_0_1_51,2022-04-27T12:57:31.753Z,,,,,,,,,,,,,,,,,53,,,,,,,,,,,,,,448.75999998807674,,response,,,,99,,,,,,,Space,keypress(Space),,,,,,,,---- -- ----- -- ------ - ------- --- ----------<br>------------- ------ ------ ---- ---- ------- ----- -- ----<br>-------- ------- -- ---------- --- - --- ----- ----- ----<br>---- --- --- ----- --- ---- ---- ------- ----- ---- -------<br>--- --- -- ----- -- --- ---- -- --- ---- -- ------ really<br>--- ----- -- ----,251973.90000000596,251972.69999998808,251507.274,251519.09999999404,251523.94,251990.431,,51,really
screen,html.Screen,2_1_0_1_52,2022-04-27T12:57:32.193Z,,,,,,,,,,,,,,,,,53,,,,,,,,,,,,,,422.0689999999886,,response,,,,99,,,,,,,Space,keypress(Space),,,,,,,,---- -- ----- -- ------ - ------- --- ----------<br>------------- ------ ------ ---- ---- ------- ----- -- ----<br>-------- ------- -- ---------- --- - --- ----- ----- ----<br>---- --- --- ----- --- ---- ---- ------- ----- ---- -------<br>--- --- -- ----- -- --- ---- -- --- ---- -- ------ ------<br>not ----- -- ----,252413.80000001192,252412.5,251973.765,251974.30000001192,251990.431,252423.799,,52,not
screen,html.Screen,2_1_0_1_53,2022-04-27T12:57:32.663Z,,,,,,,,,,,,,,,,,53,,,,,,,,,,,,,,458.80099999404047,,response,,,,99,,,,,,,Space,keypress(Space),,,,,,,,---- -- ----- -- ------ - ------- --- ----------<br>------------- ------ ------ ---- ---- ------- ----- -- ----<br>-------- ------- -- ---------- --- - --- ----- ----- ----<br>---- --- --- ----- --- ---- ---- ------- ----- ---- -------<br>--- --- -- ----- -- --- ---- -- --- ---- -- ------ ------<br>--- close -- ----,252883.90000000596,252882.59999999404,252407.133,252414,252423.799,252890.485,,53,close
screen,html.Screen,2_1_0_1_54,2022-04-27T12:57:33.075Z,,,,,,,,,,,,,,,,,53,,,,,,,,,,,,,,403.91500000597443,,response,,,,99,,,,,,,Space,keypress(Space),,,,,,,,---- -- ----- -- ------ - ------- --- ----------<br>------------- ------ ------ ---- ---- ------- ----- -- ----<br>-------- ------- -- ---------- --- - --- ----- ----- ----<br>---- --- --- ----- --- ---- ---- ------- ----- ---- -------<br>--- --- -- ----- -- --- ---- -- --- ---- -- ------ ------<br>--- ----- at ----,253295.69999998808,253294.40000000596,252873.819,252884.09999999404,252890.485,253307.01,,54,at
screen,html.Screen,2_1_0_1_55,2022-04-27T12:57:46.382Z,,,,,,,,,,,,,,,,,53,,,,,,,,,,,,,,13294.58999999403,,response,,,,99,,,,,,,Space,keypress(Space),,,,,,,,---- -- ----- -- ------ - ------- --- ----------<br>------------- ------ ------ ---- ---- ------- ----- -- ----<br>-------- ------- -- ---------- --- - --- ----- ----- ----<br>---- --- --- ----- --- ---- ---- ------- ----- ---- -------<br>--- --- -- ----- -- --- ---- -- --- ---- -- ------ ------<br>--- ----- -- all.,266602.6999999881,266601.59999999404,253290.344,253295.90000000596,253307.01,266605.545,,55,all.
Item 99,flow.Loop,2_1_0_1,2022-04-27T12:57:46.382Z,,,,,,,,,,,,,,,,,,,,,,,,,,,,,,,42357.065999994025,,completion,,,,,C,,,,,,,,,,,silence,,,,,266603.09999999404,266601.59999999404,224211.202,224213.19999998808,224244.534,266605.545,,,
Question 1,html.Screen,2_1_0_2,2022-04-27T12:57:53.775Z,,,,,,,,,,,,,,,,,,,,,,,,,,,,true,FALSE,,7390.054999994056,,response,,,,99,C,,,,,,FALSE,click #choice-2,,,,silence,,,,,273996.40000000596,273995.59999999404,266588.879,266603.3000000119,266605.545,274003.777,,,
Question 2,html.Screen,2_1_0_3,2022-04-27T12:57:59.567Z,,,,,,,,,,,,,,,,,,,,,,,,,,,,true,TRUE,,5783.722999999998,,response,,,,99,C,,,,,,TRUE,click #choice-1,,,,silence,,,,,279788.3000000119,279787.5,273987.111,273996.59999999404,274003.777,279802.898,,,
Item 99,flow.Sequence,2_1_0,2022-04-27T12:57:59.567Z,,,,,,,,,,,,,,,,,,,,,,,,,,,,,,,65558.141,,completion,,,,,,,,,,,,,,,,,,,,,279788.40000000596,279787.5,214212.693,214222,214229.359,279802.898,,,
Holding screen,html.Screen,2_1_1_0,2022-04-27T12:58:09.565Z,,,,,,,,,,,,,,,,,,,,,,,,,,,,,,,9998.804999999993,,timeout,,,,,,,,,,,,,,,,,,,,,289786.09999999404,289785.037,279786.232,279788.59999999404,279802.898,289801.703,,,
screen,html.Screen,2_1_1_1_0,2022-04-27T12:58:10.593Z,,,,,,,,,,,,,,,,,54,,,,,,,,,,,,,,1011.2970000000205,,response,,,,100,,,,,,,Space,keypress(Space),,,,,,,,At --- ---- --- ------ ----- ------- ---- -- --- ------- --<br>------- ---------- ------ -- ----- -- ----- -- ---- ------<br>--- ----- --- --- ------ -------- ----- --- ------ ----- --<br>----- ----- ---------- --- --- ------ ------ ---- -- ------<br>------- --- ------ ----- --- ---- ------- -- ---- --- --<br>------- ------,290814.40000000596,290813,289785.037,289786.5,289801.703,290818.214,,0,At
screen,html.Screen,2_1_1_1_1,2022-04-27T12:58:10.997Z,,,,,,,,,,,,,,,,,54,,,,,,,,,,,,,,399.18600000598235,,response,,,,100,,,,,,,Space,keypress(Space),,,,,,,,-- the ---- --- ------ ----- ------- ---- -- --- ------- --<br>------- ---------- ------ -- ----- -- ----- -- ---- ------<br>--- ----- --- --- ------ -------- ----- --- ------ ----- --<br>----- ----- ---------- --- --- ------ ------ ---- -- ------<br>------- --- ------ ----- --- ---- ------- -- ---- --- --<br>------- ------,291218.59999999404,291217.40000000596,290801.548,290814.6999999881,290818.214,291234.817,,1,the
screen,html.Screen,2_1_1_1_2,2022-04-27T12:58:11.410Z,,,,,,,,,,,,,,,,,54,,,,,,,,,,,,,,395.58300000597956,,response,,,,100,,,,,,,Space,keypress(Space),,,,,,,,-- --- time --- ------ ----- ------- ---- -- --- ------- --<br>------- ---------- ------ -- ----- -- ----- -- ---- ------<br>--- ----- --- --- ------ -------- ----- --- ------ ----- --<br>----- ----- ---------- --- --- ------ ------ ---- -- ------<br>------- --- ------ ----- --- ---- ------- -- ---- --- --<br>------- ------,291631.59999999404,291630.40000000596,291218.151,291218.8000000119,291234.817,291634.628,,2,time
screen,html.Screen,2_1_1_1_3,2022-04-27T12:58:11.863Z,,,,,,,,,,,,,,,,,54,,,,,,,,,,,,,,448.071999988053,,response,,,,100,,,,,,,Space,keypress(Space),,,,,,,,-- --- ---- the ------ ----- ------- ---- -- --- ------- --<br>------- ---------- ------ -- ----- -- ----- -- ---- ------<br>--- ----- --- --- ------ -------- ----- --- ------ ----- --<br>----- ----- ---------- --- --- ------ ------ ---- -- ------<br>------- --- ------ ----- --- ---- ------- -- ---- --- --<br>------- ------,292083.90000000596,292082.6999999881,291617.962,291631.8000000119,291634.628,292101.262,,3,the
screen,html.Screen,2_1_1_1_4,2022-04-27T12:58:12.325Z,,,,,,,,,,,,,,,,,54,,,,,,,,,,,,,,444.1380000059726,,response,,,,100,,,,,,,Space,keypress(Space),,,,,,,,-- --- ---- --- French ----- ------- ---- -- --- ------- --<br>------- ---------- ------ -- ----- -- ----- -- ---- ------<br>--- ----- --- --- ------ -------- ----- --- ------ ----- --<br>----- ----- ---------- --- --- ------ ------ ---- -- ------<br>------- --- ------ ----- --- ---- ------- -- ---- --- --<br>------- ------,292546.5,292545.40000000596,292084.596,292084.1999999881,292101.262,292551.227,,4,French
screen,html.Screen,2_1_1_1_5,2022-04-27T12:58:12.783Z,,,,,,,,,,,,,,,,,54,,,,,,,,,,,,,,452.0730000119074,,response,,,,100,,,,,,,Space,keypress(Space),,,,,,,,-- --- ---- --- ------ crown ------- ---- -- --- ------- --<br>------- ---------- ------ -- ----- -- ----- -- ---- ------<br>--- ----- --- --- ------ -------- ----- --- ------ ----- --<br>----- ----- ---------- --- --- ------ ------ ---- -- ------<br>------- --- ------ ----- --- ---- ------- -- ---- --- --<br>------- ------,293004.59999999404,293003.3000000119,292534.561,292546.8000000119,292551.227,293017.811,,5,crown
screen,html.Screen,2_1_1_1_6,2022-04-27T12:58:13.313Z,,,,,,,,,,,,,,,,,54,,,,,,,,,,,,,,515.3889999880921,,response,,,,100,,,,,,,Space,keypress(Space),,,,,,,,-- --- ---- --- ------ ----- secured ---- -- --- ------- --<br>------- ---------- ------ -- ----- -- ----- -- ---- ------<br>--- ----- --- --- ------ -------- ----- --- ------ ----- --<br>----- ----- ---------- --- --- ------ ------ ---- -- ------<br>------- --- ------ ----- --- ---- ------- -- ---- --- --<br>------- ------,293534.3000000119,293533.1999999881,293001.145,293004.6999999881,293017.811,293550.977,,6,secured
screen,html.Screen,2_1_1_1_7,2022-04-27T12:58:13.797Z,,,,,,,,,,,,,,,,,54,,,,,,,,,,,,,,465.92300000594696,,response,,,,100,,,,,,,Space,keypress(Space),,,,,,,,-- --- ---- --- ------ ----- ------- much -- --- ------- --<br>------- ---------- ------ -- ----- -- ----- -- ---- ------<br>--- ----- --- --- ------ -------- ----- --- ------ ----- --<br>----- ----- ---------- --- --- ------ ------ ---- -- ------<br>------- --- ------ ----- --- ---- ------- -- ---- --- --<br>------- ------,294018,294016.90000000596,293534.311,293534.59999999404,293550.977,294034.466,,7,much
screen,html.Screen,2_1_1_1_8,2022-04-27T12:58:14.214Z,,,,,,,,,,,,,,,,,54,,,,,,,,,,,,,,399.23399998806417,,response,,,,100,,,,,,,Space,keypress(Space),,,,,,,,-- --- ---- --- ------ ----- ------- ---- of --- ------- --<br>------- ---------- ------ -- ----- -- ----- -- ---- ------<br>--- ----- --- --- ------ -------- ----- --- ------ ----- --<br>----- ----- ---------- --- --- ------ ------ ---- -- ------<br>------- --- ------ ----- --- ---- ------- -- ---- --- --<br>------- ------,294434.90000000596,294433.6999999881,294017.8,294018.1999999881,294034.466,294450.92,,8,of
screen,html.Screen,2_1_1_1_9,2022-04-27T12:58:14.636Z,,,,,,,,,,,,,,,,,54,,,,,,,,,,,,,,404.98000000597676,,response,,,,100,,,,,,,Space,keypress(Space),,,,,,,,-- --- ---- --- ------ ----- ------- ---- -- its ------- --<br>------- ---------- ------ -- ----- -- ----- -- ---- ------<br>--- ----- --- --- ------ -------- ----- --- ------ ----- --<br>----- ----- ---------- --- --- ------ ------ ---- -- ------<br>------- --- ------ ----- --- ---- ------- -- ---- --- --<br>------- ------,294857.3000000119,294855.90000000596,294434.254,294435.09999999404,294450.92,294867.553,,9,its
screen,html.Screen,2_1_1_1_10,2022-04-27T12:58:15.057Z,,,,,,,,,,,,,,,,,54,,,,,,,,,,,,,,409.34700000594603,,response,,,,100,,,,,,,Space,keypress(Space),,,,,,,,-- --- ---- --- ------ ----- ------- ---- -- --- revenue --<br>------- ---------- ------ -- ----- -- ----- -- ---- ------<br>--- ----- --- --- ------ -------- ----- --- ------ ----- --<br>----- ----- ---------- --- --- ------ ------ ---- -- ------<br>------- --- ------ ----- --- ---- ------- -- ---- --- --<br>------- ------,295278.59999999404,295276.90000000596,294850.887,294857.5,294867.553,295284.153,,10,revenue
screen,html.Screen,2_1_1_1_11,2022-04-27T12:58:15.498Z,,,,,,,,,,,,,,,,,54,,,,,,,,,,,,,,433.6470000119298,,response,,,,100,,,,,,,Space,keypress(Space),,,,,,,,-- --- ---- --- ------ ----- ------- ---- -- --- ------- by<br>------- ---------- ------ -- ----- -- ----- -- ---- ------<br>--- ----- --- --- ------ -------- ----- --- ------ ----- --<br>----- ----- ---------- --- --- ------ ------ ---- -- ------<br>------- --- ------ ----- --- ---- ------- -- ---- --- --<br>------- ------,295719,295717.8000000119,295267.487,295278.6999999881,295284.153,295734.094,,11,by
screen,html.Screen,2_1_1_1_12,2022-04-27T12:58:15.927Z,,,,,,,,,,,,,,,,,54,,,,,,,,,,,,,,412.8060000059777,,response,,,,100,,,,,,,Space,keypress(Space),,,,,,,,-- --- ---- --- ------ ----- ------- ---- -- --- ------- --<br>issuing ---------- ------ -- ----- -- ----- -- ---- ------<br>--- ----- --- --- ------ -------- ----- --- ------ ----- --<br>----- ----- ---------- --- --- ------ ------ ---- -- ------<br>------- --- ------ ----- --- ---- ------- -- ---- --- --<br>------- ------,296148.1999999881,296146.90000000596,295717.428,295719.3000000119,295734.094,296150.679,,12,issuing
screen,html.Screen,2_1_1_1_13,2022-04-27T12:58:16.415Z,,,,,,,,,,,,,,,,,54,,,,,,,,,,,,,,483.9209999940358,,response,,,,100,,,,,,,Space,keypress(Space),,,,,,,,-- --- ---- --- ------ ----- ------- ---- -- --- ------- --<br>------- government ------ -- ----- -- ----- -- ---- ------<br>--- ----- --- --- ------ -------- ----- --- ------ ----- --<br>----- ----- ---------- --- --- ------ ------ ---- -- ------<br>------- --- ------ ----- --- ---- ------- -- ---- --- --<br>------- ------,296635.8000000119,296634.59999999404,296134.013,296148.5,296150.679,296650.555,,13,government
screen,html.Screen,2_1_1_1_14,2022-04-27T12:58:16.882Z,,,,,,,,,,,,,,,,,54,,,,,,,,,,,,,,451.64499998808606,,response,,,,100,,,,,,,Space,keypress(Space),,,,,,,,-- --- ---- --- ------ ----- ------- ---- -- --- ------- --<br>------- ---------- bonds. -- ----- -- ----- -- ---- ------<br>--- ----- --- --- ------ -------- ----- --- ------ ----- --<br>----- ----- ---------- --- --- ------ ------ ---- -- ------<br>------- --- ------ ----- --- ---- ------- -- ---- --- --<br>------- ------,297103.3000000119,297102.1999999881,296633.889,296636.09999999404,296650.555,297117.147,,14,bonds.
screen,html.Screen,2_1_1_1_15,2022-04-27T12:58:17.527Z,,,,,,,,,,,,,,,,,54,,,,,,,,,,,,,,629.9529999940423,,response,,,,100,,,,,,,Space,keypress(Space),,,,,,,,-- --- ---- --- ------ ----- ------- ---- -- --- ------- --<br>------- ---------- ------ In ----- -- ----- -- ---- ------<br>--- ----- --- --- ------ -------- ----- --- ------ ----- --<br>----- ----- ---------- --- --- ------ ------ ---- -- ------<br>------- --- ------ ----- --- ---- ------- -- ---- --- --<br>------- ------,297748.5,297747.09999999404,297100.481,297103.59999999404,297117.147,297750.434,,15,In
screen,html.Screen,2_1_1_1_16,2022-04-27T12:58:18.323Z,,,,,,,,,,,,,,,,,54,,,,,,,,,,,,,,792.6659999940312,,response,,,,100,,,,,,,Space,keypress(Space),,,,,,,,"-- --- ---- --- ------ ----- ------- ---- -- --- ------- --<br>------- ---------- ------ -- 1727, -- ----- -- ---- ------<br>--- ----- --- --- ------ -------- ----- --- ------ ----- --<br>----- ----- ---------- --- --- ------ ------ ---- -- ------<br>------- --- ------ ----- --- ---- ------- -- ---- --- --<br>------- ------",298544.40000000596,298543.09999999404,297733.768,297748.6999999881,297750.434,298550.406,,16,"1727,"
screen,html.Screen,2_1_1_1_17,2022-04-27T12:58:18.855Z,,,,,,,,,,,,,,,,,54,,,,,,,,,,,,,,524.8940000119037,,response,,,,100,,,,,,,Space,keypress(Space),,,,,,,,-- --- ---- --- ------ ----- ------- ---- -- --- ------- --<br>------- ---------- ------ -- ----- in ----- -- ---- ------<br>--- ----- --- --- ------ -------- ----- --- ------ ----- --<br>----- ----- ---------- --- --- ------ ------ ---- -- ------<br>------- --- ------ ----- --- ---- ------- -- ---- --- --<br>------- ------,299076.40000000596,299075.3000000119,298533.74,298544.6999999881,298550.406,299083.651,,17,in
screen,html.Screen,2_1_1_1_18,2022-04-27T12:58:19.362Z,,,,,,,,,,,,,,,,,54,,,,,,,,,,,,,,498.7490000059479,,response,,,,100,,,,,,,Space,keypress(Space),,,,,,,,-- --- ---- --- ------ ----- ------- ---- -- --- ------- --<br>------- ---------- ------ -- ----- -- order -- ---- ------<br>--- ----- --- --- ------ -------- ----- --- ------ ----- --<br>----- ----- ---------- --- --- ------ ------ ---- -- ------<br>------- --- ------ ----- --- ---- ------- -- ---- --- --<br>------- ------,299583.1999999881,299582.40000000596,299066.985,299076.59999999404,299083.651,299600.151,,18,order
screen,html.Screen,2_1_1_1_19,2022-04-27T12:58:19.813Z,,,,,,,,,,,,,,,,,54,,,,,,,,,,,,,,432.2490000059479,,response,,,,100,,,,,,,Space,keypress(Space),,,,,,,,-- --- ---- --- ------ ----- ------- ---- -- --- ------- --<br>------- ---------- ------ -- ----- -- ----- to ---- ------<br>--- ----- --- --- ------ -------- ----- --- ------ ----- --<br>----- ----- ---------- --- --- ------ ------ ---- -- ------<br>------- --- ------ ----- --- ---- ------- -- ---- --- --<br>------- ------,300033.8000000119,300032.40000000596,299583.485,299583.3000000119,299600.151,300050.143,,19,to
screen,html.Screen,2_1_1_1_20,2022-04-27T12:58:20.211Z,,,,,,,,,,,,,,,,,54,,,,,,,,,,,,,,381.1570000119391,,response,,,,100,,,,,,,Space,keypress(Space),,,,,,,,-- --- ---- --- ------ ----- ------- ---- -- --- ------- --<br>------- ---------- ------ -- ----- -- ----- -- save ------<br>--- ----- --- --- ------ -------- ----- --- ------ ----- --<br>----- ----- ---------- --- --- ------ ------ ---- -- ------<br>------- --- ------ ----- --- ---- ------- -- ---- --- --<br>------- ------,300432.59999999404,300431.3000000119,300033.477,300034.09999999404,300050.143,300450.196,,20,save
screen,html.Screen,2_1_1_1_21,2022-04-27T12:58:20.922Z,,,,,,,,,,,,,,,,,54,,,,,,,,,,,,,,692.1040000119247,,response,,,,100,,,,,,,Space,keypress(Space),,,,,,,,"-- --- ---- --- ------ ----- ------- ---- -- --- ------- --<br>------- ---------- ------ -- ----- -- ----- -- ---- money,<br>--- ----- --- --- ------ -------- ----- --- ------ ----- --<br>----- ----- ---------- --- --- ------ ------ ---- -- ------<br>------- --- ------ ----- --- ---- ------- -- ---- --- --<br>------- ------",301143.40000000596,301142.3000000119,300433.53,300432.90000000596,300450.196,301149.929,,21,"money,"
screen,html.Screen,2_1_1_1_22,2022-04-27T12:58:21.442Z,,,,,,,,,,,,,,,,,54,,,,,,,,,,,,,,511.3710000119172,,response,,,,100,,,,,,,Space,keypress(Space),,,,,,,,-- --- ---- --- ------ ----- ------- ---- -- --- ------- --<br>------- ---------- ------ -- ----- -- ----- -- ---- ------<br>the ----- --- --- ------ -------- ----- --- ------ ----- --<br>----- ----- ---------- --- --- ------ ------ ---- -- ------<br>------- --- ------ ----- --- ---- ------- -- ---- --- --<br>------- ------,301662.8000000119,301661.3000000119,301133.263,301143.59999999404,301149.929,301666.481,,22,the
screen,html.Screen,2_1_1_1_23,2022-04-27T12:58:21.907Z,,,,,,,,,,,,,,,,,54,,,,,,,,,,,,,,460.9190000059316,,response,,,,100,,,,,,,Space,keypress(Space),,,,,,,,-- --- ---- --- ------ ----- ------- ---- -- --- ------- --<br>------- ---------- ------ -- ----- -- ----- -- ---- ------<br>--- state --- --- ------ -------- ----- --- ------ ----- --<br>----- ----- ---------- --- --- ------ ------ ---- -- ------<br>------- --- ------ ----- --- ---- ------- -- ---- --- --<br>------- ------,302128,302127.40000000596,301649.815,301663.09999999404,301666.481,302133.182,,23,state
screen,html.Screen,2_1_1_1_24,2022-04-27T12:58:22.376Z,,,,,,,,,,,,,,,,,54,,,,,,,,,,,,,,462.3180000000284,,response,,,,100,,,,,,,Space,keypress(Space),,,,,,,,-- --- ---- --- ------ ----- ------- ---- -- --- ------- --<br>------- ---------- ------ -- ----- -- ----- -- ---- ------<br>--- ----- cut --- ------ -------- ----- --- ------ ----- --<br>----- ----- ---------- --- --- ------ ------ ---- -- ------<br>------- --- ------ ----- --- ---- ------- -- ---- --- --<br>------- ------,302596.8000000119,302595.5,302116.516,302128.09999999404,302133.182,302599.774,,24,cut
screen,html.Screen,2_1_1_1_25,2022-04-27T12:58:22.831Z,,,,,,,,,,,,,,,,,54,,,,,,,,,,,,,,451.6260000059847,,response,,,,100,,,,,,,Space,keypress(Space),,,,,,,,-- --- ---- --- ------ ----- ------- ---- -- --- ------- --<br>------- ---------- ------ -- ----- -- ----- -- ---- ------<br>--- ----- --- the ------ -------- ----- --- ------ ----- --<br>----- ----- ---------- --- --- ------ ------ ---- -- ------<br>------- --- ------ ----- --- ---- ------- -- ---- --- --<br>------- ------,303052.6999999881,303051.40000000596,302583.108,302597,302599.774,303066.173,,25,the
screen,html.Screen,2_1_1_1_26,2022-04-27T12:58:23.315Z,,,,,,,,,,,,,,,,,54,,,,,,,,,,,,,,468.3269999999902,,response,,,,100,,,,,,,Space,keypress(Space),,,,,,,,-- --- ---- --- ------ ----- ------- ---- -- --- ------- --<br>------- ---------- ------ -- ----- -- ----- -- ---- ------<br>--- ----- --- --- bonds' -------- ----- --- ------ ----- --<br>----- ----- ---------- --- --- ------ ------ ---- -- ------<br>------- --- ------ ----- --- ---- ------- -- ---- --- --<br>------- ------,303535.8000000119,303534.5,303049.507,303053.09999999404,303066.173,303549.629,,26,bonds'
screen,html.Screen,2_1_1_1_27,2022-04-27T12:58:23.807Z,,,,,,,,,,,,,,,,,54,,,,,,,,,,,,,,476.97099999402417,,response,,,,100,,,,,,,Space,keypress(Space),,,,,,,,-- --- ---- --- ------ ----- ------- ---- -- --- ------- --<br>------- ---------- ------ -- ----- -- ----- -- ---- ------<br>--- ----- --- --- ------ interest ----- --- ------ ----- --<br>----- ----- ---------- --- --- ------ ------ ---- -- ------<br>------- --- ------ ----- --- ---- ------- -- ---- --- --<br>------- ------,304027.90000000596,304026.59999999404,303532.963,303536,303549.629,304032.904,,27,interest
screen,html.Screen,2_1_1_1_28,2022-04-27T12:58:24.300Z,,,,,,,,,,,,,,,,,54,,,,,,,,,,,,,,486.79599998809863,,response,,,,100,,,,,,,Space,keypress(Space),,,,,,,,-- --- ---- --- ------ ----- ------- ---- -- --- ------- --<br>------- ---------- ------ -- ----- -- ----- -- ---- ------<br>--- ----- --- --- ------ -------- rate. --- ------ ----- --<br>----- ----- ---------- --- --- ------ ------ ---- -- ------<br>------- --- ------ ----- --- ---- ------- -- ---- --- --<br>------- ------,304520.90000000596,304519.6999999881,304016.238,304028.09999999404,304032.904,304532.828,,28,rate.
screen,html.Screen,2_1_1_1_29,2022-04-27T12:58:24.796Z,,,,,,,,,,,,,,,,,54,,,,,,,,,,,,,,482.9720000119414,,response,,,,100,,,,,,,Space,keypress(Space),,,,,,,,-- --- ---- --- ------ ----- ------- ---- -- --- ------- --<br>------- ---------- ------ -- ----- -- ----- -- ---- ------<br>--- ----- --- --- ------ -------- ----- The ------ ----- --<br>----- ----- ---------- --- --- ------ ------ ---- -- ------<br>------- --- ------ ----- --- ---- ------- -- ---- --- --<br>------- ------,305017.09999999404,305015.8000000119,304516.162,304521.1999999881,304532.828,305032.689,,29,The
screen,html.Screen,2_1_1_1_30,2022-04-27T12:58:25.293Z,,,,,,,,,,,,,,,,,54,,,,,,,,,,,,,,480.31099999998696,,response,,,,100,,,,,,,Space,keypress(Space),,,,,,,,-- --- ---- --- ------ ----- ------- ---- -- --- ------- --<br>------- ---------- ------ -- ----- -- ----- -- ---- ------<br>--- ----- --- --- ------ -------- ----- --- market ----- --<br>----- ----- ---------- --- --- ------ ------ ---- -- ------<br>------- --- ------ ----- --- ---- ------- -- ---- --- --<br>------- ------,305514.3000000119,305513,305016.023,305017.3000000119,305032.689,305516.042,,30,market
screen,html.Screen,2_1_1_1_31,2022-04-27T12:58:25.758Z,,,,,,,,,,,,,,,,,54,,,,,,,,,,,,,,461.95799999998417,,response,,,,100,,,,,,,Space,keypress(Space),,,,,,,,-- --- ---- --- ------ ----- ------- ---- -- --- ------- --<br>------- ---------- ------ -- ----- -- ----- -- ---- ------<br>--- ----- --- --- ------ -------- ----- --- ------ value --<br>----- ----- ---------- --- --- ------ ------ ---- -- ------<br>------- --- ------ ----- --- ---- ------- -- ---- --- --<br>------- ------,305979.3000000119,305978,305499.376,305514.59999999404,305516.042,305982.51,,31,value
screen,html.Screen,2_1_1_1_32,2022-04-27T12:58:26.181Z,,,,,,,,,,,,,,,,,54,,,,,,,,,,,,,,418.4899999999907,,response,,,,100,,,,,,,Space,keypress(Space),,,,,,,,-- --- ---- --- ------ ----- ------- ---- -- --- ------- --<br>------- ---------- ------ -- ----- -- ----- -- ---- ------<br>--- ----- --- --- ------ -------- ----- --- ------ ----- of<br>----- ----- ---------- --- --- ------ ------ ---- -- ------<br>------- --- ------ ----- --- ---- ------- -- ---- --- --<br>------- ------,306402.1999999881,306401,305965.844,305979.5,305982.51,306415.882,,32,of
screen,html.Screen,2_1_1_1_33,2022-04-27T12:58:26.611Z,,,,,,,,,,,,,,,,,54,,,,,,,,,,,,,,414.11800000001676,,response,,,,100,,,,,,,Space,keypress(Space),,,,,,,,-- --- ---- --- ------ ----- ------- ---- -- --- ------- --<br>------- ---------- ------ -- ----- -- ----- -- ---- ------<br>--- ----- --- --- ------ -------- ----- --- ------ ----- --<br>these ----- ---------- --- --- ------ ------ ---- -- ------<br>------- --- ------ ----- --- ---- ------- -- ---- --- --<br>------- ------,306832.59999999404,306830,306399.216,306402.5,306415.882,306849.134,,33,these
screen,html.Screen,2_1_1_1_34,2022-04-27T12:58:27.058Z,,,,,,,,,,,,,,,,,54,,,,,,,,,,,,,,428.56599998805905,,response,,,,100,,,,,,,Space,keypress(Space),,,,,,,,-- --- ---- --- ------ ----- ------- ---- -- --- ------- --<br>------- ---------- ------ -- ----- -- ----- -- ---- ------<br>--- ----- --- --- ------ -------- ----- --- ------ ----- --<br>----- bonds ---------- --- --- ------ ------ ---- -- ------<br>------- --- ------ ----- --- ---- ------- -- ---- --- --<br>------- ------,307278.90000000596,307277.6999999881,306832.468,306832.90000000596,306849.134,307282.413,,34,bonds
screen,html.Screen,2_1_1_1_35,2022-04-27T12:58:27.588Z,,,,,,,,,,,,,,,,,54,,,,,,,,,,,,,,526.5869999999995,,response,,,,100,,,,,,,Space,keypress(Space),,,,,,,,"-- --- ---- --- ------ ----- ------- ---- -- --- ------- --<br>------- ---------- ------ -- ----- -- ----- -- ---- ------<br>--- ----- --- --- ------ -------- ----- --- ------ ----- --<br>----- ----- plummeted, --- --- ------ ------ ---- -- ------<br>------- --- ------ ----- --- ---- ------- -- ---- --- --<br>------- ------",307809.6999999881,307809,307265.747,307279.3000000119,307282.413,307815.595,,35,"plummeted,"
screen,html.Screen,2_1_1_1_36,2022-04-27T12:58:28.046Z,,,,,,,,,,,,,,,,,54,,,,,,,,,,,,,,451.40500000002794,,response,,,,100,,,,,,,Space,keypress(Space),,,,,,,,-- --- ---- --- ------ ----- ------- ---- -- --- ------- --<br>------- ---------- ------ -- ----- -- ----- -- ---- ------<br>--- ----- --- --- ------ -------- ----- --- ------ ----- --<br>----- ----- ---------- and --- ------ ------ ---- -- ------<br>------- --- ------ ----- --- ---- ------- -- ---- --- --<br>------- ------,308267.59999999404,308267,307798.929,307809.8000000119,307815.595,308282.366,,36,and
screen,html.Screen,2_1_1_1_37,2022-04-27T12:58:28.493Z,,,,,,,,,,,,,,,,,54,,,,,,,,,,,,,,431.63400000002,,response,,,,100,,,,,,,Space,keypress(Space),,,,,,,,-- --- ---- --- ------ ----- ------- ---- -- --- ------- --<br>------- ---------- ------ -- ----- -- ----- -- ---- ------<br>--- ----- --- --- ------ -------- ----- --- ------ ----- --<br>----- ----- ---------- --- the ------ ------ ---- -- ------<br>------- --- ------ ----- --- ---- ------- -- ---- --- --<br>------- ------,308714.59999999404,308714,308265.7,308267.6999999881,308282.366,308715.389,,37,the
screen,html.Screen,2_1_1_1_38,2022-04-27T12:58:28.915Z,,,,,,,,,,,,,,,,,54,,,,,,,,,,,,,,420.5110000059358,,response,,,,100,,,,,,,Space,keypress(Space),,,,,,,,-- --- ---- --- ------ ----- ------- ---- -- --- ------- --<br>------- ---------- ------ -- ----- -- ----- -- ---- ------<br>--- ----- --- --- ------ -------- ----- --- ------ ----- --<br>----- ----- ---------- --- --- market ------ ---- -- ------<br>------- --- ------ ----- --- ---- ------- -- ---- --- --<br>------- ------,309136.59999999404,309135.90000000596,308698.723,308714.6999999881,308715.389,309148.629,,38,market
screen,html.Screen,2_1_1_1_39,2022-04-27T12:58:29.342Z,,,,,,,,,,,,,,,,,54,,,,,,,,,,,,,,413.37099999998463,,response,,,,100,,,,,,,Space,keypress(Space),,,,,,,,-- --- ---- --- ------ ----- ------- ---- -- --- ------- --<br>------- ---------- ------ -- ----- -- ----- -- ---- ------<br>--- ----- --- --- ------ -------- ----- --- ------ ----- --<br>----- ----- ---------- --- --- ------ became ---- -- ------<br>------- --- ------ ----- --- ---- ------- -- ---- --- --<br>------- ------,309562.8000000119,309562,309131.963,309136.6999999881,309148.629,309565.28,,39,became
screen,html.Screen,2_1_1_1_40,2022-04-27T12:58:29.840Z,,,,,,,,,,,,,,,,,54,,,,,,,,,,,,,,495.020000011893,,response,,,,100,,,,,,,Space,keypress(Space),,,,,,,,-- --- ---- --- ------ ----- ------- ---- -- --- ------- --<br>------- ---------- ------ -- ----- -- ----- -- ---- ------<br>--- ----- --- --- ------ -------- ----- --- ------ ----- --<br>----- ----- ---------- --- --- ------ ------ wary -- ------<br>------- --- ------ ----- --- ---- ------- -- ---- --- --<br>------- ------,310061.5,310060.3000000119,309548.614,309562.90000000596,309565.28,310065.228,,40,wary
screen,html.Screen,2_1_1_1_41,2022-04-27T12:58:30.291Z,,,,,,,,,,,,,,,,,54,,,,,,,,,,,,,,445.2719999999972,,response,,,,100,,,,,,,Space,keypress(Space),,,,,,,,-- --- ---- --- ------ ----- ------- ---- -- --- ------- --<br>------- ---------- ------ -- ----- -- ----- -- ---- ------<br>--- ----- --- --- ------ -------- ----- --- ------ ----- --<br>----- ----- ---------- --- --- ------ ------ ---- of ------<br>------- --- ------ ----- --- ---- ------- -- ---- --- --<br>------- ------,310511.6999999881,310510.5,310048.562,310061.8000000119,310065.228,310515.11,,41,of
screen,html.Screen,2_1_1_1_42,2022-04-27T12:58:30.733Z,,,,,,,,,,,,,,,,,54,,,,,,,,,,,,,,438.1900000119349,,response,,,,100,,,,,,,Space,keypress(Space),,,,,,,,-- --- ---- --- ------ ----- ------- ---- -- --- ------- --<br>------- ---------- ------ -- ----- -- ----- -- ---- ------<br>--- ----- --- --- ------ -------- ----- --- ------ ----- --<br>----- ----- ---------- --- --- ------ ------ ---- -- French<br>------- --- ------ ----- --- ---- ------- -- ---- --- --<br>------- ------,310954.5,310953.3000000119,310498.444,310512,310515.11,310965.196,,42,French
screen,html.Screen,2_1_1_1_43,2022-04-27T12:58:31.197Z,,,,,,,,,,,,,,,,,54,,,,,,,,,,,,,,451.5039999880828,,response,,,,100,,,,,,,Space,keypress(Space),,,,,,,,-- --- ---- --- ------ ----- ------- ---- -- --- ------- --<br>------- ---------- ------ -- ----- -- ----- -- ---- ------<br>--- ----- --- --- ------ -------- ----- --- ------ ----- --<br>----- ----- ---------- --- --- ------ ------ ---- -- ------<br>credit. --- ------ ----- --- ---- ------- -- ---- --- --<br>------- ------,311418,311416.6999999881,310948.53,310954.6999999881,310965.196,311431.78,,43,credit.
screen,html.Screen,2_1_1_1_44,2022-04-27T12:58:31.638Z,,,,,,,,,,,,,,,,,54,,,,,,,,,,,,,,426.41999998805113,,response,,,,100,,,,,,,Space,keypress(Space),,,,,,,,-- --- ---- --- ------ ----- ------- ---- -- --- ------- --<br>------- ---------- ------ -- ----- -- ----- -- ---- ------<br>--- ----- --- --- ------ -------- ----- --- ------ ----- --<br>----- ----- ---------- --- --- ------ ------ ---- -- ------<br>------- The ------ ----- --- ---- ------- -- ---- --- --<br>------- ------,311859.59999999404,311858.1999999881,311415.114,311418.1999999881,311431.78,311865.075,,44,The
screen,html.Screen,2_1_1_1_45,2022-04-27T12:58:32.069Z,,,,,,,,,,,,,,,,,54,,,,,,,,,,,,,,424.12499998806743,,response,,,,100,,,,,,,Space,keypress(Space),,,,,,,,-- --- ---- --- ------ ----- ------- ---- -- --- ------- --<br>------- ---------- ------ -- ----- -- ----- -- ---- ------<br>--- ----- --- --- ------ -------- ----- --- ------ ----- --<br>----- ----- ---------- --- --- ------ ------ ---- -- ------<br>------- --- French ----- --- ---- ------- -- ---- --- --<br>------- ------,312289.8000000119,312289.1999999881,311848.409,311859.8000000119,311865.075,312298.302,,45,French
screen,html.Screen,2_1_1_1_46,2022-04-27T12:58:32.495Z,,,,,,,,,,,,,,,,,54,,,,,,,,,,,,,,416.4980000118958,,response,,,,100,,,,,,,Space,keypress(Space),,,,,,,,-- --- ---- --- ------ ----- ------- ---- -- --- ------- --<br>------- ---------- ------ -- ----- -- ----- -- ---- ------<br>--- ----- --- --- ------ -------- ----- --- ------ ----- --<br>----- ----- ---------- --- --- ------ ------ ---- -- ------<br>------- --- ------ state --- ---- ------- -- ---- --- --<br>------- ------,312716.3000000119,312714.8000000119,312281.636,312289.90000000596,312298.302,312731.538,,46,state
screen,html.Screen,2_1_1_1_47,2022-04-27T12:58:32.928Z,,,,,,,,,,,,,,,,,54,,,,,,,,,,,,,,416.76200001192046,,response,,,,100,,,,,,,Space,keypress(Space),,,,,,,,-- --- ---- --- ------ ----- ------- ---- -- --- ------- --<br>------- ---------- ------ -- ----- -- ----- -- ---- ------<br>--- ----- --- --- ------ -------- ----- --- ------ ----- --<br>----- ----- ---------- --- --- ------ ------ ---- -- ------<br>------- --- ------ ----- was ---- ------- -- ---- --- --<br>------- ------,313149.5,313148.3000000119,312714.872,312716.8000000119,312731.538,313164.846,,47,was
screen,html.Screen,2_1_1_1_48,2022-04-27T12:58:33.353Z,,,,,,,,,,,,,,,,,54,,,,,,,,,,,,,,407.45400001190137,,response,,,,100,,,,,,,Space,keypress(Space),,,,,,,,-- --- ---- --- ------ ----- ------- ---- -- --- ------- --<br>------- ---------- ------ -- ----- -- ----- -- ---- ------<br>--- ----- --- --- ------ -------- ----- --- ------ ----- --<br>----- ----- ---------- --- --- ------ ------ ---- -- ------<br>------- --- ------ ----- --- left ------- -- ---- --- --<br>------- ------,313573.8000000119,313572.3000000119,313148.18,313149.8000000119,313164.846,313581.487,,48,left
screen,html.Screen,2_1_1_1_49,2022-04-27T12:58:33.768Z,,,,,,,,,,,,,,,,,54,,,,,,,,,,,,,,406.6129999940167,,response,,,,100,,,,,,,Space,keypress(Space),,,,,,,,-- --- ---- --- ------ ----- ------- ---- -- --- ------- --<br>------- ---------- ------ -- ----- -- ----- -- ---- ------<br>--- ----- --- --- ------ -------- ----- --- ------ ----- --<br>----- ----- ---------- --- --- ------ ------ ---- -- ------<br>------- --- ------ ----- --- ---- without -- ---- --- --<br>------- ------,313989.3000000119,313988.09999999404,313564.821,313574.09999999404,313581.487,313998.256,,49,without
screen,html.Screen,2_1_1_1_50,2022-04-27T12:58:34.234Z,,,,,,,,,,,,,,,,,54,,,,,,,,,,,,,,455.74400000000605,,response,,,,100,,,,,,,Space,keypress(Space),,,,,,,,-- --- ---- --- ------ ----- ------- ---- -- --- ------- --<br>------- ---------- ------ -- ----- -- ----- -- ---- ------<br>--- ----- --- --- ------ -------- ----- --- ------ ----- --<br>----- ----- ---------- --- --- ------ ------ ---- -- ------<br>------- --- ------ ----- --- ---- ------- an ---- --- --<br>------- ------,314455.1999999881,314454,313981.59,313989.59999999404,313998.256,314464.706,,50,an
screen,html.Screen,2_1_1_1_51,2022-04-27T12:58:34.669Z,,,,,,,,,,,,,,,,,54,,,,,,,,,,,,,,424.2939999999944,,response,,,,100,,,,,,,Space,keypress(Space),,,,,,,,-- --- ---- --- ------ ----- ------- ---- -- --- ------- --<br>------- ---------- ------ -- ----- -- ----- -- ---- ------<br>--- ----- --- --- ------ -------- ----- --- ------ ----- --<br>----- ----- ---------- --- --- ------ ------ ---- -- ------<br>------- --- ------ ----- --- ---- ------- -- easy --- --<br>------- ------,314890.40000000596,314889,314448.04,314455.5,314464.706,314897.968,,51,easy
screen,html.Screen,2_1_1_1_52,2022-04-27T12:58:35.098Z,,,,,,,,,,,,,,,,,54,,,,,,,,,,,,,,420.5320000000065,,response,,,,100,,,,,,,Space,keypress(Space),,,,,,,,-- --- ---- --- ------ ----- ------- ---- -- --- ------- --<br>------- ---------- ------ -- ----- -- ----- -- ---- ------<br>--- ----- --- --- ------ -------- ----- --- ------ ----- --<br>----- ----- ---------- --- --- ------ ------ ---- -- ------<br>------- --- ------ ----- --- ---- ------- -- ---- way --<br>------- ------,315319.6999999881,315318.5,314881.302,314890.59999999404,314897.968,315331.238,,52,way
screen,html.Screen,2_1_1_1_53,2022-04-27T12:58:35.528Z,,,,,,,,,,,,,,,,,54,,,,,,,,,,,,,,416.8619999940274,,response,,,,100,,,,,,,Space,keypress(Space),,,,,,,,-- --- ---- --- ------ ----- ------- ---- -- --- ------- --<br>------- ---------- ------ -- ----- -- ----- -- ---- ------<br>--- ----- --- --- ------ -------- ----- --- ------ ----- --<br>----- ----- ---------- --- --- ------ ------ ---- -- ------<br>------- --- ------ ----- --- ---- ------- -- ---- --- of<br>------- ------,315749.3000000119,315748.09999999404,315314.572,315319.90000000596,315331.238,315764.522,,53,of
screen,html.Screen,2_1_1_1_54,2022-04-27T12:58:35.959Z,,,,,,,,,,,,,,,,,54,,,,,,,,,,,,,,414.4780000000028,,response,,,,100,,,,,,,Space,keypress(Space),,,,,,,,-- --- ---- --- ------ ----- ------- ---- -- --- ------- --<br>------- ---------- ------ -- ----- -- ----- -- ---- ------<br>--- ----- --- --- ------ -------- ----- --- ------ ----- --<br>----- ----- ---------- --- --- ------ ------ ---- -- ------<br>------- --- ------ ----- --- ---- ------- -- ---- --- --<br>raising ------,316180.3000000119,316179,315747.856,315749.5,315764.522,316197.596,,54,raising
screen,html.Screen,2_1_1_1_55,2022-04-27T12:58:42.073Z,,,,,,,,,,,,,,,,,54,,,,,,,,,,,,,,6095.804000005941,,response,,,,100,,,,,,,Space,keypress(Space),,,,,,,,-- --- ---- --- ------ ----- ------- ---- -- --- ------- --<br>------- ---------- ------ -- ----- -- ----- -- ---- ------<br>--- ----- --- --- ------ -------- ----- --- ------ ----- --<br>----- ----- ---------- --- --- ------ ------ ---- -- ------<br>------- --- ------ ----- --- ---- ------- -- ---- --- --<br>------- money.,322294.6999999881,322293.40000000596,316180.93,316180.5,316197.596,322297.483,,55,money.
Item 100,flow.Loop,2_1_1_1,2022-04-27T12:58:42.074Z,,,,,,,,,,,,,,,,,,,,,,,,,,,,,,,32491.69700000598,,completion,,,,,C,,,,,,,,,,,silence,,,,,322295.09999999404,322293.40000000596,289785.037,289786.40000000596,289801.703,322297.483,,,
Question 1,html.Screen,2_1_1_2,2022-04-27T12:58:47.235Z,,,,,,,,,,,,,,,,,,,,,,,,,,,,true,TRUE,,5158.216999988072,,response,,,,100,C,,,,,,TRUE,click #choice-1,,,,silence,,,,,327456.59999999404,327455.6999999881,322280.817,322295.40000000596,322297.483,327462.66,,,
Question 2,html.Screen,2_1_1_3,2022-04-27T12:58:50.199Z,,,,,,,,,,,,,,,,,,,,,,,,,,,,true,FALSE,,2956.3400000000256,,response,,,,100,C,,,,,,FALSE,click #choice-2,,,,silence,,,,,330419.6999999881,330419,327445.994,327456.8000000119,327462.66,330428.982,,,
Item 100,flow.Sequence,2_1_1,2022-04-27T12:58:50.199Z,,,,,,,,,,,,,,,,,,,,,,,,,,,,,,,50616.10200000001,,completion,,,,,,,,,,,,,,,,,,,,,330419.90000000596,330419,279786.232,279788.5,279802.898,330428.982,,,
End of Practice,html.Page,2_1_2,2022-04-27T12:58:56.231Z,,,,,,,,,,,,,,,,,,,,,,,,,,,,,,,6022.017999999982,,form submission,,,,,,,,,,,,,,,,,,,,,336451.1999999881,336451,330412.316,330419.90000000596,330428.982,336461.305,,,
Practice,flow.Sequence,2_1,2022-04-27T12:58:56.231Z,,,,,,,,,,,,,,,,,,,,,,,,,,,,,,,122221.641,,completion,,,,,,,,,,,,,,,,,,,,,336451.3000000119,336451,214212.693,214221.90000000596,214229.359,336461.305,,,
Trap_instruction,html.Page,2_2_0,2022-04-27T12:59:00.989Z,,,,,,,,,,,,,,,,,,,,,,,,,,,,,,,4747.7949999940465,,form submission,,,,,,,,,,,,,,,,,,,,,341209.1999999881,341209.09999999404,336444.639,336451.40000000596,336461.305,341227.454,,,
trap_trial,html.Screen,2_2_1,2022-04-27T12:59:12.564Z,,,,,,,,,,,,,,,,,,,,,,,,,,,,true,1,,11556.346000011894,,response,,,,,,,,,,,1,click #choice-1,,,,,,,,,352784.6999999881,352783.8000000119,341194.122,341209.3000000119,341227.454,352792.744,,,
end of trap trial,html.Page,2_2_2,2022-04-27T12:59:15.606Z,,,,,,,,,,,,,,,,,,,,,,,,,,,,,,,3033.455999988073,,form submission,,,,,,,,,,,,,,,,,,,,,355826.40000000596,355826.1999999881,352776.078,352784.6999999881,352792.744,355841.974,,,
Trap 1,flow.Sequence,2_2,2022-04-27T12:59:15.606Z,,,,,,,,,,,,,,,,,,,,,,,,,,,,,,,19364.894999988086,,completion,,,,,,,,,,,,,,,,,,,,,355826.5,355826.1999999881,336444.639,336451.40000000596,336461.305,355841.974,,,
Standby,html.Page,2_3_0,2022-04-27T12:59:23.605Z,,,,,,,,,,,,,,,,,,,,,,,,,,,,,,,7999.46100000001,,timeout,,,,,,,,,,,,,,,,,,,,,363825.90000000596,363824.769,355825.308,355826.59999999404,355841.974,363841.435,,,
Holding screen,html.Screen,2_3_1_0_0,2022-04-27T12:59:30.604Z,,,,,,,,,,,,,,,,,,,,,,,,,,,,,,,6998.517999999982,,timeout,,,,,,,,,,,,,,,,,,,,,370824.40000000596,370823.287,363824.769,363826.40000000596,363841.435,370839.953,,,
screen,html.Screen,2_3_1_0_1_0,2022-04-27T12:59:32.503Z,,,,,,,,,,,,,,,,,12,,,,,,,,,,,,,,1882.947000005981,,response,,,,5,C,,,,,,Space,keypress(Space),,,,instrumental,,,,Some ------ ------ ------- ------ --- ------- -----------<br>-- ----- --- ---- -- --- ------ ---- - ---- -- ----------<br>-- ------ ---- --- ---- --- --- --- ----- -- -------- ---<br>------ ------- -------- --- ---- -- ------- ------------ --<br>------ -- ---- -- --- ---- -- -------- -- --- ------ ------,372723.59999999404,372722.90000000596,370823.287,370824.6999999881,370839.953,372739.722,,0,Some
screen,html.Screen,2_3_1_0_1_1,2022-04-27T12:59:33.176Z,,,,,,,,,,,,,,,,,12,,,,,,,,,,,,,,656.5780000119121,,response,,,,5,C,,,,,,Space,keypress(Space),,,,instrumental,,,,---- months ------ ------- ------ --- ------- -----------<br>-- ----- --- ---- -- --- ------ ---- - ---- -- ----------<br>-- ------ ---- --- ---- --- --- --- ----- -- -------- ---<br>------ ------- -------- --- ---- -- ------- ------------ --<br>------ -- ---- -- --- ---- -- -------- -- --- ------ ------,373396.90000000596,373396.3000000119,372723.056,372724.59999999404,372739.722,373406.293,,1,months
screen,html.Screen,2_3_1_0_1_2,2022-04-27T12:59:34.052Z,,,,,,,,,,,,,,,,,12,,,,,,,,,,,,,,865.3069999940344,,response,,,,5,C,,,,,,Space,keypress(Space),,,,instrumental,,,,"---- ------ later, ------- ------ --- ------- -----------<br>-- ----- --- ---- -- --- ------ ---- - ---- -- ----------<br>-- ------ ---- --- ---- --- --- --- ----- -- -------- ---<br>------ ------- -------- --- ---- -- ------- ------------ --<br>------ -- ---- -- --- ---- -- -------- -- --- ------ ------",374272.8000000119,374271.59999999404,373389.627,373397,373406.293,374289.241,,2,"later,"
screen,html.Screen,2_3_1_0_1_3,2022-04-27T12:59:34.623Z,,,,,,,,,,,,,,,,,12,,,,,,,,,,,,,,553.4589999880991,,response,,,,5,C,,,,,,Space,keypress(Space),,,,instrumental,,,,---- ------ ------ Michael ------ --- ------- -----------<br>-- ----- --- ---- -- --- ------ ---- - ---- -- ----------<br>-- ------ ---- --- ---- --- --- --- ----- -- -------- ---<br>------ ------- -------- --- ---- -- ------- ------------ --<br>------ -- ---- -- --- ---- -- -------- -- --- ------ ------,374844,374842.6999999881,374272.575,374273,374289.241,374855.937,,3,Michael
screen,html.Screen,2_3_1_0_1_4,2022-04-27T12:59:35.083Z,,,,,,,,,,,,,,,,,12,,,,,,,,,,,,,,445.9630000059842,,response,,,,5,C,,,,,,Space,keypress(Space),,,,instrumental,,,,---- ------ ------ ------- Larson --- ------- -----------<br>-- ----- --- ---- -- --- ------ ---- - ---- -- ----------<br>-- ------ ---- --- ---- --- --- --- ----- -- -------- ---<br>------ ------- -------- --- ---- -- ------- ------------ --<br>------ -- ---- -- --- ---- -- -------- -- --- ------ ------,375303.1999999881,375301.90000000596,374839.271,374844.1999999881,374855.937,375305.729,,4,Larson
screen,html.Screen,2_3_1_0_1_5,2022-04-27T12:59:35.592Z,,,,,,,,,,,,,,,,,12,,,,,,,,,,,,,,505.7710000000079,,response,,,,5,C,,,,,,Space,keypress(Space),,,,instrumental,,,,---- ------ ------ ------- ------ saw ------- -----------<br>-- ----- --- ---- -- --- ------ ---- - ---- -- ----------<br>-- ------ ---- --- ---- --- --- --- ----- -- -------- ---<br>------ ------- -------- --- ---- -- ------- ------------ --<br>------ -- ---- -- --- ---- -- -------- -- --- ------ ------,375812.3000000119,375811.5,375289.063,375303.40000000596,375305.729,375822.606,,5,saw
screen,html.Screen,2_3_1_0_1_6,2022-04-27T12:59:36.055Z,,,,,,,,,,,,,,,,,12,,,,,,,,,,,,,,451.89399999997113,,response,,,,5,C,,,,,,Space,keypress(Space),,,,instrumental,,,,---- ------ ------ ------- ------ --- another -----------<br>-- ----- --- ---- -- --- ------ ---- - ---- -- ----------<br>-- ------ ---- --- ---- --- --- --- ----- -- -------- ---<br>------ ------- -------- --- ---- -- ------- ------------ --<br>------ -- ---- -- --- ---- -- -------- -- --- ------ ------,376275.3000000119,376274.5,375805.94,375812.5,375822.606,376288.988,,6,another
screen,html.Screen,2_3_1_0_1_7,2022-04-27T12:59:36.609Z,,,,,,,,,,,,,,,,,12,,,,,,,,,,,,,,539.6119999940274,,response,,,,5,C,,,,,,Space,keypress(Space),,,,instrumental,,,,---- ------ ------ ------- ------ --- ------- opportunity<br>-- ----- --- ---- -- --- ------ ---- - ---- -- ----------<br>-- ------ ---- --- ---- --- --- --- ----- -- -------- ---<br>------ ------- -------- --- ---- -- ------- ------------ --<br>------ -- ---- -- --- ---- -- -------- -- --- ------ ------,376829.40000000596,376828.59999999404,376272.322,376275.40000000596,376288.988,376838.877,,7,opportunity
screen,html.Screen,2_3_1_0_1_8,2022-04-27T12:59:37.059Z,,,,,,,,,,,,,,,,,12,,,,,,,,,,,,,,439.8229999881005,,response,,,,5,C,,,,,,Space,keypress(Space),,,,instrumental,,,,---- ------ ------ ------- ------ --- ------- -----------<br>to ----- --- ---- -- --- ------ ---- - ---- -- ----------<br>-- ------ ---- --- ---- --- --- --- ----- -- -------- ---<br>------ ------- -------- --- ---- -- ------- ------------ --<br>------ -- ---- -- --- ---- -- -------- -- --- ------ ------,377279.5,377278.6999999881,376822.211,376829.59999999404,376838.877,377288.745,,8,to
screen,html.Screen,2_3_1_0_1_9,2022-04-27T12:59:37.604Z,,,,,,,,,,,,,,,,,12,,,,,,,,,,,,,,535.3549999940442,,response,,,,5,C,,,,,,Space,keypress(Space),,,,instrumental,,,,---- ------ ------ ------- ------ --- ------- -----------<br>-- stack --- ---- -- --- ------ ---- - ---- -- ----------<br>-- ------ ---- --- ---- --- --- --- ----- -- -------- ---<br>------ ------- -------- --- ---- -- ------- ------------ --<br>------ -- ---- -- --- ---- -- -------- -- --- ------ ------,377824.90000000596,377824.09999999404,377272.079,377279.8000000119,377288.745,377838.675,,9,stack
screen,html.Screen,2_3_1_0_1_10,2022-04-27T12:59:38.021Z,,,,,,,,,,,,,,,,,12,,,,,,,,,,,,,,402.5249999880907,,response,,,,5,C,,,,,,Space,keypress(Space),,,,instrumental,,,,---- ------ ------ ------- ------ --- ------- -----------<br>-- ----- the ---- -- --- ------ ---- - ---- -- ----------<br>-- ------ ---- --- ---- --- --- --- ----- -- -------- ---<br>------ ------- -------- --- ---- -- ------- ------------ --<br>------ -- ---- -- --- ---- -- -------- -- --- ------ ------,378242.09999999404,378241.1999999881,377822.009,377825.09999999404,377838.675,378255.308,,10,the
screen,html.Screen,2_3_1_0_1_11,2022-04-27T12:59:38.464Z,,,,,,,,,,,,,,,,,12,,,,,,,,,,,,,,428.39199998806,,response,,,,5,C,,,,,,Space,keypress(Space),,,,instrumental,,,,---- ------ ------ ------- ------ --- ------- -----------<br>-- ----- --- odds -- --- ------ ---- - ---- -- ----------<br>-- ------ ---- --- ---- --- --- --- ----- -- -------- ---<br>------ ------- -------- --- ---- -- ------- ------------ --<br>------ -- ---- -- --- ---- -- -------- -- --- ------ ------,378685,378683.6999999881,378238.642,378242.1999999881,378255.308,378688.724,,11,odds
screen,html.Screen,2_3_1_0_1_12,2022-04-27T12:59:38.896Z,,,,,,,,,,,,,,,,,12,,,,,,,,,,,,,,427.17600000597304,,response,,,,5,C,,,,,,Space,keypress(Space),,,,instrumental,,,,---- ------ ------ ------- ------ --- ------- -----------<br>-- ----- --- ---- in --- ------ ---- - ---- -- ----------<br>-- ------ ---- --- ---- --- --- --- ----- -- -------- ---<br>------ ------- -------- --- ---- -- ------- ------------ --<br>------ -- ---- -- --- ---- -- -------- -- --- ------ ------,379117,379115.90000000596,378672.058,378685.3000000119,378688.724,379121.807,,12,in
screen,html.Screen,2_3_1_0_1_13,2022-04-27T12:59:39.296Z,,,,,,,,,,,,,,,,,12,,,,,,,,,,,,,,393.49300001194933,,response,,,,5,C,,,,,,Space,keypress(Space),,,,instrumental,,,,---- ------ ------ ------- ------ --- ------- -----------<br>-- ----- --- ---- -- his ------ ---- - ---- -- ----------<br>-- ------ ---- --- ---- --- --- --- ----- -- -------- ---<br>------ ------- -------- --- ---- -- ------- ------------ --<br>------ -- ---- -- --- ---- -- -------- -- --- ------ ------,379516.40000000596,379515.3000000119,379105.141,379117.3000000119,379121.807,379521.747,,13,his
screen,html.Screen,2_3_1_0_1_14,2022-04-27T12:59:39.656Z,,,,,,,,,,,,,,,,,12,,,,,,,,,,,,,,353.45299998810515,,response,,,,5,C,,,,,,Space,keypress(Space),,,,instrumental,,,,---- ------ ------ ------- ------ --- ------- -----------<br>-- ----- --- ---- -- --- favour ---- - ---- -- ----------<br>-- ------ ---- --- ---- --- --- --- ----- -- -------- ---<br>------ ------- -------- --- ---- -- ------- ------------ --<br>------ -- ---- -- --- ---- -- -------- -- --- ------ ------,379876.3000000119,379875.1999999881,379505.081,379516.5,379521.747,379888.463,,14,favour
screen,html.Screen,2_3_1_0_1_15,2022-04-27T12:59:40.088Z,,,,,,,,,,,,,,,,,12,,,,,,,,,,,,,,419.0370000000112,,response,,,,5,C,,,,,,Space,keypress(Space),,,,instrumental,,,,---- ------ ------ ------- ------ --- ------- -----------<br>-- ----- --- ---- -- --- ------ with - ---- -- ----------<br>-- ------ ---- --- ---- --- --- --- ----- -- -------- ---<br>------ ------- -------- --- ---- -- ------- ------------ --<br>------ -- ---- -- --- ---- -- -------- -- --- ------ ------,380308.59999999404,380307.5,379871.797,379876.40000000596,379888.463,380321.765,,15,with
screen,html.Screen,2_3_1_0_1_16,2022-04-27T12:59:40.486Z,,,,,,,,,,,,,,,,,12,,,,,,,,,,,,,,383.4349999880651,,response,,,,5,C,,,,,,Space,keypress(Space),,,,instrumental,,,,---- ------ ------ ------- ------ --- ------- -----------<br>-- ----- --- ---- -- --- ------ ---- a ---- -- ----------<br>-- ------ ---- --- ---- --- --- --- ----- -- -------- ---<br>------ ------- -------- --- ---- -- ------- ------------ --<br>------ -- ---- -- --- ---- -- -------- -- --- ------ ------,380706.3000000119,380705.1999999881,380305.099,380308.90000000596,380321.765,380721.53,,16,a
screen,html.Screen,2_3_1_0_1_17,2022-04-27T12:59:40.884Z,,,,,,,,,,,,,,,,,12,,,,,,,,,,,,,,382.770000011893,,response,,,,5,C,,,,,,Space,keypress(Space),,,,instrumental,,,,---- ------ ------ ------- ------ --- ------- -----------<br>-- ----- --- ---- -- --- ------ ---- - dash -- ----------<br>-- ------ ---- --- ---- --- --- --- ----- -- -------- ---<br>------ ------- -------- --- ---- -- ------- ------------ --<br>------ -- ---- -- --- ---- -- -------- -- --- ------ ------,381105,381104.3000000119,380704.864,380706.5,380721.53,381121.507,,17,dash
screen,html.Screen,2_3_1_0_1_18,2022-04-27T12:59:41.275Z,,,,,,,,,,,,,,,,,12,,,,,,,,,,,,,,373.5929999940563,,response,,,,5,C,,,,,,Space,keypress(Space),,,,instrumental,,,,---- ------ ------ ------- ------ --- ------- -----------<br>-- ----- --- ---- -- --- ------ ---- - ---- of ----------<br>-- ------ ---- --- ---- --- --- --- ----- -- -------- ---<br>------ ------- -------- --- ---- -- ------- ------------ --<br>------ -- ---- -- --- ---- -- -------- -- --- ------ ------,381495.6999999881,381495.09999999404,381104.841,381105,381121.507,381504.817,,18,of
screen,html.Screen,2_3_1_0_1_19,2022-04-27T12:59:42.370Z,,,,,,,,,,,,,,,,,12,,,,,,,,,,,,,,1084.8829999880982,,response,,,,5,C,,,,,,Space,keypress(Space),,,,instrumental,,,,---- ------ ------ ------- ------ --- ------- -----------<br>-- ----- --- ---- -- --- ------ ---- - ---- -- ingenuity.<br>-- ------ ---- --- ---- --- --- --- ----- -- -------- ---<br>------ ------- -------- --- ---- -- ------- ------------ --<br>------ -- ---- -- --- ---- -- -------- -- --- ------ ------,382590.1999999881,382589.6999999881,381488.151,381495.6999999881,381504.817,382604.8,,19,ingenuity.
screen,html.Screen,2_3_1_0_1_20,2022-04-27T12:59:42.841Z,,,,,,,,,,,,,,,,,12,,,,,,,,,,,,,,456.2999999940512,,response,,,,5,C,,,,,,Space,keypress(Space),,,,instrumental,,,,---- ------ ------ ------- ------ --- ------- -----------<br>-- ----- --- ---- -- --- ------ ---- - ---- -- ----------<br>He ------ ---- --- ---- --- --- --- ----- -- -------- ---<br>------ ------- -------- --- ---- -- ------- ------------ --<br>------ -- ---- -- --- ---- -- -------- -- --- ------ ------,383061.59999999404,383061.09999999404,382588.134,382590.3000000119,382604.8,383071.267,,20,He
screen,html.Screen,2_3_1_0_1_21,2022-04-27T12:59:43.277Z,,,,,,,,,,,,,,,,,12,,,,,,,,,,,,,,425.5330000119284,,response,,,,5,C,,,,,,Space,keypress(Space),,,,instrumental,,,,---- ------ ------ ------- ------ --- ------- -----------<br>-- ----- --- ---- -- --- ------ ---- - ---- -- ----------<br>-- walked ---- --- ---- --- --- --- ----- -- -------- ---<br>------ ------- -------- --- ---- -- ------- ------------ --<br>------ -- ---- -- --- ---- -- -------- -- --- ------ ------,383497.8000000119,383496.8000000119,383054.601,383061.6999999881,383071.267,383504.796,,21,walked
screen,html.Screen,2_3_1_0_1_22,2022-04-27T12:59:43.677Z,,,,,,,,,,,,,,,,,12,,,,,,,,,,,,,,391.9039999881061,,response,,,,5,C,,,,,,Space,keypress(Space),,,,instrumental,,,,---- ------ ------ ------- ------ --- ------- -----------<br>-- ----- --- ---- -- --- ------ ---- - ---- -- ----------<br>-- ------ into --- ---- --- --- --- ----- -- -------- ---<br>------ ------- -------- --- ---- -- ------- ------------ --<br>------ -- ---- -- --- ---- -- -------- -- --- ------ ------,383897.6999999881,383896.6999999881,383488.13,383498,383504.796,383904.413,,22,into
screen,html.Screen,2_3_1_0_1_23,2022-04-27T12:59:44.086Z,,,,,,,,,,,,,,,,,12,,,,,,,,,,,,,,401.2869999880786,,response,,,,5,C,,,,,,Space,keypress(Space),,,,instrumental,,,,---- ------ ------ ------- ------ --- ------- -----------<br>-- ----- --- ---- -- --- ------ ---- - ---- -- ----------<br>-- ------ ---- his ---- --- --- --- ----- -- -------- ---<br>------ ------- -------- --- ---- -- ------- ------------ --<br>------ -- ---- -- --- ---- -- -------- -- --- ------ ------,384306.3000000119,384305.6999999881,383887.747,383897.8000000119,383904.413,384321.002,,23,his
screen,html.Screen,2_3_1_0_1_24,2022-04-27T12:59:44.519Z,,,,,,,,,,,,,,,,,12,,,,,,,,,,,,,,417.79800001194235,,response,,,,5,C,,,,,,Space,keypress(Space),,,,instrumental,,,,---- ------ ------ ------- ------ --- ------- -----------<br>-- ----- --- ---- -- --- ------ ---- - ---- -- ----------<br>-- ------ ---- --- bank --- --- --- ----- -- -------- ---<br>------ ------- -------- --- ---- -- ------- ------------ --<br>------ -- ---- -- --- ---- -- -------- -- --- ------ ------,384739.3000000119,384738.8000000119,384304.336,384306.3000000119,384321.002,384754.289,,24,bank
screen,html.Screen,2_3_1_0_1_25,2022-04-27T12:59:44.945Z,,,,,,,,,,,,,,,,,12,,,,,,,,,,,,,,410.4109999880893,,response,,,,5,C,,,,,,Space,keypress(Space),,,,instrumental,,,,---- ------ ------ ------- ------ --- ------- -----------<br>-- ----- --- ---- -- --- ------ ---- - ---- -- ----------<br>-- ------ ---- --- ---- one --- --- ----- -- -------- ---<br>------ ------- -------- --- ---- -- ------- ------------ --<br>------ -- ---- -- --- ---- -- -------- -- --- ------ ------,385165.3000000119,385164.6999999881,384737.623,384739.40000000596,384754.289,385170.858,,25,one
screen,html.Screen,2_3_1_0_1_26,2022-04-27T12:59:45.329Z,,,,,,,,,,,,,,,,,12,,,,,,,,,,,,,,378.7419999940321,,response,,,,5,C,,,,,,Space,keypress(Space),,,,instrumental,,,,---- ------ ------ ------- ------ --- ------- -----------<br>-- ----- --- ---- -- --- ------ ---- - ---- -- ----------<br>-- ------ ---- --- ---- --- day --- ----- -- -------- ---<br>------ ------- -------- --- ---- -- ------- ------------ --<br>------ -- ---- -- --- ---- -- -------- -- --- ------ ------,385550.09999999404,385549.59999999404,385154.192,385165.3000000119,385170.858,385554.145,,26,day
screen,html.Screen,2_3_1_0_1_27,2022-04-27T12:59:45.708Z,,,,,,,,,,,,,,,,,12,,,,,,,,,,,,,,374.3549999999814,,response,,,,5,C,,,,,,Space,keypress(Space),,,,instrumental,,,,---- ------ ------ ------- ------ --- ------- -----------<br>-- ----- --- ---- -- --- ------ ---- - ---- -- ----------<br>-- ------ ---- --- ---- --- --- and ----- -- -------- ---<br>------ ------- -------- --- ---- -- ------- ------------ --<br>------ -- ---- -- --- ---- -- -------- -- --- ------ ------,385929.1999999881,385928.5,385537.479,385550.3000000119,385554.145,385937.514,,27,and
screen,html.Screen,2_3_1_0_1_28,2022-04-27T12:59:46.102Z,,,,,,,,,,,,,,,,,12,,,,,,,,,,,,,,384.9859999999753,,response,,,,5,C,,,,,,Space,keypress(Space),,,,instrumental,,,,---- ------ ------ ------- ------ --- ------- -----------<br>-- ----- --- ---- -- --- ------ ---- - ---- -- ----------<br>-- ------ ---- --- ---- --- --- --- asked -- -------- ---<br>------ ------- -------- --- ---- -- ------- ------------ --<br>------ -- ---- -- --- ---- -- -------- -- --- ------ ------,386323,386322.5,385920.848,385929.1999999881,385937.514,386337.379,,28,asked
screen,html.Screen,2_3_1_0_1_29,2022-04-27T12:59:46.480Z,,,,,,,,,,,,,,,,,12,,,,,,,,,,,,,,363.0210000059451,,response,,,,5,C,,,,,,Space,keypress(Space),,,,instrumental,,,,---- ------ ------ ------- ------ --- ------- -----------<br>-- ----- --- ---- -- --- ------ ---- - ---- -- ----------<br>-- ------ ---- --- ---- --- --- --- ----- to -------- ---<br>------ ------- -------- --- ---- -- ------- ------------ --<br>------ -- ---- -- --- ---- -- -------- -- --- ------ ------,386701,386700.40000000596,386320.713,386323.09999999404,386337.379,386703.968,,29,to
screen,html.Screen,2_3_1_0_1_30,2022-04-27T12:59:46.894Z,,,,,,,,,,,,,,,,,12,,,,,,,,,,,,,,410.432000005967,,response,,,,5,C,,,,,,Space,keypress(Space),,,,instrumental,,,,---- ------ ------ ------- ------ --- ------- -----------<br>-- ----- --- ---- -- --- ------ ---- - ---- -- ----------<br>-- ------ ---- --- ---- --- --- --- ----- -- withdraw ---<br>------ ------- -------- --- ---- -- ------- ------------ --<br>------ -- ---- -- --- ---- -- -------- -- --- ------ ------,387115.1999999881,387114.40000000596,386687.302,386701.09999999404,386703.968,387120.743,,30,withdraw
screen,html.Screen,2_3_1_0_1_31,2022-04-27T12:59:47.297Z,,,,,,,,,,,,,,,,,12,,,,,,,,,,,,,,396.55700001190417,,response,,,,5,C,,,,,,Space,keypress(Space),,,,instrumental,,,,---- ------ ------ ------- ------ --- ------- -----------<br>-- ----- --- ---- -- --- ------ ---- - ---- -- ----------<br>-- ------ ---- --- ---- --- --- --- ----- -- -------- his<br>------ ------- -------- --- ---- -- ------- ------------ --<br>------ -- ---- -- --- ---- -- -------- -- --- ------ ------,387518,387517.3000000119,387104.077,387115.3000000119,387120.743,387520.537,,31,his
screen,html.Screen,2_3_1_0_1_32,2022-04-27T12:59:47.738Z,,,,,,,,,,,,,,,,,12,,,,,,,,,,,,,,437.76300001190975,,response,,,,5,C,,,,,,Space,keypress(Space),,,,instrumental,,,,---- ------ ------ ------- ------ --- ------- -----------<br>-- ----- --- ---- -- --- ------ ---- - ---- -- ----------<br>-- ------ ---- --- ---- --- --- --- ----- -- -------- ---<br>entire ------- -------- --- ---- -- ------- ------------ --<br>------ -- ---- -- --- ---- -- -------- -- --- ------ ------,387959,387958.3000000119,387503.871,387518.09999999404,387520.537,387970.412,,32,entire
screen,html.Screen,2_3_1_0_1_33,2022-04-27T12:59:48.121Z,,,,,,,,,,,,,,,,,12,,,,,,,,,,,,,,370.88800001190975,,response,,,,5,C,,,,,,Space,keypress(Space),,,,instrumental,,,,---- ------ ------ ------- ------ --- ------- -----------<br>-- ----- --- ---- -- --- ------ ---- - ---- -- ----------<br>-- ------ ---- --- ---- --- --- --- ----- -- -------- ---<br>------ account -------- --- ---- -- ------- ------------ --<br>------ -- ---- -- --- ---- -- -------- -- --- ------ ------,388341.90000000596,388341.3000000119,387953.746,387959,387970.412,388353.722,,33,account
screen,html.Screen,2_3_1_0_1_34,2022-04-27T12:59:48.531Z,,,,,,,,,,,,,,,,,12,,,,,,,,,,,,,,397.6780000059516,,response,,,,5,C,,,,,,Space,keypress(Space),,,,instrumental,,,,"---- ------ ------ ------- ------ --- ------- -----------<br>-- ----- --- ---- -- --- ------ ---- - ---- -- ----------<br>-- ------ ---- --- ---- --- --- --- ----- -- -------- ---<br>------ ------- balance, --- ---- -- ------- ------------ --<br>------ -- ---- -- --- ---- -- -------- -- --- ------ ------",388752,388751.40000000596,388337.056,388342.09999999404,388353.722,388753.632,,34,"balance,"
screen,html.Screen,2_3_1_0_1_35,2022-04-27T12:59:48.938Z,,,,,,,,,,,,,,,,,12,,,,,,,,,,,,,,403.9679999940563,,response,,,,5,C,,,,,,Space,keypress(Space),,,,instrumental,,,,---- ------ ------ ------- ------ --- ------- -----------<br>-- ----- --- ---- -- --- ------ ---- - ---- -- ----------<br>-- ------ ---- --- ---- --- --- --- ----- -- -------- ---<br>------ ------- -------- but ---- -- ------- ------------ --<br>------ -- ---- -- --- ---- -- -------- -- --- ------ ------,389158.40000000596,389157.59999999404,388736.966,388752.1999999881,388753.632,389170.441,,35,but
screen,html.Screen,2_3_1_0_1_36,2022-04-27T12:59:49.363Z,,,,,,,,,,,,,,,,,12,,,,,,,,,,,,,,411.3590000119293,,response,,,,5,C,,,,,,Space,keypress(Space),,,,instrumental,,,,---- ------ ------ ------- ------ --- ------- -----------<br>-- ----- --- ---- -- --- ------ ---- - ---- -- ----------<br>-- ------ ---- --- ---- --- --- --- ----- -- -------- ---<br>------ ------- -------- --- with -- ------- ------------ --<br>------ -- ---- -- --- ---- -- -------- -- --- ------ ------,389584.09999999404,389581.8000000119,389153.775,389158.5,389170.441,389586.932,,36,with
screen,html.Screen,2_3_1_0_1_37,2022-04-27T12:59:49.768Z,,,,,,,,,,,,,,,,,12,,,,,,,,,,,,,,399.5680000000284,,response,,,,5,C,,,,,,Space,keypress(Space),,,,instrumental,,,,---- ------ ------ ------- ------ --- ------- -----------<br>-- ----- --- ---- -- --- ------ ---- - ---- -- ----------<br>-- ------ ---- --- ---- --- --- --- ----- -- -------- ---<br>------ ------- -------- --- ---- an ------- ------------ --<br>------ -- ---- -- --- ---- -- -------- -- --- ------ ------,389988.90000000596,389986.5,389570.266,389584.5,389586.932,390003.866,,37,an
screen,html.Screen,2_3_1_0_1_38,2022-04-27T12:59:50.194Z,,,,,,,,,,,,,,,,,12,,,,,,,,,,,,,,408.43400001194095,,response,,,,5,C,,,,,,Space,keypress(Space),,,,instrumental,,,,---- ------ ------ ------- ------ --- ------- -----------<br>-- ----- --- ---- -- --- ------ ---- - ---- -- ----------<br>-- ------ ---- --- ---- --- --- --- ----- -- -------- ---<br>------ ------- -------- --- ---- -- unusual ------------ --<br>------ -- ---- -- --- ---- -- -------- -- --- ------ ------,390414.5,390412.3000000119,389987.2,389989.3000000119,390003.866,390420.143,,38,unusual
screen,html.Screen,2_3_1_0_1_39,2022-04-27T12:59:50.672Z,,,,,,,,,,,,,,,,,12,,,,,,,,,,,,,,470.35700000001816,,response,,,,5,C,,,,,,Space,keypress(Space),,,,instrumental,,,,---- ------ ------ ------- ------ --- ------- -----------<br>-- ----- --- ---- -- --- ------ ---- - ---- -- ----------<br>-- ------ ---- --- ---- --- --- --- ----- -- -------- ---<br>------ ------- -------- --- ---- -- ------- stipulation: --<br>------ -- ---- -- --- ---- -- -------- -- --- ------ ------,390892.8000000119,390890.5,390403.477,390414.8000000119,390420.143,390903.419,,39,stipulation:
screen,html.Screen,2_3_1_0_1_40,2022-04-27T12:59:51.182Z,,,,,,,,,,,,,,,,,12,,,,,,,,,,,,,,497.0810000000056,,response,,,,5,C,,,,,,Space,keypress(Space),,,,instrumental,,,,---- ------ ------ ------- ------ --- ------- -----------<br>-- ----- --- ---- -- --- ------ ---- - ---- -- ----------<br>-- ------ ---- --- ---- --- --- --- ----- -- -------- ---<br>------ ------- -------- --- ---- -- ------- ------------ He<br>------ -- ---- -- --- ---- -- -------- -- --- ------ ------,391402.6999999881,391400.5,390886.753,390893.1999999881,390903.419,391419.982,,40,He
screen,html.Screen,2_3_1_0_1_41,2022-04-27T12:59:51.608Z,,,,,,,,,,,,,,,,,12,,,,,,,,,,,,,,405.9180000059423,,response,,,,5,C,,,,,,Space,keypress(Space),,,,instrumental,,,,---- ------ ------ ------- ------ --- ------- -----------<br>-- ----- --- ---- -- --- ------ ---- - ---- -- ----------<br>-- ------ ---- --- ---- --- --- --- ----- -- -------- ---<br>------ ------- -------- --- ---- -- ------- ------------ --<br>wanted -- ---- -- --- ---- -- -------- -- --- ------ ------,391828.59999999404,391825.90000000596,391403.316,391403.1999999881,391419.982,391836.583,,41,wanted
screen,html.Screen,2_3_1_0_1_42,2022-04-27T12:59:52.048Z,,,,,,,,,,,,,,,,,12,,,,,,,,,,,,,,429.51699999405537,,response,,,,5,C,,,,,,Space,keypress(Space),,,,instrumental,,,,---- ------ ------ ------- ------ --- ------- -----------<br>-- ----- --- ---- -- --- ------ ---- - ---- -- ----------<br>-- ------ ---- --- ---- --- --- --- ----- -- -------- ---<br>------ ------- -------- --- ---- -- ------- ------------ --<br>------ as ---- -- --- ---- -- -------- -- --- ------ ------,392268.6999999881,392266.09999999404,391819.917,391829.1999999881,391836.583,392286.531,,42,as
