sender,sender_type,sender_id,timestamp,meta,,Blues,Classical,Country,Dance,Electronic,Folk,Gospel,Hip-Hop,Jazz,Latin,Musical/Film,New-age,Pop,Prolific_id,Provo_ID,R&B,Rap,Reggae,Religious,Rock,Soul,Swing,Traditional,age,artist_name,correct,correctResponse,distraction,duration,education,ended_on,familiarity,gender,headphone_check_performance,item,list,music_frequency,offensiveness,pleasantness,position_correct,preference,response,response_action,snippet_file,song_name,song_rating,sound,stimulus_1,stimulus_2,stimulus_3,text,time_commit,time_end,time_render,time_run,time_show,time_switch,url,word,word_ID
Prolific ID,html.Form,0,2022-04-28T10:32:04.438Z,"{""labjs_version"":""20.2.2"",""labjs_build"":{""flavor"":""production"",""commit"":""a25486e0c714a0ae2ce03ff94b7bb6896854dcfa""},""location"":""https://run.pavlovia.org/mvasilev/prolific3_music_d/"",""userAgent"":""Mozilla/5.0 (Windows NT 10.0; Win64; x64) AppleWebKit/537.36 (KHTML, like Gecko) Chrome/100.0.4896.88 Safari/537.36"",""platform"":""Win32"",""language"":""en-GB"",""locale"":""en-US"",""timeZone"":""Europe/London"",""timezoneOffset"":-60,""screen_width"":1366,""screen_height"":768,""scroll_width"":1366,""scroll_height"":609,""window_innerWidth"":1366,""window_innerHeight"":657,""devicePixelRatio"":1}",,,,,,,,,,,,,,,5c98c51774cc7f0001e67c8c,,,,,,,,,,,,,,,15002.989000095367,,form submission,,,,,,,,,,,,,,,,,,,,,31809.100000023842,31808.400000095367,16772.087,16774.5,16805.411,31868.995,{},,
Introduction,html.Screen,1_0,2022-04-28T10:32:09.553Z,,,,,,,,,,,,,,,,,,,,,,,,,,,,,,,5051.205000047685,,response,,,,,,,,,,,continue,click button,,,,,,,,,36924,36920.200000047684,31802.347,31809.400000095367,31868.995,36922.966,,,
Volume calibration,html.Screen,1_1,2022-04-28T10:32:35.189Z,,,,,,,,,,,,,,,,,,,,,,,,,,,,,,,25630.834000071525,,response,,,,,,,,,,,continue,click button,,,,,,,,,62560.800000071526,62553.800000071526,36906.304,36924.200000047684,36922.966,62570.831,,,
Task instructions,html.Screen,1_2,2022-04-28T10:32:44.382Z,,,,,,,,,,,,,,,,,,,,,,,,,,,,,,,9181.869000047685,,response,,,,,,,,,,,continue,click button,,,,,,,,,71753.90000009537,71752.70000004768,62554.169,62561,62570.831,71754.419,,,
Sounds,html.Screen,1_3_0_0,2022-04-28T10:32:48.629Z,,,,,,,,,,,,,,,,,,,,,,,,,,,,,,,4254.321000000011,,timeout,,,,,,,,,2,,,,,,,,O,S,I,,76000.60000002384,75992.078,71737.757,71754.10000002384,71754.419,76008.74,,,
Judgement,html.Screen,1_3_0_1,2022-04-28T10:32:50.088Z,,,,,,,,,,,,,,,,,,,,,,,,,,,,true,2,,1449.4600000476785,,response,,,,,,,,,2,,2,click #choice-2,,,,,O,S,I,,77459.70000004768,77458.20000004768,75992.078,76000.90000009537,76008.74,77479.56,,,
Trial,flow.Sequence,1_3_0,2022-04-28T10:32:50.088Z,,,,,,,,,,,,,,,,,,,,,,,,,,,,,,,5703.781000047689,,completion,,,,,,,,,2,,,,,,,,O,S,I,,77460.10000002384,77458.20000004768,71737.757,71754.10000002384,71754.419,77479.56,,,
Sounds,html.Screen,1_3_1_0,2022-04-28T10:32:54.345Z,,,,,,,,,,,,,,,,,,,,,,,,,,,,,,,4247.644,,timeout,,,,,,,,,3,,,,,,,,O,I,S,,81717,81710.542,77462.963,77460.5,77479.56,81727.204,,,
Judgement,html.Screen,1_3_1_1,2022-04-28T10:32:55.756Z,,,,,,,,,,,,,,,,,,,,,,,,,,,,true,3,,1398.796000000002,,response,,,,,,,,,3,,3,click #choice-3,,,,,O,I,S,,83127.40000009537,83126,81710.542,81717.20000004768,81727.204,83132.757,,,
Trial,flow.Sequence,1_3_1,2022-04-28T10:32:55.756Z,,,,,,,,,,,,,,,,,,,,,,,,,,,,,,,5646.440000000002,,completion,,,,,,,,,3,,,,,,,,O,I,S,,83127.70000004768,83126,77462.963,77460.20000004768,77479.56,83132.757,,,
Sounds,html.Screen,1_3_2_0,2022-04-28T10:32:59.991Z,,,,,,,,,,,,,,,,,,,,,,,,,,,,,,,4242.649000000005,,timeout,,,,,,,,,3,,,,,,,,I,O,S,,87363.30000007153,87358.744,83116.095,83128,83132.757,87375.406,,,
Judgement,html.Screen,1_3_2_1,2022-04-28T10:33:00.783Z,,,,,,,,,,,,,,,,,,,,,,,,,,,,true,3,,778.4940000953648,,response,,,,,,,,,3,,3,click #choice-3,,,,,I,O,S,,88155.10000002384,88153.90000009537,87358.744,87363.5,87375.406,88169.319,,,
Trial,flow.Sequence,1_3_2,2022-04-28T10:33:00.784Z,,,,,,,,,,,,,,,,,,,,,,,,,,,,,,,5021.14300009537,,completion,,,,,,,,,3,,,,,,,,I,O,S,,88155.40000009537,88153.90000009537,83116.095,83127.90000009537,83132.757,88169.319,,,
Sounds,html.Screen,1_3_3_0,2022-04-28T10:33:05.040Z,,,,,,,,,,,,,,,,,,,,,,,,,,,,,,,4246.960999999996,,timeout,,,,,,,,,1,,,,,,,,S,O,I,,92412.20000004768,92399.618,88152.657,88155.60000002384,88169.319,92416.28,,,
Judgement,html.Screen,1_3_3_1,2022-04-28T10:33:05.861Z,,,,,,,,,,,,,,,,,,,,,,,,,,,,true,1,,815.5200000715267,,response,,,,,,,,,1,,1,click #choice-1,,,,,S,O,I,,93233.10000002384,93231.80000007153,92399.618,92412.60000002384,92416.28,93253.903,,,
Trial,flow.Sequence,1_3_3,2022-04-28T10:33:05.862Z,,,,,,,,,,,,,,,,,,,,,,,,,,,,,,,5062.481000071522,,completion,,,,,,,,,1,,,,,,,,S,O,I,,93233.40000009537,93231.80000007153,88152.657,88155.60000002384,88169.319,93253.903,,,
Sounds,html.Screen,1_3_4_0,2022-04-28T10:33:10.119Z,,,,,,,,,,,,,,,,,,,,,,,,,,,,,,,4247.254000000001,,timeout,,,,,,,,,2,,,,,,,,I,S,O,,97490.60000002384,97484.495,93237.326,93233.5,93253.903,97501.157,,,
Judgement,html.Screen,1_3_4_1,2022-04-28T10:33:10.891Z,,,,,,,,,,,,,,,,,,,,,,,,,,,,true,2,,759.9430000238353,,response,,,,,,,,,2,,2,click #choice-2,,,,,I,S,O,,98262.40000009537,98261.10000002384,97484.495,97490.80000007153,97501.157,98274.972,,,
Trial,flow.Sequence,1_3_4,2022-04-28T10:33:10.891Z,,,,,,,,,,,,,,,,,,,,,,,,,,,,,,,5007.197000023836,,completion,,,,,,,,,2,,,,,,,,I,S,O,,98262.70000004768,98261.10000002384,93237.326,93233.5,93253.903,98274.972,,,
Sounds,html.Screen,1_3_5_0,2022-04-28T10:33:15.152Z,,,,,,,,,,,,,,,,,,,,,,,,,,,,,,,4257.856,,timeout,,,,,,,,,1,,,,,,,,S,I,O,,102524,102516.166,98258.31,98262.90000009537,98274.972,102532.828,,,
Judgement,html.Screen,1_3_5_1,2022-04-28T10:33:16.944Z,,,,,,,,,,,,,,,,,,,,,,,,,,,,true,1,,1781.9720000715315,,response,,,,,,,,,1,,1,click #choice-1,,,,,S,I,O,,104316.30000007153,104314.80000007153,102516.166,102524.20000004768,102532.828,104324.352,,,
Trial,flow.Sequence,1_3_5,2022-04-28T10:33:16.945Z,,,,,,,,,,,,,,,,,,,,,,,,,,,,,,,6039.828000071531,,completion,,,,,,,,,1,,,,,,,,S,I,O,,104316.5,104314.80000007153,98258.31,98262.80000007153,98274.972,104324.352,,,
Task,flow.Loop,1_3,2022-04-28T10:33:16.954Z,,,,,,,,,,,,,,,,,,,,,,,,,,,,,,,32560.38100007153,,completion,,,1,,,,,,,,,,,,,,,,,,104325.90000009537,104314.80000007153,71737.757,71754,71754.419,104324.352,,,
Trap,html.Screen,1_4,2022-04-28T10:33:16.956Z,,,,,,,,,,,,,,,,,,,,,,,,,,,,,,,NaN,,skipped,,,,,,,,,,,,,,,,,,,,,104328.30000007153,104314.80000007153,,104327.90000009537,,104324.352,,,
Thanks,html.Screen,1_5,2022-04-28T10:33:21.024Z,,,,,,,,,,,,,,,,,,,,,,,,,,,,,,,4069.748000023843,,response,,,,,,,,,,,continue,click button,,,,,,,,,108395.30000007153,108394.10000002384,104307.69,104328.5,104324.352,112554.459,,,
Headphone screening,flow.Sequence,1,2022-04-28T10:33:21.024Z,,,,,,,,,,,,,,,,,,,,,,,,,,,,,,,76525.10500002385,,completion,,,,,,,,,,,,,,,,,,,,,108395.5,108394.10000002384,31802.347,31809.400000095367,31868.995,112554.459,,,
Instructions,html.Page,2_0,2022-04-28T10:33:46.924Z,,,,,,,,,,,,,,,,,,,,,,,,,,,,,,,21740.64100002384,,form submission,,,,,,,,,,,,,,,,,,,,,134295.70000004768,134295.10000002384,110757.054,112522.60000002384,112554.459,134294.859,,,
Holding screen,html.Screen,2_1_0_0,2022-04-28T10:33:56.901Z,,,,,,,,,,,,,,,,,,,,,,,,,,,,,,,10060.132000000012,,timeout,,,,,,,,,,,,,,,,,,,,,144272.80000007153,144271.681,134261.535,134296,134294.859,144354.991,,,
screen,html.Screen,2_1_0_1_0,2022-04-28T10:33:58.207Z,,,,,,,,,,,,,,,,,53,,,,,,,,,,,,,,1220.6090000238328,,response,,,,99,,,,,,,Space,keypress(Space),,,,,,,,When -- ----- -- ------ - ------- --- ----------<br>------------- ------ ------ ---- ---- ------- ----- -- ----<br>-------- ------- -- ---------- --- - --- ----- ----- ----<br>---- --- --- ----- --- ---- ---- ------- ----- ---- -------<br>--- --- -- ----- -- --- ---- -- --- ---- -- ------ ------<br>--- ----- -- ----,145578.90000009537,145575.60000002384,144271.681,144273.10000002384,144354.991,145596.879,,0,When
screen,html.Screen,2_1_0_1_1,2022-04-28T10:33:58.603Z,,,,,,,,,,,,,,,,,53,,,,,,,,,,,,,,376.62100000001374,,response,,,,99,,,,,,,Space,keypress(Space),,,,,,,,---- it ----- -- ------ - ------- --- ----------<br>------------- ------ ------ ---- ---- ------- ----- -- ----<br>-------- ------- -- ---------- --- - --- ----- ----- ----<br>---- --- --- ----- --- ---- ---- ------- ----- ---- -------<br>--- --- -- ----- -- --- ---- -- --- ---- -- ------ ------<br>--- ----- -- ----,145974.40000009537,145973.5,145580.242,145579.10000002384,145596.879,145979.304,,1,it
screen,html.Screen,2_1_0_1_2,2022-04-28T10:33:59.011Z,,,,,,,,,,,,,,,,,53,,,,,,,,,,,,,,402.1959999999963,,response,,,,99,,,,,,,Space,keypress(Space),,,,,,,,---- -- comes -- ------ - ------- --- ----------<br>------------- ------ ------ ---- ---- ------- ----- -- ----<br>-------- ------- -- ---------- --- - --- ----- ----- ----<br>---- --- --- ----- --- ---- ---- ------- ----- ---- -------<br>--- --- -- ----- -- --- ---- -- --- ---- -- ------ ------<br>--- ----- -- ----,146382.20000004768,146381.5,145962.642,145974.5,145979.304,146395.654,,2,comes
screen,html.Screen,2_1_0_1_3,2022-04-28T10:33:59.380Z,,,,,,,,,,,,,,,,,53,,,,,,,,,,,,,,354.9460000238323,,response,,,,99,,,,,,,Space,keypress(Space),,,,,,,,---- -- ----- to ------ - ------- --- ----------<br>------------- ------ ------ ---- ---- ------- ----- -- ----<br>-------- ------- -- ---------- --- - --- ----- ----- ----<br>---- --- --- ----- --- ---- ---- ------- ----- ---- -------<br>--- --- -- ----- -- --- ---- -- --- ---- -- ------ ------<br>--- ----- -- ----,146751.40000009537,146750.60000002384,146378.992,146383.5,146395.654,146761.167,,3,to
screen,html.Screen,2_1_0_1_4,2022-04-28T10:33:59.796Z,,,,,,,,,,,,,,,,,53,,,,,,,,,,,,,,405.533000047697,,response,,,,99,,,,,,,Space,keypress(Space),,,,,,,,---- -- ----- -- having - ------- --- ----------<br>------------- ------ ------ ---- ---- ------- ----- -- ----<br>-------- ------- -- ---------- --- - --- ----- ----- ----<br>---- --- --- ----- --- ---- ---- ------- ----- ---- -------<br>--- --- -- ----- -- --- ---- -- --- ---- -- ------ ------<br>--- ----- -- ----,147167.5,147166.70000004768,146744.505,146751.60000002384,146761.167,147176.842,,4,having
screen,html.Screen,2_1_0_1_5,2022-04-28T10:34:00.159Z,,,,,,,,,,,,,,,,,53,,,,,,,,,,,,,,352.6579999999958,,response,,,,99,,,,,,,Space,keypress(Space),,,,,,,,---- -- ----- -- ------ a ------- --- ----------<br>------------- ------ ------ ---- ---- ------- ----- -- ----<br>-------- ------- -- ---------- --- - --- ----- ----- ----<br>---- --- --- ----- --- ---- ---- ------- ----- ---- -------<br>--- --- -- ----- -- --- ---- -- --- ---- -- ------ ------<br>--- ----- -- ----,147530.30000007153,147529.5,147160.18,147167.70000004768,147176.842,147542.406,,5,a
screen,html.Screen,2_1_0_1_6,2022-04-28T10:34:00.487Z,,,,,,,,,,,,,,,,,53,,,,,,,,,,,,,,315.89400007153745,,response,,,,99,,,,,,,Space,keypress(Space),,,,,,,,---- -- ----- -- ------ - lasting --- ----------<br>------------- ------ ------ ---- ---- ------- ----- -- ----<br>-------- ------- -- ---------- --- - --- ----- ----- ----<br>---- --- --- ----- --- ---- ---- ------- ----- ---- -------<br>--- --- -- ----- -- --- ---- -- --- ---- -- ------ ------<br>--- ----- -- ----,147859.10000002384,147858.30000007153,147525.744,147530.5,147542.406,147874.777,,6,lasting
screen,html.Screen,2_1_0_1_7,2022-04-28T10:34:00.863Z,,,,,,,,,,,,,,,,,53,,,,,,,,,,,,,,358.62300009536557,,response,,,,99,,,,,,,Space,keypress(Space),,,,,,,,---- -- ----- -- ------ - ------- and ----------<br>------------- ------ ------ ---- ---- ------- ----- -- ----<br>-------- ------- -- ---------- --- - --- ----- ----- ----<br>---- --- --- ----- --- ---- ---- ------- ----- ---- -------<br>--- --- -- ----- -- --- ---- -- --- ---- -- ------ ------<br>--- ----- -- ----,148234.30000007153,148233.40000009537,147858.115,147859.30000007153,147874.777,148240.658,,7,and
screen,html.Screen,2_1_0_1_8,2022-04-28T10:34:01.304Z,,,,,,,,,,,,,,,,,53,,,,,,,,,,,,,,434.3420000000042,,response,,,,99,,,,,,,Space,keypress(Space),,,,,,,,---- -- ----- -- ------ - ------- --- fulfilling<br>------------- ------ ------ ---- ---- ------- ----- -- ----<br>-------- ------- -- ---------- --- - --- ----- ----- ----<br>---- --- --- ----- --- ---- ---- ------- ----- ---- -------<br>--- --- -- ----- -- --- ---- -- --- ---- -- ------ ------<br>--- ----- -- ----,148676,148675,148223.996,148234.40000009537,148240.658,148689.542,,8,fulfilling
screen,html.Screen,2_1_0_1_9,2022-04-28T10:34:01.741Z,,,,,,,,,,,,,,,,,53,,,,,,,,,,,,,,421.658000047697,,response,,,,99,,,,,,,Space,keypress(Space),,,,,,,,"---- -- ----- -- ------ - ------- --- ----------<br>relationship, ------ ------ ---- ---- ------- ----- -- ----<br>-------- ------- -- ---------- --- - --- ----- ----- ----<br>---- --- --- ----- --- ---- ---- ------- ----- ---- -------<br>--- --- -- ----- -- --- ---- -- --- ---- -- ------ ------<br>--- ----- -- ----",149112.20000004768,149111.20000004768,148672.88,148676.30000007153,148689.542,149121.621,,9,"relationship,"
screen,html.Screen,2_1_0_1_10,2022-04-28T10:34:02.176Z,,,,,,,,,,,,,,,,,53,,,,,,,,,,,,,,425.17900007151184,,response,,,,99,,,,,,,Space,keypress(Space),,,,,,,,---- -- ----- -- ------ - ------- --- ----------<br>------------- common ------ ---- ---- ------- ----- -- ----<br>-------- ------- -- ---------- --- - --- ----- ----- ----<br>---- --- --- ----- --- ---- ---- ------- ----- ---- -------<br>--- --- -- ----- -- --- ---- -- --- ---- -- ------ ------<br>--- ----- -- ----,149547.70000004768,149546.80000007153,149104.959,149112.40000009537,149121.621,149553.85,,10,common
screen,html.Screen,2_1_0_1_11,2022-04-28T10:34:02.626Z,,,,,,,,,,,,,,,,,53,,,,,,,,,,,,,,442.95000007151975,,response,,,,99,,,,,,,Space,keypress(Space),,,,,,,,---- -- ----- -- ------ - ------- --- ----------<br>------------- ------ wisdom ---- ---- ------- ----- -- ----<br>-------- ------- -- ---------- --- - --- ----- ----- ----<br>---- --- --- ----- --- ---- ---- ------- ----- ---- -------<br>--- --- -- ----- -- --- ---- -- --- ---- -- ------ ------<br>--- ----- -- ----,149997.60000002384,149996.80000007153,149537.188,149547.80000007153,149553.85,150002.679,,11,wisdom
screen,html.Screen,2_1_0_1_12,2022-04-28T10:34:03.107Z,,,,,,,,,,,,,,,,,53,,,,,,,,,,,,,,475.42100002383813,,response,,,,99,,,,,,,Space,keypress(Space),,,,,,,,---- -- ----- -- ------ - ------- --- ----------<br>------------- ------ ------ says ---- ------- ----- -- ----<br>-------- ------- -- ---------- --- - --- ----- ----- ----<br>---- --- --- ----- --- ---- ---- ------- ----- ---- -------<br>--- --- -- ----- -- --- ---- -- --- ---- -- ------ ------<br>--- ----- -- ----,150478.90000009537,150478.10000002384,149986.017,149997.80000007153,150002.679,150484.789,,12,says
screen,html.Screen,2_1_0_1_13,2022-04-28T10:34:03.589Z,,,,,,,,,,,,,,,,,53,,,,,,,,,,,,,,475.21100000001024,,response,,,,99,,,,,,,Space,keypress(Space),,,,,,,,---- -- ----- -- ------ - ------- --- ----------<br>------------- ------ ------ ---- that ------- ----- -- ----<br>-------- ------- -- ---------- --- - --- ----- ----- ----<br>---- --- --- ----- --- ---- ---- ------- ----- ---- -------<br>--- --- -- ----- -- --- ---- -- --- ---- -- ------ ------<br>--- ----- -- ----,150960.80000007153,150960,150468.127,150479.10000002384,150484.789,150966.845,,13,that
screen,html.Screen,2_1_0_1_14,2022-04-28T10:34:04.040Z,,,,,,,,,,,,,,,,,53,,,,,,,,,,,,,,444.05500009536627,,response,,,,99,,,,,,,Space,keypress(Space),,,,,,,,---- -- ----- -- ------ - ------- --- ----------<br>------------- ------ ------ ---- ---- feeling ----- -- ----<br>-------- ------- -- ---------- --- - --- ----- ----- ----<br>---- --- --- ----- --- ---- ---- ------- ----- ---- -------<br>--- --- -- ----- -- --- ---- -- --- ---- -- ------ ------<br>--- ----- -- ----,151411.70000004768,151410.90000009537,150950.183,150961,150966.845,151431.205,,14,feeling
screen,html.Screen,2_1_0_1_15,2022-04-28T10:34:04.429Z,,,,,,,,,,,,,,,,,53,,,,,,,,,,,,,,368.19500009538024,,response,,,,99,,,,,,,Space,keypress(Space),,,,,,,,---- -- ----- -- ------ - ------- --- ----------<br>------------- ------ ------ ---- ---- ------- close -- ----<br>-------- ------- -- ---------- --- - --- ----- ----- ----<br>---- --- --- ----- --- ---- ---- ------- ----- ---- -------<br>--- --- -- ----- -- --- ---- -- --- ---- -- ------ ------<br>--- ----- -- ----,151800.5,151799.40000009537,151414.535,151411.90000009537,151431.205,151830.144,,15,close
screen,html.Screen,2_1_0_1_16,2022-04-28T10:34:04.772Z,,,,,,,,,,,,,,,,,53,,,,,,,,,,,,,,312.5560000476835,,response,,,,99,,,,,,,Space,keypress(Space),,,,,,,,---- -- ----- -- ------ - ------- --- ----------<br>------------- ------ ------ ---- ---- ------- ----- to ----<br>-------- ------- -- ---------- --- - --- ----- ----- ----<br>---- --- --- ----- --- ---- ---- ------- ----- ---- -------<br>--- --- -- ----- -- --- ---- -- --- ---- -- ------ ------<br>--- ----- -- ----,152143.60000002384,152142.70000004768,151813.52,151800.70000004768,151830.144,152162.609,,16,to
screen,html.Screen,2_1_0_1_17,2022-04-28T10:34:05.221Z,,,,,,,,,,,,,,,,,53,,,,,,,,,,,,,,429.2910000953707,,response,,,,99,,,,,,,Space,keypress(Space),,,,,,,,---- -- ----- -- ------ - ------- --- ----------<br>------------- ------ ------ ---- ---- ------- ----- -- your<br>-------- ------- -- ---------- --- - --- ----- ----- ----<br>---- --- --- ----- --- ---- ---- ------- ----- ---- -------<br>--- --- -- ----- -- --- ---- -- --- ---- -- ------ ------<br>--- ----- -- ----,152592.70000004768,152591.90000009537,152145.972,152143.70000004768,152162.609,152611.41,,17,your
screen,html.Screen,2_1_0_1_18,2022-04-28T10:34:05.641Z,,,,,,,,,,,,,,,,,53,,,,,,,,,,,,,,400.5899999999965,,response,,,,99,,,,,,,Space,keypress(Space),,,,,,,,---- -- ----- -- ------ - ------- --- ----------<br>------------- ------ ------ ---- ---- ------- ----- -- ----<br>romantic ------- -- ---------- --- - --- ----- ----- ----<br>---- --- --- ----- --- ---- ---- ------- ----- ---- -------<br>--- --- -- ----- -- --- ---- -- --- ---- -- ------ ------<br>--- ----- -- ----,153012.80000007153,153012,152594.744,152592.80000007153,152611.41,153027.151,,18,romantic
screen,html.Screen,2_1_0_1_19,2022-04-28T10:34:06.052Z,,,,,,,,,,,,,,,,,53,,,,,,,,,,,,,,395.4490000238293,,response,,,,99,,,,,,,Space,keypress(Space),,,,,,,,---- -- ----- -- ------ - ------- --- ----------<br>------------- ------ ------ ---- ---- ------- ----- -- ----<br>-------- partner -- ---------- --- - --- ----- ----- ----<br>---- --- --- ----- --- ---- ---- ------- ----- ---- -------<br>--- --- -- ----- -- --- ---- -- --- ---- -- ------ ------<br>--- ----- -- ----,153423.60000002384,153422.60000002384,153010.489,153012.90000009537,153027.151,153426.965,,19,partner
screen,html.Screen,2_1_0_1_20,2022-04-28T10:34:06.448Z,,,,,,,,,,,,,,,,,53,,,,,,,,,,,,,,392.0350000000035,,response,,,,99,,,,,,,Space,keypress(Space),,,,,,,,---- -- ----- -- ------ - ------- --- ----------<br>------------- ------ ------ ---- ---- ------- ----- -- ----<br>-------- ------- is ---------- --- - --- ----- ----- ----<br>---- --- --- ----- --- ---- ---- ------- ----- ---- -------<br>--- --- -- ----- -- --- ---- -- --- ---- -- ------ ------<br>--- ----- -- ----,153819.80000007153,153819,153410.303,153423.70000004768,153426.965,153825.633,,20,is
screen,html.Screen,2_1_0_1_21,2022-04-28T10:34:06.861Z,,,,,,,,,,,,,,,,,53,,,,,,,,,,,,,,406.4670000238402,,response,,,,99,,,,,,,Space,keypress(Space),,,,,,,,---- -- ----- -- ------ - ------- --- ----------<br>------------- ------ ------ ---- ---- ------- ----- -- ----<br>-------- ------- -- paramount. --- - --- ----- ----- ----<br>---- --- --- ----- --- ---- ---- ------- ----- ---- -------<br>--- --- -- ----- -- --- ---- -- --- ---- -- ------ ------<br>--- ----- -- ----,154232.80000007153,154232.10000002384,153808.971,153819.90000009537,153825.633,154241.25,,21,paramount.
screen,html.Screen,2_1_0_1_22,2022-04-28T10:34:07.314Z,,,,,,,,,,,,,,,,,53,,,,,,,,,,,,,,443.5500000715256,,response,,,,99,,,,,,,Space,keypress(Space),,,,,,,,---- -- ----- -- ------ - ------- --- ----------<br>------------- ------ ------ ---- ---- ------- ----- -- ----<br>-------- ------- -- ---------- But - --- ----- ----- ----<br>---- --- --- ----- --- ---- ---- ------- ----- ---- -------<br>--- --- -- ----- -- --- ---- -- --- ---- -- ------ ------<br>--- ----- -- ----,154685.80000007153,154684.80000007153,154224.588,154233,154241.25,154690.099,,22,But
screen,html.Screen,2_1_0_1_23,2022-04-28T10:34:07.678Z,,,,,,,,,,,,,,,,,53,,,,,,,,,,,,,,358.4010000000126,,response,,,,99,,,,,,,Space,keypress(Space),,,,,,,,---- -- ----- -- ------ - ------- --- ----------<br>------------- ------ ------ ---- ---- ------- ----- -- ----<br>-------- ------- -- ---------- --- a --- ----- ----- ----<br>---- --- --- ----- --- ---- ---- ------- ----- ---- -------<br>--- --- -- ----- -- --- ---- -- --- ---- -- ------ ------<br>--- ----- -- ----,155049.30000007153,155048.5,154673.437,154686,154690.099,155055.564,,23,a
screen,html.Screen,2_1_0_1_24,2022-04-28T10:34:08.079Z,,,,,,,,,,,,,,,,,53,,,,,,,,,,,,,,394.5360000238288,,response,,,,99,,,,,,,Space,keypress(Space),,,,,,,,---- -- ----- -- ------ - ------- --- ----------<br>------------- ------ ------ ---- ---- ------- ----- -- ----<br>-------- ------- -- ---------- --- - new ----- ----- ----<br>---- --- --- ----- --- ---- ---- ------- ----- ---- -------<br>--- --- -- ----- -- --- ---- -- --- ---- -- ------ ------<br>--- ----- -- ----,155450.80000007153,155450.10000002384,155038.902,155049.5,155055.564,155454.634,,24,new
screen,html.Screen,2_1_0_1_25,2022-04-28T10:34:08.446Z,,,,,,,,,,,,,,,,,53,,,,,,,,,,,,,,361.66600007153465,,response,,,,99,,,,,,,Space,keypress(Space),,,,,,,,---- -- ----- -- ------ - ------- --- ----------<br>------------- ------ ------ ---- ---- ------- ----- -- ----<br>-------- ------- -- ---------- --- - --- study ----- ----<br>---- --- --- ----- --- ---- ---- ------- ----- ---- -------<br>--- --- -- ----- -- --- ---- -- --- ---- -- ------ ------<br>--- ----- -- ----,155817.30000007153,155816.30000007153,155437.972,155451,155454.634,155820.209,,25,study
screen,html.Screen,2_1_0_1_26,2022-04-28T10:34:08.799Z,,,,,,,,,,,,,,,,,53,,,,,,,,,,,,,,349.091000071523,,response,,,,99,,,,,,,Space,keypress(Space),,,,,,,,---- -- ----- -- ------ - ------- --- ----------<br>------------- ------ ------ ---- ---- ------- ----- -- ----<br>-------- ------- -- ---------- --- - --- ----- finds ----<br>---- --- --- ----- --- ---- ---- ------- ----- ---- -------<br>--- --- -- ----- -- --- ---- -- --- ---- -- ------ ------<br>--- ----- -- ----,156170.20000004768,156169.30000007153,155803.547,155817.60000002384,155820.209,156185.94,,26,finds
screen,html.Screen,2_1_0_1_27,2022-04-28T10:34:09.166Z,,,,,,,,,,,,,,,,,53,,,,,,,,,,,,,,350.66000002383953,,response,,,,99,,,,,,,Space,keypress(Space),,,,,,,,---- -- ----- -- ------ - ------- --- ----------<br>------------- ------ ------ ---- ---- ------- ----- -- ----<br>-------- ------- -- ---------- --- - --- ----- ----- that<br>---- --- --- ----- --- ---- ---- ------- ----- ---- -------<br>--- --- -- ----- -- --- ---- -- --- ---- -- ------ ------<br>--- ----- -- ----,156537.5,156536.60000002384,156169.278,156170.40000009537,156185.94,156552.399,,27,that
screen,html.Screen,2_1_0_1_28,2022-04-28T10:34:09.524Z,,,,,,,,,,,,,,,,,53,,,,,,,,,,,,,,342.8010000476788,,response,,,,99,,,,,,,Space,keypress(Space),,,,,,,,---- -- ----- -- ------ - ------- --- ----------<br>------------- ------ ------ ---- ---- ------- ----- -- ----<br>-------- ------- -- ---------- --- - --- ----- ----- ----<br>it's --- --- ----- --- ---- ---- ------- ----- ---- -------<br>--- --- -- ----- -- --- ---- -- --- ---- -- ------ ------<br>--- ----- -- ----,156896,156895.20000004768,156535.737,156537.70000004768,156552.399,156900.583,,28,it's
screen,html.Screen,2_1_0_1_29,2022-04-28T10:34:09.865Z,,,,,,,,,,,,,,,,,53,,,,,,,,,,,,,,335.41699999998673,,response,,,,99,,,,,,,Space,keypress(Space),,,,,,,,---- -- ----- -- ------ - ------- --- ----------<br>------------- ------ ------ ---- ---- ------- ----- -- ----<br>-------- ------- -- ---------- --- - --- ----- ----- ----<br>---- not --- ----- --- ---- ---- ------- ----- ---- -------<br>--- --- -- ----- -- --- ---- -- --- ---- -- ------ ------<br>--- ----- -- ----,157237.20000004768,157236,156883.921,156896.20000004768,156900.583,157249.647,,29,not
screen,html.Screen,2_1_0_1_30,2022-04-28T10:34:10.249Z,,,,,,,,,,,,,,,,,53,,,,,,,,,,,,,,369.8530000000028,,response,,,,99,,,,,,,Space,keypress(Space),,,,,,,,---- -- ----- -- ------ - ------- --- ----------<br>------------- ------ ------ ---- ---- ------- ----- -- ----<br>-------- ------- -- ---------- --- - --- ----- ----- ----<br>---- --- how ----- --- ---- ---- ------- ----- ---- -------<br>--- --- -- ----- -- --- ---- -- --- ---- -- ------ ------<br>--- ----- -- ----,157620.30000007153,157619.5,157232.985,157237.30000007153,157249.647,157632.091,,30,how
screen,html.Screen,2_1_0_1_31,2022-04-28T10:34:10.696Z,,,,,,,,,,,,,,,,,53,,,,,,,,,,,,,,434.80900009538163,,response,,,,99,,,,,,,Space,keypress(Space),,,,,,,,---- -- ----- -- ------ - ------- --- ----------<br>------------- ------ ------ ---- ---- ------- ----- -- ----<br>-------- ------- -- ---------- --- - --- ----- ----- ----<br>---- --- --- close --- ---- ---- ------- ----- ---- -------<br>--- --- -- ----- -- --- ---- -- --- ---- -- ------ ------<br>--- ----- -- ----,158068.10000002384,158066.90000009537,157615.429,157620.5,157632.091,158081,,31,close
screen,html.Screen,2_1_0_1_32,2022-04-28T10:34:11.055Z,,,,,,,,,,,,,,,,,53,,,,,,,,,,,,,,345,,response,,,,99,,,,,,,Space,keypress(Space),,,,,,,,---- -- ----- -- ------ - ------- --- ----------<br>------------- ------ ------ ---- ---- ------- ----- -- ----<br>-------- ------- -- ---------- --- - --- ----- ----- ----<br>---- --- --- ----- you ---- ---- ------- ----- ---- -------<br>--- --- -- ----- -- --- ---- -- --- ---- -- ------ ------<br>--- ----- -- ----,158426.70000004768,158426,158064.338,158068.20000004768,158081,158429.81,,32,you
screen,html.Screen,2_1_0_1_33,2022-04-28T10:34:11.410Z,,,,,,,,,,,,,,,,,53,,,,,,,,,,,,,,350.7900000238442,,response,,,,99,,,,,,,Space,keypress(Space),,,,,,,,---- -- ----- -- ------ - ------- --- ----------<br>------------- ------ ------ ---- ---- ------- ----- -- ----<br>-------- ------- -- ---------- --- - --- ----- ----- ----<br>---- --- --- ----- --- feel ---- ------- ----- ---- -------<br>--- --- -- ----- -- --- ---- -- --- ---- -- ------ ------<br>--- ----- -- ----,158781.5,158780.60000002384,158413.148,158426.80000007153,158429.81,158795.564,,33,feel
screen,html.Screen,2_1_0_1_34,2022-04-28T10:34:11.790Z,,,,,,,,,,,,,,,,,53,,,,,,,,,,,,,,365.23600007151254,,response,,,,99,,,,,,,Space,keypress(Space),,,,,,,,---- -- ----- -- ------ - ------- --- ----------<br>------------- ------ ------ ---- ---- ------- ----- -- ----<br>-------- ------- -- ---------- --- - --- ----- ----- ----<br>---- --- --- ----- --- ---- that ------- ----- ---- -------<br>--- --- -- ----- -- --- ---- -- --- ---- -- ------ ------<br>--- ----- -- ----,159161.5,159160.80000007153,158778.902,158781.60000002384,158795.564,159178.742,,34,that
screen,html.Screen,2_1_0_1_35,2022-04-28T10:34:12.238Z,,,,,,,,,,,,,,,,,53,,,,,,,,,,,,,,429.8580000238435,,response,,,,99,,,,,,,Space,keypress(Space),,,,,,,,---- -- ----- -- ------ - ------- --- ----------<br>------------- ------ ------ ---- ---- ------- ----- -- ----<br>-------- ------- -- ---------- --- - --- ----- ----- ----<br>---- --- --- ----- --- ---- ---- matters ----- ---- -------<br>--- --- -- ----- -- --- ---- -- --- ---- -- ------ ------<br>--- ----- -- ----,159609.40000009537,159608.60000002384,159162.08,159161.70000004768,159178.742,159610.231,,35,matters
screen,html.Screen,2_1_0_1_36,2022-04-28T10:34:12.644Z,,,,,,,,,,,,,,,,,53,,,,,,,,,,,,,,404.26900000000023,,response,,,,99,,,,,,,Space,keypress(Space),,,,,,,,"---- -- ----- -- ------ - ------- --- ----------<br>------------- ------ ------ ---- ---- ------- ----- -- ----<br>-------- ------- -- ---------- --- - --- ----- ----- ----<br>---- --- --- ----- --- ---- ---- ------- most, ---- -------<br>--- --- -- ----- -- --- ---- -- --- ---- -- ------ ------<br>--- ----- -- ----",160015.40000009537,160014.5,159593.569,159609.5,159610.231,160025.701,,36,"most,"
screen,html.Screen,2_1_0_1_37,2022-04-28T10:34:13.150Z,,,,,,,,,,,,,,,,,53,,,,,,,,,,,,,,494.9990000476828,,response,,,,99,,,,,,,Space,keypress(Space),,,,,,,,---- -- ----- -- ------ - ------- --- ----------<br>------------- ------ ------ ---- ---- ------- ----- -- ----<br>-------- ------- -- ---------- --- - --- ----- ----- ----<br>---- --- --- ----- --- ---- ---- ------- ----- it's -------<br>--- --- -- ----- -- --- ---- -- --- ---- -- ------ ------<br>--- ----- -- ----,160521.5,160520.70000004768,160009.039,160015.5,160025.701,160524.539,,37,it's
screen,html.Screen,2_1_0_1_38,2022-04-28T10:34:13.716Z,,,,,,,,,,,,,,,,,53,,,,,,,,,,,,,,562.2610000715358,,response,,,,99,,,,,,,Space,keypress(Space),,,,,,,,---- -- ----- -- ------ - ------- --- ----------<br>------------- ------ ------ ---- ---- ------- ----- -- ----<br>-------- ------- -- ---------- --- - --- ----- ----- ----<br>---- --- --- ----- --- ---- ---- ------- ----- ---- whether<br>--- --- -- ----- -- --- ---- -- --- ---- -- ------ ------<br>--- ----- -- ----,161087.60000002384,161086.80000007153,160507.877,160521.70000004768,160524.539,161089.878,,38,whether
screen,html.Screen,2_1_0_1_39,2022-04-28T10:34:14.126Z,,,,,,,,,,,,,,,,,53,,,,,,,,,,,,,,407.32200004768674,,response,,,,99,,,,,,,Space,keypress(Space),,,,,,,,---- -- ----- -- ------ - ------- --- ----------<br>------------- ------ ------ ---- ---- ------- ----- -- ----<br>-------- ------- -- ---------- --- - --- ----- ----- ----<br>---- --- --- ----- --- ---- ---- ------- ----- ---- -------<br>you --- -- ----- -- --- ---- -- --- ---- -- ------ ------<br>--- ----- -- ----,161498.10000002384,161497.20000004768,161073.216,161087.70000004768,161089.878,161505.041,,39,you
screen,html.Screen,2_1_0_1_40,2022-04-28T10:34:14.354Z,,,,,,,,,,,,,,,,,53,,,,,,,,,,,,,,220.15900004768628,,response,,,,99,,,,,,,Space,keypress(Space),,,,,,,,---- -- ----- -- ------ - ------- --- ----------<br>------------- ------ ------ ---- ---- ------- ----- -- ----<br>-------- ------- -- ---------- --- - --- ----- ----- ----<br>---- --- --- ----- --- ---- ---- ------- ----- ---- -------<br>--- are -- ----- -- --- ---- -- --- ---- -- ------ ------<br>--- ----- -- ----,161726,161725.20000004768,161488.379,161498.20000004768,161505.041,161737.37,,40,are
screen,html.Screen,2_1_0_1_41,2022-04-28T10:34:14.851Z,,,,,,,,,,,,,,,,,53,,,,,,,,,,,,,,484.13000000000466,,response,,,,99,,,,,,,Space,keypress(Space),,,,,,,,---- -- ----- -- ------ - ------- --- ----------<br>------------- ------ ------ ---- ---- ------- ----- -- ----<br>-------- ------- -- ---------- --- - --- ----- ----- ----<br>---- --- --- ----- --- ---- ---- ------- ----- ---- -------<br>--- --- as ----- -- --- ---- -- --- ---- -- ------ ------<br>--- ----- -- ----,162222.30000007153,162221.5,161720.708,161726.10000002384,161737.37,162236.642,,41,as
screen,html.Screen,2_1_0_1_42,2022-04-28T10:34:15.238Z,,,,,,,,,,,,,,,,,53,,,,,,,,,,,,,,372.7580000953749,,response,,,,99,,,,,,,Space,keypress(Space),,,,,,,,---- -- ----- -- ------ - ------- --- ----------<br>------------- ------ ------ ---- ---- ------- ----- -- ----<br>-------- ------- -- ---------- --- - --- ----- ----- ----<br>---- --- --- ----- --- ---- ---- ------- ----- ---- -------<br>--- --- -- close -- --- ---- -- --- ---- -- ------ ------<br>--- ----- -- ----,162610.20000004768,162609.40000009537,162219.98,162222.40000009537,162236.642,162619.334,,42,close
screen,html.Screen,2_1_0_1_43,2022-04-28T10:34:15.575Z,,,,,,,,,,,,,,,,,53,,,,,,,,,,,,,,326.86600004768115,,response,,,,99,,,,,,,Space,keypress(Space),,,,,,,,---- -- ----- -- ------ - ------- --- ----------<br>------------- ------ ------ ---- ---- ------- ----- -- ----<br>-------- ------- -- ---------- --- - --- ----- ----- ----<br>---- --- --- ----- --- ---- ---- ------- ----- ---- -------<br>--- --- -- ----- as --- ---- -- --- ---- -- ------ ------<br>--- ----- -- ----,162947,162946.20000004768,162602.672,162610.30000007153,162619.334,162950.991,,43,as
screen,html.Screen,2_1_0_1_44,2022-04-28T10:34:16.004Z,,,,,,,,,,,,,,,,,53,,,,,,,,,,,,,,423.70900004767464,,response,,,,99,,,,,,,Space,keypress(Space),,,,,,,,---- -- ----- -- ------ - ------- --- ----------<br>------------- ------ ------ ---- ---- ------- ----- -- ----<br>-------- ------- -- ---------- --- - --- ----- ----- ----<br>---- --- --- ----- --- ---- ---- ------- ----- ---- -------<br>--- --- -- ----- -- you ---- -- --- ---- -- ------ ------<br>--- ----- -- ----,163375.5,163374.70000004768,162934.329,162947.20000004768,162950.991,163383.436,,44,you
screen,html.Screen,2_1_0_1_45,2022-04-28T10:34:16.426Z,,,,,,,,,,,,,,,,,53,,,,,,,,,,,,,,413.76400004769675,,response,,,,99,,,,,,,Space,keypress(Space),,,,,,,,---- -- ----- -- ------ - ------- --- ----------<br>------------- ------ ------ ---- ---- ------- ----- -- ----<br>-------- ------- -- ---------- --- - --- ----- ----- ----<br>---- --- --- ----- --- ---- ---- ------- ----- ---- -------<br>--- --- -- ----- -- --- want -- --- ---- -- ------ ------<br>--- ----- -- ----,163797.90000009537,163797.20000004768,163366.774,163375.70000004768,163383.436,163798.934,,45,want
screen,html.Screen,2_1_0_1_46,2022-04-28T10:34:16.851Z,,,,,,,,,,,,,,,,,53,,,,,,,,,,,,,,423.26600004767533,,response,,,,99,,,,,,,Space,keypress(Space),,,,,,,,---- -- ----- -- ------ - ------- --- ----------<br>------------- ------ ------ ---- ---- ------- ----- -- ----<br>-------- ------- -- ---------- --- - --- ----- ----- ----<br>---- --- --- ----- --- ---- ---- ------- ----- ---- -------<br>--- --- -- ----- -- --- ---- to --- ---- -- ------ ------<br>--- ----- -- ----,164223,164222.20000004768,163782.272,163798.10000002384,163798.934,164231.172,,46,to
screen,html.Screen,2_1_0_1_47,2022-04-28T10:34:17.287Z,,,,,,,,,,,,,,,,,53,,,,,,,,,,,,,,426.4280000238505,,response,,,,99,,,,,,,Space,keypress(Space),,,,,,,,"---- -- ----- -- ------ - ------- --- ----------<br>------------- ------ ------ ---- ---- ------- ----- -- ----<br>-------- ------- -- ---------- --- - --- ----- ----- ----<br>---- --- --- ----- --- ---- ---- ------- ----- ---- -------<br>--- --- -- ----- -- --- ---- -- be, ---- -- ------ ------<br>--- ----- -- ----",164658.30000007153,164657.60000002384,164214.51,164223.10000002384,164231.172,164663.321,,47,"be,"
screen,html.Screen,2_1_0_1_48,2022-04-28T10:34:17.678Z,,,,,,,,,,,,,,,,,53,,,,,,,,,,,,,,385.2790000238456,,response,,,,99,,,,,,,Space,keypress(Space),,,,,,,,---- -- ----- -- ------ - ------- --- ----------<br>------------- ------ ------ ---- ---- ------- ----- -- ----<br>-------- ------- -- ---------- --- - --- ----- ----- ----<br>---- --- --- ----- --- ---- ---- ------- ----- ---- -------<br>--- --- -- ----- -- --- ---- -- --- even -- ------ ------<br>--- ----- -- ----,165049.5,165048.60000002384,164646.659,164658.40000009537,164663.321,165062.136,,48,even
screen,html.Screen,2_1_0_1_49,2022-04-28T10:34:18.065Z,,,,,,,,,,,,,,,,,53,,,,,,,,,,,,,,373.8640000000014,,response,,,,99,,,,,,,Space,keypress(Space),,,,,,,,---- -- ----- -- ------ - ------- --- ----------<br>------------- ------ ------ ---- ---- ------- ----- -- ----<br>-------- ------- -- ---------- --- - --- ----- ----- ----<br>---- --- --- ----- --- ---- ---- ------- ----- ---- -------<br>--- --- -- ----- -- --- ---- -- --- ---- if ------ ------<br>--- ----- -- ----,165436.90000009537,165436,165045.474,165049.60000002384,165062.136,165444.447,,49,if
screen,html.Screen,2_1_0_1_50,2022-04-28T10:34:18.468Z,,,,,,,,,,,,,,,,,53,,,,,,,,,,,,,,394.35300007154,,response,,,,99,,,,,,,Space,keypress(Space),,,,,,,,---- -- ----- -- ------ - ------- --- ----------<br>------------- ------ ------ ---- ---- ------- ----- -- ----<br>-------- ------- -- ---------- --- - --- ----- ----- ----<br>---- --- --- ----- --- ---- ---- ------- ----- ---- -------<br>--- --- -- ----- -- --- ---- -- --- ---- -- that's ------<br>--- ----- -- ----,165839.60000002384,165838.80000007153,165427.785,165437,165444.447,165843.333,,50,that's
screen,html.Screen,2_1_0_1_51,2022-04-28T10:34:18.876Z,,,,,,,,,,,,,,,,,53,,,,,,,,,,,,,,403.36700004767044,,response,,,,99,,,,,,,Space,keypress(Space),,,,,,,,---- -- ----- -- ------ - ------- --- ----------<br>------------- ------ ------ ---- ---- ------- ----- -- ----<br>-------- ------- -- ---------- --- - --- ----- ----- ----<br>---- --- --- ----- --- ---- ---- ------- ----- ---- -------<br>--- --- -- ----- -- --- ---- -- --- ---- -- ------ really<br>--- ----- -- ----,166247.60000002384,166246.70000004768,165826.671,165839.70000004768,165843.333,166258.999,,51,really
screen,html.Screen,2_1_0_1_52,2022-04-28T10:34:19.249Z,,,,,,,,,,,,,,,,,53,,,,,,,,,,,,,,360.5009999999893,,response,,,,99,,,,,,,Space,keypress(Space),,,,,,,,---- -- ----- -- ------ - ------- --- ----------<br>------------- ------ ------ ---- ---- ------- ----- -- ----<br>-------- ------- -- ---------- --- - --- ----- ----- ----<br>---- --- --- ----- --- ---- ---- ------- ----- ---- -------<br>--- --- -- ----- -- --- ---- -- --- ---- -- ------ ------<br>not ----- -- ----,166620.20000004768,166619.5,166242.337,166247.90000009537,166258.999,166624.591,,52,not
screen,html.Screen,2_1_0_1_53,2022-04-28T10:34:19.627Z,,,,,,,,,,,,,,,,,53,,,,,,,,,,,,,,373.1090000476979,,response,,,,99,,,,,,,Space,keypress(Space),,,,,,,,---- -- ----- -- ------ - ------- --- ----------<br>------------- ------ ------ ---- ---- ------- ----- -- ----<br>-------- ------- -- ---------- --- - --- ----- ----- ----<br>---- --- --- ----- --- ---- ---- ------- ----- ---- -------<br>--- --- -- ----- -- --- ---- -- --- ---- -- ------ ------<br>--- close -- ----,166998.5,166997.70000004768,166607.929,166620.40000009537,166624.591,167006.923,,53,close
screen,html.Screen,2_1_0_1_54,2022-04-28T10:34:20.058Z,,,,,,,,,,,,,,,,,53,,,,,,,,,,,,,,422.1770000238321,,response,,,,99,,,,,,,Space,keypress(Space),,,,,,,,---- -- ----- -- ------ - ------- --- ----------<br>------------- ------ ------ ---- ---- ------- ----- -- ----<br>-------- ------- -- ---------- --- - --- ----- ----- ----<br>---- --- --- ----- --- ---- ---- ------- ----- ---- -------<br>--- --- -- ----- -- --- ---- -- --- ---- -- ------ ------<br>--- ----- at ----,167430,167429.10000002384,166990.261,166998.5,167006.923,167439.186,,54,at
screen,html.Screen,2_1_0_1_55,2022-04-28T10:34:20.674Z,,,,,,,,,,,,,,,,,53,,,,,,,,,,,,,,606.0140000476968,,response,,,,99,,,,,,,Space,keypress(Space),,,,,,,,---- -- ----- -- ------ - ------- --- ----------<br>------------- ------ ------ ---- ---- ------- ----- -- ----<br>-------- ------- -- ---------- --- - --- ----- ----- ----<br>---- --- --- ----- --- ---- ---- ------- ----- ---- -------<br>--- --- -- ----- -- --- ---- -- --- ---- -- ------ ------<br>--- ----- -- all.,168045.90000009537,168045.20000004768,167422.524,167430.20000004768,167439.186,168054.61,,55,all.
Item 99,flow.Loop,2_1_0_1,2022-04-28T10:34:20.675Z,,,,,,,,,,,,,,,,,,,,,,,,,,,,,,,23690.209000047675,,completion,,,,,D,,,,,,,,,,,silence,,,,,168046.30000007153,168045.20000004768,144271.681,144273,144354.991,168054.61,,,
Question 1,html.Screen,2_1_0_2,2022-04-28T10:34:28.706Z,,,,,,,,,,,,,,,,,,,,,,,,,,,,false,FALSE,,8022.1900000715395,,response,,,,99,D,,,,,,TRUE,click #choice-1,,,,silence,,,,,176077.80000007153,176076.80000007153,168037.948,168046.40000009537,168054.61,176082.097,,,
Question 2,html.Screen,2_1_0_3,2022-04-28T10:34:38.196Z,,,,,,,,,,,,,,,,,,,,,,,,,,,,false,TRUE,,9484.303000095359,,response,,,,99,D,,,,,,FALSE,click #choice-2,,,,silence,,,,,185567.60000002384,185566.40000009537,176067.507,176078,176082.097,185573.984,,,
Item 99,flow.Sequence,2_1_0,2022-04-28T10:34:38.196Z,,,,,,,,,,,,,,,,,,,,,,,,,,,,,,,51271.54100009537,,completion,,,,,,,,,,,,,,,,,,,,,185567.90000009537,185566.40000009537,134261.535,134296,134294.859,185573.984,,,
Holding screen,html.Screen,2_1_1_0,2022-04-28T10:34:48.182Z,,,,,,,,,,,,,,,,,,,,,,,,,,,,,,,9993.508999999991,,timeout,,,,,,,,,,,,,,,,,,,,,195552.70000004768,195550.831,185557.322,185568.10000002384,185573.984,195567.493,,,
screen,html.Screen,2_1_1_1_0,2022-04-28T10:34:49.405Z,,,,,,,,,,,,,,,,,54,,,,,,,,,,,,,,1207.4070000953798,,response,,,,100,,,,,,,Space,keypress(Space),,,,,,,,At --- ---- --- ------ ----- ------- ---- -- --- ------- --<br>------- ---------- ------ -- ----- -- ----- -- ---- ------<br>--- ----- --- --- ------ -------- ----- --- ------ ----- --<br>----- ----- ---------- --- --- ------ ------ ---- -- ------<br>------- --- ------ ----- --- ---- ------- -- ---- --- --<br>------- ------,196775.80000007153,196774.90000009537,195550.831,195552.90000009537,195567.493,196778.987,,0,At
screen,html.Screen,2_1_1_1_1,2022-04-28T10:34:49.971Z,,,,,,,,,,,,,,,,,54,,,,,,,,,,,,,,562.71300004769,,response,,,,100,,,,,,,Space,keypress(Space),,,,,,,,-- the ---- --- ------ ----- ------- ---- -- --- ------- --<br>------- ---------- ------ -- ----- -- ----- -- ---- ------<br>--- ----- --- --- ------ -------- ----- --- ------ ----- --<br>----- ----- ---------- --- --- ------ ------ ---- -- ------<br>------- --- ------ ----- --- ---- ------- -- ---- --- --<br>------- ------,197342.30000007153,197341.70000004768,196762.325,196776,196778.987,197345.523,,1,the
screen,html.Screen,2_1_1_1_2,2022-04-28T10:34:50.409Z,,,,,,,,,,,,,,,,,54,,,,,,,,,,,,,,433.87700009538094,,response,,,,100,,,,,,,Space,keypress(Space),,,,,,,,-- --- time --- ------ ----- ------- ---- -- --- ------- --<br>------- ---------- ------ -- ----- -- ----- -- ---- ------<br>--- ----- --- --- ------ -------- ----- --- ------ ----- --<br>----- ----- ---------- --- --- ------ ------ ---- -- ------<br>------- --- ------ ----- --- ---- ------- -- ---- --- --<br>------- ------,197780.10000002384,197779.40000009537,197328.861,197342.40000009537,197345.523,197792.44,,2,time
screen,html.Screen,2_1_1_1_3,2022-04-28T10:34:50.811Z,,,,,,,,,,,,,,,,,54,,,,,,,,,,,,,,388.66000002383953,,response,,,,100,,,,,,,Space,keypress(Space),,,,,,,,-- --- ---- the ------ ----- ------- ---- -- --- ------- --<br>------- ---------- ------ -- ----- -- ----- -- ---- ------<br>--- ----- --- --- ------ -------- ----- --- ------ ----- --<br>----- ----- ---------- --- --- ------ ------ ---- -- ------<br>------- --- ------ ----- --- ---- ------- -- ---- --- --<br>------- ------,198181.90000009537,198181.10000002384,197775.778,197780.20000004768,197792.44,198189.994,,3,the
screen,html.Screen,2_1_1_1_4,2022-04-28T10:34:51.319Z,,,,,,,,,,,,,,,,,54,,,,,,,,,,,,,,498.8060000715195,,response,,,,100,,,,,,,Space,keypress(Space),,,,,,,,-- --- ---- --- French ----- ------- ---- -- --- ------- --<br>------- ---------- ------ -- ----- -- ----- -- ---- ------<br>--- ----- --- --- ------ -------- ----- --- ------ ----- --<br>----- ----- ---------- --- --- ------ ------ ---- -- ------<br>------- --- ------ ----- --- ---- ------- -- ---- --- --<br>------- ------,198689.70000004768,198688.80000007153,198173.332,198182,198189.994,198705.529,,4,French
screen,html.Screen,2_1_1_1_5,2022-04-28T10:34:51.757Z,,,,,,,,,,,,,,,,,54,,,,,,,,,,,,,,421.3710000953579,,response,,,,100,,,,,,,Space,keypress(Space),,,,,,,,-- --- ---- --- ------ crown ------- ---- -- --- ------- --<br>------- ---------- ------ -- ----- -- ----- -- ---- ------<br>--- ----- --- --- ------ -------- ----- --- ------ ----- --<br>----- ----- ---------- --- --- ------ ------ ---- -- ------<br>------- --- ------ ----- --- ---- ------- -- ---- --- --<br>------- ------,199127.5,199126.90000009537,198688.867,198689.80000007153,198705.529,199138.698,,5,crown
screen,html.Screen,2_1_1_1_6,2022-04-28T10:34:52.159Z,,,,,,,,,,,,,,,,,54,,,,,,,,,,,,,,390.7020000953635,,response,,,,100,,,,,,,Space,keypress(Space),,,,,,,,-- --- ---- --- ------ ----- secured ---- -- --- ------- --<br>------- ---------- ------ -- ----- -- ----- -- ---- ------<br>--- ----- --- --- ------ -------- ----- --- ------ ----- --<br>----- ----- ---------- --- --- ------ ------ ---- -- ------<br>------- --- ------ ----- --- ---- ------- -- ---- --- --<br>------- ------,199530.20000004768,199529.40000009537,199122.036,199127.80000007153,199138.698,199536.393,,6,secured
screen,html.Screen,2_1_1_1_7,2022-04-28T10:34:52.584Z,,,,,,,,,,,,,,,,,54,,,,,,,,,,,,,,418.10699999998906,,response,,,,100,,,,,,,Space,keypress(Space),,,,,,,,-- --- ---- --- ------ ----- ------- much -- --- ------- --<br>------- ---------- ------ -- ----- -- ----- -- ---- ------<br>--- ----- --- --- ------ -------- ----- --- ------ ----- --<br>----- ----- ---------- --- --- ------ ------ ---- -- ------<br>------- --- ------ ----- --- ---- ------- -- ---- --- --<br>------- ------,199955.30000007153,199954.5,199519.731,199530.40000009537,199536.393,199968.637,,7,much
screen,html.Screen,2_1_1_1_8,2022-04-28T10:34:52.998Z,,,,,,,,,,,,,,,,,54,,,,,,,,,,,,,,399.5630000476958,,response,,,,100,,,,,,,Space,keypress(Space),,,,,,,,-- --- ---- --- ------ ----- ------- ---- of --- ------- --<br>------- ---------- ------ -- ----- -- ----- -- ---- ------<br>--- ----- --- --- ------ -------- ----- --- ------ ----- --<br>----- ----- ---------- --- --- ------ ------ ---- -- ------<br>------- --- ------ ----- --- ---- ------- -- ---- --- --<br>------- ------,200368.90000009537,200368.20000004768,199951.975,199955.40000009537,199968.637,200385.098,,8,of
screen,html.Screen,2_1_1_1_9,2022-04-28T10:34:53.381Z,,,,,,,,,,,,,,,,,54,,,,,,,,,,,,,,366.70200007152744,,response,,,,100,,,,,,,Space,keypress(Space),,,,,,,,-- --- ---- --- ------ ----- ------- ---- -- its ------- --<br>------- ---------- ------ -- ----- -- ----- -- ---- ------<br>--- ----- --- --- ------ -------- ----- --- ------ ----- --<br>----- ----- ---------- --- --- ------ ------ ---- -- ------<br>------- --- ------ ----- --- ---- ------- -- ---- --- --<br>------- ------,200752.60000002384,200751.80000007153,200368.436,200369,200385.098,200767.318,,9,its
screen,html.Screen,2_1_1_1_10,2022-04-28T10:34:53.833Z,,,,,,,,,,,,,,,,,54,,,,,,,,,,,,,,436.28200002384256,,response,,,,100,,,,,,,Space,keypress(Space),,,,,,,,-- --- ---- --- ------ ----- ------- ---- -- --- revenue --<br>------- ---------- ------ -- ----- -- ----- -- ---- ------<br>--- ----- --- --- ------ -------- ----- --- ------ ----- --<br>----- ----- ---------- --- --- ------ ------ ---- -- ------<br>------- --- ------ ----- --- ---- ------- -- ---- --- --<br>------- ------,201204.5,201203.60000002384,200750.656,200752.60000002384,200767.318,201216.209,,10,revenue
screen,html.Screen,2_1_1_1_11,2022-04-28T10:34:54.220Z,,,,,,,,,,,,,,,,,54,,,,,,,,,,,,,,374.091000071523,,response,,,,100,,,,,,,Space,keypress(Space),,,,,,,,-- --- ---- --- ------ ----- ------- ---- -- --- ------- by<br>------- ---------- ------ -- ----- -- ----- -- ---- ------<br>--- ----- --- --- ------ -------- ----- --- ------ ----- --<br>----- ----- ---------- --- --- ------ ------ ---- -- ------<br>------- --- ------ ----- --- ---- ------- -- ---- --- --<br>------- ------,201591.20000004768,201590.30000007153,201199.547,201204.60000002384,201216.209,201597.457,,11,by
screen,html.Screen,2_1_1_1_12,2022-04-28T10:34:54.602Z,,,,,,,,,,,,,,,,,54,,,,,,,,,,,,,,374.3430000715307,,response,,,,100,,,,,,,Space,keypress(Space),,,,,,,,-- --- ---- --- ------ ----- ------- ---- -- --- ------- --<br>issuing ---------- ------ -- ----- -- ----- -- ---- ------<br>--- ----- --- --- ------ -------- ----- --- ------ ----- --<br>----- ----- ---------- --- --- ------ ------ ---- -- ------<br>------- --- ------ ----- --- ---- ------- -- ---- --- --<br>------- ------,201972.60000002384,201971.80000007153,201580.795,201591.30000007153,201597.457,201979.787,,12,issuing
screen,html.Screen,2_1_1_1_13,2022-04-28T10:34:54.945Z,,,,,,,,,,,,,,,,,54,,,,,,,,,,,,,,335.7129999999888,,response,,,,100,,,,,,,Space,keypress(Space),,,,,,,,-- --- ---- --- ------ ----- ------- ---- -- --- ------- --<br>------- government ------ -- ----- -- ----- -- ---- ------<br>--- ----- --- --- ------ -------- ----- --- ------ ----- --<br>----- ----- ---------- --- --- ------ ------ ---- -- ------<br>------- --- ------ ----- --- ---- ------- -- ---- --- --<br>------- ------,202316.5,202315.5,201963.125,201972.70000004768,201979.787,202328.764,,13,government
screen,html.Screen,2_1_1_1_14,2022-04-28T10:34:55.336Z,,,,,,,,,,,,,,,,,54,,,,,,,,,,,,,,377.13600009537186,,response,,,,100,,,,,,,Space,keypress(Space),,,,,,,,-- --- ---- --- ------ ----- ------- ---- -- --- ------- --<br>------- ---------- bonds. -- ----- -- ----- -- ---- ------<br>--- ----- --- --- ------ -------- ----- --- ------ ----- --<br>----- ----- ---------- --- --- ------ ------ ---- -- ------<br>------- --- ------ ----- --- ---- ------- -- ---- --- --<br>------- ------,202706.70000004768,202705.90000009537,202312.102,202316.70000004768,202328.764,202711.106,,14,bonds.
screen,html.Screen,2_1_1_1_15,2022-04-28T10:34:55.762Z,,,,,,,,,,,,,,,,,54,,,,,,,,,,,,,,420.89400000000023,,response,,,,100,,,,,,,Space,keypress(Space),,,,,,,,-- --- ---- --- ------ ----- ------- ---- -- --- ------- --<br>------- ---------- ------ In ----- -- ----- -- ---- ------<br>--- ----- --- --- ------ -------- ----- --- ------ ----- --<br>----- ----- ---------- --- --- ------ ------ ---- -- ------<br>------- --- ------ ----- --- ---- ------- -- ---- --- --<br>------- ------,203132.70000004768,203132,202694.444,202706.90000009537,202711.106,203143.44,,15,In
screen,html.Screen,2_1_1_1_16,2022-04-28T10:34:56.280Z,,,,,,,,,,,,,,,,,54,,,,,,,,,,,,,,506.9600000953651,,response,,,,100,,,,,,,Space,keypress(Space),,,,,,,,"-- --- ---- --- ------ ----- ------- ---- -- --- ------- --<br>------- ---------- ------ -- 1727, -- ----- -- ---- ------<br>--- ----- --- --- ------ -------- ----- --- ------ ----- --<br>----- ----- ---------- --- --- ------ ------ ---- -- ------<br>------- --- ------ ----- --- ---- ------- -- ---- --- --<br>------- ------",203651.10000002384,203650.40000009537,203126.778,203132.90000009537,203143.44,203658.942,,16,"1727,"
screen,html.Screen,2_1_1_1_17,2022-04-28T10:34:56.872Z,,,,,,,,,,,,,,,,,54,,,,,,,,,,,,,,583.05799999999,,response,,,,100,,,,,,,Space,keypress(Space),,,,,,,,-- --- ---- --- ------ ----- ------- ---- -- --- ------- --<br>------- ---------- ------ -- ----- in ----- -- ---- ------<br>--- ----- --- --- ------ -------- ----- --- ------ ----- --<br>----- ----- ---------- --- --- ------ ------ ---- -- ------<br>------- --- ------ ----- --- ---- ------- -- ---- --- --<br>------- ------,204243.10000002384,204242,203642.28,203651.40000009537,203658.942,204257.527,,17,in
screen,html.Screen,2_1_1_1_18,2022-04-28T10:34:57.427Z,,,,,,,,,,,,,,,,,54,,,,,,,,,,,,,,539.3730000953656,,response,,,,100,,,,,,,Space,keypress(Space),,,,,,,,-- --- ---- --- ------ ----- ------- ---- -- --- ------- --<br>------- ---------- ------ -- ----- -- order -- ---- ------<br>--- ----- --- --- ------ -------- ----- --- ------ ----- --<br>----- ----- ---------- --- --- ------ ------ ---- -- ------<br>------- --- ------ ----- --- ---- ------- -- ---- --- --<br>------- ------,204797.60000002384,204796.90000009537,204240.865,204243.20000004768,204257.527,204805.929,,18,order
screen,html.Screen,2_1_1_1_19,2022-04-28T10:34:57.780Z,,,,,,,,,,,,,,,,,54,,,,,,,,,,,,,,344.4710000953637,,response,,,,100,,,,,,,Space,keypress(Space),,,,,,,,-- --- ---- --- ------ ----- ------- ---- -- --- ------- --<br>------- ---------- ------ -- ----- -- ----- to ---- ------<br>--- ----- --- --- ------ -------- ----- --- ------ ----- --<br>----- ----- ---------- --- --- ------ ------ ---- -- ------<br>------- --- ------ ----- --- ---- ------- -- ---- --- --<br>------- ------,205151.20000004768,205150.40000009537,204789.267,204797.80000007153,204805.929,205154.517,,19,to
screen,html.Screen,2_1_1_1_20,2022-04-28T10:34:58.103Z,,,,,,,,,,,,,,,,,54,,,,,,,,,,,,,,319.18300004769117,,response,,,,100,,,,,,,Space,keypress(Space),,,,,,,,-- --- ---- --- ------ ----- ------- ---- -- --- ------- --<br>------- ---------- ------ -- ----- -- ----- -- save ------<br>--- ----- --- --- ------ -------- ----- --- ------ ----- --<br>----- ----- ---------- --- --- ------ ------ ---- -- ------<br>------- --- ------ ----- --- ---- ------- -- ---- --- --<br>------- ------,205474.40000009537,205473.70000004768,205137.855,205151.30000007153,205154.517,205486.918,,20,save
screen,html.Screen,2_1_1_1_21,2022-04-28T10:34:58.504Z,,,,,,,,,,,,,,,,,54,,,,,,,,,,,,,,387.68200002383674,,response,,,,100,,,,,,,Space,keypress(Space),,,,,,,,"-- --- ---- --- ------ ----- ------- ---- -- --- ------- --<br>------- ---------- ------ -- ----- -- ----- -- ---- money,<br>--- ----- --- --- ------ -------- ----- --- ------ ----- --<br>----- ----- ---------- --- --- ------ ------ ---- -- ------<br>------- --- ------ ----- --- ---- ------- -- ---- --- --<br>------- ------",205875.40000009537,205874.60000002384,205470.256,205474.60000002384,205486.918,205885.939,,21,"money,"
screen,html.Screen,2_1_1_1_22,2022-04-28T10:34:58.866Z,,,,,,,,,,,,,,,,,54,,,,,,,,,,,,,,350.36100007151254,,response,,,,100,,,,,,,Space,keypress(Space),,,,,,,,-- --- ---- --- ------ ----- ------- ---- -- --- ------- --<br>------- ---------- ------ -- ----- -- ----- -- ---- ------<br>the ----- --- --- ------ -------- ----- --- ------ ----- --<br>----- ----- ---------- --- --- ------ ------ ---- -- ------<br>------- --- ------ ----- --- ---- ------- -- ---- --- --<br>------- ------,206237,206236.30000007153,205869.277,205875.60000002384,205885.939,206251.604,,22,the
screen,html.Screen,2_1_1_1_23,2022-04-28T10:34:59.267Z,,,,,,,,,,,,,,,,,54,,,,,,,,,,,,,,385.4960000238498,,response,,,,100,,,,,,,Space,keypress(Space),,,,,,,,-- --- ---- --- ------ ----- ------- ---- -- --- ------- --<br>------- ---------- ------ -- ----- -- ----- -- ---- ------<br>--- state --- --- ------ -------- ----- --- ------ ----- --<br>----- ----- ---------- --- --- ------ ------ ---- -- ------<br>------- --- ------ ----- --- ---- ------- -- ---- --- --<br>------- ------,206637.80000007153,206637.10000002384,206234.942,206237.10000002384,206251.604,206651.463,,23,state
screen,html.Screen,2_1_1_1_24,2022-04-28T10:34:59.573Z,,,,,,,,,,,,,,,,,54,,,,,,,,,,,,,,291.4370000953786,,response,,,,100,,,,,,,Space,keypress(Space),,,,,,,,-- --- ---- --- ------ ----- ------- ---- -- --- ------- --<br>------- ---------- ------ -- ----- -- ----- -- ---- ------<br>--- ----- cut --- ------ -------- ----- --- ------ ----- --<br>----- ----- ---------- --- --- ------ ------ ---- -- ------<br>------- --- ------ ----- --- ---- ------- -- ---- --- --<br>------- ------,206943.70000004768,206942.90000009537,206634.801,206638,206651.463,206949.562,,24,cut
screen,html.Screen,2_1_1_1_25,2022-04-28T10:34:59.959Z,,,,,,,,,,,,,,,,,54,,,,,,,,,,,,,,379.63800004767836,,response,,,,100,,,,,,,Space,keypress(Space),,,,,,,,-- --- ---- --- ------ ----- ------- ---- -- --- ------- --<br>------- ---------- ------ -- ----- -- ----- -- ---- ------<br>--- ----- --- the ------ -------- ----- --- ------ ----- --<br>----- ----- ---------- --- --- ------ ------ ---- -- ------<br>------- --- ------ ----- --- ---- ------- -- ---- --- --<br>------- ------,207330,207329.20000004768,206932.9,206943.80000007153,206949.562,207332.133,,25,the
screen,html.Screen,2_1_1_1_26,2022-04-28T10:35:00.347Z,,,,,,,,,,,,,,,,,54,,,,,,,,,,,,,,385.2670000953658,,response,,,,100,,,,,,,Space,keypress(Space),,,,,,,,-- --- ---- --- ------ ----- ------- ---- -- --- ------- --<br>------- ---------- ------ -- ----- -- ----- -- ---- ------<br>--- ----- --- --- bonds' -------- ----- --- ------ ----- --<br>----- ----- ---------- --- --- ------ ------ ---- -- ------<br>------- --- ------ ----- --- ---- ------- -- ---- --- --<br>------- ------,207718.10000002384,207717.40000009537,207315.471,207330.20000004768,207332.133,207731.052,,26,bonds'
screen,html.Screen,2_1_1_1_27,2022-04-28T10:35:00.779Z,,,,,,,,,,,,,,,,,54,,,,,,,,,,,,,,418.24800007152953,,response,,,,100,,,,,,,Space,keypress(Space),,,,,,,,-- --- ---- --- ------ ----- ------- ---- -- --- ------- --<br>------- ---------- ------ -- ----- -- ----- -- ---- ------<br>--- ----- --- --- ------ interest ----- --- ------ ----- --<br>----- ----- ---------- --- --- ------ ------ ---- -- ------<br>------- --- ------ ----- --- ---- ------- -- ---- --- --<br>------- ------,208150.10000002384,208149.30000007153,207714.39,207718.30000007153,207731.052,208163.292,,27,interest
screen,html.Screen,2_1_1_1_28,2022-04-28T10:35:01.374Z,,,,,,,,,,,,,,,,,54,,,,,,,,,,,,,,580.6080000953807,,response,,,,100,,,,,,,Space,keypress(Space),,,,,,,,-- --- ---- --- ------ ----- ------- ---- -- --- ------- --<br>------- ---------- ------ -- ----- -- ----- -- ---- ------<br>--- ----- --- --- ------ -------- rate. --- ------ ----- --<br>----- ----- ---------- --- --- ------ ------ ---- -- ------<br>------- --- ------ ----- --- ---- ------- -- ---- --- --<br>------- ------,208744.80000007153,208743.90000009537,208146.63,208150.30000007153,208163.292,208762.104,,28,rate.
screen,html.Screen,2_1_1_1_29,2022-04-28T10:35:01.985Z,,,,,,,,,,,,,,,,,54,,,,,,,,,,,,,,593.4960000238498,,response,,,,100,,,,,,,Space,keypress(Space),,,,,,,,-- --- ---- --- ------ ----- ------- ---- -- --- ------- --<br>------- ---------- ------ -- ----- -- ----- -- ---- ------<br>--- ----- --- --- ------ -------- ----- The ------ ----- --<br>----- ----- ---------- --- --- ------ ------ ---- -- ------<br>------- --- ------ ----- --- ---- ------- -- ---- --- --<br>------- ------,209356.40000009537,209355.60000002384,208745.442,208745,208762.104,209360.524,,29,The
screen,html.Screen,2_1_1_1_30,2022-04-28T10:35:02.381Z,,,,,,,,,,,,,,,,,54,,,,,,,,,,,,,,390.4759999999951,,response,,,,100,,,,,,,Space,keypress(Space),,,,,,,,-- --- ---- --- ------ ----- ------- ---- -- --- ------- --<br>------- ---------- ------ -- ----- -- ----- -- ---- ------<br>--- ----- --- --- ------ -------- ----- --- market ----- --<br>----- ----- ---------- --- --- ------ ------ ---- -- ------<br>------- --- ------ ----- --- ---- ------- -- ---- --- --<br>------- ------,209752,209751,209343.862,209356.5,209360.524,209758.955,,30,market
screen,html.Screen,2_1_1_1_31,2022-04-28T10:35:02.745Z,,,,,,,,,,,,,,,,,54,,,,,,,,,,,,,,356.3450000715384,,response,,,,100,,,,,,,Space,keypress(Space),,,,,,,,-- --- ---- --- ------ ----- ------- ---- -- --- ------- --<br>------- ---------- ------ -- ----- -- ----- -- ---- ------<br>--- ----- --- --- ------ -------- ----- --- ------ value --<br>----- ----- ---------- --- --- ------ ------ ---- -- ------<br>------- --- ------ ----- --- ---- ------- -- ---- --- --<br>------- ------,210116.30000007153,210115.30000007153,209742.293,209752.10000002384,209758.955,210124.569,,31,value
screen,html.Screen,2_1_1_1_32,2022-04-28T10:35:03.158Z,,,,,,,,,,,,,,,,,54,,,,,,,,,,,,,,403.231000071537,,response,,,,100,,,,,,,Space,keypress(Space),,,,,,,,-- --- ---- --- ------ ----- ------- ---- -- --- ------- --<br>------- ---------- ------ -- ----- -- ----- -- ---- ------<br>--- ----- --- --- ------ -------- ----- --- ------ ----- of<br>----- ----- ---------- --- --- ------ ------ ---- -- ------<br>------- --- ------ ----- --- ---- ------- -- ---- --- --<br>------- ------,210528.70000004768,210527.80000007153,210107.907,210116.40000009537,210124.569,210540.249,,32,of
screen,html.Screen,2_1_1_1_33,2022-04-28T10:35:03.530Z,,,,,,,,,,,,,,,,,54,,,,,,,,,,,,,,359.7509999999893,,response,,,,100,,,,,,,Space,keypress(Space),,,,,,,,-- --- ---- --- ------ ----- ------- ---- -- --- ------- --<br>------- ---------- ------ -- ----- -- ----- -- ---- ------<br>--- ----- --- --- ------ -------- ----- --- ------ ----- --<br>these ----- ---------- --- --- ------ ------ ---- -- ------<br>------- --- ------ ----- --- ---- ------- -- ---- --- --<br>------- ------,210900.60000002384,210900,210523.587,210528.80000007153,210540.249,210905.769,,33,these
screen,html.Screen,2_1_1_1_34,2022-04-28T10:35:03.970Z,,,,,,,,,,,,,,,,,54,,,,,,,,,,,,,,434.1310000953672,,response,,,,100,,,,,,,Space,keypress(Space),,,,,,,,-- --- ---- --- ------ ----- ------- ---- -- --- ------- --<br>------- ---------- ------ -- ----- -- ----- -- ---- ------<br>--- ----- --- --- ------ -------- ----- --- ------ ----- --<br>----- bonds ---------- --- --- ------ ------ ---- -- ------<br>------- --- ------ ----- --- ---- ------- -- ---- --- --<br>------- ------,211340.5,211339.90000009537,210889.107,210900.90000009537,210905.769,211354.766,,34,bonds
screen,html.Screen,2_1_1_1_35,2022-04-28T10:35:04.416Z,,,,,,,,,,,,,,,,,54,,,,,,,,,,,,,,431.43400004768046,,response,,,,100,,,,,,,Space,keypress(Space),,,,,,,,"-- --- ---- --- ------ ----- ------- ---- -- --- ------- --<br>------- ---------- ------ -- ----- -- ----- -- ---- ------<br>--- ----- --- --- ------ -------- ----- --- ------ ----- --<br>----- ----- plummeted, --- --- ------ ------ ---- -- ------<br>------- --- ------ ----- --- ---- ------- -- ---- --- --<br>------- ------",211787,211786.20000004768,211338.104,211340.70000004768,211354.766,211803.517,,35,"plummeted,"
screen,html.Screen,2_1_1_1_36,2022-04-28T10:35:04.811Z,,,,,,,,,,,,,,,,,54,,,,,,,,,,,,,,377.3830000953749,,response,,,,100,,,,,,,Space,keypress(Space),,,,,,,,-- --- ---- --- ------ ----- ------- ---- -- --- ------- --<br>------- ---------- ------ -- ----- -- ----- -- ---- ------<br>--- ----- --- --- ------ -------- ----- --- ------ ----- --<br>----- ----- ---------- and --- ------ ------ ---- -- ------<br>------- --- ------ ----- --- ---- ------- -- ---- --- --<br>------- ------,212181.60000002384,212180.90000009537,211786.855,211787.20000004768,211803.517,212185.764,,36,and
screen,html.Screen,2_1_1_1_37,2022-04-28T10:35:05.135Z,,,,,,,,,,,,,,,,,54,,,,,,,,,,,,,,319.63600009537186,,response,,,,100,,,,,,,Space,keypress(Space),,,,,,,,-- --- ---- --- ------ ----- ------- ---- -- --- ------- --<br>------- ---------- ------ -- ----- -- ----- -- ---- ------<br>--- ----- --- --- ------ -------- ----- --- ------ ----- --<br>----- ----- ---------- --- the ------ ------ ---- -- ------<br>------- --- ------ ----- --- ---- ------- -- ---- --- --<br>------- ------,212506.20000004768,212505.40000009537,212169.102,212181.70000004768,212185.764,212518.109,,37,the
screen,html.Screen,2_1_1_1_38,2022-04-28T10:35:05.579Z,,,,,,,,,,,,,,,,,54,,,,,,,,,,,,,,431.39100000000326,,response,,,,100,,,,,,,Space,keypress(Space),,,,,,,,-- --- ---- --- ------ ----- ------- ---- -- --- ------- --<br>------- ---------- ------ -- ----- -- ----- -- ---- ------<br>--- ----- --- --- ------ -------- ----- --- ------ ----- --<br>----- ----- ---------- --- --- market ------ ---- -- ------<br>------- --- ------ ----- --- ---- ------- -- ---- --- --<br>------- ------,212950.20000004768,212949.5,212501.447,212506.40000009537,212518.109,212967.137,,38,market
screen,html.Screen,2_1_1_1_39,2022-04-28T10:35:05.991Z,,,,,,,,,,,,,,,,,54,,,,,,,,,,,,,,394.0630000476958,,response,,,,100,,,,,,,Space,keypress(Space),,,,,,,,-- --- ---- --- ------ ----- ------- ---- -- --- ------- --<br>------- ---------- ------ -- ----- -- ----- -- ---- ------<br>--- ----- --- --- ------ -------- ----- --- ------ ----- --<br>----- ----- ---------- --- --- ------ became ---- -- ------<br>------- --- ------ ----- --- ---- ------- -- ---- --- --<br>------- ------,213361.90000009537,213361.20000004768,212950.475,212950.40000009537,212967.137,213365.965,,39,became
screen,html.Screen,2_1_1_1_40,2022-04-28T10:35:06.379Z,,,,,,,,,,,,,,,,,54,,,,,,,,,,,,,,383.2350000476872,,response,,,,100,,,,,,,Space,keypress(Space),,,,,,,,-- --- ---- --- ------ ----- ------- ---- -- --- ------- --<br>------- ---------- ------ -- ----- -- ----- -- ---- ------<br>--- ----- --- --- ------ -------- ----- --- ------ ----- --<br>----- ----- ---------- --- --- ------ ------ wary -- ------<br>------- --- ------ ----- --- ---- ------- -- ---- --- --<br>------- ------,213750,213749.20000004768,213349.303,213362.10000002384,213365.965,213764.872,,40,wary
screen,html.Screen,2_1_1_1_41,2022-04-28T10:35:06.755Z,,,,,,,,,,,,,,,,,54,,,,,,,,,,,,,,360.42800007152255,,response,,,,100,,,,,,,Space,keypress(Space),,,,,,,,-- --- ---- --- ------ ----- ------- ---- -- --- ------- --<br>------- ---------- ------ -- ----- -- ----- -- ---- ------<br>--- ----- --- --- ------ -------- ----- --- ------ ----- --<br>----- ----- ---------- --- --- ------ ------ ---- of ------<br>------- --- ------ ----- --- ---- ------- -- ---- --- --<br>------- ------,214126.10000002384,214125.30000007153,213748.21,213750.10000002384,213764.872,214131.38,,41,of
screen,html.Screen,2_1_1_1_42,2022-04-28T10:35:07.239Z,,,,,,,,,,,,,,,,,54,,,,,,,,,,,,,,478.4200000715209,,response,,,,100,,,,,,,Space,keypress(Space),,,,,,,,-- --- ---- --- ------ ----- ------- ---- -- --- ------- --<br>------- ---------- ------ -- ----- -- ----- -- ---- ------<br>--- ----- --- --- ------ -------- ----- --- ------ ----- --<br>----- ----- ---------- --- --- ------ ------ ---- -- French<br>------- --- ------ ----- --- ---- ------- -- ---- --- --<br>------- ------,214610.40000009537,214609.80000007153,214114.718,214126.20000004768,214131.38,214612.836,,42,French
screen,html.Screen,2_1_1_1_43,2022-04-28T10:35:07.621Z,,,,,,,,,,,,,,,,,54,,,,,,,,,,,,,,378.0640000953572,,response,,,,100,,,,,,,Space,keypress(Space),,,,,,,,-- --- ---- --- ------ ----- ------- ---- -- --- ------- --<br>------- ---------- ------ -- ----- -- ----- -- ---- ------<br>--- ----- --- --- ------ -------- ----- --- ------ ----- --<br>----- ----- ---------- --- --- ------ ------ ---- -- ------<br>credit. --- ------ ----- --- ---- ------- -- ---- --- --<br>------- ------,214991.70000004768,214990.90000009537,214596.174,214610.70000004768,214612.836,214994.848,,43,credit.
screen,html.Screen,2_1_1_1_44,2022-04-28T10:35:08.036Z,,,,,,,,,,,,,,,,,54,,,,,,,,,,,,,,411.8520000476856,,response,,,,100,,,,,,,Space,keypress(Space),,,,,,,,-- --- ---- --- ------ ----- ------- ---- -- --- ------- --<br>------- ---------- ------ -- ----- -- ----- -- ---- ------<br>--- ----- --- --- ------ -------- ----- --- ------ ----- --<br>----- ----- ---------- --- --- ------ ------ ---- -- ------<br>------- The ------ ----- --- ---- ------- -- ---- --- --<br>------- ------,215407.5,215406.70000004768,214978.186,214991.80000007153,214994.848,215410.488,,44,The
screen,html.Screen,2_1_1_1_45,2022-04-28T10:35:08.428Z,,,,,,,,,,,,,,,,,54,,,,,,,,,,,,,,387.31200007151347,,response,,,,100,,,,,,,Space,keypress(Space),,,,,,,,-- --- ---- --- ------ ----- ------- ---- -- --- ------- --<br>------- ---------- ------ -- ----- -- ----- -- ---- ------<br>--- ----- --- --- ------ -------- ----- --- ------ ----- --<br>----- ----- ---------- --- --- ------ ------ ---- -- ------<br>------- --- French ----- --- ---- ------- -- ---- --- --<br>------- ------,215798.70000004768,215797.80000007153,215393.826,215407.60000002384,215410.488,215809.331,,45,French
screen,html.Screen,2_1_1_1_46,2022-04-28T10:35:08.813Z,,,,,,,,,,,,,,,,,54,,,,,,,,,,,,,,374.26900002383627,,response,,,,100,,,,,,,Space,keypress(Space),,,,,,,,-- --- ---- --- ------ ----- ------- ---- -- --- ------- --<br>------- ---------- ------ -- ----- -- ----- -- ---- ------<br>--- ----- --- --- ------ -------- ----- --- ------ ----- --<br>----- ----- ---------- --- --- ------ ------ ---- -- ------<br>------- --- ------ state --- ---- ------- -- ---- --- --<br>------- ------,216184.30000007153,216183.60000002384,215792.669,215798.90000009537,215809.331,216191.664,,46,state
screen,html.Screen,2_1_1_1_47,2022-04-28T10:35:09.185Z,,,,,,,,,,,,,,,,,54,,,,,,,,,,,,,,363.33600000001024,,response,,,,100,,,,,,,Space,keypress(Space),,,,,,,,-- --- ---- --- ------ ----- ------- ---- -- --- ------- --<br>------- ---------- ------ -- ----- -- ----- -- ---- ------<br>--- ----- --- --- ------ -------- ----- --- ------ ----- --<br>----- ----- ---------- --- --- ------ ------ ---- -- ------<br>------- --- ------ ----- was ---- ------- -- ---- --- --<br>------- ------,216555.90000009537,216555,216175.002,216184.5,216191.664,216557.285,,47,was
screen,html.Screen,2_1_1_1_48,2022-04-28T10:35:09.600Z,,,,,,,,,,,,,,,,,54,,,,,,,,,,,,,,412.9150000476802,,response,,,,100,,,,,,,Space,keypress(Space),,,,,,,,-- --- ---- --- ------ ----- ------- ---- -- --- ------- --<br>------- ---------- ------ -- ----- -- ----- -- ---- ------<br>--- ----- --- --- ------ -------- ----- --- ------ ----- --<br>----- ----- ---------- --- --- ------ ------ ---- -- ------<br>------- --- ------ ----- --- left ------- -- ---- --- --<br>------- ------,216970.90000009537,216970.20000004768,216540.623,216556,216557.285,216972.981,,48,left
screen,html.Screen,2_1_1_1_49,2022-04-28T10:35:09.982Z,,,,,,,,,,,,,,,,,54,,,,,,,,,,,,,,378.91900009536766,,response,,,,100,,,,,,,Space,keypress(Space),,,,,,,,-- --- ---- --- ------ ----- ------- ---- -- --- ------- --<br>------- ---------- ------ -- ----- -- ----- -- ---- ------<br>--- ----- --- --- ------ -------- ----- --- ------ ----- --<br>----- ----- ---------- --- --- ------ ------ ---- -- ------<br>------- --- ------ ----- --- ---- without -- ---- --- --<br>------- ------,217352.60000002384,217351.90000009537,216956.319,216971,216972.981,217355.196,,49,without
screen,html.Screen,2_1_1_1_50,2022-04-28T10:35:10.360Z,,,,,,,,,,,,,,,,,54,,,,,,,,,,,,,,374.70400009537116,,response,,,,100,,,,,,,Space,keypress(Space),,,,,,,,-- --- ---- --- ------ ----- ------- ---- -- --- ------- --<br>------- ---------- ------ -- ----- -- ----- -- ---- ------<br>--- ----- --- --- ------ -------- ----- --- ------ ----- --<br>----- ----- ---------- --- --- ------ ------ ---- -- ------<br>------- --- ------ ----- --- ---- ------- an ---- --- --<br>------- ------,217730.60000002384,217729.90000009537,217338.534,217352.90000009537,217355.196,217737.497,,50,an
screen,html.Screen,2_1_1_1_51,2022-04-28T10:35:10.721Z,,,,,,,,,,,,,,,,,54,,,,,,,,,,,,,,353.80300007152255,,response,,,,100,,,,,,,Space,keypress(Space),,,,,,,,-- --- ---- --- ------ ----- ------- ---- -- --- ------- --<br>------- ---------- ------ -- ----- -- ----- -- ---- ------<br>--- ----- --- --- ------ -------- ----- --- ------ ----- --<br>----- ----- ---------- --- --- ------ ------ ---- -- ------<br>------- --- ------ ----- --- ---- ------- -- easy --- --<br>------- ------,218092.10000002384,218091.30000007153,217720.835,217730.70000004768,217737.497,218103.126,,51,easy
screen,html.Screen,2_1_1_1_52,2022-04-28T10:35:11.115Z,,,,,,,,,,,,,,,,,54,,,,,,,,,,,,,,382.0740000476944,,response,,,,100,,,,,,,Space,keypress(Space),,,,,,,,-- --- ---- --- ------ ----- ------- ---- -- --- ------- --<br>------- ---------- ------ -- ----- -- ----- -- ---- ------<br>--- ----- --- --- ------ -------- ----- --- ------ ----- --<br>----- ----- ---------- --- --- ------ ------ ---- -- ------<br>------- --- ------ ----- --- ---- ------- -- ---- way --<br>------- ------,218486,218485.20000004768,218086.464,218092.20000004768,218103.126,218502.161,,52,way
screen,html.Screen,2_1_1_1_53,2022-04-28T10:35:11.524Z,,,,,,,,,,,,,,,,,54,,,,,,,,,,,,,,392.1390000715328,,response,,,,100,,,,,,,Space,keypress(Space),,,,,,,,-- --- ---- --- ------ ----- ------- ---- -- --- ------- --<br>------- ---------- ------ -- ----- -- ----- -- ---- ------<br>--- ----- --- --- ------ -------- ----- --- ------ ----- --<br>----- ----- ---------- --- --- ------ ------ ---- -- ------<br>------- --- ------ ----- --- ---- ------- -- ---- --- of<br>------- ------,218895,218894.30000007153,218485.499,218486.20000004768,218502.161,218901.999,,53,of
screen,html.Screen,2_1_1_1_54,2022-04-28T10:35:11.856Z,,,,,,,,,,,,,,,,,54,,,,,,,,,,,,,,324.0009999999893,,response,,,,100,,,,,,,Space,keypress(Space),,,,,,,,-- --- ---- --- ------ ----- ------- ---- -- --- ------- --<br>------- ---------- ------ -- ----- -- ----- -- ---- ------<br>--- ----- --- --- ------ -------- ----- --- ------ ----- --<br>----- ----- ---------- --- --- ------ ------ ---- -- ------<br>------- --- ------ ----- --- ---- ------- -- ---- --- --<br>raising ------,219226.70000004768,219226,218885.337,218895.10000002384,218901.999,219233.371,,54,raising
screen,html.Screen,2_1_1_1_55,2022-04-28T10:35:13.408Z,,,,,,,,,,,,,,,,,54,,,,,,,,,,,,,,1544.9290000715118,,response,,,,100,,,,,,,Space,keypress(Space),,,,,,,,-- --- ---- --- ------ ----- ------- ---- -- --- ------- --<br>------- ---------- ------ -- ----- -- ----- -- ---- ------<br>--- ----- --- --- ------ -------- ----- --- ------ ----- --<br>----- ----- ---------- --- --- ------ ------ ---- -- ------<br>------- --- ------ ----- --- ---- ------- -- ---- --- --<br>------- money.,220779.20000004768,220778.30000007153,219216.709,219226.90000009537,219233.371,220782.169,,55,money.
Item 100,flow.Loop,2_1_1_1,2022-04-28T10:35:13.409Z,,,,,,,,,,,,,,,,,,,,,,,,,,,,,,,25210.807000071538,,completion,,,,,D,,,,,,,,,,,silence,,,,,220779.70000004768,220778.30000007153,195550.831,195552.90000009537,195567.493,220782.169,,,
Question 1,html.Screen,2_1_1_2,2022-04-28T10:35:20.726Z,,,,,,,,,,,,,,,,,,,,,,,,,,,,true,TRUE,,7313.131000071531,,response,,,,100,D,,,,,,TRUE,click #choice-1,,,,silence,,,,,228096.60000002384,228095.30000007153,220765.507,220779.90000009537,220782.169,228109.566,,,
Question 2,html.Screen,2_1_1_3,2022-04-28T10:35:23.006Z,,,,,,,,,,,,,,,,,,,,,,,,,,,,true,FALSE,,2266.0340000238502,,response,,,,100,D,,,,,,FALSE,click #choice-2,,,,silence,,,,,230376.80000007153,230375.60000002384,228092.904,228096.80000007153,228109.566,230402.737,,,
Item 100,flow.Sequence,2_1_1,2022-04-28T10:35:23.006Z,,,,,,,,,,,,,,,,,,,,,,,,,,,,,,,44801.616000023845,,completion,,,,,,,,,,,,,,,,,,,,,230377.20000004768,230375.60000002384,185557.322,185568,185573.984,230402.737,,,
End of Practice,html.Page,2_1_2,2022-04-28T10:35:28.840Z,,,,,,,,,,,,,,,,,,,,,,,,,,,,,,,5808.263000000006,,form submission,,,,,,,,,,,,,,,,,,,,,236211.30000007153,236211,230386.124,230377.20000004768,230402.737,236221.618,,,
Practice,flow.Sequence,2_1,2022-04-28T10:35:28.840Z,,,,,,,,,,,,,,,,,,,,,,,,,,,,,,,101916.141,,completion,,,,,,,,,,,,,,,,,,,,,236211.5,236211,134261.535,134295.90000009537,134294.859,236221.618,,,
Trap_instruction,html.Page,2_2_0,2022-04-28T10:35:35.130Z,,,,,,,,,,,,,,,,,,,,,,,,,,,,,,,6278.78200009538,,form submission,,,,,,,,,,,,,,,,,,,,,242500.80000007153,242500.40000009537,236204.956,236211.70000004768,236221.618,242546.819,,,
trap_trial,html.Screen,2_2_1,2022-04-28T10:35:38.509Z,,,,,,,,,,,,,,,,,,,,,,,,,,,,true,1,,3331.481000071537,,response,,,,,,,,,,,1,click #choice-1,,,,,,,,,245879.80000007153,245878.30000007153,242496.833,242500.90000009537,242546.819,245879.438,,,
end of trap trial,html.Page,2_2_2,2022-04-28T10:35:40.465Z,,,,,,,,,,,,,,,,,,,,,,,,,,,,,,,1955.762000047689,,form submission,,,,,,,,,,,,,,,,,,,,,247835.5,247835.20000004768,245862.776,245880,245879.438,247840.387,,,
Trap 1,flow.Sequence,2_2,2022-04-28T10:35:40.465Z,,,,,,,,,,,,,,,,,,,,,,,,,,,,,,,11613.582000047696,,completion,,,,,,,,,,,,,,,,,,,,,247835.80000007153,247835.20000004768,236204.956,236211.5,236221.618,247840.387,,,
Standby,html.Page,2_3_0,2022-04-28T10:35:48.457Z,,,,,,,,,,,,,,,,,,,,,,,,,,,,,,,8002.722000000009,,timeout,,,,,,,,,,,,,,,,,,,,,255828.10000002384,255826.447,247823.725,247836,247840.387,255843.109,,,
Holding screen,html.Screen,2_3_1_0_0,2022-04-28T10:35:55.450Z,,,,,,,,,,,,,,,,,,,,,,,,,,,,,,,6993.639000000025,,timeout,,,,,,,,,,,,,,,,,,,,,262821.3000000715,262820.086,255826.447,255828.30000007153,255843.109,262836.748,,,
screen,html.Screen,2_3_1_0_1_0,2022-04-28T10:35:57.958Z,,,,,,,,,,,,,,,,,40,,,,,,,,,,,,,,2491.2519999999786,,response,,,,9,D,,,,,,Space,keypress(Space),,,,speech,,,,Police -- ------- ---- ---- ---- - -------- ----- --- --<br>----- ----- ------ -- ---- -- --- - ---- -- - ----- -----<br>------ ---- ------ ---- - -------- ------- -- --- --------<br>-------- ----------- ---- ------ ---- ------ ---- --- ---<br>-------- --- -----,265329,265328,262820.086,262821.60000002384,262836.748,265331.608,,0,Police
screen,html.Screen,2_3_1_0_1_1,2022-04-28T10:35:58.369Z,,,,,,,,,,,,,,,,,40,,,,,,,,,,,,,,407.6920000715181,,response,,,,9,D,,,,,,Space,keypress(Space),,,,speech,,,,------ in ------- ---- ---- ---- - -------- ----- --- --<br>----- ----- ------ -- ---- -- --- - ---- -- - ----- -----<br>------ ---- ------ ---- - -------- ------- -- --- --------<br>-------- ----------- ---- ------ ---- ------ ---- --- ---<br>-------- --- -----,265740,265739.3000000715,265314.946,265329.2000000477,265331.608,265744.787,,1,in
screen,html.Screen,2_3_1_0_1_2,2022-04-28T10:35:58.713Z,,,,,,,,,,,,,,,,,40,,,,,,,,,,,,,,338.91300004767254,,response,,,,9,D,,,,,,Space,keypress(Space),,,,speech,,,,------ -- Georgia ---- ---- ---- - -------- ----- --- --<br>----- ----- ------ -- ---- -- --- - ---- -- - ----- -----<br>------ ---- ------ ---- - -------- ------- -- --- --------<br>-------- ----------- ---- ------ ---- ------ ---- --- ---<br>-------- --- -----,266084.5,266083.7000000477,265728.125,265740.10000002384,265744.787,266091.052,,2,Georgia
screen,html.Screen,2_3_1_0_1_3,2022-04-28T10:35:59.194Z,,,,,,,,,,,,,,,,,40,,,,,,,,,,,,,,473.2480000715004,,response,,,,9,D,,,,,,Space,keypress(Space),,,,speech,,,,------ -- ------- have ---- ---- - -------- ----- --- --<br>----- ----- ------ -- ---- -- --- - ---- -- - ----- -----<br>------ ---- ------ ---- - -------- ------- -- --- --------<br>-------- ----------- ---- ------ ---- ------ ---- --- ---<br>-------- --- -----,266565.10000002384,266564.3000000715,266074.39,266084.60000002384,266091.052,266573.441,,3,have
screen,html.Screen,2_3_1_0_1_4,2022-04-28T10:35:59.557Z,,,,,,,,,,,,,,,,,40,,,,,,,,,,,,,,353.5590000000084,,response,,,,9,D,,,,,,Space,keypress(Space),,,,speech,,,,------ -- ------- ---- shut ---- - -------- ----- --- --<br>----- ----- ------ -- ---- -- --- - ---- -- - ----- -----<br>------ ---- ------ ---- - -------- ------- -- --- --------<br>-------- ----------- ---- ------ ---- ------ ---- --- ---<br>-------- --- -----,266927.60000002384,266927,266556.779,266565.2000000477,266573.441,266938.845,,4,shut
screen,html.Screen,2_3_1_0_1_5,2022-04-28T10:35:59.872Z,,,,,,,,,,,,,,,,,40,,,,,,,,,,,,,,302.9550000715535,,response,,,,9,D,,,,,,Space,keypress(Space),,,,speech,,,,------ -- ------- ---- ---- down - -------- ----- --- --<br>----- ----- ------ -- ---- -- --- - ---- -- - ----- -----<br>------ ---- ------ ---- - -------- ------- -- --- --------<br>-------- ----------- ---- ------ ---- ------ ---- --- ---<br>-------- --- -----,267242.60000002384,267241.8000000715,266922.183,266927.8000000715,266938.845,267254.551,,5,down
screen,html.Screen,2_3_1_0_1_6,2022-04-28T10:36:00.169Z,,,,,,,,,,,,,,,,,40,,,,,,,,,,,,,,284.8490000953898,,response,,,,9,D,,,,,,Space,keypress(Space),,,,speech,,,,------ -- ------- ---- ---- ---- a -------- ----- --- --<br>----- ----- ------ -- ---- -- --- - ---- -- - ----- -----<br>------ ---- ------ ---- - -------- ------- -- --- --------<br>-------- ----------- ---- ------ ---- ------ ---- --- ---<br>-------- --- -----,267540.10000002384,267539.40000009537,267237.889,267242.60000002384,267254.551,267554.337,,6,a
screen,html.Screen,2_3_1_0_1_7,2022-04-28T10:36:00.573Z,,,,,,,,,,,,,,,,,40,,,,,,,,,,,,,,389.2630000238423,,response,,,,9,D,,,,,,Space,keypress(Space),,,,speech,,,,------ -- ------- ---- ---- ---- - lemonade ----- --- --<br>----- ----- ------ -- ---- -- --- - ---- -- - ----- -----<br>------ ---- ------ ---- - -------- ------- -- --- --------<br>-------- ----------- ---- ------ ---- ------ ---- --- ---<br>-------- --- -----,267944.3000000715,267943.60000002384,267537.675,267540.3000000715,267554.337,267953.514,,7,lemonade
screen,html.Screen,2_3_1_0_1_8,2022-04-28T10:36:00.930Z,,,,,,,,,,,,,,,,,40,,,,,,,,,,,,,,346.4859999999753,,response,,,,9,D,,,,,,Space,keypress(Space),,,,speech,,,,------ -- ------- ---- ---- ---- - -------- stand --- --<br>----- ----- ------ -- ---- -- --- - ---- -- - ----- -----<br>------ ---- ------ ---- - -------- ------- -- --- --------<br>-------- ----------- ---- ------ ---- ------ ---- --- ---<br>-------- --- -----,268300.8000000715,268300,267936.852,267944.5,267953.514,268301.801,,8,stand
screen,html.Screen,2_3_1_0_1_9,2022-04-28T10:36:01.240Z,,,,,,,,,,,,,,,,,40,,,,,,,,,,,,,,308.5990000953898,,response,,,,9,D,,,,,,Space,keypress(Space),,,,speech,,,,------ -- ------- ---- ---- ---- - -------- ----- run --<br>----- ----- ------ -- ---- -- --- - ---- -- - ----- -----<br>------ ---- ------ ---- - -------- ------- -- --- --------<br>-------- ----------- ---- ------ ---- ------ ---- --- ---<br>-------- --- -----,268611.10000002384,268610.40000009537,268285.139,268300.90000009537,268301.801,268617.559,,9,run
screen,html.Screen,2_3_1_0_1_10,2022-04-28T10:36:01.635Z,,,,,,,,,,,,,,,,,40,,,,,,,,,,,,,,388.0410000238335,,response,,,,9,D,,,,,,Space,keypress(Space),,,,speech,,,,------ -- ------- ---- ---- ---- - -------- ----- --- by<br>----- ----- ------ -- ---- -- --- - ---- -- - ----- -----<br>------ ---- ------ ---- - -------- ------- -- --- --------<br>-------- ----------- ---- ------ ---- ------ ---- --- ---<br>-------- --- -----,269006.40000009537,269005.60000002384,268600.897,268611.3000000715,268617.559,269016.668,,10,by
screen,html.Screen,2_3_1_0_1_11,2022-04-28T10:36:02.093Z,,,,,,,,,,,,,,,,,40,,,,,,,,,,,,,,446.3319999999949,,response,,,,9,D,,,,,,Space,keypress(Space),,,,speech,,,,------ -- ------- ---- ---- ---- - -------- ----- --- --<br>three ----- ------ -- ---- -- --- - ---- -- - ----- -----<br>------ ---- ------ ---- - -------- ------- -- --- --------<br>-------- ----------- ---- ------ ---- ------ ---- --- ---<br>-------- --- -----,269463.7000000477,269463,269000.006,269006.5,269016.668,269465.574,,11,three
screen,html.Screen,2_3_1_0_1_12,2022-04-28T10:36:03.082Z,,,,,,,,,,,,,,,,,40,,,,,,,,,,,,,,986.8260000953451,,response,,,,9,D,,,,,,Space,keypress(Space),,,,speech,,,,------ -- ------- ---- ---- ---- - -------- ----- --- --<br>----- girls ------ -- ---- -- --- - ---- -- - ----- -----<br>------ ---- ------ ---- - -------- ------- -- --- --------<br>-------- ----------- ---- ------ ---- ------ ---- --- ---<br>-------- --- -----,270453.10000002384,270452.40000009537,269448.912,269463.90000009537,269465.574,270464.223,,12,girls
screen,html.Screen,2_3_1_0_1_13,2022-04-28T10:36:03.493Z,,,,,,,,,,,,,,,,,40,,,,,,,,,,,,,,398.8770000238437,,response,,,,9,D,,,,,,Space,keypress(Space),,,,speech,,,,------ -- ------- ---- ---- ---- - -------- ----- --- --<br>----- ----- trying -- ---- -- --- - ---- -- - ----- -----<br>------ ---- ------ ---- - -------- ------- -- --- --------<br>-------- ----------- ---- ------ ---- ------ ---- --- ---<br>-------- --- -----,270863.90000009537,270863.10000002384,270447.561,270453.3000000715,270464.223,270878.337,,13,trying
screen,html.Screen,2_3_1_0_1_14,2022-04-28T10:36:03.782Z,,,,,,,,,,,,,,,,,40,,,,,,,,,,,,,,273.66300000000047,,response,,,,9,D,,,,,,Space,keypress(Space),,,,speech,,,,------ -- ------- ---- ---- ---- - -------- ----- --- --<br>----- ----- ------ to ---- -- --- - ---- -- - ----- -----<br>------ ---- ------ ---- - -------- ------- -- --- --------<br>-------- ----------- ---- ------ ---- ------ ---- --- ---<br>-------- --- -----,271152.8000000715,271152,270861.675,270863.90000009537,270878.337,271160.709,,14,to
screen,html.Screen,2_3_1_0_1_15,2022-04-28T10:36:04.226Z,,,,,,,,,,,,,,,,,40,,,,,,,,,,,,,,435.5910000715521,,response,,,,9,D,,,,,,Space,keypress(Space),,,,speech,,,,------ -- ------- ---- ---- ---- - -------- ----- --- --<br>----- ----- ------ -- save -- --- - ---- -- - ----- -----<br>------ ---- ------ ---- - -------- ------- -- --- --------<br>-------- ----------- ---- ------ ---- ------ ---- --- ---<br>-------- --- -----,271597.10000002384,271596.3000000715,271144.047,271152.90000009537,271160.709,271609.78,,15,save
screen,html.Screen,2_3_1_0_1_16,2022-04-28T10:36:04.560Z,,,,,,,,,,,,,,,,,40,,,,,,,,,,,,,,319.9200000476558,,response,,,,9,D,,,,,,Space,keypress(Space),,,,speech,,,,------ -- ------- ---- ---- ---- - -------- ----- --- --<br>----- ----- ------ -- ---- up --- - ---- -- - ----- -----<br>------ ---- ------ ---- - -------- ------- -- --- --------<br>-------- ----------- ---- ------ ---- ------ ---- --- ---<br>-------- --- -----,271930.60000002384,271929.7000000477,271593.118,271597.2000000477,271609.78,271943.017,,16,up
screen,html.Screen,2_3_1_0_1_17,2022-04-28T10:36:04.926Z,,,,,,,,,,,,,,,,,40,,,,,,,,,,,,,,353.18300004769117,,response,,,,9,D,,,,,,Space,keypress(Space),,,,speech,,,,------ -- ------- ---- ---- ---- - -------- ----- --- --<br>----- ----- ------ -- ---- -- for - ---- -- - ----- -----<br>------ ---- ------ ---- - -------- ------- -- --- --------<br>-------- ----------- ---- ------ ---- ------ ---- --- ---<br>-------- --- -----,272297.3000000715,272296.2000000477,271926.355,271930.8000000715,271943.017,272307.711,,17,for
screen,html.Screen,2_3_1_0_1_18,2022-04-28T10:36:05.239Z,,,,,,,,,,,,,,,,,40,,,,,,,,,,,,,,301.28899999998976,,response,,,,9,D,,,,,,Space,keypress(Space),,,,speech,,,,------ -- ------- ---- ---- ---- - -------- ----- --- --<br>----- ----- ------ -- ---- -- --- a ---- -- - ----- -----<br>------ ---- ------ ---- - -------- ------- -- --- --------<br>-------- ----------- ---- ------ ---- ------ ---- --- ---<br>-------- --- -----,272609.90000009537,272609,272291.049,272297.5,272307.711,272623.404,,18,a
screen,html.Screen,2_3_1_0_1_19,2022-04-28T10:36:05.664Z,,,,,,,,,,,,,,,,,40,,,,,,,,,,,,,,410.89600007154513,,response,,,,9,D,,,,,,Space,keypress(Space),,,,speech,,,,------ -- ------- ---- ---- ---- - -------- ----- --- --<br>----- ----- ------ -- ---- -- --- - trip -- - ----- -----<br>------ ---- ------ ---- - -------- ------- -- --- --------<br>-------- ----------- ---- ------ ---- ------ ---- --- ---<br>-------- --- -----,273035.10000002384,273034.3000000715,272606.742,272610,272623.404,273039.274,,19,trip
screen,html.Screen,2_3_1_0_1_20,2022-04-28T10:36:06.162Z,,,,,,,,,,,,,,,,,40,,,,,,,,,,,,,,493.0260000715498,,response,,,,9,D,,,,,,Space,keypress(Space),,,,speech,,,,------ -- ------- ---- ---- ---- - -------- ----- --- --<br>----- ----- ------ -- ---- -- --- - ---- to - ----- -----<br>------ ---- ------ ---- - -------- ------- -- --- --------<br>-------- ----------- ---- ------ ---- ------ ---- --- ---<br>-------- --- -----,273533.10000002384,273532.3000000715,273022.612,273035.40000009537,273039.274,273538.035,,20,to
screen,html.Screen,2_3_1_0_1_21,2022-04-28T10:36:06.602Z,,,,,,,,,,,,,,,,,40,,,,,,,,,,,,,,433.9650000000256,,response,,,,9,D,,,,,,Space,keypress(Space),,,,speech,,,,------ -- ------- ---- ---- ---- - -------- ----- --- --<br>----- ----- ------ -- ---- -- --- - ---- -- a ----- -----<br>------ ---- ------ ---- - -------- ------- -- --- --------<br>-------- ----------- ---- ------ ---- ------ ---- --- ---<br>-------- --- -----,273972.90000009537,273972,273521.373,273533.3000000715,273538.035,273986.778,,21,a
screen,html.Screen,2_3_1_0_1_22,2022-04-28T10:36:06.974Z,,,,,,,,,,,,,,,,,40,,,,,,,,,,,,,,357.72200000000885,,response,,,,9,D,,,,,,Space,keypress(Space),,,,speech,,,,------ -- ------- ---- ---- ---- - -------- ----- --- --<br>----- ----- ------ -- ---- -- --- - ---- -- - water -----<br>------ ---- ------ ---- - -------- ------- -- --- --------<br>-------- ----------- ---- ------ ---- ------ ---- --- ---<br>-------- --- -----,274345.3000000715,274344.5,273970.116,273973.10000002384,273986.778,274352.296,,22,water
screen,html.Screen,2_3_1_0_1_23,2022-04-28T10:36:07.435Z,,,,,,,,,,,,,,,,,40,,,,,,,,,,,,,,452.60400009539444,,response,,,,9,D,,,,,,Space,keypress(Space),,,,speech,,,,"------ -- ------- ---- ---- ---- - -------- ----- --- --<br>----- ----- ------ -- ---- -- --- - ---- -- - ----- park,<br>------ ---- ------ ---- - -------- ------- -- --- --------<br>-------- ----------- ---- ------ ---- ------ ---- --- ---<br>-------- --- -----",274805.8000000715,274804.90000009537,274335.634,274345.60000002384,274352.296,274817.934,,23,"park,"
screen,html.Screen,2_3_1_0_1_24,2022-04-28T10:36:07.813Z,,,,,,,,,,,,,,,,,40,,,,,,,,,,,,,,364.8660000715172,,response,,,,9,D,,,,,,Space,keypress(Space),,,,speech,,,,------ -- ------- ---- ---- ---- - -------- ----- --- --<br>----- ----- ------ -- ---- -- --- - ---- -- - ----- -----<br>saying ---- ------ ---- - -------- ------- -- --- --------<br>-------- ----------- ---- ------ ---- ------ ---- --- ---<br>-------- --- -----,275183.60000002384,275182.8000000715,274801.272,274805.90000009537,274817.934,275200.084,,24,saying
screen,html.Screen,2_3_1_0_1_25,2022-04-28T10:36:08.114Z,,,,,,,,,,,,,,,,,40,,,,,,,,,,,,,,283.816000095394,,response,,,,9,D,,,,,,Space,keypress(Space),,,,speech,,,,------ -- ------- ---- ---- ---- - -------- ----- --- --<br>----- ----- ------ -- ---- -- --- - ---- -- - ----- -----<br>------ they ------ ---- - -------- ------- -- --- --------<br>-------- ----------- ---- ------ ---- ------ ---- --- ---<br>-------- --- -----,275484.8000000715,275483.90000009537,275183.422,275183.8000000715,275200.084,275499.109,,25,they
screen,html.Screen,2_3_1_0_1_26,2022-04-28T10:36:08.365Z,,,,,,,,,,,,,,,,,40,,,,,,,,,,,,,,236.09100004768698,,response,,,,9,D,,,,,,Space,keypress(Space),,,,speech,,,,------ -- ------- ---- ---- ---- - -------- ----- --- --<br>----- ----- ------ -- ---- -- --- - ---- -- - ----- -----<br>------ ---- didn't ---- - -------- ------- -- --- --------<br>-------- ----------- ---- ------ ---- ------ ---- --- ---<br>-------- --- -----,275735.90000009537,275735.2000000477,275482.447,275484.90000009537,275499.109,275748.569,,26,didn't
screen,html.Screen,2_3_1_0_1_27,2022-04-28T10:36:08.609Z,,,,,,,,,,,,,,,,,40,,,,,,,,,,,,,,231.13100004766602,,response,,,,9,D,,,,,,Space,keypress(Space),,,,speech,,,,------ -- ------- ---- ---- ---- - -------- ----- --- --<br>----- ----- ------ -- ---- -- --- - ---- -- - ----- -----<br>------ ---- ------ have - -------- ------- -- --- --------<br>-------- ----------- ---- ------ ---- ------ ---- --- ---<br>-------- --- -----,275980.40000009537,275979.7000000477,275731.907,275736.10000002384,275748.569,275981.466,,27,have
screen,html.Screen,2_3_1_0_1_28,2022-04-28T10:36:08.903Z,,,,,,,,,,,,,,,,,40,,,,,,,,,,,,,,291.3340000715107,,response,,,,9,D,,,,,,Space,keypress(Space),,,,speech,,,,------ -- ------- ---- ---- ---- - -------- ----- --- --<br>----- ----- ------ -- ---- -- --- - ---- -- - ----- -----<br>------ ---- ------ ---- a -------- ------- -- --- --------<br>-------- ----------- ---- ------ ---- ------ ---- --- ---<br>-------- --- -----,276273.60000002384,276272.8000000715,275964.804,275980.60000002384,275981.466,276280.281,,28,a
screen,html.Screen,2_3_1_0_1_29,2022-04-28T10:36:09.185Z,,,,,,,,,,,,,,,,,40,,,,,,,,,,,,,,274.9190000476665,,response,,,,9,D,,,,,,Space,keypress(Space),,,,speech,,,,------ -- ------- ---- ---- ---- - -------- ----- --- --<br>----- ----- ------ -- ---- -- --- - ---- -- - ----- -----<br>------ ---- ------ ---- - business ------- -- --- --------<br>-------- ----------- ---- ------ ---- ------ ---- --- ---<br>-------- --- -----,276555.90000009537,276555.2000000477,276263.619,276273.8000000715,276280.281,276562.795,,29,business
screen,html.Screen,2_3_1_0_1_30,2022-04-28T10:36:09.438Z,,,,,,,,,,,,,,,,,40,,,,,,,,,,,,,,245.60500009538373,,response,,,,9,D,,,,,,Space,keypress(Space),,,,speech,,,,------ -- ------- ---- ---- ---- - -------- ----- --- --<br>----- ----- ------ -- ---- -- --- - ---- -- - ----- -----<br>------ ---- ------ ---- - -------- license -- --- --------<br>-------- ----------- ---- ------ ---- ------ ---- --- ---<br>-------- --- -----,276809.3000000715,276808.40000009537,276546.133,276556.10000002384,276562.795,276812.086,,30,license
screen,html.Screen,2_3_1_0_1_31,2022-04-28T10:36:09.681Z,,,,,,,,,,,,,,,,,40,,,,,,,,,,,,,,239.61400004767347,,response,,,,9,D,,,,,,Space,keypress(Space),,,,speech,,,,------ -- ------- ---- ---- ---- - -------- ----- --- --<br>----- ----- ------ -- ---- -- --- - ---- -- - ----- -----<br>------ ---- ------ ---- - -------- ------- or --- --------<br>-------- ----------- ---- ------ ---- ------ ---- --- ---<br>-------- --- -----,277052.40000009537,277051.7000000477,276795.424,276809.40000009537,276812.086,277061.35,,31,or
screen,html.Screen,2_3_1_0_1_32,2022-04-28T10:36:09.947Z,,,,,,,,,,,,,,,,,40,,,,,,,,,,,,,,256.25000002386514,,response,,,,9,D,,,,,,Space,keypress(Space),,,,speech,,,,------ -- ------- ---- ---- ---- - -------- ----- --- --<br>----- ----- ------ -- ---- -- --- - ---- -- - ----- -----<br>------ ---- ------ ---- - -------- ------- -- the --------<br>-------- ----------- ---- ------ ---- ------ ---- --- ---<br>-------- --- -----,277318.3000000715,277317.60000002384,277044.688,277052.5,277061.35,277327.403,,32,the
screen,html.Screen,2_3_1_0_1_33,2022-04-28T10:36:10.210Z,,,,,,,,,,,,,,,,,40,,,,,,,,,,,,,,252.89700007153442,,response,,,,9,D,,,,,,Space,keypress(Space),,,,speech,,,,------ -- ------- ---- ---- ---- - -------- ----- --- --<br>----- ----- ------ -- ---- -- --- - ---- -- - ----- -----<br>------ ---- ------ ---- - -------- ------- -- --- required<br>-------- ----------- ---- ------ ---- ------ ---- --- ---<br>-------- --- -----,277581.10000002384,277580.3000000715,277310.741,277318.5,277327.403,277593.375,,33,required
screen,html.Screen,2_3_1_0_1_34,2022-04-28T10:36:10.505Z,,,,,,,,,,,,,,,,,40,,,,,,,,,,,,,,281.52500009536743,,response,,,,9,D,,,,,,Space,keypress(Space),,,,speech,,,,------ -- ------- ---- ---- ---- - -------- ----- --- --<br>----- ----- ------ -- ---- -- --- - ---- -- - ----- -----<br>------ ---- ------ ---- - -------- ------- -- --- --------<br>permits. ----------- ---- ------ ---- ------ ---- --- ---<br>-------- --- -----,277875.7000000477,277874.90000009537,277576.713,277581.2000000477,277593.375,277876.559,,34,permits.
screen,html.Screen,2_3_1_0_1_35,2022-04-28T10:36:10.762Z,,,,,,,,,,,,,,,,,40,,,,,,,,,,,,,,255.64100004767533,,response,,,,9,D,,,,,,Space,keypress(Space),,,,speech,,,,------ -- ------- ---- ---- ---- - -------- ----- --- --<br>----- ----- ------ -- ---- -- --- - ---- -- - ----- -----<br>------ ---- ------ ---- - -------- ------- -- --- --------<br>-------- Morningstar ---- ------ ---- ------ ---- --- ---<br>-------- --- -----,278132.90000009537,278132.2000000477,277859.897,277875.90000009537,277876.559,278141.882,,35,Morningstar
screen,html.Screen,2_3_1_0_1_36,2022-04-28T10:36:11.420Z,,,,,,,,,,,,,,,,,40,,,,,,,,,,,,,,648.0180000953842,,response,,,,9,D,,,,,,Space,keypress(Space),,,,speech,,,,------ -- ------- ---- ---- ---- - -------- ----- --- --<br>----- ----- ------ -- ---- -- --- - ---- -- - ----- -----<br>------ ---- ------ ---- - -------- ------- -- --- --------<br>-------- ----------- says ------ ---- ------ ---- --- ---<br>-------- --- -----,278790.7000000477,278789.90000009537,278125.22,278133.10000002384,278141.882,278807.754,,36,says
screen,html.Screen,2_3_1_0_1_37,2022-04-28T10:36:11.762Z,,,,,,,,,,,,,,,,,40,,,,,,,,,,,,,,324.14600009535206,,response,,,,9,D,,,,,,Space,keypress(Space),,,,speech,,,,------ -- ------- ---- ---- ---- - -------- ----- --- --<br>----- ----- ------ -- ---- -- --- - ---- -- - ----- -----<br>------ ---- ------ ---- - -------- ------- -- --- --------<br>-------- ----------- ---- police ---- ------ ---- --- ---<br>-------- --- -----,279132.60000002384,279131.90000009537,278791.092,278790.90000009537,278807.754,279139.424,,37,police
screen,html.Screen,2_3_1_0_1_38,2022-04-28T10:36:12.086Z,,,,,,,,,,,,,,,,,40,,,,,,,,,,,,,,317.1760000238428,,response,,,,9,D,,,,,,Space,keypress(Space),,,,speech,,,,------ -- ------- ---- ---- ---- - -------- ----- --- --<br>----- ----- ------ -- ---- -- --- - ---- -- - ----- -----<br>------ ---- ------ ---- - -------- ------- -- --- --------<br>-------- ----------- ---- ------ also ------ ---- --- ---<br>-------- --- -----,279457.3000000715,279456.60000002384,279122.762,279132.8000000715,279139.424,279471.801,,38,also
screen,html.Screen,2_3_1_0_1_39,2022-04-28T10:36:12.419Z,,,,,,,,,,,,,,,,,40,,,,,,,,,,,,,,316.9990000715479,,response,,,,9,D,,,,,,Space,keypress(Space),,,,speech,,,,------ -- ------- ---- ---- ---- - -------- ----- --- --<br>----- ----- ------ -- ---- -- --- - ---- -- - ----- -----<br>------ ---- ------ ---- - -------- ------- -- --- --------<br>-------- ----------- ---- ------ ---- didn't ---- --- ---<br>-------- --- -----,279789.5,279788.8000000715,279455.139,279457.5,279471.801,279804.297,,39,didn't
screen,html.Screen,2_3_1_0_1_40,2022-04-28T10:36:12.752Z,,,,,,,,,,,,,,,,,40,,,,,,,,,,,,,,318.10300009534694,,response,,,,9,D,,,,,,Space,keypress(Space),,,,speech,,,,------ -- ------- ---- ---- ---- - -------- ----- --- --<br>----- ----- ------ -- ---- -- --- - ---- -- - ----- -----<br>------ ---- ------ ---- - -------- ------- -- --- --------<br>-------- ----------- ---- ------ ---- ------ know --- ---<br>-------- --- -----,280123.10000002384,280122.40000009537,279787.635,279789.7000000477,279804.297,280136.703,,40,know
screen,html.Screen,2_3_1_0_1_41,2022-04-28T10:36:13.070Z,,,,,,,,,,,,,,,,,40,,,,,,,,,,,,,,303.1970000953879,,response,,,,9,D,,,,,,Space,keypress(Space),,,,speech,,,,------ -- ------- ---- ---- ---- - -------- ----- --- --<br>----- ----- ------ -- ---- -- --- - ---- -- - ----- -----<br>------ ---- ------ ---- - -------- ------- -- --- --------<br>-------- ----------- ---- ------ ---- ------ ---- how ---<br>-------- --- -----,280441,280439.90000009537,280120.041,280123.2000000477,280136.703,280453.289,,41,how
screen,html.Screen,2_3_1_0_1_42,2022-04-28T10:36:13.535Z,,,,,,,,,,,,,,,,,40,,,,,,,,,,,,,,451.41100004769396,,response,,,,9,D,,,,,,Space,keypress(Space),,,,speech,,,,------ -- ------- ---- ---- ---- - -------- ----- --- --<br>----- ----- ------ -- ---- -- --- - ---- -- - ----- -----<br>------ ---- ------ ---- - -------- ------- -- --- --------<br>-------- ----------- ---- ------ ---- ------ ---- --- the<br>-------- --- -----,280905.5,280904.7000000477,280436.627,280441.2000000477,280453.289,280918.26,,42,the
screen,html.Screen,2_3_1_0_1_43,2022-04-28T10:36:14.063Z,,,,,,,,,,,,,,,,,40,,,,,,,,,,,,,,514.5400000715163,,response,,,,9,D,,,,,,Space,keypress(Space),,,,speech,,,,------ -- ------- ---- ---- ---- - -------- ----- --- --<br>----- ----- ------ -- ---- -- --- - ---- -- - ----- -----<br>------ ---- ------ ---- - -------- ------- -- --- --------<br>-------- ----------- ---- ------ ---- ------ ---- --- ---<br>lemonade --- -----,281433.8000000715,281432.8000000715,280901.598,280905.8000000715,280918.26,281450.29,,43,lemonade
screen,html.Screen,2_3_1_0_1_44,2022-04-28T10:36:14.485Z,,,,,,,,,,,,,,,,,40,,,,,,,,,,,,,,404.8100000238628,,response,,,,9,D,,,,,,Space,keypress(Space),,,,speech,,,,------ -- ------- ---- ---- ---- - -------- ----- --- --<br>----- ----- ------ -- ---- -- --- - ---- -- - ----- -----<br>------ ---- ------ ---- - -------- ------- -- --- --------<br>-------- ----------- ---- ------ ---- ------ ---- --- ---<br>-------- was -----,281855.90000009537,281855.10000002384,281433.628,281434,281450.29,281865.635,,44,was
screen,html.Screen,2_3_1_0_1_45,2022-04-28T10:36:16.196Z,,,,,,,,,,,,,,,,,40,,,,,,,,,,,,,,1700.6650000715163,,response,,,,9,D,,,,,,Space,keypress(Space),,,,speech,,,,------ -- ------- ---- ---- ---- - -------- ----- --- --<br>----- ----- ------ -- ---- -- --- - ---- -- - ----- -----<br>------ ---- ------ ---- - -------- ------- -- --- --------<br>-------- ----------- ---- ------ ---- ------ ---- --- ---<br>-------- --- made.,283567.10000002384,283566.3000000715,281848.973,281856.10000002384,281865.635,283580.758,,45,made.
Item 9,flow.Loop,2_3_1_0_1,2022-04-28T10:36:16.196Z,,,,,,,,,,,,,,,,,,,,,,,,,,,,,,,20729.552000071504,,completion,,,,,,,,,,,,,,,,,,,,,283567.40000009537,283566.3000000715,262820.086,262821.60000002384,262836.748,283580.758,,,
Question 1,html.Screen,2_3_1_0_2,2022-04-28T10:36:20.510Z,,,,,,,,,,,,,,,,,,,,,,,,,,,,true,FALSE,,4299.2420000000275,,response,,,,9,D,,,,,,FALSE,click #choice-2,,,,speech,,,,,287881.2000000477,287880,283564.096,283567.5,283580.758,287884.365,,,
Question 2,html.Screen,2_3_1_0_3,2022-04-28T10:36:23.116Z,,,,,,,,,,,,,,,,,,,,,,,,,,,,true,FALSE,,2601.435000071535,,response,,,,9,D,,,,,,FALSE,click #choice-2,,,,speech,,,,,290487,290485.8000000715,287867.703,287881.3000000715,287884.365,290492.42,,,
