sender,sender_type,sender_id,timestamp,meta,,Blues,Classical,Country,Dance,Electronic,Folk,Gospel,Hip-Hop,Jazz,Latin,Musical/Film,New-age,Pop,Prolific_id,Provo_ID,R&B,Rap,Reggae,Religious,Rock,Soul,Swing,Traditional,age,artist_name,correct,correctResponse,distraction,duration,education,ended_on,familiarity,gender,headphone_check_performance,item,list,music_frequency,offensiveness,pleasantness,position_correct,preference,response,response_action,snippet_file,song_name,song_rating,sound,stimulus_1,stimulus_2,stimulus_3,text,time_commit,time_end,time_render,time_run,time_show,time_switch,url,word,word_ID
Prolific ID,html.Form,0,2022-04-27T13:38:55.153Z,"{""labjs_version"":""20.2.2"",""labjs_build"":{""flavor"":""production"",""commit"":""a25486e0c714a0ae2ce03ff94b7bb6896854dcfa""},""location"":""https://run.pavlovia.org/mvasilev/prolific3_music_c/"",""userAgent"":""Mozilla/5.0 (Macintosh; Intel Mac OS X 10_15_7) AppleWebKit/537.36 (KHTML, like Gecko) Chrome/101.0.4951.41 Safari/537.36"",""platform"":""MacIntel"",""language"":""en-GB"",""locale"":""en-GB"",""timeZone"":""Europe/London"",""timezoneOffset"":-60,""screen_width"":1440,""screen_height"":900,""scroll_width"":1178,""scroll_height"":716,""window_innerWidth"":1178,""window_innerHeight"":764,""devicePixelRatio"":2}",,,,,,,,,,,,,,,5dd11840d690721b2469a344,,,,,,,,,,,,,,,8638.993,,form submission,,,,,,,,,,,,,,,,,,,,,15343.5,15343,6687.341,6696.700000001118,6704.007,15343.908,{},,
Introduction,html.Screen,1_0,2022-04-27T13:39:00.416Z,,,,,,,,,,,,,,,,,,,,,,,,,,,,,,,5259.092000000001,,response,,,,,,,,,,,continue,click button,,,,,,,,,20606.400000000373,20603,15327.242,15343.900000000373,15343.908,20610.364,,,
Volume calibration,html.Screen,1_1,2022-04-27T13:39:33.407Z,,,,,,,,,,,,,,,,,,,,,,,,,,,,,,,32984.636,,response,,,,,,,,,,,continue,click button,,,,,,,,,53598.10000000149,53595,20593.698,20606.700000001118,20610.364,53603.413,,,
Task instructions,html.Screen,1_2,2022-04-27T13:39:46.027Z,,,,,,,,,,,,,,,,,,,,,,,,,,,,,,,12611.68700000149,,response,,,,,,,,,,,continue,click button,,,,,,,,,66218.10000000149,66215.10000000149,53586.747,53598.300000000745,53603.413,66229.722,,,
Sounds,html.Screen,1_3_0_0,2022-04-27T13:39:50.283Z,,,,,,,,,,,,,,,,,,,,,,,,,,,,,,,4257,,timeout,,,,,,,,,2,,,,,,,,I,S,O,,70474,70470.056,66213.056,66218.5,66229.722,70486.722,,,
Judgement,html.Screen,1_3_0_1,2022-04-27T13:39:52.552Z,,,,,,,,,,,,,,,,,,,,,,,,,,,,true,2,,2253.6780000003782,,response,,,,,,,,,2,,2,click #choice-2,,,,,I,S,O,,72743.20000000112,72740.40000000037,70470.056,70474.20000000112,70486.722,72753.298,,,
Trial,flow.Sequence,1_3_0,2022-04-27T13:39:52.553Z,,,,,,,,,,,,,,,,,,,,,,,,,,,,,,,6510.678000000378,,completion,,,,,,,,,2,,,,,,,,I,S,O,,72743.70000000112,72740.40000000037,66213.056,66218.40000000037,66229.722,72753.298,,,
Sounds,html.Screen,1_3_1_0,2022-04-27T13:39:56.798Z,,,,,,,,,,,,,,,,,,,,,,,,,,,,,,,4249.830000000002,,timeout,,,,,,,,,3,,,,,,,,O,I,S,,76988.70000000112,76986.462,72736.632,72743.80000000075,72753.298,77003.128,,,
Judgement,html.Screen,1_3_1_1,2022-04-27T13:39:57.383Z,,,,,,,,,,,,,,,,,,,,,,,,,,,,true,3,,567.872000000003,,response,,,,,,,,,3,,3,click #choice-3,,,,,O,I,S,,77573.90000000037,77571,76986.462,76988.90000000037,77003.128,77576.517,,,
Trial,flow.Sequence,1_3_1,2022-04-27T13:39:57.383Z,,,,,,,,,,,,,,,,,,,,,,,,,,,,,,,4817.702000000005,,completion,,,,,,,,,3,,,,,,,,O,I,S,,77574.40000000037,77571,72736.632,72743.80000000075,72753.298,77576.517,,,
Sounds,html.Screen,1_3_2_0,2022-04-27T13:40:01.621Z,,,,,,,,,,,,,,,,,,,,,,,,,,,,,,,4249.829999999987,,timeout,,,,,,,,,3,,,,,,,,I,O,S,,81811.70000000112,81809.681,77559.851,77574.80000000075,77576.517,81826.347,,,
Judgement,html.Screen,1_3_2_1,2022-04-27T13:40:02.253Z,,,,,,,,,,,,,,,,,,,,,,,,,,,,true,3,,615.0530000003782,,response,,,,,,,,,3,,3,click #choice-3,,,,,I,O,S,,82444.5,82441.40000000037,81809.681,81811.90000000037,81826.347,82459.655,,,
Trial,flow.Sequence,1_3_2,2022-04-27T13:40:02.254Z,,,,,,,,,,,,,,,,,,,,,,,,,,,,,,,4864.883000000365,,completion,,,,,,,,,3,,,,,,,,I,O,S,,82444.80000000075,82441.40000000037,77559.851,77574.70000000112,77576.517,82459.655,,,
Sounds,html.Screen,1_3_3_0,2022-04-27T13:40:06.504Z,,,,,,,,,,,,,,,,,,,,,,,,,,,,,,,4249.830000000002,,timeout,,,,,,,,,2,,,,,,,,O,S,I,,86695.10000000149,86692.819,82442.989,82445,82459.655,86709.485,,,
Judgement,html.Screen,1_3_3_1,2022-04-27T13:40:07.203Z,,,,,,,,,,,,,,,,,,,,,,,,,,,,true,2,,681.3150000007445,,response,,,,,,,,,2,,2,click #choice-2,,,,,O,S,I,,87393.70000000112,87390.80000000075,86692.819,86695.30000000075,86709.485,87409.457,,,
Trial,flow.Sequence,1_3_3,2022-04-27T13:40:07.203Z,,,,,,,,,,,,,,,,,,,,,,,,,,,,,,,4931.145000000746,,completion,,,,,,,,,2,,,,,,,,O,S,I,,87393.90000000037,87390.80000000075,82442.989,82444.90000000037,82459.655,87409.457,,,
Sounds,html.Screen,1_3_4_0,2022-04-27T13:40:11.454Z,,,,,,,,,,,,,,,,,,,,,,,,,,,,,,,4249.830000000002,,timeout,,,,,,,,,1,,,,,,,,S,O,I,,91644.60000000149,91642.621,87392.791,87394.20000000112,87409.457,91659.287,,,
Judgement,html.Screen,1_3_4_1,2022-04-27T13:40:12.100Z,,,,,,,,,,,,,,,,,,,,,,,,,,,,true,1,,630.0130000007484,,response,,,,,,,,,1,,1,click #choice-1,,,,,S,O,I,,92291.30000000075,92289.30000000075,91642.621,91644.90000000037,91659.287,92304.867,,,
Trial,flow.Sequence,1_3_4,2022-04-27T13:40:12.100Z,,,,,,,,,,,,,,,,,,,,,,,,,,,,,,,4879.84300000075,,completion,,,,,,,,,1,,,,,,,,S,O,I,,92291.40000000037,92289.30000000075,87392.791,87394.10000000149,87409.457,92304.867,,,
Sounds,html.Screen,1_3_5_0,2022-04-27T13:40:16.349Z,,,,,,,,,,,,,,,,,,,,,,,,,,,,,,,4249.830000000002,,timeout,,,,,,,,,1,,,,,,,,S,I,O,,96540.5,96538.031,92288.201,92291.5,92304.867,96554.697,,,
Judgement,html.Screen,1_3_5_1,2022-04-27T13:40:17.038Z,,,,,,,,,,,,,,,,,,,,,,,,,,,,true,1,,671.0030000011175,,response,,,,,,,,,1,,1,click #choice-1,,,,,S,I,O,,97228.70000000112,97225.70000000112,96538.031,96540.80000000075,96554.697,97238.003,,,
Trial,flow.Sequence,1_3_5,2022-04-27T13:40:17.038Z,,,,,,,,,,,,,,,,,,,,,,,,,,,,,,,4920.833000001119,,completion,,,,,,,,,1,,,,,,,,S,I,O,,97229,97225.70000000112,92288.201,92291.5,92304.867,97238.003,,,
Task,flow.Loop,1_3,2022-04-27T13:40:17.045Z,,,,,,,,,,,,,,,,,,,,,,,,,,,,,,,30995.978000001123,,completion,,,1,,,,,,,,,,,,,,,,,,97236.30000000075,97225.70000000112,66213.056,66218.30000000075,66229.722,97238.003,,,
Trap,html.Screen,1_4,2022-04-27T13:40:17.046Z,,,,,,,,,,,,,,,,,,,,,,,,,,,,,,,NaN,,skipped,,,,,,,,,,,,,,,,,,,,,97237.60000000149,97225.70000000112,,97237.40000000037,,97238.003,,,
Thanks,html.Screen,1_5,2022-04-27T13:40:20.545Z,,,,,,,,,,,,,,,,,,,,,,,,,,,,,,,3495.497000000003,,response,,,,,,,,,,,continue,click button,,,,,,,,,100736.5,100733.5,97221.337,97237.60000000149,97238.003,104774.978,,,
Headphone screening,flow.Sequence,1,2022-04-27T13:40:20.546Z,,,,,,,,,,,,,,,,,,,,,,,,,,,,,,,85389.592,,completion,,,,,,,,,,,,,,,,,,,,,100736.80000000075,100733.5,15327.242,15343.800000000745,15343.908,104774.978,,,
Instructions,html.Page,2_0,2022-04-27T13:40:46.570Z,,,,,,,,,,,,,,,,,,,,,,,,,,,,,,,21985.42200000037,,form submission,,,,,,,,,,,,,,,,,,,,,126760.90000000037,126760.40000000037,104758.312,104768.20000000112,104774.978,126758.582,,,
Holding screen,html.Screen,2_1_0_0,2022-04-27T13:40:56.552Z,,,,,,,,,,,,,,,,,,,,,,,,,,,,,,,9999.600000000006,,timeout,,,,,,,,,,,,,,,,,,,,,136743.80000000075,136741.516,126741.916,126761.20000000112,126758.582,136758.182,,,
screen,html.Screen,2_1_0_1_0,2022-04-27T13:41:03.820Z,,,,,,,,,,,,,,,,,53,,,,,,,,,,,,,,7247.718000000372,,response,,,,99,,,,,,,Space,keypress(Space),,,,,,,,When -- ----- -- ------ - ------- --- ----------<br>------------- ------ ------ ---- ---- ------- ----- -- ----<br>-------- ------- -- ---------- --- - --- ----- ----- ----<br>---- --- --- ----- --- ---- ---- ------- ----- ---- -------<br>--- --- -- ----- -- --- ---- -- --- ---- -- ------ ------<br>--- ----- -- ----,144011,144005.90000000037,136741.516,136744.20000000112,136758.182,144024.558,,0,When
screen,html.Screen,2_1_0_1_1,2022-04-27T13:41:04.320Z,,,,,,,,,,,,,,,,,53,,,,,,,,,,,,,,480.6420000011276,,response,,,,99,,,,,,,Space,keypress(Space),,,,,,,,---- it ----- -- ------ - ------- --- ----------<br>------------- ------ ------ ---- ---- ------- ----- -- ----<br>-------- ------- -- ---------- --- - --- ----- ----- ----<br>---- --- --- ----- --- ---- ---- ------- ----- ---- -------<br>--- --- -- ----- -- --- ---- -- --- ---- -- ------ ------<br>--- ----- -- ----,144511.40000000037,144505.20000000112,144007.892,144011.1000000015,144024.558,144525.981,,1,it
screen,html.Screen,2_1_0_1_2,2022-04-27T13:41:04.766Z,,,,,,,,,,,,,,,,,53,,,,,,,,,,,,,,425.61900000149035,,response,,,,99,,,,,,,Space,keypress(Space),,,,,,,,---- -- comes -- ------ - ------- --- ----------<br>------------- ------ ------ ---- ---- ------- ----- -- ----<br>-------- ------- -- ---------- --- - --- ----- ----- ----<br>---- --- --- ----- --- ---- ---- ------- ----- ---- -------<br>--- --- -- ----- -- --- ---- -- --- ---- -- ------ ------<br>--- ----- -- ----,144957.70000000112,144951.6000000015,144509.315,144511.5,144525.981,144959.297,,2,comes
screen,html.Screen,2_1_0_1_3,2022-04-27T13:41:05.121Z,,,,,,,,,,,,,,,,,53,,,,,,,,,,,,,,346.7030000000086,,response,,,,99,,,,,,,Space,keypress(Space),,,,,,,,---- -- ----- to ------ - ------- --- ----------<br>------------- ------ ------ ---- ---- ------- ----- -- ----<br>-------- ------- -- ---------- --- - --- ----- ----- ----<br>---- --- --- ----- --- ---- ---- ------- ----- ---- -------<br>--- --- -- ----- -- --- ---- -- --- ---- -- ------ ------<br>--- ----- -- ----,145312,145306,144942.631,144957.80000000075,144959.297,145325.949,,3,to
screen,html.Screen,2_1_0_1_4,2022-04-27T13:41:05.378Z,,,,,,,,,,,,,,,,,53,,,,,,,,,,,,,,237.75100000112434,,response,,,,99,,,,,,,Space,keypress(Space),,,,,,,,---- -- ----- -- having - ------- --- ----------<br>------------- ------ ------ ---- ---- ------- ----- -- ----<br>-------- ------- -- ---------- --- - --- ----- ----- ----<br>---- --- --- ----- --- ---- ---- ------- ----- ---- -------<br>--- --- -- ----- -- --- ---- -- --- ---- -- ------ ------<br>--- ----- -- ----,145569.20000000112,145563.70000000112,145309.283,145312.30000000075,145325.949,145575.939,,4,having
screen,html.Screen,2_1_0_1_5,2022-04-27T13:41:05.811Z,,,,,,,,,,,,,,,,,53,,,,,,,,,,,,,,420.6610000014771,,response,,,,99,,,,,,,Space,keypress(Space),,,,,,,,---- -- ----- -- ------ a ------- --- ----------<br>------------- ------ ------ ---- ---- ------- ----- -- ----<br>-------- ------- -- ---------- --- - --- ----- ----- ----<br>---- --- --- ----- --- ---- ---- ------- ----- ---- -------<br>--- --- -- ----- -- --- ---- -- --- ---- -- ------ ------<br>--- ----- -- ----,146002.1000000015,145996.6000000015,145559.273,145569.30000000075,145575.939,146009.255,,5,a
screen,html.Screen,2_1_0_1_6,2022-04-27T13:41:06.110Z,,,,,,,,,,,,,,,,,53,,,,,,,,,,,,,,286.34500000148546,,response,,,,99,,,,,,,Space,keypress(Space),,,,,,,,---- -- ----- -- ------ - lasting --- ----------<br>------------- ------ ------ ---- ---- ------- ----- -- ----<br>-------- ------- -- ---------- --- - --- ----- ----- ----<br>---- --- --- ----- --- ---- ---- ------- ----- ---- -------<br>--- --- -- ----- -- --- ---- -- --- ---- -- ------ ------<br>--- ----- -- ----,146302,146295.6000000015,145992.589,146002.30000000075,146009.255,146309.243,,6,lasting
screen,html.Screen,2_1_0_1_7,2022-04-27T13:41:06.385Z,,,,,,,,,,,,,,,,,53,,,,,,,,,,,,,,261.5570000007574,,response,,,,99,,,,,,,Space,keypress(Space),,,,,,,,---- -- ----- -- ------ - ------- and ----------<br>------------- ------ ------ ---- ---- ------- ----- -- ----<br>-------- ------- -- ---------- --- - --- ----- ----- ----<br>---- --- --- ----- --- ---- ---- ------- ----- ---- -------<br>--- --- -- ----- -- --- ---- -- --- ---- -- ------ ------<br>--- ----- -- ----,146576.70000000112,146570.80000000075,146292.577,146302,146309.243,146592.565,,7,and
screen,html.Screen,2_1_0_1_8,2022-04-27T13:41:06.602Z,,,,,,,,,,,,,,,,,53,,,,,,,,,,,,,,195.3350000003702,,response,,,,99,,,,,,,Space,keypress(Space),,,,,,,,---- -- ----- -- ------ - ------- --- fulfilling<br>------------- ------ ------ ---- ---- ------- ----- -- ----<br>-------- ------- -- ---------- --- - --- ----- ----- ----<br>---- --- --- ----- --- ---- ---- ------- ----- ---- -------<br>--- --- -- ----- -- --- ---- -- --- ---- -- ------ ------<br>--- ----- -- ----,146793.80000000075,146787.90000000037,146575.899,146576.80000000075,146592.565,146809.223,,8,fulfilling
screen,html.Screen,2_1_0_1_9,2022-04-27T13:41:07.112Z,,,,,,,,,,,,,,,,,53,,,,,,,,,,,,,,488.47700000111945,,response,,,,99,,,,,,,Space,keypress(Space),,,,,,,,"---- -- ----- -- ------ - ------- --- ----------<br>relationship, ------ ------ ---- ---- ------- ----- -- ----<br>-------- ------- -- ---------- --- - --- ----- ----- ----<br>---- --- --- ----- --- ---- ---- ------- ----- ---- -------<br>--- --- -- ----- -- --- ---- -- --- ---- -- ------ ------<br>--- ----- -- ----",147303.5,147297.70000000112,146792.557,146793.90000000037,146809.223,147309.203,,9,"relationship,"
screen,html.Screen,2_1_0_1_10,2022-04-27T13:41:07.942Z,,,,,,,,,,,,,,,,,53,,,,,,,,,,,,,,818.3970000014815,,response,,,,99,,,,,,,Space,keypress(Space),,,,,,,,---- -- ----- -- ------ - ------- --- ----------<br>------------- common ------ ---- ---- ------- ----- -- ----<br>-------- ------- -- ---------- --- - --- ----- ----- ----<br>---- --- --- ----- --- ---- ---- ------- ----- ---- -------<br>--- --- -- ----- -- --- ---- -- --- ---- -- ------ ------<br>--- ----- -- ----,148133.6000000015,148127.6000000015,147292.537,147303.6000000015,147309.203,148142.696,,10,common
screen,html.Screen,2_1_0_1_11,2022-04-27T13:41:08.213Z,,,,,,,,,,,,,,,,,53,,,,,,,,,,,,,,255.90400000149384,,response,,,,99,,,,,,,Space,keypress(Space),,,,,,,,---- -- ----- -- ------ - ------- --- ----------<br>------------- ------ wisdom ---- ---- ------- ----- -- ----<br>-------- ------- -- ---------- --- - --- ----- ----- ----<br>---- --- --- ----- --- ---- ---- ------- ----- ---- -------<br>--- --- -- ----- -- --- ---- -- --- ---- -- ------ ------<br>--- ----- -- ----,148404.30000000075,148398.6000000015,148126.03,148133.70000000112,148142.696,148409.352,,11,wisdom
screen,html.Screen,2_1_0_1_12,2022-04-27T13:41:08.439Z,,,,,,,,,,,,,,,,,53,,,,,,,,,,,,,,215.1479999999865,,response,,,,99,,,,,,,Space,keypress(Space),,,,,,,,---- -- ----- -- ------ - ------- --- ----------<br>------------- ------ ------ says ---- ------- ----- -- ----<br>-------- ------- -- ---------- --- - --- ----- ----- ----<br>---- --- --- ----- --- ---- ---- ------- ----- ---- -------<br>--- --- -- ----- -- --- ---- -- --- ---- -- ------ ------<br>--- ----- -- ----,148630.80000000075,148624.5,148392.686,148404.40000000037,148409.352,148642.676,,12,says
screen,html.Screen,2_1_0_1_13,2022-04-27T13:41:08.745Z,,,,,,,,,,,,,,,,,53,,,,,,,,,,,,,,287.82399999999325,,response,,,,99,,,,,,,Space,keypress(Space),,,,,,,,---- -- ----- -- ------ - ------- --- ----------<br>------------- ------ ------ ---- that ------- ----- -- ----<br>-------- ------- -- ---------- --- - --- ----- ----- ----<br>---- --- --- ----- --- ---- ---- ------- ----- ---- -------<br>--- --- -- ----- -- --- ---- -- --- ---- -- ------ ------<br>--- ----- -- ----,148936.5,148930.5,148626.01,148630.90000000037,148642.676,148942.664,,13,that
screen,html.Screen,2_1_0_1_14,2022-04-27T13:41:09.098Z,,,,,,,,,,,,,,,,,53,,,,,,,,,,,,,,340.93600000150036,,response,,,,99,,,,,,,Space,keypress(Space),,,,,,,,---- -- ----- -- ------ - ------- --- ----------<br>------------- ------ ------ ---- ---- feeling ----- -- ----<br>-------- ------- -- ---------- --- - --- ----- ----- ----<br>---- --- --- ----- --- ---- ---- ------- ----- ---- -------<br>--- --- -- ----- -- --- ---- -- --- ---- -- ------ ------<br>--- ----- -- ----,149289.40000000037,149283.6000000015,148925.998,148936.70000000112,148942.664,149292.65,,14,feeling
screen,html.Screen,2_1_0_1_15,2022-04-27T13:41:09.455Z,,,,,,,,,,,,,,,,,53,,,,,,,,,,,,,,348.3500000000058,,response,,,,99,,,,,,,Space,keypress(Space),,,,,,,,---- -- ----- -- ------ - ------- --- ----------<br>------------- ------ ------ ---- ---- ------- close -- ----<br>-------- ------- -- ---------- --- - --- ----- ----- ----<br>---- --- --- ----- --- ---- ---- ------- ----- ---- -------<br>--- --- -- ----- -- --- ---- -- --- ---- -- ------ ------<br>--- ----- -- ----,149646.5,149641,149275.984,149289.5,149292.65,149659.302,,15,close
screen,html.Screen,2_1_0_1_16,2022-04-27T13:41:09.740Z,,,,,,,,,,,,,,,,,53,,,,,,,,,,,,,,266.2980000014941,,response,,,,99,,,,,,,Space,keypress(Space),,,,,,,,---- -- ----- -- ------ - ------- --- ----------<br>------------- ------ ------ ---- ---- ------- ----- to ----<br>-------- ------- -- ---------- --- - --- ----- ----- ----<br>---- --- --- ----- --- ---- ---- ------- ----- ---- -------<br>--- --- -- ----- -- --- ---- -- --- ---- -- ------ ------<br>--- ----- -- ----,149931.20000000112,149925.6000000015,149642.636,149646.70000000112,149659.302,149942.624,,16,to
screen,html.Screen,2_1_0_1_17,2022-04-27T13:41:09.903Z,,,,,,,,,,,,,,,,,53,,,,,,,,,,,,,,145.8759999999893,,response,,,,99,,,,,,,Space,keypress(Space),,,,,,,,---- -- ----- -- ------ - ------- --- ----------<br>------------- ------ ------ ---- ---- ------- ----- -- your<br>-------- ------- -- ---------- --- - --- ----- ----- ----<br>---- --- --- ----- --- ---- ---- ------- ----- ---- -------<br>--- --- -- ----- -- --- ---- -- --- ---- -- ------ ------<br>--- ----- -- ----,150094.40000000037,150088.5,149925.958,149931.40000000037,149942.624,150109.284,,17,your
screen,html.Screen,2_1_0_1_18,2022-04-27T13:41:10.343Z,,,,,,,,,,,,,,,,,53,,,,,,,,,,,,,,419.6160000003583,,response,,,,99,,,,,,,Space,keypress(Space),,,,,,,,---- -- ----- -- ------ - ------- --- ----------<br>------------- ------ ------ ---- ---- ------- ----- -- ----<br>romantic ------- -- ---------- --- - --- ----- ----- ----<br>---- --- --- ----- --- ---- ---- ------- ----- ---- -------<br>--- --- -- ----- -- --- ---- -- --- ---- -- ------ ------<br>--- ----- -- ----,150534.6000000015,150528.90000000037,150092.618,150094.6000000015,150109.284,150542.6,,18,romantic
screen,html.Screen,2_1_0_1_19,2022-04-27T13:41:10.583Z,,,,,,,,,,,,,,,,,53,,,,,,,,,,,,,,225.89999999999418,,response,,,,99,,,,,,,Space,keypress(Space),,,,,,,,---- -- ----- -- ------ - ------- --- ----------<br>------------- ------ ------ ---- ---- ------- ----- -- ----<br>-------- partner -- ---------- --- - --- ----- ----- ----<br>---- --- --- ----- --- ---- ---- ------- ----- ---- -------<br>--- --- -- ----- -- --- ---- -- --- ---- -- ------ ------<br>--- ----- -- ----,150774.40000000037,150768.5,150525.934,150534.70000000112,150542.6,150775.924,,19,partner
screen,html.Screen,2_1_0_1_20,2022-04-27T13:41:10.831Z,,,,,,,,,,,,,,,,,53,,,,,,,,,,,,,,240.97600000037346,,response,,,,99,,,,,,,Space,keypress(Space),,,,,,,,---- -- ----- -- ------ - ------- --- ----------<br>------------- ------ ------ ---- ---- ------- ----- -- ----<br>-------- ------- is ---------- --- - --- ----- ----- ----<br>---- --- --- ----- --- ---- ---- ------- ----- ---- -------<br>--- --- -- ----- -- --- ---- -- --- ---- -- ------ ------<br>--- ----- -- ----,151022.70000000112,151016.90000000037,150759.258,150774.6000000015,150775.924,151025.914,,20,is
screen,html.Screen,2_1_0_1_21,2022-04-27T13:41:11.104Z,,,,,,,,,,,,,,,,,53,,,,,,,,,,,,,,264.28600000112783,,response,,,,99,,,,,,,Space,keypress(Space),,,,,,,,---- -- ----- -- ------ - ------- --- ----------<br>------------- ------ ------ ---- ---- ------- ----- -- ----<br>-------- ------- -- paramount. --- - --- ----- ----- ----<br>---- --- --- ----- --- ---- ---- ------- ----- ---- -------<br>--- --- -- ----- -- --- ---- -- --- ---- -- ------ ------<br>--- ----- -- ----,151295.5,151290.20000000112,151009.248,151022.90000000037,151025.914,151309.236,,21,paramount.
screen,html.Screen,2_1_0_1_22,2022-04-27T13:41:11.372Z,,,,,,,,,,,,,,,,,53,,,,,,,,,,,,,,248.26399999999558,,response,,,,99,,,,,,,Space,keypress(Space),,,,,,,,---- -- ----- -- ------ - ------- --- ----------<br>------------- ------ ------ ---- ---- ------- ----- -- ----<br>-------- ------- -- ---------- But - --- ----- ----- ----<br>---- --- --- ----- --- ---- ---- ------- ----- ---- -------<br>--- --- -- ----- -- --- ---- -- --- ---- -- ------ ------<br>--- ----- -- ----,151563.30000000075,151557.5,151292.57,151295.70000000112,151309.236,151575.892,,22,But
screen,html.Screen,2_1_0_1_23,2022-04-27T13:41:11.854Z,,,,,,,,,,,,,,,,,53,,,,,,,,,,,,,,463.00800000038,,response,,,,99,,,,,,,Space,keypress(Space),,,,,,,,---- -- ----- -- ------ - ------- --- ----------<br>------------- ------ ------ ---- ---- ------- ----- -- ----<br>-------- ------- -- ---------- --- a --- ----- ----- ----<br>---- --- --- ----- --- ---- ---- ------- ----- ---- -------<br>--- --- -- ----- -- --- ---- -- --- ---- -- ------ ------<br>--- ----- -- ----,152045,152038.90000000037,151559.226,151563.5,151575.892,152059.206,,23,a
screen,html.Screen,2_1_0_1_24,2022-04-27T13:41:12.095Z,,,,,,,,,,,,,,,,,53,,,,,,,,,,,,,,222.39400000148453,,response,,,,99,,,,,,,Space,keypress(Space),,,,,,,,---- -- ----- -- ------ - ------- --- ----------<br>------------- ------ ------ ---- ---- ------- ----- -- ----<br>-------- ------- -- ---------- --- - new ----- ----- ----<br>---- --- --- ----- --- ---- ---- ------- ----- ---- -------<br>--- --- -- ----- -- --- ---- -- --- ---- -- ------ ------<br>--- ----- -- ----,152286.90000000037,152281.6000000015,152042.54,152045.20000000112,152059.206,152292.53,,24,new
screen,html.Screen,2_1_0_1_25,2022-04-27T13:41:12.299Z,,,,,,,,,,,,,,,,,53,,,,,,,,,,,,,,192.97000000000116,,response,,,,99,,,,,,,Space,keypress(Space),,,,,,,,---- -- ----- -- ------ - ------- --- ----------<br>------------- ------ ------ ---- ---- ------- ----- -- ----<br>-------- ------- -- ---------- --- - --- study ----- ----<br>---- --- --- ----- --- ---- ---- ------- ----- ---- -------<br>--- --- -- ----- -- --- ---- -- --- ---- -- ------ ------<br>--- ----- -- ----,152490.90000000037,152485.5,152275.864,152287.1000000015,152292.53,152492.522,,25,study
screen,html.Screen,2_1_0_1_26,2022-04-27T13:41:12.518Z,,,,,,,,,,,,,,,,,53,,,,,,,,,,,,,,210.9780000000028,,response,,,,99,,,,,,,Space,keypress(Space),,,,,,,,---- -- ----- -- ------ - ------- --- ----------<br>------------- ------ ------ ---- ---- ------- ----- -- ----<br>-------- ------- -- ---------- --- - --- ----- finds ----<br>---- --- --- ----- --- ---- ---- ------- ----- ---- -------<br>--- --- -- ----- -- --- ---- -- --- ---- -- ------ ------<br>--- ----- -- ----,152709.30000000075,152703.5,152475.856,152491.1000000015,152492.522,152725.846,,26,finds
screen,html.Screen,2_1_0_1_27,2022-04-27T13:41:12.788Z,,,,,,,,,,,,,,,,,53,,,,,,,,,,,,,,247.65400000000955,,response,,,,99,,,,,,,Space,keypress(Space),,,,,,,,---- -- ----- -- ------ - ------- --- ----------<br>------------- ------ ------ ---- ---- ------- ----- -- ----<br>-------- ------- -- ---------- --- - --- ----- ----- that<br>---- --- --- ----- --- ---- ---- ------- ----- ---- -------<br>--- --- -- ----- -- --- ---- -- --- ---- -- ------ ------<br>--- ----- -- ----,152979.6000000015,152973.5,152709.18,152709.40000000037,152725.846,152992.502,,27,that
screen,html.Screen,2_1_0_1_28,2022-04-27T13:41:13.127Z,,,,,,,,,,,,,,,,,53,,,,,,,,,,,,,,319.7980000007374,,response,,,,99,,,,,,,Space,keypress(Space),,,,,,,,---- -- ----- -- ------ - ------- --- ----------<br>------------- ------ ------ ---- ---- ------- ----- -- ----<br>-------- ------- -- ---------- --- - --- ----- ----- ----<br>it's --- --- ----- --- ---- ---- ------- ----- ---- -------<br>--- --- -- ----- -- --- ---- -- --- ---- -- ------ ------<br>--- ----- -- ----,153318.30000000075,153312.30000000075,152975.836,152979.80000000075,152992.502,153325.822,,28,it's
screen,html.Screen,2_1_0_1_29,2022-04-27T13:41:13.335Z,,,,,,,,,,,,,,,,,53,,,,,,,,,,,,,,195.57800000038696,,response,,,,99,,,,,,,Space,keypress(Space),,,,,,,,---- -- ----- -- ------ - ------- --- ----------<br>------------- ------ ------ ---- ---- ------- ----- -- ----<br>-------- ------- -- ---------- --- - --- ----- ----- ----<br>---- not --- ----- --- ---- ---- ------- ----- ---- -------<br>--- --- -- ----- -- --- ---- -- --- ---- -- ------ ------<br>--- ----- -- ----,153527,153521.40000000037,153309.156,153318.40000000037,153325.822,153542.48,,29,not
screen,html.Screen,2_1_0_1_30,2022-04-27T13:41:13.533Z,,,,,,,,,,,,,,,,,53,,,,,,,,,,,,,,176.32000000073458,,response,,,,99,,,,,,,Space,keypress(Space),,,,,,,,---- -- ----- -- ------ - ------- --- ----------<br>------------- ------ ------ ---- ---- ------- ----- -- ----<br>-------- ------- -- ---------- --- - --- ----- ----- ----<br>---- --- how ----- --- ---- ---- ------- ----- ---- -------<br>--- --- -- ----- -- --- ---- -- --- ---- -- ------ ------<br>--- ----- -- ----,153724.70000000112,153718.80000000075,153525.814,153527,153542.48,153725.806,,30,how
screen,html.Screen,2_1_0_1_31,2022-04-27T13:41:13.731Z,,,,,,,,,,,,,,,,,53,,,,,,,,,,,,,,193.39400000110618,,response,,,,99,,,,,,,Space,keypress(Space),,,,,,,,---- -- ----- -- ------ - ------- --- ----------<br>------------- ------ ------ ---- ---- ------- ----- -- ----<br>-------- ------- -- ---------- --- - --- ----- ----- ----<br>---- --- --- close --- ---- ---- ------- ----- ---- -------<br>--- --- -- ----- -- --- ---- -- --- ---- -- ------ ------<br>--- ----- -- ----,153922.40000000037,153919.20000000112,153709.14,153724.80000000075,153725.806,153925.798,,31,close
screen,html.Screen,2_1_0_1_32,2022-04-27T13:41:13.949Z,,,,,,,,,,,,,,,,,53,,,,,,,,,,,,,,210.60200000036275,,response,,,,99,,,,,,,Space,keypress(Space),,,,,,,,---- -- ----- -- ------ - ------- --- ----------<br>------------- ------ ------ ---- ---- ------- ----- -- ----<br>-------- ------- -- ---------- --- - --- ----- ----- ----<br>---- --- --- ----- you ---- ---- ------- ----- ---- -------<br>--- --- -- ----- -- --- ---- -- --- ---- -- ------ ------<br>--- ----- -- ----,154140.90000000037,154136.40000000037,153909.132,153922.5,153925.798,154142.456,,32,you
screen,html.Screen,2_1_0_1_33,2022-04-27T13:41:14.162Z,,,,,,,,,,,,,,,,,53,,,,,,,,,,,,,,204.94400000036694,,response,,,,99,,,,,,,Space,keypress(Space),,,,,,,,---- -- ----- -- ------ - ------- --- ----------<br>------------- ------ ------ ---- ---- ------- ----- -- ----<br>-------- ------- -- ---------- --- - --- ----- ----- ----<br>---- --- --- ----- --- feel ---- ------- ----- ---- -------<br>--- --- -- ----- -- --- ---- -- --- ---- -- ------ ------<br>--- ----- -- ----,154353.5,154347.40000000037,154125.79,154141,154142.456,154359.114,,33,feel
screen,html.Screen,2_1_0_1_34,2022-04-27T13:41:14.391Z,,,,,,,,,,,,,,,,,53,,,,,,,,,,,,,,217.28600000037113,,response,,,,99,,,,,,,Space,keypress(Space),,,,,,,,---- -- ----- -- ------ - ------- --- ----------<br>------------- ------ ------ ---- ---- ------- ----- -- ----<br>-------- ------- -- ---------- --- - --- ----- ----- ----<br>---- --- --- ----- --- ---- that ------- ----- ---- -------<br>--- --- -- ----- -- --- ---- -- --- ---- -- ------ ------<br>--- ----- -- ----,154582.1000000015,154576.40000000037,154342.448,154353.70000000112,154359.114,154592.438,,34,that
screen,html.Screen,2_1_0_1_35,2022-04-27T13:41:14.591Z,,,,,,,,,,,,,,,,,53,,,,,,,,,,,,,,184.76200000112294,,response,,,,99,,,,,,,Space,keypress(Space),,,,,,,,---- -- ----- -- ------ - ------- --- ----------<br>------------- ------ ------ ---- ---- ------- ----- -- ----<br>-------- ------- -- ---------- --- - --- ----- ----- ----<br>---- --- --- ----- --- ---- ---- matters ----- ---- -------<br>--- --- -- ----- -- --- ---- -- --- ---- -- ------ ------<br>--- ----- -- ----,154782.90000000037,154777.20000000112,154575.772,154582.30000000075,154592.438,154792.43,,35,matters
screen,html.Screen,2_1_0_1_36,2022-04-27T13:41:14.804Z,,,,,,,,,,,,,,,,,53,,,,,,,,,,,,,,196.77000000112457,,response,,,,99,,,,,,,Space,keypress(Space),,,,,,,,"---- -- ----- -- ------ - ------- --- ----------<br>------------- ------ ------ ---- ---- ------- ----- -- ----<br>-------- ------- -- ---------- --- - --- ----- ----- ----<br>---- --- --- ----- --- ---- ---- ------- most, ---- -------<br>--- --- -- ----- -- --- ---- -- --- ---- -- ------ ------<br>--- ----- -- ----",154995.1000000015,154989.20000000112,154775.764,154783.1000000015,154792.43,155009.088,,36,"most,"
screen,html.Screen,2_1_0_1_37,2022-04-27T13:41:15.126Z,,,,,,,,,,,,,,,,,53,,,,,,,,,,,,,,302.3120000003837,,response,,,,99,,,,,,,Space,keypress(Space),,,,,,,,---- -- ----- -- ------ - ------- --- ----------<br>------------- ------ ------ ---- ---- ------- ----- -- ----<br>-------- ------- -- ---------- --- - --- ----- ----- ----<br>---- --- --- ----- --- ---- ---- ------- ----- it's -------<br>--- --- -- ----- -- --- ---- -- --- ---- -- ------ ------<br>--- ----- -- ----,155317.20000000112,155311.40000000037,154992.422,154995.20000000112,155009.088,155325.742,,37,it's
screen,html.Screen,2_1_0_1_38,2022-04-27T13:41:15.530Z,,,,,,,,,,,,,,,,,53,,,,,,,,,,,,,,389.5580000007467,,response,,,,99,,,,,,,Space,keypress(Space),,,,,,,,---- -- ----- -- ------ - ------- --- ----------<br>------------- ------ ------ ---- ---- ------- ----- -- ----<br>-------- ------- -- ---------- --- - --- ----- ----- ----<br>---- --- --- ----- --- ---- ---- ------- ----- ---- whether<br>--- --- -- ----- -- --- ---- -- --- ---- -- ------ ------<br>--- ----- -- ----,155721.1000000015,155715.30000000075,155309.076,155317.30000000075,155325.742,155725.726,,38,whether
screen,html.Screen,2_1_0_1_39,2022-04-27T13:41:15.804Z,,,,,,,,,,,,,,,,,53,,,,,,,,,,,,,,264.57400000074995,,response,,,,99,,,,,,,Space,keypress(Space),,,,,,,,---- -- ----- -- ------ - ------- --- ----------<br>------------- ------ ------ ---- ---- ------- ----- -- ----<br>-------- ------- -- ---------- --- - --- ----- ----- ----<br>---- --- --- ----- --- ---- ---- ------- ----- ---- -------<br>you --- -- ----- -- --- ---- -- --- ---- -- ------ ------<br>--- ----- -- ----,155995.80000000075,155990.30000000075,155709.06,155721.30000000075,155725.726,156009.048,,39,you
screen,html.Screen,2_1_0_1_40,2022-04-27T13:41:16.012Z,,,,,,,,,,,,,,,,,53,,,,,,,,,,,,,,188.25200000073528,,response,,,,99,,,,,,,Space,keypress(Space),,,,,,,,---- -- ----- -- ------ - ------- --- ----------<br>------------- ------ ------ ---- ---- ------- ----- -- ----<br>-------- ------- -- ---------- --- - --- ----- ----- ----<br>---- --- --- ----- --- ---- ---- ------- ----- ---- -------<br>--- are -- ----- -- --- ---- -- --- ---- -- ------ ------<br>--- ----- -- ----,156203.5,156197.30000000075,155992.382,155995.90000000037,156009.048,156209.04,,40,are
screen,html.Screen,2_1_0_1_41,2022-04-27T13:41:16.211Z,,,,,,,,,,,,,,,,,53,,,,,,,,,,,,,,187.2600000007369,,response,,,,99,,,,,,,Space,keypress(Space),,,,,,,,---- -- ----- -- ------ - ------- --- ----------<br>------------- ------ ------ ---- ---- ------- ----- -- ----<br>-------- ------- -- ---------- --- - --- ----- ----- ----<br>---- --- --- ----- --- ---- ---- ------- ----- ---- -------<br>--- --- as ----- -- --- ---- -- --- ---- -- ------ ------<br>--- ----- -- ----,156402.30000000075,156396.30000000075,156192.374,156203.6000000015,156209.04,156409.032,,41,as
screen,html.Screen,2_1_0_1_42,2022-04-27T13:41:16.402Z,,,,,,,,,,,,,,,,,53,,,,,,,,,,,,,,179.368000000366,,response,,,,99,,,,,,,Space,keypress(Space),,,,,,,,---- -- ----- -- ------ - ------- --- ----------<br>------------- ------ ------ ---- ---- ------- ----- -- ----<br>-------- ------- -- ---------- --- - --- ----- ----- ----<br>---- --- --- ----- --- ---- ---- ------- ----- ---- -------<br>--- --- -- close -- --- ---- -- --- ---- -- ------ ------<br>--- ----- -- ----,156594,156588.40000000037,156392.366,156402.5,156409.032,156609.024,,42,close
screen,html.Screen,2_1_0_1_43,2022-04-27T13:41:16.594Z,,,,,,,,,,,,,,,,,53,,,,,,,,,,,,,,171.1760000011127,,response,,,,99,,,,,,,Space,keypress(Space),,,,,,,,---- -- ----- -- ------ - ------- --- ----------<br>------------- ------ ------ ---- ---- ------- ----- -- ----<br>-------- ------- -- ---------- --- - --- ----- ----- ----<br>---- --- --- ----- --- ---- ---- ------- ----- ---- -------<br>--- --- -- ----- as --- ---- -- --- ---- -- ------ ------<br>--- ----- -- ----,156785.90000000037,156780.20000000112,156592.358,156594.20000000112,156609.024,156792.35,,43,as
screen,html.Screen,2_1_0_1_44,2022-04-27T13:41:16.798Z,,,,,,,,,,,,,,,,,53,,,,,,,,,,,,,,191.0500000003667,,response,,,,99,,,,,,,Space,keypress(Space),,,,,,,,---- -- ----- -- ------ - ------- --- ----------<br>------------- ------ ------ ---- ---- ------- ----- -- ----<br>-------- ------- -- ---------- --- - --- ----- ----- ----<br>---- --- --- ----- --- ---- ---- ------- ----- ---- -------<br>--- --- -- ----- -- you ---- -- --- ---- -- ------ ------<br>--- ----- -- ----,156989.40000000037,156983.40000000037,156775.684,156786.1000000015,156792.35,156992.342,,44,you
screen,html.Screen,2_1_0_1_45,2022-04-27T13:41:16.969Z,,,,,,,,,,,,,,,,,53,,,,,,,,,,,,,,162.75800000148593,,response,,,,99,,,,,,,Space,keypress(Space),,,,,,,,---- -- ----- -- ------ - ------- --- ----------<br>------------- ------ ------ ---- ---- ------- ----- -- ----<br>-------- ------- -- ---------- --- - --- ----- ----- ----<br>---- --- --- ----- --- ---- ---- ------- ----- ---- -------<br>--- --- -- ----- -- --- want -- --- ---- -- ------ ------<br>--- ----- -- ----,157160.6000000015,157155.1000000015,156975.676,156989.40000000037,156992.342,157175.668,,45,want
screen,html.Screen,2_1_0_1_46,2022-04-27T13:41:17.191Z,,,,,,,,,,,,,,,,,53,,,,,,,,,,,,,,202.432000001485,,response,,,,99,,,,,,,Space,keypress(Space),,,,,,,,---- -- ----- -- ------ - ------- --- ----------<br>------------- ------ ------ ---- ---- ------- ----- -- ----<br>-------- ------- -- ---------- --- - --- ----- ----- ----<br>---- --- --- ----- --- ---- ---- ------- ----- ---- -------<br>--- --- -- ----- -- --- ---- to --- ---- -- ------ ------<br>--- ----- -- ----,157382.80000000075,157378.1000000015,157159.002,157160.70000000112,157175.668,157390.429,,46,to
screen,html.Screen,2_1_0_1_47,2022-04-27T13:41:17.466Z,,,,,,,,,,,,,,,,,53,,,,,,,,,,,,,,261.87100000074133,,response,,,,99,,,,,,,Space,keypress(Space),,,,,,,,"---- -- ----- -- ------ - ------- --- ----------<br>------------- ------ ------ ---- ---- ------- ----- -- ----<br>-------- ------- -- ---------- --- - --- ----- ----- ----<br>---- --- --- ----- --- ---- ---- ------- ----- ---- -------<br>--- --- -- ----- -- --- ---- -- be, ---- -- ------ ------<br>--- ----- -- ----",157657.40000000037,157652.30000000075,157373.763,157382.90000000037,157390.429,157673.751,,47,"be,"
screen,html.Screen,2_1_0_1_48,2022-04-27T13:41:18.168Z,,,,,,,,,,,,,,,,,53,,,,,,,,,,,,,,679.5490000007558,,response,,,,99,,,,,,,Space,keypress(Space),,,,,,,,---- -- ----- -- ------ - ------- --- ----------<br>------------- ------ ------ ---- ---- ------- ----- -- ----<br>-------- ------- -- ---------- --- - --- ----- ----- ----<br>---- --- --- ----- --- ---- ---- ------- ----- ---- -------<br>--- --- -- ----- -- --- ---- -- --- even -- ------ ------<br>--- ----- -- ----,158359.6000000015,158353.30000000075,157657.085,157657.6000000015,157673.751,158373.723,,48,even
screen,html.Screen,2_1_0_1_49,2022-04-27T13:41:18.383Z,,,,,,,,,,,,,,,,,53,,,,,,,,,,,,,,194.47700000111945,,response,,,,99,,,,,,,Space,keypress(Space),,,,,,,,---- -- ----- -- ------ - ------- --- ----------<br>------------- ------ ------ ---- ---- ------- ----- -- ----<br>-------- ------- -- ---------- --- - --- ----- ----- ----<br>---- --- --- ----- --- ---- ---- ------- ----- ---- -------<br>--- --- -- ----- -- --- ---- -- --- ---- if ------ ------<br>--- ----- -- ----,158574.20000000112,158568.20000000112,158357.057,158359.70000000112,158373.723,158590.381,,49,if
screen,html.Screen,2_1_0_1_50,2022-04-27T13:41:18.602Z,,,,,,,,,,,,,,,,,53,,,,,,,,,,,,,,196.81900000112364,,response,,,,99,,,,,,,Space,keypress(Space),,,,,,,,---- -- ----- -- ------ - ------- --- ----------<br>------------- ------ ------ ---- ---- ------- ----- -- ----<br>-------- ------- -- ---------- --- - --- ----- ----- ----<br>---- --- --- ----- --- ---- ---- ------- ----- ---- -------<br>--- --- -- ----- -- --- ---- -- --- ---- -- that's ------<br>--- ----- -- ----,158793.40000000037,158787.20000000112,158573.715,158574.40000000037,158590.381,158807.039,,50,that's
screen,html.Screen,2_1_0_1_51,2022-04-27T13:41:18.787Z,,,,,,,,,,,,,,,,,53,,,,,,,,,,,,,,166.06100000150036,,response,,,,99,,,,,,,Space,keypress(Space),,,,,,,,---- -- ----- -- ------ - ------- --- ----------<br>------------- ------ ------ ---- ---- ------- ----- -- ----<br>-------- ------- -- ---------- --- - --- ----- ----- ----<br>---- --- --- ----- --- ---- ---- ------- ----- ---- -------<br>--- --- -- ----- -- --- ---- -- --- ---- -- ------ really<br>--- ----- -- ----,158978.80000000075,158973.1000000015,158790.373,158793.5,158807.039,158990.365,,51,really
screen,html.Screen,2_1_0_1_52,2022-04-27T13:41:19.071Z,,,,,,,,,,,,,,,,,53,,,,,,,,,,,,,,266.8350000011269,,response,,,,99,,,,,,,Space,keypress(Space),,,,,,,,---- -- ----- -- ------ - ------- --- ----------<br>------------- ------ ------ ---- ---- ------- ----- -- ----<br>-------- ------- -- ---------- --- - --- ----- ----- ----<br>---- --- --- ----- --- ---- ---- ------- ----- ---- -------<br>--- --- -- ----- -- --- ---- -- --- ---- -- ------ ------<br>not ----- -- ----,159262.40000000037,159257.20000000112,158973.699,158979,158990.365,159273.687,,52,not
screen,html.Screen,2_1_0_1_53,2022-04-27T13:41:19.412Z,,,,,,,,,,,,,,,,,53,,,,,,,,,,,,,,324.31299999999464,,response,,,,99,,,,,,,Space,keypress(Space),,,,,,,,---- -- ----- -- ------ - ------- --- ----------<br>------------- ------ ------ ---- ---- ------- ----- -- ----<br>-------- ------- -- ---------- --- - --- ----- ----- ----<br>---- --- --- ----- --- ---- ---- ------- ----- ---- -------<br>--- --- -- ----- -- --- ---- -- --- ---- -- ------ ------<br>--- close -- ----,159603.6000000015,159598,159257.021,159262.5,159273.687,159607.007,,53,close
screen,html.Screen,2_1_0_1_54,2022-04-27T13:41:19.759Z,,,,,,,,,,,,,,,,,53,,,,,,,,,,,,,,337.0930000014778,,response,,,,99,,,,,,,Space,keypress(Space),,,,,,,,---- -- ----- -- ------ - ------- --- ----------<br>------------- ------ ------ ---- ---- ------- ----- -- ----<br>-------- ------- -- ---------- --- - --- ----- ----- ----<br>---- --- --- ----- --- ---- ---- ------- ----- ---- -------<br>--- --- -- ----- -- --- ---- -- --- ---- -- ------ ------<br>--- ----- at ----,159950.30000000075,159944.1000000015,159590.341,159603.70000000112,159607.007,159956.993,,54,at
screen,html.Screen,2_1_0_1_55,2022-04-27T13:41:20.083Z,,,,,,,,,,,,,,,,,53,,,,,,,,,,,,,,312.00700000001234,,response,,,,99,,,,,,,Space,keypress(Space),,,,,,,,---- -- ----- -- ------ - ------- --- ----------<br>------------- ------ ------ ---- ---- ------- ----- -- ----<br>-------- ------- -- ---------- --- - --- ----- ----- ----<br>---- --- --- ----- --- ---- ---- ------- ----- ---- -------<br>--- --- -- ----- -- --- ---- -- --- ---- -- ------ ------<br>--- ----- -- all.,160274.70000000112,160269,159940.327,159950.40000000037,159956.993,160290.313,,55,all.
Item 99,flow.Loop,2_1_0_1,2022-04-27T13:41:20.084Z,,,,,,,,,,,,,,,,,,,,,,,,,,,,,,,23510.818,,completion,,,,,C,,,,,,,,,,,silence,,,,,160275.1000000015,160269,136741.516,136744,136758.182,160290.313,,,
Question 1,html.Screen,2_1_0_2,2022-04-27T13:41:23.534Z,,,,,,,,,,,,,,,,,,,,,,,,,,,,true,FALSE,,3431.887000001123,,response,,,,99,C,,,,,,FALSE,click #choice-2,,,,silence,,,,,163725.30000000075,163722.20000000112,160273.647,160275.30000000075,160290.313,163740.175,,,
Question 2,html.Screen,2_1_0_3,2022-04-27T13:41:28.355Z,,,,,,,,,,,,,,,,,,,,,,,,,,,,true,TRUE,,4803.425000001502,,response,,,,99,C,,,,,,TRUE,click #choice-1,,,,silence,,,,,168546.40000000037,168543.6000000015,163723.509,163725.5,163740.175,168553.138,,,
Item 99,flow.Sequence,2_1_0,2022-04-27T13:41:28.355Z,,,,,,,,,,,,,,,,,,,,,,,,,,,,,,,41785.018000001495,,completion,,,,,,,,,,,,,,,,,,,,,168546.70000000112,168543.6000000015,126741.916,126761.10000000149,126758.582,168553.138,,,
Holding screen,html.Screen,2_1_1_0,2022-04-27T13:41:38.346Z,,,,,,,,,,,,,,,,,,,,,,,,,,,,,,,9999.600000000006,,timeout,,,,,,,,,,,,,,,,,,,,,178538.1000000015,178536.072,168536.472,168546.90000000037,168553.138,178552.738,,,
screen,html.Screen,2_1_1_1_0,2022-04-27T13:41:38.966Z,,,,,,,,,,,,,,,,,54,,,,,,,,,,,,,,597.062000000733,,response,,,,100,,,,,,,Space,keypress(Space),,,,,,,,At --- ---- --- ------ ----- ------- ---- -- --- ------- --<br>------- ---------- ------ -- ----- -- ----- -- ---- ------<br>--- ----- --- --- ------ -------- ----- --- ------ ----- --<br>----- ----- ---------- --- --- ------ ------ ---- -- ------<br>------- --- ------ ----- --- ---- ------- -- ---- --- --<br>------- ------,179157.5,179149.80000000075,178536.072,178538.30000000075,178552.738,179169.38,,0,At
screen,html.Screen,2_1_1_1_1,2022-04-27T13:41:39.212Z,,,,,,,,,,,,,,,,,54,,,,,,,,,,,,,,228.52000000036787,,response,,,,100,,,,,,,Space,keypress(Space),,,,,,,,-- the ---- --- ------ ----- ------- ---- -- --- ------- --<br>------- ---------- ------ -- ----- -- ----- -- ---- ------<br>--- ----- --- --- ------ -------- ----- --- ------ ----- --<br>----- ----- ---------- --- --- ------ ------ ---- -- ------<br>------- --- ------ ----- --- ---- ------- -- ---- --- --<br>------- ------,179403.90000000037,179397.90000000037,179152.714,179157.6000000015,179169.38,179417.428,,1,the
screen,html.Screen,2_1_1_1_2,2022-04-27T13:41:39.423Z,,,,,,,,,,,,,,,,,54,,,,,,,,,,,,,,191.57199999998556,,response,,,,100,,,,,,,Space,keypress(Space),,,,,,,,-- --- time --- ------ ----- ------- ---- -- --- ------- --<br>------- ---------- ------ -- ----- -- ----- -- ---- ------<br>--- ----- --- --- ------ -------- ----- --- ------ ----- --<br>----- ----- ---------- --- --- ------ ------ ---- -- ------<br>------- --- ------ ----- --- ---- ------- -- ---- --- --<br>------- ------,179614.70000000112,179609,179400.762,179404,179417.428,179617.42,,2,time
screen,html.Screen,2_1_1_1_3,2022-04-27T13:41:39.610Z,,,,,,,,,,,,,,,,,54,,,,,,,,,,,,,,178.48000000035972,,response,,,,100,,,,,,,Space,keypress(Space),,,,,,,,-- --- ---- the ------ ----- ------- ---- -- --- ------- --<br>------- ---------- ------ -- ----- -- ----- -- ---- ------<br>--- ----- --- --- ------ -------- ----- --- ------ ----- --<br>----- ----- ---------- --- --- ------ ------ ---- -- ------<br>------- --- ------ ----- --- ---- ------- -- ---- --- --<br>------- ------,179801.40000000037,179795.90000000037,179600.754,179614.90000000037,179617.42,179817.412,,3,the
screen,html.Screen,2_1_1_1_4,2022-04-27T13:41:39.802Z,,,,,,,,,,,,,,,,,54,,,,,,,,,,,,,,172.38800000073388,,response,,,,100,,,,,,,Space,keypress(Space),,,,,,,,-- --- ---- --- French ----- ------- ---- -- --- ------- --<br>------- ---------- ------ -- ----- -- ----- -- ---- ------<br>--- ----- --- --- ------ -------- ----- --- ------ ----- --<br>----- ----- ---------- --- --- ------ ------ ---- -- ------<br>------- --- ------ ----- --- ---- ------- -- ---- --- --<br>------- ------,179994,179989.80000000075,179800.746,179801.6000000015,179817.412,180000.738,,4,French
screen,html.Screen,2_1_1_1_5,2022-04-27T13:41:40.014Z,,,,,,,,,,,,,,,,,54,,,,,,,,,,,,,,199.96200000110548,,response,,,,100,,,,,,,Space,keypress(Space),,,,,,,,-- --- ---- --- ------ crown ------- ---- -- --- ------- --<br>------- ---------- ------ -- ----- -- ----- -- ---- ------<br>--- ----- --- --- ------ -------- ----- --- ------ ----- --<br>----- ----- ---------- --- --- ------ ------ ---- -- ------<br>------- --- ------ ----- --- ---- ------- -- ---- --- --<br>------- ------,180205.40000000037,180200.70000000112,179984.072,179994.1000000015,180000.738,180217.396,,5,crown
screen,html.Screen,2_1_1_1_6,2022-04-27T13:41:40.198Z,,,,,,,,,,,,,,,,,54,,,,,,,,,,,,,,166.30400000110967,,response,,,,100,,,,,,,Space,keypress(Space),,,,,,,,-- --- ---- --- ------ ----- secured ---- -- --- ------- --<br>------- ---------- ------ -- ----- -- ----- -- ---- ------<br>--- ----- --- --- ------ -------- ----- --- ------ ----- --<br>----- ----- ---------- --- --- ------ ------ ---- -- ------<br>------- --- ------ ----- --- ---- ------- -- ---- --- --<br>------- ------,180389.70000000112,180383.70000000112,180200.73,180205.5,180217.396,180400.722,,6,secured
screen,html.Screen,2_1_1_1_7,2022-04-27T13:41:40.397Z,,,,,,,,,,,,,,,,,54,,,,,,,,,,,,,,182.17800000036368,,response,,,,100,,,,,,,Space,keypress(Space),,,,,,,,-- --- ---- --- ------ ----- ------- much -- --- ------- --<br>------- ---------- ------ -- ----- -- ----- -- ---- ------<br>--- ----- --- --- ------ -------- ----- --- ------ ----- --<br>----- ----- ---------- --- --- ------ ------ ---- -- ------<br>------- --- ------ ----- --- ---- ------- -- ---- --- --<br>------- ------,180588.6000000015,180582.90000000037,180384.056,180389.90000000037,180400.722,180600.714,,7,much
screen,html.Screen,2_1_1_1_8,2022-04-27T13:41:40.948Z,,,,,,,,,,,,,,,,,54,,,,,,,,,,,,,,533.2859999999928,,response,,,,100,,,,,,,Space,keypress(Space),,,,,,,,-- --- ---- --- ------ ----- ------- ---- of --- ------- --<br>------- ---------- ------ -- ----- -- ----- -- ---- ------<br>--- ----- --- --- ------ -------- ----- --- ------ ----- --<br>----- ----- ---------- --- --- ------ ------ ---- -- ------<br>------- --- ------ ----- --- ---- ------- -- ---- --- --<br>------- ------,181139.80000000075,181134,180584.048,180588.80000000075,180600.714,181150.692,,8,of
screen,html.Screen,2_1_1_1_9,2022-04-27T13:41:41.192Z,,,,,,,,,,,,,,,,,54,,,,,,,,,,,,,,226.50800000110758,,response,,,,100,,,,,,,Space,keypress(Space),,,,,,,,-- --- ---- --- ------ ----- ------- ---- -- its ------- --<br>------- ---------- ------ -- ----- -- ----- -- ---- ------<br>--- ----- --- --- ------ -------- ----- --- ------ ----- --<br>----- ----- ---------- --- --- ------ ------ ---- -- ------<br>------- --- ------ ----- --- ---- ------- -- ---- --- --<br>------- ------,181383.20000000112,181377.20000000112,181134.026,181140,181150.692,181384.016,,9,its
screen,html.Screen,2_1_1_1_10,2022-04-27T13:41:41.404Z,,,,,,,,,,,,,,,,,54,,,,,,,,,,,,,,205.88400000036927,,response,,,,100,,,,,,,Space,keypress(Space),,,,,,,,-- --- ---- --- ------ ----- ------- ---- -- --- revenue --<br>------- ---------- ------ -- ----- -- ----- -- ---- ------<br>--- ----- --- --- ------ -------- ----- --- ------ ----- --<br>----- ----- ---------- --- --- ------ ------ ---- -- ------<br>------- --- ------ ----- --- ---- ------- -- ---- --- --<br>------- ------,181595.90000000037,181589.90000000037,181367.35,181383.40000000037,181384.016,181600.674,,10,revenue
screen,html.Screen,2_1_1_1_11,2022-04-27T13:41:41.593Z,,,,,,,,,,,,,,,,,54,,,,,,,,,,,,,,178.126000000746,,response,,,,100,,,,,,,Space,keypress(Space),,,,,,,,-- --- ---- --- ------ ----- ------- ---- -- --- ------- by<br>------- ---------- ------ -- ----- -- ----- -- ---- ------<br>--- ----- --- --- ------ -------- ----- --- ------ ----- --<br>----- ----- ---------- --- --- ------ ------ ---- -- ------<br>------- --- ------ ----- --- ---- ------- -- ---- --- --<br>------- ------,181784.40000000037,181778.80000000075,181584.008,181596.1000000015,181600.674,181800.666,,11,by
screen,html.Screen,2_1_1_1_12,2022-04-27T13:41:41.843Z,,,,,,,,,,,,,,,,,54,,,,,,,,,,,,,,228.03400000112015,,response,,,,100,,,,,,,Space,keypress(Space),,,,,,,,-- --- ---- --- ------ ----- ------- ---- -- --- ------- --<br>issuing ---------- ------ -- ----- -- ----- -- ---- ------<br>--- ----- --- --- ------ -------- ----- --- ------ ----- --<br>----- ----- ---------- --- --- ------ ------ ---- -- ------<br>------- --- ------ ----- --- ---- ------- -- ---- --- --<br>------- ------,182034.30000000075,182028.70000000112,181784,181784.6000000015,181800.666,182050.656,,12,issuing
screen,html.Screen,2_1_1_1_13,2022-04-27T13:41:42.213Z,,,,,,,,,,,,,,,,,54,,,,,,,,,,,,,,348.14400000075693,,response,,,,100,,,,,,,Space,keypress(Space),,,,,,,,-- --- ---- --- ------ ----- ------- ---- -- --- ------- --<br>------- government ------ -- ----- -- ----- -- ---- ------<br>--- ----- --- --- ------ -------- ----- --- ------ ----- --<br>----- ----- ---------- --- --- ------ ------ ---- -- ------<br>------- --- ------ ----- --- ---- ------- -- ---- --- --<br>------- ------,182404.80000000075,182398.80000000075,182033.99,182034.40000000037,182050.656,182417.308,,13,government
screen,html.Screen,2_1_1_1_14,2022-04-27T13:41:42.503Z,,,,,,,,,,,,,,,,,54,,,,,,,,,,,,,,271.49200000075507,,response,,,,100,,,,,,,Space,keypress(Space),,,,,,,,-- --- ---- --- ------ ----- ------- ---- -- --- ------- --<br>------- ---------- bonds. -- ----- -- ----- -- ---- ------<br>--- ----- --- --- ------ -------- ----- --- ------ ----- --<br>----- ----- ---------- --- --- ------ ------ ---- -- ------<br>------- --- ------ ----- --- ---- ------- -- ---- --- --<br>------- ------,182694.5,182688.80000000075,182400.642,182404.90000000037,182417.308,182700.63,,14,bonds.
screen,html.Screen,2_1_1_1_15,2022-04-27T13:41:42.888Z,,,,,,,,,,,,,,,,,54,,,,,,,,,,,,,,373.1700000007404,,response,,,,100,,,,,,,Space,keypress(Space),,,,,,,,-- --- ---- --- ------ ----- ------- ---- -- --- ------- --<br>------- ---------- ------ In ----- -- ----- -- ---- ------<br>--- ----- --- --- ------ -------- ----- --- ------ ----- --<br>----- ----- ---------- --- --- ------ ------ ---- -- ------<br>------- --- ------ ----- --- ---- ------- -- ---- --- --<br>------- ------,183079.40000000037,183073.80000000075,182683.964,182694.6000000015,182700.63,183083.948,,15,In
screen,html.Screen,2_1_1_1_16,2022-04-27T13:41:43.236Z,,,,,,,,,,,,,,,,,54,,,,,,,,,,,,,,337.75200000111363,,response,,,,100,,,,,,,Space,keypress(Space),,,,,,,,"-- --- ---- --- ------ ----- ------- ---- -- --- ------- --<br>------- ---------- ------ -- 1727, -- ----- -- ---- ------<br>--- ----- --- --- ------ -------- ----- --- ------ ----- --<br>----- ----- ---------- --- --- ------ ------ ---- -- ------<br>------- --- ------ ----- --- ---- ------- -- ---- --- --<br>------- ------",183427.70000000112,183421.70000000112,183067.282,183079.6000000015,183083.948,183433.934,,16,"1727,"
screen,html.Screen,2_1_1_1_17,2022-04-27T13:41:43.454Z,,,,,,,,,,,,,,,,,54,,,,,,,,,,,,,,206.7660000011092,,response,,,,100,,,,,,,Space,keypress(Space),,,,,,,,-- --- ---- --- ------ ----- ------- ---- -- --- ------- --<br>------- ---------- ------ -- ----- in ----- -- ---- ------<br>--- ----- --- --- ------ -------- ----- --- ------ ----- --<br>----- ----- ---------- --- --- ------ ------ ---- -- ------<br>------- --- ------ ----- --- ---- ------- -- ---- --- --<br>------- ------,183645.6000000015,183640.70000000112,183417.268,183427.90000000037,183433.934,183650.592,,17,in
screen,html.Screen,2_1_1_1_18,2022-04-27T13:41:43.642Z,,,,,,,,,,,,,,,,,54,,,,,,,,,,,,,,177.20800000074087,,response,,,,100,,,,,,,Space,keypress(Space),,,,,,,,-- --- ---- --- ------ ----- ------- ---- -- --- ------- --<br>------- ---------- ------ -- ----- -- order -- ---- ------<br>--- ----- --- --- ------ -------- ----- --- ------ ----- --<br>----- ----- ---------- --- --- ------ ------ ---- -- ------<br>------- --- ------ ----- --- ---- ------- -- ---- --- --<br>------- ------,183833.80000000075,183827.80000000075,183633.926,183645.70000000112,183650.592,183850.584,,18,order
screen,html.Screen,2_1_1_1_19,2022-04-27T13:41:44.270Z,,,,,,,,,,,,,,,,,54,,,,,,,,,,,,,,604.9159999999974,,response,,,,100,,,,,,,Space,keypress(Space),,,,,,,,-- --- ---- --- ------ ----- ------- ---- -- --- ------- --<br>------- ---------- ------ -- ----- -- ----- to ---- ------<br>--- ----- --- --- ------ -------- ----- --- ------ ----- --<br>----- ----- ---------- --- --- ------ ------ ---- -- ------<br>------- --- ------ ----- --- ---- ------- -- ---- --- --<br>------- ------,184461.70000000112,184455.5,183833.918,183834.1000000015,183850.584,184467.226,,19,to
screen,html.Screen,2_1_1_1_20,2022-04-27T13:41:44.587Z,,,,,,,,,,,,,,,,,54,,,,,,,,,,,,,,308.1740000003774,,response,,,,100,,,,,,,Space,keypress(Space),,,,,,,,-- --- ---- --- ------ ----- ------- ---- -- --- ------- --<br>------- ---------- ------ -- ----- -- ----- -- save ------<br>--- ----- --- --- ------ -------- ----- --- ------ ----- --<br>----- ----- ---------- --- --- ------ ------ ---- -- ------<br>------- --- ------ ----- --- ---- ------- -- ---- --- --<br>------- ------,184778.80000000075,184775.40000000037,184450.56,184461.80000000075,184467.226,184783.88,,20,save
screen,html.Screen,2_1_1_1_21,2022-04-27T13:41:44.945Z,,,,,,,,,,,,,,,,,54,,,,,,,,,,,,,,346.61999999999534,,response,,,,100,,,,,,,Space,keypress(Space),,,,,,,,"-- --- ---- --- ------ ----- ------- ---- -- --- ------- --<br>------- ---------- ------ -- ----- -- ----- -- ---- money,<br>--- ----- --- --- ------ -------- ----- --- ------ ----- --<br>----- ----- ---------- --- --- ------ ------ ---- -- ------<br>------- --- ------ ----- --- ---- ------- -- ---- --- --<br>------- ------",185136.6000000015,185130.5,184767.214,184778.90000000037,184783.88,185150.532,,21,"money,"
screen,html.Screen,2_1_1_1_22,2022-04-27T13:41:45.388Z,,,,,,,,,,,,,,,,,54,,,,,,,,,,,,,,423.26800000073854,,response,,,,100,,,,,,,Space,keypress(Space),,,,,,,,-- --- ---- --- ------ ----- ------- ---- -- --- ------- --<br>------- ---------- ------ -- ----- -- ----- -- ---- ------<br>the ----- --- --- ------ -------- ----- --- ------ ----- --<br>----- ----- ---------- --- --- ------ ------ ---- -- ------<br>------- --- ------ ----- --- ---- ------- -- ---- --- --<br>------- ------,185579.5,185573.80000000075,185133.866,185136.70000000112,185150.532,185583.848,,22,the
screen,html.Screen,2_1_1_1_23,2022-04-27T13:41:45.695Z,,,,,,,,,,,,,,,,,54,,,,,,,,,,,,,,296.752000001492,,response,,,,100,,,,,,,Space,keypress(Space),,,,,,,,-- --- ---- --- ------ ----- ------- ---- -- --- ------- --<br>------- ---------- ------ -- ----- -- ----- -- ---- ------<br>--- state --- --- ------ -------- ----- --- ------ ----- --<br>----- ----- ---------- --- --- ------ ------ ---- -- ------<br>------- --- ------ ----- --- ---- ------- -- ---- --- --<br>------- ------,185886.6000000015,185880.6000000015,185567.182,185579.70000000112,185583.848,185900.502,,23,state
screen,html.Screen,2_1_1_1_24,2022-04-27T13:41:45.927Z,,,,,,,,,,,,,,,,,54,,,,,,,,,,,,,,213.09800000148243,,response,,,,100,,,,,,,Space,keypress(Space),,,,,,,,-- --- ---- --- ------ ----- ------- ---- -- --- ------- --<br>------- ---------- ------ -- ----- -- ----- -- ---- ------<br>--- ----- cut --- ------ -------- ----- --- ------ ----- --<br>----- ----- ---------- --- --- ------ ------ ---- -- ------<br>------- --- ------ ----- --- ---- ------- -- ---- --- --<br>------- ------,186119.1000000015,186113.6000000015,185883.836,185886.80000000075,185900.502,186133.826,,24,cut
screen,html.Screen,2_1_1_1_25,2022-04-27T13:41:46.161Z,,,,,,,,,,,,,,,,,54,,,,,,,,,,,,,,212.87400000111666,,response,,,,100,,,,,,,Space,keypress(Space),,,,,,,,-- --- ---- --- ------ ----- ------- ---- -- --- ------- --<br>------- ---------- ------ -- ----- -- ----- -- ---- ------<br>--- ----- --- the ------ -------- ----- --- ------ ----- --<br>----- ----- ---------- --- --- ------ ------ ---- -- ------<br>------- --- ------ ----- --- ---- ------- -- ---- --- --<br>------- ------,186352.5,186346.70000000112,186117.16,186119.20000000112,186133.826,186367.15,,25,the
screen,html.Screen,2_1_1_1_26,2022-04-27T13:41:46.464Z,,,,,,,,,,,,,,,,,54,,,,,,,,,,,,,,282.45000000149594,,response,,,,100,,,,,,,Space,keypress(Space),,,,,,,,-- --- ---- --- ------ ----- ------- ---- -- --- ------- --<br>------- ---------- ------ -- ----- -- ----- -- ---- ------<br>--- ----- --- --- bonds' -------- ----- --- ------ ----- --<br>----- ----- ---------- --- --- ------ ------ ---- -- ------<br>------- --- ------ ----- --- ---- ------- -- ---- --- --<br>------- ------,186655.6000000015,186649.6000000015,186350.484,186352.6000000015,186367.15,186667.138,,26,bonds'
screen,html.Screen,2_1_1_1_27,2022-04-27T13:41:46.746Z,,,,,,,,,,,,,,,,,54,,,,,,,,,,,,,,264.46200000148383,,response,,,,100,,,,,,,Space,keypress(Space),,,,,,,,-- --- ---- --- ------ ----- ------- ---- -- --- ------- --<br>------- ---------- ------ -- ----- -- ----- -- ---- ------<br>--- ----- --- --- ------ interest ----- --- ------ ----- --<br>----- ----- ---------- --- --- ------ ------ ---- -- ------<br>------- --- ------ ----- --- ---- ------- -- ---- --- --<br>------- ------,186937.40000000037,186931.6000000015,186650.472,186655.80000000075,186667.138,186950.46,,27,interest
screen,html.Screen,2_1_1_1_28,2022-04-27T13:41:47.122Z,,,,,,,,,,,,,,,,,54,,,,,,,,,,,,,,358.14000000149827,,response,,,,100,,,,,,,Space,keypress(Space),,,,,,,,-- --- ---- --- ------ ----- ------- ---- -- --- ------- --<br>------- ---------- ------ -- ----- -- ----- -- ---- ------<br>--- ----- --- --- ------ -------- rate. --- ------ ----- --<br>----- ----- ---------- --- --- ------ ------ ---- -- ------<br>------- --- ------ ----- --- ---- ------- -- ---- --- --<br>------- ------,187314,187308.6000000015,186933.794,186937.6000000015,186950.46,187317.112,,28,rate.
screen,html.Screen,2_1_1_1_29,2022-04-27T13:41:47.348Z,,,,,,,,,,,,,,,,,54,,,,,,,,,,,,,,216.28800000037882,,response,,,,100,,,,,,,Space,keypress(Space),,,,,,,,-- --- ---- --- ------ ----- ------- ---- -- --- ------- --<br>------- ---------- ------ -- ----- -- ----- -- ---- ------<br>--- ----- --- --- ------ -------- ----- The ------ ----- --<br>----- ----- ---------- --- --- ------ ------ ---- -- ------<br>------- --- ------ ----- --- ---- ------- -- ---- --- --<br>------- ------,187539.5,187533.40000000037,187300.446,187314.1000000015,187317.112,187550.436,,29,The
screen,html.Screen,2_1_1_1_30,2022-04-27T13:41:47.819Z,,,,,,,,,,,,,,,,,54,,,,,,,,,,,,,,454.06400000001304,,response,,,,100,,,,,,,Space,keypress(Space),,,,,,,,-- --- ---- --- ------ ----- ------- ---- -- --- ------- --<br>------- ---------- ------ -- ----- -- ----- -- ---- ------<br>--- ----- --- --- ------ -------- ----- --- market ----- --<br>----- ----- ---------- --- --- ------ ------ ---- -- ------<br>------- --- ------ ----- --- ---- ------- -- ---- --- --<br>------- ------,188010.5,188004.5,187533.77,187539.6000000015,187550.436,188017.084,,30,market
screen,html.Screen,2_1_1_1_31,2022-04-27T13:41:48.060Z,,,,,,,,,,,,,,,,,54,,,,,,,,,,,,,,228.41599999999744,,response,,,,100,,,,,,,Space,keypress(Space),,,,,,,,-- --- ---- --- ------ ----- ------- ---- -- --- ------- --<br>------- ---------- ------ -- ----- -- ----- -- ---- ------<br>--- ----- --- --- ------ -------- ----- --- ------ value --<br>----- ----- ---------- --- --- ------ ------ ---- -- ------<br>------- --- ------ ----- --- ---- ------- -- ---- --- --<br>------- ------,188251.30000000075,188245.5,188000.418,188010.5,188017.084,188267.074,,31,value
screen,html.Screen,2_1_1_1_32,2022-04-27T13:41:48.261Z,,,,,,,,,,,,,,,,,54,,,,,,,,,,,,,,179.32600000037928,,response,,,,100,,,,,,,Space,keypress(Space),,,,,,,,-- --- ---- --- ------ ----- ------- ---- -- --- ------- --<br>------- ---------- ------ -- ----- -- ----- -- ---- ------<br>--- ----- --- --- ------ -------- ----- --- ------ ----- of<br>----- ----- ---------- --- --- ------ ------ ---- -- ------<br>------- --- ------ ----- --- ---- ------- -- ---- --- --<br>------- ------,188452.20000000112,188446.40000000037,188250.408,188251.5,188267.074,188467.066,,32,of
screen,html.Screen,2_1_1_1_33,2022-04-27T13:41:48.686Z,,,,,,,,,,,,,,,,,54,,,,,,,,,,,,,,404.4340000000084,,response,,,,100,,,,,,,Space,keypress(Space),,,,,,,,-- --- ---- --- ------ ----- ------- ---- -- --- ------- --<br>------- ---------- ------ -- ----- -- ----- -- ---- ------<br>--- ----- --- --- ------ -------- ----- --- ------ ----- --<br>these ----- ---------- --- --- ------ ------ ---- -- ------<br>------- --- ------ ----- --- ---- ------- -- ---- --- --<br>------- ------,188877.5,188871.5,188450.4,188452.40000000037,188467.066,188883.716,,33,these
screen,html.Screen,2_1_1_1_34,2022-04-27T13:41:48.933Z,,,,,,,,,,,,,,,,,54,,,,,,,,,,,,,,235.68400000038673,,response,,,,100,,,,,,,Space,keypress(Space),,,,,,,,-- --- ---- --- ------ ----- ------- ---- -- --- ------- --<br>------- ---------- ------ -- ----- -- ----- -- ---- ------<br>--- ----- --- --- ------ -------- ----- --- ------ ----- --<br>----- bonds ---------- --- --- ------ ------ ---- -- ------<br>------- --- ------ ----- --- ---- ------- -- ---- --- --<br>------- ------,189124.90000000037,189119.40000000037,188867.05,188877.6000000015,188883.716,189133.706,,34,bonds
screen,html.Screen,2_1_1_1_35,2022-04-27T13:41:49.139Z,,,,,,,,,,,,,,,,,54,,,,,,,,,,,,,,190.89400000148453,,response,,,,100,,,,,,,Space,keypress(Space),,,,,,,,"-- --- ---- --- ------ ----- ------- ---- -- --- ------- --<br>------- ---------- ------ -- ----- -- ----- -- ---- ------<br>--- ----- --- --- ------ -------- ----- --- ------ ----- --<br>----- ----- plummeted, --- --- ------ ------ ---- -- ------<br>------- --- ------ ----- --- ---- ------- -- ---- --- --<br>------- ------",189330.5,189324.6000000015,189117.04,189124.90000000037,189133.706,189344.732,,35,"plummeted,"
screen,html.Screen,2_1_1_1_36,2022-04-27T13:41:49.362Z,,,,,,,,,,,,,,,,,54,,,,,,,,,,,,,,202.76800000001094,,response,,,,100,,,,,,,Space,keypress(Space),,,,,,,,-- --- ---- --- ------ ----- ------- ---- -- --- ------- --<br>------- ---------- ------ -- ----- -- ----- -- ---- ------<br>--- ----- --- --- ------ -------- ----- --- ------ ----- --<br>----- ----- ---------- and --- ------ ------ ---- -- ------<br>------- --- ------ ----- --- ---- ------- -- ---- --- --<br>------- ------,189553.40000000037,189547.5,189328.066,189330.6000000015,189344.732,189561.39,,36,and
screen,html.Screen,2_1_1_1_37,2022-04-27T13:41:49.723Z,,,,,,,,,,,,,,,,,54,,,,,,,,,,,,,,348.3100000011036,,response,,,,100,,,,,,,Space,keypress(Space),,,,,,,,-- --- ---- --- ------ ----- ------- ---- -- --- ------- --<br>------- ---------- ------ -- ----- -- ----- -- ---- ------<br>--- ----- --- --- ------ -------- ----- --- ------ ----- --<br>----- ----- ---------- --- the ------ ------ ---- -- ------<br>------- --- ------ ----- --- ---- ------- -- ---- --- --<br>------- ------,189915,189909.70000000112,189544.724,189553.6000000015,189561.39,189928.042,,37,the
screen,html.Screen,2_1_1_1_38,2022-04-27T13:41:49.946Z,,,,,,,,,,,,,,,,,54,,,,,,,,,,,,,,204.25800000075833,,response,,,,100,,,,,,,Space,keypress(Space),,,,,,,,-- --- ---- --- ------ ----- ------- ---- -- --- ------- --<br>------- ---------- ------ -- ----- -- ----- -- ---- ------<br>--- ----- --- --- ------ -------- ----- --- ------ ----- --<br>----- ----- ---------- --- --- market ------ ---- -- ------<br>------- --- ------ ----- --- ---- ------- -- ---- --- --<br>------- ------,190137.80000000075,190132.30000000075,189911.376,189915.20000000112,189928.042,190144.7,,38,market
screen,html.Screen,2_1_1_1_39,2022-04-27T13:41:50.137Z,,,,,,,,,,,,,,,,,54,,,,,,,,,,,,,,177.60000000073342,,response,,,,100,,,,,,,Space,keypress(Space),,,,,,,,-- --- ---- --- ------ ----- ------- ---- -- --- ------- --<br>------- ---------- ------ -- ----- -- ----- -- ---- ------<br>--- ----- --- --- ------ -------- ----- --- ------ ----- --<br>----- ----- ---------- --- --- ------ became ---- -- ------<br>------- --- ------ ----- --- ---- ------- -- ---- --- --<br>------- ------,190328.20000000112,190322.30000000075,190128.034,190137.90000000037,190144.7,190344.692,,39,became
screen,html.Screen,2_1_1_1_40,2022-04-27T13:41:50.486Z,,,,,,,,,,,,,,,,,54,,,,,,,,,,,,,,327.0080000011076,,response,,,,100,,,,,,,Space,keypress(Space),,,,,,,,-- --- ---- --- ------ ----- ------- ---- -- --- ------- --<br>------- ---------- ------ -- ----- -- ----- -- ---- ------<br>--- ----- --- --- ------ -------- ----- --- ------ ----- --<br>----- ----- ---------- --- --- ------ ------ wary -- ------<br>------- --- ------ ----- --- ---- ------- -- ---- --- --<br>------- ------,190677.5,190671.70000000112,190328.026,190328.40000000037,190344.692,190694.678,,40,wary
screen,html.Screen,2_1_1_1_41,2022-04-27T13:41:50.863Z,,,,,,,,,,,,,,,,,54,,,,,,,,,,,,,,354.6220000007306,,response,,,,100,,,,,,,Space,keypress(Space),,,,,,,,-- --- ---- --- ------ ----- ------- ---- -- --- ------- --<br>------- ---------- ------ -- ----- -- ----- -- ---- ------<br>--- ----- --- --- ------ -------- ----- --- ------ ----- --<br>----- ----- ---------- --- --- ------ ------ ---- of ------<br>------- --- ------ ----- --- ---- ------- -- ---- --- --<br>------- ------,191054.70000000112,191049.30000000075,190678.012,190677.6000000015,190694.678,191061.33,,41,of
screen,html.Screen,2_1_1_1_42,2022-04-27T13:41:51.096Z,,,,,,,,,,,,,,,,,54,,,,,,,,,,,,,,221.07000000038533,,response,,,,100,,,,,,,Space,keypress(Space),,,,,,,,-- --- ---- --- ------ ----- ------- ---- -- --- ------- --<br>------- ---------- ------ -- ----- -- ----- -- ---- ------<br>--- ----- --- --- ------ -------- ----- --- ------ ----- --<br>----- ----- ---------- --- --- ------ ------ ---- -- French<br>------- --- ------ ----- --- ---- ------- -- ---- --- --<br>------- ------,191288.1000000015,191282.40000000037,191044.664,191054.90000000037,191061.33,191294.654,,42,French
screen,html.Screen,2_1_1_1_43,2022-04-27T13:41:51.414Z,,,,,,,,,,,,,,,,,54,,,,,,,,,,,,,,305.746000000363,,response,,,,100,,,,,,,Space,keypress(Space),,,,,,,,-- --- ---- --- ------ ----- ------- ---- -- --- ------- --<br>------- ---------- ------ -- ----- -- ----- -- ---- ------<br>--- ----- --- --- ------ -------- ----- --- ------ ----- --<br>----- ----- ---------- --- --- ------ ------ ---- -- ------<br>credit. --- ------ ----- --- ---- ------- -- ---- --- --<br>------- ------,191606,191600.40000000037,191277.988,191288.30000000075,191294.654,191611.308,,43,credit.
screen,html.Screen,2_1_1_1_44,2022-04-27T13:41:51.805Z,,,,,,,,,,,,,,,,,54,,,,,,,,,,,,,,378.99200000075507,,response,,,,100,,,,,,,Space,keypress(Space),,,,,,,,-- --- ---- --- ------ ----- ------- ---- -- --- ------- --<br>------- ---------- ------ -- ----- -- ----- -- ---- ------<br>--- ----- --- --- ------ -------- ----- --- ------ ----- --<br>----- ----- ---------- --- --- ------ ------ ---- -- ------<br>------- The ------ ----- --- ---- ------- -- ---- --- --<br>------- ------,191996.30000000075,191990.30000000075,191594.642,191606.1000000015,191611.308,192011.292,,44,The
screen,html.Screen,2_1_1_1_45,2022-04-27T13:41:52.057Z,,,,,,,,,,,,,,,,,54,,,,,,,,,,,,,,231.90800000113086,,response,,,,100,,,,,,,Space,keypress(Space),,,,,,,,-- --- ---- --- ------ ----- ------- ---- -- --- ------- --<br>------- ---------- ------ -- ----- -- ----- -- ---- ------<br>--- ----- --- --- ------ -------- ----- --- ------ ----- --<br>----- ----- ---------- --- --- ------ ------ ---- -- ------<br>------- --- French ----- --- ---- ------- -- ---- --- --<br>------- ------,192249.20000000112,192243.20000000112,191994.626,191996.5,192011.292,192261.282,,45,French
screen,html.Screen,2_1_1_1_46,2022-04-27T13:41:52.252Z,,,,,,,,,,,,,,,,,54,,,,,,,,,,,,,,177.01800000073854,,response,,,,100,,,,,,,Space,keypress(Space),,,,,,,,-- --- ---- --- ------ ----- ------- ---- -- --- ------- --<br>------- ---------- ------ -- ----- -- ----- -- ---- ------<br>--- ----- --- --- ------ -------- ----- --- ------ ----- --<br>----- ----- ---------- --- --- ------ ------ ---- -- ------<br>------- --- ------ state --- ---- ------- -- ---- --- --<br>------- ------,192444,192438.30000000075,192244.616,192249.30000000075,192261.282,192461.274,,46,state
screen,html.Screen,2_1_1_1_47,2022-04-27T13:41:52.582Z,,,,,,,,,,,,,,,,,54,,,,,,,,,,,,,,307.02600000074017,,response,,,,100,,,,,,,Space,keypress(Space),,,,,,,,-- --- ---- --- ------ ----- ------- ---- -- --- ------- --<br>------- ---------- ------ -- ----- -- ----- -- ---- ------<br>--- ----- --- --- ------ -------- ----- --- ------ ----- --<br>----- ----- ---------- --- --- ------ ------ ---- -- ------<br>------- --- ------ ----- was ---- ------- -- ---- --- --<br>------- ------,192774,192768.30000000075,192444.608,192444.1000000015,192461.274,192777.928,,47,was
screen,html.Screen,2_1_1_1_48,2022-04-27T13:41:52.907Z,,,,,,,,,,,,,,,,,54,,,,,,,,,,,,,,315.6720000014757,,response,,,,100,,,,,,,Space,keypress(Space),,,,,,,,-- --- ---- --- ------ ----- ------- ---- -- --- ------- --<br>------- ---------- ------ -- ----- -- ----- -- ---- ------<br>--- ----- --- --- ------ -------- ----- --- ------ ----- --<br>----- ----- ---------- --- --- ------ ------ ---- -- ------<br>------- --- ------ ----- --- left ------- -- ---- --- --<br>------- ------,193098.90000000037,193093.6000000015,192761.262,192774.1000000015,192777.928,193111.248,,48,left
screen,html.Screen,2_1_1_1_49,2022-04-27T13:41:53.246Z,,,,,,,,,,,,,,,,,54,,,,,,,,,,,,,,321.05200000075274,,response,,,,100,,,,,,,Space,keypress(Space),,,,,,,,-- --- ---- --- ------ ----- ------- ---- -- --- ------- --<br>------- ---------- ------ -- ----- -- ----- -- ---- ------<br>--- ----- --- --- ------ -------- ----- --- ------ ----- --<br>----- ----- ---------- --- --- ------ ------ ---- -- ------<br>------- --- ------ ----- --- ---- without -- ---- --- --<br>------- ------,193437.80000000075,193432.30000000075,193094.582,193099.1000000015,193111.248,193444.568,,49,without
screen,html.Screen,2_1_1_1_50,2022-04-27T13:41:53.548Z,,,,,,,,,,,,,,,,,54,,,,,,,,,,,,,,289.0320000014908,,response,,,,100,,,,,,,Space,keypress(Space),,,,,,,,-- --- ---- --- ------ ----- ------- ---- -- --- ------- --<br>------- ---------- ------ -- ----- -- ----- -- ---- ------<br>--- ----- --- --- ------ -------- ----- --- ------ ----- --<br>----- ----- ---------- --- --- ------ ------ ---- -- ------<br>------- --- ------ ----- --- ---- ------- an ---- --- --<br>------- ------,193739.40000000037,193733.6000000015,193427.902,193438,193444.568,193744.556,,50,an
screen,html.Screen,2_1_1_1_51,2022-04-27T13:41:53.757Z,,,,,,,,,,,,,,,,,54,,,,,,,,,,,,,,198.74400000073365,,response,,,,100,,,,,,,Space,keypress(Space),,,,,,,,-- --- ---- --- ------ ----- ------- ---- -- --- ------- --<br>------- ---------- ------ -- ----- -- ----- -- ---- ------<br>--- ----- --- --- ------ -------- ----- --- ------ ----- --<br>----- ----- ---------- --- --- ------ ------ ---- -- ------<br>------- --- ------ ----- --- ---- ------- -- easy --- --<br>------- ------,193948.80000000075,193943.30000000075,193727.89,193739.5,193744.556,193961.214,,51,easy
screen,html.Screen,2_1_1_1_52,2022-04-27T13:41:54.022Z,,,,,,,,,,,,,,,,,54,,,,,,,,,,,,,,247.3860000014829,,response,,,,100,,,,,,,Space,keypress(Space),,,,,,,,-- --- ---- --- ------ ----- ------- ---- -- --- ------- --<br>------- ---------- ------ -- ----- -- ----- -- ---- ------<br>--- ----- --- --- ------ -------- ----- --- ------ ----- --<br>----- ----- ---------- --- --- ------ ------ ---- -- ------<br>------- --- ------ ----- --- ---- ------- -- ---- way --<br>------- ------,194214.20000000112,194208.6000000015,193944.548,193948.90000000037,193961.214,194227.87,,52,way
screen,html.Screen,2_1_1_1_53,2022-04-27T13:41:54.431Z,,,,,,,,,,,,,,,,,54,,,,,,,,,,,,,,389.13000000000466,,response,,,,100,,,,,,,Space,keypress(Space),,,,,,,,-- --- ---- --- ------ ----- ------- ---- -- --- ------- --<br>------- ---------- ------ -- ----- -- ----- -- ---- ------<br>--- ----- --- --- ------ -------- ----- --- ------ ----- --<br>----- ----- ---------- --- --- ------ ------ ---- -- ------<br>------- --- ------ ----- --- ---- ------- -- ---- --- of<br>------- ------,194623.1000000015,194617,194211.204,194214.20000000112,194227.87,194627.854,,53,of
screen,html.Screen,2_1_1_1_54,2022-04-27T13:41:54.834Z,,,,,,,,,,,,,,,,,54,,,,,,,,,,,,,,395.1460000000079,,response,,,,100,,,,,,,Space,keypress(Space),,,,,,,,-- --- ---- --- ------ ----- ------- ---- -- --- ------- --<br>------- ---------- ------ -- ----- -- ----- -- ---- ------<br>--- ----- --- --- ------ -------- ----- --- ------ ----- --<br>----- ----- ---------- --- --- ------ ------ ---- -- ------<br>------- --- ------ ----- --- ---- ------- -- ---- --- --<br>raising ------,195026.30000000075,195023,194611.188,194623.20000000112,194627.854,195027.838,,54,raising
screen,html.Screen,2_1_1_1_55,2022-04-27T13:41:55.389Z,,,,,,,,,,,,,,,,,54,,,,,,,,,,,,,,547.4620000007562,,response,,,,100,,,,,,,Space,keypress(Space),,,,,,,,-- --- ---- --- ------ ----- ------- ---- -- --- ------- --<br>------- ---------- ------ -- ----- -- ----- -- ---- ------<br>--- ----- --- --- ------ -------- ----- --- ------ ----- --<br>----- ----- ---------- --- --- ------ ------ ---- -- ------<br>------- --- ------ ----- --- ---- ------- -- ---- --- --<br>------- money.,195581.20000000112,195575.30000000075,195011.172,195026.40000000037,195027.838,195594.482,,55,money.
Item 100,flow.Loop,2_1_1_1,2022-04-27T13:41:55.390Z,,,,,,,,,,,,,,,,,,,,,,,,,,,,,,,17022.562000000733,,completion,,,,,C,,,,,,,,,,,silence,,,,,195581.40000000037,195575.30000000075,178536.072,178538.30000000075,178552.738,195594.482,,,
Question 1,html.Screen,2_1_1_2,2022-04-27T13:41:58.097Z,,,,,,,,,,,,,,,,,,,,,,,,,,,,true,TRUE,,2690.9180000003835,,response,,,,100,C,,,,,,TRUE,click #choice-1,,,,silence,,,,,198288.40000000037,198285.40000000037,195577.816,195581.6000000015,195594.482,198294.374,,,
Question 2,html.Screen,2_1_1_3,2022-04-27T13:42:03.931Z,,,,,,,,,,,,,,,,,,,,,,,,,,,,true,FALSE,,5825.526000000362,,response,,,,100,C,,,,,,FALSE,click #choice-2,,,,silence,,,,,204122.70000000112,204119.90000000037,198277.708,198288.5,198294.374,204134.367,,,
Item 100,flow.Sequence,2_1_1,2022-04-27T13:42:03.931Z,,,,,,,,,,,,,,,,,,,,,,,,,,,,,,,35566.762000000366,,completion,,,,,,,,,,,,,,,,,,,,,204122.90000000037,204119.90000000037,168536.472,168546.80000000075,168553.138,204134.367,,,
End of Practice,html.Page,2_1_2,2022-04-27T13:42:08.857Z,,,,,,,,,,,,,,,,,,,,,,,,,,,,,,,4913.833000001119,,form submission,,,,,,,,,,,,,,,,,,,,,209048.70000000112,209048.20000000112,204117.701,204123.1000000015,204134.367,209050.837,,,
Practice,flow.Sequence,2_1,2022-04-27T13:42:08.857Z,,,,,,,,,,,,,,,,,,,,,,,,,,,,,,,82289.61800000112,,completion,,,,,,,,,,,,,,,,,,,,,209048.90000000037,209048.20000000112,126741.916,126761.10000000149,126758.582,209050.837,,,
Trap_instruction,html.Page,2_2_0,2022-04-27T13:42:13.270Z,,,,,,,,,,,,,,,,,,,,,,,,,,,,,,,4410.1630000000005,,form submission,,,,,,,,,,,,,,,,,,,,,213461.6000000015,213461,209034.171,209049,209050.837,213465.981,,,
trap_trial,html.Screen,2_2_1,2022-04-27T13:42:16.993Z,,,,,,,,,,,,,,,,,,,,,,,,,,,,true,1,,3716.0190000000002,,response,,,,,,,,,,,1,click #choice-1,,,,,,,,,217184.90000000037,217182,213449.315,213461.80000000075,213465.981,217199.165,,,
end of trap trial,html.Page,2_2_2,2022-04-27T13:42:18.867Z,,,,,,,,,,,,,,,,,,,,,,,,,,,,,,,1859.135000000737,,form submission,,,,,,,,,,,,,,,,,,,,,219058.70000000112,219058.30000000075,217182.499,217185,217199.165,219065.757,,,
Trap 1,flow.Sequence,2_2,2022-04-27T13:42:18.867Z,,,,,,,,,,,,,,,,,,,,,,,,,,,,,,,10007.463000000746,,completion,,,,,,,,,,,,,,,,,,,,,219058.90000000037,219058.30000000075,209034.171,209049,209050.837,219065.757,,,
Standby,html.Page,2_3_0,2022-04-27T13:42:26.859Z,,,,,,,,,,,,,,,,,,,,,,,,,,,,,,,7999.679999999993,,timeout,,,,,,,,,,,,,,,,,,,,,227051.20000000112,227048.771,219049.091,219059,219065.757,227065.437,,,
Holding screen,html.Screen,2_3_1_0_0,2022-04-27T13:42:33.857Z,,,,,,,,,,,,,,,,,,,,,,,,,,,,,,,6997.546000000002,,timeout,,,,,,,,,,,,,,,,,,,,,234049,234046.317,227048.771,227051.5,227065.437,234062.983,,,
screen,html.Screen,2_3_1_0_1_0,2022-04-27T13:42:34.517Z,,,,,,,,,,,,,,,,,40,,,,,,,,,,,,,,639.8170000007376,,response,,,,9,C,,,,,,Space,keypress(Space),,,,instrumental,,,,Police -- ------- ---- ---- ---- - -------- ----- --- --<br>----- ----- ------ -- ---- -- --- - ---- -- - ----- -----<br>------ ---- ------ ---- - -------- ------- -- --- --------<br>-------- ----------- ---- ------ ---- ------ ---- --- ---<br>-------- --- -----,234709.1000000015,234702.80000000075,234046.317,234049.30000000075,234062.983,234712.957,,0,Police
screen,html.Screen,2_3_1_0_1_1,2022-04-27T13:42:34.785Z,,,,,,,,,,,,,,,,,40,,,,,,,,,,,,,,258.14300000149524,,response,,,,9,C,,,,,,Space,keypress(Space),,,,instrumental,,,,------ in ------- ---- ---- ---- - -------- ----- --- --<br>----- ----- ------ -- ---- -- --- - ---- -- - ----- -----<br>------ ---- ------ ---- - -------- ------- -- --- --------<br>-------- ----------- ---- ------ ---- ------ ---- --- ---<br>-------- --- -----,234977,234971.1000000015,234696.291,234709.20000000112,234712.957,234979.613,,1,in
screen,html.Screen,2_3_1_0_1_2,2022-04-27T13:42:35.066Z,,,,,,,,,,,,,,,,,40,,,,,,,,,,,,,,273.5870000011055,,response,,,,9,C,,,,,,Space,keypress(Space),,,,instrumental,,,,------ -- Georgia ---- ---- ---- - -------- ----- --- --<br>----- ----- ------ -- ---- -- --- - ---- -- - ----- -----<br>------ ---- ------ ---- - -------- ------- -- --- --------<br>-------- ----------- ---- ------ ---- ------ ---- --- ---<br>-------- --- -----,235258.5,235253.20000000112,234962.947,234977.1000000015,234979.613,235262.935,,2,Georgia
screen,html.Screen,2_3_1_0_1_3,2022-04-27T13:42:35.308Z,,,,,,,,,,,,,,,,,40,,,,,,,,,,,,,,231.26500000111992,,response,,,,9,C,,,,,,Space,keypress(Space),,,,instrumental,,,,------ -- ------- have ---- ---- - -------- ----- --- --<br>----- ----- ------ -- ---- -- --- - ---- -- - ----- -----<br>------ ---- ------ ---- - -------- ------- -- --- --------<br>-------- ----------- ---- ------ ---- ------ ---- --- ---<br>-------- --- -----,235499.90000000037,235494.20000000112,235246.269,235258.6000000015,235262.935,235512.925,,3,have
screen,html.Screen,2_3_1_0_1_4,2022-04-27T13:42:35.539Z,,,,,,,,,,,,,,,,,40,,,,,,,,,,,,,,213.17500000150176,,response,,,,9,C,,,,,,Space,keypress(Space),,,,instrumental,,,,------ -- ------- ---- shut ---- - -------- ----- --- --<br>----- ----- ------ -- ---- -- --- - ---- -- - ----- -----<br>------ ---- ------ ---- - -------- ------- -- --- --------<br>-------- ----------- ---- ------ ---- ------ ---- --- ---<br>-------- --- -----,235731.5,235726.1000000015,235496.259,235500.1000000015,235512.925,235746.249,,4,shut
screen,html.Screen,2_3_1_0_1_5,2022-04-27T13:42:35.824Z,,,,,,,,,,,,,,,,,40,,,,,,,,,,,,,,264.7509999999893,,response,,,,9,C,,,,,,Space,keypress(Space),,,,instrumental,,,,------ -- ------- ---- ---- down - -------- ----- --- --<br>----- ----- ------ -- ---- -- --- - ---- -- - ----- -----<br>------ ---- ------ ---- - -------- ------- -- --- --------<br>-------- ----------- ---- ------ ---- ------ ---- --- ---<br>-------- --- -----,236016.30000000075,236011,235729.583,235731.6000000015,235746.249,236029.571,,5,down
screen,html.Screen,2_3_1_0_1_6,2022-04-27T13:42:36.065Z,,,,,,,,,,,,,,,,,40,,,,,,,,,,,,,,223.42900000000373,,response,,,,9,C,,,,,,Space,keypress(Space),,,,instrumental,,,,------ -- ------- ---- ---- ---- a -------- ----- --- --<br>----- ----- ------ -- ---- -- --- - ---- -- - ----- -----<br>------ ---- ------ ---- - -------- ------- -- --- --------<br>-------- ----------- ---- ------ ---- ------ ---- --- ---<br>-------- --- -----,236256.80000000075,236253,236012.905,236016.40000000037,236029.571,236262.895,,6,a
screen,html.Screen,2_3_1_0_1_7,2022-04-27T13:42:36.317Z,,,,,,,,,,,,,,,,,40,,,,,,,,,,,,,,241.10500000001048,,response,,,,9,C,,,,,,Space,keypress(Space),,,,instrumental,,,,------ -- ------- ---- ---- ---- - lemonade ----- --- --<br>----- ----- ------ -- ---- -- --- - ---- -- - ----- -----<br>------ ---- ------ ---- - -------- ------- -- --- --------<br>-------- ----------- ---- ------ ---- ------ ---- --- ---<br>-------- --- -----,236509.30000000075,236504,236246.229,236257,236262.895,236512.885,,7,lemonade
screen,html.Screen,2_3_1_0_1_8,2022-04-27T13:42:36.567Z,,,,,,,,,,,,,,,,,40,,,,,,,,,,,,,,240.31500000110827,,response,,,,9,C,,,,,,Space,keypress(Space),,,,instrumental,,,,------ -- ------- ---- ---- ---- - -------- stand --- --<br>----- ----- ------ -- ---- -- --- - ---- -- - ----- -----<br>------ ---- ------ ---- - -------- ------- -- --- --------<br>-------- ----------- ---- ------ ---- ------ ---- --- ---<br>-------- --- -----,236758.90000000037,236753.20000000112,236496.219,236509.40000000037,236512.885,236762.875,,8,stand
screen,html.Screen,2_3_1_0_1_9,2022-04-27T13:42:36.848Z,,,,,,,,,,,,,,,,,40,,,,,,,,,,,,,,271.3250000011176,,response,,,,9,C,,,,,,Space,keypress(Space),,,,instrumental,,,,------ -- ------- ---- ---- ---- - -------- ----- run --<br>----- ----- ------ -- ---- -- --- - ---- -- - ----- -----<br>------ ---- ------ ---- - -------- ------- -- --- --------<br>-------- ----------- ---- ------ ---- ------ ---- --- ---<br>-------- --- -----,237040.5,237034.20000000112,236746.209,236759,236762.875,237046.197,,9,run
screen,html.Screen,2_3_1_0_1_10,2022-04-27T13:42:37.228Z,,,,,,,,,,,,,,,,,40,,,,,,,,,,,,,,368.1030000007595,,response,,,,9,C,,,,,,Space,keypress(Space),,,,instrumental,,,,------ -- ------- ---- ---- ---- - -------- ----- --- by<br>----- ----- ------ -- ---- -- --- - ---- -- - ----- -----<br>------ ---- ------ ---- - -------- ------- -- --- --------<br>-------- ----------- ---- ------ ---- ------ ---- --- ---<br>-------- --- -----,237420.1000000015,237414.30000000075,237029.531,237040.6000000015,237046.197,237429.515,,10,by
screen,html.Screen,2_3_1_0_1_11,2022-04-27T13:42:37.458Z,,,,,,,,,,,,,,,,,40,,,,,,,,,,,,,,215.38500000035856,,response,,,,9,C,,,,,,Space,keypress(Space),,,,instrumental,,,,------ -- ------- ---- ---- ---- - -------- ----- --- --<br>three ----- ------ -- ---- -- --- - ---- -- - ----- -----<br>------ ---- ------ ---- - -------- ------- -- --- --------<br>-------- ----------- ---- ------ ---- ------ ---- --- ---<br>-------- --- -----,237650.40000000037,237644.90000000037,237412.849,237420.20000000112,237429.515,237662.839,,11,three
screen,html.Screen,2_3_1_0_1_12,2022-04-27T13:42:37.684Z,,,,,,,,,,,,,,,,,40,,,,,,,,,,,,,,209.0610000003653,,response,,,,9,C,,,,,,Space,keypress(Space),,,,instrumental,,,,------ -- ------- ---- ---- ---- - -------- ----- --- --<br>----- girls ------ -- ---- -- --- - ---- -- - ----- -----<br>------ ---- ------ ---- - -------- ------- -- --- --------<br>-------- ----------- ---- ------ ---- ------ ---- --- ---<br>-------- --- -----,237876,237871.90000000037,237646.173,237650.6000000015,237662.839,237883.405,,12,girls
screen,html.Screen,2_3_1_0_1_13,2022-04-27T13:42:37.877Z,,,,,,,,,,,,,,,,,40,,,,,,,,,,,,,,180.59500000000116,,response,,,,9,C,,,,,,Space,keypress(Space),,,,instrumental,,,,------ -- ------- ---- ---- ---- - -------- ----- --- --<br>----- ----- trying -- ---- -- --- - ---- -- - ----- -----<br>------ ---- ------ ---- - -------- ------- -- --- --------<br>-------- ----------- ---- ------ ---- ------ ---- --- ---<br>-------- --- -----,238069.40000000037,238064,237866.739,237876.20000000112,237883.405,238083.397,,13,trying
screen,html.Screen,2_3_1_0_1_14,2022-04-27T13:42:38.086Z,,,,,,,,,,,,,,,,,40,,,,,,,,,,,,,,189.90300000074785,,response,,,,9,C,,,,,,Space,keypress(Space),,,,instrumental,,,,------ -- ------- ---- ---- ---- - -------- ----- --- --<br>----- ----- ------ to ---- -- --- - ---- -- - ----- -----<br>------ ---- ------ ---- - -------- ------- -- --- --------<br>-------- ----------- ---- ------ ---- ------ ---- --- ---<br>-------- --- -----,238278.40000000037,238273.30000000075,238066.731,238069.5,238083.397,238283.389,,14,to
screen,html.Screen,2_3_1_0_1_15,2022-04-27T13:42:38.307Z,,,,,,,,,,,,,,,,,40,,,,,,,,,,,,,,209.51100000037695,,response,,,,9,C,,,,,,Space,keypress(Space),,,,instrumental,,,,------ -- ------- ---- ---- ---- - -------- ----- --- --<br>----- ----- ------ -- save -- --- - ---- -- - ----- -----<br>------ ---- ------ ---- - -------- ------- -- --- --------<br>-------- ----------- ---- ------ ---- ------ ---- --- ---<br>-------- --- -----,238498.70000000112,238492.90000000037,238266.723,238278.6000000015,238283.389,238500.047,,15,save
screen,html.Screen,2_3_1_0_1_16,2022-04-27T13:42:38.525Z,,,,,,,,,,,,,,,,,40,,,,,,,,,,,,,,212.05300000149873,,response,,,,9,C,,,,,,Space,keypress(Space),,,,instrumental,,,,------ -- ------- ---- ---- ---- - -------- ----- --- --<br>----- ----- ------ -- ---- up --- - ---- -- - ----- -----<br>------ ---- ------ ---- - -------- ------- -- --- --------<br>-------- ----------- ---- ------ ---- ------ ---- --- ---<br>-------- --- -----,238717.30000000075,238712.1000000015,238483.381,238498.80000000075,238500.047,238733.371,,16,up
screen,html.Screen,2_3_1_0_1_17,2022-04-27T13:42:38.721Z,,,,,,,,,,,,,,,,,40,,,,,,,,,,,,,,174.72900000147638,,response,,,,9,C,,,,,,Space,keypress(Space),,,,instrumental,,,,------ -- ------- ---- ---- ---- - -------- ----- --- --<br>----- ----- ------ -- ---- -- for - ---- -- - ----- -----<br>------ ---- ------ ---- - -------- ------- -- --- --------<br>-------- ----------- ---- ------ ---- ------ ---- --- ---<br>-------- --- -----,238913.5,238908.1000000015,238716.705,238717.5,238733.371,238916.697,,17,for
screen,html.Screen,2_3_1_0_1_18,2022-04-27T13:42:38.930Z,,,,,,,,,,,,,,,,,40,,,,,,,,,,,,,,199.30300000001444,,response,,,,9,C,,,,,,Space,keypress(Space),,,,instrumental,,,,------ -- ------- ---- ---- ---- - -------- ----- --- --<br>----- ----- ------ -- ---- -- --- a ---- -- - ----- -----<br>------ ---- ------ ---- - -------- ------- -- --- --------<br>-------- ----------- ---- ------ ---- ------ ---- --- ---<br>-------- --- -----,239121.80000000075,239116,238900.031,238913.6000000015,238916.697,239133.355,,18,a
screen,html.Screen,2_3_1_0_1_19,2022-04-27T13:42:39.137Z,,,,,,,,,,,,,,,,,40,,,,,,,,,,,,,,189.64499999998952,,response,,,,9,C,,,,,,Space,keypress(Space),,,,instrumental,,,,------ -- ------- ---- ---- ---- - -------- ----- --- --<br>----- ----- ------ -- ---- -- --- - trip -- - ----- -----<br>------ ---- ------ ---- - -------- ------- -- --- --------<br>-------- ----------- ---- ------ ---- ------ ---- --- ---<br>-------- --- -----,239328.70000000112,239323,239116.689,239122,239133.355,239333.347,,19,trip
screen,html.Screen,2_3_1_0_1_20,2022-04-27T13:42:39.324Z,,,,,,,,,,,,,,,,,40,,,,,,,,,,,,,,176.65299999999115,,response,,,,9,C,,,,,,Space,keypress(Space),,,,instrumental,,,,------ -- ------- ---- ---- ---- - -------- ----- --- --<br>----- ----- ------ -- ---- -- --- - ---- to - ----- -----<br>------ ---- ------ ---- - -------- ------- -- --- --------<br>-------- ----------- ---- ------ ---- ------ ---- --- ---<br>-------- --- -----,239515.6000000015,239510,239316.681,239328.80000000075,239333.347,239516.673,,20,to
screen,html.Screen,2_3_1_0_1_21,2022-04-27T13:42:39.517Z,,,,,,,,,,,,,,,,,40,,,,,,,,,,,,,,187.22700000036275,,response,,,,9,C,,,,,,Space,keypress(Space),,,,instrumental,,,,------ -- ------- ---- ---- ---- - -------- ----- --- --<br>----- ----- ------ -- ---- -- --- - ---- -- a ----- -----<br>------ ---- ------ ---- - -------- ------- -- --- --------<br>-------- ----------- ---- ------ ---- ------ ---- --- ---<br>-------- --- -----,239709.20000000112,239703.90000000037,239500.007,239515.70000000112,239516.673,239716.665,,21,a
screen,html.Screen,2_3_1_0_1_22,2022-04-27T13:42:39.726Z,,,,,,,,,,,,,,,,,40,,,,,,,,,,,,,,196.33499999999185,,response,,,,9,C,,,,,,Space,keypress(Space),,,,instrumental,,,,------ -- ------- ---- ---- ---- - -------- ----- --- --<br>----- ----- ------ -- ---- -- --- - ---- -- - water -----<br>------ ---- ------ ---- - -------- ------- -- --- --------<br>-------- ----------- ---- ------ ---- ------ ---- --- ---<br>-------- --- -----,239918.5,239913,239699.999,239709.30000000075,239716.665,239933.323,,22,water
screen,html.Screen,2_3_1_0_1_23,2022-04-27T13:42:39.936Z,,,,,,,,,,,,,,,,,40,,,,,,,,,,,,,,188.87700000111363,,response,,,,9,C,,,,,,Space,keypress(Space),,,,instrumental,,,,"------ -- ------- ---- ---- ---- - -------- ----- --- --<br>----- ----- ------ -- ---- -- --- - ---- -- - ----- park,<br>------ ---- ------ ---- - -------- ------- -- --- --------<br>-------- ----------- ---- ------ ---- ------ ---- --- ---<br>-------- --- -----",240128.20000000112,240122.20000000112,239916.657,239918.70000000112,239933.323,240133.315,,23,"park,"
screen,html.Screen,2_3_1_0_1_24,2022-04-27T13:42:40.546Z,,,,,,,,,,,,,,,,,40,,,,,,,,,,,,,,598.9850000007427,,response,,,,9,C,,,,,,Space,keypress(Space),,,,instrumental,,,,------ -- ------- ---- ---- ---- - -------- ----- --- --<br>----- ----- ------ -- ---- -- --- - ---- -- - ----- -----<br>saying ---- ------ ---- - -------- ------- -- --- --------<br>-------- ----------- ---- ------ ---- ------ ---- --- ---<br>-------- --- -----,240737.6000000015,240732.30000000075,240116.649,240128.20000000112,240133.315,240749.957,,24,saying
screen,html.Screen,2_3_1_0_1_25,2022-04-27T13:42:40.768Z,,,,,,,,,,,,,,,,,40,,,,,,,,,,,,,,204.84300000075018,,response,,,,9,C,,,,,,Space,keypress(Space),,,,instrumental,,,,------ -- ------- ---- ---- ---- - -------- ----- --- --<br>----- ----- ------ -- ---- -- --- - ---- -- - ----- -----<br>------ they ------ ---- - -------- ------- -- --- --------<br>-------- ----------- ---- ------ ---- ------ ---- --- ---<br>-------- --- -----,240959.80000000075,240954.80000000075,240733.291,240737.70000000112,240749.957,240966.615,,25,they
screen,html.Screen,2_3_1_0_1_26,2022-04-27T13:42:40.976Z,,,,,,,,,,,,,,,,,40,,,,,,,,,,,,,,196.3850000000093,,response,,,,9,C,,,,,,Space,keypress(Space),,,,instrumental,,,,------ -- ------- ---- ---- ---- - -------- ----- --- --<br>----- ----- ------ -- ---- -- --- - ---- -- - ----- -----<br>------ ---- didn't ---- - -------- ------- -- --- --------<br>-------- ----------- ---- ------ ---- ------ ---- --- ---<br>-------- --- -----,241168.40000000037,241163,240949.949,240959.90000000037,240966.615,241183.273,,26,didn't
screen,html.Screen,2_3_1_0_1_27,2022-04-27T13:42:41.154Z,,,,,,,,,,,,,,,,,40,,,,,,,,,,,,,,156.7270000000135,,response,,,,9,C,,,,,,Space,keypress(Space),,,,instrumental,,,,------ -- ------- ---- ---- ---- - -------- ----- --- --<br>----- ----- ------ -- ---- -- --- - ---- -- - ----- -----<br>------ ---- ------ have - -------- ------- -- --- --------<br>-------- ----------- ---- ------ ---- ------ ---- --- ---<br>-------- --- -----,241346.30000000075,241340,241166.607,241168.5,241183.273,241349.933,,27,have
screen,html.Screen,2_3_1_0_1_28,2022-04-27T13:42:41.366Z,,,,,,,,,,,,,,,,,40,,,,,,,,,,,,,,202.86700000075507,,response,,,,9,C,,,,,,Space,keypress(Space),,,,instrumental,,,,------ -- ------- ---- ---- ---- - -------- ----- --- --<br>----- ----- ------ -- ---- -- --- - ---- -- - ----- -----<br>------ ---- ------ ---- a -------- ------- -- --- --------<br>-------- ----------- ---- ------ ---- ------ ---- --- ---<br>-------- --- -----,241558.5,241552.80000000075,241333.267,241346.5,241349.933,241566.591,,28,a
screen,html.Screen,2_3_1_0_1_29,2022-04-27T13:42:41.851Z,,,,,,,,,,,,,,,,,40,,,,,,,,,,,,,,470.30900000038673,,response,,,,9,C,,,,,,Space,keypress(Space),,,,instrumental,,,,------ -- ------- ---- ---- ---- - -------- ----- --- --<br>----- ----- ------ -- ---- -- --- - ---- -- - ----- -----<br>------ ---- ------ ---- - business ------- -- --- --------<br>-------- ----------- ---- ------ ---- ------ ---- --- ---<br>-------- --- -----,242043.20000000112,242036.90000000037,241549.925,241558.6000000015,241566.591,242049.905,,29,business
screen,html.Screen,2_3_1_0_1_30,2022-04-27T13:42:42.076Z,,,,,,,,,,,,,,,,,40,,,,,,,,,,,,,,212.9950000003737,,response,,,,9,C,,,,,,Space,keypress(Space),,,,instrumental,,,,------ -- ------- ---- ---- ---- - -------- ----- --- --<br>----- ----- ------ -- ---- -- --- - ---- -- - ----- -----<br>------ ---- ------ ---- - -------- license -- --- --------<br>-------- ----------- ---- ------ ---- ------ ---- --- ---<br>-------- --- -----,242267.90000000037,242262.90000000037,242033.239,242043.30000000075,242049.905,242283.229,,30,license
screen,html.Screen,2_3_1_0_1_31,2022-04-27T13:42:42.299Z,,,,,,,,,,,,,,,,,40,,,,,,,,,,,,,,201.67100000038045,,response,,,,9,C,,,,,,Space,keypress(Space),,,,instrumental,,,,------ -- ------- ---- ---- ---- - -------- ----- --- --<br>----- ----- ------ -- ---- -- --- - ---- -- - ----- -----<br>------ ---- ------ ---- - -------- ------- or --- --------<br>-------- ----------- ---- ------ ---- ------ ---- --- ---<br>-------- --- -----,242490.90000000037,242484.90000000037,242266.563,242268.1000000015,242283.229,242499.887,,31,or
screen,html.Screen,2_3_1_0_1_32,2022-04-27T13:42:42.642Z,,,,,,,,,,,,,,,,,40,,,,,,,,,,,,,,328.91300000075717,,response,,,,9,C,,,,,,Space,keypress(Space),,,,instrumental,,,,------ -- ------- ---- ---- ---- - -------- ----- --- --<br>----- ----- ------ -- ---- -- --- - ---- -- - ----- -----<br>------ ---- ------ ---- - -------- ------- -- the --------<br>-------- ----------- ---- ------ ---- ------ ---- --- ---<br>-------- --- -----,242834.5,242828.80000000075,242483.221,242491,242499.887,242849.873,,32,the
screen,html.Screen,2_3_1_0_1_33,2022-04-27T13:42:42.893Z,,,,,,,,,,,,,,,,,40,,,,,,,,,,,,,,229.82700000112527,,response,,,,9,C,,,,,,Space,keypress(Space),,,,instrumental,,,,------ -- ------- ---- ---- ---- - -------- ----- --- --<br>----- ----- ------ -- ---- -- --- - ---- -- - ----- -----<br>------ ---- ------ ---- - -------- ------- -- --- required<br>-------- ----------- ---- ------ ---- ------ ---- --- ---<br>-------- --- -----,243085.40000000037,243079.70000000112,242833.207,242834.6000000015,242849.873,243099.863,,33,required
screen,html.Screen,2_3_1_0_1_34,2022-04-27T13:42:43.241Z,,,,,,,,,,,,,,,,,40,,,,,,,,,,,,,,327.93700000073295,,response,,,,9,C,,,,,,Space,keypress(Space),,,,instrumental,,,,------ -- ------- ---- ---- ---- - -------- ----- --- --<br>----- ----- ------ -- ---- -- --- - ---- -- - ----- -----<br>------ ---- ------ ---- - -------- ------- -- --- --------<br>permits. ----------- ---- ------ ---- ------ ---- --- ---<br>-------- --- -----,243433.5,243427.80000000075,243083.197,243085.40000000037,243099.863,243449.849,,34,permits.
screen,html.Screen,2_3_1_0_1_35,2022-04-27T13:42:43.860Z,,,,,,,,,,,,,,,,,40,,,,,,,,,,,,,,596.9510000007576,,response,,,,9,C,,,,,,Space,keypress(Space),,,,instrumental,,,,------ -- ------- ---- ---- ---- - -------- ----- --- --<br>----- ----- ------ -- ---- -- --- - ---- -- - ----- -----<br>------ ---- ------ ---- - -------- ------- -- --- --------<br>-------- Morningstar ---- ------ ---- ------ ---- --- ---<br>-------- --- -----,244052.1000000015,244046.80000000075,243433.183,243433.70000000112,243449.849,244066.491,,35,Morningstar
screen,html.Screen,2_3_1_0_1_36,2022-04-27T13:42:44.104Z,,,,,,,,,,,,,,,,,40,,,,,,,,,,,,,,222.60900000148104,,response,,,,9,C,,,,,,Space,keypress(Space),,,,instrumental,,,,------ -- ------- ---- ---- ---- - -------- ----- --- --<br>----- ----- ------ -- ---- -- --- - ---- -- - ----- -----<br>------ ---- ------ ---- - -------- ------- -- --- --------<br>-------- ----------- says ------ ---- ------ ---- --- ---<br>-------- --- -----,244295.70000000112,244289.1000000015,244049.825,244052.30000000075,244066.491,244299.815,,36,says
screen,html.Screen,2_3_1_0_1_37,2022-04-27T13:42:44.340Z,,,,,,,,,,,,,,,,,40,,,,,,,,,,,,,,226.88500000111526,,response,,,,9,C,,,,,,Space,keypress(Space),,,,instrumental,,,,------ -- ------- ---- ---- ---- - -------- ----- --- --<br>----- ----- ------ -- ---- -- --- - ---- -- - ----- -----<br>------ ---- ------ ---- - -------- ------- -- --- --------<br>-------- ----------- ---- police ---- ------ ---- --- ---<br>-------- --- -----,244532.20000000112,244526.70000000112,244283.149,244295.80000000075,244299.815,244533.139,,37,police
screen,html.Screen,2_3_1_0_1_38,2022-04-27T13:42:44.734Z,,,,,,,,,,,,,,,,,40,,,,,,,,,,,,,,387.561000001122,,response,,,,9,C,,,,,,Space,keypress(Space),,,,instrumental,,,,------ -- ------- ---- ---- ---- - -------- ----- --- --<br>----- ----- ------ -- ---- -- --- - ---- -- - ----- -----<br>------ ---- ------ ---- - -------- ------- -- --- --------<br>-------- ----------- ---- ------ also ------ ---- --- ---<br>-------- --- -----,244926.5,244920.70000000112,244516.473,244532.30000000075,244533.139,244933.123,,38,also
screen,html.Screen,2_3_1_0_1_39,2022-04-27T13:42:45.056Z,,,,,,,,,,,,,,,,,40,,,,,,,,,,,,,,308.67700000075274,,response,,,,9,C,,,,,,Space,keypress(Space),,,,instrumental,,,,------ -- ------- ---- ---- ---- - -------- ----- --- --<br>----- ----- ------ -- ---- -- --- - ---- -- - ----- -----<br>------ ---- ------ ---- - -------- ------- -- --- --------<br>-------- ----------- ---- ------ ---- didn't ---- --- ---<br>-------- --- -----,245247.70000000112,245241.80000000075,244916.457,244926.70000000112,244933.123,245249.777,,39,didn't
screen,html.Screen,2_3_1_0_1_40,2022-04-27T13:42:45.320Z,,,,,,,,,,,,,,,,,40,,,,,,,,,,,,,,256.82300000148825,,response,,,,9,C,,,,,,Space,keypress(Space),,,,instrumental,,,,------ -- ------- ---- ---- ---- - -------- ----- --- --<br>----- ----- ------ -- ---- -- --- - ---- -- - ----- -----<br>------ ---- ------ ---- - -------- ------- -- --- --------<br>-------- ----------- ---- ------ ---- ------ know --- ---<br>-------- --- -----,245511.80000000075,245506.6000000015,245233.111,245247.90000000037,245249.777,245516.433,,40,know
screen,html.Screen,2_3_1_0_1_41,2022-04-27T13:42:45.763Z,,,,,,,,,,,,,,,,,40,,,,,,,,,,,,,,433.36700000075507,,response,,,,9,C,,,,,,Space,keypress(Space),,,,instrumental,,,,------ -- ------- ---- ---- ---- - -------- ----- --- --<br>----- ----- ------ -- ---- -- --- - ---- -- - ----- -----<br>------ ---- ------ ---- - -------- ------- -- --- --------<br>-------- ----------- ---- ------ ---- ------ ---- how ---<br>-------- --- -----,245955.5,245949.80000000075,245499.767,245511.80000000075,245516.433,245966.415,,41,how
screen,html.Screen,2_3_1_0_1_42,2022-04-27T13:42:46.051Z,,,,,,,,,,,,,,,,,40,,,,,,,,,,,,,,271.28500000110944,,response,,,,9,C,,,,,,Space,keypress(Space),,,,instrumental,,,,------ -- ------- ---- ---- ---- - -------- ----- --- --<br>----- ----- ------ -- ---- -- --- - ---- -- - ----- -----<br>------ ---- ------ ---- - -------- ------- -- --- --------<br>-------- ----------- ---- ------ ---- ------ ---- --- the<br>-------- --- -----,246243.1000000015,246237.70000000112,245949.749,245955.6000000015,245966.415,246249.737,,42,the
screen,html.Screen,2_3_1_0_1_43,2022-04-27T13:42:46.474Z,,,,,,,,,,,,,,,,,40,,,,,,,,,,,,,,410.1630000003788,,response,,,,9,C,,,,,,Space,keypress(Space),,,,instrumental,,,,------ -- ------- ---- ---- ---- - -------- ----- --- --<br>----- ----- ------ -- ---- -- --- - ---- -- - ----- -----<br>------ ---- ------ ---- - -------- ------- -- --- --------<br>-------- ----------- ---- ------ ---- ------ ---- --- ---<br>lemonade --- -----,246666.1000000015,246659.90000000037,246233.071,246243.20000000112,246249.737,246683.053,,43,lemonade
screen,html.Screen,2_3_1_0_1_44,2022-04-27T13:42:46.892Z,,,,,,,,,,,,,,,,,40,,,,,,,,,,,,,,395.7470000007306,,response,,,,9,C,,,,,,Space,keypress(Space),,,,instrumental,,,,------ -- ------- ---- ---- ---- - -------- ----- --- --<br>----- ----- ------ -- ---- -- --- - ---- -- - ----- -----<br>------ ---- ------ ---- - -------- ------- -- --- --------<br>-------- ----------- ---- ------ ---- ------ ---- --- ---<br>-------- was -----,247084.30000000075,247078.80000000075,246666.387,246666.20000000112,246683.053,247099.703,,44,was
screen,html.Screen,2_3_1_0_1_45,2022-04-27T13:42:47.382Z,,,,,,,,,,,,,,,,,40,,,,,,,,,,,,,,469.997000001109,,response,,,,9,C,,,,,,Space,keypress(Space),,,,instrumental,,,,------ -- ------- ---- ---- ---- - -------- ----- --- --<br>----- ----- ------ -- ---- -- --- - ---- -- - ----- -----<br>------ ---- ------ ---- - -------- ------- -- --- --------<br>-------- ----------- ---- ------ ---- ------ ---- --- ---<br>-------- --- made.,247574.5,247569.70000000112,247083.037,247084.90000000037,247099.703,247583.017,,45,made.
Item 9,flow.Loop,2_3_1_0_1,2022-04-27T13:42:47.383Z,,,,,,,,,,,,,,,,,,,,,,,,,,,,,,,13506.71700000111,,completion,,,,,,,,,,,,,,,,,,,,,247574.70000000112,247569.70000000112,234046.317,234049.20000000112,234062.983,247583.017,,,
Question 1,html.Screen,2_3_1_0_2,2022-04-27T13:42:49.697Z,,,,,,,,,,,,,,,,,,,,,,,,,,,,true,FALSE,,2303.183000001125,,response,,,,9,C,,,,,,FALSE,click #choice-2,,,,instrumental,,,,,249889.20000000112,249886.20000000112,247566.351,247575,247583.017,249897.775,,,
