sender,sender_type,sender_id,timestamp,meta,,Blues,Classical,Country,Dance,Electronic,Folk,Gospel,Hip-Hop,Jazz,Latin,Musical/Film,New-age,Pop,Prolific_id,Provo_ID,R&B,Rap,Reggae,Religious,Rock,Soul,Swing,Traditional,age,artist_name,correct,correctResponse,distraction,duration,education,ended_on,familiarity,gender,headphone_check_performance,item,list,music_frequency,offensiveness,pleasantness,position_correct,preference,response,response_action,snippet_file,song_name,song_rating,sound,stimulus_1,stimulus_2,stimulus_3,text,time_commit,time_end,time_render,time_run,time_show,time_switch,url,word,word_ID
Prolific ID,html.Form,0,2022-04-30T11:40:54.326Z,"{""labjs_version"":""20.2.2"",""labjs_build"":{""flavor"":""production"",""commit"":""a25486e0c714a0ae2ce03ff94b7bb6896854dcfa""},""location"":""https://run.pavlovia.org/mvasilev/prolific3_music_e/"",""userAgent"":""Mozilla/5.0 (Windows NT 10.0; Win64; x64) AppleWebKit/537.36 (KHTML, like Gecko) Chrome/100.0.4896.127 Safari/537.36"",""platform"":""Win32"",""language"":""en-GB"",""locale"":""en-GB"",""timeZone"":""Europe/London"",""timezoneOffset"":-60,""screen_width"":1280,""screen_height"":720,""scroll_width"":1280,""scroll_height"":587,""window_innerWidth"":1280,""window_innerHeight"":587,""devicePixelRatio"":1.5}",,,,,,,,,,,,,,,5f0a14c3d362030c483654a3,,,,,,,,,,,,,,,7378.955000000744,,form submission,,,,,,,,,,,,,,,,,,,,,34420.699999999255,34420.300000000745,27008.399,27020.900000000373,27041.345,34422.102,{},,
Introduction,html.Screen,1_0,2022-04-30T11:40:58.324Z,,,,,,,,,,,,,,,,,,,,,,,,,,,,,,,3995.4979999996285,,response,,,,,,,,,,,continue,click button,,,,,,,,,38418.699999999255,38417.59999999963,34405.443,34420.90000000037,34422.102,38420.699,,,
Volume calibration,html.Screen,1_1,2022-04-30T11:41:08.476Z,,,,,,,,,,,,,,,,,,,,,,,,,,,,,,,10149.000999999254,,response,,,,,,,,,,,continue,click button,,,,,,,,,48570.59999999963,48569.699999999255,38404.036,38418.800000000745,38420.699,48583.796,,,
Task instructions,html.Screen,1_2,2022-04-30T11:41:13.060Z,,,,,,,,,,,,,,,,,,,,,,,,,,,,,,,4569.903999999253,,response,,,,,,,,,,,continue,click button,,,,,,,,,53154.5,53153.699999999255,48567.19,48570.699999999255,48583.796,53165.554,,,
Sounds,html.Screen,1_3_0_0,2022-04-30T11:41:17.306Z,,,,,,,,,,,,,,,,,,,,,,,,,,,,,,,4248.5090000000055,,timeout,,,,,,,,,1,,,,,,,,S,O,I,,57400.59999999963,57397.459,53148.945,53154.699999999255,53165.554,57414.063,,,
Judgement,html.Screen,1_3_0_1,2022-04-30T11:41:18.540Z,,,,,,,,,,,,,,,,,,,,,,,,,,,,false,1,,1219.636999999253,,response,,,,,,,,,1,,3,click #choice-3,,,,,S,O,I,,58634.699999999255,58633.699999999255,57397.459,57400.699999999255,57414.063,58646.967,,,
Trial,flow.Sequence,1_3_0,2022-04-30T11:41:18.541Z,,,,,,,,,,,,,,,,,,,,,,,,,,,,,,,5468.1459999992585,,completion,,,,,,,,,1,,,,,,,,S,O,I,,58635,58633.699999999255,53148.945,53154.699999999255,53165.554,58646.967,,,
Sounds,html.Screen,1_3_1_0,2022-04-30T11:41:22.785Z,,,,,,,,,,,,,,,,,,,,,,,,,,,,,,,4248.510000000002,,timeout,,,,,,,,,1,,,,,,,,S,I,O,,62880,62878.937,58630.356,58635,58646.967,62895.477,,,
Judgement,html.Screen,1_3_1_1,2022-04-30T11:41:23.420Z,,,,,,,,,,,,,,,,,,,,,,,,,,,,true,1,,618.222999999256,,response,,,,,,,,,1,,1,click #choice-1,,,,,S,I,O,,63514.699999999255,63513.699999999255,62878.937,62880.199999999255,62895.477,63528.603,,,
Trial,flow.Sequence,1_3_1,2022-04-30T11:41:23.420Z,,,,,,,,,,,,,,,,,,,,,,,,,,,,,,,4866.732999999258,,completion,,,,,,,,,1,,,,,,,,S,I,O,,63514.90000000037,63513.699999999255,58630.356,58635,58646.967,63528.603,,,
Sounds,html.Screen,1_3_2_0,2022-04-30T11:41:27.667Z,,,,,,,,,,,,,,,,,,,,,,,,,,,,,,,4248.505999999994,,timeout,,,,,,,,,3,,,,,,,,I,O,S,,67761.69999999925,67760.537,63511.97,63515,63528.603,67777.109,,,
Judgement,html.Screen,1_3_2_1,2022-04-30T11:41:28.276Z,,,,,,,,,,,,,,,,,,,,,,,,,,,,true,3,,592.5909999992582,,response,,,,,,,,,3,,3,click #choice-3,,,,,I,O,S,,68370.59999999963,68369.69999999925,67760.537,67761.90000000037,67777.109,68376.893,,,
Trial,flow.Sequence,1_3_2,2022-04-30T11:41:28.276Z,,,,,,,,,,,,,,,,,,,,,,,,,,,,,,,4841.096999999252,,completion,,,,,,,,,3,,,,,,,,I,O,S,,68370.80000000075,68369.69999999925,63511.97,63515,63528.603,68376.893,,,
Sounds,html.Screen,1_3_3_0,2022-04-30T11:41:32.515Z,,,,,,,,,,,,,,,,,,,,,,,,,,,,,,,4248.540999999997,,timeout,,,,,,,,,3,,,,,,,,O,I,S,,72609.30000000075,72608.782,68360.366,68370.80000000075,68376.893,72625.434,,,
Judgement,html.Screen,1_3_3_1,2022-04-30T11:41:32.996Z,,,,,,,,,,,,,,,,,,,,,,,,,,,,true,3,,464.3660000007512,,response,,,,,,,,,3,,3,click #choice-3,,,,,O,I,S,,73090.69999999925,73089.80000000075,72608.782,72609.40000000037,72625.434,73091.971,,,
Trial,flow.Sequence,1_3_3,2022-04-30T11:41:32.996Z,,,,,,,,,,,,,,,,,,,,,,,,,,,,,,,4712.907000000749,,completion,,,,,,,,,3,,,,,,,,O,I,S,,73090.90000000037,73089.80000000075,68360.366,68370.80000000075,68376.893,73091.971,,,
Sounds,html.Screen,1_3_4_0,2022-04-30T11:41:37.230Z,,,,,,,,,,,,,,,,,,,,,,,,,,,,,,,4248.485000000001,,timeout,,,,,,,,,2,,,,,,,,I,S,O,,77324.30000000075,77323.811,73075.304,73091.09999999963,73091.971,77340.456,,,
Judgement,html.Screen,1_3_4_1,2022-04-30T11:41:37.748Z,,,,,,,,,,,,,,,,,,,,,,,,,,,,true,2,,501.34400000073947,,response,,,,,,,,,2,,2,click #choice-2,,,,,I,S,O,,77842.59999999963,77841.80000000075,77323.811,77324.40000000037,77340.456,77856.972,,,
Trial,flow.Sequence,1_3_4,2022-04-30T11:41:37.748Z,,,,,,,,,,,,,,,,,,,,,,,,,,,,,,,4749.82900000074,,completion,,,,,,,,,2,,,,,,,,I,S,O,,77842.80000000075,77841.80000000075,73075.304,73091,73091.971,77856.972,,,
Sounds,html.Screen,1_3_5_0,2022-04-30T11:41:41.995Z,,,,,,,,,,,,,,,,,,,,,,,,,,,,,,,4248.487000000008,,timeout,,,,,,,,,2,,,,,,,,O,S,I,,82089.30000000075,82088.811,77840.331,77842.90000000037,77856.972,82105.459,,,
Judgement,html.Screen,1_3_5_1,2022-04-30T11:41:42.532Z,,,,,,,,,,,,,,,,,,,,,,,,,,,,true,2,,520.1409999996249,,response,,,,,,,,,2,,2,click #choice-2,,,,,O,S,I,,82626.59999999963,82625.59999999963,82088.811,82089.5,82105.459,82638.648,,,
Trial,flow.Sequence,1_3_5,2022-04-30T11:41:42.532Z,,,,,,,,,,,,,,,,,,,,,,,,,,,,,,,4768.627999999633,,completion,,,,,,,,,2,,,,,,,,O,S,I,,82626.69999999925,82625.59999999963,77840.331,77842.80000000075,77856.972,82638.648,,,
Task,flow.Loop,1_3,2022-04-30T11:41:42.536Z,,,,,,,,,,,,,,,,,,,,,,,,,,,,,,,29460.04599999963,,completion,,,0.8333333333333334,,,,,,,,,,,,,,,,,,82630.69999999925,82625.59999999963,53148.945,53154.59999999963,53165.554,82638.648,,,
Trap,html.Screen,1_4,2022-04-30T11:41:42.537Z,,,,,,,,,,,,,,,,,,,,,,,,,,,,,,,NaN,,skipped,,,,,,,,,,,,,,,,,,,,,82631.59999999963,82625.59999999963,,82631.59999999963,,82638.648,,,
Thanks,html.Screen,1_5,2022-04-30T11:41:45.036Z,,,,,,,,,,,,,,,,,,,,,,,,,,,,,,,2491.051999999254,,response,,,,,,,,,,,continue,click button,,,,,,,,,85130.59999999963,85129.69999999925,82621.995,82631.69999999925,82638.648,91202.295,,,
Headphone screening,flow.Sequence,1,2022-04-30T11:41:45.036Z,,,,,,,,,,,,,,,,,,,,,,,,,,,,,,,50707.597999999256,,completion,,,,,,,,,,,,,,,,,,,,,85130.80000000075,85129.69999999925,34405.443,34420.800000000745,34422.102,91202.295,,,
Instructions,html.Page,2_0,2022-04-30T11:41:58.808Z,,,,,,,,,,,,,,,,,,,,,,,,,,,,,,,7700.105000000374,,form submission,,,,,,,,,,,,,,,,,,,,,98902.80000000075,98902.40000000037,91185.67,91197.19999999925,91202.295,98919.217,,,
Holding screen,html.Screen,2_1_0_0,2022-04-30T11:42:08.802Z,,,,,,,,,,,,,,,,,,,,,,,,,,,,,,,9993.587999999989,,timeout,,,,,,,,,,,,,,,,,,,,,108896.59999999963,108896.143,98883.003,98902.90000000037,98919.217,108912.805,,,
screen,html.Screen,2_1_0_1_0,2022-04-30T11:42:12.414Z,,,,,,,,,,,,,,,,,53,,,,,,,,,,,,,,3594.0950000003795,,response,,,,99,,,,,,,Space,keypress(Space),,,,,,,,When -- ----- -- ------ - ------- --- ----------<br>------------- ------ ------ ---- ---- ------- ----- -- ----<br>-------- ------- -- ---------- --- - --- ----- ----- ----<br>---- --- --- ----- --- ---- ---- ------- ----- ---- -------<br>--- --- -- ----- -- --- ---- -- --- ---- -- ------ ------<br>--- ----- -- ----,112509,112506.90000000037,108896.143,108896.69999999925,108912.805,112511.563,,0,When
screen,html.Screen,2_1_0_1_1,2022-04-30T11:42:12.848Z,,,,,,,,,,,,,,,,,53,,,,,,,,,,,,,,430.6369999992603,,response,,,,99,,,,,,,Space,keypress(Space),,,,,,,,---- it ----- -- ------ - ------- --- ----------<br>------------- ------ ------ ---- ---- ------- ----- -- ----<br>-------- ------- -- ---------- --- - --- ----- ----- ----<br>---- --- --- ----- --- ---- ---- ------- ----- ---- -------<br>--- --- -- ----- -- --- ---- -- --- ---- -- ------ ------<br>--- ----- -- ----,112942.69999999925,112942.19999999925,112494.907,112509,112511.563,112944.736,,1,it
screen,html.Screen,2_1_0_1_2,2022-04-30T11:42:13.248Z,,,,,,,,,,,,,,,,,53,,,,,,,,,,,,,,396.86399999962305,,response,,,,99,,,,,,,Space,keypress(Space),,,,,,,,---- -- comes -- ------ - ------- --- ----------<br>------------- ------ ------ ---- ---- ------- ----- -- ----<br>-------- ------- -- ---------- --- - --- ----- ----- ----<br>---- --- --- ----- --- ---- ---- ------- ----- ---- -------<br>--- --- -- ----- -- --- ---- -- --- ---- -- ------ ------<br>--- ----- -- ----,113342.19999999925,113341.59999999963,112928.202,112942.80000000075,112944.736,113344.59,,2,comes
screen,html.Screen,2_1_0_1_3,2022-04-30T11:42:13.587Z,,,,,,,,,,,,,,,,,53,,,,,,,,,,,,,,336.21000000074855,,response,,,,99,,,,,,,Space,keypress(Space),,,,,,,,---- -- ----- to ------ - ------- --- ----------<br>------------- ------ ------ ---- ---- ------- ----- -- ----<br>-------- ------- -- ---------- --- - --- ----- ----- ----<br>---- --- --- ----- --- ---- ---- ------- ----- ---- -------<br>--- --- -- ----- -- --- ---- -- --- ---- -- ------ ------<br>--- ----- -- ----,113681.30000000075,113680.80000000075,113328.034,113342.30000000075,113344.59,113694.514,,3,to
screen,html.Screen,2_1_0_1_4,2022-04-30T11:42:13.889Z,,,,,,,,,,,,,,,,,53,,,,,,,,,,,,,,288.18599999925937,,response,,,,99,,,,,,,Space,keypress(Space),,,,,,,,---- -- ----- -- having - ------- --- ----------<br>------------- ------ ------ ---- ---- ------- ----- -- ----<br>-------- ------- -- ---------- --- - --- ----- ----- ----<br>---- --- --- ----- --- ---- ---- ------- ----- ---- -------<br>--- --- -- ----- -- --- ---- -- --- ---- -- ------ ------<br>--- ----- -- ----,113983.19999999925,113982.69999999925,113677.928,113682.90000000037,113694.514,113994.349,,4,having
screen,html.Screen,2_1_0_1_5,2022-04-30T11:42:14.197Z,,,,,,,,,,,,,,,,,53,,,,,,,,,,,,,,296.7509999996255,,response,,,,99,,,,,,,Space,keypress(Space),,,,,,,,---- -- ----- -- ------ a ------- --- ----------<br>------------- ------ ------ ---- ---- ------- ----- -- ----<br>-------- ------- -- ---------- --- - --- ----- ----- ----<br>---- --- --- ----- --- ---- ---- ------- ----- ---- -------<br>--- --- -- ----- -- --- ---- -- --- ---- -- ------ ------<br>--- ----- -- ----,114291.80000000075,114291.09999999963,113977.803,113983.40000000037,113994.349,114294.268,,5,a
screen,html.Screen,2_1_0_1_6,2022-04-30T11:42:14.467Z,,,,,,,,,,,,,,,,,53,,,,,,,,,,,,,,266.63200000037614,,response,,,,99,,,,,,,Space,keypress(Space),,,,,,,,---- -- ----- -- ------ - lasting --- ----------<br>------------- ------ ------ ---- ---- ------- ----- -- ----<br>-------- ------- -- ---------- --- - --- ----- ----- ----<br>---- --- --- ----- --- ---- ---- ------- ----- ---- -------<br>--- --- -- ----- -- --- ---- -- --- ---- -- ------ ------<br>--- ----- -- ----,114561.5,114560.90000000037,114277.665,114291.90000000037,114294.268,114577.496,,6,lasting
screen,html.Screen,2_1_0_1_7,2022-04-30T11:42:14.777Z,,,,,,,,,,,,,,,,,53,,,,,,,,,,,,,,293.90400000037334,,response,,,,99,,,,,,,Space,keypress(Space),,,,,,,,---- -- ----- -- ------ - ------- and ----------<br>------------- ------ ------ ---- ---- ------- ----- -- ----<br>-------- ------- -- ---------- --- - --- ----- ----- ----<br>---- --- --- ----- --- ---- ---- ------- ----- ---- -------<br>--- --- -- ----- -- --- ---- -- --- ---- -- ------ ------<br>--- ----- -- ----,114871.80000000075,114871.40000000037,114560.926,114561.59999999963,114577.496,114877.355,,7,and
screen,html.Screen,2_1_0_1_8,2022-04-30T11:42:15.086Z,,,,,,,,,,,,,,,,,53,,,,,,,,,,,,,,303.1450000000041,,response,,,,99,,,,,,,Space,keypress(Space),,,,,,,,---- -- ----- -- ------ - ------- --- fulfilling<br>------------- ------ ------ ---- ---- ------- ----- -- ----<br>-------- ------- -- ---------- --- - --- ----- ----- ----<br>---- --- --- ----- --- ---- ---- ------- ----- ---- -------<br>--- --- -- ----- -- --- ---- -- --- ---- -- ------ ------<br>--- ----- -- ----,115181.09999999963,115180.5,114860.835,114872,114877.355,115193.943,,8,fulfilling
screen,html.Screen,2_1_0_1_9,2022-04-30T11:42:15.421Z,,,,,,,,,,,,,,,,,53,,,,,,,,,,,,,,321.25699999925564,,response,,,,99,,,,,,,Space,keypress(Space),,,,,,,,"---- -- ----- -- ------ - ------- --- ----------<br>relationship, ------ ------ ---- ---- ------- ----- -- ----<br>-------- ------- -- ---------- --- - --- ----- ----- ----<br>---- --- --- ----- --- ---- ---- ------- ----- ---- -------<br>--- --- -- ----- -- --- ---- -- --- ---- -- ------ ------<br>--- ----- -- ----",115515.69999999925,115515.19999999925,115177.415,115181.19999999925,115193.943,115527.197,,9,"relationship,"
screen,html.Screen,2_1_0_1_10,2022-04-30T11:42:15.756Z,,,,,,,,,,,,,,,,,53,,,,,,,,,,,,,,323.0029999992548,,response,,,,99,,,,,,,Space,keypress(Space),,,,,,,,---- -- ----- -- ------ - ------- --- ----------<br>------------- common ------ ---- ---- ------- ----- -- ----<br>-------- ------- -- ---------- --- - --- ----- ----- ----<br>---- --- --- ----- --- ---- ---- ------- ----- ---- -------<br>--- --- -- ----- -- --- ---- -- --- ---- -- ------ ------<br>--- ----- -- ----,115850.59999999963,115850.19999999925,115510.584,115515.69999999925,115527.197,115860.361,,10,common
screen,html.Screen,2_1_0_1_11,2022-04-30T11:42:16.096Z,,,,,,,,,,,,,,,,,53,,,,,,,,,,,,,,329.8389999992505,,response,,,,99,,,,,,,Space,keypress(Space),,,,,,,,---- -- ----- -- ------ - ------- --- ----------<br>------------- ------ wisdom ---- ---- ------- ----- -- ----<br>-------- ------- -- ---------- --- - --- ----- ----- ----<br>---- --- --- ----- --- ---- ---- ------- ----- ---- -------<br>--- --- -- ----- -- --- ---- -- --- ---- -- ------ ------<br>--- ----- -- ----,116191.09999999963,116190.19999999925,115843.832,115850.80000000075,115860.361,116193.599,,11,wisdom
screen,html.Screen,2_1_0_1_12,2022-04-30T11:42:16.447Z,,,,,,,,,,,,,,,,,53,,,,,,,,,,,,,,347.10099999925296,,response,,,,99,,,,,,,Space,keypress(Space),,,,,,,,---- -- ----- -- ------ - ------- --- ----------<br>------------- ------ ------ says ---- ------- ----- -- ----<br>-------- ------- -- ---------- --- - --- ----- ----- ----<br>---- --- --- ----- --- ---- ---- ------- ----- ---- -------<br>--- --- -- ----- -- --- ---- -- --- ---- -- ------ ------<br>--- ----- -- ----,116541.09999999963,116540.69999999925,116177.088,116191.09999999963,116193.599,116543.481,,12,says
screen,html.Screen,2_1_0_1_13,2022-04-30T11:42:16.780Z,,,,,,,,,,,,,,,,,53,,,,,,,,,,,,,,330.1189999996277,,response,,,,99,,,,,,,Space,keypress(Space),,,,,,,,---- -- ----- -- ------ - ------- --- ----------<br>------------- ------ ------ ---- that ------- ----- -- ----<br>-------- ------- -- ---------- --- - --- ----- ----- ----<br>---- --- --- ----- --- ---- ---- ------- ----- ---- -------<br>--- --- -- ----- -- --- ---- -- --- ---- -- ------ ------<br>--- ----- -- ----,116874.19999999925,116873.59999999963,116526.924,116541.30000000075,116543.481,116876.713,,13,that
screen,html.Screen,2_1_0_1_14,2022-04-30T11:42:17.071Z,,,,,,,,,,,,,,,,,53,,,,,,,,,,,,,,288.18700000036915,,response,,,,99,,,,,,,Space,keypress(Space),,,,,,,,---- -- ----- -- ------ - ------- --- ----------<br>------------- ------ ------ ---- ---- feeling ----- -- ----<br>-------- ------- -- ---------- --- - --- ----- ----- ----<br>---- --- --- ----- --- ---- ---- ------- ----- ---- -------<br>--- --- -- ----- -- --- ---- -- --- ---- -- ------ ------<br>--- ----- -- ----,117165.40000000037,117164.90000000037,116860.114,116874.30000000075,116876.713,117176.591,,14,feeling
screen,html.Screen,2_1_0_1_15,2022-04-30T11:42:17.371Z,,,,,,,,,,,,,,,,,53,,,,,,,,,,,,,,288.90899999999965,,response,,,,99,,,,,,,Space,keypress(Space),,,,,,,,---- -- ----- -- ------ - ------- --- ----------<br>------------- ------ ------ ---- ---- ------- close -- ----<br>-------- ------- -- ---------- --- - --- ----- ----- ----<br>---- --- --- ----- --- ---- ---- ------- ----- ---- -------<br>--- --- -- ----- -- --- ---- -- --- ---- -- ------ ------<br>--- ----- -- ----,117466,117465.5,117160.018,117165.5,117176.591,117476.464,,15,close
screen,html.Screen,2_1_0_1_16,2022-04-30T11:42:17.666Z,,,,,,,,,,,,,,,,,53,,,,,,,,,,,,,,283.33600000073784,,response,,,,99,,,,,,,Space,keypress(Space),,,,,,,,---- -- ----- -- ------ - ------- --- ----------<br>------------- ------ ------ ---- ---- ------- ----- to ----<br>-------- ------- -- ---------- --- - --- ----- ----- ----<br>---- --- --- ----- --- ---- ---- ------- ----- ---- -------<br>--- --- -- ----- -- --- ---- -- --- ---- -- ------ ------<br>--- ----- -- ----,117760.5,117759.80000000075,117459.895,117466.09999999963,117476.464,117776.363,,16,to
screen,html.Screen,2_1_0_1_17,2022-04-30T11:42:17.942Z,,,,,,,,,,,,,,,,,53,,,,,,,,,,,,,,259.2369999996299,,response,,,,99,,,,,,,Space,keypress(Space),,,,,,,,---- -- ----- -- ------ - ------- --- ----------<br>------------- ------ ------ ---- ---- ------- ----- -- your<br>-------- ------- -- ---------- --- - --- ----- ----- ----<br>---- --- --- ----- --- ---- ---- ------- ----- ---- -------<br>--- --- -- ----- -- --- ---- -- --- ---- -- ------ ------<br>--- ----- -- ----,118036.09999999963,118035.59999999963,117759.802,117760.59999999963,117776.363,118042.926,,17,your
screen,html.Screen,2_1_0_1_18,2022-04-30T11:42:18.260Z,,,,,,,,,,,,,,,,,53,,,,,,,,,,,,,,311.57399999999325,,response,,,,99,,,,,,,Space,keypress(Space),,,,,,,,---- -- ----- -- ------ - ------- --- ----------<br>------------- ------ ------ ---- ---- ------- ----- -- ----<br>romantic ------- -- ---------- --- - --- ----- ----- ----<br>---- --- --- ----- --- ---- ---- ------- ----- ---- -------<br>--- --- -- ----- -- --- ---- -- --- ---- -- ------ ------<br>--- ----- -- ----,118354.90000000037,118354.5,118026.387,118036.19999999925,118042.926,118359.483,,18,romantic
screen,html.Screen,2_1_0_1_19,2022-04-30T11:42:18.585Z,,,,,,,,,,,,,,,,,53,,,,,,,,,,,,,,319.71699999926204,,response,,,,99,,,,,,,Space,keypress(Space),,,,,,,,---- -- ----- -- ------ - ------- --- ----------<br>------------- ------ ------ ---- ---- ------- ----- -- ----<br>-------- partner -- ---------- --- - --- ----- ----- ----<br>---- --- --- ----- --- ---- ---- ------- ----- ---- -------<br>--- --- -- ----- -- --- ---- -- --- ---- -- ------ ------<br>--- ----- -- ----,118679.69999999925,118679.19999999925,118342.931,118355,118359.483,118692.746,,19,partner
screen,html.Screen,2_1_0_1_20,2022-04-30T11:42:18.861Z,,,,,,,,,,,,,,,,,53,,,,,,,,,,,,,,262.2540000000008,,response,,,,99,,,,,,,Space,keypress(Space),,,,,,,,---- -- ----- -- ------ - ------- --- ----------<br>------------- ------ ------ ---- ---- ------- ----- -- ----<br>-------- ------- is ---------- --- - --- ----- ----- ----<br>---- --- --- ----- --- ---- ---- ------- ----- ---- -------<br>--- --- -- ----- -- --- ---- -- --- ---- -- ------ ------<br>--- ----- -- ----,118955.40000000037,118955,118676.162,118679.80000000075,118692.746,118959.291,,20,is
screen,html.Screen,2_1_0_1_21,2022-04-30T11:42:19.181Z,,,,,,,,,,,,,,,,,53,,,,,,,,,,,,,,315.30899999963003,,response,,,,99,,,,,,,Space,keypress(Space),,,,,,,,---- -- ----- -- ------ - ------- --- ----------<br>------------- ------ ------ ---- ---- ------- ----- -- ----<br>-------- ------- -- paramount. --- - --- ----- ----- ----<br>---- --- --- ----- --- ---- ---- ------- ----- ---- -------<br>--- --- -- ----- -- --- ---- -- --- ---- -- ------ ------<br>--- ----- -- ----,119275.30000000075,119274.59999999963,118942.705,118955.5,118959.291,119304.581,,21,paramount.
screen,html.Screen,2_1_0_1_22,2022-04-30T11:42:19.485Z,,,,,,,,,,,,,,,,,53,,,,,,,,,,,,,,274.4189999999944,,response,,,,99,,,,,,,Space,keypress(Space),,,,,,,,---- -- ----- -- ------ - ------- --- ----------<br>------------- ------ ------ ---- ---- ------- ----- -- ----<br>-------- ------- -- ---------- But - --- ----- ----- ----<br>---- --- --- ----- --- ---- ---- ------- ----- ---- -------<br>--- --- -- ----- -- --- ---- -- --- ---- -- ------ ------<br>--- ----- -- ----,119579.40000000037,119579,119259.281,119275.40000000037,119304.581,119592.443,,22,But
screen,html.Screen,2_1_0_1_23,2022-04-30T11:42:19.785Z,,,,,,,,,,,,,,,,,53,,,,,,,,,,,,,,286.35700000074576,,response,,,,99,,,,,,,Space,keypress(Space),,,,,,,,---- -- ----- -- ------ - ------- --- ----------<br>------------- ------ ------ ---- ---- ------- ----- -- ----<br>-------- ------- -- ---------- --- a --- ----- ----- ----<br>---- --- --- ----- --- ---- ---- ------- ----- ---- -------<br>--- --- -- ----- -- --- ---- -- --- ---- -- ------ ------<br>--- ----- -- ----,119879.30000000075,119878.80000000075,119575.823,119579.5,119592.443,119892.288,,23,a
screen,html.Screen,2_1_0_1_24,2022-04-30T11:42:20.075Z,,,,,,,,,,,,,,,,,53,,,,,,,,,,,,,,277.311999999627,,response,,,,99,,,,,,,Space,keypress(Space),,,,,,,,---- -- ----- -- ------ - ------- --- ----------<br>------------- ------ ------ ---- ---- ------- ----- -- ----<br>-------- ------- -- ---------- --- - new ----- ----- ----<br>---- --- --- ----- --- ---- ---- ------- ----- ---- -------<br>--- --- -- ----- -- --- ---- -- --- ---- -- ------ ------<br>--- ----- -- ----,120170.09999999963,120169.59999999963,119875.762,119879.30000000075,119892.288,120175.517,,24,new
screen,html.Screen,2_1_0_1_25,2022-04-30T11:42:20.376Z,,,,,,,,,,,,,,,,,53,,,,,,,,,,,,,,294.78300000073796,,response,,,,99,,,,,,,Space,keypress(Space),,,,,,,,---- -- ----- -- ------ - ------- --- ----------<br>------------- ------ ------ ---- ---- ------- ----- -- ----<br>-------- ------- -- ---------- --- - --- study ----- ----<br>---- --- --- ----- --- ---- ---- ------- ----- ---- -------<br>--- --- -- ----- -- --- ---- -- --- ---- -- ------ ------<br>--- ----- -- ----,120470.90000000037,120470.30000000075,120158.986,120170.19999999925,120175.517,120475.439,,25,study
screen,html.Screen,2_1_0_1_26,2022-04-30T11:42:20.675Z,,,,,,,,,,,,,,,,,53,,,,,,,,,,,,,,293.76099999925646,,response,,,,99,,,,,,,Space,keypress(Space),,,,,,,,---- -- ----- -- ------ - ------- --- ----------<br>------------- ------ ------ ---- ---- ------- ----- -- ----<br>-------- ------- -- ---------- --- - --- ----- finds ----<br>---- --- --- ----- --- ---- ---- ------- ----- ---- -------<br>--- --- -- ----- -- --- ---- -- --- ---- -- ------ ------<br>--- ----- -- ----,120769.69999999925,120769.19999999925,120458.849,120471,120475.439,120775.423,,26,finds
screen,html.Screen,2_1_0_1_27,2022-04-30T11:42:20.970Z,,,,,,,,,,,,,,,,,53,,,,,,,,,,,,,,288.17699999963224,,response,,,,99,,,,,,,Space,keypress(Space),,,,,,,,---- -- ----- -- ------ - ------- --- ----------<br>------------- ------ ------ ---- ---- ------- ----- -- ----<br>-------- ------- -- ---------- --- - --- ----- ----- that<br>---- --- --- ----- --- ---- ---- ------- ----- ---- -------<br>--- --- -- ----- -- --- ---- -- --- ---- -- ------ ------<br>--- ----- -- ----,121064.09999999963,121063.59999999963,120758.73,120769.80000000075,120775.423,121075.241,,27,that
screen,html.Screen,2_1_0_1_28,2022-04-30T11:42:21.475Z,,,,,,,,,,,,,,,,,53,,,,,,,,,,,,,,493.85899999963294,,response,,,,99,,,,,,,Space,keypress(Space),,,,,,,,---- -- ----- -- ------ - ------- --- ----------<br>------------- ------ ------ ---- ---- ------- ----- -- ----<br>-------- ------- -- ---------- --- - --- ----- ----- ----<br>it's --- --- ----- --- ---- ---- ------- ----- ---- -------<br>--- --- -- ----- -- --- ---- -- --- ---- -- ------ ------<br>--- ----- -- ----,121569.5,121569.09999999963,121058.65,121064.09999999963,121075.241,121575.067,,28,it's
screen,html.Screen,2_1_0_1_29,2022-04-30T11:42:21.910Z,,,,,,,,,,,,,,,,,53,,,,,,,,,,,,,,428.43300000000454,,response,,,,99,,,,,,,Space,keypress(Space),,,,,,,,---- -- ----- -- ------ - ------- --- ----------<br>------------- ------ ------ ---- ---- ------- ----- -- ----<br>-------- ------- -- ---------- --- - --- ----- ----- ----<br>---- not --- ----- --- ---- ---- ------- ----- ---- -------<br>--- --- -- ----- -- --- ---- -- --- ---- -- ------ ------<br>--- ----- -- ----,122004,122003.5,121558.541,121569.59999999963,121575.067,122008.278,,29,not
screen,html.Screen,2_1_0_1_30,2022-04-30T11:42:22.378Z,,,,,,,,,,,,,,,,,53,,,,,,,,,,,,,,463.52200000073935,,response,,,,99,,,,,,,Space,keypress(Space),,,,,,,,---- -- ----- -- ------ - ------- --- ----------<br>------------- ------ ------ ---- ---- ------- ----- -- ----<br>-------- ------- -- ---------- --- - --- ----- ----- ----<br>---- --- how ----- --- ---- ---- ------- ----- ---- -------<br>--- --- -- ----- -- --- ---- -- --- ---- -- ------ ------<br>--- ----- -- ----,122472.30000000075,122471.80000000075,121991.738,122004,122008.278,122474.762,,30,how
screen,html.Screen,2_1_0_1_31,2022-04-30T11:42:22.875Z,,,,,,,,,,,,,,,,,53,,,,,,,,,,,,,,493.9379999992525,,response,,,,99,,,,,,,Space,keypress(Space),,,,,,,,---- -- ----- -- ------ - ------- --- ----------<br>------------- ------ ------ ---- ---- ------- ----- -- ----<br>-------- ------- -- ---------- --- - --- ----- ----- ----<br>---- --- --- close --- ---- ---- ------- ----- ---- -------<br>--- --- -- ----- -- --- ---- -- --- ---- -- ------ ------<br>--- ----- -- ----,122969.19999999925,122968.69999999925,122458.228,122472.30000000075,122474.762,122974.577,,31,close
screen,html.Screen,2_1_0_1_32,2022-04-30T11:42:23.230Z,,,,,,,,,,,,,,,,,53,,,,,,,,,,,,,,348.82300000036776,,response,,,,99,,,,,,,Space,keypress(Space),,,,,,,,---- -- ----- -- ------ - ------- --- ----------<br>------------- ------ ------ ---- ---- ------- ----- -- ----<br>-------- ------- -- ---------- --- - --- ----- ----- ----<br>---- --- --- ----- you ---- ---- ------- ----- ---- -------<br>--- --- -- ----- -- --- ---- -- --- ---- -- ------ ------<br>--- ----- -- ----,123323.80000000075,123323.40000000037,122958.054,122969.30000000075,122974.577,123346.809,,32,you
screen,html.Screen,2_1_0_1_33,2022-04-30T11:42:23.570Z,,,,,,,,,,,,,,,,,53,,,,,,,,,,,,,,316.3909999992611,,response,,,,99,,,,,,,Space,keypress(Space),,,,,,,,---- -- ----- -- ------ - ------- --- ----------<br>------------- ------ ------ ---- ---- ------- ----- -- ----<br>-------- ------- -- ---------- --- - --- ----- ----- ----<br>---- --- --- ----- --- feel ---- ------- ----- ---- -------<br>--- --- -- ----- -- --- ---- -- --- ---- -- ------ ------<br>--- ----- -- ----,123663.80000000075,123663.19999999925,123307.944,123323.90000000037,123346.809,123674.331,,33,feel
screen,html.Screen,2_1_0_1_34,2022-04-30T11:42:23.894Z,,,,,,,,,,,,,,,,,53,,,,,,,,,,,,,,313.6689999999944,,response,,,,99,,,,,,,Space,keypress(Space),,,,,,,,---- -- ----- -- ------ - ------- --- ----------<br>------------- ------ ------ ---- ---- ------- ----- -- ----<br>-------- ------- -- ---------- --- - --- ----- ----- ----<br>---- --- --- ----- --- ---- that ------- ----- ---- -------<br>--- --- -- ----- -- --- ---- -- --- ---- -- ------ ------<br>--- ----- -- ----,123988.59999999963,123988,123657.843,123663.90000000037,123674.331,123990.915,,34,that
screen,html.Screen,2_1_0_1_35,2022-04-30T11:42:24.224Z,,,,,,,,,,,,,,,,,53,,,,,,,,,,,,,,326.48500000037893,,response,,,,99,,,,,,,Space,keypress(Space),,,,,,,,---- -- ----- -- ------ - ------- --- ----------<br>------------- ------ ------ ---- ---- ------- ----- -- ----<br>-------- ------- -- ---------- --- - --- ----- ----- ----<br>---- --- --- ----- --- ---- ---- matters ----- ---- -------<br>--- --- -- ----- -- --- ---- -- --- ---- -- ------ ------<br>--- ----- -- ----,124317.90000000037,124317.40000000037,123974.292,123988.59999999963,123990.915,124324.065,,35,matters
screen,html.Screen,2_1_0_1_36,2022-04-30T11:42:24.549Z,,,,,,,,,,,,,,,,,53,,,,,,,,,,,,,,318.3350000003702,,response,,,,99,,,,,,,Space,keypress(Space),,,,,,,,"---- -- ----- -- ------ - ------- --- ----------<br>------------- ------ ------ ---- ---- ------- ----- -- ----<br>-------- ------- -- ---------- --- - --- ----- ----- ----<br>---- --- --- ----- --- ---- ---- ------- most, ---- -------<br>--- --- -- ----- -- --- ---- -- --- ---- -- ------ ------<br>--- ----- -- ----",124642.80000000075,124642.40000000037,124307.822,124318,124324.065,124657.297,,36,"most,"
screen,html.Screen,2_1_0_1_37,2022-04-30T11:42:24.854Z,,,,,,,,,,,,,,,,,53,,,,,,,,,,,,,,290.30299999962153,,response,,,,99,,,,,,,Space,keypress(Space),,,,,,,,---- -- ----- -- ------ - ------- --- ----------<br>------------- ------ ------ ---- ---- ------- ----- -- ----<br>-------- ------- -- ---------- --- - --- ----- ----- ----<br>---- --- --- ----- --- ---- ---- ------- ----- it's -------<br>--- --- -- ----- -- --- ---- -- --- ---- -- ------ ------<br>--- ----- -- ----,124948.40000000037,124947.59999999963,124640.713,124643,124657.297,124957.188,,37,it's
screen,html.Screen,2_1_0_1_38,2022-04-30T11:42:25.290Z,,,,,,,,,,,,,,,,,53,,,,,,,,,,,,,,426.1120000007504,,response,,,,99,,,,,,,Space,keypress(Space),,,,,,,,---- -- ----- -- ------ - ------- --- ----------<br>------------- ------ ------ ---- ---- ------- ----- -- ----<br>-------- ------- -- ---------- --- - --- ----- ----- ----<br>---- --- --- ----- --- ---- ---- ------- ----- ---- whether<br>--- --- -- ----- -- --- ---- -- --- ---- -- ------ ------<br>--- ----- -- ----,125383.69999999925,125383.30000000075,124940.627,124948.59999999963,124957.188,125390.391,,38,whether
screen,html.Screen,2_1_0_1_39,2022-04-30T11:42:25.654Z,,,,,,,,,,,,,,,,,53,,,,,,,,,,,,,,356.7089999996242,,response,,,,99,,,,,,,Space,keypress(Space),,,,,,,,---- -- ----- -- ------ - ------- --- ----------<br>------------- ------ ------ ---- ---- ------- ----- -- ----<br>-------- ------- -- ---------- --- - --- ----- ----- ----<br>---- --- --- ----- --- ---- ---- ------- ----- ---- -------<br>you --- -- ----- -- --- ---- -- --- ---- -- ------ ------<br>--- ----- -- ----,125747.59999999963,125747.09999999963,125373.887,125383.80000000075,125390.391,125756.93,,39,you
screen,html.Screen,2_1_0_1_40,2022-04-30T11:42:25.948Z,,,,,,,,,,,,,,,,,53,,,,,,,,,,,,,,284.9700000003795,,response,,,,99,,,,,,,Space,keypress(Space),,,,,,,,---- -- ----- -- ------ - ------- --- ----------<br>------------- ------ ------ ---- ---- ------- ----- -- ----<br>-------- ------- -- ---------- --- - --- ----- ----- ----<br>---- --- --- ----- --- ---- ---- ------- ----- ---- -------<br>--- are -- ----- -- --- ---- -- --- ---- -- ------ ------<br>--- ----- -- ----,126042.40000000037,126041.90000000037,125740.346,125747.80000000075,125756.93,126056.814,,40,are
screen,html.Screen,2_1_0_1_41,2022-04-30T11:42:26.283Z,,,,,,,,,,,,,,,,,53,,,,,,,,,,,,,,319.88599999925646,,response,,,,99,,,,,,,Space,keypress(Space),,,,,,,,---- -- ----- -- ------ - ------- --- ----------<br>------------- ------ ------ ---- ---- ------- ----- -- ----<br>-------- ------- -- ---------- --- - --- ----- ----- ----<br>---- --- --- ----- --- ---- ---- ------- ----- ---- -------<br>--- --- as ----- -- --- ---- -- --- ---- -- ------ ------<br>--- ----- -- ----,126377.19999999925,126376.69999999925,126040.246,126042.5,126056.814,126390.09,,41,as
screen,html.Screen,2_1_0_1_42,2022-04-30T11:42:26.639Z,,,,,,,,,,,,,,,,,53,,,,,,,,,,,,,,342.71000000074855,,response,,,,99,,,,,,,Space,keypress(Space),,,,,,,,---- -- ----- -- ------ - ------- --- ----------<br>------------- ------ ------ ---- ---- ------- ----- -- ----<br>-------- ------- -- ---------- --- - --- ----- ----- ----<br>---- --- --- ----- --- ---- ---- ------- ----- ---- -------<br>--- --- -- close -- --- ---- -- --- ---- -- ------ ------<br>--- ----- -- ----,126733.19999999925,126732.80000000075,126373.489,126377.30000000075,126390.09,126739.937,,42,close
screen,html.Screen,2_1_0_1_43,2022-04-30T11:42:26.968Z,,,,,,,,,,,,,,,,,53,,,,,,,,,,,,,,321.6629999996221,,response,,,,99,,,,,,,Space,keypress(Space),,,,,,,,---- -- ----- -- ------ - ------- --- ----------<br>------------- ------ ------ ---- ---- ------- ----- -- ----<br>-------- ------- -- ---------- --- - --- ----- ----- ----<br>---- --- --- ----- --- ---- ---- ------- ----- ---- -------<br>--- --- -- ----- as --- ---- -- --- ---- -- ------ ------<br>--- ----- -- ----,127062.19999999925,127061.59999999963,126723.366,126733.30000000075,126739.937,127073.133,,43,as
screen,html.Screen,2_1_0_1_44,2022-04-30T11:42:27.339Z,,,,,,,,,,,,,,,,,53,,,,,,,,,,,,,,359.2670000003709,,response,,,,99,,,,,,,Space,keypress(Space),,,,,,,,---- -- ----- -- ------ - ------- --- ----------<br>------------- ------ ------ ---- ---- ------- ----- -- ----<br>-------- ------- -- ---------- --- - --- ----- ----- ----<br>---- --- --- ----- --- ---- ---- ------- ----- ---- -------<br>--- --- -- ----- -- you ---- -- --- ---- -- ------ ------<br>--- ----- -- ----,127432.90000000037,127432.40000000037,127056.871,127062.30000000075,127073.133,127439.647,,44,you
screen,html.Screen,2_1_0_1_45,2022-04-30T11:42:27.698Z,,,,,,,,,,,,,,,,,53,,,,,,,,,,,,,,351.95299999963026,,response,,,,99,,,,,,,Space,keypress(Space),,,,,,,,---- -- ----- -- ------ - ------- --- ----------<br>------------- ------ ------ ---- ---- ------- ----- -- ----<br>-------- ------- -- ---------- --- - --- ----- ----- ----<br>---- --- --- ----- --- ---- ---- ------- ----- ---- -------<br>--- --- -- ----- -- --- want -- --- ---- -- ------ ------<br>--- ----- -- ----,127792.09999999963,127791.59999999963,127423.105,127433.80000000075,127439.647,127806.228,,45,want
screen,html.Screen,2_1_0_1_46,2022-04-30T11:42:28.033Z,,,,,,,,,,,,,,,,,53,,,,,,,,,,,,,,320.7719999999972,,response,,,,99,,,,,,,Space,keypress(Space),,,,,,,,---- -- ----- -- ------ - ------- --- ----------<br>------------- ------ ------ ---- ---- ------- ----- -- ----<br>-------- ------- -- ---------- --- - --- ----- ----- ----<br>---- --- --- ----- --- ---- ---- ------- ----- ---- -------<br>--- --- -- ----- -- --- ---- to --- ---- -- ------ ------<br>--- ----- -- ----,128127.5,128127,127789.72,127792.19999999925,127806.228,128139.424,,46,to
screen,html.Screen,2_1_0_1_47,2022-04-30T11:42:28.343Z,,,,,,,,,,,,,,,,,53,,,,,,,,,,,,,,296.876000000746,,response,,,,99,,,,,,,Space,keypress(Space),,,,,,,,"---- -- ----- -- ------ - ------- --- ----------<br>------------- ------ ------ ---- ---- ------- ----- -- ----<br>-------- ------- -- ---------- --- - --- ----- ----- ----<br>---- --- --- ----- --- ---- ---- ------- ----- ---- -------<br>--- --- -- ----- -- --- ---- -- be, ---- -- ------ ------<br>--- ----- -- ----",128436.69999999925,128436.30000000075,128122.864,128127.59999999963,128139.424,128439.35,,47,"be,"
screen,html.Screen,2_1_0_1_48,2022-04-30T11:42:28.623Z,,,,,,,,,,,,,,,,,53,,,,,,,,,,,,,,276.8499999992491,,response,,,,99,,,,,,,Space,keypress(Space),,,,,,,,---- -- ----- -- ------ - ------- --- ----------<br>------------- ------ ------ ---- ---- ------- ----- -- ----<br>-------- ------- -- ---------- --- - --- ----- ----- ----<br>---- --- --- ----- --- ---- ---- ------- ----- ---- -------<br>--- --- -- ----- -- --- ---- -- --- even -- ------ ------<br>--- ----- -- ----,128716.69999999925,128716.19999999925,128422.763,128436.80000000075,128439.35,128722.68,,48,even
screen,html.Screen,2_1_0_1_49,2022-04-30T11:42:28.898Z,,,,,,,,,,,,,,,,,53,,,,,,,,,,,,,,268.820000000007,,response,,,,99,,,,,,,Space,keypress(Space),,,,,,,,---- -- ----- -- ------ - ------- --- ----------<br>------------- ------ ------ ---- ---- ------- ----- -- ----<br>-------- ------- -- ---------- --- - --- ----- ----- ----<br>---- --- --- ----- --- ---- ---- ------- ----- ---- -------<br>--- --- -- ----- -- --- ---- -- --- ---- if ------ ------<br>--- ----- -- ----,128991.90000000037,128991.5,128706.005,128716.69999999925,128722.68,129005.845,,49,if
screen,html.Screen,2_1_0_1_50,2022-04-30T11:42:29.178Z,,,,,,,,,,,,,,,,,53,,,,,,,,,,,,,,265.15499999999884,,response,,,,99,,,,,,,Space,keypress(Space),,,,,,,,---- -- ----- -- ------ - ------- --- ----------<br>------------- ------ ------ ---- ---- ------- ----- -- ----<br>-------- ------- -- ---------- --- - --- ----- ----- ----<br>---- --- --- ----- --- ---- ---- ------- ----- ---- -------<br>--- --- -- ----- -- --- ---- -- --- ---- -- that's ------<br>--- ----- -- ----,129271.69999999925,129271,128989.224,128992.09999999963,129005.845,129290.548,,50,that's
screen,html.Screen,2_1_0_1_51,2022-04-30T11:42:29.457Z,,,,,,,,,,,,,,,,,53,,,,,,,,,,,,,,260.1519999992597,,response,,,,99,,,,,,,Space,keypress(Space),,,,,,,,---- -- ----- -- ------ - ------- --- ----------<br>------------- ------ ------ ---- ---- ------- ----- -- ----<br>-------- ------- -- ---------- --- - --- ----- ----- ----<br>---- --- --- ----- --- ---- ---- ------- ----- ---- -------<br>--- --- -- ----- -- --- ---- -- --- ---- -- ------ really<br>--- ----- -- ----,129551.19999999925,129550.69999999925,129255.829,129271.90000000037,129290.548,129555.603,,51,really
screen,html.Screen,2_1_0_1_52,2022-04-30T11:42:29.777Z,,,,,,,,,,,,,,,,,53,,,,,,,,,,,,,,315.29700000036974,,response,,,,99,,,,,,,Space,keypress(Space),,,,,,,,---- -- ----- -- ------ - ------- --- ----------<br>------------- ------ ------ ---- ---- ------- ----- -- ----<br>-------- ------- -- ---------- --- - --- ----- ----- ----<br>---- --- --- ----- --- ---- ---- ------- ----- ---- -------<br>--- --- -- ----- -- --- ---- -- --- ---- -- ------ ------<br>not ----- -- ----,129871.40000000037,129870.90000000037,129538.997,129551.19999999925,129555.603,129901.216,,52,not
screen,html.Screen,2_1_0_1_53,2022-04-30T11:42:30.122Z,,,,,,,,,,,,,,,,,53,,,,,,,,,,,,,,314.3839999996271,,response,,,,99,,,,,,,Space,keypress(Space),,,,,,,,---- -- ----- -- ------ - ------- --- ----------<br>------------- ------ ------ ---- ---- ------- ----- -- ----<br>-------- ------- -- ---------- --- - --- ----- ----- ----<br>---- --- --- ----- --- ---- ---- ------- ----- ---- -------<br>--- --- -- ----- -- --- ---- -- --- ---- -- ------ ------<br>--- close -- ----,130216.09999999963,130215.59999999963,129855.657,129871.5,129901.216,130222.024,,53,close
screen,html.Screen,2_1_0_1_54,2022-04-30T11:42:30.473Z,,,,,,,,,,,,,,,,,53,,,,,,,,,,,,,,344.17599999925005,,response,,,,99,,,,,,,Space,keypress(Space),,,,,,,,---- -- ----- -- ------ - ------- --- ----------<br>------------- ------ ------ ---- ---- ------- ----- -- ----<br>-------- ------- -- ---------- --- - --- ----- ----- ----<br>---- --- --- ----- --- ---- ---- ------- ----- ---- -------<br>--- --- -- ----- -- --- ---- -- --- ---- -- ------ ------<br>--- ----- at ----,130567.09999999963,130566.19999999925,130205.455,130216.19999999925,130222.024,130571.922,,54,at
screen,html.Screen,2_1_0_1_55,2022-04-30T11:42:30.892Z,,,,,,,,,,,,,,,,,53,,,,,,,,,,,,,,413.3780000007391,,response,,,,99,,,,,,,Space,keypress(Space),,,,,,,,---- -- ----- -- ------ - ------- --- ----------<br>------------- ------ ------ ---- ---- ------- ----- -- ----<br>-------- ------- -- ---------- --- - --- ----- ----- ----<br>---- --- --- ----- --- ---- ---- ------- ----- ---- -------<br>--- --- -- ----- -- --- ---- -- --- ---- -- ------ ------<br>--- ----- -- all.,130985.80000000075,130985.30000000075,130555.37,130567.30000000075,130571.922,130988.466,,55,all.
Item 99,flow.Loop,2_1_0_1,2022-04-30T11:42:30.892Z,,,,,,,,,,,,,,,,,,,,,,,,,,,,,,,22072.495000000752,,completion,,,,,E,,,,,,,,,,,silence,,,,,130986,130985.30000000075,108896.143,108896.69999999925,108912.805,130988.466,,,
Question 1,html.Screen,2_1_0_2,2022-04-30T11:42:42.565Z,,,,,,,,,,,,,,,,,,,,,,,,,,,,false,FALSE,,11669.633999999627,,response,,,,99,E,,,,,,TRUE,click #choice-1,,,,silence,,,,,142659.09999999963,142658.09999999963,130971.923,130986.09999999963,130988.466,142667.672,,,
Question 2,html.Screen,2_1_0_3,2022-04-30T11:42:44.724Z,,,,,,,,,,,,,,,,,,,,,,,,,,,,true,TRUE,,2150.0279999992636,,response,,,,99,E,,,,,,TRUE,click #choice-1,,,,silence,,,,,144818.5,144817.69999999925,142651.152,142659.19999999925,142667.672,144833.634,,,
Item 99,flow.Sequence,2_1_0,2022-04-30T11:42:44.725Z,,,,,,,,,,,,,,,,,,,,,,,,,,,,,,,45898.48299999925,,completion,,,,,,,,,,,,,,,,,,,,,144818.69999999925,144817.69999999925,98883.003,98902.80000000075,98919.217,144833.634,,,
Holding screen,html.Screen,2_1_1_0,2022-04-30T11:42:54.720Z,,,,,,,,,,,,,,,,,,,,,,,,,,,,,,,9996.502999999997,,timeout,,,,,,,,,,,,,,,,,,,,,154814,154813.482,144817.023,144818.80000000075,144833.634,154830.137,,,
screen,html.Screen,2_1_1_1_0,2022-04-30T11:43:01.609Z,,,,,,,,,,,,,,,,,54,,,,,,,,,,,,,,6872.163000000757,,response,,,,100,,,,,,,Space,keypress(Space),,,,,,,,At --- ---- --- ------ ----- ------- ---- -- --- ------- --<br>------- ---------- ------ -- ----- -- ----- -- ---- ------<br>--- ----- --- --- ------ -------- ----- --- ------ ----- --<br>----- ----- ---------- --- --- ------ ------ ---- -- ------<br>------- --- ------ ----- --- ---- ------- -- ---- --- --<br>------- ------,161702.80000000075,161702.30000000075,154813.482,154814.19999999925,154830.137,161711.083,,0,At
screen,html.Screen,2_1_1_1_1,2022-04-30T11:43:12.070Z,,,,,,,,,,,,,,,,,54,,,,,,,,,,,,,,10452.217000000732,,response,,,,100,,,,,,,Space,keypress(Space),,,,,,,,-- the ---- --- ------ ----- ------- ---- -- --- ------- --<br>------- ---------- ------ -- ----- -- ----- -- ---- ------<br>--- ----- --- --- ------ -------- ----- --- ------ ----- --<br>----- ----- ---------- --- --- ------ ------ ---- -- ------<br>------- --- ------ ----- --- ---- ------- -- ---- --- --<br>------- ------,172163.80000000075,172163.30000000075,161696.501,161702.90000000037,161711.083,172174.074,,1,the
screen,html.Screen,2_1_1_1_2,2022-04-30T11:43:12.598Z,,,,,,,,,,,,,,,,,54,,,,,,,,,,,,,,517.8260000003793,,response,,,,100,,,,,,,Space,keypress(Space),,,,,,,,-- --- time --- ------ ----- ------- ---- -- --- ------- --<br>------- ---------- ------ -- ----- -- ----- -- ---- ------<br>--- ----- --- --- ------ -------- ----- --- ------ ----- --<br>----- ----- ---------- --- --- ------ ------ ---- -- ------<br>------- --- ------ ----- --- ---- ------- -- ---- --- --<br>------- ------,172692.40000000037,172691.90000000037,172159.73,172163.90000000037,172174.074,172707.312,,2,time
screen,html.Screen,2_1_1_1_3,2022-04-30T11:43:12.959Z,,,,,,,,,,,,,,,,,54,,,,,,,,,,,,,,345.7879999996221,,response,,,,100,,,,,,,Space,keypress(Space),,,,,,,,-- --- ---- the ------ ----- ------- ---- -- --- ------- --<br>------- ---------- ------ -- ----- -- ----- -- ---- ------<br>--- ----- --- --- ------ -------- ----- --- ------ ----- --<br>----- ----- ---------- --- --- ------ ------ ---- -- ------<br>------- --- ------ ----- --- ---- ------- -- ---- --- --<br>------- ------,173053.59999999963,173053.09999999963,172690.773,172692.5,172707.312,173057.102,,3,the
screen,html.Screen,2_1_1_1_4,2022-04-30T11:43:13.243Z,,,,,,,,,,,,,,,,,54,,,,,,,,,,,,,,279.49799999961397,,response,,,,100,,,,,,,Space,keypress(Space),,,,,,,,-- --- ---- --- French ----- ------- ---- -- --- ------- --<br>------- ---------- ------ -- ----- -- ----- -- ---- ------<br>--- ----- --- --- ------ -------- ----- --- ------ ----- --<br>----- ----- ---------- --- --- ------ ------ ---- -- ------<br>------- --- ------ ----- --- ---- ------- -- ---- --- --<br>------- ------,173337,173336.59999999963,173040.604,173053.69999999925,173057.102,173340.341,,4,French
screen,html.Screen,2_1_1_1_5,2022-04-30T11:43:13.533Z,,,,,,,,,,,,,,,,,54,,,,,,,,,,,,,,286.1590000000142,,response,,,,100,,,,,,,Space,keypress(Space),,,,,,,,-- --- ---- --- ------ crown ------- ---- -- --- ------- --<br>------- ---------- ------ -- ----- -- ----- -- ---- ------<br>--- ----- --- --- ------ -------- ----- --- ------ ----- --<br>----- ----- ---------- --- --- ------ ------ ---- -- ------<br>------- --- ------ ----- --- ---- ------- -- ---- --- --<br>------- ------,173627,173626.5,173323.837,173337.09999999963,173340.341,173640.305,,5,crown
screen,html.Screen,2_1_1_1_6,2022-04-30T11:43:13.814Z,,,,,,,,,,,,,,,,,54,,,,,,,,,,,,,,266.5950000003795,,response,,,,100,,,,,,,Space,keypress(Space),,,,,,,,-- --- ---- --- ------ ----- secured ---- -- --- ------- --<br>------- ---------- ------ -- ----- -- ----- -- ---- ------<br>--- ----- --- --- ------ -------- ----- --- ------ ----- --<br>----- ----- ---------- --- --- ------ ------ ---- -- ------<br>------- --- ------ ----- --- ---- ------- -- ---- --- --<br>------- ------,173907.80000000075,173906.90000000037,173623.707,173627.09999999963,173640.305,173923.492,,6,secured
screen,html.Screen,2_1_1_1_7,2022-04-30T11:43:14.148Z,,,,,,,,,,,,,,,,,54,,,,,,,,,,,,,,317.8080000007467,,response,,,,100,,,,,,,Space,keypress(Space),,,,,,,,-- --- ---- --- ------ ----- ------- much -- --- ------- --<br>------- ---------- ------ -- ----- -- ----- -- ---- ------<br>--- ----- --- --- ------ -------- ----- --- ------ ----- --<br>----- ----- ---------- --- --- ------ ------ ---- -- ------<br>------- --- ------ ----- --- ---- ------- -- ---- --- --<br>------- ------,174241.80000000075,174241.30000000075,173906.892,173907.90000000037,173923.492,174256.739,,7,much
screen,html.Screen,2_1_1_1_8,2022-04-30T11:43:14.409Z,,,,,,,,,,,,,,,,,54,,,,,,,,,,,,,,245.96099999925354,,response,,,,100,,,,,,,Space,keypress(Space),,,,,,,,-- --- ---- --- ------ ----- ------- ---- of --- ------- --<br>------- ---------- ------ -- ----- -- ----- -- ---- ------<br>--- ----- --- --- ------ -------- ----- --- ------ ----- --<br>----- ----- ---------- --- --- ------ ------ ---- -- ------<br>------- --- ------ ----- --- ---- ------- -- ---- --- --<br>------- ------,174503.30000000075,174502.69999999925,174240.121,174241.90000000037,174256.739,174506.631,,8,of
screen,html.Screen,2_1_1_1_9,2022-04-30T11:43:14.702Z,,,,,,,,,,,,,,,,,54,,,,,,,,,,,,,,289.4689999996335,,response,,,,100,,,,,,,Space,keypress(Space),,,,,,,,-- --- ---- --- ------ ----- ------- ---- -- its ------- --<br>------- ---------- ------ -- ----- -- ----- -- ---- ------<br>--- ----- --- --- ------ -------- ----- --- ------ ----- --<br>----- ----- ---------- --- --- ------ ------ ---- -- ------<br>------- --- ------ ----- --- ---- ------- -- ---- --- --<br>------- ------,174796.59999999963,174796.09999999963,174490.076,174503.5,174506.631,174806.491,,9,its
screen,html.Screen,2_1_1_1_10,2022-04-30T11:43:15.008Z,,,,,,,,,,,,,,,,,54,,,,,,,,,,,,,,294.5089999999909,,response,,,,100,,,,,,,Space,keypress(Space),,,,,,,,-- --- ---- --- ------ ----- ------- ---- -- --- revenue --<br>------- ---------- ------ -- ----- -- ----- -- ---- ------<br>--- ----- --- --- ------ -------- ----- --- ------ ----- --<br>----- ----- ---------- --- --- ------ ------ ---- -- ------<br>------- --- ------ ----- --- ---- ------- -- ---- --- --<br>------- ------,175101.59999999963,175101,174789.916,174796.69999999925,174806.491,175106.406,,10,revenue
screen,html.Screen,2_1_1_1_11,2022-04-30T11:43:15.338Z,,,,,,,,,,,,,,,,,54,,,,,,,,,,,,,,324.4940000003844,,response,,,,100,,,,,,,Space,keypress(Space),,,,,,,,-- --- ---- --- ------ ----- ------- ---- -- --- ------- by<br>------- ---------- ------ -- ----- -- ----- -- ---- ------<br>--- ----- --- --- ------ -------- ----- --- ------ ----- --<br>----- ----- ---------- --- --- ------ ------ ---- -- ------<br>------- --- ------ ----- --- ---- ------- -- ---- --- --<br>------- ------,175431.69999999925,175430.90000000037,175089.872,175101.80000000075,175106.406,175439.588,,11,by
screen,html.Screen,2_1_1_1_12,2022-04-30T11:43:15.593Z,,,,,,,,,,,,,,,,,54,,,,,,,,,,,,,,246.91200000001118,,response,,,,100,,,,,,,Space,keypress(Space),,,,,,,,-- --- ---- --- ------ ----- ------- ---- -- --- ------- --<br>issuing ---------- ------ -- ----- -- ----- -- ---- ------<br>--- ----- --- --- ------ -------- ----- --- ------ ----- --<br>----- ----- ---------- --- --- ------ ------ ---- -- ------<br>------- --- ------ ----- --- ---- ------- -- ---- --- --<br>------- ------,175687.30000000075,175686.5,175423.031,175431.90000000037,175439.588,175689.553,,12,issuing
screen,html.Screen,2_1_1_1_13,2022-04-30T11:43:15.968Z,,,,,,,,,,,,,,,,,54,,,,,,,,,,,,,,370.94699999998556,,response,,,,100,,,,,,,Space,keypress(Space),,,,,,,,-- --- ---- --- ------ ----- ------- ---- -- --- ------- --<br>------- government ------ -- ----- -- ----- -- ---- ------<br>--- ----- --- --- ------ -------- ----- --- ------ ----- --<br>----- ----- ---------- --- --- ------ ------ ---- -- ------<br>------- --- ------ ----- --- ---- ------- -- ---- --- --<br>------- ------,176061.90000000037,176060.5,175672.956,175687.5,175689.553,176072.737,,13,government
screen,html.Screen,2_1_1_1_14,2022-04-30T11:43:16.337Z,,,,,,,,,,,,,,,,,54,,,,,,,,,,,,,,357.86299999963376,,response,,,,100,,,,,,,Space,keypress(Space),,,,,,,,-- --- ---- --- ------ ----- ------- ---- -- --- ------- --<br>------- ---------- bonds. -- ----- -- ----- -- ---- ------<br>--- ----- --- --- ------ -------- ----- --- ------ ----- --<br>----- ----- ---------- --- --- ------ ------ ---- -- ------<br>------- --- ------ ----- --- ---- ------- -- ---- --- --<br>------- ------,176431.09999999963,176430.59999999963,176056.207,176062,176072.737,176439.242,,14,bonds.
screen,html.Screen,2_1_1_1_15,2022-04-30T11:43:16.673Z,,,,,,,,,,,,,,,,,54,,,,,,,,,,,,,,327.3579999996291,,response,,,,100,,,,,,,Space,keypress(Space),,,,,,,,-- --- ---- --- ------ ----- ------- ---- -- --- ------- --<br>------- ---------- ------ In ----- -- ----- -- ---- ------<br>--- ----- --- --- ------ -------- ----- --- ------ ----- --<br>----- ----- ---------- --- --- ------ ------ ---- -- ------<br>------- --- ------ ----- --- ---- ------- -- ---- --- --<br>------- ------,176767.09999999963,176766.59999999963,176422.794,176431.09999999963,176439.242,176772.478,,15,In
screen,html.Screen,2_1_1_1_16,2022-04-30T11:43:16.917Z,,,,,,,,,,,,,,,,,54,,,,,,,,,,,,,,238.72199999925215,,response,,,,100,,,,,,,Space,keypress(Space),,,,,,,,"-- --- ---- --- ------ ----- ------- ---- -- --- ------- --<br>------- ---------- ------ -- 1727, -- ----- -- ---- ------<br>--- ----- --- --- ------ -------- ----- --- ------ ----- --<br>----- ----- ---------- --- --- ------ ------ ---- -- ------<br>------- --- ------ ----- --- ---- ------- -- ---- --- --<br>------- ------",177011.59999999963,177011.19999999925,176755.902,176767.19999999925,176772.478,177022.384,,16,"1727,"
screen,html.Screen,2_1_1_1_17,2022-04-30T11:43:17.182Z,,,,,,,,,,,,,,,,,54,,,,,,,,,,,,,,253.61600000000908,,response,,,,100,,,,,,,Space,keypress(Space),,,,,,,,-- --- ---- --- ------ ----- ------- ---- -- --- ------- --<br>------- ---------- ------ -- ----- in ----- -- ---- ------<br>--- ----- --- --- ------ -------- ----- --- ------ ----- --<br>----- ----- ---------- --- --- ------ ------ ---- -- ------<br>------- --- ------ ----- --- ---- ------- -- ---- --- --<br>------- ------,177276.5,177276,177005.849,177011.69999999925,177022.384,177288.978,,17,in
screen,html.Screen,2_1_1_1_18,2022-04-30T11:43:17.428Z,,,,,,,,,,,,,,,,,54,,,,,,,,,,,,,,232.0219999999972,,response,,,,100,,,,,,,Space,keypress(Space),,,,,,,,-- --- ---- --- ------ ----- ------- ---- -- --- ------- --<br>------- ---------- ------ -- ----- -- order -- ---- ------<br>--- ----- --- --- ------ -------- ----- --- ------ ----- --<br>----- ----- ---------- --- --- ------ ------ ---- -- ------<br>------- --- ------ ----- --- ---- ------- -- ---- --- --<br>------- ------,177521.80000000075,177521,177272.368,177276.59999999963,177288.978,177538.904,,18,order
screen,html.Screen,2_1_1_1_19,2022-04-30T11:43:17.642Z,,,,,,,,,,,,,,,,,54,,,,,,,,,,,,,,196.2959999992454,,response,,,,100,,,,,,,Space,keypress(Space),,,,,,,,-- --- ---- --- ------ ----- ------- ---- -- --- ------- --<br>------- ---------- ------ -- ----- -- ----- to ---- ------<br>--- ----- --- --- ------ -------- ----- --- ------ ----- --<br>----- ----- ---------- --- --- ------ ------ ---- -- ------<br>------- --- ------ ----- --- ---- ------- -- ---- --- --<br>------- ------,177736,177735.19999999925,177522.31,177521.90000000037,177538.904,177738.844,,19,to
screen,html.Screen,2_1_1_1_20,2022-04-30T11:43:17.861Z,,,,,,,,,,,,,,,,,54,,,,,,,,,,,,,,215.85599999924307,,response,,,,100,,,,,,,Space,keypress(Space),,,,,,,,-- --- ---- --- ------ ----- ------- ---- -- --- ------- --<br>------- ---------- ------ -- ----- -- ----- -- save ------<br>--- ----- --- --- ------ -------- ----- --- ------ ----- --<br>----- ----- ---------- --- --- ------ ------ ---- -- ------<br>------- --- ------ ----- --- ---- ------- -- ---- --- --<br>------- ------,177955.19999999925,177954.69999999925,177722.601,177736.19999999925,177738.844,177972.148,,20,save
screen,html.Screen,2_1_1_1_21,2022-04-30T11:43:18.086Z,,,,,,,,,,,,,,,,,54,,,,,,,,,,,,,,207.3520000000135,,response,,,,100,,,,,,,Space,keypress(Space),,,,,,,,"-- --- ---- --- ------ ----- ------- ---- -- --- ------- --<br>------- ---------- ------ -- ----- -- ----- -- ---- money,<br>--- ----- --- --- ------ -------- ----- --- ------ ----- --<br>----- ----- ---------- --- --- ------ ------ ---- -- ------<br>------- --- ------ ----- --- ---- ------- -- ---- --- --<br>------- ------",178180,178179.5,177939.237,177955.30000000075,177972.148,178188.645,,21,"money,"
screen,html.Screen,2_1_1_1_22,2022-04-30T11:43:18.412Z,,,,,,,,,,,,,,,,,54,,,,,,,,,,,,,,317.3550000000105,,response,,,,100,,,,,,,Space,keypress(Space),,,,,,,,-- --- ---- --- ------ ----- ------- ---- -- --- ------- --<br>------- ---------- ------ -- ----- -- ----- -- ---- ------<br>the ----- --- --- ------ -------- ----- --- ------ ----- --<br>----- ----- ---------- --- --- ------ ------ ---- -- ------<br>------- --- ------ ----- --- ---- ------- -- ---- --- --<br>------- ------,178506.40000000037,178506,178172.105,178180.09999999963,178188.645,178521.866,,22,the
screen,html.Screen,2_1_1_1_23,2022-04-30T11:43:18.811Z,,,,,,,,,,,,,,,,,54,,,,,,,,,,,,,,383.1339999999909,,response,,,,100,,,,,,,Space,keypress(Space),,,,,,,,-- --- ---- --- ------ ----- ------- ---- -- --- ------- --<br>------- ---------- ------ -- ----- -- ----- -- ---- ------<br>--- state --- --- ------ -------- ----- --- ------ ----- --<br>----- ----- ---------- --- --- ------ ------ ---- -- ------<br>------- --- ------ ----- --- ---- ------- -- ---- --- --<br>------- ------,178905.59999999963,178905,178505.389,178506.59999999963,178521.866,178921.814,,23,state
screen,html.Screen,2_1_1_1_24,2022-04-30T11:43:19.212Z,,,,,,,,,,,,,,,,,54,,,,,,,,,,,,,,383.78599999961443,,response,,,,100,,,,,,,Space,keypress(Space),,,,,,,,-- --- ---- --- ------ ----- ------- ---- -- --- ------- --<br>------- ---------- ------ -- ----- -- ----- -- ---- ------<br>--- ----- cut --- ------ -------- ----- --- ------ ----- --<br>----- ----- ---------- --- --- ------ ------ ---- -- ------<br>------- --- ------ ----- --- ---- ------- -- ---- --- --<br>------- ------,179306.19999999925,179305.59999999963,178905.182,178905.59999999963,178921.814,179321.641,,24,cut
screen,html.Screen,2_1_1_1_25,2022-04-30T11:43:19.570Z,,,,,,,,,,,,,,,,,54,,,,,,,,,,,,,,342.4589999996242,,response,,,,100,,,,,,,Space,keypress(Space),,,,,,,,-- --- ---- --- ------ ----- ------- ---- -- --- ------- --<br>------- ---------- ------ -- ----- -- ----- -- ---- ------<br>--- ----- --- the ------ -------- ----- --- ------ ----- --<br>----- ----- ---------- --- --- ------ ------ ---- -- ------<br>------- --- ------ ----- --- ---- ------- -- ---- --- --<br>------- ------,179664.59999999963,179664.09999999963,179305.109,179306.30000000075,179321.641,179671.45,,25,the
screen,html.Screen,2_1_1_1_26,2022-04-30T11:43:19.946Z,,,,,,,,,,,,,,,,,54,,,,,,,,,,,,,,368.2499999992433,,response,,,,100,,,,,,,Space,keypress(Space),,,,,,,,-- --- ---- --- ------ ----- ------- ---- -- --- ------- --<br>------- ---------- ------ -- ----- -- ----- -- ---- ------<br>--- ----- --- --- bonds' -------- ----- --- ------ ----- --<br>----- ----- ---------- --- --- ------ ------ ---- -- ------<br>------- --- ------ ----- --- ---- ------- -- ---- --- --<br>------- ------,180040.30000000075,180039.69999999925,179654.921,179664.69999999925,179671.45,180054.696,,26,bonds'
screen,html.Screen,2_1_1_1_27,2022-04-30T11:43:20.247Z,,,,,,,,,,,,,,,,,54,,,,,,,,,,,,,,286.1040000007488,,response,,,,100,,,,,,,Space,keypress(Space),,,,,,,,-- --- ---- --- ------ ----- ------- ---- -- --- ------- --<br>------- ---------- ------ -- ----- -- ----- -- ---- ------<br>--- ----- --- --- ------ interest ----- --- ------ ----- --<br>----- ----- ---------- --- --- ------ ------ ---- -- ------<br>------- --- ------ ----- --- ---- ------- -- ---- --- --<br>------- ------,180341.30000000075,180340.80000000075,180038.258,180040.30000000075,180054.696,180354.592,,27,interest
screen,html.Screen,2_1_1_1_28,2022-04-30T11:43:20.536Z,,,,,,,,,,,,,,,,,54,,,,,,,,,,,,,,274.80800000036834,,response,,,,100,,,,,,,Space,keypress(Space),,,,,,,,-- --- ---- --- ------ ----- ------- ---- -- --- ------- --<br>------- ---------- ------ -- ----- -- ----- -- ---- ------<br>--- ----- --- --- ------ -------- rate. --- ------ ----- --<br>----- ----- ---------- --- --- ------ ------ ---- -- ------<br>------- --- ------ ----- --- ---- ------- -- ---- --- --<br>------- ------,180629.90000000037,180629.40000000037,180337.993,180341.30000000075,180354.592,180637.778,,28,rate.
screen,html.Screen,2_1_1_1_29,2022-04-30T11:43:20.875Z,,,,,,,,,,,,,,,,,54,,,,,,,,,,,,,,331.0220000007539,,response,,,,100,,,,,,,Space,keypress(Space),,,,,,,,-- --- ---- --- ------ ----- ------- ---- -- --- ------- --<br>------- ---------- ------ -- ----- -- ----- -- ---- ------<br>--- ----- --- --- ------ -------- ----- The ------ ----- --<br>----- ----- ---------- --- --- ------ ------ ---- -- ------<br>------- --- ------ ----- --- ---- ------- -- ---- --- --<br>------- ------,180969.30000000075,180968.80000000075,180621.205,180629.90000000037,180637.778,180971.064,,29,The
screen,html.Screen,2_1_1_1_30,2022-04-30T11:43:21.160Z,,,,,,,,,,,,,,,,,54,,,,,,,,,,,,,,282.53599999961443,,response,,,,100,,,,,,,Space,keypress(Space),,,,,,,,-- --- ---- --- ------ ----- ------- ---- -- --- ------- --<br>------- ---------- ------ -- ----- -- ----- -- ---- ------<br>--- ----- --- --- ------ -------- ----- --- market ----- --<br>----- ----- ---------- --- --- ------ ------ ---- -- ------<br>------- --- ------ ----- --- ---- ------- -- ---- --- --<br>------- ------,181254.09999999963,181253.59999999963,180954.469,180969.40000000037,180971.064,181270.943,,30,market
screen,html.Screen,2_1_1_1_31,2022-04-30T11:43:21.451Z,,,,,,,,,,,,,,,,,54,,,,,,,,,,,,,,273.75699999925564,,response,,,,100,,,,,,,Space,keypress(Space),,,,,,,,-- --- ---- --- ------ ----- ------- ---- -- --- ------- --<br>------- ---------- ------ -- ----- -- ----- -- ---- ------<br>--- ----- --- --- ------ -------- ----- --- ------ value --<br>----- ----- ---------- --- --- ------ ------ ---- -- ------<br>------- --- ------ ----- --- ---- ------- -- ---- --- --<br>------- ------,181545.30000000075,181544.69999999925,181254.358,181254.19999999925,181270.943,181554.198,,31,value
screen,html.Screen,2_1_1_1_32,2022-04-30T11:43:21.731Z,,,,,,,,,,,,,,,,,54,,,,,,,,,,,,,,270.20200000036857,,response,,,,100,,,,,,,Space,keypress(Space),,,,,,,,-- --- ---- --- ------ ----- ------- ---- -- --- ------- --<br>------- ---------- ------ -- ----- -- ----- -- ---- ------<br>--- ----- --- --- ------ -------- ----- --- ------ ----- of<br>----- ----- ---------- --- --- ------ ------ ---- -- ------<br>------- --- ------ ----- --- ---- ------- -- ---- --- --<br>------- ------,181824.80000000075,181824.40000000037,181537.571,181545.40000000037,181554.198,181837.438,,32,of
screen,html.Screen,2_1_1_1_33,2022-04-30T11:43:22.025Z,,,,,,,,,,,,,,,,,54,,,,,,,,,,,,,,281.6619999996328,,response,,,,100,,,,,,,Space,keypress(Space),,,,,,,,-- --- ---- --- ------ ----- ------- ---- -- --- ------- --<br>------- ---------- ------ -- ----- -- ----- -- ---- ------<br>--- ----- --- --- ------ -------- ----- --- ------ ----- --<br>these ----- ---------- --- --- ------ ------ ---- -- ------<br>------- --- ------ ----- --- ---- ------- -- ---- --- --<br>------- ------,182119.59999999963,182119.09999999963,181820.807,181824.90000000037,181837.438,182142.384,,33,these
screen,html.Screen,2_1_1_1_34,2022-04-30T11:43:22.285Z,,,,,,,,,,,,,,,,,54,,,,,,,,,,,,,,236.5160000003816,,response,,,,100,,,,,,,Space,keypress(Space),,,,,,,,-- --- ---- --- ------ ----- ------- ---- -- --- ------- --<br>------- ---------- ------ -- ----- -- ----- -- ---- ------<br>--- ----- --- --- ------ -------- ----- --- ------ ----- --<br>----- bonds ---------- --- --- ------ ------ ---- -- ------<br>------- --- ------ ----- --- ---- ------- -- ---- --- --<br>------- ------,182379.40000000037,182378.90000000037,182104.027,182119.59999999963,182142.384,182387.172,,34,bonds
screen,html.Screen,2_1_1_1_35,2022-04-30T11:43:22.536Z,,,,,,,,,,,,,,,,,54,,,,,,,,,,,,,,242.52799999926356,,response,,,,100,,,,,,,Space,keypress(Space),,,,,,,,"-- --- ---- --- ------ ----- ------- ---- -- --- ------- --<br>------- ---------- ------ -- ----- -- ----- -- ---- ------<br>--- ----- --- --- ------ -------- ----- --- ------ ----- --<br>----- ----- plummeted, --- --- ------ ------ ---- -- ------<br>------- --- ------ ----- --- ---- ------- -- ---- --- --<br>------- ------",182630.19999999925,182629.69999999925,182370.598,182379.5,182387.172,182637.108,,35,"plummeted,"
screen,html.Screen,2_1_1_1_36,2022-04-30T11:43:22.794Z,,,,,,,,,,,,,,,,,54,,,,,,,,,,,,,,250.89199999999255,,response,,,,100,,,,,,,Space,keypress(Space),,,,,,,,-- --- ---- --- ------ ----- ------- ---- -- --- ------- --<br>------- ---------- ------ -- ----- -- ----- -- ---- ------<br>--- ----- --- --- ------ -------- ----- --- ------ ----- --<br>----- ----- ---------- and --- ------ ------ ---- -- ------<br>------- --- ------ ----- --- ---- ------- -- ---- --- --<br>------- ------,182888.40000000037,182888,182620.513,182630.30000000075,182637.108,182903.674,,36,and
screen,html.Screen,2_1_1_1_37,2022-04-30T11:43:23.101Z,,,,,,,,,,,,,,,,,54,,,,,,,,,,,,,,290.626000000746,,response,,,,100,,,,,,,Space,keypress(Space),,,,,,,,-- --- ---- --- ------ ----- ------- ---- -- --- ------- --<br>------- ---------- ------ -- ----- -- ----- -- ---- ------<br>--- ----- --- --- ------ -------- ----- --- ------ ----- --<br>----- ----- ---------- --- the ------ ------ ---- -- ------<br>------- --- ------ ----- --- ---- ------- -- ---- --- --<br>------- ------,183194.80000000075,183194.30000000075,182887.099,182888.5,182903.674,183203.608,,37,the
screen,html.Screen,2_1_1_1_38,2022-04-30T11:43:23.359Z,,,,,,,,,,,,,,,,,54,,,,,,,,,,,,,,249.0919999992475,,response,,,,100,,,,,,,Space,keypress(Space),,,,,,,,-- --- ---- --- ------ ----- ------- ---- -- --- ------- --<br>------- ---------- ------ -- ----- -- ----- -- ---- ------<br>--- ----- --- --- ------ -------- ----- --- ------ ----- --<br>----- ----- ---------- --- --- market ------ ---- -- ------<br>------- --- ------ ----- --- ---- ------- -- ---- --- --<br>------- ------,183453.09999999963,183452.69999999925,183186.982,183194.90000000037,183203.608,183482.01,,38,market
screen,html.Screen,2_1_1_1_39,2022-04-30T11:43:23.604Z,,,,,,,,,,,,,,,,,54,,,,,,,,,,,,,,215.89000000036322,,response,,,,100,,,,,,,Space,keypress(Space),,,,,,,,-- --- ---- --- ------ ----- ------- ---- -- --- ------- --<br>------- ---------- ------ -- ----- -- ----- -- ---- ------<br>--- ----- --- --- ------ -------- ----- --- ------ ----- --<br>----- ----- ---------- --- --- ------ became ---- -- ------<br>------- --- ------ ----- --- ---- ------- -- ---- --- --<br>------- ------,183698.40000000037,183697.90000000037,183436.885,183453.19999999925,183482.01,183703.387,,39,became
screen,html.Screen,2_1_1_1_40,2022-04-30T11:43:23.870Z,,,,,,,,,,,,,,,,,54,,,,,,,,,,,,,,260.01300000038464,,response,,,,100,,,,,,,Space,keypress(Space),,,,,,,,-- --- ---- --- ------ ----- ------- ---- -- --- ------- --<br>------- ---------- ------ -- ----- -- ----- -- ---- ------<br>--- ----- --- --- ------ -------- ----- --- ------ ----- --<br>----- ----- ---------- --- --- ------ ------ wary -- ------<br>------- --- ------ ----- --- ---- ------- -- ---- --- --<br>------- ------,183963.90000000037,183963.40000000037,183686.801,183698.5,183703.387,183970.006,,40,wary
screen,html.Screen,2_1_1_1_41,2022-04-30T11:43:24.125Z,,,,,,,,,,,,,,,,,54,,,,,,,,,,,,,,248.2940000007511,,response,,,,100,,,,,,,Space,keypress(Space),,,,,,,,-- --- ---- --- ------ ----- ------- ---- -- --- ------- --<br>------- ---------- ------ -- ----- -- ----- -- ---- ------<br>--- ----- --- --- ------ -------- ----- --- ------ ----- --<br>----- ----- ---------- --- --- ------ ------ ---- of ------<br>------- --- ------ ----- --- ---- ------- -- ---- --- --<br>------- ------,184218.80000000075,184218.30000000075,183953.398,183964,183970.006,184245.886,,41,of
screen,html.Screen,2_1_1_1_42,2022-04-30T11:43:24.369Z,,,,,,,,,,,,,,,,,54,,,,,,,,,,,,,,216.41400000074646,,response,,,,100,,,,,,,Space,keypress(Space),,,,,,,,-- --- ---- --- ------ ----- ------- ---- -- --- ------- --<br>------- ---------- ------ -- ----- -- ----- -- ---- ------<br>--- ----- --- --- ------ -------- ----- --- ------ ----- --<br>----- ----- ---------- --- --- ------ ------ ---- -- French<br>------- --- ------ ----- --- ---- ------- -- ---- --- --<br>------- ------,184462.80000000075,184462.30000000075,184203.338,184218.90000000037,184245.886,184469.778,,42,French
screen,html.Screen,2_1_1_1_43,2022-04-30T11:43:24.634Z,,,,,,,,,,,,,,,,,54,,,,,,,,,,,,,,257.5220000007539,,response,,,,100,,,,,,,Space,keypress(Space),,,,,,,,-- --- ---- --- ------ ----- ------- ---- -- --- ------- --<br>------- ---------- ------ -- ----- -- ----- -- ---- ------<br>--- ----- --- --- ------ -------- ----- --- ------ ----- --<br>----- ----- ---------- --- --- ------ ------ ---- -- ------<br>credit. --- ------ ----- --- ---- ------- -- ---- --- --<br>------- ------,184727.69999999925,184727.30000000075,184453.235,184462.90000000037,184469.778,184736.355,,43,credit.
screen,html.Screen,2_1_1_1_44,2022-04-30T11:43:24.928Z,,,,,,,,,,,,,,,,,54,,,,,,,,,,,,,,285.744999999617,,response,,,,100,,,,,,,Space,keypress(Space),,,,,,,,-- --- ---- --- ------ ----- ------- ---- -- --- ------- --<br>------- ---------- ------ -- ----- -- ----- -- ---- ------<br>--- ----- --- --- ------ -------- ----- --- ------ ----- --<br>----- ----- ---------- --- --- ------ ------ ---- -- ------<br>------- The ------ ----- --- ---- ------- -- ---- --- --<br>------- ------,185022.5,185022.09999999963,184719.781,184727.90000000037,184736.355,185036.319,,44,The
screen,html.Screen,2_1_1_1_45,2022-04-30T11:43:25.194Z,,,,,,,,,,,,,,,,,54,,,,,,,,,,,,,,250.98100000075647,,response,,,,100,,,,,,,Space,keypress(Space),,,,,,,,-- --- ---- --- ------ ----- ------- ---- -- --- ------- --<br>------- ---------- ------ -- ----- -- ----- -- ---- ------<br>--- ----- --- --- ------ -------- ----- --- ------ ----- --<br>----- ----- ---------- --- --- ------ ------ ---- -- ------<br>------- --- French ----- --- ---- ------- -- ---- --- --<br>------- ------,185287.80000000075,185287.30000000075,185019.754,185022.59999999963,185036.319,185302.859,,45,French
screen,html.Screen,2_1_1_1_46,2022-04-30T11:43:25.463Z,,,,,,,,,,,,,,,,,54,,,,,,,,,,,,,,254.3409999992582,,response,,,,100,,,,,,,Space,keypress(Space),,,,,,,,-- --- ---- --- ------ ----- ------- ---- -- --- ------- --<br>------- ---------- ------ -- ----- -- ----- -- ---- ------<br>--- ----- --- --- ------ -------- ----- --- ------ ----- --<br>----- ----- ---------- --- --- ------ ------ ---- -- ------<br>------- --- ------ state --- ---- ------- -- ---- --- --<br>------- ------,185557.59999999963,185557.19999999925,185286.292,185287.90000000037,185302.859,185569.492,,46,state
screen,html.Screen,2_1_1_1_47,2022-04-30T11:43:25.713Z,,,,,,,,,,,,,,,,,54,,,,,,,,,,,,,,237.40800000037416,,response,,,,100,,,,,,,Space,keypress(Space),,,,,,,,-- --- ---- --- ------ ----- ------- ---- -- --- ------- --<br>------- ---------- ------ -- ----- -- ----- -- ---- ------<br>--- ----- --- --- ------ -------- ----- --- ------ ----- --<br>----- ----- ---------- --- --- ------ ------ ---- -- ------<br>------- --- ------ ----- was ---- ------- -- ---- --- --<br>------- ------,185807.40000000037,185806.90000000037,185552.813,185557.69999999925,185569.492,185819.32,,47,was
screen,html.Screen,2_1_1_1_48,2022-04-30T11:43:25.973Z,,,,,,,,,,,,,,,,,54,,,,,,,,,,,,,,247.37999999924796,,response,,,,100,,,,,,,Space,keypress(Space),,,,,,,,-- --- ---- --- ------ ----- ------- ---- -- --- ------- --<br>------- ---------- ------ -- ----- -- ----- -- ---- ------<br>--- ----- --- --- ------ -------- ----- --- ------ ----- --<br>----- ----- ---------- --- --- ------ ------ ---- -- ------<br>------- --- ------ ----- --- left ------- -- ---- --- --<br>------- ------,186067.30000000075,186066.69999999925,185802.739,185807.5,185819.32,186069.251,,48,left
screen,html.Screen,2_1_1_1_49,2022-04-30T11:43:26.258Z,,,,,,,,,,,,,,,,,54,,,,,,,,,,,,,,282.44899999926565,,response,,,,100,,,,,,,Space,keypress(Space),,,,,,,,-- --- ---- --- ------ ----- ------- ---- -- --- ------- --<br>------- ---------- ------ -- ----- -- ----- -- ---- ------<br>--- ----- --- --- ------ -------- ----- --- ------ ----- --<br>----- ----- ---------- --- --- ------ ------ ---- -- ------<br>------- --- ------ ----- --- ---- without -- ---- --- --<br>------- ------,186352.19999999925,186351.69999999925,186052.697,186067.30000000075,186069.251,186385.869,,49,without
screen,html.Screen,2_1_1_1_50,2022-04-30T11:43:26.544Z,,,,,,,,,,,,,,,,,54,,,,,,,,,,,,,,252.23099999962142,,response,,,,100,,,,,,,Space,keypress(Space),,,,,,,,-- --- ---- --- ------ ----- ------- ---- -- --- ------- --<br>------- ---------- ------ -- ----- -- ----- -- ---- ------<br>--- ----- --- --- ------ -------- ----- --- ------ ----- --<br>----- ----- ---------- --- --- ------ ------ ---- -- ------<br>------- --- ------ ----- --- ---- ------- an ---- --- --<br>------- ------,186638.59999999963,186638.09999999963,186369.227,186352.30000000075,186385.869,186652.383,,50,an
screen,html.Screen,2_1_1_1_51,2022-04-30T11:43:26.828Z,,,,,,,,,,,,,,,,,54,,,,,,,,,,,,,,269.21699999962584,,response,,,,100,,,,,,,Space,keypress(Space),,,,,,,,-- --- ---- --- ------ ----- ------- ---- -- --- ------- --<br>------- ---------- ------ -- ----- -- ----- -- ---- ------<br>--- ----- --- --- ------ -------- ----- --- ------ ----- --<br>----- ----- ---------- --- --- ------ ------ ---- -- ------<br>------- --- ------ ----- --- ---- ------- -- easy --- --<br>------- ------,186922.09999999963,186921.59999999963,186635.785,186638.69999999925,186652.383,186935.626,,51,easy
screen,html.Screen,2_1_1_1_52,2022-04-30T11:43:27.108Z,,,,,,,,,,,,,,,,,54,,,,,,,,,,,,,,265.8740000000107,,response,,,,100,,,,,,,Space,keypress(Space),,,,,,,,-- --- ---- --- ------ ----- ------- ---- -- --- ------- --<br>------- ---------- ------ -- ----- -- ----- -- ---- ------<br>--- ----- --- --- ------ -------- ----- --- ------ ----- --<br>----- ----- ---------- --- --- ------ ------ ---- -- ------<br>------- --- ------ ----- --- ---- ------- -- ---- way --<br>------- ------,187201.90000000037,187201.5,186919.063,186922.09999999963,186935.626,187218.936,,52,way
screen,html.Screen,2_1_1_1_53,2022-04-30T11:43:27.358Z,,,,,,,,,,,,,,,,,54,,,,,,,,,,,,,,232.3640000007581,,response,,,,100,,,,,,,Space,keypress(Space),,,,,,,,-- --- ---- --- ------ ----- ------- ---- -- --- ------- --<br>------- ---------- ------ -- ----- -- ----- -- ---- ------<br>--- ----- --- --- ------ -------- ----- --- ------ ----- --<br>----- ----- ---------- --- --- ------ ------ ---- -- ------<br>------- --- ------ ----- --- ---- ------- -- ---- --- of<br>------- ------,187451.80000000075,187451.30000000075,187202.256,187202,187218.936,187469.376,,53,of
screen,html.Screen,2_1_1_1_54,2022-04-30T11:43:27.668Z,,,,,,,,,,,,,,,,,54,,,,,,,,,,,,,,292.32399999926565,,response,,,,100,,,,,,,Space,keypress(Space),,,,,,,,-- --- ---- --- ------ ----- ------- ---- -- --- ------- --<br>------- ---------- ------ -- ----- -- ----- -- ---- ------<br>--- ----- --- --- ------ -------- ----- --- ------ ----- --<br>----- ----- ---------- --- --- ------ ------ ---- -- ------<br>------- --- ------ ----- --- ---- ------- -- ---- --- --<br>raising ------,187762.30000000075,187761.69999999925,187435.743,187451.90000000037,187469.376,187768.636,,54,raising
screen,html.Screen,2_1_1_1_55,2022-04-30T11:43:28.008Z,,,,,,,,,,,,,,,,,54,,,,,,,,,,,,,,333.06399999925634,,response,,,,100,,,,,,,Space,keypress(Space),,,,,,,,-- --- ---- --- ------ ----- ------- ---- -- --- ------- --<br>------- ---------- ------ -- ----- -- ----- -- ---- ------<br>--- ----- --- --- ------ -------- ----- --- ------ ----- --<br>----- ----- ---------- --- --- ------ ------ ---- -- ------<br>------- --- ------ ----- --- ---- ------- -- ---- --- --<br>------- money.,188102.30000000075,188101.69999999925,187752.065,187762.40000000037,187768.636,188118.546,,55,money.
Item 100,flow.Loop,2_1_1_1,2022-04-30T11:43:28.008Z,,,,,,,,,,,,,,,,,,,,,,,,,,,,,,,33271.56299999927,,completion,,,,,E,,,,,,,,,,,silence,,,,,188102.30000000075,188101.69999999925,154813.482,154814.09999999963,154830.137,188118.546,,,
Question 1,html.Screen,2_1_1_2,2022-04-30T11:43:29.922Z,,,,,,,,,,,,,,,,,,,,,,,,,,,,true,TRUE,,1896.6539999992528,,response,,,,100,E,,,,,,TRUE,click #choice-1,,,,silence,,,,,190016.19999999925,190015.19999999925,188101.953,188102.40000000037,188118.546,190017.868,,,
Question 2,html.Screen,2_1_1_3,2022-04-30T11:43:32.142Z,,,,,,,,,,,,,,,,,,,,,,,,,,,,true,FALSE,,2217.032000000385,,response,,,,100,E,,,,,,FALSE,click #choice-2,,,,silence,,,,,192235.90000000037,192234.90000000037,190001.338,190016.30000000075,190017.868,192250.501,,,
Item 100,flow.Sequence,2_1_1,2022-04-30T11:43:32.142Z,,,,,,,,,,,,,,,,,,,,,,,,,,,,,,,47401.26600000038,,completion,,,,,,,,,,,,,,,,,,,,,192236,192234.90000000037,144817.023,144818.80000000075,144833.634,192250.501,,,
End of Practice,html.Page,2_1_2,2022-04-30T11:43:52.134Z,,,,,,,,,,,,,,,,,,,,,,,,,,,,,,,19992.994000000006,,timeout,,,,,,,,,,,,,,,,,,,,,212228,212227.139,192233.867,192236.09999999963,192250.501,212243.495,,,
Practice,flow.Sequence,2_1,2022-04-30T11:43:52.134Z,,,,,,,,,,,,,,,,,,,,,,,,,,,,,,,113307.92199999999,,completion,,,,,,,,,,,,,,,,,,,,,212228.19999999925,212227.139,98883.003,98902.80000000075,98919.217,212243.495,,,
Trap_instruction,html.Page,2_2_0,2022-04-30T11:44:12.127Z,,,,,,,,,,,,,,,,,,,,,,,,,,,,,,,19993.023000000016,,timeout,,,,,,,,,,,,,,,,,,,,,232220.69999999925,232219.962,212227.139,212228.40000000037,212243.495,232236.518,,,
trap_trial,html.Screen,2_2_1,2022-04-30T11:44:30.108Z,,,,,,,,,,,,,,,,,,,,,,,,,,,,true,1,,17965.181999999244,,response,,,,,,,,,,,1,click #choice-1,,,,,,,,,250202.69999999925,250201.69999999925,232219.962,232220.90000000037,232236.518,250213.621,,,
end of trap trial,html.Page,2_2_2,2022-04-30T11:44:40.100Z,,,,,,,,,,,,,,,,,,,,,,,,,,,,,,,9996.44199999998,,timeout,,,,,,,,,,,,,,,,,,,,,260194,260193.407,250196.932,250202.80000000075,250213.621,260210.063,,,
Trap 1,flow.Sequence,2_2,2022-04-30T11:44:40.100Z,,,,,,,,,,,,,,,,,,,,,,,,,,,,,,,47949.91200000001,,completion,,,,,,,,,,,,,,,,,,,,,260194.19999999925,260193.407,212227.139,212228.30000000075,212243.495,260210.063,,,
Standby,html.Page,2_3_0,2022-04-30T11:44:48.097Z,,,,,,,,,,,,,,,,,,,,,,,,,,,,,,,7997.20100000003,,timeout,,,,,,,,,,,,,,,,,,,,,268191.69999999925,268190.643,260193.407,260194.30000000075,260210.063,268207.264,,,
Holding screen,html.Screen,2_3_1_0_0,2022-04-30T11:44:55.095Z,,,,,,,,,,,,,,,,,,,,,,,,,,,,,,,6997.755999999994,,timeout,,,,,,,,,,,,,,,,,,,,,275188.9000000004,275188.297,268190.643,268191.80000000075,268207.264,275205.02,,,
screen,html.Screen,2_3_1_0_1_0,2022-04-30T11:44:56.514Z,,,,,,,,,,,,,,,,,12,,,,,,,,,,,,,,1402.5799999996088,,response,,,,5,E,,,,,,Space,keypress(Space),,,,silence,,,,Some ------ ------ ------- ------ --- ------- -----------<br>-- ----- --- ---- -- --- ------ ---- - ---- -- ----------<br>-- ------ ---- --- ---- --- --- --- ----- -- -------- ---<br>------ ------- -------- --- ---- -- ------- ------------ --<br>------ -- ---- -- --- ---- -- -------- -- --- ------ ------,276608.0999999996,276607.5999999996,275188.297,275189.19999999925,275205.02,276621.045,,0,Some
screen,html.Screen,2_3_1_0_1_1,2022-04-30T11:44:56.918Z,,,,,,,,,,,,,,,,,12,,,,,,,,,,,,,,390.75500000076136,,response,,,,5,E,,,,,,Space,keypress(Space),,,,silence,,,,---- months ------ ------- ------ --- ------- -----------<br>-- ----- --- ---- -- --- ------ ---- - ---- -- ----------<br>-- ------ ---- --- ---- --- --- --- ----- -- -------- ---<br>------ ------- -------- --- ---- -- ------- ------------ --<br>------ -- ---- -- --- ---- -- -------- -- --- ------ ------,277012.5,277011.80000000075,276604.418,276608.19999999925,276621.045,277020.883,,1,months
screen,html.Screen,2_3_1_0_1_2,2022-04-30T11:44:57.312Z,,,,,,,,,,,,,,,,,12,,,,,,,,,,,,,,385.41700000077253,,response,,,,5,E,,,,,,Space,keypress(Space),,,,silence,,,,"---- ------ later, ------- ------ --- ------- -----------<br>-- ----- --- ---- -- --- ------ ---- - ---- -- ----------<br>-- ------ ---- --- ---- --- --- --- ----- -- -------- ---<br>------ ------- -------- --- ---- -- ------- ------------ --<br>------ -- ---- -- --- ---- -- -------- -- --- ------ ------",277406.69999999925,277406.30000000075,277004.377,277012.69999999925,277020.883,277420.83,,2,"later,"
screen,html.Screen,2_3_1_0_1_3,2022-04-30T11:44:57.747Z,,,,,,,,,,,,,,,,,12,,,,,,,,,,,,,,420.36999999923864,,response,,,,5,E,,,,,,Space,keypress(Space),,,,silence,,,,---- ------ ------ Michael ------ --- ------- -----------<br>-- ----- --- ---- -- --- ------ ---- - ---- -- ----------<br>-- ------ ---- --- ---- --- --- --- ----- -- -------- ---<br>------ ------- -------- --- ---- -- ------- ------------ --<br>------ -- ---- -- --- ---- -- -------- -- --- ------ ------,277841.80000000075,277841.19999999925,277404.26,277406.80000000075,277420.83,277854.226,,3,Michael
screen,html.Screen,2_3_1_0_1_4,2022-04-30T11:44:58.188Z,,,,,,,,,,,,,,,,,12,,,,,,,,,,,,,,427.57400000072084,,response,,,,5,E,,,,,,Space,keypress(Space),,,,silence,,,,---- ------ ------ ------- Larson --- ------- -----------<br>-- ----- --- ---- -- --- ------ ---- - ---- -- ----------<br>-- ------ ---- --- ---- --- --- --- ----- -- -------- ---<br>------ ------- -------- --- ---- -- ------- ------------ --<br>------ -- ---- -- --- ---- -- -------- -- --- ------ ------,278282.30000000075,278281.80000000075,277837.44,277841.9000000004,277854.226,278287.109,,4,Larson
screen,html.Screen,2_3_1_0_1_5,2022-04-30T11:44:58.472Z,,,,,,,,,,,,,,,,,12,,,,,,,,,,,,,,278.7910000003758,,response,,,,5,E,,,,,,Space,keypress(Space),,,,silence,,,,---- ------ ------ ------- ------ saw ------- -----------<br>-- ----- --- ---- -- --- ------ ---- - ---- -- ----------<br>-- ------ ---- --- ---- --- --- --- ----- -- -------- ---<br>------ ------- -------- --- ---- -- ------- ------------ --<br>------ -- ---- -- --- ---- -- -------- -- --- ------ ------,278566.5999999996,278565.9000000004,278270.617,278282.4000000004,278287.109,278570.348,,5,saw
screen,html.Screen,2_3_1_0_1_6,2022-04-30T11:44:58.701Z,,,,,,,,,,,,,,,,,12,,,,,,,,,,,,,,225.15200000000186,,response,,,,5,E,,,,,,Space,keypress(Space),,,,silence,,,,---- ------ ------ ------- ------ --- another -----------<br>-- ----- --- ---- -- --- ------ ---- - ---- -- ----------<br>-- ------ ---- --- ---- --- --- --- ----- -- -------- ---<br>------ ------- -------- --- ---- -- ------- ------------ --<br>------ -- ---- -- --- ---- -- -------- -- --- ------ ------,278795.9000000004,278795.5,278553.773,278566.69999999925,278570.348,278803.572,,6,another
screen,html.Screen,2_3_1_0_1_7,2022-04-30T11:44:58.961Z,,,,,,,,,,,,,,,,,12,,,,,,,,,,,,,,251.82800000038696,,response,,,,5,E,,,,,,Space,keypress(Space),,,,silence,,,,---- ------ ------ ------- ------ --- ------- opportunity<br>-- ----- --- ---- -- --- ------ ---- - ---- -- ----------<br>-- ------ ---- --- ---- --- --- --- ----- -- -------- ---<br>------ ------- -------- --- ---- -- ------- ------------ --<br>------ -- ---- -- --- ---- -- -------- -- --- ------ ------,279055.9000000004,279055.4000000004,278787.223,278796,278803.572,279070.164,,7,opportunity
screen,html.Screen,2_3_1_0_1_8,2022-04-30T11:44:59.313Z,,,,,,,,,,,,,,,,,12,,,,,,,,,,,,,,336.5359999992652,,response,,,,5,E,,,,,,Space,keypress(Space),,,,silence,,,,---- ------ ------ ------- ------ --- ------- -----------<br>to ----- --- ---- -- --- ------ ---- - ---- -- ----------<br>-- ------ ---- --- ---- --- --- --- ----- -- -------- ---<br>------ ------- -------- --- ---- -- ------- ------------ --<br>------ -- ---- -- --- ---- -- -------- -- --- ------ ------,279407.19999999925,279406.69999999925,279053.638,279056,279070.164,279420.06,,8,to
screen,html.Screen,2_3_1_0_1_9,2022-04-30T11:44:59.577Z,,,,,,,,,,,,,,,,,12,,,,,,,,,,,,,,251.13999999925727,,response,,,,5,E,,,,,,Space,keypress(Space),,,,silence,,,,---- ------ ------ ------- ------ --- ------- -----------<br>-- stack --- ---- -- --- ------ ---- - ---- -- ----------<br>-- ------ ---- --- ---- --- --- --- ----- -- -------- ---<br>------ ------- -------- --- ---- -- ------- ------------ --<br>------ -- ---- -- --- ---- -- -------- -- --- ------ ------,279671.69999999925,279671.19999999925,279403.495,279407.30000000075,279420.06,279686.726,,9,stack
screen,html.Screen,2_3_1_0_1_10,2022-04-30T11:44:59.843Z,,,,,,,,,,,,,,,,,12,,,,,,,,,,,,,,250.77399999997579,,response,,,,5,E,,,,,,Space,keypress(Space),,,,silence,,,,---- ------ ------ ------- ------ --- ------- -----------<br>-- ----- the ---- -- --- ------ ---- - ---- -- ----------<br>-- ------ ---- --- ---- --- --- --- ----- -- -------- ---<br>------ ------- -------- --- ---- -- ------- ------------ --<br>------ -- ---- -- --- ---- -- -------- -- --- ------ ------,279937.9000000004,279937.5,279670.013,279671.69999999925,279686.726,279953.557,,10,the
screen,html.Screen,2_3_1_0_1_11,2022-04-30T11:45:00.131Z,,,,,,,,,,,,,,,,,12,,,,,,,,,,,,,,271.14299999928335,,response,,,,5,E,,,,,,Space,keypress(Space),,,,silence,,,,---- ------ ------ ------- ------ --- ------- -----------<br>-- ----- --- odds -- --- ------ ---- - ---- -- ----------<br>-- ------ ---- --- ---- --- --- --- ----- -- -------- ---<br>------ ------- -------- --- ---- -- ------- ------------ --<br>------ -- ---- -- --- ---- -- -------- -- --- ------ ------,280225.19999999925,280224.69999999925,279937.326,279938,279953.557,280236.47,,11,odds
screen,html.Screen,2_3_1_0_1_12,2022-04-30T11:45:00.411Z,,,,,,,,,,,,,,,,,12,,,,,,,,,,,,,,268.1299999996554,,response,,,,5,E,,,,,,Space,keypress(Space),,,,silence,,,,---- ------ ------ ------- ------ --- ------- -----------<br>-- ----- --- ---- in --- ------ ---- - ---- -- ----------<br>-- ------ ---- --- ---- --- --- --- ----- -- -------- ---<br>------ ------- -------- --- ---- -- ------- ------------ --<br>------ -- ---- -- --- ---- -- -------- -- --- ------ ------,280505.0999999996,280504.5999999996,280220.391,280225.4000000004,280236.47,280519.699,,12,in
screen,html.Screen,2_3_1_0_1_13,2022-04-30T11:45:00.696Z,,,,,,,,,,,,,,,,,12,,,,,,,,,,,,,,269.80099999997765,,response,,,,5,E,,,,,,Space,keypress(Space),,,,silence,,,,---- ------ ------ ------- ------ --- ------- -----------<br>-- ----- --- ---- -- his ------ ---- - ---- -- ----------<br>-- ------ ---- --- ---- --- --- --- ----- -- -------- ---<br>------ ------- -------- --- ---- -- ------- ------------ --<br>------ -- ---- -- --- ---- -- -------- -- --- ------ ------,280790,280789.5,280503.087,280505.19999999925,280519.699,280802.925,,13,his
screen,html.Screen,2_3_1_0_1_14,2022-04-30T11:45:00.986Z,,,,,,,,,,,,,,,,,12,,,,,,,,,,,,,,277.3750000007567,,response,,,,5,E,,,,,,Space,keypress(Space),,,,silence,,,,---- ------ ------ ------- ------ --- ------- -----------<br>-- ----- --- ---- -- --- favour ---- - ---- -- ----------<br>-- ------ ---- --- ---- --- --- --- ----- -- -------- ---<br>------ ------- -------- --- ---- -- ------- ------------ --<br>------ -- ---- -- --- ---- -- -------- -- --- ------ ------,281080.9000000004,281080.30000000075,280786.321,280790.5,280802.925,281086.123,,14,favour
screen,html.Screen,2_3_1_0_1_15,2022-04-30T11:45:01.251Z,,,,,,,,,,,,,,,,,12,,,,,,,,,,,,,,258.7770000003511,,response,,,,5,E,,,,,,Space,keypress(Space),,,,silence,,,,---- ------ ------ ------- ------ --- ------- -----------<br>-- ----- --- ---- -- --- ------ with - ---- -- ----------<br>-- ------ ---- --- ---- --- --- --- ----- -- -------- ---<br>------ ------- -------- --- ---- -- ------- ------------ --<br>------ -- ---- -- --- ---- -- -------- -- --- ------ ------,281345.4000000004,281344.9000000004,281069.536,281081,281086.123,281352.706,,15,with
screen,html.Screen,2_3_1_0_1_16,2022-04-30T11:45:01.556Z,,,,,,,,,,,,,,,,,12,,,,,,,,,,,,,,297.2939999999944,,response,,,,5,E,,,,,,Space,keypress(Space),,,,silence,,,,---- ------ ------ ------- ------ --- ------- -----------<br>-- ----- --- ---- -- --- ------ ---- a ---- -- ----------<br>-- ------ ---- --- ---- --- --- --- ----- -- -------- ---<br>------ ------- -------- --- ---- -- ------- ------------ --<br>------ -- ---- -- --- ---- -- -------- -- --- ------ ------,281650.80000000075,281650,281336.183,281345.5,281352.706,281652.615,,16,a
screen,html.Screen,2_3_1_0_1_17,2022-04-30T11:45:01.860Z,,,,,,,,,,,,,,,,,12,,,,,,,,,,,,,,301.3850000000093,,response,,,,5,E,,,,,,Space,keypress(Space),,,,silence,,,,---- ------ ------ ------- ------ --- ------- -----------<br>-- ----- --- ---- -- --- ------ ---- - dash -- ----------<br>-- ------ ---- --- ---- --- --- --- ----- -- -------- ---<br>------ ------- -------- --- ---- -- ------- ------------ --<br>------ -- ---- -- --- ---- -- -------- -- --- ------ ------,281954.5,281954,281636.047,281651,281652.615,281969.187,,17,dash
screen,html.Screen,2_3_1_0_1_18,2022-04-30T11:45:02.205Z,,,,,,,,,,,,,,,,,12,,,,,,,,,,,,,,329.81300000002375,,response,,,,5,E,,,,,,Space,keypress(Space),,,,silence,,,,---- ------ ------ ------- ------ --- ------- -----------<br>-- ----- --- ---- -- --- ------ ---- - ---- of ----------<br>-- ------ ---- --- ---- --- --- --- ----- -- -------- ---<br>------ ------- -------- --- ---- -- ------- ------------ --<br>------ -- ---- -- --- ---- -- -------- -- --- ------ ------,282299.5,282299,281952.627,281954.5999999996,281969.187,282302.43,,18,of
screen,html.Screen,2_3_1_0_1_19,2022-04-30T11:45:02.580Z,,,,,,,,,,,,,,,,,12,,,,,,,,,,,,,,371.570000000007,,response,,,,5,E,,,,,,Space,keypress(Space),,,,silence,,,,---- ------ ------ ------- ------ --- ------- -----------<br>-- ----- --- ---- -- --- ------ ---- - ---- -- ingenuity.<br>-- ------ ---- --- ---- --- --- --- ----- -- -------- ---<br>------ ------- -------- --- ---- -- ------- ------------ --<br>------ -- ---- -- --- ---- -- -------- -- --- ------ ------,282674.80000000075,282674,282286.878,282299.5999999996,282302.43,282685.835,,19,ingenuity.
screen,html.Screen,2_3_1_0_1_20,2022-04-30T11:45:02.921Z,,,,,,,,,,,,,,,,,12,,,,,,,,,,,,,,329.364999999234,,response,,,,5,E,,,,,,Space,keypress(Space),,,,silence,,,,---- ------ ------ ------- ------ --- ------- -----------<br>-- ----- --- ---- -- --- ------ ---- - ---- -- ----------<br>He ------ ---- --- ---- --- --- --- ----- -- -------- ---<br>------ ------- -------- --- ---- -- ------- ------------ --<br>------ -- ---- -- --- ---- -- -------- -- --- ------ ------,283015.69999999925,283015.19999999925,282669.1,282674.9000000004,282685.835,283018.796,,20,He
screen,html.Screen,2_3_1_0_1_21,2022-04-30T11:45:03.176Z,,,,,,,,,,,,,,,,,12,,,,,,,,,,,,,,250.704000000027,,response,,,,5,E,,,,,,Space,keypress(Space),,,,silence,,,,---- ------ ------ ------- ------ --- ------- -----------<br>-- ----- --- ---- -- --- ------ ---- - ---- -- ----------<br>-- walked ---- --- ---- --- --- --- ----- -- -------- ---<br>------ ------- -------- --- ---- -- ------- ------------ --<br>------ -- ---- -- --- ---- -- -------- -- --- ------ ------,283270.30000000075,283269.5,283002.326,283015.80000000075,283018.796,283285.383,,21,walked
screen,html.Screen,2_3_1_0_1_22,2022-04-30T11:45:03.470Z,,,,,,,,,,,,,,,,,12,,,,,,,,,,,,,,278.41700000077253,,response,,,,5,E,,,,,,Space,keypress(Space),,,,silence,,,,---- ------ ------ ------- ------ --- ------- -----------<br>-- ----- --- ---- -- --- ------ ---- - ---- -- ----------<br>-- ------ into --- ---- --- --- --- ----- -- -------- ---<br>------ ------- -------- --- ---- -- ------- ------------ --<br>------ -- ---- -- --- ---- -- -------- -- --- ------ ------,283564.30000000075,283563.80000000075,283269.466,283270.5,283285.383,283568.613,,22,into
screen,html.Screen,2_3_1_0_1_23,2022-04-30T11:45:03.690Z,,,,,,,,,,,,,,,,,12,,,,,,,,,,,,,,215.48699999961536,,response,,,,5,E,,,,,,Space,keypress(Space),,,,silence,,,,---- ------ ------ ------- ------ --- ------- -----------<br>-- ----- --- ---- -- --- ------ ---- - ---- -- ----------<br>-- ------ ---- his ---- --- --- --- ----- -- -------- ---<br>------ ------- -------- --- ---- -- ------- ------------ --<br>------ -- ---- -- --- ---- -- -------- -- --- ------ ------,283784.69999999925,283784.0999999996,283552.158,283564.4000000004,283568.613,283814.974,,23,his
screen,html.Screen,2_3_1_0_1_24,2022-04-30T11:45:03.950Z,,,,,,,,,,,,,,,,,12,,,,,,,,,,,,,,228.72599999926751,,response,,,,5,E,,,,,,Space,keypress(Space),,,,silence,,,,---- ------ ------ ------- ------ --- ------- -----------<br>-- ----- --- ---- -- --- ------ ---- - ---- -- ----------<br>-- ------ ---- --- bank --- --- --- ----- -- -------- ---<br>------ ------- -------- --- ---- -- ------- ------------ --<br>------ -- ---- -- --- ---- -- -------- -- --- ------ ------,284044.4000000004,284043.69999999925,283768.609,283784.69999999925,283814.974,284051.78,,24,bank
screen,html.Screen,2_3_1_0_1_25,2022-04-30T11:45:04.220Z,,,,,,,,,,,,,,,,,12,,,,,,,,,,,,,,261.919999999227,,response,,,,5,E,,,,,,Space,keypress(Space),,,,silence,,,,---- ------ ------ ------- ------ --- ------- -----------<br>-- ----- --- ---- -- --- ------ ---- - ---- -- ----------<br>-- ------ ---- --- ---- one --- --- ----- -- -------- ---<br>------ ------- -------- --- ---- -- ------- ------------ --<br>------ -- ---- -- --- ---- -- -------- -- --- ------ ------,284314.0999999996,284313.69999999925,284035.202,284044.5,284051.78,284318.338,,25,one
screen,html.Screen,2_3_1_0_1_26,2022-04-30T11:45:04.502Z,,,,,,,,,,,,,,,,,12,,,,,,,,,,,,,,276.8619999992661,,response,,,,5,E,,,,,,Space,keypress(Space),,,,silence,,,,---- ------ ------ ------- ------ --- ------- -----------<br>-- ----- --- ---- -- --- ------ ---- - ---- -- ----------<br>-- ------ ---- --- ---- --- day --- ----- -- -------- ---<br>------ ------- -------- --- ---- -- ------- ------------ --<br>------ -- ---- -- --- ---- -- -------- -- --- ------ ------,284596,284595.19999999925,284301.759,284314.19999999925,284318.338,284601.621,,26,day
screen,html.Screen,2_3_1_0_1_27,2022-04-30T11:45:04.750Z,,,,,,,,,,,,,,,,,12,,,,,,,,,,,,,,242.0789999992703,,response,,,,5,E,,,,,,Space,keypress(Space),,,,silence,,,,---- ------ ------ ------- ------ --- ------- -----------<br>-- ----- --- ---- -- --- ------ ---- - ---- -- ----------<br>-- ------ ---- --- ---- --- --- and ----- -- -------- ---<br>------ ------- -------- --- ---- -- ------- ------------ --<br>------ -- ---- -- --- ---- -- -------- -- --- ------ ------,284844.0999999996,284843.69999999925,284585.168,284596.19999999925,284601.621,284851.49,,27,and
screen,html.Screen,2_3_1_0_1_28,2022-04-30T11:45:05.016Z,,,,,,,,,,,,,,,,,12,,,,,,,,,,,,,,257.91000000038184,,response,,,,5,E,,,,,,Space,keypress(Space),,,,silence,,,,---- ------ ------ ------- ------ --- ------- -----------<br>-- ----- --- ---- -- --- ------ ---- - ---- -- ----------<br>-- ------ ---- --- ---- --- --- --- asked -- -------- ---<br>------ ------- -------- --- ---- -- ------- ------------ --<br>------ -- ---- -- --- ---- -- -------- -- --- ------ ------,285110.0999999996,285109.4000000004,284834.903,284844.30000000075,284851.49,285118.044,,28,asked
screen,html.Screen,2_3_1_0_1_29,2022-04-30T11:45:05.314Z,,,,,,,,,,,,,,,,,12,,,,,,,,,,,,,,289.75600000075065,,response,,,,5,E,,,,,,Space,keypress(Space),,,,silence,,,,---- ------ ------ ------- ------ --- ------- -----------<br>-- ----- --- ---- -- --- ------ ---- - ---- -- ----------<br>-- ------ ---- --- ---- --- --- --- ----- to -------- ---<br>------ ------- -------- --- ---- -- ------- ------------ --<br>------ -- ---- -- --- ---- -- -------- -- --- ------ ------,285408.5,285407.80000000075,285101.474,285110.30000000075,285118.044,285417.961,,29,to
screen,html.Screen,2_3_1_0_1_30,2022-04-30T11:45:05.634Z,,,,,,,,,,,,,,,,,12,,,,,,,,,,,,,,309.6389999996172,,response,,,,5,E,,,,,,Space,keypress(Space),,,,silence,,,,---- ------ ------ ------- ------ --- ------- -----------<br>-- ----- --- ---- -- --- ------ ---- - ---- -- ----------<br>-- ------ ---- --- ---- --- --- --- ----- -- withdraw ---<br>------ ------- -------- --- ---- -- ------- ------------ --<br>------ -- ---- -- --- ---- -- -------- -- --- ------ ------,285728,285727.5999999996,285401.362,285408.5999999996,285417.961,285734.5,,30,withdraw
screen,html.Screen,2_3_1_0_1_31,2022-04-30T11:45:05.904Z,,,,,,,,,,,,,,,,,12,,,,,,,,,,,,,,263.69999999925494,,response,,,,5,E,,,,,,Space,keypress(Space),,,,silence,,,,---- ------ ------ ------- ------ --- ------- -----------<br>-- ----- --- ---- -- --- ------ ---- - ---- -- ----------<br>-- ------ ---- --- ---- --- --- --- ----- -- -------- his<br>------ ------- -------- --- ---- -- ------- ------------ --<br>------ -- ---- -- --- ---- -- -------- -- --- ------ ------,285998.9000000004,285998.19999999925,285717.942,285728.0999999996,285734.5,286001.093,,31,his
screen,html.Screen,2_3_1_0_1_32,2022-04-30T11:45:06.224Z,,,,,,,,,,,,,,,,,12,,,,,,,,,,,,,,316.7070000007516,,response,,,,5,E,,,,,,Space,keypress(Space),,,,silence,,,,---- ------ ------ ------- ------ --- ------- -----------<br>-- ----- --- ---- -- --- ------ ---- - ---- -- ----------<br>-- ------ ---- --- ---- --- --- --- ----- -- -------- ---<br>entire ------- -------- --- ---- -- ------- ------------ --<br>------ -- ---- -- --- ---- -- -------- -- --- ------ ------,286318.5999999996,286317.80000000075,285984.529,285999.0999999996,286001.093,286334.365,,32,entire
screen,html.Screen,2_3_1_0_1_33,2022-04-30T11:45:06.549Z,,,,,,,,,,,,,,,,,12,,,,,,,,,,,,,,308.7349999996368,,response,,,,5,E,,,,,,Space,keypress(Space),,,,silence,,,,---- ------ ------ ------- ------ --- ------- -----------<br>-- ----- --- ---- -- --- ------ ---- - ---- -- ----------<br>-- ------ ---- --- ---- --- --- --- ----- -- -------- ---<br>------ account -------- --- ---- -- ------- ------------ --<br>------ -- ---- -- --- ---- -- -------- -- --- ------ ------,286643.5999999996,286643.0999999996,286318.27,286318.80000000075,286334.365,286650.868,,33,account
screen,html.Screen,2_3_1_0_1_34,2022-04-30T11:45:06.853Z,,,,,,,,,,,,,,,,,12,,,,,,,,,,,,,,296.3319999992382,,response,,,,5,E,,,,,,Space,keypress(Space),,,,silence,,,,"---- ------ ------ ------- ------ --- ------- -----------<br>-- ----- --- ---- -- --- ------ ---- - ---- -- ----------<br>-- ------ ---- --- ---- --- --- --- ----- -- -------- ---<br>------ ------- balance, --- ---- -- ------- ------------ --<br>------ -- ---- -- --- ---- -- -------- -- --- ------ ------",286947.9000000004,286947.19999999925,286634.349,286643.5999999996,286650.868,286950.764,,34,"balance,"
screen,html.Screen,2_3_1_0_1_35,2022-04-30T11:45:07.158Z,,,,,,,,,,,,,,,,,12,,,,,,,,,,,,,,301.2359999999753,,response,,,,5,E,,,,,,Space,keypress(Space),,,,silence,,,,---- ------ ------ ------- ------ --- ------- -----------<br>-- ----- --- ---- -- --- ------ ---- - ---- -- ----------<br>-- ------ ---- --- ---- --- --- --- ----- -- -------- ---<br>------ ------- -------- but ---- -- ------- ------------ --<br>------ -- ---- -- --- ---- -- -------- -- --- ------ ------,287252.5999999996,287252,286934.192,286948.0999999996,286950.764,287267.58,,35,but
screen,html.Screen,2_3_1_0_1_36,2022-04-30T11:45:07.438Z,,,,,,,,,,,,,,,,,12,,,,,,,,,,,,,,264.22000000072876,,response,,,,5,E,,,,,,Space,keypress(Space),,,,silence,,,,---- ------ ------ ------- ------ --- ------- -----------<br>-- ----- --- ---- -- --- ------ ---- - ---- -- ----------<br>-- ------ ---- --- ---- --- --- --- ----- -- -------- ---<br>------ ------- -------- --- with -- ------- ------------ --<br>------ -- ---- -- --- ---- -- -------- -- --- ------ ------,287532.19999999925,287531.80000000075,287250.79,287252.69999999925,287267.58,287533.94,,36,with
screen,html.Screen,2_3_1_0_1_37,2022-04-30T11:45:07.668Z,,,,,,,,,,,,,,,,,12,,,,,,,,,,,,,,228.05999999999767,,response,,,,5,E,,,,,,Space,keypress(Space),,,,silence,,,,---- ------ ------ ------- ------ --- ------- -----------<br>-- ----- --- ---- -- --- ------ ---- - ---- -- ----------<br>-- ------ ---- --- ---- --- --- --- ----- -- -------- ---<br>------ ------- -------- --- ---- an ------- ------------ --<br>------ -- ---- -- --- ---- -- -------- -- --- ------ ------,287762.5,287762,287517.343,287532.4000000004,287533.94,287767.124,,37,an
screen,html.Screen,2_3_1_0_1_38,2022-04-30T11:45:07.933Z,,,,,,,,,,,,,,,,,12,,,,,,,,,,,,,,259.67600000073435,,response,,,,5,E,,,,,,Space,keypress(Space),,,,silence,,,,---- ------ ------ ------- ------ --- ------- -----------<br>-- ----- --- ---- -- --- ------ ---- - ---- -- ----------<br>-- ------ ---- --- ---- --- --- --- ----- -- -------- ---<br>------ ------- -------- --- ---- -- unusual ------------ --<br>------ -- ---- -- --- ---- -- -------- -- --- ------ ------,288027.30000000075,288026.80000000075,287750.535,287762.5999999996,287767.124,288033.707,,38,unusual
screen,html.Screen,2_3_1_0_1_39,2022-04-30T11:45:08.193Z,,,,,,,,,,,,,,,,,12,,,,,,,,,,,,,,252.99299999926006,,response,,,,5,E,,,,,,Space,keypress(Space),,,,silence,,,,---- ------ ------ ------- ------ --- ------- -----------<br>-- ----- --- ---- -- --- ------ ---- - ---- -- ----------<br>-- ------ ---- --- ---- --- --- --- ----- -- -------- ---<br>------ ------- -------- --- ---- -- ------- stipulation: --<br>------ -- ---- -- --- ---- -- -------- -- --- ------ ------,288287.19999999925,288286.69999999925,288017.238,288027.4000000004,288033.707,288300.561,,39,stipulation:
screen,html.Screen,2_3_1_0_1_40,2022-04-30T11:45:08.583Z,,,,,,,,,,,,,,,,,12,,,,,,,,,,,,,,376.93900000001304,,response,,,,5,E,,,,,,Space,keypress(Space),,,,silence,,,,---- ------ ------ ------- ------ --- ------- -----------<br>-- ----- --- ---- -- --- ------ ---- - ---- -- ----------<br>-- ------ ---- --- ---- --- --- --- ----- -- -------- ---<br>------ ------- -------- --- ---- -- ------- ------------ He<br>------ -- ---- -- --- ---- -- -------- -- --- ------ ------,288677.9000000004,288677.5,288283.719,288287.30000000075,288300.561,288683.481,,40,He
screen,html.Screen,2_3_1_0_1_41,2022-04-30T11:45:08.878Z,,,,,,,,,,,,,,,,,12,,,,,,,,,,,,,,288.21899999922607,,response,,,,5,E,,,,,,Space,keypress(Space),,,,silence,,,,---- ------ ------ ------- ------ --- ------- -----------<br>-- ----- --- ---- -- --- ------ ---- - ---- -- ----------<br>-- ------ ---- --- ---- --- --- --- ----- -- -------- ---<br>------ ------- -------- --- ---- -- ------- ------------ --<br>wanted -- ---- -- --- ---- -- -------- -- --- ------ ------,288972.30000000075,288971.69999999925,288667.017,288678,288683.481,288983.388,,41,wanted
screen,html.Screen,2_3_1_0_1_42,2022-04-30T11:45:09.147Z,,,,,,,,,,,,,,,,,12,,,,,,,,,,,,,,257.9120000007679,,response,,,,5,E,,,,,,Space,keypress(Space),,,,silence,,,,---- ------ ------ ------- ------ --- ------- -----------<br>-- ----- --- ---- -- --- ------ ---- - ---- -- ----------<br>-- ------ ---- --- ---- --- --- --- ----- -- -------- ---<br>------ ------- -------- --- ---- -- ------- ------------ --<br>------ as ---- -- --- ---- -- -------- -- --- ------ ------,289241.9000000004,289241.30000000075,288966.784,288972.30000000075,288983.388,289249.956,,42,as
