sender,sender_type,sender_id,timestamp,meta,,Blues,Classical,Country,Dance,Electronic,Folk,Gospel,Hip-Hop,Jazz,Latin,Musical/Film,New-age,Pop,Prolific_id,Provo_ID,R&B,Rap,Reggae,Religious,Rock,Soul,Swing,Traditional,age,artist_name,correct,correctResponse,distraction,duration,education,ended_on,familiarity,gender,headphone_check_performance,item,list,music_frequency,offensiveness,pleasantness,position_correct,preference,response,response_action,snippet_file,song_name,song_rating,sound,stimulus_1,stimulus_2,stimulus_3,text,time_commit,time_end,time_render,time_run,time_show,time_switch,url,word,word_ID
Prolific ID,html.Form,0,2022-05-02T10:54:17.578Z,"{""labjs_version"":""20.2.2"",""labjs_build"":{""flavor"":""production"",""commit"":""a25486e0c714a0ae2ce03ff94b7bb6896854dcfa""},""location"":""https://run.pavlovia.org/mvasilev/prolific3_music_e/"",""userAgent"":""Mozilla/5.0 (Windows NT 10.0; Win64; x64; rv:99.0) Gecko/20100101 Firefox/99.0"",""platform"":""Win32"",""language"":""en-GB"",""locale"":""en-GB"",""timeZone"":""Europe/London"",""timezoneOffset"":-60,""screen_width"":1920,""screen_height"":1080,""scroll_width"":1920,""scroll_height"":907,""window_innerWidth"":1920,""window_innerHeight"":955,""devicePixelRatio"":1}",,,,,,,,,,,,,,,606f5ff0429f650b3fa0c30d,,,,,,,,,,,,,,,10027.8,,form submission,,,,,,,,,,,,,,,,,,,,,15796,15794,5766.14,5766,5766.2,15797.12,{},,
Introduction,html.Screen,1_0,2022-05-02T10:54:19.863Z,,,,,,,,,,,,,,,,,,,,,,,,,,,,,,,2268.879999999999,,response,,,,,,,,,,,continue,click button,,,,,,,,,18079,18066,15791.2,15796,15797.12,18081.84,,,
Volume calibration,html.Screen,1_1,2022-05-02T10:54:40.869Z,,,,,,,,,,,,,,,,,,,,,,,,,,,,,,,20999.16,,response,,,,,,,,,,,continue,click button,,,,,,,,,39087,39081,18079.04,18079,18081.84,39088.58,,,
Task instructions,html.Screen,1_2,2022-05-02T10:55:05.755Z,,,,,,,,,,,,,,,,,,,,,,,,,,,,,,,24867.42,,response,,,,,,,,,,,continue,click button,,,,,,,,,63973,63956,39086.02,39087,39088.58,63977.26,,,
Sounds,html.Screen,1_3_0_0,2022-05-02T10:55:10.003Z,,,,,,,,,,,,,,,,,,,,,,,,,,,,,,,4249.959999999999,,timeout,,,,,,,,,1,,,,,,,,S,O,I,,68221,68220.26,63972.2,63973,63977.26,68227.22,,,
Judgement,html.Screen,1_3_0_1,2022-05-02T10:55:12.763Z,,,,,,,,,,,,,,,,,,,,,,,,,,,,true,1,,2744.779999999999,,response,,,,,,,,,1,,1,click #choice-1,,,,,S,O,I,,70980,70972,68220.26,68221,68227.22,70984.14,,,
Trial,flow.Sequence,1_3_0,2022-05-02T10:55:12.763Z,,,,,,,,,,,,,,,,,,,,,,,,,,,,,,,6994.739999999998,,completion,,,,,,,,,1,,,,,,,,S,O,I,,70980,70972,63972.2,63973,63977.26,70984.14,,,
Sounds,html.Screen,1_3_1_0,2022-05-02T10:55:17.011Z,,,,,,,,,,,,,,,,,,,,,,,,,,,,,,,4249.940000000002,,timeout,,,,,,,,,1,,,,,,,,S,I,O,,75229,75227.14,70979.1,70980,70984.14,75234.08,,,
Judgement,html.Screen,1_3_1_1,2022-05-02T10:55:18.389Z,,,,,,,,,,,,,,,,,,,,,,,,,,,,true,1,,1362.9199999999983,,response,,,,,,,,,1,,1,click #choice-1,,,,,S,I,O,,76606,76597,75227.14,75229,75234.08,76609.08,,,
Trial,flow.Sequence,1_3_1,2022-05-02T10:55:18.389Z,,,,,,,,,,,,,,,,,,,,,,,,,,,,,,,5612.860000000001,,completion,,,,,,,,,1,,,,,,,,S,I,O,,76606,76597,70979.1,70980,70984.14,76609.08,,,
Sounds,html.Screen,1_3_2_0,2022-05-02T10:55:22.636Z,,,,,,,,,,,,,,,,,,,,,,,,,,,,,,,4249.959999999992,,timeout,,,,,,,,,3,,,,,,,,O,I,S,,80853,80852.1,76605.14,76606,76609.08,80859.04,,,
Judgement,html.Screen,1_3_2_1,2022-05-02T10:55:23.395Z,,,,,,,,,,,,,,,,,,,,,,,,,,,,true,3,,737.9600000000064,,response,,,,,,,,,3,,3,click #choice-3,,,,,O,I,S,,81613,81597,80852.1,80853,80859.04,81615.98,,,
Trial,flow.Sequence,1_3_2,2022-05-02T10:55:23.395Z,,,,,,,,,,,,,,,,,,,,,,,,,,,,,,,4987.919999999998,,completion,,,,,,,,,3,,,,,,,,O,I,S,,81613,81597,76605.14,76606,76609.08,81615.98,,,
Sounds,html.Screen,1_3_3_0,2022-05-02T10:55:27.642Z,,,,,,,,,,,,,,,,,,,,,,,,,,,,,,,4249.9800000000105,,timeout,,,,,,,,,2,,,,,,,,I,S,O,,85859,85859,81612.08,81613,81615.98,85865.96,,,
Judgement,html.Screen,1_3_3_1,2022-05-02T10:55:28.001Z,,,,,,,,,,,,,,,,,,,,,,,,,,,,true,2,,340.0399999999936,,response,,,,,,,,,2,,2,click #choice-2,,,,,I,S,O,,86218,86206,85859,85859,85865.96,86220.1,,,
Trial,flow.Sequence,1_3_3,2022-05-02T10:55:28.001Z,,,,,,,,,,,,,,,,,,,,,,,,,,,,,,,4590.020000000004,,completion,,,,,,,,,2,,,,,,,,I,S,O,,86219,86206,81612.08,81613,81615.98,86220.1,,,
Sounds,html.Screen,1_3_4_0,2022-05-02T10:55:32.246Z,,,,,,,,,,,,,,,,,,,,,,,,,,,,,,,4249.959999999992,,timeout,,,,,,,,,3,,,,,,,,I,O,S,,90464,90463.12,86218.1,86219,86220.1,90470.06,,,
Judgement,html.Screen,1_3_4_1,2022-05-02T10:55:32.632Z,,,,,,,,,,,,,,,,,,,,,,,,,,,,true,3,,376.9400000000023,,response,,,,,,,,,3,,3,click #choice-3,,,,,I,O,S,,90850,90847,90463.12,90464,90470.06,90852,,,
Trial,flow.Sequence,1_3_4,2022-05-02T10:55:32.632Z,,,,,,,,,,,,,,,,,,,,,,,,,,,,,,,4626.899999999994,,completion,,,,,,,,,3,,,,,,,,I,O,S,,90850,90847,86218.1,86219,86220.1,90852,,,
Sounds,html.Screen,1_3_5_0,2022-05-02T10:55:36.878Z,,,,,,,,,,,,,,,,,,,,,,,,,,,,,,,4249.960000000006,,timeout,,,,,,,,,2,,,,,,,,O,S,I,,95095,95095.02,90849.04,90850,90852,95101.96,,,
Judgement,html.Screen,1_3_5_1,2022-05-02T10:55:37.306Z,,,,,,,,,,,,,,,,,,,,,,,,,,,,true,2,,417.0399999999936,,response,,,,,,,,,2,,2,click #choice-2,,,,,O,S,I,,95524,95519,95095.02,95095,95101.96,95525.58,,,
Trial,flow.Sequence,1_3_5,2022-05-02T10:55:37.307Z,,,,,,,,,,,,,,,,,,,,,,,,,,,,,,,4667,,completion,,,,,,,,,2,,,,,,,,O,S,I,,95524,95519,90849.04,90850,90852,95525.58,,,
Task,flow.Loop,1_3,2022-05-02T10:55:37.307Z,,,,,,,,,,,,,,,,,,,,,,,,,,,,,,,31541.739999999998,,completion,,,1,,,,,,,,,,,,,,,,,,95524,95519,63972.2,63973,63977.26,95525.58,,,
Trap,html.Screen,1_4,2022-05-02T10:55:37.307Z,,,,,,,,,,,,,,,,,,,,,,,,,,,,,,,NaN,,skipped,,,,,,,,,,,,,,,,,,,,,95526,95519,,95525,,95525.58,,,
Thanks,html.Screen,1_5,2022-05-02T10:55:40.661Z,,,,,,,,,,,,,,,,,,,,,,,,,,,,,,,3337.4199999999983,,response,,,,,,,,,,,continue,click button,,,,,,,,,98878,98863,95523.04,95526,95525.58,102296.34,,,
Headphone screening,flow.Sequence,1,2022-05-02T10:55:40.662Z,,,,,,,,,,,,,,,,,,,,,,,,,,,,,,,83065.88,,completion,,,,,,,,,,,,,,,,,,,,,98878,98863,15791.2,15796,15797.12,102296.34,,,
Instructions,html.Page,2_0,2022-05-02T10:56:41.713Z,,,,,,,,,,,,,,,,,,,,,,,,,,,,,,,57633.66,,form submission,,,,,,,,,,,,,,,,,,,,,159931,159930,102289.4,102286,102296.34,159934.74,,,
Holding screen,html.Screen,2_1_0_0,2022-05-02T10:56:51.711Z,,,,,,,,,,,,,,,,,,,,,,,,,,,,,,,9999.900000000023,,timeout,,,,,,,,,,,,,,,,,,,,,169928,169927.7,159927.96,159932,159934.74,169934.64,,,
screen,html.Screen,2_1_0_1_0,2022-05-02T10:56:52.918Z,,,,,,,,,,,,,,,,,53,,,,,,,,,,,,,,1193.359999999986,,response,,,,99,,,,,,,Space,keypress(Space),,,,,,,,When -- ----- -- ------ - ------- --- ----------<br>------------- ------ ------ ---- ---- ------- ----- -- ----<br>-------- ------- -- ---------- --- - --- ----- ----- ----<br>---- --- --- ----- --- ---- ---- ------- ----- ---- -------<br>--- --- -- ----- -- --- ---- -- --- ---- -- ------ ------<br>--- ----- -- ----,171134,171128,169927.7,169928,169934.64,171134.9,,0,When
screen,html.Screen,2_1_0_1_1,2022-05-02T10:56:53.324Z,,,,,,,,,,,,,,,,,53,,,,,,,,,,,,,,400.1000000000058,,response,,,,99,,,,,,,Space,keypress(Space),,,,,,,,---- it ----- -- ------ - ------- --- ----------<br>------------- ------ ------ ---- ---- ------- ----- -- ----<br>-------- ------- -- ---------- --- - --- ----- ----- ----<br>---- --- --- ----- --- ---- ---- ------- ----- ---- -------<br>--- --- -- ----- -- --- ---- -- --- ---- -- ------ ------<br>--- ----- -- ----,171541,171535,171134.84,171135,171134.9,171541.88,,1,it
screen,html.Screen,2_1_0_1_2,2022-05-02T10:56:53.715Z,,,,,,,,,,,,,,,,,53,,,,,,,,,,,,,,383.11999999999534,,response,,,,99,,,,,,,Space,keypress(Space),,,,,,,,---- -- comes -- ------ - ------- --- ----------<br>------------- ------ ------ ---- ---- ------- ----- -- ----<br>-------- ------- -- ---------- --- - --- ----- ----- ----<br>---- --- --- ----- --- ---- ---- ------- ----- ---- -------<br>--- --- -- ----- -- --- ---- -- --- ---- -- ------ ------<br>--- ----- -- ----,171932,171925,171541.8,171541,171541.88,171932.48,,2,comes
screen,html.Screen,2_1_0_1_3,2022-05-02T10:56:54.082Z,,,,,,,,,,,,,,,,,53,,,,,,,,,,,,,,351.5199999999895,,response,,,,99,,,,,,,Space,keypress(Space),,,,,,,,---- -- ----- to ------ - ------- --- ----------<br>------------- ------ ------ ---- ---- ------- ----- -- ----<br>-------- ------- -- ---------- --- - --- ----- ----- ----<br>---- --- --- ----- --- ---- ---- ------- ----- ---- -------<br>--- --- -- ----- -- --- ---- -- --- ---- -- ------ ------<br>--- ----- -- ----,172298,172284,171932.44,171933,171932.48,172298.92,,3,to
screen,html.Screen,2_1_0_1_4,2022-05-02T10:56:54.424Z,,,,,,,,,,,,,,,,,53,,,,,,,,,,,,,,329.0799999999872,,response,,,,99,,,,,,,Space,keypress(Space),,,,,,,,---- -- ----- -- having - ------- --- ----------<br>------------- ------ ------ ---- ---- ------- ----- -- ----<br>-------- ------- -- ---------- --- - --- ----- ----- ----<br>---- --- --- ----- --- ---- ---- ------- ----- ---- -------<br>--- --- -- ----- -- --- ---- -- --- ---- -- ------ ------<br>--- ----- -- ----,172641,172628,172298.86,172299,172298.92,172641.6,,4,having
screen,html.Screen,2_1_0_1_5,2022-05-02T10:56:54.763Z,,,,,,,,,,,,,,,,,53,,,,,,,,,,,,,,330.3999999999942,,response,,,,99,,,,,,,Space,keypress(Space),,,,,,,,---- -- ----- -- ------ a ------- --- ----------<br>------------- ------ ------ ---- ---- ------- ----- -- ----<br>-------- ------- -- ---------- --- - --- ----- ----- ----<br>---- --- --- ----- --- ---- ---- ------- ----- ---- -------<br>--- --- -- ----- -- --- ---- -- --- ---- -- ------ ------<br>--- ----- -- ----,172980,172972,172641.54,172641,172641.6,172980.6,,5,a
screen,html.Screen,2_1_0_1_6,2022-05-02T10:56:55.351Z,,,,,,,,,,,,,,,,,53,,,,,,,,,,,,,,585.3999999999942,,response,,,,99,,,,,,,Space,keypress(Space),,,,,,,,---- -- ----- -- ------ - lasting --- ----------<br>------------- ------ ------ ---- ---- ------- ----- -- ----<br>-------- ------- -- ---------- --- - --- ----- ----- ----<br>---- --- --- ----- --- ---- ---- ------- ----- ---- -------<br>--- --- -- ----- -- --- ---- -- --- ---- -- ------ ------<br>--- ----- -- ----,173568,173566,172980.54,172981,172980.6,173568.78,,6,lasting
screen,html.Screen,2_1_0_1_7,2022-05-02T10:56:55.788Z,,,,,,,,,,,,,,,,,53,,,,,,,,,,,,,,419.22000000000116,,response,,,,99,,,,,,,Space,keypress(Space),,,,,,,,---- -- ----- -- ------ - ------- and ----------<br>------------- ------ ------ ---- ---- ------- ----- -- ----<br>-------- ------- -- ---------- --- - --- ----- ----- ----<br>---- --- --- ----- --- ---- ---- ------- ----- ---- -------<br>--- --- -- ----- -- --- ---- -- --- ---- -- ------ ------<br>--- ----- -- ----,174004,173988,173568.72,173568,173568.78,174004.6,,7,and
screen,html.Screen,2_1_0_1_8,2022-05-02T10:56:56.204Z,,,,,,,,,,,,,,,,,53,,,,,,,,,,,,,,404.3999999999942,,response,,,,99,,,,,,,Space,keypress(Space),,,,,,,,---- -- ----- -- ------ - ------- --- fulfilling<br>------------- ------ ------ ---- ---- ------- ----- -- ----<br>-------- ------- -- ---------- --- - --- ----- ----- ----<br>---- --- --- ----- --- ---- ---- ------- ----- ---- -------<br>--- --- -- ----- -- --- ---- -- --- ---- -- ------ ------<br>--- ----- -- ----,174421,174409,174004.52,174004,174004.6,174421.86,,8,fulfilling
screen,html.Screen,2_1_0_1_9,2022-05-02T10:56:56.565Z,,,,,,,,,,,,,,,,,53,,,,,,,,,,,,,,347.14000000001397,,response,,,,99,,,,,,,Space,keypress(Space),,,,,,,,"---- -- ----- -- ------ - ------- --- ----------<br>relationship, ------ ------ ---- ---- ------- ----- -- ----<br>-------- ------- -- ---------- --- - --- ----- ----- ----<br>---- --- --- ----- --- ---- ---- ------- ----- ---- -------<br>--- --- -- ----- -- --- ---- -- --- ---- -- ------ ------<br>--- ----- -- ----",174783,174769,174421.78,174421,174421.86,174782.46,,9,"relationship,"
screen,html.Screen,2_1_0_1_10,2022-05-02T10:56:56.976Z,,,,,,,,,,,,,,,,,53,,,,,,,,,,,,,,408.54000000000815,,response,,,,99,,,,,,,Space,keypress(Space),,,,,,,,---- -- ----- -- ------ - ------- --- ----------<br>------------- common ------ ---- ---- ------- ----- -- ----<br>-------- ------- -- ---------- --- - --- ----- ----- ----<br>---- --- --- ----- --- ---- ---- ------- ----- ---- -------<br>--- --- -- ----- -- --- ---- -- --- ---- -- ------ ------<br>--- ----- -- ----,175193,175191,174782.4,174783,174782.46,175192.64,,10,common
screen,html.Screen,2_1_0_1_11,2022-05-02T10:56:57.306Z,,,,,,,,,,,,,,,,,53,,,,,,,,,,,,,,326.35999999998603,,response,,,,99,,,,,,,Space,keypress(Space),,,,,,,,---- -- ----- -- ------ - ------- --- ----------<br>------------- ------ wisdom ---- ---- ------- ----- -- ----<br>-------- ------- -- ---------- --- - --- ----- ----- ----<br>---- --- --- ----- --- ---- ---- ------- ----- ---- -------<br>--- --- -- ----- -- --- ---- -- --- ---- -- ------ ------<br>--- ----- -- ----,175523,175519,175192.56,175193,175192.64,175523.42,,11,wisdom
screen,html.Screen,2_1_0_1_12,2022-05-02T10:56:57.607Z,,,,,,,,,,,,,,,,,53,,,,,,,,,,,,,,292.5799999999872,,response,,,,99,,,,,,,Space,keypress(Space),,,,,,,,---- -- ----- -- ------ - ------- --- ----------<br>------------- ------ ------ says ---- ------- ----- -- ----<br>-------- ------- -- ---------- --- - --- ----- ----- ----<br>---- --- --- ----- --- ---- ---- ------- ----- ---- -------<br>--- --- -- ----- -- --- ---- -- --- ---- -- ------ ------<br>--- ----- -- ----,175825,175816,175523.36,175523,175523.42,175824.62,,12,says
screen,html.Screen,2_1_0_1_13,2022-05-02T10:56:57.898Z,,,,,,,,,,,,,,,,,53,,,,,,,,,,,,,,288.38000000000466,,response,,,,99,,,,,,,Space,keypress(Space),,,,,,,,---- -- ----- -- ------ - ------- --- ----------<br>------------- ------ ------ ---- that ------- ----- -- ----<br>-------- ------- -- ---------- --- - --- ----- ----- ----<br>---- --- --- ----- --- ---- ---- ------- ----- ---- -------<br>--- --- -- ----- -- --- ---- -- --- ---- -- ------ ------<br>--- ----- -- ----,176115,176113,175824.54,175825,175824.62,176114.86,,13,that
screen,html.Screen,2_1_0_1_14,2022-05-02T10:56:58.240Z,,,,,,,,,,,,,,,,,53,,,,,,,,,,,,,,326.14000000001397,,response,,,,99,,,,,,,Space,keypress(Space),,,,,,,,---- -- ----- -- ------ - ------- --- ----------<br>------------- ------ ------ ---- ---- feeling ----- -- ----<br>-------- ------- -- ---------- --- - --- ----- ----- ----<br>---- --- --- ----- --- ---- ---- ------- ----- ---- -------<br>--- --- -- ----- -- --- ---- -- --- ---- -- ------ ------<br>--- ----- -- ----,176458,176441,176114.8,176115,176114.86,176457.88,,14,feeling
screen,html.Screen,2_1_0_1_15,2022-05-02T10:56:58.618Z,,,,,,,,,,,,,,,,,53,,,,,,,,,,,,,,373.11999999999534,,response,,,,99,,,,,,,Space,keypress(Space),,,,,,,,---- -- ----- -- ------ - ------- --- ----------<br>------------- ------ ------ ---- ---- ------- close -- ----<br>-------- ------- -- ---------- --- - --- ----- ----- ----<br>---- --- --- ----- --- ---- ---- ------- ----- ---- -------<br>--- --- -- ----- -- --- ---- -- --- ---- -- ------ ------<br>--- ----- -- ----,176835,176831,176457.6,176458,176457.88,176835.32,,15,close
screen,html.Screen,2_1_0_1_16,2022-05-02T10:56:58.930Z,,,,,,,,,,,,,,,,,53,,,,,,,,,,,,,,308.679999999993,,response,,,,99,,,,,,,Space,keypress(Space),,,,,,,,---- -- ----- -- ------ - ------- --- ----------<br>------------- ------ ------ ---- ---- ------- ----- to ----<br>-------- ------- -- ---------- --- - --- ----- ----- ----<br>---- --- --- ----- --- ---- ---- ------- ----- ---- -------<br>--- --- -- ----- -- --- ---- -- --- ---- -- ------ ------<br>--- ----- -- ----,177147,177144,176835.26,176835,176835.32,177147.38,,16,to
screen,html.Screen,2_1_0_1_17,2022-05-02T10:56:59.289Z,,,,,,,,,,,,,,,,,53,,,,,,,,,,,,,,356.61999999999534,,response,,,,99,,,,,,,Space,keypress(Space),,,,,,,,---- -- ----- -- ------ - ------- --- ----------<br>------------- ------ ------ ---- ---- ------- ----- -- your<br>-------- ------- -- ---------- --- - --- ----- ----- ----<br>---- --- --- ----- --- ---- ---- ------- ----- ---- -------<br>--- --- -- ----- -- --- ---- -- --- ---- -- ------ ------<br>--- ----- -- ----,177505,177504,177147.32,177147,177147.38,177505.48,,17,your
screen,html.Screen,2_1_0_1_18,2022-05-02T10:56:59.612Z,,,,,,,,,,,,,,,,,53,,,,,,,,,,,,,,310.5199999999895,,response,,,,99,,,,,,,Space,keypress(Space),,,,,,,,---- -- ----- -- ------ - ------- --- ----------<br>------------- ------ ------ ---- ---- ------- ----- -- ----<br>romantic ------- -- ---------- --- - --- ----- ----- ----<br>---- --- --- ----- --- ---- ---- ------- ----- ---- -------<br>--- --- -- ----- -- --- ---- -- --- ---- -- ------ ------<br>--- ----- -- ----,177829,177816,177505.4,177505,177505.48,177828.42,,18,romantic
screen,html.Screen,2_1_0_1_19,2022-05-02T10:56:59.896Z,,,,,,,,,,,,,,,,,53,,,,,,,,,,,,,,268.5799999999872,,response,,,,99,,,,,,,Space,keypress(Space),,,,,,,,---- -- ----- -- ------ - ------- --- ----------<br>------------- ------ ------ ---- ---- ------- ----- -- ----<br>-------- partner -- ---------- --- - --- ----- ----- ----<br>---- --- --- ----- --- ---- ---- ------- ----- ---- -------<br>--- --- -- ----- -- --- ---- -- --- ---- -- ------ ------<br>--- ----- -- ----,178113,178097,177828.38,177829,177828.42,178113.36,,19,partner
screen,html.Screen,2_1_0_1_20,2022-05-02T10:57:00.169Z,,,,,,,,,,,,,,,,,53,,,,,,,,,,,,,,264.64000000001397,,response,,,,99,,,,,,,Space,keypress(Space),,,,,,,,---- -- ----- -- ------ - ------- --- ----------<br>------------- ------ ------ ---- ---- ------- ----- -- ----<br>-------- ------- is ---------- --- - --- ----- ----- ----<br>---- --- --- ----- --- ---- ---- ------- ----- ---- -------<br>--- --- -- ----- -- --- ---- -- --- ---- -- ------ ------<br>--- ----- -- ----,178386,178378,178113.32,178113,178113.36,178386.46,,20,is
screen,html.Screen,2_1_0_1_21,2022-05-02T10:57:00.477Z,,,,,,,,,,,,,,,,,53,,,,,,,,,,,,,,304.54000000000815,,response,,,,99,,,,,,,Space,keypress(Space),,,,,,,,---- -- ----- -- ------ - ------- --- ----------<br>------------- ------ ------ ---- ---- ------- ----- -- ----<br>-------- ------- -- paramount. --- - --- ----- ----- ----<br>---- --- --- ----- --- ---- ---- ------- ----- ---- -------<br>--- --- -- ----- -- --- ---- -- --- ---- -- ------ ------<br>--- ----- -- ----,178694,178691,178386.38,178386,178386.46,178694.54,,21,paramount.
screen,html.Screen,2_1_0_1_22,2022-05-02T10:57:00.769Z,,,,,,,,,,,,,,,,,53,,,,,,,,,,,,,,277.45999999999185,,response,,,,99,,,,,,,Space,keypress(Space),,,,,,,,---- -- ----- -- ------ - ------- --- ----------<br>------------- ------ ------ ---- ---- ------- ----- -- ----<br>-------- ------- -- ---------- But - --- ----- ----- ----<br>---- --- --- ----- --- ---- ---- ------- ----- ---- -------<br>--- --- -- ----- -- --- ---- -- --- ---- -- ------ ------<br>--- ----- -- ----,178987,178972,178694.48,178695,178694.54,178986.58,,22,But
screen,html.Screen,2_1_0_1_23,2022-05-02T10:57:01.043Z,,,,,,,,,,,,,,,,,53,,,,,,,,,,,,,,266.4200000000128,,response,,,,99,,,,,,,Space,keypress(Space),,,,,,,,---- -- ----- -- ------ - ------- --- ----------<br>------------- ------ ------ ---- ---- ------- ----- -- ----<br>-------- ------- -- ---------- --- a --- ----- ----- ----<br>---- --- --- ----- --- ---- ---- ------- ----- ---- -------<br>--- --- -- ----- -- --- ---- -- --- ---- -- ------ ------<br>--- ----- -- ----,179260,179253,178986.52,178987,178986.58,179260.48,,23,a
screen,html.Screen,2_1_0_1_24,2022-05-02T10:57:01.567Z,,,,,,,,,,,,,,,,,53,,,,,,,,,,,,,,508.5199999999895,,response,,,,99,,,,,,,Space,keypress(Space),,,,,,,,---- -- ----- -- ------ - ------- --- ----------<br>------------- ------ ------ ---- ---- ------- ----- -- ----<br>-------- ------- -- ---------- --- - new ----- ----- ----<br>---- --- --- ----- --- ---- ---- ------- ----- ---- -------<br>--- --- -- ----- -- --- ---- -- --- ---- -- ------ ------<br>--- ----- -- ----,179785,179769,179260.42,179260,179260.48,179784.62,,24,new
screen,html.Screen,2_1_0_1_25,2022-05-02T10:57:01.849Z,,,,,,,,,,,,,,,,,53,,,,,,,,,,,,,,265.38000000000466,,response,,,,99,,,,,,,Space,keypress(Space),,,,,,,,---- -- ----- -- ------ - ------- --- ----------<br>------------- ------ ------ ---- ---- ------- ----- -- ----<br>-------- ------- -- ---------- --- - --- study ----- ----<br>---- --- --- ----- --- ---- ---- ------- ----- ---- -------<br>--- --- -- ----- -- --- ---- -- --- ---- -- ------ ------<br>--- ----- -- ----,180067,180050,179784.56,179785,179784.62,180066.38,,25,study
screen,html.Screen,2_1_0_1_26,2022-05-02T10:57:02.218Z,,,,,,,,,,,,,,,,,53,,,,,,,,,,,,,,358.61999999999534,,response,,,,99,,,,,,,Space,keypress(Space),,,,,,,,---- -- ----- -- ------ - ------- --- ----------<br>------------- ------ ------ ---- ---- ------- ----- -- ----<br>-------- ------- -- ---------- --- - --- ----- finds ----<br>---- --- --- ----- --- ---- ---- ------- ----- ---- -------<br>--- --- -- ----- -- --- ---- -- --- ---- -- ------ ------<br>--- ----- -- ----,180436,180425,180066.32,180067,180066.38,180435.68,,26,finds
screen,html.Screen,2_1_0_1_27,2022-05-02T10:57:02.548Z,,,,,,,,,,,,,,,,,53,,,,,,,,,,,,,,317.320000000007,,response,,,,99,,,,,,,Space,keypress(Space),,,,,,,,---- -- ----- -- ------ - ------- --- ----------<br>------------- ------ ------ ---- ---- ------- ----- -- ----<br>-------- ------- -- ---------- --- - --- ----- ----- that<br>---- --- --- ----- --- ---- ---- ------- ----- ---- -------<br>--- --- -- ----- -- --- ---- -- --- ---- -- ------ ------<br>--- ----- -- ----,180765,180753,180435.6,180436,180435.68,180765.42,,27,that
screen,html.Screen,2_1_0_1_28,2022-05-02T10:57:02.869Z,,,,,,,,,,,,,,,,,53,,,,,,,,,,,,,,315.5799999999872,,response,,,,99,,,,,,,Space,keypress(Space),,,,,,,,---- -- ----- -- ------ - ------- --- ----------<br>------------- ------ ------ ---- ---- ------- ----- -- ----<br>-------- ------- -- ---------- --- - --- ----- ----- ----<br>it's --- --- ----- --- ---- ---- ------- ----- ---- -------<br>--- --- -- ----- -- --- ---- -- --- ---- -- ------ ------<br>--- ----- -- ----,181086,181081,180765.36,180765,180765.42,181086.38,,28,it's
screen,html.Screen,2_1_0_1_29,2022-05-02T10:57:03.345Z,,,,,,,,,,,,,,,,,53,,,,,,,,,,,,,,463.61999999999534,,response,,,,99,,,,,,,Space,keypress(Space),,,,,,,,---- -- ----- -- ------ - ------- --- ----------<br>------------- ------ ------ ---- ---- ------- ----- -- ----<br>-------- ------- -- ---------- --- - --- ----- ----- ----<br>---- not --- ----- --- ---- ---- ------- ----- ---- -------<br>--- --- -- ----- -- --- ---- -- --- ---- -- ------ ------<br>--- ----- -- ----,181562,181550,181086.32,181086,181086.38,181562.44,,29,not
screen,html.Screen,2_1_0_1_30,2022-05-02T10:57:03.637Z,,,,,,,,,,,,,,,,,53,,,,,,,,,,,,,,284.5599999999977,,response,,,,99,,,,,,,Space,keypress(Space),,,,,,,,---- -- ----- -- ------ - ------- --- ----------<br>------------- ------ ------ ---- ---- ------- ----- -- ----<br>-------- ------- -- ---------- --- - --- ----- ----- ----<br>---- --- how ----- --- ---- ---- ------- ----- ---- -------<br>--- --- -- ----- -- --- ---- -- --- ---- -- ------ ------<br>--- ----- -- ----,181854,181847,181562.38,181562,181562.44,181853.62,,30,how
screen,html.Screen,2_1_0_1_31,2022-05-02T10:57:04.069Z,,,,,,,,,,,,,,,,,53,,,,,,,,,,,,,,430.38000000000466,,response,,,,99,,,,,,,Space,keypress(Space),,,,,,,,---- -- ----- -- ------ - ------- --- ----------<br>------------- ------ ------ ---- ---- ------- ----- -- ----<br>-------- ------- -- ---------- --- - --- ----- ----- ----<br>---- --- --- close --- ---- ---- ------- ----- ---- -------<br>--- --- -- ----- -- --- ---- -- --- ---- -- ------ ------<br>--- ----- -- ----,182286,182284,181853.56,181854,181853.62,182286.44,,31,close
screen,html.Screen,2_1_0_1_32,2022-05-02T10:57:04.377Z,,,,,,,,,,,,,,,,,53,,,,,,,,,,,,,,294.5599999999977,,response,,,,99,,,,,,,Space,keypress(Space),,,,,,,,---- -- ----- -- ------ - ------- --- ----------<br>------------- ------ ------ ---- ---- ------- ----- -- ----<br>-------- ------- -- ---------- --- - --- ----- ----- ----<br>---- --- --- ----- you ---- ---- ------- ----- ---- -------<br>--- --- -- ----- -- --- ---- -- --- ---- -- ------ ------<br>--- ----- -- ----,182594,182581,182286.38,182286,182286.44,182594.38,,32,you
screen,html.Screen,2_1_0_1_33,2022-05-02T10:57:04.707Z,,,,,,,,,,,,,,,,,53,,,,,,,,,,,,,,314.61999999999534,,response,,,,99,,,,,,,Space,keypress(Space),,,,,,,,---- -- ----- -- ------ - ------- --- ----------<br>------------- ------ ------ ---- ---- ------- ----- -- ----<br>-------- ------- -- ---------- --- - --- ----- ----- ----<br>---- --- --- ----- --- feel ---- ------- ----- ---- -------<br>--- --- -- ----- -- --- ---- -- --- ---- -- ------ ------<br>--- ----- -- ----,182925,182909,182594.32,182594,182594.38,182924.44,,33,feel
screen,html.Screen,2_1_0_1_34,2022-05-02T10:57:05.082Z,,,,,,,,,,,,,,,,,53,,,,,,,,,,,,,,359.5599999999977,,response,,,,99,,,,,,,Space,keypress(Space),,,,,,,,---- -- ----- -- ------ - ------- --- ----------<br>------------- ------ ------ ---- ---- ------- ----- -- ----<br>-------- ------- -- ---------- --- - --- ----- ----- ----<br>---- --- --- ----- --- ---- that ------- ----- ---- -------<br>--- --- -- ----- -- --- ---- -- --- ---- -- ------ ------<br>--- ----- -- ----,183299,183284,182924.38,182925,182924.44,183299.36,,34,that
screen,html.Screen,2_1_0_1_35,2022-05-02T10:57:05.715Z,,,,,,,,,,,,,,,,,53,,,,,,,,,,,,,,625.640000000014,,response,,,,99,,,,,,,Space,keypress(Space),,,,,,,,---- -- ----- -- ------ - ------- --- ----------<br>------------- ------ ------ ---- ---- ------- ----- -- ----<br>-------- ------- -- ---------- --- - --- ----- ----- ----<br>---- --- --- ----- --- ---- ---- matters ----- ---- -------<br>--- --- -- ----- -- --- ---- -- --- ---- -- ------ ------<br>--- ----- -- ----,183932,183925,183299.3,183299,183299.36,183932.4,,35,matters
screen,html.Screen,2_1_0_1_36,2022-05-02T10:57:06.143Z,,,,,,,,,,,,,,,,,53,,,,,,,,,,,,,,414.6000000000058,,response,,,,99,,,,,,,Space,keypress(Space),,,,,,,,"---- -- ----- -- ------ - ------- --- ----------<br>------------- ------ ------ ---- ---- ------- ----- -- ----<br>-------- ------- -- ---------- --- - --- ----- ----- ----<br>---- --- --- ----- --- ---- ---- ------- most, ---- -------<br>--- --- -- ----- -- --- ---- -- --- ---- -- ------ ------<br>--- ----- -- ----",184361,184347,183932.34,183932,183932.4,184360.6,,36,"most,"
screen,html.Screen,2_1_0_1_37,2022-05-02T10:57:06.560Z,,,,,,,,,,,,,,,,,53,,,,,,,,,,,,,,408.3999999999942,,response,,,,99,,,,,,,Space,keypress(Space),,,,,,,,---- -- ----- -- ------ - ------- --- ----------<br>------------- ------ ------ ---- ---- ------- ----- -- ----<br>-------- ------- -- ---------- --- - --- ----- ----- ----<br>---- --- --- ----- --- ---- ---- ------- ----- it's -------<br>--- --- -- ----- -- --- ---- -- --- ---- -- ------ ------<br>--- ----- -- ----,184777,184769,184360.54,184361,184360.6,184777.66,,37,it's
screen,html.Screen,2_1_0_1_38,2022-05-02T10:57:07.035Z,,,,,,,,,,,,,,,,,53,,,,,,,,,,,,,,460.3399999999965,,response,,,,99,,,,,,,Space,keypress(Space),,,,,,,,---- -- ----- -- ------ - ------- --- ----------<br>------------- ------ ------ ---- ---- ------- ----- -- ----<br>-------- ------- -- ---------- --- - --- ----- ----- ----<br>---- --- --- ----- --- ---- ---- ------- ----- ---- whether<br>--- --- -- ----- -- --- ---- -- --- ---- -- ------ ------<br>--- ----- -- ----,185253,185238,184777.58,184777,184777.66,185252.34,,38,whether
screen,html.Screen,2_1_0_1_39,2022-05-02T10:57:07.395Z,,,,,,,,,,,,,,,,,53,,,,,,,,,,,,,,344.6600000000035,,response,,,,99,,,,,,,Space,keypress(Space),,,,,,,,---- -- ----- -- ------ - ------- --- ----------<br>------------- ------ ------ ---- ---- ------- ----- -- ----<br>-------- ------- -- ---------- --- - --- ----- ----- ----<br>---- --- --- ----- --- ---- ---- ------- ----- ---- -------<br>you --- -- ----- -- --- ---- -- --- ---- -- ------ ------<br>--- ----- -- ----,185613,185597,185252.28,185253,185252.34,185612.34,,39,you
screen,html.Screen,2_1_0_1_40,2022-05-02T10:57:07.725Z,,,,,,,,,,,,,,,,,53,,,,,,,,,,,,,,312.6600000000035,,response,,,,99,,,,,,,Space,keypress(Space),,,,,,,,---- -- ----- -- ------ - ------- --- ----------<br>------------- ------ ------ ---- ---- ------- ----- -- ----<br>-------- ------- -- ---------- --- - --- ----- ----- ----<br>---- --- --- ----- --- ---- ---- ------- ----- ---- -------<br>--- are -- ----- -- --- ---- -- --- ---- -- ------ ------<br>--- ----- -- ----,185942,185925,185612.28,185613,185612.34,185942.54,,40,are
screen,html.Screen,2_1_0_1_41,2022-05-02T10:57:08.048Z,,,,,,,,,,,,,,,,,53,,,,,,,,,,,,,,310.45999999999185,,response,,,,99,,,,,,,Space,keypress(Space),,,,,,,,---- -- ----- -- ------ - ------- --- ----------<br>------------- ------ ------ ---- ---- ------- ----- -- ----<br>-------- ------- -- ---------- --- - --- ----- ----- ----<br>---- --- --- ----- --- ---- ---- ------- ----- ---- -------<br>--- --- as ----- -- --- ---- -- --- ---- -- ------ ------<br>--- ----- -- ----,186265,186253,185942.48,185942,185942.54,186265.54,,41,as
screen,html.Screen,2_1_0_1_42,2022-05-02T10:57:08.368Z,,,,,,,,,,,,,,,,,53,,,,,,,,,,,,,,315.45999999999185,,response,,,,99,,,,,,,Space,keypress(Space),,,,,,,,---- -- ----- -- ------ - ------- --- ----------<br>------------- ------ ------ ---- ---- ------- ----- -- ----<br>-------- ------- -- ---------- --- - --- ----- ----- ----<br>---- --- --- ----- --- ---- ---- ------- ----- ---- -------<br>--- --- -- close -- --- ---- -- --- ---- -- ------ ------<br>--- ----- -- ----,186585,186581,186265.48,186265,186265.54,186585.36,,42,close
screen,html.Screen,2_1_0_1_43,2022-05-02T10:57:08.709Z,,,,,,,,,,,,,,,,,53,,,,,,,,,,,,,,323.64000000001397,,response,,,,99,,,,,,,Space,keypress(Space),,,,,,,,---- -- ----- -- ------ - ------- --- ----------<br>------------- ------ ------ ---- ---- ------- ----- -- ----<br>-------- ------- -- ---------- --- - --- ----- ----- ----<br>---- --- --- ----- --- ---- ---- ------- ----- ---- -------<br>--- --- -- ----- as --- ---- -- --- ---- -- ------ ------<br>--- ----- -- ----,186926,186909,186585.3,186585,186585.36,186926.32,,43,as
screen,html.Screen,2_1_0_1_44,2022-05-02T10:57:09.026Z,,,,,,,,,,,,,,,,,53,,,,,,,,,,,,,,311.679999999993,,response,,,,99,,,,,,,Space,keypress(Space),,,,,,,,---- -- ----- -- ------ - ------- --- ----------<br>------------- ------ ------ ---- ---- ------- ----- -- ----<br>-------- ------- -- ---------- --- - --- ----- ----- ----<br>---- --- --- ----- --- ---- ---- ------- ----- ---- -------<br>--- --- -- ----- -- you ---- -- --- ---- -- ------ ------<br>--- ----- -- ----,187244,187238,186926.26,186926,186926.32,187243.44,,44,you
screen,html.Screen,2_1_0_1_45,2022-05-02T10:57:09.359Z,,,,,,,,,,,,,,,,,53,,,,,,,,,,,,,,322.5599999999977,,response,,,,99,,,,,,,Space,keypress(Space),,,,,,,,---- -- ----- -- ------ - ------- --- ----------<br>------------- ------ ------ ---- ---- ------- ----- -- ----<br>-------- ------- -- ---------- --- - --- ----- ----- ----<br>---- --- --- ----- --- ---- ---- ------- ----- ---- -------<br>--- --- -- ----- -- --- want -- --- ---- -- ------ ------<br>--- ----- -- ----,187577,187566,187243.38,187244,187243.44,187576.42,,45,want
screen,html.Screen,2_1_0_1_46,2022-05-02T10:57:09.671Z,,,,,,,,,,,,,,,,,53,,,,,,,,,,,,,,301.5799999999872,,response,,,,99,,,,,,,Space,keypress(Space),,,,,,,,---- -- ----- -- ------ - ------- --- ----------<br>------------- ------ ------ ---- ---- ------- ----- -- ----<br>-------- ------- -- ---------- --- - --- ----- ----- ----<br>---- --- --- ----- --- ---- ---- ------- ----- ---- -------<br>--- --- -- ----- -- --- ---- to --- ---- -- ------ ------<br>--- ----- -- ----,187888,187878,187576.36,187577,187576.42,187888.58,,46,to
screen,html.Screen,2_1_0_1_47,2022-05-02T10:57:09.984Z,,,,,,,,,,,,,,,,,53,,,,,,,,,,,,,,302.4200000000128,,response,,,,99,,,,,,,Space,keypress(Space),,,,,,,,"---- -- ----- -- ------ - ------- --- ----------<br>------------- ------ ------ ---- ---- ------- ----- -- ----<br>-------- ------- -- ---------- --- - --- ----- ----- ----<br>---- --- --- ----- --- ---- ---- ------- ----- ---- -------<br>--- --- -- ----- -- --- ---- -- be, ---- -- ------ ------<br>--- ----- -- ----",188202,188191,187888.5,187888,187888.58,188202.74,,47,"be,"
screen,html.Screen,2_1_0_1_48,2022-05-02T10:57:10.303Z,,,,,,,,,,,,,,,,,53,,,,,,,,,,,,,,301.2600000000093,,response,,,,99,,,,,,,Space,keypress(Space),,,,,,,,---- -- ----- -- ------ - ------- --- ----------<br>------------- ------ ------ ---- ---- ------- ----- -- ----<br>-------- ------- -- ---------- --- - --- ----- ----- ----<br>---- --- --- ----- --- ---- ---- ------- ----- ---- -------<br>--- --- -- ----- -- --- ---- -- --- even -- ------ ------<br>--- ----- -- ----,188520,188504,188202.68,188202,188202.74,188519.74,,48,even
screen,html.Screen,2_1_0_1_49,2022-05-02T10:57:10.640Z,,,,,,,,,,,,,,,,,53,,,,,,,,,,,,,,327.2600000000093,,response,,,,99,,,,,,,Space,keypress(Space),,,,,,,,---- -- ----- -- ------ - ------- --- ----------<br>------------- ------ ------ ---- ---- ------- ----- -- ----<br>-------- ------- -- ---------- --- - --- ----- ----- ----<br>---- --- --- ----- --- ---- ---- ------- ----- ---- -------<br>--- --- -- ----- -- --- ---- -- --- ---- if ------ ------<br>--- ----- -- ----,188857,188847,188519.68,188520,188519.74,188857.68,,49,if
screen,html.Screen,2_1_0_1_50,2022-05-02T10:57:10.961Z,,,,,,,,,,,,,,,,,53,,,,,,,,,,,,,,317.320000000007,,response,,,,99,,,,,,,Space,keypress(Space),,,,,,,,---- -- ----- -- ------ - ------- --- ----------<br>------------- ------ ------ ---- ---- ------- ----- -- ----<br>-------- ------- -- ---------- --- - --- ----- ----- ----<br>---- --- --- ----- --- ---- ---- ------- ----- ---- -------<br>--- --- -- ----- -- --- ---- -- --- ---- -- that's ------<br>--- ----- -- ----,189177,189175,188857.62,188858,188857.68,189177.96,,50,that's
screen,html.Screen,2_1_0_1_51,2022-05-02T10:57:11.338Z,,,,,,,,,,,,,,,,,53,,,,,,,,,,,,,,373.04000000000815,,response,,,,99,,,,,,,Space,keypress(Space),,,,,,,,---- -- ----- -- ------ - ------- --- ----------<br>------------- ------ ------ ---- ---- ------- ----- -- ----<br>-------- ------- -- ---------- --- - --- ----- ----- ----<br>---- --- --- ----- --- ---- ---- ------- ----- ---- -------<br>--- --- -- ----- -- --- ---- -- --- ---- -- ------ really<br>--- ----- -- ----,189554,189551,189177.9,189178,189177.96,189554.8,,51,really
screen,html.Screen,2_1_0_1_52,2022-05-02T10:57:11.699Z,,,,,,,,,,,,,,,,,53,,,,,,,,,,,,,,354.20000000001164,,response,,,,99,,,,,,,Space,keypress(Space),,,,,,,,---- -- ----- -- ------ - ------- --- ----------<br>------------- ------ ------ ---- ---- ------- ----- -- ----<br>-------- ------- -- ---------- --- - --- ----- ----- ----<br>---- --- --- ----- --- ---- ---- ------- ----- ---- -------<br>--- --- -- ----- -- --- ---- -- --- ---- -- ------ ------<br>not ----- -- ----,189917,189909,189554.7,189554,189554.8,189916.74,,52,not
screen,html.Screen,2_1_0_1_53,2022-05-02T10:57:12.066Z,,,,,,,,,,,,,,,,,53,,,,,,,,,,,,,,352.2600000000093,,response,,,,99,,,,,,,Space,keypress(Space),,,,,,,,---- -- ----- -- ------ - ------- --- ----------<br>------------- ------ ------ ---- ---- ------- ----- -- ----<br>-------- ------- -- ---------- --- - --- ----- ----- ----<br>---- --- --- ----- --- ---- ---- ------- ----- ---- -------<br>--- --- -- ----- -- --- ---- -- --- ---- -- ------ ------<br>--- close -- ----,190282,190269,189916.68,189917,189916.74,190282.6,,53,close
screen,html.Screen,2_1_0_1_54,2022-05-02T10:57:12.408Z,,,,,,,,,,,,,,,,,53,,,,,,,,,,,,,,330.3999999999942,,response,,,,99,,,,,,,Space,keypress(Space),,,,,,,,---- -- ----- -- ------ - ------- --- ----------<br>------------- ------ ------ ---- ---- ------- ----- -- ----<br>-------- ------- -- ---------- --- - --- ----- ----- ----<br>---- --- --- ----- --- ---- ---- ------- ----- ---- -------<br>--- --- -- ----- -- --- ---- -- --- ---- -- ------ ------<br>--- ----- at ----,190625,190613,190282.52,190283,190282.6,190625.64,,54,at
screen,html.Screen,2_1_0_1_55,2022-05-02T10:57:12.818Z,,,,,,,,,,,,,,,,,53,,,,,,,,,,,,,,393.35999999998603,,response,,,,99,,,,,,,Space,keypress(Space),,,,,,,,---- -- ----- -- ------ - ------- --- ----------<br>------------- ------ ------ ---- ---- ------- ----- -- ----<br>-------- ------- -- ---------- --- - --- ----- ----- ----<br>---- --- --- ----- --- ---- ---- ------- ----- ---- -------<br>--- --- -- ----- -- --- ---- -- --- ---- -- ------ ------<br>--- ----- -- all.,191036,191019,190625.58,190625,190625.64,191035.66,,55,all.
Item 99,flow.Loop,2_1_0_1,2022-05-02T10:57:12.818Z,,,,,,,,,,,,,,,,,,,,,,,,,,,,,,,21084.359999999986,,completion,,,,,E,,,,,,,,,,,silence,,,,,191036,191019,169927.7,169928,169934.64,191035.66,,,
Question 1,html.Screen,2_1_0_2,2022-05-02T10:57:17.130Z,,,,,,,,,,,,,,,,,,,,,,,,,,,,true,FALSE,,4296.3399999999965,,response,,,,99,E,,,,,,FALSE,click #choice-2,,,,silence,,,,,195347,195332,191035.62,191036,191035.66,195351.1,,,
Question 2,html.Screen,2_1_0_3,2022-05-02T10:57:22.254Z,,,,,,,,,,,,,,,,,,,,,,,,,,,,true,TRUE,,5104.899999999994,,response,,,,99,E,,,,,,TRUE,click #choice-1,,,,silence,,,,,200472,200456,195346.1,195347,195351.1,200483,,,
Item 99,flow.Sequence,2_1_0,2022-05-02T10:57:22.254Z,,,,,,,,,,,,,,,,,,,,,,,,,,,,,,,40521.26000000001,,completion,,,,,,,,,,,,,,,,,,,,,200472,200456,159927.96,159931,159934.74,200483,,,
Holding screen,html.Screen,2_1_1_0,2022-05-02T10:57:32.259Z,,,,,,,,,,,,,,,,,,,,,,,,,,,,,,,9999.920000000013,,timeout,,,,,,,,,,,,,,,,,,,,,210476,210475.98,200471.08,200472,200483,210482.92,,,
screen,html.Screen,2_1_1_1_0,2022-05-02T10:57:35.417Z,,,,,,,,,,,,,,,,,54,,,,,,,,,,,,,,3146.079999999987,,response,,,,100,,,,,,,Space,keypress(Space),,,,,,,,At --- ---- --- ------ ----- ------- ---- -- --- ------- --<br>------- ---------- ------ -- ----- -- ----- -- ---- ------<br>--- ----- --- --- ------ -------- ----- --- ------ ----- --<br>----- ----- ---------- --- --- ------ ------ ---- -- ------<br>------- --- ------ ----- --- ---- ------- -- ---- --- --<br>------- ------,213634,213629,210475.98,210476,210482.92,213634.56,,0,At
screen,html.Screen,2_1_1_1_1,2022-05-02T10:57:35.734Z,,,,,,,,,,,,,,,,,54,,,,,,,,,,,,,,306.4400000000023,,response,,,,100,,,,,,,Space,keypress(Space),,,,,,,,-- the ---- --- ------ ----- ------- ---- -- --- ------- --<br>------- ---------- ------ -- ----- -- ----- -- ---- ------<br>--- ----- --- --- ------ -------- ----- --- ------ ----- --<br>----- ----- ---------- --- --- ------ ------ ---- -- ------<br>------- --- ------ ----- --- ---- ------- -- ---- --- --<br>------- ------,213951,213941,213634.5,213634,213634.56,213950.88,,1,the
screen,html.Screen,2_1_1_1_2,2022-05-02T10:57:36.028Z,,,,,,,,,,,,,,,,,54,,,,,,,,,,,,,,287.11999999999534,,response,,,,100,,,,,,,Space,keypress(Space),,,,,,,,-- --- time --- ------ ----- ------- ---- -- --- ------- --<br>------- ---------- ------ -- ----- -- ----- -- ---- ------<br>--- ----- --- --- ------ -------- ----- --- ------ ----- --<br>----- ----- ---------- --- --- ------ ------ ---- -- ------<br>------- --- ------ ----- --- ---- ------- -- ---- --- --<br>------- ------,214245,214238,213950.8,213951,213950.88,214245.34,,2,time
screen,html.Screen,2_1_1_1_3,2022-05-02T10:57:36.317Z,,,,,,,,,,,,,,,,,54,,,,,,,,,,,,,,273.6600000000035,,response,,,,100,,,,,,,Space,keypress(Space),,,,,,,,-- --- ---- the ------ ----- ------- ---- -- --- ------- --<br>------- ---------- ------ -- ----- -- ----- -- ---- ------<br>--- ----- --- --- ------ -------- ----- --- ------ ----- --<br>----- ----- ---------- --- --- ------ ------ ---- -- ------<br>------- --- ------ ----- --- ---- ------- -- ---- --- --<br>------- ------,214534,214519,214245.28,214245,214245.34,214534.54,,3,the
screen,html.Screen,2_1_1_1_4,2022-05-02T10:57:36.537Z,,,,,,,,,,,,,,,,,54,,,,,,,,,,,,,,203.45999999999185,,response,,,,100,,,,,,,Space,keypress(Space),,,,,,,,-- --- ---- --- French ----- ------- ---- -- --- ------- --<br>------- ---------- ------ -- ----- -- ----- -- ---- ------<br>--- ----- --- --- ------ -------- ----- --- ------ ----- --<br>----- ----- ---------- --- --- ------ ------ ---- -- ------<br>------- --- ------ ----- --- ---- ------- -- ---- --- --<br>------- ------,214755,214738,214534.48,214534,214534.54,214754.56,,4,French
screen,html.Screen,2_1_1_1_5,2022-05-02T10:57:36.792Z,,,,,,,,,,,,,,,,,54,,,,,,,,,,,,,,248.44000000000233,,response,,,,100,,,,,,,Space,keypress(Space),,,,,,,,-- --- ---- --- ------ crown ------- ---- -- --- ------- --<br>------- ---------- ------ -- ----- -- ----- -- ---- ------<br>--- ----- --- --- ------ -------- ----- --- ------ ----- --<br>----- ----- ---------- --- --- ------ ------ ---- -- ------<br>------- --- ------ ----- --- ---- ------- -- ---- --- --<br>------- ------,215009,215003,214754.48,214755,214754.56,215009.46,,5,crown
screen,html.Screen,2_1_1_1_6,2022-05-02T10:57:37.159Z,,,,,,,,,,,,,,,,,54,,,,,,,,,,,,,,353.54000000000815,,response,,,,100,,,,,,,Space,keypress(Space),,,,,,,,-- --- ---- --- ------ ----- secured ---- -- --- ------- --<br>------- ---------- ------ -- ----- -- ----- -- ---- ------<br>--- ----- --- --- ------ -------- ----- --- ------ ----- --<br>----- ----- ---------- --- --- ------ ------ ---- -- ------<br>------- --- ------ ----- --- ---- ------- -- ---- --- --<br>------- ------,215376,215363,215009.4,215009,215009.46,215376.34,,6,secured
screen,html.Screen,2_1_1_1_7,2022-05-02T10:57:37.715Z,,,,,,,,,,,,,,,,,54,,,,,,,,,,,,,,548.6600000000035,,response,,,,100,,,,,,,Space,keypress(Space),,,,,,,,-- --- ---- --- ------ ----- ------- much -- --- ------- --<br>------- ---------- ------ -- ----- -- ----- -- ---- ------<br>--- ----- --- --- ------ -------- ----- --- ------ ----- --<br>----- ----- ---------- --- --- ------ ------ ---- -- ------<br>------- --- ------ ----- --- ---- ------- -- ---- --- --<br>------- ------,215932,215925,215376.28,215376,215376.34,215932.4,,7,much
screen,html.Screen,2_1_1_1_8,2022-05-02T10:57:37.973Z,,,,,,,,,,,,,,,,,54,,,,,,,,,,,,,,242.60000000000582,,response,,,,100,,,,,,,Space,keypress(Space),,,,,,,,-- --- ---- --- ------ ----- ------- ---- of --- ------- --<br>------- ---------- ------ -- ----- -- ----- -- ---- ------<br>--- ----- --- --- ------ -------- ----- --- ------ ----- --<br>----- ----- ---------- --- --- ------ ------ ---- -- ------<br>------- --- ------ ----- --- ---- ------- -- ---- --- --<br>------- ------,216191,216175,215932.36,215932,215932.4,216190.4,,8,of
screen,html.Screen,2_1_1_1_9,2022-05-02T10:57:38.227Z,,,,,,,,,,,,,,,,,54,,,,,,,,,,,,,,250.60000000000582,,response,,,,100,,,,,,,Space,keypress(Space),,,,,,,,-- --- ---- --- ------ ----- ------- ---- -- its ------- --<br>------- ---------- ------ -- ----- -- ----- -- ---- ------<br>--- ----- --- --- ------ -------- ----- --- ------ ----- --<br>----- ----- ---------- --- --- ------ ------ ---- -- ------<br>------- --- ------ ----- --- ---- ------- -- ---- --- --<br>------- ------,216444,216441,216190.34,216191,216190.4,216443.8,,9,its
screen,html.Screen,2_1_1_1_10,2022-05-02T10:57:38.593Z,,,,,,,,,,,,,,,,,54,,,,,,,,,,,,,,357.20000000001164,,response,,,,100,,,,,,,Space,keypress(Space),,,,,,,,-- --- ---- --- ------ ----- ------- ---- -- --- revenue --<br>------- ---------- ------ -- ----- -- ----- -- ---- ------<br>--- ----- --- --- ------ -------- ----- --- ------ ----- --<br>----- ----- ---------- --- --- ------ ------ ---- -- ------<br>------- --- ------ ----- --- ---- ------- -- ---- --- --<br>------- ------,216811,216801,216443.74,216444,216443.8,216810.68,,10,revenue
screen,html.Screen,2_1_1_1_11,2022-05-02T10:57:38.892Z,,,,,,,,,,,,,,,,,54,,,,,,,,,,,,,,286.320000000007,,response,,,,100,,,,,,,Space,keypress(Space),,,,,,,,-- --- ---- --- ------ ----- ------- ---- -- --- ------- by<br>------- ---------- ------ -- ----- -- ----- -- ---- ------<br>--- ----- --- --- ------ -------- ----- --- ------ ----- --<br>----- ----- ---------- --- --- ------ ------ ---- -- ------<br>------- --- ------ ----- --- ---- ------- -- ---- --- --<br>------- ------,217110,217097,216810.6,216811,216810.68,217109.66,,11,by
screen,html.Screen,2_1_1_1_12,2022-05-02T10:57:39.146Z,,,,,,,,,,,,,,,,,54,,,,,,,,,,,,,,237.3399999999965,,response,,,,100,,,,,,,Space,keypress(Space),,,,,,,,-- --- ---- --- ------ ----- ------- ---- -- --- ------- --<br>issuing ---------- ------ -- ----- -- ----- -- ---- ------<br>--- ----- --- --- ------ -------- ----- --- ------ ----- --<br>----- ----- ---------- --- --- ------ ------ ---- -- ------<br>------- --- ------ ----- --- ---- ------- -- ---- --- --<br>------- ------,217363,217347,217109.58,217110,217109.66,217363.42,,12,issuing
screen,html.Screen,2_1_1_1_13,2022-05-02T10:57:39.375Z,,,,,,,,,,,,,,,,,54,,,,,,,,,,,,,,217.5799999999872,,response,,,,100,,,,,,,Space,keypress(Space),,,,,,,,-- --- ---- --- ------ ----- ------- ---- -- --- ------- --<br>------- government ------ -- ----- -- ----- -- ---- ------<br>--- ----- --- --- ------ -------- ----- --- ------ ----- --<br>----- ----- ---------- --- --- ------ ------ ---- -- ------<br>------- --- ------ ----- --- ---- ------- -- ---- --- --<br>------- ------,217593,217581,217363.38,217363,217363.42,217592.36,,13,government
screen,html.Screen,2_1_1_1_14,2022-05-02T10:57:39.587Z,,,,,,,,,,,,,,,,,54,,,,,,,,,,,,,,208.64000000001397,,response,,,,100,,,,,,,Space,keypress(Space),,,,,,,,-- --- ---- --- ------ ----- ------- ---- -- --- ------- --<br>------- ---------- bonds. -- ----- -- ----- -- ---- ------<br>--- ----- --- --- ------ -------- ----- --- ------ ----- --<br>----- ----- ---------- --- --- ------ ------ ---- -- ------<br>------- --- ------ ----- --- ---- ------- -- ---- --- --<br>------- ------,217804,217801,217592.3,217593,217592.36,217804.6,,14,bonds.
screen,html.Screen,2_1_1_1_15,2022-05-02T10:57:39.776Z,,,,,,,,,,,,,,,,,54,,,,,,,,,,,,,,183.39999999999418,,response,,,,100,,,,,,,Space,keypress(Space),,,,,,,,-- --- ---- --- ------ ----- ------- ---- -- --- ------- --<br>------- ---------- ------ In ----- -- ----- -- ---- ------<br>--- ----- --- --- ------ -------- ----- --- ------ ----- --<br>----- ----- ---------- --- --- ------ ------ ---- -- ------<br>------- --- ------ ----- --- ---- ------- -- ---- --- --<br>------- ------,217993,217988,217804.52,217804,217804.6,217993.38,,15,In
screen,html.Screen,2_1_1_1_16,2022-05-02T10:57:40.644Z,,,,,,,,,,,,,,,,,54,,,,,,,,,,,,,,853.6199999999953,,response,,,,100,,,,,,,Space,keypress(Space),,,,,,,,"-- --- ---- --- ------ ----- ------- ---- -- --- ------- --<br>------- ---------- ------ -- 1727, -- ----- -- ---- ------<br>--- ----- --- --- ------ -------- ----- --- ------ ----- --<br>----- ----- ---------- --- --- ------ ------ ---- -- ------<br>------- --- ------ ----- --- ---- ------- -- ---- --- --<br>------- ------",218861,218847,217993.32,217993,217993.38,218861.36,,16,"1727,"
screen,html.Screen,2_1_1_1_17,2022-05-02T10:57:41.281Z,,,,,,,,,,,,,,,,,54,,,,,,,,,,,,,,626.640000000014,,response,,,,100,,,,,,,Space,keypress(Space),,,,,,,,-- --- ---- --- ------ ----- ------- ---- -- --- ------- --<br>------- ---------- ------ -- ----- in ----- -- ---- ------<br>--- ----- --- --- ------ -------- ----- --- ------ ----- --<br>----- ----- ---------- --- --- ------ ------ ---- -- ------<br>------- --- ------ ----- --- ---- ------- -- ---- --- --<br>------- ------,219498,219488,218861.3,218861,218861.36,219498.6,,17,in
screen,html.Screen,2_1_1_1_18,2022-05-02T10:57:41.685Z,,,,,,,,,,,,,,,,,54,,,,,,,,,,,,,,396.3999999999942,,response,,,,100,,,,,,,Space,keypress(Space),,,,,,,,-- --- ---- --- ------ ----- ------- ---- -- --- ------- --<br>------- ---------- ------ -- ----- -- order -- ---- ------<br>--- ----- --- --- ------ -------- ----- --- ------ ----- --<br>----- ----- ---------- --- --- ------ ------ ---- -- ------<br>------- --- ------ ----- --- ---- ------- -- ---- --- --<br>------- ------,219902,219895,219498.52,219498,219498.6,219901.52,,18,order
screen,html.Screen,2_1_1_1_19,2022-05-02T10:57:41.939Z,,,,,,,,,,,,,,,,,54,,,,,,,,,,,,,,243.48000000001048,,response,,,,100,,,,,,,Space,keypress(Space),,,,,,,,-- --- ---- --- ------ ----- ------- ---- -- --- ------- --<br>------- ---------- ------ -- ----- -- ----- to ---- ------<br>--- ----- --- --- ------ -------- ----- --- ------ ----- --<br>----- ----- ---------- --- --- ------ ------ ---- -- ------<br>------- --- ------ ----- --- ---- ------- -- ---- --- --<br>------- ------,220156,220145,219901.42,219902,219901.52,220156.38,,19,to
screen,html.Screen,2_1_1_1_20,2022-05-02T10:57:42.246Z,,,,,,,,,,,,,,,,,54,,,,,,,,,,,,,,300.61999999999534,,response,,,,100,,,,,,,Space,keypress(Space),,,,,,,,-- --- ---- --- ------ ----- ------- ---- -- --- ------- --<br>------- ---------- ------ -- ----- -- ----- -- save ------<br>--- ----- --- --- ------ -------- ----- --- ------ ----- --<br>----- ----- ---------- --- --- ------ ------ ---- -- ------<br>------- --- ------ ----- --- ---- ------- -- ---- --- --<br>------- ------,220464,220457,220156.32,220156,220156.38,220463.5,,20,save
screen,html.Screen,2_1_1_1_21,2022-05-02T10:57:42.533Z,,,,,,,,,,,,,,,,,54,,,,,,,,,,,,,,274.5,,response,,,,100,,,,,,,Space,keypress(Space),,,,,,,,"-- --- ---- --- ------ ----- ------- ---- -- --- ------- --<br>------- ---------- ------ -- ----- -- ----- -- ---- money,<br>--- ----- --- --- ------ -------- ----- --- ------ ----- --<br>----- ----- ---------- --- --- ------ ------ ---- -- ------<br>------- --- ------ ----- --- ---- ------- -- ---- --- --<br>------- ------",220750,220738,220463.44,220464,220463.5,220750.36,,21,"money,"
screen,html.Screen,2_1_1_1_22,2022-05-02T10:57:43.008Z,,,,,,,,,,,,,,,,,54,,,,,,,,,,,,,,471.64000000001397,,response,,,,100,,,,,,,Space,keypress(Space),,,,,,,,-- --- ---- --- ------ ----- ------- ---- -- --- ------- --<br>------- ---------- ------ -- ----- -- ----- -- ---- ------<br>the ----- --- --- ------ -------- ----- --- ------ ----- --<br>----- ----- ---------- --- --- ------ ------ ---- -- ------<br>------- --- ------ ----- --- ---- ------- -- ---- --- --<br>------- ------,221225,221222,220750.32,220750,220750.36,221225.36,,22,the
screen,html.Screen,2_1_1_1_23,2022-05-02T10:57:43.302Z,,,,,,,,,,,,,,,,,54,,,,,,,,,,,,,,277.64000000001397,,response,,,,100,,,,,,,Space,keypress(Space),,,,,,,,-- --- ---- --- ------ ----- ------- ---- -- --- ------- --<br>------- ---------- ------ -- ----- -- ----- -- ---- ------<br>--- state --- --- ------ -------- ----- --- ------ ----- --<br>----- ----- ---------- --- --- ------ ------ ---- -- ------<br>------- --- ------ ----- --- ---- ------- -- ---- --- --<br>------- ------,221520,221503,221225.32,221225,221225.36,221519.54,,23,state
screen,html.Screen,2_1_1_1_24,2022-05-02T10:57:43.570Z,,,,,,,,,,,,,,,,,54,,,,,,,,,,,,,,264.45999999999185,,response,,,,100,,,,,,,Space,keypress(Space),,,,,,,,-- --- ---- --- ------ ----- ------- ---- -- --- ------- --<br>------- ---------- ------ -- ----- -- ----- -- ---- ------<br>--- ----- cut --- ------ -------- ----- --- ------ ----- --<br>----- ----- ---------- --- --- ------ ------ ---- -- ------<br>------- --- ------ ----- --- ---- ------- -- ---- --- --<br>------- ------,221787,221784,221519.46,221520,221519.54,221787.3,,24,cut
screen,html.Screen,2_1_1_1_25,2022-05-02T10:57:43.845Z,,,,,,,,,,,,,,,,,54,,,,,,,,,,,,,,262.70000000001164,,response,,,,100,,,,,,,Space,keypress(Space),,,,,,,,-- --- ---- --- ------ ----- ------- ---- -- --- ------- --<br>------- ---------- ------ -- ----- -- ----- -- ---- ------<br>--- ----- --- the ------ -------- ----- --- ------ ----- --<br>----- ----- ---------- --- --- ------ ------ ---- -- ------<br>------- --- ------ ----- --- ---- ------- -- ---- --- --<br>------- ------,222062,222050,221787.26,221787,221787.3,222062.42,,25,the
screen,html.Screen,2_1_1_1_26,2022-05-02T10:57:44.171Z,,,,,,,,,,,,,,,,,54,,,,,,,,,,,,,,315.5799999999872,,response,,,,100,,,,,,,Space,keypress(Space),,,,,,,,-- --- ---- --- ------ ----- ------- ---- -- --- ------- --<br>------- ---------- ------ -- ----- -- ----- -- ---- ------<br>--- ----- --- --- bonds' -------- ----- --- ------ ----- --<br>----- ----- ---------- --- --- ------ ------ ---- -- ------<br>------- --- ------ ----- --- ---- ------- -- ---- --- --<br>------- ------,222388,222378,222062.36,222063,222062.42,222387.5,,26,bonds'
screen,html.Screen,2_1_1_1_27,2022-05-02T10:57:44.522Z,,,,,,,,,,,,,,,,,54,,,,,,,,,,,,,,334.5,,response,,,,100,,,,,,,Space,keypress(Space),,,,,,,,-- --- ---- --- ------ ----- ------- ---- -- --- ------- --<br>------- ---------- ------ -- ----- -- ----- -- ---- ------<br>--- ----- --- --- ------ interest ----- --- ------ ----- --<br>----- ----- ---------- --- --- ------ ------ ---- -- ------<br>------- --- ------ ----- --- ---- ------- -- ---- --- --<br>------- ------,222739,222722,222387.42,222388,222387.5,222739.38,,27,interest
screen,html.Screen,2_1_1_1_28,2022-05-02T10:57:44.860Z,,,,,,,,,,,,,,,,,54,,,,,,,,,,,,,,326.61999999999534,,response,,,,100,,,,,,,Space,keypress(Space),,,,,,,,-- --- ---- --- ------ ----- ------- ---- -- --- ------- --<br>------- ---------- ------ -- ----- -- ----- -- ---- ------<br>--- ----- --- --- ------ -------- rate. --- ------ ----- --<br>----- ----- ---------- --- --- ------ ------ ---- -- ------<br>------- --- ------ ----- --- ---- ------- -- ---- --- --<br>------- ------,223077,223066,222739.3,222739,222739.38,223077.34,,28,rate.
screen,html.Screen,2_1_1_1_29,2022-05-02T10:57:45.225Z,,,,,,,,,,,,,,,,,54,,,,,,,,,,,,,,347.6600000000035,,response,,,,100,,,,,,,Space,keypress(Space),,,,,,,,-- --- ---- --- ------ ----- ------- ---- -- --- ------- --<br>------- ---------- ------ -- ----- -- ----- -- ---- ------<br>--- ----- --- --- ------ -------- ----- The ------ ----- --<br>----- ----- ---------- --- --- ------ ------ ---- -- ------<br>------- --- ------ ----- --- ---- ------- -- ---- --- --<br>------- ------,223442,223425,223077.28,223077,223077.34,223442.44,,29,The
screen,html.Screen,2_1_1_1_30,2022-05-02T10:57:45.546Z,,,,,,,,,,,,,,,,,54,,,,,,,,,,,,,,310.5599999999977,,response,,,,100,,,,,,,Space,keypress(Space),,,,,,,,-- --- ---- --- ------ ----- ------- ---- -- --- ------- --<br>------- ---------- ------ -- ----- -- ----- -- ---- ------<br>--- ----- --- --- ------ -------- ----- --- market ----- --<br>----- ----- ---------- --- --- ------ ------ ---- -- ------<br>------- --- ------ ----- --- ---- ------- -- ---- --- --<br>------- ------,223762,223753,223442.38,223442,223442.44,223762.52,,30,market
screen,html.Screen,2_1_1_1_31,2022-05-02T10:57:45.821Z,,,,,,,,,,,,,,,,,54,,,,,,,,,,,,,,271.4800000000105,,response,,,,100,,,,,,,Space,keypress(Space),,,,,,,,-- --- ---- --- ------ ----- ------- ---- -- --- ------- --<br>------- ---------- ------ -- ----- -- ----- -- ---- ------<br>--- ----- --- --- ------ -------- ----- --- ------ value --<br>----- ----- ---------- --- --- ------ ------ ---- -- ------<br>------- --- ------ ----- --- ---- ------- -- ---- --- --<br>------- ------,224038,224034,223762.44,223762,223762.52,224038.3,,31,value
screen,html.Screen,2_1_1_1_32,2022-05-02T10:57:46.235Z,,,,,,,,,,,,,,,,,54,,,,,,,,,,,,,,402.70000000001164,,response,,,,100,,,,,,,Space,keypress(Space),,,,,,,,-- --- ---- --- ------ ----- ------- ---- -- --- ------- --<br>------- ---------- ------ -- ----- -- ----- -- ---- ------<br>--- ----- --- --- ------ -------- ----- --- ------ ----- of<br>----- ----- ---------- --- --- ------ ------ ---- -- ------<br>------- --- ------ ----- --- ---- ------- -- ---- --- --<br>------- ------,224453,224441,224038.24,224038,224038.3,224452.34,,32,of
screen,html.Screen,2_1_1_1_33,2022-05-02T10:57:46.534Z,,,,,,,,,,,,,,,,,54,,,,,,,,,,,,,,285.6600000000035,,response,,,,100,,,,,,,Space,keypress(Space),,,,,,,,-- --- ---- --- ------ ----- ------- ---- -- --- ------- --<br>------- ---------- ------ -- ----- -- ----- -- ---- ------<br>--- ----- --- --- ------ -------- ----- --- ------ ----- --<br>these ----- ---------- --- --- ------ ------ ---- -- ------<br>------- --- ------ ----- --- ---- ------- -- ---- --- --<br>------- ------,224751,224738,224452.3,224453,224452.34,224751.42,,33,these
screen,html.Screen,2_1_1_1_34,2022-05-02T10:57:46.908Z,,,,,,,,,,,,,,,,,54,,,,,,,,,,,,,,361.5799999999872,,response,,,,100,,,,,,,Space,keypress(Space),,,,,,,,-- --- ---- --- ------ ----- ------- ---- -- --- ------- --<br>------- ---------- ------ -- ----- -- ----- -- ---- ------<br>--- ----- --- --- ------ -------- ----- --- ------ ----- --<br>----- bonds ---------- --- --- ------ ------ ---- -- ------<br>------- --- ------ ----- --- ---- ------- -- ---- --- --<br>------- ------,225127,225113,224751.38,224751,224751.42,225126.32,,34,bonds
screen,html.Screen,2_1_1_1_35,2022-05-02T10:57:47.200Z,,,,,,,,,,,,,,,,,54,,,,,,,,,,,,,,283.679999999993,,response,,,,100,,,,,,,Space,keypress(Space),,,,,,,,"-- --- ---- --- ------ ----- ------- ---- -- --- ------- --<br>------- ---------- ------ -- ----- -- ----- -- ---- ------<br>--- ----- --- --- ------ -------- ----- --- ------ ----- --<br>----- ----- plummeted, --- --- ------ ------ ---- -- ------<br>------- --- ------ ----- --- ---- ------- -- ---- --- --<br>------- ------",225417,225410,225126.24,225127,225126.32,225417.46,,35,"plummeted,"
screen,html.Screen,2_1_1_1_36,2022-05-02T10:57:47.536Z,,,,,,,,,,,,,,,,,54,,,,,,,,,,,,,,320.54000000000815,,response,,,,100,,,,,,,Space,keypress(Space),,,,,,,,-- --- ---- --- ------ ----- ------- ---- -- --- ------- --<br>------- ---------- ------ -- ----- -- ----- -- ---- ------<br>--- ----- --- --- ------ -------- ----- --- ------ ----- --<br>----- ----- ---------- and --- ------ ------ ---- -- ------<br>------- --- ------ ----- --- ---- ------- -- ---- --- --<br>------- ------,225753,225738,225417.42,225417,225417.46,225752.66,,36,and
screen,html.Screen,2_1_1_1_37,2022-05-02T10:57:47.803Z,,,,,,,,,,,,,,,,,54,,,,,,,,,,,,,,266.3399999999965,,response,,,,100,,,,,,,Space,keypress(Space),,,,,,,,-- --- ---- --- ------ ----- ------- ---- -- --- ------- --<br>------- ---------- ------ -- ----- -- ----- -- ---- ------<br>--- ----- --- --- ------ -------- ----- --- ------ ----- --<br>----- ----- ---------- --- the ------ ------ ---- -- ------<br>------- --- ------ ----- --- ---- ------- -- ---- --- --<br>------- ------,226020,226019,225752.6,225753,225752.66,226020.34,,37,the
screen,html.Screen,2_1_1_1_38,2022-05-02T10:57:48.154Z,,,,,,,,,,,,,,,,,54,,,,,,,,,,,,,,342.6600000000035,,response,,,,100,,,,,,,Space,keypress(Space),,,,,,,,-- --- ---- --- ------ ----- ------- ---- -- --- ------- --<br>------- ---------- ------ -- ----- -- ----- -- ---- ------<br>--- ----- --- --- ------ -------- ----- --- ------ ----- --<br>----- ----- ---------- --- --- market ------ ---- -- ------<br>------- --- ------ ----- --- ---- ------- -- ---- --- --<br>------- ------,226372,226363,226020.28,226020,226020.34,226371.38,,38,market
screen,html.Screen,2_1_1_1_39,2022-05-02T10:57:48.473Z,,,,,,,,,,,,,,,,,54,,,,,,,,,,,,,,303.61999999999534,,response,,,,100,,,,,,,Space,keypress(Space),,,,,,,,-- --- ---- --- ------ ----- ------- ---- -- --- ------- --<br>------- ---------- ------ -- ----- -- ----- -- ---- ------<br>--- ----- --- --- ------ -------- ----- --- ------ ----- --<br>----- ----- ---------- --- --- ------ became ---- -- ------<br>------- --- ------ ----- --- ---- ------- -- ---- --- --<br>------- ------,226690,226675,226371.32,226372,226371.38,226690.32,,39,became
screen,html.Screen,2_1_1_1_40,2022-05-02T10:57:48.797Z,,,,,,,,,,,,,,,,,54,,,,,,,,,,,,,,312.679999999993,,response,,,,100,,,,,,,Space,keypress(Space),,,,,,,,-- --- ---- --- ------ ----- ------- ---- -- --- ------- --<br>------- ---------- ------ -- ----- -- ----- -- ---- ------<br>--- ----- --- --- ------ -------- ----- --- ------ ----- --<br>----- ----- ---------- --- --- ------ ------ wary -- ------<br>------- --- ------ ----- --- ---- ------- -- ---- --- --<br>------- ------,227014,227003,226690.26,226690,226690.32,227014.32,,40,wary
screen,html.Screen,2_1_1_1_41,2022-05-02T10:57:49.075Z,,,,,,,,,,,,,,,,,54,,,,,,,,,,,,,,269.679999999993,,response,,,,100,,,,,,,Space,keypress(Space),,,,,,,,-- --- ---- --- ------ ----- ------- ---- -- --- ------- --<br>------- ---------- ------ -- ----- -- ----- -- ---- ------<br>--- ----- --- --- ------ -------- ----- --- ------ ----- --<br>----- ----- ---------- --- --- ------ ------ ---- of ------<br>------- --- ------ ----- --- ---- ------- -- ---- --- --<br>------- ------,227293,227284,227014.26,227014,227014.32,227292.34,,41,of
screen,html.Screen,2_1_1_1_42,2022-05-02T10:57:49.411Z,,,,,,,,,,,,,,,,,54,,,,,,,,,,,,,,320.6600000000035,,response,,,,100,,,,,,,Space,keypress(Space),,,,,,,,-- --- ---- --- ------ ----- ------- ---- -- --- ------- --<br>------- ---------- ------ -- ----- -- ----- -- ---- ------<br>--- ----- --- --- ------ -------- ----- --- ------ ----- --<br>----- ----- ---------- --- --- ------ ------ ---- -- French<br>------- --- ------ ----- --- ---- ------- -- ---- --- --<br>------- ------,227628,227613,227292.28,227293,227292.34,227628.46,,42,French
screen,html.Screen,2_1_1_1_43,2022-05-02T10:57:49.750Z,,,,,,,,,,,,,,,,,54,,,,,,,,,,,,,,327.54000000000815,,response,,,,100,,,,,,,Space,keypress(Space),,,,,,,,-- --- ---- --- ------ ----- ------- ---- -- --- ------- --<br>------- ---------- ------ -- ----- -- ----- -- ---- ------<br>--- ----- --- --- ------ -------- ----- --- ------ ----- --<br>----- ----- ---------- --- --- ------ ------ ---- -- ------<br>credit. --- ------ ----- --- ---- ------- -- ---- --- --<br>------- ------,227967,227956,227628.38,227628,227628.46,227967.32,,43,credit.
screen,html.Screen,2_1_1_1_44,2022-05-02T10:57:50.067Z,,,,,,,,,,,,,,,,,54,,,,,,,,,,,,,,301.679999999993,,response,,,,100,,,,,,,Space,keypress(Space),,,,,,,,-- --- ---- --- ------ ----- ------- ---- -- --- ------- --<br>------- ---------- ------ -- ----- -- ----- -- ---- ------<br>--- ----- --- --- ------ -------- ----- --- ------ ----- --<br>----- ----- ---------- --- --- ------ ------ ---- -- ------<br>------- The ------ ----- --- ---- ------- -- ---- --- --<br>------- ------,228284,228269,227967.26,227967,227967.32,228284.38,,44,The
screen,html.Screen,2_1_1_1_45,2022-05-02T10:57:50.336Z,,,,,,,,,,,,,,,,,54,,,,,,,,,,,,,,265.61999999999534,,response,,,,100,,,,,,,Space,keypress(Space),,,,,,,,-- --- ---- --- ------ ----- ------- ---- -- --- ------- --<br>------- ---------- ------ -- ----- -- ----- -- ---- ------<br>--- ----- --- --- ------ -------- ----- --- ------ ----- --<br>----- ----- ---------- --- --- ------ ------ ---- -- ------<br>------- --- French ----- --- ---- ------- -- ---- --- --<br>------- ------,228553,228550,228284.32,228284,228284.38,228553.5,,45,French
screen,html.Screen,2_1_1_1_46,2022-05-02T10:57:50.611Z,,,,,,,,,,,,,,,,,54,,,,,,,,,,,,,,262.5,,response,,,,100,,,,,,,Space,keypress(Space),,,,,,,,-- --- ---- --- ------ ----- ------- ---- -- --- ------- --<br>------- ---------- ------ -- ----- -- ----- -- ---- ------<br>--- ----- --- --- ------ -------- ----- --- ------ ----- --<br>----- ----- ---------- --- --- ------ ------ ---- -- ------<br>------- --- ------ state --- ---- ------- -- ---- --- --<br>------- ------,228829,228816,228553.42,228553,228553.5,228828.3,,46,state
screen,html.Screen,2_1_1_1_47,2022-05-02T10:57:50.904Z,,,,,,,,,,,,,,,,,54,,,,,,,,,,,,,,284.70000000001164,,response,,,,100,,,,,,,Space,keypress(Space),,,,,,,,-- --- ---- --- ------ ----- ------- ---- -- --- ------- --<br>------- ---------- ------ -- ----- -- ----- -- ---- ------<br>--- ----- --- --- ------ -------- ----- --- ------ ----- --<br>----- ----- ---------- --- --- ------ ------ ---- -- ------<br>------- --- ------ ----- was ---- ------- -- ---- --- --<br>------- ------,229121,229113,228828.24,228829,228828.3,229121.42,,47,was
screen,html.Screen,2_1_1_1_48,2022-05-02T10:57:51.174Z,,,,,,,,,,,,,,,,,54,,,,,,,,,,,,,,256.5799999999872,,response,,,,100,,,,,,,Space,keypress(Space),,,,,,,,-- --- ---- --- ------ ----- ------- ---- -- --- ------- --<br>------- ---------- ------ -- ----- -- ----- -- ---- ------<br>--- ----- --- --- ------ -------- ----- --- ------ ----- --<br>----- ----- ---------- --- --- ------ ------ ---- -- ------<br>------- --- ------ ----- --- left ------- -- ---- --- --<br>------- ------,229391,229378,229121.34,229122,229121.42,229391.34,,48,left
screen,html.Screen,2_1_1_1_49,2022-05-02T10:57:51.455Z,,,,,,,,,,,,,,,,,54,,,,,,,,,,,,,,267.6600000000035,,response,,,,100,,,,,,,Space,keypress(Space),,,,,,,,-- --- ---- --- ------ ----- ------- ---- -- --- ------- --<br>------- ---------- ------ -- ----- -- ----- -- ---- ------<br>--- ----- --- --- ------ -------- ----- --- ------ ----- --<br>----- ----- ---------- --- --- ------ ------ ---- -- ------<br>------- --- ------ ----- --- ---- without -- ---- --- --<br>------- ------,229672,229659,229391.28,229391,229391.34,229672.52,,49,without
screen,html.Screen,2_1_1_1_50,2022-05-02T10:57:51.772Z,,,,,,,,,,,,,,,,,54,,,,,,,,,,,,,,315.4800000000105,,response,,,,100,,,,,,,Space,keypress(Space),,,,,,,,-- --- ---- --- ------ ----- ------- ---- -- --- ------- --<br>------- ---------- ------ -- ----- -- ----- -- ---- ------<br>--- ----- --- --- ------ -------- ----- --- ------ ----- --<br>----- ----- ---------- --- --- ------ ------ ---- -- ------<br>------- --- ------ ----- --- ---- ------- an ---- --- --<br>------- ------,229989,229988,229672.4,229672,229672.52,229989.3,,50,an
screen,html.Screen,2_1_1_1_51,2022-05-02T10:57:52.061Z,,,,,,,,,,,,,,,,,54,,,,,,,,,,,,,,279.70000000001164,,response,,,,100,,,,,,,Space,keypress(Space),,,,,,,,-- --- ---- --- ------ ----- ------- ---- -- --- ------- --<br>------- ---------- ------ -- ----- -- ----- -- ---- ------<br>--- ----- --- --- ------ -------- ----- --- ------ ----- --<br>----- ----- ---------- --- --- ------ ------ ---- -- ------<br>------- --- ------ ----- --- ---- ------- -- easy --- --<br>------- ------,230278,230269,229989.24,229989,229989.3,230278.3,,51,easy
screen,html.Screen,2_1_1_1_52,2022-05-02T10:57:52.388Z,,,,,,,,,,,,,,,,,54,,,,,,,,,,,,,,318.70000000001164,,response,,,,100,,,,,,,Space,keypress(Space),,,,,,,,-- --- ---- --- ------ ----- ------- ---- -- --- ------- --<br>------- ---------- ------ -- ----- -- ----- -- ---- ------<br>--- ----- --- --- ------ -------- ----- --- ------ ----- --<br>----- ----- ---------- --- --- ------ ------ ---- -- ------<br>------- --- ------ ----- --- ---- ------- -- ---- way --<br>------- ------,230605,230597,230278.24,230278,230278.3,230605.32,,52,way
screen,html.Screen,2_1_1_1_53,2022-05-02T10:57:52.776Z,,,,,,,,,,,,,,,,,54,,,,,,,,,,,,,,382.679999999993,,response,,,,100,,,,,,,Space,keypress(Space),,,,,,,,-- --- ---- --- ------ ----- ------- ---- -- --- ------- --<br>------- ---------- ------ -- ----- -- ----- -- ---- ------<br>--- ----- --- --- ------ -------- ----- --- ------ ----- --<br>----- ----- ---------- --- --- ------ ------ ---- -- ------<br>------- --- ------ ----- --- ---- ------- -- ---- --- of<br>------- ------,230993,230988,230605.28,230605,230605.32,230993.28,,53,of
screen,html.Screen,2_1_1_1_54,2022-05-02T10:57:53.163Z,,,,,,,,,,,,,,,,,54,,,,,,,,,,,,,,384.72000000000116,,response,,,,100,,,,,,,Space,keypress(Space),,,,,,,,-- --- ---- --- ------ ----- ------- ---- -- --- ------- --<br>------- ---------- ------ -- ----- -- ----- -- ---- ------<br>--- ----- --- --- ------ -------- ----- --- ------ ----- --<br>----- ----- ---------- --- --- ------ ------ ---- -- ------<br>------- --- ------ ----- --- ---- ------- -- ---- --- --<br>raising ------,231381,231378,230993.22,230993,230993.28,231380.54,,54,raising
screen,html.Screen,2_1_1_1_55,2022-05-02T10:57:53.627Z,,,,,,,,,,,,,,,,,54,,,,,,,,,,,,,,450.45999999999185,,response,,,,100,,,,,,,Space,keypress(Space),,,,,,,,-- --- ---- --- ------ ----- ------- ---- -- --- ------- --<br>------- ---------- ------ -- ----- -- ----- -- ---- ------<br>--- ----- --- --- ------ -------- ----- --- ------ ----- --<br>----- ----- ---------- --- --- ------ ------ ---- -- ------<br>------- --- ------ ----- --- ---- ------- -- ---- --- --<br>------- money.,231844,231831,231380.46,231381,231380.54,231844.6,,55,money.
Item 100,flow.Loop,2_1_1_1,2022-05-02T10:57:53.627Z,,,,,,,,,,,,,,,,,,,,,,,,,,,,,,,21348.079999999987,,completion,,,,,E,,,,,,,,,,,silence,,,,,231844,231831,210475.98,210476,210482.92,231844.6,,,
Question 1,html.Screen,2_1_1_2,2022-05-02T10:57:56.037Z,,,,,,,,,,,,,,,,,,,,,,,,,,,,true,TRUE,,2393.399999999994,,response,,,,100,E,,,,,,TRUE,click #choice-1,,,,silence,,,,,234254,234238,231844.5,231845,231844.6,234260.48,,,
Question 2,html.Screen,2_1_1_3,2022-05-02T10:57:58.321Z,,,,,,,,,,,,,,,,,,,,,,,,,,,,true,FALSE,,2273.5199999999895,,response,,,,100,E,,,,,,FALSE,click #choice-2,,,,silence,,,,,236538,236534,234254.04,234254,234260.48,236545.18,,,
Item 100,flow.Sequence,2_1_1,2022-05-02T10:57:58.321Z,,,,,,,,,,,,,,,,,,,,,,,,,,,,,,,36051,,completion,,,,,,,,,,,,,,,,,,,,,236538,236534,200471.08,200472,200483,236545.18,,,
End of Practice,html.Page,2_1_2,2022-05-02T10:58:18.322Z,,,,,,,,,,,,,,,,,,,,,,,,,,,,,,,19999.860000000015,,timeout,,,,,,,,,,,,,,,,,,,,,256540,256538.08,236537.92,236539,236545.18,256545.04,,,
Practice,flow.Sequence,2_1,2022-05-02T10:58:18.323Z,,,,,,,,,,,,,,,,,,,,,,,,,,,,,,,96603.34,,completion,,,,,,,,,,,,,,,,,,,,,256540,256538.08,159927.96,159931,159934.74,256545.04,,,
Trap_instruction,html.Page,2_2_0,2022-05-02T10:58:38.321Z,,,,,,,,,,,,,,,,,,,,,,,,,,,,,,,19999.819999999978,,timeout,,,,,,,,,,,,,,,,,,,,,276538,276537.9,256538.08,256540,256545.04,276544.86,,,
trap_trial,html.Screen,2_2_1,2022-05-02T10:58:43.089Z,,,,,,,,,,,,,,,,,,,,,,,,,,,,true,1,,4755.140000000014,,response,,,,,,,,,,,1,click #choice-1,,,,,,,,,281306,281300,276537.9,276538,276544.86,281308.7,,,
end of trap trial,html.Page,2_2_2,2022-05-02T10:58:46.126Z,,,,,,,,,,,,,,,,,,,,,,,,,,,,,,,3034.2999999999884,,form submission,,,,,,,,,,,,,,,,,,,,,284343,284343,281305.96,281307,281308.7,284343.48,,,
Trap 1,flow.Sequence,2_2,2022-05-02T10:58:46.126Z,,,,,,,,,,,,,,,,,,,,,,,,,,,,,,,27797.959999999992,,completion,,,,,,,,,,,,,,,,,,,,,284343,284343,256538.08,256540,256545.04,284343.48,,,
Standby,html.Page,2_3_0,2022-05-02T10:58:54.120Z,,,,,,,,,,,,,,,,,,,,,,,,,,,,,,,7999.840000000026,,timeout,,,,,,,,,,,,,,,,,,,,,292337,292336.38,284340.86,284343,284343.48,292343.32,,,
Holding screen,html.Screen,2_3_1_0_0,2022-05-02T10:59:01.120Z,,,,,,,,,,,,,,,,,,,,,,,,,,,,,,,6999.940000000002,,timeout,,,,,,,,,,,,,,,,,,,,,299337,299336.32,292336.38,292337,292343.32,299343.26,,,
screen,html.Screen,2_3_1_0_1_0,2022-05-02T10:59:04.842Z,,,,,,,,,,,,,,,,,40,,,,,,,,,,,,,,3706.7399999999907,,response,,,,9,E,,,,,,Space,keypress(Space),,,,silence,,,,Police -- ------- ---- ---- ---- - -------- ----- --- --<br>----- ----- ------ -- ---- -- --- - ---- -- - ----- -----<br>------ ---- ------ ---- - -------- ------- -- --- --------<br>-------- ----------- ---- ------ ---- ------ ---- --- ---<br>-------- --- -----,303059,303050,299336.32,299337,299343.26,303059.6,,0,Police
screen,html.Screen,2_3_1_0_1_1,2022-05-02T10:59:05.212Z,,,,,,,,,,,,,,,,,40,,,,,,,,,,,,,,365.4000000000233,,response,,,,9,E,,,,,,Space,keypress(Space),,,,silence,,,,------ in ------- ---- ---- ---- - -------- ----- --- --<br>----- ----- ------ -- ---- -- --- - ---- -- - ----- -----<br>------ ---- ------ ---- - -------- ------- -- --- --------<br>-------- ----------- ---- ------ ---- ------ ---- --- ---<br>-------- --- -----,303429,303425,303059.5,303059,303059.6,303429.52,,1,in
screen,html.Screen,2_3_1_0_1_2,2022-05-02T10:59:05.521Z,,,,,,,,,,,,,,,,,40,,,,,,,,,,,,,,292.4799999999814,,response,,,,9,E,,,,,,Space,keypress(Space),,,,silence,,,,------ -- Georgia ---- ---- ---- - -------- ----- --- --<br>----- ----- ------ -- ---- -- --- - ---- -- - ----- -----<br>------ ---- ------ ---- - -------- ------- -- --- --------<br>-------- ----------- ---- ------ ---- ------ ---- --- ---<br>-------- --- -----,303738,303722,303429.44,303429,303429.52,303738.62,,2,Georgia
screen,html.Screen,2_3_1_0_1_3,2022-05-02T10:59:05.875Z,,,,,,,,,,,,,,,,,40,,,,,,,,,,,,,,342.38000000000466,,response,,,,9,E,,,,,,Space,keypress(Space),,,,silence,,,,------ -- ------- have ---- ---- - -------- ----- --- --<br>----- ----- ------ -- ---- -- --- - ---- -- - ----- -----<br>------ ---- ------ ---- - -------- ------- -- --- --------<br>-------- ----------- ---- ------ ---- ------ ---- --- ---<br>-------- --- -----,304092,304081,303738.56,303739,303738.62,304092.36,,3,have
screen,html.Screen,2_3_1_0_1_4,2022-05-02T10:59:06.068Z,,,,,,,,,,,,,,,,,40,,,,,,,,,,,,,,176.64000000001397,,response,,,,9,E,,,,,,Space,keypress(Space),,,,silence,,,,------ -- ------- ---- shut ---- - -------- ----- --- --<br>----- ----- ------ -- ---- -- --- - ---- -- - ----- -----<br>------ ---- ------ ---- - -------- ------- -- --- --------<br>-------- ----------- ---- ------ ---- ------ ---- --- ---<br>-------- --- -----,304285,304269,304092.3,304092,304092.36,304285.46,,4,shut
screen,html.Screen,2_3_1_0_1_5,2022-05-02T10:59:06.471Z,,,,,,,,,,,,,,,,,40,,,,,,,,,,,,,,389.53999999997905,,response,,,,9,E,,,,,,Space,keypress(Space),,,,silence,,,,------ -- ------- ---- ---- down - -------- ----- --- --<br>----- ----- ------ -- ---- -- --- - ---- -- - ----- -----<br>------ ---- ------ ---- - -------- ------- -- --- --------<br>-------- ----------- ---- ------ ---- ------ ---- --- ---<br>-------- --- -----,304689,304675,304285.4,304285,304285.46,304688.48,,5,down
screen,html.Screen,2_3_1_0_1_6,2022-05-02T10:59:06.728Z,,,,,,,,,,,,,,,,,40,,,,,,,,,,,,,,252.52000000001863,,response,,,,9,E,,,,,,Space,keypress(Space),,,,silence,,,,------ -- ------- ---- ---- ---- a -------- ----- --- --<br>----- ----- ------ -- ---- -- --- - ---- -- - ----- -----<br>------ ---- ------ ---- - -------- ------- -- --- --------<br>-------- ----------- ---- ------ ---- ------ ---- --- ---<br>-------- --- -----,304946,304941,304688.42,304689,304688.48,304945.5,,6,a
screen,html.Screen,2_3_1_0_1_7,2022-05-02T10:59:06.977Z,,,,,,,,,,,,,,,,,40,,,,,,,,,,,,,,245.5,,response,,,,9,E,,,,,,Space,keypress(Space),,,,silence,,,,------ -- ------- ---- ---- ---- - lemonade ----- --- --<br>----- ----- ------ -- ---- -- --- - ---- -- - ----- -----<br>------ ---- ------ ---- - -------- ------- -- --- --------<br>-------- ----------- ---- ------ ---- ------ ---- --- ---<br>-------- --- -----,305193,305191,304945.44,304946,304945.5,305193.84,,7,lemonade
screen,html.Screen,2_3_1_0_1_8,2022-05-02T10:59:07.268Z,,,,,,,,,,,,,,,,,40,,,,,,,,,,,,,,278.1599999999744,,response,,,,9,E,,,,,,Space,keypress(Space),,,,silence,,,,------ -- ------- ---- ---- ---- - -------- stand --- --<br>----- ----- ------ -- ---- -- --- - ---- -- - ----- -----<br>------ ---- ------ ---- - -------- ------- -- --- --------<br>-------- ----------- ---- ------ ---- ------ ---- --- ---<br>-------- --- -----,305486,305472,305193.76,305193,305193.84,305486.36,,8,stand
screen,html.Screen,2_3_1_0_1_9,2022-05-02T10:59:07.481Z,,,,,,,,,,,,,,,,,40,,,,,,,,,,,,,,204.64000000001397,,response,,,,9,E,,,,,,Space,keypress(Space),,,,silence,,,,------ -- ------- ---- ---- ---- - -------- ----- run --<br>----- ----- ------ -- ---- -- --- - ---- -- - ----- -----<br>------ ---- ------ ---- - -------- ------- -- --- --------<br>-------- ----------- ---- ------ ---- ------ ---- --- ---<br>-------- --- -----,305699,305691,305486.3,305486,305486.36,305698.54,,9,run
screen,html.Screen,2_3_1_0_1_10,2022-05-02T10:59:07.737Z,,,,,,,,,,,,,,,,,40,,,,,,,,,,,,,,242.46000000002095,,response,,,,9,E,,,,,,Space,keypress(Space),,,,silence,,,,------ -- ------- ---- ---- ---- - -------- ----- --- by<br>----- ----- ------ -- ---- -- --- - ---- -- - ----- -----<br>------ ---- ------ ---- - -------- ------- -- --- --------<br>-------- ----------- ---- ------ ---- ------ ---- --- ---<br>-------- --- -----,305954,305941,305698.42,305699,305698.54,305954.46,,10,by
screen,html.Screen,2_3_1_0_1_11,2022-05-02T10:59:08.011Z,,,,,,,,,,,,,,,,,40,,,,,,,,,,,,,,267.53999999997905,,response,,,,9,E,,,,,,Space,keypress(Space),,,,silence,,,,------ -- ------- ---- ---- ---- - -------- ----- --- --<br>three ----- ------ -- ---- -- --- - ---- -- - ----- -----<br>------ ---- ------ ---- - -------- ------- -- --- --------<br>-------- ----------- ---- ------ ---- ------ ---- --- ---<br>-------- --- -----,306228,306222,305954.38,305954,305954.46,306228.38,,11,three
screen,html.Screen,2_3_1_0_1_12,2022-05-02T10:59:08.248Z,,,,,,,,,,,,,,,,,40,,,,,,,,,,,,,,227.61999999999534,,response,,,,9,E,,,,,,Space,keypress(Space),,,,silence,,,,------ -- ------- ---- ---- ---- - -------- ----- --- --<br>----- girls ------ -- ---- -- --- - ---- -- - ----- -----<br>------ ---- ------ ---- - -------- ------- -- --- --------<br>-------- ----------- ---- ------ ---- ------ ---- --- ---<br>-------- --- -----,306465,306456,306228.32,306228,306228.38,306465.54,,12,girls
screen,html.Screen,2_3_1_0_1_13,2022-05-02T10:59:08.442Z,,,,,,,,,,,,,,,,,40,,,,,,,,,,,,,,178.46000000002095,,response,,,,9,E,,,,,,Space,keypress(Space),,,,silence,,,,------ -- ------- ---- ---- ---- - -------- ----- --- --<br>----- ----- trying -- ---- -- --- - ---- -- - ----- -----<br>------ ---- ------ ---- - -------- ------- -- --- --------<br>-------- ----------- ---- ------ ---- ------ ---- --- ---<br>-------- --- -----,306660,306644,306465.48,306465,306465.54,306659.44,,13,trying
screen,html.Screen,2_3_1_0_1_14,2022-05-02T10:59:08.634Z,,,,,,,,,,,,,,,,,40,,,,,,,,,,,,,,187.55999999999767,,response,,,,9,E,,,,,,Space,keypress(Space),,,,silence,,,,------ -- ------- ---- ---- ---- - -------- ----- --- --<br>----- ----- ------ to ---- -- --- - ---- -- - ----- -----<br>------ ---- ------ ---- - -------- ------- -- --- --------<br>-------- ----------- ---- ------ ---- ------ ---- --- ---<br>-------- --- -----,306851,306847,306659.36,306660,306659.44,306851.58,,14,to
screen,html.Screen,2_3_1_0_1_15,2022-05-02T10:59:08.832Z,,,,,,,,,,,,,,,,,40,,,,,,,,,,,,,,182.4199999999837,,response,,,,9,E,,,,,,Space,keypress(Space),,,,silence,,,,------ -- ------- ---- ---- ---- - -------- ----- --- --<br>----- ----- ------ -- save -- --- - ---- -- - ----- -----<br>------ ---- ------ ---- - -------- ------- -- --- --------<br>-------- ----------- ---- ------ ---- ------ ---- --- ---<br>-------- --- -----,307049,307034,306851.52,306851,306851.58,307049.26,,15,save
screen,html.Screen,2_3_1_0_1_16,2022-05-02T10:59:09.060Z,,,,,,,,,,,,,,,,,40,,,,,,,,,,,,,,219.7399999999907,,response,,,,9,E,,,,,,Space,keypress(Space),,,,silence,,,,------ -- ------- ---- ---- ---- - -------- ----- --- --<br>----- ----- ------ -- ---- up --- - ---- -- - ----- -----<br>------ ---- ------ ---- - -------- ------- -- --- --------<br>-------- ----------- ---- ------ ---- ------ ---- --- ---<br>-------- --- -----,307278,307269,307049.2,307049,307049.26,307277.5,,16,up
screen,html.Screen,2_3_1_0_1_17,2022-05-02T10:59:09.263Z,,,,,,,,,,,,,,,,,40,,,,,,,,,,,,,,194.5,,response,,,,9,E,,,,,,Space,keypress(Space),,,,silence,,,,------ -- ------- ---- ---- ---- - -------- ----- --- --<br>----- ----- ------ -- ---- -- for - ---- -- - ----- -----<br>------ ---- ------ ---- - -------- ------- -- --- --------<br>-------- ----------- ---- ------ ---- ------ ---- --- ---<br>-------- --- -----,307480,307472,307277.44,307278,307277.5,307480.34,,17,for
screen,html.Screen,2_3_1_0_1_18,2022-05-02T10:59:09.436Z,,,,,,,,,,,,,,,,,40,,,,,,,,,,,,,,163.6599999999744,,response,,,,9,E,,,,,,Space,keypress(Space),,,,silence,,,,------ -- ------- ---- ---- ---- - -------- ----- --- --<br>----- ----- ------ -- ---- -- --- a ---- -- - ----- -----<br>------ ---- ------ ---- - -------- ------- -- --- --------<br>-------- ----------- ---- ------ ---- ------ ---- --- ---<br>-------- --- -----,307653,307644,307480.28,307480,307480.34,307653.32,,18,a
screen,html.Screen,2_3_1_0_1_19,2022-05-02T10:59:09.596Z,,,,,,,,,,,,,,,,,40,,,,,,,,,,,,,,146.67999999999302,,response,,,,9,E,,,,,,Space,keypress(Space),,,,silence,,,,------ -- ------- ---- ---- ---- - -------- ----- --- --<br>----- ----- ------ -- ---- -- --- - trip -- - ----- -----<br>------ ---- ------ ---- - -------- ------- -- --- --------<br>-------- ----------- ---- ------ ---- ------ ---- --- ---<br>-------- --- -----,307815,307800,307653.26,307654,307653.32,307814.3,,19,trip
screen,html.Screen,2_3_1_0_1_20,2022-05-02T10:59:09.758Z,,,,,,,,,,,,,,,,,40,,,,,,,,,,,,,,157.70000000001164,,response,,,,9,E,,,,,,Space,keypress(Space),,,,silence,,,,------ -- ------- ---- ---- ---- - -------- ----- --- --<br>----- ----- ------ -- ---- -- --- - ---- to - ----- -----<br>------ ---- ------ ---- - -------- ------- -- --- --------<br>-------- ----------- ---- ------ ---- ------ ---- --- ---<br>-------- --- -----,307975,307972,307814.24,307815,307814.3,307975.36,,20,to
screen,html.Screen,2_3_1_0_1_21,2022-05-02T10:59:09.942Z,,,,,,,,,,,,,,,,,40,,,,,,,,,,,,,,168.64000000001397,,response,,,,9,E,,,,,,Space,keypress(Space),,,,silence,,,,------ -- ------- ---- ---- ---- - -------- ----- --- --<br>----- ----- ------ -- ---- -- --- - ---- -- a ----- -----<br>------ ---- ------ ---- - -------- ------- -- --- --------<br>-------- ----------- ---- ------ ---- ------ ---- --- ---<br>-------- --- -----,308160,308144,307975.26,307975,307975.36,308160.32,,21,a
screen,html.Screen,2_3_1_0_1_22,2022-05-02T10:59:10.132Z,,,,,,,,,,,,,,,,,40,,,,,,,,,,,,,,186.67999999999302,,response,,,,9,E,,,,,,Space,keypress(Space),,,,silence,,,,------ -- ------- ---- ---- ---- - -------- ----- --- --<br>----- ----- ------ -- ---- -- --- - ---- -- - water -----<br>------ ---- ------ ---- - -------- ------- -- --- --------<br>-------- ----------- ---- ------ ---- ------ ---- --- ---<br>-------- --- -----,308349,308347,308160.26,308160,308160.32,308349.36,,22,water
screen,html.Screen,2_3_1_0_1_23,2022-05-02T10:59:10.309Z,,,,,,,,,,,,,,,,,40,,,,,,,,,,,,,,169.64000000001397,,response,,,,9,E,,,,,,Space,keypress(Space),,,,silence,,,,"------ -- ------- ---- ---- ---- - -------- ----- --- --<br>----- ----- ------ -- ---- -- --- - ---- -- - ----- park,<br>------ ---- ------ ---- - -------- ------- -- --- --------<br>-------- ----------- ---- ------ ---- ------ ---- --- ---<br>-------- --- -----",308526,308519,308349.3,308349,308349.36,308526.44,,23,"park,"
screen,html.Screen,2_3_1_0_1_24,2022-05-02T10:59:10.499Z,,,,,,,,,,,,,,,,,40,,,,,,,,,,,,,,179.55999999999767,,response,,,,9,E,,,,,,Space,keypress(Space),,,,silence,,,,------ -- ------- ---- ---- ---- - -------- ----- --- --<br>----- ----- ------ -- ---- -- --- - ---- -- - ----- -----<br>saying ---- ------ ---- - -------- ------- -- --- --------<br>-------- ----------- ---- ------ ---- ------ ---- --- ---<br>-------- --- -----,308716,308706,308526.36,308526,308526.44,308716.26,,24,saying
screen,html.Screen,2_3_1_0_1_25,2022-05-02T10:59:10.727Z,,,,,,,,,,,,,,,,,40,,,,,,,,,,,,,,224.7399999999907,,response,,,,9,E,,,,,,Space,keypress(Space),,,,silence,,,,------ -- ------- ---- ---- ---- - -------- ----- --- --<br>----- ----- ------ -- ---- -- --- - ---- -- - ----- -----<br>------ they ------ ---- - -------- ------- -- --- --------<br>-------- ----------- ---- ------ ---- ------ ---- --- ---<br>-------- --- -----,308944,308941,308716.2,308716,308716.26,308944.48,,25,they
screen,html.Screen,2_3_1_0_1_26,2022-05-02T10:59:11.560Z,,,,,,,,,,,,,,,,,40,,,,,,,,,,,,,,824.5200000000186,,response,,,,9,E,,,,,,Space,keypress(Space),,,,silence,,,,------ -- ------- ---- ---- ---- - -------- ----- --- --<br>----- ----- ------ -- ---- -- --- - ---- -- - ----- -----<br>------ ---- didn't ---- - -------- ------- -- --- --------<br>-------- ----------- ---- ------ ---- ------ ---- --- ---<br>-------- --- -----,309779,309769,308944.42,308944,308944.48,309778.24,,26,didn't
screen,html.Screen,2_3_1_0_1_27,2022-05-02T10:59:11.752Z,,,,,,,,,,,,,,,,,40,,,,,,,,,,,,,,177.7600000000093,,response,,,,9,E,,,,,,Space,keypress(Space),,,,silence,,,,------ -- ------- ---- ---- ---- - -------- ----- --- --<br>----- ----- ------ -- ---- -- --- - ---- -- - ----- -----<br>------ ---- ------ have - -------- ------- -- --- --------<br>-------- ----------- ---- ------ ---- ------ ---- --- ---<br>-------- --- -----,309969,309956,309778.18,309779,309778.24,309969.42,,27,have
screen,html.Screen,2_3_1_0_1_28,2022-05-02T10:59:12.014Z,,,,,,,,,,,,,,,,,40,,,,,,,,,,,,,,252.5800000000163,,response,,,,9,E,,,,,,Space,keypress(Space),,,,silence,,,,------ -- ------- ---- ---- ---- - -------- ----- --- --<br>----- ----- ------ -- ---- -- --- - ---- -- - ----- -----<br>------ ---- ------ ---- a -------- ------- -- --- --------<br>-------- ----------- ---- ------ ---- ------ ---- --- ---<br>-------- --- -----,310231,310222,309969.34,309969,309969.42,310231.26,,28,a
screen,html.Screen,2_3_1_0_1_29,2022-05-02T10:59:12.241Z,,,,,,,,,,,,,,,,,40,,,,,,,,,,,,,,224.7399999999907,,response,,,,9,E,,,,,,Space,keypress(Space),,,,silence,,,,------ -- ------- ---- ---- ---- - -------- ----- --- --<br>----- ----- ------ -- ---- -- --- - ---- -- - ----- -----<br>------ ---- ------ ---- - business ------- -- --- --------<br>-------- ----------- ---- ------ ---- ------ ---- --- ---<br>-------- --- -----,310458,310456,310231.2,310231,310231.26,310458.34,,29,business
screen,html.Screen,2_3_1_0_1_30,2022-05-02T10:59:12.454Z,,,,,,,,,,,,,,,,,40,,,,,,,,,,,,,,200.6599999999744,,response,,,,9,E,,,,,,Space,keypress(Space),,,,silence,,,,------ -- ------- ---- ---- ---- - -------- ----- --- --<br>----- ----- ------ -- ---- -- --- - ---- -- - ----- -----<br>------ ---- ------ ---- - -------- license -- --- --------<br>-------- ----------- ---- ------ ---- ------ ---- --- ---<br>-------- --- -----,310671,310659,310458.26,310458,310458.34,310671.36,,30,license
screen,html.Screen,2_3_1_0_1_31,2022-05-02T10:59:12.669Z,,,,,,,,,,,,,,,,,40,,,,,,,,,,,,,,206.64000000001397,,response,,,,9,E,,,,,,Space,keypress(Space),,,,silence,,,,------ -- ------- ---- ---- ---- - -------- ----- --- --<br>----- ----- ------ -- ---- -- --- - ---- -- - ----- -----<br>------ ---- ------ ---- - -------- ------- or --- --------<br>-------- ----------- ---- ------ ---- ------ ---- --- ---<br>-------- --- -----,310886,310878,310671.28,310672,310671.36,310886.32,,31,or
screen,html.Screen,2_3_1_0_1_32,2022-05-02T10:59:12.927Z,,,,,,,,,,,,,,,,,40,,,,,,,,,,,,,,241.67999999999302,,response,,,,9,E,,,,,,Space,keypress(Space),,,,silence,,,,------ -- ------- ---- ---- ---- - -------- ----- --- --<br>----- ----- ------ -- ---- -- --- - ---- -- - ----- -----<br>------ ---- ------ ---- - -------- ------- -- the --------<br>-------- ----------- ---- ------ ---- ------ ---- --- ---<br>-------- --- -----,311145,311128,310886.26,310886,310886.32,311144.44,,32,the
screen,html.Screen,2_3_1_0_1_33,2022-05-02T10:59:13.164Z,,,,,,,,,,,,,,,,,40,,,,,,,,,,,,,,234.55999999999767,,response,,,,9,E,,,,,,Space,keypress(Space),,,,silence,,,,------ -- ------- ---- ---- ---- - -------- ----- --- --<br>----- ----- ------ -- ---- -- --- - ---- -- - ----- -----<br>------ ---- ------ ---- - -------- ------- -- --- required<br>-------- ----------- ---- ------ ---- ------ ---- --- ---<br>-------- --- -----,311381,311379,311144.38,311145,311144.44,311381.4,,33,required
screen,html.Screen,2_3_1_0_1_34,2022-05-02T10:59:13.393Z,,,,,,,,,,,,,,,,,40,,,,,,,,,,,,,,215.59999999997672,,response,,,,9,E,,,,,,Space,keypress(Space),,,,silence,,,,------ -- ------- ---- ---- ---- - -------- ----- --- --<br>----- ----- ------ -- ---- -- --- - ---- -- - ----- -----<br>------ ---- ------ ---- - -------- ------- -- --- --------<br>permits. ----------- ---- ------ ---- ------ ---- --- ---<br>-------- --- -----,311610,311597,311381.34,311381,311381.4,311610.34,,34,permits.
screen,html.Screen,2_3_1_0_1_35,2022-05-02T10:59:13.652Z,,,,,,,,,,,,,,,,,40,,,,,,,,,,,,,,252.6599999999744,,response,,,,9,E,,,,,,Space,keypress(Space),,,,silence,,,,------ -- ------- ---- ---- ---- - -------- ----- --- --<br>----- ----- ------ -- ---- -- --- - ---- -- - ----- -----<br>------ ---- ------ ---- - -------- ------- -- --- --------<br>-------- Morningstar ---- ------ ---- ------ ---- --- ---<br>-------- --- -----,311869,311863,311610.28,311610,311610.34,311869.32,,35,Morningstar
screen,html.Screen,2_3_1_0_1_36,2022-05-02T10:59:14.501Z,,,,,,,,,,,,,,,,,40,,,,,,,,,,,,,,836.679999999993,,response,,,,9,E,,,,,,Space,keypress(Space),,,,silence,,,,------ -- ------- ---- ---- ---- - -------- ----- --- --<br>----- ----- ------ -- ---- -- --- - ---- -- - ----- -----<br>------ ---- ------ ---- - -------- ------- -- --- --------<br>-------- ----------- says ------ ---- ------ ---- --- ---<br>-------- --- -----,312718,312706,311869.26,311869,311869.32,312719.8,,36,says
screen,html.Screen,2_3_1_0_1_37,2022-05-02T10:59:14.713Z,,,,,,,,,,,,,,,,,40,,,,,,,,,,,,,,206.20000000001164,,response,,,,9,E,,,,,,Space,keypress(Space),,,,silence,,,,------ -- ------- ---- ---- ---- - -------- ----- --- --<br>----- ----- ------ -- ---- -- --- - ---- -- - ----- -----<br>------ ---- ------ ---- - -------- ------- -- --- --------<br>-------- ----------- ---- police ---- ------ ---- --- ---<br>-------- --- -----,312930,312926,312719.64,312719,312719.8,312930.6,,37,police
screen,html.Screen,2_3_1_0_1_38,2022-05-02T10:59:15.000Z,,,,,,,,,,,,,,,,,40,,,,,,,,,,,,,,275.4000000000233,,response,,,,9,E,,,,,,Space,keypress(Space),,,,silence,,,,------ -- ------- ---- ---- ---- - -------- ----- --- --<br>----- ----- ------ -- ---- -- --- - ---- -- - ----- -----<br>------ ---- ------ ---- - -------- ------- -- --- --------<br>-------- ----------- ---- ------ also ------ ---- --- ---<br>-------- --- -----,313217,313206,312930.54,312930,312930.6,313217.48,,38,also
screen,html.Screen,2_3_1_0_1_39,2022-05-02T10:59:15.213Z,,,,,,,,,,,,,,,,,40,,,,,,,,,,,,,,207.52000000001863,,response,,,,9,E,,,,,,Space,keypress(Space),,,,silence,,,,------ -- ------- ---- ---- ---- - -------- ----- --- --<br>----- ----- ------ -- ---- -- --- - ---- -- - ----- -----<br>------ ---- ------ ---- - -------- ------- -- --- --------<br>-------- ----------- ---- ------ ---- didn't ---- --- ---<br>-------- --- -----,313429,313425,313217.42,313217,313217.48,313429.86,,39,didn't
screen,html.Screen,2_3_1_0_1_40,2022-05-02T10:59:15.406Z,,,,,,,,,,,,,,,,,40,,,,,,,,,,,,,,184.14000000001397,,response,,,,9,E,,,,,,Space,keypress(Space),,,,silence,,,,------ -- ------- ---- ---- ---- - -------- ----- --- --<br>----- ----- ------ -- ---- -- --- - ---- -- - ----- -----<br>------ ---- ------ ---- - -------- ------- -- --- --------<br>-------- ----------- ---- ------ ---- ------ know --- ---<br>-------- --- -----,313623,313614,313429.8,313430,313429.86,313623.54,,40,know
screen,html.Screen,2_3_1_0_1_41,2022-05-02T10:59:15.738Z,,,,,,,,,,,,,,,,,40,,,,,,,,,,,,,,317.46000000002095,,response,,,,9,E,,,,,,Space,keypress(Space),,,,silence,,,,------ -- ------- ---- ---- ---- - -------- ----- --- --<br>----- ----- ------ -- ---- -- --- - ---- -- - ----- -----<br>------ ---- ------ ---- - -------- ------- -- --- --------<br>-------- ----------- ---- ------ ---- ------ ---- how ---<br>-------- --- -----,313956,313941,313623.48,313623,313623.54,313955.62,,41,how
screen,html.Screen,2_3_1_0_1_42,2022-05-02T10:59:16.006Z,,,,,,,,,,,,,,,,,40,,,,,,,,,,,,,,250.38000000000466,,response,,,,9,E,,,,,,Space,keypress(Space),,,,silence,,,,------ -- ------- ---- ---- ---- - -------- ----- --- --<br>----- ----- ------ -- ---- -- --- - ---- -- - ----- -----<br>------ ---- ------ ---- - -------- ------- -- --- --------<br>-------- ----------- ---- ------ ---- ------ ---- --- the<br>-------- --- -----,314222,314206,313955.54,313956,313955.62,314222.46,,42,the
screen,html.Screen,2_3_1_0_1_43,2022-05-02T10:59:16.314Z,,,,,,,,,,,,,,,,,40,,,,,,,,,,,,,,296.53999999997905,,response,,,,9,E,,,,,,Space,keypress(Space),,,,silence,,,,------ -- ------- ---- ---- ---- - -------- ----- --- --<br>----- ----- ------ -- ---- -- --- - ---- -- - ----- -----<br>------ ---- ------ ---- - -------- ------- -- --- --------<br>-------- ----------- ---- ------ ---- ------ ---- --- ---<br>lemonade --- -----,314532,314519,314222.4,314222,314222.46,314531.66,,43,lemonade
screen,html.Screen,2_3_1_0_1_44,2022-05-02T10:59:16.562Z,,,,,,,,,,,,,,,,,40,,,,,,,,,,,,,,237.3400000000256,,response,,,,9,E,,,,,,Space,keypress(Space),,,,silence,,,,------ -- ------- ---- ---- ---- - -------- ----- --- --<br>----- ----- ------ -- ---- -- --- - ---- -- - ----- -----<br>------ ---- ------ ---- - -------- ------- -- --- --------<br>-------- ----------- ---- ------ ---- ------ ---- --- ---<br>-------- was -----,314780,314769,314531.58,314532,314531.66,314779.38,,44,was
screen,html.Screen,2_3_1_0_1_45,2022-05-02T10:59:16.894Z,,,,,,,,,,,,,,,,,40,,,,,,,,,,,,,,317.61999999999534,,response,,,,9,E,,,,,,Space,keypress(Space),,,,silence,,,,------ -- ------- ---- ---- ---- - -------- ----- --- --<br>----- ----- ------ -- ---- -- --- - ---- -- - ----- -----<br>------ ---- ------ ---- - -------- ------- -- --- --------<br>-------- ----------- ---- ------ ---- ------ ---- --- ---<br>-------- --- made.,315111,315097,314779.32,314780,314779.38,315112.06,,45,made.
Item 9,flow.Loop,2_3_1_0_1,2022-05-02T10:59:16.894Z,,,,,,,,,,,,,,,,,,,,,,,,,,,,,,,15753.73999999999,,completion,,,,,,,,,,,,,,,,,,,,,315111,315097,299336.32,299337,299343.26,315112.06,,,
Question 1,html.Screen,2_3_1_0_2,2022-05-02T10:59:19.962Z,,,,,,,,,,,,,,,,,,,,,,,,,,,,true,FALSE,,3062.9400000000023,,response,,,,9,E,,,,,,FALSE,click #choice-2,,,,silence,,,,,318179,318175,315112,315112,315112.06,318183.38,,,
Question 2,html.Screen,2_3_1_0_3,2022-05-02T10:59:23.028Z,,,,,,,,,,,,,,,,,,,,,,,,,,,,true,FALSE,,3054.6199999999953,,response,,,,9,E,,,,,,FALSE,click #choice-2,,,,silence,,,,,321245,321238,318178.16,318179,318183.38,321245.94,,,
Item 9,flow.Sequence,2_3_1_0,2022-05-02T10:59:23.029Z,,,,,,,,,,,,,,,,,,,,,,,,,,,,,,,28894.679999999993,,completion,,,,,,,,,,,,,,,,,,,,,321245,321238,292336.38,292337,292343.32,321245.94,,,
Holding screen,html.Screen,2_3_1_1_0,2022-05-02T10:59:30.022Z,,,,,,,,,,,,,,,,,,,,,,,,,,,,,,,6999.859999999986,,timeout,,,,,,,,,,,,,,,,,,,,,328239,328238.86,321244.82,321246,321245.94,328245.8,,,
screen,html.Screen,2_3_1_1_1_0,2022-05-02T10:59:37.022Z,,,,,,,,,,,,,,,,,19,,,,,,,,,,,,,,6999.940000000002,,timeout,,,,17,E,,,,,,,,,,,silence,,,,"Interestingly, --- -------- -------- ---------- ---- -------<br>-- ---------- -- --- ----- ------ ----- ---- --------- ----<br>------- ------ -------- -- ------ ---------- ------ ---<br>------ -- -- ---- -- ---------- -------- ------ ---- -------<br>---- --- --------- ------- ----- --------- ---- ----- --<br>------ -------- -- ------ -- ---- ------------",335239,335238.8,328238.86,328240,328245.8,335245.74,,0,"Interestingly,"
screen,html.Screen,2_3_1_1_1_1,2022-05-02T10:59:44.022Z,,,,,,,,,,,,,,,,,19,,,,,,,,,,,,,,6999.940000000002,,timeout,,,,17,E,,,,,,,,,,,silence,,,,-------------- the -------- -------- ---------- ---- -------<br>-- ---------- -- --- ----- ------ ----- ---- --------- ----<br>------- ------ -------- -- ------ ---------- ------ ---<br>------ -- -- ---- -- ---------- -------- ------ ---- -------<br>---- --- --------- ------- ----- --------- ---- ----- --<br>------ -------- -- ------ -- ---- ------------,342239,342238.74,335238.8,335239,335245.74,342245.68,,1,the
screen,html.Screen,2_3_1_1_1_2,2022-05-02T10:59:51.022Z,,,,,,,,,,,,,,,,,19,,,,,,,,,,,,,,6999.940000000002,,timeout,,,,17,E,,,,,,,,,,,silence,,,,-------------- --- heaviest -------- ---------- ---- -------<br>-- ---------- -- --- ----- ------ ----- ---- --------- ----<br>------- ------ -------- -- ------ ---------- ------ ---<br>------ -- -- ---- -- ---------- -------- ------ ---- -------<br>---- --- --------- ------- ----- --------- ---- ----- --<br>------ -------- -- ------ -- ---- ------------,349239,349238.68,342238.74,342239,342245.68,349245.62,,2,heaviest
screen,html.Screen,2_3_1_1_1_3,2022-05-02T10:59:58.021Z,,,,,,,,,,,,,,,,,19,,,,,,,,,,,,,,6999.960000000021,,timeout,,,,17,E,,,,,,,,,,,silence,,,,-------------- --- -------- isotopes ---------- ---- -------<br>-- ---------- -- --- ----- ------ ----- ---- --------- ----<br>------- ------ -------- -- ------ ---------- ------ ---<br>------ -- -- ---- -- ---------- -------- ------ ---- -------<br>---- --- --------- ------- ----- --------- ---- ----- --<br>------ -------- -- ------ -- ---- ------------,356239,356238.62,349238.68,349239,349245.62,356245.58,,3,isotopes
screen,html.Screen,2_3_1_1_1_4,2022-05-02T11:00:03.787Z,,,,,,,,,,,,,,,,,19,,,,,,,,,,,,,,5742.419999999984,,response,,,,17,E,,,,,,Space,keypress(Space),,,,silence,,,,-------------- --- -------- -------- physicists ---- -------<br>-- ---------- -- --- ----- ------ ----- ---- --------- ----<br>------- ------ -------- -- ------ ---------- ------ ---<br>------ -- -- ---- -- ---------- -------- ------ ---- -------<br>---- --- --------- ------- ----- --------- ---- ----- --<br>------ -------- -- ------ -- ---- ------------,362005,361988,356238.62,356239,356245.58,362004.44,,4,physicists
screen,html.Screen,2_3_1_1_1_5,2022-05-02T11:00:04.151Z,,,,,,,,,,,,,,,,,19,,,,,,,,,,,,,,358.5599999999977,,response,,,,17,E,,,,,,Space,keypress(Space),,,,silence,,,,-------------- --- -------- -------- ---------- have -------<br>-- ---------- -- --- ----- ------ ----- ---- --------- ----<br>------- ------ -------- -- ------ ---------- ------ ---<br>------ -- -- ---- -- ---------- -------- ------ ---- -------<br>---- --- --------- ------- ----- --------- ---- ----- --<br>------ -------- -- ------ -- ---- ------------,362370,362363,362004.38,362005,362004.44,362377.46,,5,have
screen,html.Screen,2_3_1_1_1_6,2022-05-02T11:00:04.510Z,,,,,,,,,,,,,,,,,19,,,,,,,,,,,,,,344.53999999997905,,response,,,,17,E,,,,,,Space,keypress(Space),,,,silence,,,,-------------- --- -------- -------- ---------- ---- managed<br>-- ---------- -- --- ----- ------ ----- ---- --------- ----<br>------- ------ -------- -- ------ ---------- ------ ---<br>------ -- -- ---- -- ---------- -------- ------ ---- -------<br>---- --- --------- ------- ----- --------- ---- ----- --<br>------ -------- -- ------ -- ---- ------------,362728,362722,362370.52,362370,362377.46,362731.62,,6,managed
screen,html.Screen,2_3_1_1_1_7,2022-05-02T11:00:04.912Z,,,,,,,,,,,,,,,,,19,,,,,,,,,,,,,,381.38000000000466,,response,,,,17,E,,,,,,Space,keypress(Space),,,,silence,,,,-------------- --- -------- -------- ---------- ---- -------<br>to ---------- -- --- ----- ------ ----- ---- --------- ----<br>------- ------ -------- -- ------ ---------- ------ ---<br>------ -- -- ---- -- ---------- -------- ------ ---- -------<br>---- --- --------- ------- ----- --------- ---- ----- --<br>------ -------- -- ------ -- ---- ------------,363130,363113,362724.68,362728,362731.62,363129.58,,7,to
screen,html.Screen,2_3_1_1_1_8,2022-05-02T11:00:05.179Z,,,,,,,,,,,,,,,,,19,,,,,,,,,,,,,,264.4199999999837,,response,,,,17,E,,,,,,Space,keypress(Space),,,,silence,,,,-------------- --- -------- -------- ---------- ---- -------<br>-- synthesize -- --- ----- ------ ----- ---- --------- ----<br>------- ------ -------- -- ------ ---------- ------ ---<br>------ -- -- ---- -- ---------- -------- ------ ---- -------<br>---- --- --------- ------- ----- --------- ---- ----- --<br>------ -------- -- ------ -- ---- ------------,363396,363394,363129.42,363130,363129.58,363396.26,,8,synthesize
screen,html.Screen,2_3_1_1_1_9,2022-05-02T11:00:05.692Z,,,,,,,,,,,,,,,,,19,,,,,,,,,,,,,,497.7399999999907,,response,,,,17,E,,,,,,Space,keypress(Space),,,,silence,,,,-------------- --- -------- -------- ---------- ---- -------<br>-- ---------- so --- ----- ------ ----- ---- --------- ----<br>------- ------ -------- -- ------ ---------- ------ ---<br>------ -- -- ---- -- ---------- -------- ------ ---- -------<br>---- --- --------- ------- ----- --------- ---- ----- --<br>------ -------- -- ------ -- ---- ------------,363910,363894,363396.2,363397,363396.26,363909.36,,9,so
screen,html.Screen,2_3_1_1_1_10,2022-05-02T11:00:05.969Z,,,,,,,,,,,,,,,,,19,,,,,,,,,,,,,,265.64000000001397,,response,,,,17,E,,,,,,Space,keypress(Space),,,,silence,,,,-------------- --- -------- -------- ---------- ---- -------<br>-- ---------- -- far ----- ------ ----- ---- --------- ----<br>------- ------ -------- -- ------ ---------- ------ ---<br>------ -- -- ---- -- ---------- -------- ------ ---- -------<br>---- --- --------- ------- ----- --------- ---- ----- --<br>------ -------- -- ------ -- ---- ------------,364187,364175,363909.3,363910,363909.36,364187.3,,10,far
