sender,sender_type,sender_id,timestamp,meta,,Blues,Classical,Country,Dance,Electronic,Folk,Gospel,Hip-Hop,Jazz,Latin,Musical/Film,New-age,Pop,Prolific_id,Provo_ID,R&B,Rap,Reggae,Religious,Rock,Soul,Swing,Traditional,age,artist_name,correct,correctResponse,distraction,duration,education,ended_on,familiarity,gender,headphone_check_performance,item,list,music_frequency,offensiveness,pleasantness,position_correct,preference,response,response_action,snippet_file,song_name,song_rating,sound,stimulus_1,stimulus_2,stimulus_3,text,time_commit,time_end,time_render,time_run,time_show,time_switch,url,word,word_ID
Prolific ID,html.Form,0,2022-05-02T13:48:05.221Z,"{""labjs_version"":""20.2.2"",""labjs_build"":{""flavor"":""production"",""commit"":""a25486e0c714a0ae2ce03ff94b7bb6896854dcfa""},""location"":""https://run.pavlovia.org/mvasilev/prolific3_music_g/"",""userAgent"":""Mozilla/5.0 (Windows NT 10.0; Win64; x64) AppleWebKit/537.36 (KHTML, like Gecko) Chrome/101.0.4951.41 Safari/537.36 Edg/101.0.1210.32"",""platform"":""Win32"",""language"":""en-GB"",""locale"":""en-GB"",""timeZone"":""Europe/London"",""timezoneOffset"":-60,""screen_width"":1366,""screen_height"":768,""scroll_width"":1366,""scroll_height"":601,""window_innerWidth"":1366,""window_innerHeight"":649,""devicePixelRatio"":1}",,,,,,,,,,,,,,,594fc4afd3a26200014dce0e,,,,,,,,,,,,,,,10225.84300000298,,form submission,,,,,,,,,,,,,,,,,,,,,40422,40420.20000000298,29444.497,30113.70000000298,30194.357,40544.01,{},,
Introduction,html.Screen,1_0,2022-05-02T13:48:11.304Z,,,,,,,,,,,,,,,,,,,,,,,,,,,,,,,5953.590000001488,,response,,,,,,,,,,,continue,click button,,,,,,,,,46505.300000000745,46497.60000000149,40395.18,40423.20000000298,40544.01,46527.024,,,
Volume calibration,html.Screen,1_1,2022-05-02T13:48:45.196Z,,,,,,,,,,,,,,,,,,,,,,,,,,,,,,,33859.77600000075,,response,,,,,,,,,,,continue,click button,,,,,,,,,80402.20000000298,80386.80000000075,46499.024,46505.800000000745,46527.024,80408.929,,,
Task instructions,html.Screen,1_2,2022-05-02T13:48:53.270Z,,,,,,,,,,,,,,,,,,,,,,,,,,,,,,,8065.371000000741,,response,,,,,,,,,,,continue,click button,,,,,,,,,88476.20000000298,88474.30000000075,80375.645,80402.80000000075,80408.929,88491.875,,,
Sounds,html.Screen,1_3_0_0,2022-05-02T13:48:57.531Z,,,,,,,,,,,,,,,,,,,,,,,,,,,,,,,4250.118000000002,,timeout,,,,,,,,,2,,,,,,,,O,S,I,,92736.60000000149,92725.263,88475.22,88476.80000000075,88491.875,92741.993,,,
Judgement,html.Screen,1_3_0_1,2022-05-02T13:48:58.480Z,,,,,,,,,,,,,,,,,,,,,,,,,,,,true,2,,941.0069999999978,,response,,,,,,,,,2,,2,click #choice-2,,,,,O,S,I,,93685.90000000224,93683,92725.263,92737.70000000298,92741.993,93691.967,,,
Trial,flow.Sequence,1_3_0,2022-05-02T13:48:58.481Z,,,,,,,,,,,,,,,,,,,,,,,,,,,,,,,5191.125,,completion,,,,,,,,,2,,,,,,,,O,S,I,,93687.10000000149,93683,88475.22,88476.70000000298,88491.875,93691.967,,,
Sounds,html.Screen,1_3_1_0,2022-05-02T13:49:02.722Z,,,,,,,,,,,,,,,,,,,,,,,,,,,,,,,4249.562999999995,,timeout,,,,,,,,,1,,,,,,,,S,I,O,,97927.5,97924.856,93675.766,93688.30000000075,93691.967,97941.53,,,
Judgement,html.Screen,1_3_1_1,2022-05-02T13:49:03.465Z,,,,,,,,,,,,,,,,,,,,,,,,,,,,true,1,,725.5700000014913,,response,,,,,,,,,1,,1,click #choice-1,,,,,S,I,O,,98670.5,98667.10000000149,97924.856,97928.10000000149,97941.53,98674.828,,,
Trial,flow.Sequence,1_3_1,2022-05-02T13:49:03.466Z,,,,,,,,,,,,,,,,,,,,,,,,,,,,,,,4975.133000001486,,completion,,,,,,,,,1,,,,,,,,S,I,O,,98671.5,98667.10000000149,93675.766,93687.5,93691.967,98674.828,,,
Sounds,html.Screen,1_3_2_0,2022-05-02T13:49:07.707Z,,,,,,,,,,,,,,,,,,,,,,,,,,,,,,,4249.932000000001,,timeout,,,,,,,,,3,,,,,,,,O,I,S,,102913,102908.246,98658.179,98672.30000000075,98674.828,102924.76,,,
Judgement,html.Screen,1_3_2_1,2022-05-02T13:49:08.249Z,,,,,,,,,,,,,,,,,,,,,,,,,,,,true,3,,526.5400000007503,,response,,,,,,,,,3,,3,click #choice-3,,,,,O,I,S,,103454.60000000149,103451.30000000075,102908.246,102914.60000000149,102924.76,103458.103,,,
Trial,flow.Sequence,1_3_2,2022-05-02T13:49:08.250Z,,,,,,,,,,,,,,,,,,,,,,,,,,,,,,,4776.472000000751,,completion,,,,,,,,,3,,,,,,,,O,I,S,,103455.60000000149,103451.30000000075,98658.179,98672,98674.828,103458.103,,,
Sounds,html.Screen,1_3_3_0,2022-05-02T13:49:12.488Z,,,,,,,,,,,,,,,,,,,,,,,,,,,,,,,4249.8169999999955,,timeout,,,,,,,,,3,,,,,,,,I,O,S,,107693.90000000224,107691.634,103442.207,103456.30000000075,103458.103,107707.92,,,
Judgement,html.Screen,1_3_3_1,2022-05-02T13:49:13.121Z,,,,,,,,,,,,,,,,,,,,,,,,,,,,true,3,,615.8800000007468,,response,,,,,,,,,3,,3,click #choice-3,,,,,I,O,S,,108327.30000000075,108323.80000000075,107691.634,107694.40000000224,107707.92,108341.237,,,
Trial,flow.Sequence,1_3_3,2022-05-02T13:49:13.122Z,,,,,,,,,,,,,,,,,,,,,,,,,,,,,,,4865.697000000742,,completion,,,,,,,,,3,,,,,,,,I,O,S,,108328.10000000149,108323.80000000075,103442.207,103456.10000000149,103458.103,108341.237,,,
Sounds,html.Screen,1_3_4_0,2022-05-02T13:49:17.375Z,,,,,,,,,,,,,,,,,,,,,,,,,,,,,,,4249.705000000002,,timeout,,,,,,,,,1,,,,,,,,S,O,I,,112576.5,112574.447,108324.893,108329.5,108341.237,112590.942,,,
Judgement,html.Screen,1_3_4_1,2022-05-02T13:49:17.950Z,,,,,,,,,,,,,,,,,,,,,,,,,,,,true,1,,557.3580000007496,,response,,,,,,,,,1,,1,click #choice-1,,,,,S,O,I,,113151.30000000075,113148.30000000075,112574.447,112577,112590.942,113157.551,,,
Trial,flow.Sequence,1_3_4,2022-05-02T13:49:17.951Z,,,,,,,,,,,,,,,,,,,,,,,,,,,,,,,4807.063000000751,,completion,,,,,,,,,1,,,,,,,,S,O,I,,113152.10000000149,113148.30000000075,108324.893,108329,108341.237,113157.551,,,
Sounds,html.Screen,1_3_5_0,2022-05-02T13:49:22.194Z,,,,,,,,,,,,,,,,,,,,,,,,,,,,,,,4249.837999999989,,timeout,,,,,,,,,2,,,,,,,,I,S,O,,117395,117390.784,113141.331,113152.60000000149,113157.551,117407.389,,,
Judgement,html.Screen,1_3_5_1,2022-05-02T13:49:22.855Z,,,,,,,,,,,,,,,,,,,,,,,,,,,,true,2,,644.8110000029847,,response,,,,,,,,,2,,2,click #choice-2,,,,,I,S,O,,118055.80000000075,118052.20000000298,117390.784,117396.20000000298,117407.389,118074.152,,,
Trial,flow.Sequence,1_3_5,2022-05-02T13:49:22.855Z,,,,,,,,,,,,,,,,,,,,,,,,,,,,,,,4894.6490000029735,,completion,,,,,,,,,2,,,,,,,,I,S,O,,118056.60000000149,118052.20000000298,113141.331,113152.40000000224,113157.551,118074.152,,,
Task,flow.Loop,1_3,2022-05-02T13:49:22.870Z,,,,,,,,,,,,,,,,,,,,,,,,,,,,,,,29560.32500000298,,completion,,,1,,,,,,,,,,,,,,,,,,118071.20000000298,118052.20000000298,88475.22,88476.60000000149,88491.875,118074.152,,,
Trap,html.Screen,1_4,2022-05-02T13:49:22.874Z,,,,,,,,,,,,,,,,,,,,,,,,,,,,,,,NaN,,skipped,,,,,,,,,,,,,,,,,,,,,118075.70000000298,118052.20000000298,,118074.5,,118074.152,,,
Thanks,html.Screen,1_5,2022-05-02T13:49:36.431Z,,,,,,,,,,,,,,,,,,,,,,,,,,,,,,,13554.347999999998,,response,,,,,,,,,,,continue,click button,,,,,,,,,131632,131628.5,118040.733,118076.20000000298,118074.152,136606.747,,,
Headphone screening,flow.Sequence,1,2022-05-02T13:49:36.431Z,,,,,,,,,,,,,,,,,,,,,,,,,,,,,,,91084.48999999999,,completion,,,,,,,,,,,,,,,,,,,,,131632.6000000015,131628.5,40395.18,40423,40544.01,136606.747,,,
Instructions,html.Page,2_0,2022-05-02T13:50:08.602Z,,,,,,,,,,,,,,,,,,,,,,,,,,,,,,,27195.353000001487,,form submission,,,,,,,,,,,,,,,,,,,,,163803.40000000224,163802.1000000015,136523.275,136577.90000000224,136606.747,163822.164,,,
Holding screen,html.Screen,2_1_0_0,2022-05-02T13:50:18.608Z,,,,,,,,,,,,,,,,,,,,,,,,,,,,,,,10216.303000000014,,timeout,,,,,,,,,,,,,,,,,,,,,173809,173805.386,163789.374,163804.30000000075,163822.164,174038.467,,,
screen,html.Screen,2_1_0_1_0,2022-05-02T13:50:21.590Z,,,,,,,,,,,,,,,,,53,,,,,,,,,,,,,,2733.433000002231,,response,,,,99,,,,,,,Space,keypress(Space),,,,,,,,When -- ----- -- ------ - ------- --- ----------<br>------------- ------ ------ ---- ---- ------- ----- -- ----<br>-------- ------- -- ---------- --- - --- ----- ----- ----<br>---- --- --- ----- --- ---- ---- ------- ----- ---- -------<br>--- --- -- ----- -- --- ---- -- --- ---- -- ------ ------<br>--- ----- -- ----,176791.1000000015,176771.90000000224,173805.386,173811,174038.467,176805.525,,0,When
screen,html.Screen,2_1_0_1_1,2022-05-02T13:50:21.969Z,,,,,,,,,,,,,,,,,53,,,,,,,,,,,,,,360.7750000007509,,response,,,,99,,,,,,,Space,keypress(Space),,,,,,,,---- it ----- -- ------ - ------- --- ----------<br>------------- ------ ------ ---- ---- ------- ----- -- ----<br>-------- ------- -- ---------- --- - --- ----- ----- ----<br>---- --- --- ----- --- ---- ---- ------- ----- ---- -------<br>--- --- -- ----- -- --- ---- -- --- ---- -- ------ ------<br>--- ----- -- ----,177170,177166.30000000075,176791.562,176792.6000000015,176805.525,177188.375,,1,it
screen,html.Screen,2_1_0_1_2,2022-05-02T13:50:22.443Z,,,,,,,,,,,,,,,,,53,,,,,,,,,,,,,,451.42500000074506,,response,,,,99,,,,,,,Space,keypress(Space),,,,,,,,---- -- comes -- ------ - ------- --- ----------<br>------------- ------ ------ ---- ---- ------- ----- -- ----<br>-------- ------- -- ---------- --- - --- ----- ----- ----<br>---- --- --- ----- --- ---- ---- ------- ----- ---- -------<br>--- --- -- ----- -- --- ---- -- --- ---- -- ------ ------<br>--- ----- -- ----,177643.80000000075,177639.80000000075,177172.626,177171.5,177188.375,177655.475,,2,comes
screen,html.Screen,2_1_0_1_3,2022-05-02T13:50:22.811Z,,,,,,,,,,,,,,,,,53,,,,,,,,,,,,,,352.7250000029744,,response,,,,99,,,,,,,Space,keypress(Space),,,,,,,,---- -- ----- to ------ - ------- --- ----------<br>------------- ------ ------ ---- ---- ------- ----- -- ----<br>-------- ------- -- ---------- --- - --- ----- ----- ----<br>---- --- --- ----- --- ---- ---- ------- ----- ---- -------<br>--- --- -- ----- -- --- ---- -- --- ---- -- ------ ------<br>--- ----- -- ----,178011.40000000224,178008.20000000298,177639.051,177644.90000000224,177655.475,178021.993,,3,to
screen,html.Screen,2_1_0_1_4,2022-05-02T13:50:23.156Z,,,,,,,,,,,,,,,,,53,,,,,,,,,,,,,,331.4070000022475,,response,,,,99,,,,,,,Space,keypress(Space),,,,,,,,---- -- ----- -- having - ------- --- ----------<br>------------- ------ ------ ---- ---- ------- ----- -- ----<br>-------- ------- -- ---------- --- - --- ----- ----- ----<br>---- --- --- ----- --- ---- ---- ------- ----- ---- -------<br>--- --- -- ----- -- --- ---- -- --- ---- -- ------ ------<br>--- ----- -- ----,178356.90000000224,178353.40000000224,178005.72,178012.6000000015,178021.993,178371.676,,4,having
screen,html.Screen,2_1_0_1_5,2022-05-02T13:50:23.518Z,,,,,,,,,,,,,,,,,53,,,,,,,,,,,,,,344.42400000148336,,response,,,,99,,,,,,,Space,keypress(Space),,,,,,,,---- -- ----- -- ------ a ------- --- ----------<br>------------- ------ ------ ---- ---- ------- ----- -- ----<br>-------- ------- -- ---------- --- - --- ----- ----- ----<br>---- --- --- ----- --- ---- ---- ------- ----- ---- -------<br>--- --- -- ----- -- --- ---- -- --- ---- -- ------ ------<br>--- ----- -- ----,178719.30000000075,178716.1000000015,178355.474,178358.1000000015,178371.676,178738.692,,5,a
screen,html.Screen,2_1_0_1_6,2022-05-02T13:50:23.956Z,,,,,,,,,,,,,,,,,53,,,,,,,,,,,,,,415.10800000073505,,response,,,,99,,,,,,,Space,keypress(Space),,,,,,,,---- -- ----- -- ------ - lasting --- ----------<br>------------- ------ ------ ---- ---- ------- ----- -- ----<br>-------- ------- -- ---------- --- - --- ----- ----- ----<br>---- --- --- ----- --- ---- ---- ------- ----- ---- -------<br>--- --- -- ----- -- --- ---- -- --- ---- -- ------ ------<br>--- ----- -- ----,179157.20000000298,179153.80000000075,178722.313,178720.6000000015,178738.692,179171.937,,6,lasting
screen,html.Screen,2_1_0_1_7,2022-05-02T13:50:24.352Z,,,,,,,,,,,,,,,,,53,,,,,,,,,,,,,,377.56299999999464,,response,,,,99,,,,,,,Space,keypress(Space),,,,,,,,---- -- ----- -- ------ - ------- and ----------<br>------------- ------ ------ ---- ---- ------- ----- -- ----<br>-------- ------- -- ---------- --- - --- ----- ----- ----<br>---- --- --- ----- --- ---- ---- ------- ----- ---- -------<br>--- --- -- ----- -- --- ---- -- --- ---- -- ------ ------<br>--- ----- -- ----,179552.80000000075,179549.5,179155.349,179158.40000000224,179171.937,179571.567,,7,and
screen,html.Screen,2_1_0_1_8,2022-05-02T13:50:24.951Z,,,,,,,,,,,,,,,,,53,,,,,,,,,,,,,,577.233000000735,,response,,,,99,,,,,,,Space,keypress(Space),,,,,,,,---- -- ----- -- ------ - ------- --- fulfilling<br>------------- ------ ------ ---- ---- ------- ----- -- ----<br>-------- ------- -- ---------- --- - --- ----- ----- ----<br>---- --- --- ----- --- ---- ---- ------- ----- ---- -------<br>--- --- -- ----- -- --- ---- -- --- ---- -- ------ ------<br>--- ----- -- ----,180152.1000000015,180148.80000000075,179555.505,179554.30000000075,179571.567,180171.55,,8,fulfilling
screen,html.Screen,2_1_0_1_9,2022-05-02T13:50:25.535Z,,,,,,,,,,,,,,,,,53,,,,,,,,,,,,,,560.4500000000116,,response,,,,99,,,,,,,Space,keypress(Space),,,,,,,,"---- -- ----- -- ------ - ------- --- ----------<br>relationship, ------ ------ ---- ---- ------- ----- -- ----<br>-------- ------- -- ---------- --- - --- ----- ----- ----<br>---- --- --- ----- --- ---- ---- ------- ----- ---- -------<br>--- --- -- ----- -- --- ---- -- --- ---- -- ------ ------<br>--- ----- -- ----",180735.80000000075,180732,180155.951,180153.40000000224,180171.55,180755.15,,9,"relationship,"
screen,html.Screen,2_1_0_1_10,2022-05-02T13:50:26.064Z,,,,,,,,,,,,,,,,,53,,,,,,,,,,,,,,504.55000000298605,,response,,,,99,,,,,,,Space,keypress(Space),,,,,,,,---- -- ----- -- ------ - ------- --- ----------<br>------------- common ------ ---- ---- ------- ----- -- ----<br>-------- ------- -- ---------- --- - --- ----- ----- ----<br>---- --- --- ----- --- ---- ---- ------- ----- ---- -------<br>--- --- -- ----- -- --- ---- -- --- ---- -- ------ ------<br>--- ----- -- ----,181264.40000000224,181259.70000000298,180738.867,180737,180755.15,181271.803,,10,common
screen,html.Screen,2_1_0_1_11,2022-05-02T13:50:26.898Z,,,,,,,,,,,,,,,,,53,,,,,,,,,,,,,,824.2970000014757,,response,,,,99,,,,,,,Space,keypress(Space),,,,,,,,---- -- ----- -- ------ - ------- --- ----------<br>------------- ------ wisdom ---- ---- ------- ----- -- ----<br>-------- ------- -- ---------- --- - --- ----- ----- ----<br>---- --- --- ----- --- ---- ---- ------- ----- ---- -------<br>--- --- -- ----- -- --- ---- -- --- ---- -- ------ ------<br>--- ----- -- ----,182099.30000000075,182096.1000000015,181255.898,181265.5,181271.803,182105.404,,11,wisdom
screen,html.Screen,2_1_0_1_12,2022-05-02T13:50:27.308Z,,,,,,,,,,,,,,,,,53,,,,,,,,,,,,,,399.69600000148057,,response,,,,99,,,,,,,Space,keypress(Space),,,,,,,,---- -- ----- -- ------ - ------- --- ----------<br>------------- ------ ------ says ---- ------- ----- -- ----<br>-------- ------- -- ---------- --- - --- ----- ----- ----<br>---- --- --- ----- --- ---- ---- ------- ----- ---- -------<br>--- --- -- ----- -- --- ---- -- --- ---- -- ------ ------<br>--- ----- -- ----,182508.5,182505.1000000015,182089.475,182100.30000000075,182105.404,182521.705,,12,says
screen,html.Screen,2_1_0_1_13,2022-05-02T13:50:27.833Z,,,,,,,,,,,,,,,,,53,,,,,,,,,,,,,,509.2950000000128,,response,,,,99,,,,,,,Space,keypress(Space),,,,,,,,---- -- ----- -- ------ - ------- --- ----------<br>------------- ------ ------ ---- that ------- ----- -- ----<br>-------- ------- -- ---------- --- - --- ----- ----- ----<br>---- --- --- ----- --- ---- ---- ------- ----- ---- -------<br>--- --- -- ----- -- --- ---- -- --- ---- -- ------ ------<br>--- ----- -- ----,183034.20000000298,183031,182505.436,182509.6000000015,182521.705,183071.521,,13,that
screen,html.Screen,2_1_0_1_14,2022-05-02T13:50:28.303Z,,,,,,,,,,,,,,,,,53,,,,,,,,,,,,,,428.87900000222726,,response,,,,99,,,,,,,Space,keypress(Space),,,,,,,,---- -- ----- -- ------ - ------- --- ----------<br>------------- ------ ------ ---- ---- feeling ----- -- ----<br>-------- ------- -- ---------- --- - --- ----- ----- ----<br>---- --- --- ----- --- ---- ---- ------- ----- ---- -------<br>--- --- -- ----- -- --- ---- -- --- ---- -- ------ ------<br>--- ----- -- ----,183503.5,183500.40000000224,183055.154,183035.40000000224,183071.521,183521.481,,14,feeling
screen,html.Screen,2_1_0_1_15,2022-05-02T13:50:28.772Z,,,,,,,,,,,,,,,,,53,,,,,,,,,,,,,,447.8190000007453,,response,,,,99,,,,,,,Space,keypress(Space),,,,,,,,---- -- ----- -- ------ - ------- --- ----------<br>------------- ------ ------ ---- ---- ------- close -- ----<br>-------- ------- -- ---------- --- - --- ----- ----- ----<br>---- --- --- ----- --- ---- ---- ------- ----- ---- -------<br>--- --- -- ----- -- --- ---- -- --- ---- -- ------ ------<br>--- ----- -- ----,183972.6000000015,183969.30000000075,183505.203,183504.6000000015,183521.481,183988.165,,15,close
screen,html.Screen,2_1_0_1_16,2022-05-02T13:50:29.216Z,,,,,,,,,,,,,,,,,53,,,,,,,,,,,,,,425.735000002227,,response,,,,99,,,,,,,Space,keypress(Space),,,,,,,,---- -- ----- -- ------ - ------- --- ----------<br>------------- ------ ------ ---- ---- ------- ----- to ----<br>-------- ------- -- ---------- --- - --- ----- ----- ----<br>---- --- --- ----- --- ---- ---- ------- ----- ---- -------<br>--- --- -- ----- -- --- ---- -- --- ---- -- ------ ------<br>--- ----- -- ----,184417.1000000015,184413.90000000224,183972.005,183974.1000000015,183988.165,184455.069,,16,to
screen,html.Screen,2_1_0_1_17,2022-05-02T13:50:29.761Z,,,,,,,,,,,,,,,,,53,,,,,,,,,,,,,,504.5310000015015,,response,,,,99,,,,,,,Space,keypress(Space),,,,,,,,---- -- ----- -- ------ - ------- --- ----------<br>------------- ------ ------ ---- ---- ------- ----- -- your<br>-------- ------- -- ---------- --- - --- ----- ----- ----<br>---- --- --- ----- --- ---- ---- ------- ----- ---- -------<br>--- --- -- ----- -- --- ---- -- --- ---- -- ------ ------<br>--- ----- -- ----,184962,184959.6000000015,184438.847,184418.20000000298,184455.069,184971.381,,17,your
screen,html.Screen,2_1_0_1_18,2022-05-02T13:50:30.397Z,,,,,,,,,,,,,,,,,53,,,,,,,,,,,,,,623.3190000029863,,response,,,,99,,,,,,,Space,keypress(Space),,,,,,,,---- -- ----- -- ------ - ------- --- ----------<br>------------- ------ ------ ---- ---- ------- ----- -- ----<br>romantic ------- -- ---------- --- - --- ----- ----- ----<br>---- --- --- ----- --- ---- ---- ------- ----- ---- -------<br>--- --- -- ----- -- --- ---- -- --- ---- -- ------ ------<br>--- ----- -- ----,185598,185594.70000000298,184955.619,184962.70000000298,184971.381,185604.668,,18,romantic
screen,html.Screen,2_1_0_1_19,2022-05-02T13:50:31.177Z,,,,,,,,,,,,,,,,,53,,,,,,,,,,,,,,770.1320000007399,,response,,,,99,,,,,,,Space,keypress(Space),,,,,,,,---- -- ----- -- ------ - ------- --- ----------<br>------------- ------ ------ ---- ---- ------- ----- -- ----<br>-------- partner -- ---------- --- - --- ----- ----- ----<br>---- --- --- ----- --- ---- ---- ------- ----- ---- -------<br>--- --- -- ----- -- --- ---- -- --- ---- -- ------ ------<br>--- ----- -- ----,186378,186374.80000000075,185589.134,185599,185604.668,186388.004,,19,partner
screen,html.Screen,2_1_0_1_20,2022-05-02T13:50:31.745Z,,,,,,,,,,,,,,,,,53,,,,,,,,,,,,,,554.196000002994,,response,,,,99,,,,,,,Space,keypress(Space),,,,,,,,---- -- ----- -- ------ - ------- --- ----------<br>------------- ------ ------ ---- ---- ------- ----- -- ----<br>-------- ------- is ---------- --- - --- ----- ----- ----<br>---- --- --- ----- --- ---- ---- ------- ----- ---- -------<br>--- --- -- ----- -- --- ---- -- --- ---- -- ------ ------<br>--- ----- -- ----,186945.5,186942.20000000298,186372.126,186379.1000000015,186388.004,186954.731,,20,is
screen,html.Screen,2_1_0_1_21,2022-05-02T13:50:33.688Z,,,,,,,,,,,,,,,,,53,,,,,,,,,,,,,,1930.9690000029805,,response,,,,99,,,,,,,Space,keypress(Space),,,,,,,,---- -- ----- -- ------ - ------- --- ----------<br>------------- ------ ------ ---- ---- ------- ----- -- ----<br>-------- ------- -- paramount. --- - --- ----- ----- ----<br>---- --- --- ----- --- ---- ---- ------- ----- ---- -------<br>--- --- -- ----- -- --- ---- -- --- ---- -- ------ ------<br>--- ----- -- ----,188889,188885.70000000298,186939.129,186946.70000000298,186954.731,188904.915,,21,paramount.
screen,html.Screen,2_1_0_1_22,2022-05-02T13:50:34.162Z,,,,,,,,,,,,,,,,,53,,,,,,,,,,,,,,454.3850000007369,,response,,,,99,,,,,,,Space,keypress(Space),,,,,,,,---- -- ----- -- ------ - ------- --- ----------<br>------------- ------ ------ ---- ---- ------- ----- -- ----<br>-------- ------- -- ---------- But - --- ----- ----- ----<br>---- --- --- ----- --- ---- ---- ------- ----- ---- -------<br>--- --- -- ----- -- --- ---- -- --- ---- -- ------ ------<br>--- ----- -- ----,189362.40000000224,189359.30000000075,188890.195,188890.1000000015,188904.915,189371.366,,22,But
screen,html.Screen,2_1_0_1_23,2022-05-02T13:50:34.538Z,,,,,,,,,,,,,,,,,53,,,,,,,,,,,,,,364.5340000022261,,response,,,,99,,,,,,,Space,keypress(Space),,,,,,,,---- -- ----- -- ------ - ------- --- ----------<br>------------- ------ ------ ---- ---- ------- ----- -- ----<br>-------- ------- -- ---------- --- a --- ----- ----- ----<br>---- --- --- ----- --- ---- ---- ------- ----- ---- -------<br>--- --- -- ----- -- --- ---- -- --- ---- -- ------ ------<br>--- ----- -- ----,189739.1000000015,189735.90000000224,189355.079,189364,189371.366,189754.591,,23,a
screen,html.Screen,2_1_0_1_24,2022-05-02T13:50:34.936Z,,,,,,,,,,,,,,,,,53,,,,,,,,,,,,,,380.4090000000142,,response,,,,99,,,,,,,Space,keypress(Space),,,,,,,,---- -- ----- -- ------ - ------- --- ----------<br>------------- ------ ------ ---- ---- ------- ----- -- ----<br>-------- ------- -- ---------- --- - new ----- ----- ----<br>---- --- --- ----- --- ---- ---- ------- ----- ---- -------<br>--- --- -- ----- -- --- ---- -- --- ---- -- ------ ------<br>--- ----- -- ----,190137,190135,189738.702,189740.20000000298,189754.591,190154.483,,24,new
screen,html.Screen,2_1_0_1_25,2022-05-02T13:50:35.360Z,,,,,,,,,,,,,,,,,53,,,,,,,,,,,,,,402.3170000007376,,response,,,,99,,,,,,,Space,keypress(Space),,,,,,,,---- -- ----- -- ------ - ------- --- ----------<br>------------- ------ ------ ---- ---- ------- ----- -- ----<br>-------- ------- -- ---------- --- - --- study ----- ----<br>---- --- --- ----- --- ---- ---- ------- ----- ---- -------<br>--- --- -- ----- -- --- ---- -- --- ---- -- ------ ------<br>--- ----- -- ----,190560.5,190556.80000000075,190138.204,190137.6000000015,190154.483,190571.277,,25,study
screen,html.Screen,2_1_0_1_26,2022-05-02T13:50:35.749Z,,,,,,,,,,,,,,,,,53,,,,,,,,,,,,,,375.22299999999814,,response,,,,99,,,,,,,Space,keypress(Space),,,,,,,,---- -- ----- -- ------ - ------- --- ----------<br>------------- ------ ------ ---- ---- ------- ----- -- ----<br>-------- ------- -- ---------- --- - --- ----- finds ----<br>---- --- --- ----- --- ---- ---- ------- ----- ---- -------<br>--- --- -- ----- -- --- ---- -- --- ---- -- ------ ------<br>--- ----- -- ----,190950.1000000015,190946.5,190554.85,190562.30000000075,190571.277,190988.224,,26,finds
screen,html.Screen,2_1_0_1_27,2022-05-02T13:50:36.174Z,,,,,,,,,,,,,,,,,53,,,,,,,,,,,,,,382.17600000224775,,response,,,,99,,,,,,,Space,keypress(Space),,,,,,,,---- -- ----- -- ------ - ------- --- ----------<br>------------- ------ ------ ---- ---- ------- ----- -- ----<br>-------- ------- -- ---------- --- - --- ----- ----- that<br>---- --- --- ----- --- ---- ---- ------- ----- ---- -------<br>--- --- -- ----- -- --- ---- -- --- ---- -- ------ ------<br>--- ----- -- ----,191374.5,191370.40000000224,190971.889,190951.1000000015,190988.224,191388.235,,27,that
screen,html.Screen,2_1_0_1_28,2022-05-02T13:50:36.580Z,,,,,,,,,,,,,,,,,53,,,,,,,,,,,,,,389.26500000001397,,response,,,,99,,,,,,,Space,keypress(Space),,,,,,,,---- -- ----- -- ------ - ------- --- ----------<br>------------- ------ ------ ---- ---- ------- ----- -- ----<br>-------- ------- -- ---------- --- - --- ----- ----- ----<br>it's --- --- ----- --- ---- ---- ------- ----- ---- -------<br>--- --- -- ----- -- --- ---- -- --- ---- -- ------ ------<br>--- ----- -- ----,191780.70000000298,191777.5,191372.124,191375.70000000298,191388.235,191787.773,,28,it's
screen,html.Screen,2_1_0_1_29,2022-05-02T13:50:36.960Z,,,,,,,,,,,,,,,,,53,,,,,,,,,,,,,,369.6270000022487,,response,,,,99,,,,,,,Space,keypress(Space),,,,,,,,---- -- ----- -- ------ - ------- --- ----------<br>------------- ------ ------ ---- ---- ------- ----- -- ----<br>-------- ------- -- ---------- --- - --- ----- ----- ----<br>---- not --- ----- --- ---- ---- ------- ----- ---- -------<br>--- --- -- ----- -- --- ---- -- --- ---- -- ------ ------<br>--- ----- -- ----,192160.80000000075,192157.40000000224,191771.809,191781.70000000298,191787.773,192171.324,,29,not
screen,html.Screen,2_1_0_1_30,2022-05-02T13:50:37.336Z,,,,,,,,,,,,,,,,,53,,,,,,,,,,,,,,361.77600000149687,,response,,,,99,,,,,,,Space,keypress(Space),,,,,,,,---- -- ----- -- ------ - ------- --- ----------<br>------------- ------ ------ ---- ---- ------- ----- -- ----<br>-------- ------- -- ---------- --- - --- ----- ----- ----<br>---- --- how ----- --- ---- ---- ------- ----- ---- -------<br>--- --- -- ----- -- --- ---- -- --- ---- -- ------ ------<br>--- ----- -- ----,192536.40000000224,192533.1000000015,192155.383,192161.90000000224,192171.324,192554.373,,30,how
screen,html.Screen,2_1_0_1_31,2022-05-02T13:50:37.683Z,,,,,,,,,,,,,,,,,53,,,,,,,,,,,,,,326.52700000224286,,response,,,,99,,,,,,,Space,keypress(Space),,,,,,,,---- -- ----- -- ------ - ------- --- ----------<br>------------- ------ ------ ---- ---- ------- ----- -- ----<br>-------- ------- -- ---------- --- - --- ----- ----- ----<br>---- --- --- close --- ---- ---- ------- ----- ---- -------<br>--- --- -- ----- -- --- ---- -- --- ---- -- ------ ------<br>--- ----- -- ----,192884,192880.90000000224,192538.126,192537.5,192554.373,192904.516,,31,close
screen,html.Screen,2_1_0_1_32,2022-05-02T13:50:38.060Z,,,,,,,,,,,,,,,,,53,,,,,,,,,,,,,,353.08400000148686,,response,,,,99,,,,,,,Space,keypress(Space),,,,,,,,---- -- ----- -- ------ - ------- --- ----------<br>------------- ------ ------ ---- ---- ------- ----- -- ----<br>-------- ------- -- ---------- --- - --- ----- ----- ----<br>---- --- --- ----- you ---- ---- ------- ----- ---- -------<br>--- --- -- ----- -- --- ---- -- --- ---- -- ------ ------<br>--- ----- -- ----,193260.80000000075,193257.6000000015,192888.137,192885.1000000015,192904.516,193271.014,,32,you
screen,html.Screen,2_1_0_1_33,2022-05-02T13:50:38.387Z,,,,,,,,,,,,,,,,,53,,,,,,,,,,,,,,313.68600000298466,,response,,,,99,,,,,,,Space,keypress(Space),,,,,,,,---- -- ----- -- ------ - ------- --- ----------<br>------------- ------ ------ ---- ---- ------- ----- -- ----<br>-------- ------- -- ---------- --- - --- ----- ----- ----<br>---- --- --- ----- --- feel ---- ------- ----- ---- -------<br>--- --- -- ----- -- --- ---- -- --- ---- -- ------ ------<br>--- ----- -- ----,193587.90000000224,193584.70000000298,193254.846,193261.80000000075,193271.014,193604.477,,33,feel
screen,html.Screen,2_1_0_1_34,2022-05-02T13:50:38.666Z,,,,,,,,,,,,,,,,,53,,,,,,,,,,,,,,259.42300000222167,,response,,,,99,,,,,,,Space,keypress(Space),,,,,,,,---- -- ----- -- ------ - ------- --- ----------<br>------------- ------ ------ ---- ---- ------- ----- -- ----<br>-------- ------- -- ---------- --- - --- ----- ----- ----<br>---- --- --- ----- --- ---- that ------- ----- ---- -------<br>--- --- -- ----- -- --- ---- -- --- ---- -- ------ ------<br>--- ----- -- ----,193867.30000000075,193863.90000000224,193588.015,193589,193604.477,193887.776,,34,that
screen,html.Screen,2_1_0_1_35,2022-05-02T13:50:38.892Z,,,,,,,,,,,,,,,,,53,,,,,,,,,,,,,,202.82400000147754,,response,,,,99,,,,,,,Space,keypress(Space),,,,,,,,---- -- ----- -- ------ - ------- --- ----------<br>------------- ------ ------ ---- ---- ------- ----- -- ----<br>-------- ------- -- ---------- --- - --- ----- ----- ----<br>---- --- --- ----- --- ---- ---- matters ----- ---- -------<br>--- --- -- ----- -- --- ---- -- --- ---- -- ------ ------<br>--- ----- -- ----,194092.90000000224,194090.6000000015,193871.378,193868.5,193887.776,194104.282,,35,matters
screen,html.Screen,2_1_0_1_36,2022-05-02T13:50:39.118Z,,,,,,,,,,,,,,,,,53,,,,,,,,,,,,,,211.21799999999348,,response,,,,99,,,,,,,Space,keypress(Space),,,,,,,,"---- -- ----- -- ------ - ------- --- ----------<br>------------- ------ ------ ---- ---- ------- ----- -- ----<br>-------- ------- -- ---------- --- - --- ----- ----- ----<br>---- --- --- ----- --- ---- ---- ------- most, ---- -------<br>--- --- -- ----- -- --- ---- -- --- ---- -- ------ ------<br>--- ----- -- ----",194318.80000000075,194315.5,194088.293,194093.70000000298,194104.282,194337.643,,36,"most,"
screen,html.Screen,2_1_0_1_37,2022-05-02T13:50:39.671Z,,,,,,,,,,,,,,,,,53,,,,,,,,,,,,,,531.3569999999891,,response,,,,99,,,,,,,Space,keypress(Space),,,,,,,,---- -- ----- -- ------ - ------- --- ----------<br>------------- ------ ------ ---- ---- ------- ----- -- ----<br>-------- ------- -- ---------- --- - --- ----- ----- ----<br>---- --- --- ----- --- ---- ---- ------- ----- it's -------<br>--- --- -- ----- -- --- ---- -- --- ---- -- ------ ------<br>--- ----- -- ----,194872.30000000075,194869,194321.644,194319.90000000224,194337.643,194887.745,,37,it's
screen,html.Screen,2_1_0_1_38,2022-05-02T13:50:40.082Z,,,,,,,,,,,,,,,,,53,,,,,,,,,,,,,,391.8550000014948,,response,,,,99,,,,,,,Space,keypress(Space),,,,,,,,---- -- ----- -- ------ - ------- --- ----------<br>------------- ------ ------ ---- ---- ------- ----- -- ----<br>-------- ------- -- ---------- --- - --- ----- ----- ----<br>---- --- --- ----- --- ---- ---- ------- ----- ---- whether<br>--- --- -- ----- -- --- ---- -- --- ---- -- ------ ------<br>--- ----- -- ----,195283.1000000015,195279.6000000015,194872.045,194873.40000000224,194887.745,195304.443,,38,whether
screen,html.Screen,2_1_0_1_39,2022-05-02T13:50:40.432Z,,,,,,,,,,,,,,,,,53,,,,,,,,,,,,,,325.1570000014908,,response,,,,99,,,,,,,Space,keypress(Space),,,,,,,,---- -- ----- -- ------ - ------- --- ----------<br>------------- ------ ------ ---- ---- ------- ----- -- ----<br>-------- ------- -- ---------- --- - --- ----- ----- ----<br>---- --- --- ----- --- ---- ---- ------- ----- ---- -------<br>you --- -- ----- -- --- ---- -- --- ---- -- ------ ------<br>--- ----- -- ----,195632.70000000298,195629.6000000015,195271.865,195284.20000000298,195304.443,195654.401,,39,you
screen,html.Screen,2_1_0_1_40,2022-05-02T13:50:40.701Z,,,,,,,,,,,,,,,,,53,,,,,,,,,,,,,,244.09899999998743,,response,,,,99,,,,,,,Space,keypress(Space),,,,,,,,---- -- ----- -- ------ - ------- --- ----------<br>------------- ------ ------ ---- ---- ------- ----- -- ----<br>-------- ------- -- ---------- --- - --- ----- ----- ----<br>---- --- --- ----- --- ---- ---- ------- ----- ---- -------<br>--- are -- ----- -- --- ---- -- --- ---- -- ------ ------<br>--- ----- -- ----,195901.90000000224,195898.5,195621.704,195633.90000000224,195654.401,195920.871,,40,are
screen,html.Screen,2_1_0_1_41,2022-05-02T13:50:40.879Z,,,,,,,,,,,,,,,,,53,,,,,,,,,,,,,,155.62899999998626,,response,,,,99,,,,,,,Space,keypress(Space),,,,,,,,---- -- ----- -- ------ - ------- --- ----------<br>------------- ------ ------ ---- ---- ------- ----- -- ----<br>-------- ------- -- ---------- --- - --- ----- ----- ----<br>---- --- --- ----- --- ---- ---- ------- ----- ---- -------<br>--- --- as ----- -- --- ---- -- --- ---- -- ------ ------<br>--- ----- -- ----,196079.70000000298,196076.5,195905.022,195902.90000000224,195920.871,196087.732,,41,as
screen,html.Screen,2_1_0_1_42,2022-05-02T13:50:41.393Z,,,,,,,,,,,,,,,,,53,,,,,,,,,,,,,,502.9680000029912,,response,,,,99,,,,,,,Space,keypress(Space),,,,,,,,---- -- ----- -- ------ - ------- --- ----------<br>------------- ------ ------ ---- ---- ------- ----- -- ----<br>-------- ------- -- ---------- --- - --- ----- ----- ----<br>---- --- --- ----- --- ---- ---- ------- ----- ---- -------<br>--- --- -- close -- --- ---- -- --- ---- -- ------ ------<br>--- ----- -- ----,196594,196590.70000000298,196071.273,196080.80000000075,196087.732,196604.474,,42,close
screen,html.Screen,2_1_0_1_43,2022-05-02T13:50:41.699Z,,,,,,,,,,,,,,,,,53,,,,,,,,,,,,,,292.42600000224775,,response,,,,99,,,,,,,Space,keypress(Space),,,,,,,,---- -- ----- -- ------ - ------- --- ----------<br>------------- ------ ------ ---- ---- ------- ----- -- ----<br>-------- ------- -- ---------- --- - --- ----- ----- ----<br>---- --- --- ----- --- ---- ---- ------- ----- ---- -------<br>--- --- -- ----- as --- ---- -- --- ---- -- ------ ------<br>--- ----- -- ----,196900.20000000298,196896.90000000224,196588.055,196595.20000000298,196604.474,196921.388,,43,as
screen,html.Screen,2_1_0_1_44,2022-05-02T13:50:42.084Z,,,,,,,,,,,,,,,,,53,,,,,,,,,,,,,,359.71200000148383,,response,,,,99,,,,,,,Space,keypress(Space),,,,,,,,---- -- ----- -- ------ - ------- --- ----------<br>------------- ------ ------ ---- ---- ------- ----- -- ----<br>-------- ------- -- ---------- --- - --- ----- ----- ----<br>---- --- --- ----- --- ---- ---- ------- ----- ---- -------<br>--- --- -- ----- -- you ---- -- --- ---- -- ------ ------<br>--- ----- -- ----,197284.70000000298,197281.1000000015,196888.432,196901.30000000075,196921.388,197304.352,,44,you
screen,html.Screen,2_1_0_1_45,2022-05-02T13:50:42.391Z,,,,,,,,,,,,,,,,,53,,,,,,,,,,,,,,284.04800000222167,,response,,,,99,,,,,,,Space,keypress(Space),,,,,,,,---- -- ----- -- ------ - ------- --- ----------<br>------------- ------ ------ ---- ---- ------- ----- -- ----<br>-------- ------- -- ---------- --- - --- ----- ----- ----<br>---- --- --- ----- --- ---- ---- ------- ----- ---- -------<br>--- --- -- ----- -- --- want -- --- ---- -- ------ ------<br>--- ----- -- ----,197591.70000000298,197588.40000000224,197287.861,197285.80000000075,197304.352,197604.341,,45,want
screen,html.Screen,2_1_0_1_46,2022-05-02T13:50:42.701Z,,,,,,,,,,,,,,,,,53,,,,,,,,,,,,,,293.95900000075926,,response,,,,99,,,,,,,Space,keypress(Space),,,,,,,,---- -- ----- -- ------ - ------- --- ----------<br>------------- ------ ------ ---- ---- ------- ----- -- ----<br>-------- ------- -- ---------- --- - --- ----- ----- ----<br>---- --- --- ----- --- ---- ---- ------- ----- ---- -------<br>--- --- -- ----- -- --- ---- to --- ---- -- ------ ------<br>--- ----- -- ----,197901.6000000015,197898.30000000075,197588.289,197592.80000000075,197604.341,197920.804,,46,to
screen,html.Screen,2_1_0_1_47,2022-05-02T13:50:43.031Z,,,,,,,,,,,,,,,,,53,,,,,,,,,,,,,,307.6959999999963,,response,,,,99,,,,,,,Space,keypress(Space),,,,,,,,"---- -- ----- -- ------ - ------- --- ----------<br>------------- ------ ------ ---- ---- ------- ----- -- ----<br>-------- ------- -- ---------- --- - --- ----- ----- ----<br>---- --- --- ----- --- ---- ---- ------- ----- ---- -------<br>--- --- -- ----- -- --- ---- -- be, ---- -- ------ ------<br>--- ----- -- ----",198231.70000000298,198228.5,197905.062,197902.70000000298,197920.804,198270.175,,47,"be,"
screen,html.Screen,2_1_0_1_48,2022-05-02T13:50:43.395Z,,,,,,,,,,,,,,,,,53,,,,,,,,,,,,,,322.0250000029919,,response,,,,99,,,,,,,Space,keypress(Space),,,,,,,,---- -- ----- -- ------ - ------- --- ----------<br>------------- ------ ------ ---- ---- ------- ----- -- ----<br>-------- ------- -- ---------- --- - --- ----- ----- ----<br>---- --- --- ----- --- ---- ---- ------- ----- ---- -------<br>--- --- -- ----- -- --- ---- -- --- even -- ------ ------<br>--- ----- -- ----,198595.5,198592.20000000298,198221.18,198232.80000000075,198270.175,198604.48,,48,even
screen,html.Screen,2_1_0_1_49,2022-05-02T13:50:43.699Z,,,,,,,,,,,,,,,,,53,,,,,,,,,,,,,,291.9200000022247,,response,,,,99,,,,,,,Space,keypress(Space),,,,,,,,---- -- ----- -- ------ - ------- --- ----------<br>------------- ------ ------ ---- ---- ------- ----- -- ----<br>-------- ------- -- ---------- --- - --- ----- ----- ----<br>---- --- --- ----- --- ---- ---- ------- ----- ---- -------<br>--- --- -- ----- -- --- ---- -- --- ---- if ------ ------<br>--- ----- -- ----,198899.80000000075,198896.40000000224,198587.859,198596.6000000015,198604.48,198937.893,,49,if
screen,html.Screen,2_1_0_1_50,2022-05-02T13:50:44.075Z,,,,,,,,,,,,,,,,,53,,,,,,,,,,,,,,334.60699999998906,,response,,,,99,,,,,,,Space,keypress(Space),,,,,,,,---- -- ----- -- ------ - ------- --- ----------<br>------------- ------ ------ ---- ---- ------- ----- -- ----<br>-------- ------- -- ---------- --- - --- ----- ----- ----<br>---- --- --- ----- --- ---- ---- ------- ----- ---- -------<br>--- --- -- ----- -- --- ---- -- --- ---- -- that's ------<br>--- ----- -- ----,199276.1000000015,199272.5,198921.123,198900.90000000224,198937.893,199287.918,,50,that's
screen,html.Screen,2_1_0_1_51,2022-05-02T13:50:44.654Z,,,,,,,,,,,,,,,,,53,,,,,,,,,,,,,,563.682000001485,,response,,,,99,,,,,,,Space,keypress(Space),,,,,,,,---- -- ----- -- ------ - ------- --- ----------<br>------------- ------ ------ ---- ---- ------- ----- -- ----<br>-------- ------- -- ---------- --- - --- ----- ----- ----<br>---- --- --- ----- --- ---- ---- ------- ----- ---- -------<br>--- --- -- ----- -- --- ---- -- --- ---- -- ------ really<br>--- ----- -- ----,199855.1000000015,199851.6000000015,199271.296,199277.20000000298,199287.918,199870.704,,51,really
screen,html.Screen,2_1_0_1_52,2022-05-02T13:50:45.087Z,,,,,,,,,,,,,,,,,53,,,,,,,,,,,,,,413.9960000029823,,response,,,,99,,,,,,,Space,keypress(Space),,,,,,,,---- -- ----- -- ------ - ------- --- ----------<br>------------- ------ ------ ---- ---- ------- ----- -- ----<br>-------- ------- -- ---------- --- - --- ----- ----- ----<br>---- --- --- ----- --- ---- ---- ------- ----- ---- -------<br>--- --- -- ----- -- --- ---- -- --- ---- -- ------ ------<br>not ----- -- ----,200288.1000000015,200284.70000000298,199854.808,199856.1000000015,199870.704,200304.183,,52,not
screen,html.Screen,2_1_0_1_53,2022-05-02T13:50:45.479Z,,,,,,,,,,,,,,,,,53,,,,,,,,,,,,,,372.61700000075507,,response,,,,99,,,,,,,Space,keypress(Space),,,,,,,,---- -- ----- -- ------ - ------- --- ----------<br>------------- ------ ------ ---- ---- ------- ----- -- ----<br>-------- ------- -- ---------- --- - --- ----- ----- ----<br>---- --- --- ----- --- ---- ---- ------- ----- ---- -------<br>--- --- -- ----- -- --- ---- -- --- ---- -- ------ ------<br>--- close -- ----,200680,200676.80000000075,200288.346,200289.20000000298,200304.183,200687.498,,53,close
screen,html.Screen,2_1_0_1_54,2022-05-02T13:50:45.942Z,,,,,,,,,,,,,,,,,53,,,,,,,,,,,,,,452.5020000000077,,response,,,,99,,,,,,,Space,keypress(Space),,,,,,,,---- -- ----- -- ------ - ------- --- ----------<br>------------- ------ ------ ---- ---- ------- ----- -- ----<br>-------- ------- -- ---------- --- - --- ----- ----- ----<br>---- --- --- ----- --- ---- ---- ------- ----- ---- -------<br>--- --- -- ----- -- --- ---- -- --- ---- -- ------ ------<br>--- ----- at ----,201143.20000000298,201140,200671.184,200681.20000000298,200687.498,201154.225,,54,at
screen,html.Screen,2_1_0_1_55,2022-05-02T13:50:46.453Z,,,,,,,,,,,,,,,,,53,,,,,,,,,,,,,,495.7749999999942,,response,,,,99,,,,,,,Space,keypress(Space),,,,,,,,---- -- ----- -- ------ - ------- --- ----------<br>------------- ------ ------ ---- ---- ------- ----- -- ----<br>-------- ------- -- ---------- --- - --- ----- ----- ----<br>---- --- --- ----- --- ---- ---- ------- ----- ---- -------<br>--- --- -- ----- -- --- ---- -- --- ---- -- ------ ------<br>--- ----- -- all.,201653.6000000015,201650,201138.003,201144.20000000298,201154.225,201704.013,,55,all.
Item 99,flow.Loop,2_1_0_1,2022-05-02T13:50:46.455Z,,,,,,,,,,,,,,,,,,,,,,,,,,,,,,,27611.532999999996,,completion,,,,,G,,,,,,,,,,,silence,,,,,201656,201650,173805.386,173810.30000000075,174038.467,201704.013,,,
Question 1,html.Screen,2_1_0_2,2022-05-02T13:50:51.818Z,,,,,,,,,,,,,,,,,,,,,,,,,,,,false,FALSE,,5311.187000002974,,response,,,,99,G,,,,,,TRUE,click #choice-1,,,,silence,,,,,207018.40000000224,207015.20000000298,201655.102,201657.30000000075,201704.013,207037.217,,,
Question 2,html.Screen,2_1_0_3,2022-05-02T13:50:58.928Z,,,,,,,,,,,,,,,,,,,,,,,,,,,,true,TRUE,,7089.583000000741,,response,,,,99,G,,,,,,TRUE,click #choice-1,,,,silence,,,,,214129.1000000015,214126.80000000075,207004.226,207019,207037.217,214136.738,,,
Item 99,flow.Sequence,2_1_0,2022-05-02T13:50:58.929Z,,,,,,,,,,,,,,,,,,,,,,,,,,,,,,,50304.636000000755,,completion,,,,,,,,,,,,,,,,,,,,,214129.90000000224,214126.80000000075,163789.374,163804.1000000015,163822.164,214136.738,,,
Holding screen,html.Screen,2_1_1_0,2022-05-02T13:51:08.922Z,,,,,,,,,,,,,,,,,,,,,,,,,,,,,,,9999.598999999987,,timeout,,,,,,,,,,,,,,,,,,,,,224123,224119.82,214120.236,214130.5,214136.738,224136.337,,,
screen,html.Screen,2_1_1_1_0,2022-05-02T13:51:16.813Z,,,,,,,,,,,,,,,,,54,,,,,,,,,,,,,,7872.563000002236,,response,,,,100,,,,,,,Space,keypress(Space),,,,,,,,At --- ---- --- ------ ----- ------- ---- -- --- ------- --<br>------- ---------- ------ -- ----- -- ----- -- ---- ------<br>--- ----- --- --- ------ -------- ----- --- ------ ----- --<br>----- ----- ---------- --- --- ------ ------ ---- -- ------<br>------- --- ------ ----- --- ---- ------- -- ---- --- --<br>------- ------,232013.40000000224,232008.90000000224,224119.82,224124.70000000298,224136.337,232019.469,,0,At
screen,html.Screen,2_1_1_1_1,2022-05-02T13:51:17.186Z,,,,,,,,,,,,,,,,,54,,,,,,,,,,,,,,363.13100000147824,,response,,,,100,,,,,,,Space,keypress(Space),,,,,,,,-- the ---- --- ------ ----- ------- ---- -- --- ------- --<br>------- ---------- ------ -- ----- -- ----- -- ---- ------<br>--- ----- --- --- ------ -------- ----- --- ------ ----- --<br>----- ----- ---------- --- --- ------ ------ ---- -- ------<br>------- --- ------ ----- --- ---- ------- -- ---- --- --<br>------- ------,232386.30000000075,232382.6000000015,232003.029,232014.30000000075,232019.469,232402.887,,1,the
screen,html.Screen,2_1_1_1_2,2022-05-02T13:51:17.498Z,,,,,,,,,,,,,,,,,54,,,,,,,,,,,,,,291.91300000075717,,response,,,,100,,,,,,,Space,keypress(Space),,,,,,,,-- --- time --- ------ ----- ------- ---- -- --- ------- --<br>------- ---------- ------ -- ----- -- ----- -- ---- ------<br>--- ----- --- --- ------ -------- ----- --- ------ ----- --<br>----- ----- ---------- --- --- ------ ------ ---- -- ------<br>------- --- ------ ----- --- ---- ------- -- ---- --- --<br>------- ------,232698.30000000075,232694.80000000075,232386.435,232387.40000000224,232402.887,232726.619,,2,time
screen,html.Screen,2_1_1_1_3,2022-05-02T13:51:17.826Z,,,,,,,,,,,,,,,,,54,,,,,,,,,,,,,,296.181000000739,,response,,,,100,,,,,,,Space,keypress(Space),,,,,,,,-- --- ---- the ------ ----- ------- ---- -- --- ------- --<br>------- ---------- ------ -- ----- -- ----- -- ---- ------<br>--- ----- --- --- ------ -------- ----- --- ------ ----- --<br>----- ----- ---------- --- --- ------ ------ ---- -- ------<br>------- --- ------ ----- --- ---- ------- -- ---- --- --<br>------- ------,233026.30000000075,233022.80000000075,232686.914,232699.40000000224,232726.619,233036.094,,3,the
screen,html.Screen,2_1_1_1_4,2022-05-02T13:51:18.150Z,,,,,,,,,,,,,,,,,54,,,,,,,,,,,,,,311.60600000296836,,response,,,,100,,,,,,,Space,keypress(Space),,,,,,,,-- --- ---- --- French ----- ------- ---- -- --- ------- --<br>------- ---------- ------ -- ----- -- ----- -- ---- ------<br>--- ----- --- --- ------ -------- ----- --- ------ ----- --<br>----- ----- ---------- --- --- ------ ------ ---- -- ------<br>------- --- ------ ----- --- ---- ------- -- ---- --- --<br>------- ------,233350.90000000224,233347.70000000298,233019.65,233027.40000000224,233036.094,233369.562,,4,French
screen,html.Screen,2_1_1_1_5,2022-05-02T13:51:18.435Z,,,,,,,,,,,,,,,,,54,,,,,,,,,,,,,,263.03800000148476,,response,,,,100,,,,,,,Space,keypress(Space),,,,,,,,-- --- ---- --- ------ crown ------- ---- -- --- ------- --<br>------- ---------- ------ -- ----- -- ----- -- ---- ------<br>--- ----- --- --- ------ -------- ----- --- ------ ----- --<br>----- ----- ---------- --- --- ------ ------ ---- -- ------<br>------- --- ------ ----- --- ---- ------- -- ---- --- --<br>------- ------,233635.80000000075,233632.6000000015,233353.2,233351.90000000224,233369.562,233652.653,,5,crown
screen,html.Screen,2_1_1_1_6,2022-05-02T13:51:18.798Z,,,,,,,,,,,,,,,,,54,,,,,,,,,,,,,,342.6470000007539,,response,,,,100,,,,,,,Space,keypress(Space),,,,,,,,-- --- ---- --- ------ ----- secured ---- -- --- ------- --<br>------- ---------- ------ -- ----- -- ----- -- ---- ------<br>--- ----- --- --- ------ -------- ----- --- ------ ----- --<br>----- ----- ---------- --- --- ------ ------ ---- -- ------<br>------- --- ------ ----- --- ---- ------- -- ---- --- --<br>------- ------,233998.5,233995.30000000075,233636.175,233636.90000000224,233652.653,234019.346,,6,secured
screen,html.Screen,2_1_1_1_7,2022-05-02T13:51:19.131Z,,,,,,,,,,,,,,,,,54,,,,,,,,,,,,,,308.8540000029898,,response,,,,100,,,,,,,Space,keypress(Space),,,,,,,,-- --- ---- --- ------ ----- ------- much -- --- ------- --<br>------- ---------- ------ -- ----- -- ----- -- ---- ------<br>--- ----- --- --- ------ -------- ----- --- ------ ----- --<br>----- ----- ---------- --- --- ------ ------ ---- -- ------<br>------- --- ------ ----- --- ---- ------- -- ---- --- --<br>------- ------,234331.6000000015,234328.20000000298,233986.397,233999.6000000015,234019.346,234355.621,,7,much
screen,html.Screen,2_1_1_1_8,2022-05-02T13:51:19.448Z,,,,,,,,,,,,,,,,,54,,,,,,,,,,,,,,289.5790000029665,,response,,,,100,,,,,,,Space,keypress(Space),,,,,,,,-- --- ---- --- ------ ----- ------- ---- of --- ------- --<br>------- ---------- ------ -- ----- -- ----- -- ---- ------<br>--- ----- --- --- ------ -------- ----- --- ------ ----- --<br>----- ----- ---------- --- --- ------ ------ ---- -- ------<br>------- --- ------ ----- --- ---- ------- -- ---- --- --<br>------- ------,234648.40000000224,234645.20000000298,234319.594,234332.6000000015,234355.621,234669.739,,8,of
screen,html.Screen,2_1_1_1_9,2022-05-02T13:51:19.793Z,,,,,,,,,,,,,,,,,54,,,,,,,,,,,,,,320.56100000074366,,response,,,,100,,,,,,,Space,keypress(Space),,,,,,,,-- --- ---- --- ------ ----- ------- ---- -- its ------- --<br>------- ---------- ------ -- ----- -- ----- -- ---- ------<br>--- ----- --- --- ------ -------- ----- --- ------ ----- --<br>----- ----- ---------- --- --- ------ ------ ---- -- ------<br>------- --- ------ ----- --- ---- ------- -- ---- --- --<br>------- ------,234994,234990.30000000075,234636.339,234649.5,234669.739,235002.822,,9,its
screen,html.Screen,2_1_1_1_10,2022-05-02T13:51:20.043Z,,,,,,,,,,,,,,,,,54,,,,,,,,,,,,,,237.5780000022496,,response,,,,100,,,,,,,Space,keypress(Space),,,,,,,,-- --- ---- --- ------ ----- ------- ---- -- --- revenue --<br>------- ---------- ------ -- ----- -- ----- -- ---- ------<br>--- ----- --- --- ------ -------- ----- --- ------ ----- --<br>----- ----- ---------- --- --- ------ ------ ---- -- ------<br>------- --- ------ ----- --- ---- ------- -- ---- --- --<br>------- ------,235243.6000000015,235240.40000000224,234986.511,234995.1000000015,235002.822,235252.899,,10,revenue
screen,html.Screen,2_1_1_1_11,2022-05-02T13:51:20.475Z,,,,,,,,,,,,,,,,,54,,,,,,,,,,,,,,420.30100000297534,,response,,,,100,,,,,,,Space,keypress(Space),,,,,,,,-- --- ---- --- ------ ----- ------- ---- -- --- ------- by<br>------- ---------- ------ -- ----- -- ----- -- ---- ------<br>--- ----- --- --- ------ -------- ----- --- ------ ----- --<br>----- ----- ---------- --- --- ------ ------ ---- -- ------<br>------- --- ------ ----- --- ---- ------- -- ---- --- --<br>------- ------,235676.1000000015,235673.20000000298,235236.21,235244.70000000298,235252.899,235686.056,,11,by
screen,html.Screen,2_1_1_1_12,2022-05-02T13:51:21.695Z,,,,,,,,,,,,,,,,,54,,,,,,,,,,,,,,1205.6440000029688,,response,,,,100,,,,,,,Space,keypress(Space),,,,,,,,-- --- ---- --- ------ ----- ------- ---- -- --- ------- --<br>issuing ---------- ------ -- ----- -- ----- -- ---- ------<br>--- ----- --- --- ------ -------- ----- --- ------ ----- --<br>----- ----- ---------- --- --- ------ ------ ---- -- ------<br>------- --- ------ ----- --- ---- ------- -- ---- --- --<br>------- ------,236895.40000000224,236891.70000000298,235670.163,235677.20000000298,235686.056,236902.901,,12,issuing
screen,html.Screen,2_1_1_1_13,2022-05-02T13:51:21.931Z,,,,,,,,,,,,,,,,,54,,,,,,,,,,,,,,225.29900000296766,,response,,,,100,,,,,,,Space,keypress(Space),,,,,,,,-- --- ---- --- ------ ----- ------- ---- -- --- ------- --<br>------- government ------ -- ----- -- ----- -- ---- ------<br>--- ----- --- --- ------ -------- ----- --- ------ ----- --<br>----- ----- ---------- --- --- ------ ------ ---- -- ------<br>------- --- ------ ----- --- ---- ------- -- ---- --- --<br>------- ------,237131.30000000075,237128.20000000298,236887.425,236896.5,236902.901,237153.871,,13,government
screen,html.Screen,2_1_1_1_14,2022-05-02T13:51:22.410Z,,,,,,,,,,,,,,,,,54,,,,,,,,,,,,,,453.8290000029665,,response,,,,100,,,,,,,Space,keypress(Space),,,,,,,,-- --- ---- --- ------ ----- ------- ---- -- --- ------- --<br>------- ---------- bonds. -- ----- -- ----- -- ---- ------<br>--- ----- --- --- ------ -------- ----- --- ------ ----- --<br>----- ----- ---------- --- --- ------ ------ ---- -- ------<br>------- --- ------ ----- --- ---- ------- -- ---- --- --<br>------- ------,237611,237607.70000000298,237119.437,237132.40000000224,237153.871,237619.25,,14,bonds.
screen,html.Screen,2_1_1_1_15,2022-05-02T13:51:22.876Z,,,,,,,,,,,,,,,,,54,,,,,,,,,,,,,,453.6500000022352,,response,,,,100,,,,,,,Space,keypress(Space),,,,,,,,-- --- ---- --- ------ ----- ------- ---- -- --- ------- --<br>------- ---------- ------ In ----- -- ----- -- ---- ------<br>--- ----- --- --- ------ -------- ----- --- ------ ----- --<br>----- ----- ---------- --- --- ------ ------ ---- -- ------<br>------- --- ------ ----- --- ---- ------- -- ---- --- --<br>------- ------,238076.30000000075,238072.90000000224,237603.232,237612.1000000015,237619.25,238085.97,,15,In
screen,html.Screen,2_1_1_1_16,2022-05-02T13:51:23.254Z,,,,,,,,,,,,,,,,,54,,,,,,,,,,,,,,365.13000000148895,,response,,,,100,,,,,,,Space,keypress(Space),,,,,,,,"-- --- ---- --- ------ ----- ------- ---- -- --- ------- --<br>------- ---------- ------ -- 1727, -- ----- -- ---- ------<br>--- ----- --- --- ------ -------- ----- --- ------ ----- --<br>----- ----- ---------- --- --- ------ ------ ---- -- ------<br>------- --- ------ ----- --- ---- ------- -- ---- --- --<br>------- ------",238454.70000000298,238451.1000000015,238069.824,238077.40000000224,238085.97,238469.222,,16,"1727,"
screen,html.Screen,2_1_1_1_17,2022-05-02T13:51:41.453Z,,,,,,,,,,,,,,,,,54,,,,,,,,,,,,,,18180.27799999999,,response,,,,100,,,,,,,Space,keypress(Space),,,,,,,,-- --- ---- --- ------ ----- ------- ---- -- --- ------- --<br>------- ---------- ------ -- ----- in ----- -- ---- ------<br>--- ----- --- --- ------ -------- ----- --- ------ ----- --<br>----- ----- ---------- --- --- ------ ------ ---- -- ------<br>------- --- ------ ----- --- ---- ------- -- ---- --- --<br>------- ------,256653.70000000298,256649.5,238453.248,238455.80000000075,238469.222,256668.369,,17,in
screen,html.Screen,2_1_1_1_18,2022-05-02T13:51:41.817Z,,,,,,,,,,,,,,,,,54,,,,,,,,,,,,,,345.63099999999395,,response,,,,100,,,,,,,Space,keypress(Space),,,,,,,,-- --- ---- --- ------ ----- ------- ---- -- --- ------- --<br>------- ---------- ------ -- ----- -- order -- ---- ------<br>--- ----- --- --- ------ -------- ----- --- ------ ----- --<br>----- ----- ---------- --- --- ------ ------ ---- -- ------<br>------- --- ------ ----- --- ---- ------- -- ---- --- --<br>------- ------,257017.70000000298,257014,256648.756,256654.90000000224,256668.369,257035.035,,18,order
screen,html.Screen,2_1_1_1_19,2022-05-02T13:51:42.139Z,,,,,,,,,,,,,,,,,54,,,,,,,,,,,,,,301.76500000074157,,response,,,,100,,,,,,,Space,keypress(Space),,,,,,,,-- --- ---- --- ------ ----- ------- ---- -- --- ------- --<br>------- ---------- ------ -- ----- -- ----- to ---- ------<br>--- ----- --- --- ------ -------- ----- --- ------ ----- --<br>----- ----- ---------- --- --- ------ ------ ---- -- ------<br>------- --- ------ ----- --- ---- ------- -- ---- --- --<br>------- ------,257340,257336.80000000075,257018.531,257018.80000000075,257035.035,257351.674,,19,to
screen,html.Screen,2_1_1_1_20,2022-05-02T13:51:42.467Z,,,,,,,,,,,,,,,,,54,,,,,,,,,,,,,,312.82600000000093,,response,,,,100,,,,,,,Space,keypress(Space),,,,,,,,-- --- ---- --- ------ ----- ------- ---- -- --- ------- --<br>------- ---------- ------ -- ----- -- ----- -- save ------<br>--- ----- --- --- ------ -------- ----- --- ------ ----- --<br>----- ----- ---------- --- --- ------ ------ ---- -- ------<br>------- --- ------ ----- --- ---- ------- -- ---- --- --<br>------- ------,257667.70000000298,257664.5,257335.494,257341.1000000015,257351.674,257702.048,,20,save
screen,html.Screen,2_1_1_1_21,2022-05-02T13:51:42.787Z,,,,,,,,,,,,,,,,,54,,,,,,,,,,,,,,282.4519999999902,,response,,,,100,,,,,,,Space,keypress(Space),,,,,,,,"-- --- ---- --- ------ ----- ------- ---- -- --- ------- --<br>------- ---------- ------ -- ----- -- ----- -- ---- money,<br>--- ----- --- --- ------ -------- ----- --- ------ ----- --<br>----- ----- ---------- --- --- ------ ------ ---- -- ------<br>------- --- ------ ----- --- ---- ------- -- ---- --- --<br>------- ------",257987.90000000224,257984.5,257668.771,257668.90000000224,257702.048,258001.965,,21,"money,"
screen,html.Screen,2_1_1_1_22,2022-05-02T13:51:43.170Z,,,,,,,,,,,,,,,,,54,,,,,,,,,,,,,,365.5350000000035,,response,,,,100,,,,,,,Space,keypress(Space),,,,,,,,-- --- ---- --- ------ ----- ------- ---- -- --- ------- --<br>------- ---------- ------ -- ----- -- ----- -- ---- ------<br>the ----- --- --- ------ -------- ----- --- ------ ----- --<br>----- ----- ---------- --- --- ------ ------ ---- -- ------<br>------- --- ------ ----- --- ---- ------- -- ---- --- --<br>------- ------,258370.5,258367.5,257985.417,257989,258001.965,258384.989,,22,the
screen,html.Screen,2_1_1_1_23,2022-05-02T13:51:43.789Z,,,,,,,,,,,,,,,,,54,,,,,,,,,,,,,,602.7110000029788,,response,,,,100,,,,,,,Space,keypress(Space),,,,,,,,-- --- ---- --- ------ ----- ------- ---- -- --- ------- --<br>------- ---------- ------ -- ----- -- ----- -- ---- ------<br>--- state --- --- ------ -------- ----- --- ------ ----- --<br>----- ----- ---------- --- --- ------ ------ ---- -- ------<br>------- --- ------ ----- --- ---- ------- -- ---- --- --<br>------- ------,258989.5,258987.70000000298,258369.09,258371.6000000015,258384.989,259001.524,,23,state
screen,html.Screen,2_1_1_1_24,2022-05-02T13:51:44.124Z,,,,,,,,,,,,,,,,,54,,,,,,,,,,,,,,320.77600000074017,,response,,,,100,,,,,,,Space,keypress(Space),,,,,,,,-- --- ---- --- ------ ----- ------- ---- -- --- ------- --<br>------- ---------- ------ -- ----- -- ----- -- ---- ------<br>--- ----- cut --- ------ -------- ----- --- ------ ----- --<br>----- ----- ---------- --- --- ------ ------ ---- -- ------<br>------- --- ------ ----- --- ---- ------- -- ---- --- --<br>------- ------,259324.30000000075,259322.30000000075,258985.516,258990.1000000015,259001.524,259334.836,,24,cut
screen,html.Screen,2_1_1_1_25,2022-05-02T13:51:44.459Z,,,,,,,,,,,,,,,,,54,,,,,,,,,,,,,,322.86400000297,,response,,,,100,,,,,,,Space,keypress(Space),,,,,,,,-- --- ---- --- ------ ----- ------- ---- -- --- ------- --<br>------- ---------- ------ -- ----- -- ----- -- ---- ------<br>--- ----- --- the ------ -------- ----- --- ------ ----- --<br>----- ----- ---------- --- --- ------ ------ ---- -- ------<br>------- --- ------ ----- --- ---- ------- -- ---- --- --<br>------- ------,259659.6000000015,259657.70000000298,259318.542,259324.70000000298,259334.836,259668.209,,25,the
screen,html.Screen,2_1_1_1_26,2022-05-02T13:51:44.801Z,,,,,,,,,,,,,,,,,54,,,,,,,,,,,,,,330.6910000022326,,response,,,,100,,,,,,,Space,keypress(Space),,,,,,,,-- --- ---- --- ------ ----- ------- ---- -- --- ------- --<br>------- ---------- ------ -- ----- -- ----- -- ---- ------<br>--- ----- --- --- bonds' -------- ----- --- ------ ----- --<br>----- ----- ---------- --- --- ------ ------ ---- -- ------<br>------- --- ------ ----- --- ---- ------- -- ---- --- --<br>------- ------,260002.20000000298,259998.90000000224,259651.724,259660.20000000298,259668.209,260018.237,,26,bonds'
screen,html.Screen,2_1_1_1_27,2022-05-02T13:51:45.176Z,,,,,,,,,,,,,,,,,54,,,,,,,,,,,,,,355.66300000224146,,response,,,,100,,,,,,,Space,keypress(Space),,,,,,,,-- --- ---- --- ------ ----- ------- ---- -- --- ------- --<br>------- ---------- ------ -- ----- -- ----- -- ---- ------<br>--- ----- --- --- ------ interest ----- --- ------ ----- --<br>----- ----- ---------- --- --- ------ ------ ---- -- ------<br>------- --- ------ ----- --- ---- ------- -- ---- --- --<br>------- ------,260377.1000000015,260373.90000000224,260001.709,260003.30000000075,260018.237,260385.255,,27,interest
screen,html.Screen,2_1_1_1_28,2022-05-02T13:51:45.623Z,,,,,,,,,,,,,,,,,54,,,,,,,,,,,,,,435.24499999999534,,response,,,,100,,,,,,,Space,keypress(Space),,,,,,,,-- --- ---- --- ------ ----- ------- ---- -- --- ------- --<br>------- ---------- ------ -- ----- -- ----- -- ---- ------<br>--- ----- --- --- ------ -------- rate. --- ------ ----- --<br>----- ----- ---------- --- --- ------ ------ ---- -- ------<br>------- --- ------ ----- --- ---- ------- -- ---- --- --<br>------- ------,260824,260820.5,260368.573,260378.40000000224,260385.255,260835.362,,28,rate.
screen,html.Screen,2_1_1_1_29,2022-05-02T13:51:46.013Z,,,,,,,,,,,,,,,,,54,,,,,,,,,,,,,,374.43800000075134,,response,,,,100,,,,,,,Space,keypress(Space),,,,,,,,-- --- ---- --- ------ ----- ------- ---- -- --- ------- --<br>------- ---------- ------ -- ----- -- ----- -- ---- ------<br>--- ----- --- --- ------ -------- ----- The ------ ----- --<br>----- ----- ---------- --- --- ------ ------ ---- -- ------<br>------- --- ------ ----- --- ---- ------- -- ---- --- --<br>------- ------,261213.30000000075,261209.80000000075,260818.599,260825.30000000075,260835.362,261218.228,,29,The
screen,html.Screen,2_1_1_1_30,2022-05-02T13:51:46.338Z,,,,,,,,,,,,,,,,,54,,,,,,,,,,,,,,317.07200000074226,,response,,,,100,,,,,,,Space,keypress(Space),,,,,,,,-- --- ---- --- ------ ----- ------- ---- -- --- ------- --<br>------- ---------- ------ -- ----- -- ----- -- ---- ------<br>--- ----- --- --- ------ -------- ----- --- market ----- --<br>----- ----- ---------- --- --- ------ ------ ---- -- ------<br>------- --- ------ ----- --- ---- ------- -- ---- --- --<br>------- ------,261538.5,261535.30000000075,261202.55,261214.6000000015,261218.228,261551.576,,30,market
screen,html.Screen,2_1_1_1_31,2022-05-02T13:51:46.647Z,,,,,,,,,,,,,,,,,54,,,,,,,,,,,,,,292.6240000029793,,response,,,,100,,,,,,,Space,keypress(Space),,,,,,,,-- --- ---- --- ------ ----- ------- ---- -- --- ------- --<br>------- ---------- ------ -- ----- -- ----- -- ---- ------<br>--- ----- --- --- ------ -------- ----- --- ------ value --<br>----- ----- ---------- --- --- ------ ------ ---- -- ------<br>------- --- ------ ----- --- ---- ------- -- ---- --- --<br>------- ------,261847.5,261844.20000000298,261535.653,261539.80000000075,261551.576,261868.168,,31,value
screen,html.Screen,2_1_1_1_32,2022-05-02T13:51:47.027Z,,,,,,,,,,,,,,,,,54,,,,,,,,,,,,,,356.13200000073994,,response,,,,100,,,,,,,Space,keypress(Space),,,,,,,,-- --- ---- --- ------ ----- ------- ---- -- --- ------- --<br>------- ---------- ------ -- ----- -- ----- -- ---- ------<br>--- ----- --- --- ------ -------- ----- --- ------ ----- of<br>----- ----- ---------- --- --- ------ ------ ---- -- ------<br>------- --- ------ ----- --- ---- ------- -- ---- --- --<br>------- ------,262227.5,262224.30000000075,261835.19,261848.70000000298,261868.168,262234.811,,32,of
screen,html.Screen,2_1_1_1_33,2022-05-02T13:51:47.385Z,,,,,,,,,,,,,,,,,54,,,,,,,,,,,,,,347.78900000150315,,response,,,,100,,,,,,,Space,keypress(Space),,,,,,,,-- --- ---- --- ------ ----- ------- ---- -- --- ------- --<br>------- ---------- ------ -- ----- -- ----- -- ---- ------<br>--- ----- --- --- ------ -------- ----- --- ------ ----- --<br>these ----- ---------- --- --- ------ ------ ---- -- ------<br>------- --- ------ ----- --- ---- ------- -- ---- --- --<br>------- ------,262586.200000003,262582.6000000015,262218.99,262228.700000003,262234.811,262601.902,,33,these
screen,html.Screen,2_1_1_1_34,2022-05-02T13:51:47.710Z,,,,,,,,,,,,,,,,,54,,,,,,,,,,,,,,305.4980000022333,,response,,,,100,,,,,,,Space,keypress(Space),,,,,,,,-- --- ---- --- ------ ----- ------- ---- -- --- ------- --<br>------- ---------- ------ -- ----- -- ----- -- ---- ------<br>--- ----- --- --- ------ -------- ----- --- ------ ----- --<br>----- bonds ---------- --- --- ------ ------ ---- -- ------<br>------- --- ------ ----- --- ---- ------- -- ---- --- --<br>------- ------,262910.80000000075,262907.40000000224,262585.474,262587.30000000075,262601.902,262918.069,,34,bonds
screen,html.Screen,2_1_1_1_35,2022-05-02T13:51:48.422Z,,,,,,,,,,,,,,,,,54,,,,,,,,,,,,,,701.5310000014724,,response,,,,100,,,,,,,Space,keypress(Space),,,,,,,,"-- --- ---- --- ------ ----- ------- ---- -- --- ------- --<br>------- ---------- ------ -- ----- -- ----- -- ---- ------<br>--- ----- --- --- ------ -------- ----- --- ------ ----- --<br>----- ----- plummeted, --- --- ------ ------ ---- -- ------<br>------- --- ------ ----- --- ---- ------- -- ---- --- --<br>------- ------",263622.80000000075,263619.6000000015,262902.144,262911.90000000224,262918.069,263635.237,,35,"plummeted,"
screen,html.Screen,2_1_1_1_36,2022-05-02T13:51:48.774Z,,,,,,,,,,,,,,,,,54,,,,,,,,,,,,,,336.3630000014673,,response,,,,100,,,,,,,Space,keypress(Space),,,,,,,,-- --- ---- --- ------ ----- ------- ---- -- --- ------- --<br>------- ---------- ------ -- ----- -- ----- -- ---- ------<br>--- ----- --- --- ------ -------- ----- --- ------ ----- --<br>----- ----- ---------- and --- ------ ------ ---- -- ------<br>------- --- ------ ----- --- ---- ------- -- ---- --- --<br>------- ------,263975.1000000015,263971.6000000015,263618.729,263623.90000000224,263635.237,263984.937,,36,and
screen,html.Screen,2_1_1_1_37,2022-05-02T13:51:49.042Z,,,,,,,,,,,,,,,,,54,,,,,,,,,,,,,,254.66300000151386,,response,,,,100,,,,,,,Space,keypress(Space),,,,,,,,-- --- ---- --- ------ ----- ------- ---- -- --- ------- --<br>------- ---------- ------ -- ----- -- ----- -- ---- ------<br>--- ----- --- --- ------ -------- ----- --- ------ ----- --<br>----- ----- ---------- --- the ------ ------ ---- -- ------<br>------- --- ------ ----- --- ---- ------- -- ---- --- --<br>------- ------,264242.700000003,264239.6000000015,263969.453,263976.1000000015,263984.937,264251.663,,37,the
screen,html.Screen,2_1_1_1_38,2022-05-02T13:51:49.315Z,,,,,,,,,,,,,,,,,54,,,,,,,,,,,,,,260.33699999999953,,response,,,,100,,,,,,,Space,keypress(Space),,,,,,,,-- --- ---- --- ------ ----- ------- ---- -- --- ------- --<br>------- ---------- ------ -- ----- -- ----- -- ---- ------<br>--- ----- --- --- ------ -------- ----- --- ------ ----- --<br>----- ----- ---------- --- --- market ------ ---- -- ------<br>------- --- ------ ----- --- ---- ------- -- ---- --- --<br>------- ------,264515.30000000075,264512,264235.544,264243.90000000224,264251.663,264535.019,,38,market
screen,html.Screen,2_1_1_1_39,2022-05-02T13:51:49.687Z,,,,,,,,,,,,,,,,,54,,,,,,,,,,,,,,349.78100000077393,,response,,,,100,,,,,,,Space,keypress(Space),,,,,,,,-- --- ---- --- ------ ----- ------- ---- -- --- ------- --<br>------- ---------- ------ -- ----- -- ----- -- ---- ------<br>--- ----- --- --- ------ -------- ----- --- ------ ----- --<br>----- ----- ---------- --- --- ------ became ---- -- ------<br>------- --- ------ ----- --- ---- ------- -- ---- --- --<br>------- ------,264888.30000000075,264884.80000000075,264518.644,264516.40000000224,264535.019,264902.051,,39,became
screen,html.Screen,2_1_1_1_40,2022-05-02T13:51:50.024Z,,,,,,,,,,,,,,,,,54,,,,,,,,,,,,,,319.8490000022575,,response,,,,100,,,,,,,Space,keypress(Space),,,,,,,,-- --- ---- --- ------ ----- ------- ---- -- --- ------- --<br>------- ---------- ------ -- ----- -- ----- -- ---- ------<br>--- ----- --- --- ------ -------- ----- --- ------ ----- --<br>----- ----- ---------- --- --- ------ ------ wary -- ------<br>------- --- ------ ----- --- ---- ------- -- ---- --- --<br>------- ------,265225.200000003,265221.90000000224,264885.359,264889.30000000075,264902.051,265234.777,,40,wary
screen,html.Screen,2_1_1_1_41,2022-05-02T13:51:50.382Z,,,,,,,,,,,,,,,,,54,,,,,,,,,,,,,,344.72299999999814,,response,,,,100,,,,,,,Space,keypress(Space),,,,,,,,-- --- ---- --- ------ ----- ------- ---- -- --- ------- --<br>------- ---------- ------ -- ----- -- ----- -- ---- ------<br>--- ----- --- --- ------ -------- ----- --- ------ ----- --<br>----- ----- ---------- --- --- ------ ------ ---- of ------<br>------- --- ------ ----- --- ---- ------- -- ---- --- --<br>------- ------,265582.80000000075,265579.5,265218.732,265226.40000000224,265234.777,265601.481,,41,of
screen,html.Screen,2_1_1_1_42,2022-05-02T13:51:50.809Z,,,,,,,,,,,,,,,,,54,,,,,,,,,,,,,,405.01899999997113,,response,,,,100,,,,,,,Space,keypress(Space),,,,,,,,-- --- ---- --- ------ ----- ------- ---- -- --- ------- --<br>------- ---------- ------ -- ----- -- ----- -- ---- ------<br>--- ----- --- --- ------ -------- ----- --- ------ ----- --<br>----- ----- ---------- --- --- ------ ------ ---- -- French<br>------- --- ------ ----- --- ---- ------- -- ---- --- --<br>------- ------,266009.700000003,266006.5,265585.536,265583.90000000224,265601.481,266018.419,,42,French
screen,html.Screen,2_1_1_1_43,2022-05-02T13:51:51.572Z,,,,,,,,,,,,,,,,,54,,,,,,,,,,,,,,750.7810000029858,,response,,,,100,,,,,,,Space,keypress(Space),,,,,,,,-- --- ---- --- ------ ----- ------- ---- -- --- ------- --<br>------- ---------- ------ -- ----- -- ----- -- ---- ------<br>--- ----- --- --- ------ -------- ----- --- ------ ----- --<br>----- ----- ---------- --- --- ------ ------ ---- -- ------<br>credit. --- ------ ----- --- ---- ------- -- ---- --- --<br>------- ------,266772.700000003,266769.200000003,266002.184,266010.90000000224,266018.419,266784.812,,43,credit.
screen,html.Screen,2_1_1_1_44,2022-05-02T13:51:51.965Z,,,,,,,,,,,,,,,,,54,,,,,,,,,,,,,,376.78800000151386,,response,,,,100,,,,,,,Space,keypress(Space),,,,,,,,-- --- ---- --- ------ ----- ------- ---- -- --- ------- --<br>------- ---------- ------ -- ----- -- ----- -- ---- ------<br>--- ----- --- --- ------ -------- ----- --- ------ ----- --<br>----- ----- ---------- --- --- ------ ------ ---- -- ------<br>------- The ------ ----- --- ---- ------- -- ---- --- --<br>------- ------,267165.30000000075,267161.6000000015,266769.113,266773.700000003,266784.812,267185.142,,44,The
screen,html.Screen,2_1_1_1_45,2022-05-02T13:51:52.289Z,,,,,,,,,,,,,,,,,54,,,,,,,,,,,,,,301.7580000022426,,response,,,,100,,,,,,,Space,keypress(Space),,,,,,,,-- --- ---- --- ------ ----- ------- ---- -- --- ------- --<br>------- ---------- ------ -- ----- -- ----- -- ---- ------<br>--- ----- --- --- ------ -------- ----- --- ------ ----- --<br>----- ----- ---------- --- --- ------ ------ ---- -- ------<br>------- --- French ----- --- ---- ------- -- ---- --- --<br>------- ------,267490.1000000015,267486.90000000224,267168.317,267166.40000000224,267185.142,267501.883,,45,French
screen,html.Screen,2_1_1_1_46,2022-05-02T13:51:52.594Z,,,,,,,,,,,,,,,,,54,,,,,,,,,,,,,,289.51700000226265,,response,,,,100,,,,,,,Space,keypress(Space),,,,,,,,-- --- ---- --- ------ ----- ------- ---- -- --- ------- --<br>------- ---------- ------ -- ----- -- ----- -- ---- ------<br>--- ----- --- --- ------ -------- ----- --- ------ ----- --<br>----- ----- ---------- --- --- ------ ------ ---- -- ------<br>------- --- ------ state --- ---- ------- -- ---- --- --<br>------- ------,267794.90000000224,267791.40000000224,267485.336,267491.200000003,267501.883,267801.685,,46,state
screen,html.Screen,2_1_1_1_47,2022-05-02T13:51:52.917Z,,,,,,,,,,,,,,,,,54,,,,,,,,,,,,,,312.2150000022375,,response,,,,100,,,,,,,Space,keypress(Space),,,,,,,,-- --- ---- --- ------ ----- ------- ---- -- --- ------- --<br>------- ---------- ------ -- ----- -- ----- -- ---- ------<br>--- ----- --- --- ------ -------- ----- --- ------ ----- --<br>----- ----- ---------- --- --- ------ ------ ---- -- ------<br>------- --- ------ ----- was ---- ------- -- ---- --- --<br>------- ------,268117.30000000075,268113.90000000224,267784.93,267796,267801.685,268134.717,,47,was
screen,html.Screen,2_1_1_1_48,2022-05-02T13:51:53.312Z,,,,,,,,,,,,,,,,,54,,,,,,,,,,,,,,374.683000002231,,response,,,,100,,,,,,,Space,keypress(Space),,,,,,,,-- --- ---- --- ------ ----- ------- ---- -- --- ------- --<br>------- ---------- ------ -- ----- -- ----- -- ---- ------<br>--- ----- --- --- ------ -------- ----- --- ------ ----- --<br>----- ----- ---------- --- --- ------ ------ ---- -- ------<br>------- --- ------ ----- --- left ------- -- ---- --- --<br>------- ------,268512.5,268509.40000000224,268118.77,268118.40000000224,268134.717,268518.513,,48,left
screen,html.Screen,2_1_1_1_49,2022-05-02T13:51:53.652Z,,,,,,,,,,,,,,,,,54,,,,,,,,,,,,,,331.18700000300305,,response,,,,100,,,,,,,Space,keypress(Space),,,,,,,,-- --- ---- --- ------ ----- ------- ---- -- --- ------- --<br>------- ---------- ------ -- ----- -- ----- -- ---- ------<br>--- ----- --- --- ------ -------- ----- --- ------ ----- --<br>----- ----- ---------- --- --- ------ ------ ---- -- ------<br>------- --- ------ ----- --- ---- without -- ---- --- --<br>------- ------,268853.30000000075,268849.700000003,268502.04,268513.6000000015,268518.513,268867.92,,49,without
screen,html.Screen,2_1_1_1_50,2022-05-02T13:51:53.999Z,,,,,,,,,,,,,,,,,54,,,,,,,,,,,,,,328.4800000022515,,response,,,,100,,,,,,,Space,keypress(Space),,,,,,,,-- --- ---- --- ------ ----- ------- ---- -- --- ------- --<br>------- ---------- ------ -- ----- -- ----- -- ---- ------<br>--- ----- --- --- ------ -------- ----- --- ------ ----- --<br>----- ----- ---------- --- --- ------ ------ ---- -- ------<br>------- --- ------ ----- --- ---- ------- an ---- --- --<br>------- ------,269200.1000000015,269196.40000000224,268851.344,268854.5,268867.92,269218.189,,50,an
screen,html.Screen,2_1_1_1_51,2022-05-02T13:51:54.534Z,,,,,,,,,,,,,,,,,54,,,,,,,,,,,,,,512.310999999987,,response,,,,100,,,,,,,Space,keypress(Space),,,,,,,,-- --- ---- --- ------ ----- ------- ---- -- --- ------- --<br>------- ---------- ------ -- ----- -- ----- -- ---- ------<br>--- ----- --- --- ------ -------- ----- --- ------ ----- --<br>----- ----- ---------- --- --- ------ ------ ---- -- ------<br>------- --- ------ ----- --- ---- ------- -- easy --- --<br>------- ------,269734.40000000224,269730.5,269201.377,269201.200000003,269218.189,269751.561,,51,easy
screen,html.Screen,2_1_1_1_52,2022-05-02T13:51:55.075Z,,,,,,,,,,,,,,,,,54,,,,,,,,,,,,,,520.5390000015032,,response,,,,100,,,,,,,Space,keypress(Space),,,,,,,,-- --- ---- --- ------ ----- ------- ---- -- --- ------- --<br>------- ---------- ------ -- ----- -- ----- -- ---- ------<br>--- ----- --- --- ------ -------- ----- --- ------ ----- --<br>----- ----- ---------- --- --- ------ ------ ---- -- ------<br>------- --- ------ ----- --- ---- ------- -- ---- way --<br>------- ------,270275.6000000015,270272.1000000015,269735.351,269735.5,269751.561,270284.5,,52,way
screen,html.Screen,2_1_1_1_53,2022-05-02T13:51:55.562Z,,,,,,,,,,,,,,,,,54,,,,,,,,,,,,,,475.1000000014901,,response,,,,100,,,,,,,Space,keypress(Space),,,,,,,,-- --- ---- --- ------ ----- ------- ---- -- --- ------- --<br>------- ---------- ------ -- ----- -- ----- -- ---- ------<br>--- ----- --- --- ------ -------- ----- --- ------ ----- --<br>----- ----- ---------- --- --- ------ ------ ---- -- ------<br>------- --- ------ ----- --- ---- ------- -- ---- --- of<br>------- ------,270762.90000000224,270759.6000000015,270268.709,270276.700000003,270284.5,270768.004,,53,of
screen,html.Screen,2_1_1_1_54,2022-05-02T13:51:56.179Z,,,,,,,,,,,,,,,,,54,,,,,,,,,,,,,,608.2960000007297,,response,,,,100,,,,,,,Space,keypress(Space),,,,,,,,-- --- ---- --- ------ ----- ------- ---- -- --- ------- --<br>------- ---------- ------ -- ----- -- ----- -- ---- ------<br>--- ----- --- --- ------ -------- ----- --- ------ ----- --<br>----- ----- ---------- --- --- ------ ------ ---- -- ------<br>------- --- ------ ----- --- ---- ------- -- ---- --- --<br>raising ------,271379.700000003,271376.30000000075,270752.042,270764,270768.004,271401.609,,54,raising
screen,html.Screen,2_1_1_1_55,2022-05-02T13:51:56.905Z,,,,,,,,,,,,,,,,,54,,,,,,,,,,,,,,701.0910000029835,,response,,,,100,,,,,,,Space,keypress(Space),,,,,,,,-- --- ---- --- ------ ----- ------- ---- -- --- ------- --<br>------- ---------- ------ -- ----- -- ----- -- ---- ------<br>--- ----- --- --- ------ -------- ----- --- ------ ----- --<br>----- ----- ---------- --- --- ------ ------ ---- -- ------<br>------- --- ------ ----- --- ---- ------- -- ---- --- --<br>------- money.,272105.80000000075,272102.700000003,271368.768,271380.80000000075,271401.609,272151.152,,55,money.
Item 100,flow.Loop,2_1_1_1,2022-05-02T13:51:56.907Z,,,,,,,,,,,,,,,,,,,,,,,,,,,,,,,47966.36300000298,,completion,,,,,G,,,,,,,,,,,silence,,,,,272108,272102.700000003,224119.82,224124.1000000015,224136.337,272151.152,,,
Question 1,html.Screen,2_1_1_2,2022-05-02T13:52:04.227Z,,,,,,,,,,,,,,,,,,,,,,,,,,,,true,TRUE,,7274.248000002233,,response,,,,100,G,,,,,,TRUE,click #choice-1,,,,silence,,,,,279428.30000000075,279425.40000000224,272101.668,272109.1000000015,272151.152,279450.649,,,
Question 2,html.Screen,2_1_1_3,2022-05-02T13:52:07.508Z,,,,,,,,,,,,,,,,,,,,,,,,,,,,true,FALSE,,3255.0510000030044,,response,,,,100,G,,,,,,FALSE,click #choice-2,,,,silence,,,,,282709,282705.700000003,279417.516,279428.700000003,279450.649,282717.179,,,
Item 100,flow.Sequence,2_1_1,2022-05-02T13:52:07.509Z,,,,,,,,,,,,,,,,,,,,,,,,,,,,,,,68568.96200000297,,completion,,,,,,,,,,,,,,,,,,,,,282709.700000003,282705.700000003,214120.236,214130.30000000075,214136.738,282717.179,,,
End of Practice,html.Page,2_1_2,2022-05-02T13:52:27.503Z,,,,,,,,,,,,,,,,,,,,,,,,,,,,,,,19999.235999999975,,timeout,,,,,,,,,,,,,,,,,,,,,302703.6000000015,302699.937,282700.551,282710,282717.179,302716.415,,,
Practice,flow.Sequence,2_1,2022-05-02T13:52:27.505Z,,,,,,,,,,,,,,,,,,,,,,,,,,,,,,,138877.773,,completion,,,,,,,,,,,,,,,,,,,,,302705.40000000224,302699.937,163789.374,163804,163822.164,302716.415,,,
Trap_instruction,html.Page,2_2_0,2022-05-02T13:52:47.503Z,,,,,,,,,,,,,,,,,,,,,,,,,,,,,,,20165.926000000036,,timeout,,,,,,,,,,,,,,,,,,,,,322704,322699.685,302699.937,302707,302716.415,322882.341,,,
trap_trial,html.Screen,2_2_1,2022-05-02T13:52:55.994Z,,,,,,,,,,,,,,,,,,,,,,,,,,,,true,1,,8309.55900000222,,response,,,,,,,,,,,1,click #choice-1,,,,,,,,,331194.80000000075,331191.90000000224,322699.685,322705.40000000224,322882.341,331198.509,,,
end of trap trial,html.Page,2_2_2,2022-05-02T13:53:05.983Z,,,,,,,,,,,,,,,,,,,,,,,,,,,,,,,9999.788,,timeout,,,,,,,,,,,,,,,,,,,,,341183.30000000075,341181.406,331181.918,331195.30000000075,331198.509,341198.297,,,
Trap 1,flow.Sequence,2_2,2022-05-02T13:53:05.983Z,,,,,,,,,,,,,,,,,,,,,,,,,,,,,,,38464.99100000004,,completion,,,,,,,,,,,,,,,,,,,,,341184.1000000015,341181.406,302699.937,302706.5,302716.415,341198.297,,,
Standby,html.Page,2_3_0,2022-05-02T13:53:13.982Z,,,,,,,,,,,,,,,,,,,,,,,,,,,,,,,7999.472999999998,,timeout,,,,,,,,,,,,,,,,,,,,,349183.200000003,349181.174,341181.406,341184.700000003,341198.297,349197.77,,,
Holding screen,html.Screen,2_3_1_0_0,2022-05-02T13:53:20.981Z,,,,,,,,,,,,,,,,,,,,,,,,,,,,,,,6999.690000000002,,timeout,,,,,,,,,,,,,,,,,,,,,356182.5,356180.775,349181.174,349184,349197.77,356197.46,,,
screen,html.Screen,2_3_1_0_1_0,2022-05-02T13:53:23.057Z,,,,,,,,,,,,,,,,,19,,,,,,,,,,,,,,2058.340000000724,,response,,,,17,G,,,,,,Space,keypress(Space),,,,instrumental,,,,"Interestingly, --- -------- -------- ---------- ---- -------<br>-- ---------- -- --- ----- ------ ----- ---- --------- ----<br>------- ------ -------- -- ------ ---------- ------ ---<br>------ -- -- ---- -- ---------- -------- ------ ---- -------<br>---- --- --------- ------- ----- --------- ---- ----- --<br>------ -------- -- ------ -- ---- ------------",358258.5,358255.80000000075,356180.775,356183,356197.46,358264.468,,0,"Interestingly,"
screen,html.Screen,2_3_1_0_1_1,2022-05-02T13:53:23.428Z,,,,,,,,,,,,,,,,,19,,,,,,,,,,,,,,362.73200000298675,,response,,,,17,G,,,,,,Space,keypress(Space),,,,instrumental,,,,-------------- the -------- -------- ---------- ---- -------<br>-- ---------- -- --- ----- ------ ----- ---- --------- ----<br>------- ------ -------- -- ------ ---------- ------ ---<br>------ -- -- ---- -- ---------- -------- ------ ---- -------<br>---- --- --------- ------- ----- --------- ---- ----- --<br>------ -------- -- ------ -- ---- ------------,358629,358627.200000003,358247.542,358259,358264.468,358647.487,,1,the
screen,html.Screen,2_3_1_0_1_2,2022-05-02T13:53:23.682Z,,,,,,,,,,,,,,,,,19,,,,,,,,,,,,,,234.01299999997718,,response,,,,17,G,,,,,,Space,keypress(Space),,,,instrumental,,,,-------------- --- heaviest -------- ---------- ---- -------<br>-- ---------- -- --- ----- ------ ----- ---- --------- ----<br>------- ------ -------- -- ------ ---------- ------ ---<br>------ -- -- ---- -- ---------- -------- ------ ---- -------<br>---- --- --------- ------- ----- --------- ---- ----- --<br>------ -------- -- ------ -- ---- ------------,358883.30000000075,358881.5,358631.16,358629.6000000015,358647.487,358897.693,,2,heaviest
screen,html.Screen,2_3_1_0_1_3,2022-05-02T13:53:24.051Z,,,,,,,,,,,,,,,,,19,,,,,,,,,,,,,,351.8069999999716,,response,,,,17,G,,,,,,Space,keypress(Space),,,,instrumental,,,,-------------- --- -------- isotopes ---------- ---- -------<br>-- ---------- -- --- ----- ------ ----- ---- --------- ----<br>------- ------ -------- -- ------ ---------- ------ ---<br>------ -- -- ---- -- ---------- -------- ------ ---- -------<br>---- --- --------- ------- ----- --------- ---- ----- --<br>------ -------- -- ------ -- ---- ------------,359252.80000000075,359249.5,358880.76,358883.700000003,358897.693,359264.174,,3,isotopes
screen,html.Screen,2_3_1_0_1_4,2022-05-02T13:53:24.733Z,,,,,,,,,,,,,,,,,19,,,,,,,,,,,,,,668.926000001491,,response,,,,17,G,,,,,,Space,keypress(Space),,,,instrumental,,,,-------------- --- -------- -------- physicists ---- -------<br>-- ---------- -- --- ----- ------ ----- ---- --------- ----<br>------- ------ -------- -- ------ ---------- ------ ---<br>------ -- -- ---- -- ---------- -------- ------ ---- -------<br>---- --- --------- ------- ----- --------- ---- ----- --<br>------ -------- -- ------ -- ---- ------------,359934.6000000015,359933.1000000015,359247.492,359253.6000000015,359264.174,359947.415,,4,physicists
screen,html.Screen,2_3_1_0_1_5,2022-05-02T13:53:25.138Z,,,,,,,,,,,,,,,,,19,,,,,,,,,,,,,,390.385000000766,,response,,,,17,G,,,,,,Space,keypress(Space),,,,instrumental,,,,-------------- --- -------- -------- ---------- have -------<br>-- ---------- -- --- ----- ------ ----- ---- --------- ----<br>------- ------ -------- -- ------ ---------- ------ ---<br>------ -- -- ---- -- ---------- -------- ------ ---- -------<br>---- --- --------- ------- ----- --------- ---- ----- --<br>------ -------- -- ------ -- ---- ------------,360339.5,360337.80000000075,359931.243,359935,359947.415,360347.514,,5,have
screen,html.Screen,2_3_1_0_1_6,2022-05-02T13:53:25.453Z,,,,,,,,,,,,,,,,,19,,,,,,,,,,,,,,303.7860000007204,,response,,,,17,G,,,,,,Space,keypress(Space),,,,instrumental,,,,-------------- --- -------- -------- ---------- ---- managed<br>-- ---------- -- --- ----- ------ ----- ---- --------- ----<br>------- ------ -------- -- ------ ---------- ------ ---<br>------ -- -- ---- -- ---------- -------- ------ ---- -------<br>---- --- --------- ------- ----- --------- ---- ----- --<br>------ -------- -- ------ -- ---- ------------,360654.80000000075,360651.30000000075,360330.697,360340,360347.514,360664.35,,6,managed
screen,html.Screen,2_3_1_0_1_7,2022-05-02T13:53:25.803Z,,,,,,,,,,,,,,,,,19,,,,,,,,,,,,,,335.45000000076834,,response,,,,17,G,,,,,,Space,keypress(Space),,,,instrumental,,,,-------------- --- -------- -------- ---------- ---- -------<br>to ---------- -- --- ----- ------ ----- ---- --------- ----<br>------- ------ -------- -- ------ ---------- ------ ---<br>------ -- -- ---- -- ---------- -------- ------ ---- -------<br>---- --- --------- ------- ----- --------- ---- ----- --<br>------ -------- -- ------ -- ---- ------------,361004,360999.80000000075,360647.264,360655.80000000075,360664.35,361014.153,,7,to
screen,html.Screen,2_3_1_0_1_8,2022-05-02T13:53:26.141Z,,,,,,,,,,,,,,,,,19,,,,,,,,,,,,,,326.84700000000885,,response,,,,17,G,,,,,,Space,keypress(Space),,,,instrumental,,,,-------------- --- -------- -------- ---------- ---- -------<br>-- synthesize -- --- ----- ------ ----- ---- --------- ----<br>------- ------ -------- -- ------ ---------- ------ ---<br>------ -- -- ---- -- ---------- -------- ------ ---- -------<br>---- --- --------- ------- ----- --------- ---- ----- --<br>------ -------- -- ------ -- ---- ------------,361342.700000003,361341,360997.761,361005.30000000075,361014.153,361347.341,,8,synthesize
screen,html.Screen,2_3_1_0_1_9,2022-05-02T13:53:26.553Z,,,,,,,,,,,,,,,,,19,,,,,,,,,,,,,,404.7590000014752,,response,,,,17,G,,,,,,Space,keypress(Space),,,,instrumental,,,,-------------- --- -------- -------- ---------- ---- -------<br>-- ---------- so --- ----- ------ ----- ---- --------- ----<br>------- ------ -------- -- ------ ---------- ------ ---<br>------ -- -- ---- -- ---------- -------- ------ ---- -------<br>---- --- --------- ------- ----- --------- ---- ----- --<br>------ -------- -- ------ -- ---- ------------,361754.200000003,361752.1000000015,361330.636,361343.1000000015,361347.341,361764.136,,9,so
screen,html.Screen,2_3_1_0_1_10,2022-05-02T13:53:26.882Z,,,,,,,,,,,,,,,,,19,,,,,,,,,,,,,,317.06400000298163,,response,,,,17,G,,,,,,Space,keypress(Space),,,,instrumental,,,,-------------- --- -------- -------- ---------- ---- -------<br>-- ---------- -- far ----- ------ ----- ---- --------- ----<br>------- ------ -------- -- ------ ---------- ------ ---<br>------ -- -- ---- -- ---------- -------- ------ ---- -------<br>---- --- --------- ------- ----- --------- ---- ----- --<br>------ -------- -- ------ -- ---- ------------,362083.80000000075,362081.200000003,361747.323,361754.6000000015,361764.136,362097.353,,10,far
screen,html.Screen,2_3_1_0_1_11,2022-05-02T13:53:27.185Z,,,,,,,,,,,,,,,,,19,,,,,,,,,,,,,,287.6469999999972,,response,,,,17,G,,,,,,Space,keypress(Space),,,,instrumental,,,,-------------- --- -------- -------- ---------- ---- -------<br>-- ---------- -- --- don't ------ ----- ---- --------- ----<br>------- ------ -------- -- ------ ---------- ------ ---<br>------ -- -- ---- -- ---------- -------- ------ ---- -------<br>---- --- --------- ------- ----- --------- ---- ----- --<br>------ -------- -- ------ -- ---- ------------,362386.700000003,362385,362081.013,362084.6000000015,362097.353,362397.331,,11,don't
screen,html.Screen,2_3_1_0_1_12,2022-05-02T13:53:27.532Z,,,,,,,,,,,,,,,,,19,,,,,,,,,,,,,,334.6689999999944,,response,,,,17,G,,,,,,Space,keypress(Space),,,,instrumental,,,,-------------- --- -------- -------- ---------- ---- -------<br>-- ---------- -- --- ----- behave ----- ---- --------- ----<br>------- ------ -------- -- ------ ---------- ------ ---<br>------ -- -- ---- -- ---------- -------- ------ ---- -------<br>---- --- --------- ------- ----- --------- ---- ----- --<br>------ -------- -- ------ -- ---- ------------,362733.6000000015,362732,362380.53,362387.1000000015,362397.331,362747.202,,12,behave
screen,html.Screen,2_3_1_0_1_13,2022-05-02T13:53:27.904Z,,,,,,,,,,,,,,,,,19,,,,,,,,,,,,,,355.99800000299,,response,,,,17,G,,,,,,Space,keypress(Space),,,,instrumental,,,,-------------- --- -------- -------- ---------- ---- -------<br>-- ---------- -- --- ----- ------ quite ---- --------- ----<br>------- ------ -------- -- ------ ---------- ------ ---<br>------ -- -- ---- -- ---------- -------- ------ ---- -------<br>---- --- --------- ------- ----- --------- ---- ----- --<br>------ -------- -- ------ -- ---- ------------,363105.700000003,363103.200000003,362730.739,362734.1000000015,362747.202,363114.577,,13,quite
screen,html.Screen,2_3_1_0_1_14,2022-05-02T13:53:28.465Z,,,,,,,,,,,,,,,,,19,,,,,,,,,,,,,,549.62300000299,,response,,,,17,G,,,,,,Space,keypress(Space),,,,instrumental,,,,-------------- --- -------- -------- ---------- ---- -------<br>-- ---------- -- --- ----- ------ ----- like --------- ----<br>------- ------ -------- -- ------ ---------- ------ ---<br>------ -- -- ---- -- ---------- -------- ------ ---- -------<br>---- --- --------- ------- ----- --------- ---- ----- --<br>------ -------- -- ------ -- ---- ------------,363666.6000000015,363664.200000003,363097.285,363106.200000003,363114.577,363680.456,,14,like
screen,html.Screen,2_3_1_0_1_15,2022-05-02T13:53:28.838Z,,,,,,,,,,,,,,,,,19,,,,,,,,,,,,,,356.0439999999944,,response,,,,17,G,,,,,,Space,keypress(Space),,,,instrumental,,,,-------------- --- -------- -------- ---------- ---- -------<br>-- ---------- -- --- ----- ------ ----- ---- science's ----<br>------- ------ -------- -- ------ ---------- ------ ---<br>------ -- -- ---- -- ---------- -------- ------ ---- -------<br>---- --- --------- ------- ----- --------- ---- ----- --<br>------ -------- -- ------ -- ---- ------------,364039.90000000224,364036.5,363664.394,363667,363680.456,364047.212,,15,science's
screen,html.Screen,2_3_1_0_1_16,2022-05-02T13:53:29.244Z,,,,,,,,,,,,,,,,,19,,,,,,,,,,,,,,395.28800000000047,,response,,,,17,G,,,,,,Space,keypress(Space),,,,instrumental,,,,-------------- --- -------- -------- ---------- ---- -------<br>-- ---------- -- --- ----- ------ ----- ---- --------- best<br>------- ------ -------- -- ------ ---------- ------ ---<br>------ -- -- ---- -- ---------- -------- ------ ---- -------<br>---- --- --------- ------- ----- --------- ---- ----- --<br>------ -------- -- ------ -- ---- ------------,364445.80000000075,364442.5,364030.611,364041.1000000015,364047.212,364463.838,,16,best
screen,html.Screen,2_3_1_0_1_17,2022-05-02T13:53:29.602Z,,,,,,,,,,,,,,,,,19,,,,,,,,,,,,,,336.1620000000112,,response,,,,17,G,,,,,,Space,keypress(Space),,,,instrumental,,,,-------------- --- -------- -------- ---------- ---- -------<br>-- ---------- -- --- ----- ------ ----- ---- --------- ----<br>current ------ -------- -- ------ ---------- ------ ---<br>------ -- -- ---- -- ---------- -------- ------ ---- -------<br>---- --- --------- ------- ----- --------- ---- ----- --<br>------ -------- -- ------ -- ---- ------------,364803.80000000075,364800,364447.128,364446.700000003,364463.838,364813.818,,17,current
screen,html.Screen,2_3_1_0_1_18,2022-05-02T13:53:29.934Z,,,,,,,,,,,,,,,,,19,,,,,,,,,,,,,,319.48200000071665,,response,,,,17,G,,,,,,Space,keypress(Space),,,,instrumental,,,,-------------- --- -------- -------- ---------- ---- -------<br>-- ---------- -- --- ----- ------ ----- ---- --------- ----<br>------- models -------- -- ------ ---------- ------ ---<br>------ -- -- ---- -- ---------- -------- ------ ---- -------<br>---- --- --------- ------- ----- --------- ---- ----- --<br>------ -------- -- ------ -- ---- ------------,365135.80000000075,365133.30000000075,364797.559,364805.30000000075,364813.818,365147.224,,18,models
screen,html.Screen,2_3_1_0_1_19,2022-05-02T13:53:30.640Z,,,,,,,,,,,,,,,,,19,,,,,,,,,,,,,,692.4760000029928,,response,,,,17,G,,,,,,Space,keypress(Space),,,,instrumental,,,,"-------------- --- -------- -------- ---------- ---- -------<br>-- ---------- -- --- ----- ------ ----- ---- --------- ----<br>------- ------ predict, -- ------ ---------- ------ ---<br>------ -- -- ---- -- ---------- -------- ------ ---- -------<br>---- --- --------- ------- ----- --------- ---- ----- --<br>------ -------- -- ------ -- ---- ------------",365841.5,365839.700000003,365130.563,365136.200000003,365147.224,365847.533,,19,"predict,"
screen,html.Screen,2_3_1_0_1_20,2022-05-02T13:53:31.046Z,,,,,,,,,,,,,,,,,19,,,,,,,,,,,,,,397.9670000000042,,response,,,,17,G,,,,,,Space,keypress(Space),,,,instrumental,,,,-------------- --- -------- -------- ---------- ---- -------<br>-- ---------- -- --- ----- ------ ----- ---- --------- ----<br>------- ------ -------- so ------ ---------- ------ ---<br>------ -- -- ---- -- ---------- -------- ------ ---- -------<br>---- --- --------- ------- ----- --------- ---- ----- --<br>------ -------- -- ------ -- ---- ------------,366247.1000000015,366245.5,365830.864,365841.90000000224,365847.533,366264.828,,20,so
screen,html.Screen,2_3_1_0_1_21,2022-05-02T13:53:31.385Z,,,,,,,,,,,,,,,,,19,,,,,,,,,,,,,,318.6720000000205,,response,,,,17,G,,,,,,Space,keypress(Space),,,,instrumental,,,,-------------- --- -------- -------- ---------- ---- -------<br>-- ---------- -- --- ----- ------ ----- ---- --------- ----<br>------- ------ -------- -- stable ---------- ------ ---<br>------ -- -- ---- -- ---------- -------- ------ ---- -------<br>---- --- --------- ------- ----- --------- ---- ----- --<br>------ -------- -- ------ -- ---- ------------,366586.80000000075,366583.5,366247.151,366247.40000000224,366264.828,366597.754,,21,stable
screen,html.Screen,2_3_1_0_1_22,2022-05-02T13:53:31.667Z,,,,,,,,,,,,,,,,,19,,,,,,,,,,,,,,269.0460000007297,,response,,,,17,G,,,,,,Space,keypress(Space),,,,instrumental,,,,-------------- --- -------- -------- ---------- ---- -------<br>-- ---------- -- --- ----- ------ ----- ---- --------- ----<br>------- ------ -------- -- ------ superheavy ------ ---<br>------ -- -- ---- -- ---------- -------- ------ ---- -------<br>---- --- --------- ------- ----- --------- ---- ----- --<br>------ -------- -- ------ -- ---- ------------,366868.700000003,366866.80000000075,366580.7,366587.90000000224,366597.754,366880.45,,22,superheavy
screen,html.Screen,2_3_1_0_1_23,2022-05-02T13:53:32.753Z,,,,,,,,,,,,,,,,,19,,,,,,,,,,,,,,1069.7500000029686,,response,,,,17,G,,,,,,Space,keypress(Space),,,,instrumental,,,,-------------- --- -------- -------- ---------- ---- -------<br>-- ---------- -- --- ----- ------ ----- ---- --------- ----<br>------- ------ -------- -- ------ ---------- nuclei ---<br>------ -- -- ---- -- ---------- -------- ------ ---- -------<br>---- --- --------- ------- ----- --------- ---- ----- --<br>------ -------- -- ------ -- ---- ------------,367954,367950.200000003,366864.558,366869,366880.45,367963.981,,23,nuclei
screen,html.Screen,2_3_1_0_1_24,2022-05-02T13:53:33.323Z,,,,,,,,,,,,,,,,,19,,,,,,,,,,,,,,556.5189999999711,,response,,,,17,G,,,,,,Space,keypress(Space),,,,instrumental,,,,-------------- --- -------- -------- ---------- ---- -------<br>-- ---------- -- --- ----- ------ ----- ---- --------- ----<br>------- ------ -------- -- ------ ---------- ------ are<br>------ -- -- ---- -- ---------- -------- ------ ---- -------<br>---- --- --------- ------- ----- --------- ---- ----- --<br>------ -------- -- ------ -- ---- ------------,368524.700000003,368520.5,367947.805,367955.200000003,367963.981,368530.518,,24,are
screen,html.Screen,2_3_1_0_1_25,2022-05-02T13:53:33.824Z,,,,,,,,,,,,,,,,,19,,,,,,,,,,,,,,492.0820000015083,,response,,,,17,G,,,,,,Space,keypress(Space),,,,instrumental,,,,-------------- --- -------- -------- ---------- ---- -------<br>-- ---------- -- --- ----- ------ ----- ---- --------- ----<br>------- ------ -------- -- ------ ---------- ------ ---<br>likely -- -- ---- -- ---------- -------- ------ ---- -------<br>---- --- --------- ------- ----- --------- ---- ----- --<br>------ -------- -- ------ -- ---- ------------,369025.700000003,369022.6000000015,368514.093,368525.80000000075,368530.518,369030.43,,25,likely
screen,html.Screen,2_3_1_0_1_26,2022-05-02T13:53:34.145Z,,,,,,,,,,,,,,,,,19,,,,,,,,,,,,,,313.87000000075204,,response,,,,17,G,,,,,,Space,keypress(Space),,,,instrumental,,,,-------------- --- -------- -------- ---------- ---- -------<br>-- ---------- -- --- ----- ------ ----- ---- --------- ----<br>------- ------ -------- -- ------ ---------- ------ ---<br>------ to -- ---- -- ---------- -------- ------ ---- -------<br>---- --- --------- ------- ----- --------- ---- ----- --<br>------ -------- -- ------ -- ---- ------------,369346.6000000015,369344.30000000075,369013.75,369026.200000003,369030.43,369363.643,,26,to
screen,html.Screen,2_3_1_0_1_27,2022-05-02T13:53:34.417Z,,,,,,,,,,,,,,,,,19,,,,,,,,,,,,,,253.35700000001816,,response,,,,17,G,,,,,,Space,keypress(Space),,,,instrumental,,,,-------------- --- -------- -------- ---------- ---- -------<br>-- ---------- -- --- ----- ------ ----- ---- --------- ----<br>------- ------ -------- -- ------ ---------- ------ ---<br>------ -- be ---- -- ---------- -------- ------ ---- -------<br>---- --- --------- ------- ----- --------- ---- ----- --<br>------ -------- -- ------ -- ---- ------------,369618.80000000075,369617,369347.096,369347.30000000075,369363.643,369630.449,,27,be
screen,html.Screen,2_3_1_0_1_28,2022-05-02T13:53:34.773Z,,,,,,,,,,,,,,,,,19,,,,,,,,,,,,,,339.9510000022128,,response,,,,17,G,,,,,,Space,keypress(Space),,,,instrumental,,,,-------------- --- -------- -------- ---------- ---- -------<br>-- ---------- -- --- ----- ------ ----- ---- --------- ----<br>------- ------ -------- -- ------ ---------- ------ ---<br>------ -- -- full -- ---------- -------- ------ ---- -------<br>---- --- --------- ------- ----- --------- ---- ----- --<br>------ -------- -- ------ -- ---- ------------,369974.30000000075,369970.40000000224,369613.923,369619.200000003,369630.449,369980.441,,28,full
screen,html.Screen,2_3_1_0_1_29,2022-05-02T13:53:35.141Z,,,,,,,,,,,,,,,,,19,,,,,,,,,,,,,,360.7590000029886,,response,,,,17,G,,,,,,Space,keypress(Space),,,,instrumental,,,,-------------- --- -------- -------- ---------- ---- -------<br>-- ---------- -- --- ----- ------ ----- ---- --------- ----<br>------- ------ -------- -- ------ ---------- ------ ---<br>------ -- -- ---- of ---------- -------- ------ ---- -------<br>---- --- --------- ------- ----- --------- ---- ----- --<br>------ -------- -- ------ -- ---- ------------,370343,370341.200000003,369963.633,369975.5,369980.441,370346.884,,29,of
screen,html.Screen,2_3_1_0_1_30,2022-05-02T13:53:36.438Z,,,,,,,,,,,,,,,,,19,,,,,,,,,,,,,,1289.916000000725,,response,,,,17,G,,,,,,Space,keypress(Space),,,,instrumental,,,,-------------- --- -------- -------- ---------- ---- -------<br>-- ---------- -- --- ----- ------ ----- ---- --------- ----<br>------- ------ -------- -- ------ ---------- ------ ---<br>------ -- -- ---- -- surprises. -------- ------ ---- -------<br>---- --- --------- ------- ----- --------- ---- ----- --<br>------ -------- -- ------ -- ---- ------------,371639.40000000224,371636.80000000075,370330.303,370343.40000000224,370346.884,371647.326,,30,surprises.
screen,html.Screen,2_3_1_0_1_31,2022-05-02T13:53:37.144Z,,,,,,,,,,,,,,,,,19,,,,,,,,,,,,,,696.2740000014892,,response,,,,17,G,,,,,,Space,keypress(Space),,,,instrumental,,,,-------------- --- -------- -------- ---------- ---- -------<br>-- ---------- -- --- ----- ------ ----- ---- --------- ----<br>------- ------ -------- -- ------ ---------- ------ ---<br>------ -- -- ---- -- ---------- Chemists ------ ---- -------<br>---- --- --------- ------- ----- --------- ---- ----- --<br>------ -------- -- ------ -- ---- ------------,372345.6000000015,372343.6000000015,371630.228,371640.200000003,371647.326,372363.883,,31,Chemists
screen,html.Screen,2_3_1_0_1_32,2022-05-02T13:53:37.867Z,,,,,,,,,,,,,,,,,19,,,,,,,,,,,,,,700.8170000030077,,response,,,,17,G,,,,,,Space,keypress(Space),,,,instrumental,,,,-------------- --- -------- -------- ---------- ---- -------<br>-- ---------- -- --- ----- ------ ----- ---- --------- ----<br>------- ------ -------- -- ------ ---------- ------ ---<br>------ -- -- ---- -- ---------- -------- cannot ---- -------<br>---- --- --------- ------- ----- --------- ---- ----- --<br>------ -------- -- ------ -- ---- ------------,373068.700000003,373064.700000003,372331.33,372346,372363.883,373080.239,,32,cannot
screen,html.Screen,2_3_1_0_1_33,2022-05-02T13:53:38.351Z,,,,,,,,,,,,,,,,,19,,,,,,,,,,,,,,468.6610000022338,,response,,,,17,G,,,,,,Space,keypress(Space),,,,instrumental,,,,-------------- --- -------- -------- ---------- ---- -------<br>-- ---------- -- --- ----- ------ ----- ---- --------- ----<br>------- ------ -------- -- ------ ---------- ------ ---<br>------ -- -- ---- -- ---------- -------- ------ even -------<br>---- --- --------- ------- ----- --------- ---- ----- --<br>------ -------- -- ------ -- ---- ------------,373552.80000000075,373548.90000000224,373063.584,373069.80000000075,373080.239,373563.624,,33,even
screen,html.Screen,2_3_1_0_1_34,2022-05-02T13:53:38.671Z,,,,,,,,,,,,,,,,,19,,,,,,,,,,,,,,305.4760000014794,,response,,,,17,G,,,,,,Space,keypress(Space),,,,instrumental,,,,-------------- --- -------- -------- ---------- ---- -------<br>-- ---------- -- --- ----- ------ ----- ---- --------- ----<br>------- ------ -------- -- ------ ---------- ------ ---<br>------ -- -- ---- -- ---------- -------- ------ ---- predict<br>---- --- --------- ------- ----- --------- ---- ----- --<br>------ -------- -- ------ -- ---- ------------,373872,373869.1000000015,373546.875,373554,373563.624,373880.277,,34,predict
screen,html.Screen,2_3_1_0_1_35,2022-05-02T13:53:39.136Z,,,,,,,,,,,,,,,,,19,,,,,,,,,,,,,,455.0230000007432,,response,,,,17,G,,,,,,Space,keypress(Space),,,,instrumental,,,,-------------- --- -------- -------- ---------- ---- -------<br>-- ---------- -- --- ----- ------ ----- ---- --------- ----<br>------- ------ -------- -- ------ ---------- ------ ---<br>------ -- -- ---- -- ---------- -------- ------ ---- -------<br>with --- --------- ------- ----- --------- ---- ----- --<br>------ -------- -- ------ -- ---- ------------,374337,374335.30000000075,373863.789,373872.80000000075,373880.277,374346.957,,35,with
screen,html.Screen,2_3_1_0_1_36,2022-05-02T13:53:39.746Z,,,,,,,,,,,,,,,,,19,,,,,,,,,,,,,,599.1430000014952,,response,,,,17,G,,,,,,Space,keypress(Space),,,,instrumental,,,,-------------- --- -------- -------- ---------- ---- -------<br>-- ---------- -- --- ----- ------ ----- ---- --------- ----<br>------- ------ -------- -- ------ ---------- ------ ---<br>------ -- -- ---- -- ---------- -------- ------ ---- -------<br>---- any --------- ------- ----- --------- ---- ----- --<br>------ -------- -- ------ -- ---- ------------,374947.90000000224,374946.1000000015,374330.067,374337.40000000224,374346.957,374964.287,,36,any
screen,html.Screen,2_3_1_0_1_37,2022-05-02T13:53:40.305Z,,,,,,,,,,,,,,,,,19,,,,,,,,,,,,,,539.413000002969,,response,,,,17,G,,,,,,Space,keypress(Space),,,,instrumental,,,,-------------- --- -------- -------- ---------- ---- -------<br>-- ---------- -- --- ----- ------ ----- ---- --------- ----<br>------- ------ -------- -- ------ ---------- ------ ---<br>------ -- -- ---- -- ---------- -------- ------ ---- -------<br>---- --- certainty ------- ----- --------- ---- ----- --<br>------ -------- -- ------ -- ---- ------------,375506.5,375503.700000003,374946.83,374948.30000000075,374964.287,375513.441,,37,certainty
screen,html.Screen,2_3_1_0_1_38,2022-05-02T13:53:40.815Z,,,,,,,,,,,,,,,,,19,,,,,,,,,,,,,,501.7590000029886,,response,,,,17,G,,,,,,Space,keypress(Space),,,,instrumental,,,,-------------- --- -------- -------- ---------- ---- -------<br>-- ---------- -- --- ----- ------ ----- ---- --------- ----<br>------- ------ -------- -- ------ ---------- ------ ---<br>------ -- -- ---- -- ---------- -------- ------ ---- -------<br>---- --- --------- whether ----- --------- ---- ----- --<br>------ -------- -- ------ -- ---- ------------,376017,376015.200000003,375496.718,375506.80000000075,375513.441,376030.244,,38,whether
screen,html.Screen,2_3_1_0_1_39,2022-05-02T13:53:41.306Z,,,,,,,,,,,,,,,,,19,,,,,,,,,,,,,,472.75599999999395,,response,,,,17,G,,,,,,Space,keypress(Space),,,,instrumental,,,,-------------- --- -------- -------- ---------- ---- -------<br>-- ---------- -- --- ----- ------ ----- ---- --------- ----<br>------- ------ -------- -- ------ ---------- ------ ---<br>------ -- -- ---- -- ---------- -------- ------ ---- -------<br>---- --- --------- ------- these --------- ---- ----- --<br>------ -------- -- ------ -- ---- ------------,376506.90000000224,376503,376013.737,376017.40000000224,376030.244,376513.93,,39,these
