sender,sender_type,sender_id,timestamp,meta,,Blues,Classical,Country,Dance,Electronic,Folk,Gospel,Hip-Hop,Jazz,Latin,Musical/Film,New-age,Pop,Prolific_id,Provo_ID,R&B,Rap,Reggae,Religious,Rock,Soul,Swing,Traditional,age,artist_name,correct,correctResponse,distraction,duration,education,ended_on,familiarity,gender,headphone_check_performance,item,list,music_frequency,offensiveness,pleasantness,position_correct,preference,response,response_action,snippet_file,song_name,song_rating,sound,stimulus_1,stimulus_2,stimulus_3,text,time_commit,time_end,time_render,time_run,time_show,time_switch,url,word,word_ID
Prolific ID,html.Form,0,2022-04-28T09:44:30.571Z,"{""labjs_version"":""20.2.2"",""labjs_build"":{""flavor"":""production"",""commit"":""a25486e0c714a0ae2ce03ff94b7bb6896854dcfa""},""location"":""https://run.pavlovia.org/mvasilev/prolific3_music_d/"",""userAgent"":""Mozilla/5.0 (Macintosh; Intel Mac OS X 10_12_6) AppleWebKit/537.36 (KHTML, like Gecko) Chrome/100.0.4896.127 Safari/537.36"",""platform"":""MacIntel"",""language"":""en-GB"",""locale"":""en-GB"",""timeZone"":""Europe/London"",""timezoneOffset"":-60,""screen_width"":1152,""screen_height"":720,""scroll_width"":1150,""scroll_height"":566,""window_innerWidth"":1150,""window_innerHeight"":614,""devicePixelRatio"":1}",,,,,,,,,,,,,,,5f4b9740fdda0b04d86a533c,,,,,,,,,,,,,,,6829.754999999628,,form submission,,,,,,,,,,,,,,,,,,,,,16256.799999999814,16255.599999999627,9392.443,9392,9425.845,16257.867,{},,
Introduction,html.Screen,1_0,2022-04-28T09:44:38.398Z,,,,,,,,,,,,,,,,,,,,,,,,,,,,,,,7817.432999999814,,response,,,,,,,,,,,continue,click button,,,,,,,,,24084.400000000373,24075.299999999814,16241.166,16257.5,16257.867,24108.441,,,
Volume calibration,html.Screen,1_1,2022-04-28T09:45:00.504Z,,,,,,,,,,,,,,,,,,,,,,,,,,,,,,,22074.858999999815,,response,,,,,,,,,,,continue,click button,,,,,,,,,46190.5,46183.299999999814,24091.74,24084.700000000186,24108.441,46189.612,,,
Task instructions,html.Screen,1_2,2022-04-28T09:45:07.407Z,,,,,,,,,,,,,,,,,,,,,,,,,,,,,,,6901.687999999813,,response,,,,,,,,,,,continue,click button,,,,,,,,,53093.799999999814,53091.299999999814,46172.911,46190.700000000186,46189.612,53103.826,,,
Sounds,html.Screen,1_3_0_0,2022-04-28T09:45:11.648Z,,,,,,,,,,,,,,,,,,,,,,,,,,,,,,,4242.053999999996,,timeout,,,,,,,,,1,,,,,,,,S,O,I,,57334.799999999814,57329.179,53087.125,53094.299999999814,53103.826,57345.88,,,
Judgement,html.Screen,1_3_0_1,2022-04-28T09:45:14.018Z,,,,,,,,,,,,,,,,,,,,,,,,,,,,true,1,,2355.6200000000026,,response,,,,,,,,,1,,1,click #choice-1,,,,,S,O,I,,59705,59701.5,57329.179,57335.09999999963,57345.88,59718.475,,,
Trial,flow.Sequence,1_3_0,2022-04-28T09:45:14.019Z,,,,,,,,,,,,,,,,,,,,,,,,,,,,,,,6597.673999999999,,completion,,,,,,,,,1,,,,,,,,S,O,I,,59705.799999999814,59701.5,53087.125,53094.200000000186,53103.826,59718.475,,,
Sounds,html.Screen,1_3_1_0,2022-04-28T09:45:18.260Z,,,,,,,,,,,,,,,,,,,,,,,,,,,,,,,4242.054000000004,,timeout,,,,,,,,,3,,,,,,,,I,O,S,,63946.5,63943.828,59701.774,59706.299999999814,59718.475,63960.529,,,
Judgement,html.Screen,1_3_1_1,2022-04-28T09:45:19.687Z,,,,,,,,,,,,,,,,,,,,,,,,,,,,true,3,,1408.9709999999977,,response,,,,,,,,,3,,3,click #choice-3,,,,,I,O,S,,65373.200000000186,65369.5,63943.828,63946.799999999814,63960.529,65380.114,,,
Trial,flow.Sequence,1_3_1,2022-04-28T09:45:19.687Z,,,,,,,,,,,,,,,,,,,,,,,,,,,,,,,5651.0250000000015,,completion,,,,,,,,,3,,,,,,,,I,O,S,,65373.59999999963,65369.5,59701.774,59706.09999999963,59718.475,65380.114,,,
Sounds,html.Screen,1_3_2_0,2022-04-28T09:45:23.922Z,,,,,,,,,,,,,,,,,,,,,,,,,,,,,,,4242.054000000004,,timeout,,,,,,,,,3,,,,,,,,O,I,S,,69608.90000000037,69605.467,65363.413,65373.90000000037,65380.114,69622.168,,,
Judgement,html.Screen,1_3_2_1,2022-04-28T09:45:24.810Z,,,,,,,,,,,,,,,,,,,,,,,,,,,,true,3,,871.3319999999949,,response,,,,,,,,,3,,3,click #choice-3,,,,,O,I,S,,70496.70000000019,70493.5,69605.467,69609.20000000019,69622.168,70507.321,,,
Trial,flow.Sequence,1_3_2,2022-04-28T09:45:24.810Z,,,,,,,,,,,,,,,,,,,,,,,,,,,,,,,5113.385999999999,,completion,,,,,,,,,3,,,,,,,,O,I,S,,70497.20000000019,70493.5,65363.413,65373.90000000037,65380.114,70507.321,,,
Sounds,html.Screen,1_3_3_0,2022-04-28T09:45:29.050Z,,,,,,,,,,,,,,,,,,,,,,,,,,,,,,,4243.396000000008,,timeout,,,,,,,,,2,,,,,,,,I,S,O,,74737,74734.016,70490.62,70497.5,70507.321,74750.717,,,
Judgement,html.Screen,1_3_3_1,2022-04-28T09:45:29.836Z,,,,,,,,,,,,,,,,,,,,,,,,,,,,true,2,,768.7829999999958,,response,,,,,,,,,2,,2,click #choice-2,,,,,I,S,O,,75522.70000000019,75519.5,74734.016,74737.29999999981,74750.717,75535.664,,,
Trial,flow.Sequence,1_3_3,2022-04-28T09:45:29.836Z,,,,,,,,,,,,,,,,,,,,,,,,,,,,,,,5012.179000000004,,completion,,,,,,,,,2,,,,,,,,I,S,O,,75523,75519.5,70490.62,70497.29999999981,70507.321,75535.664,,,
Sounds,html.Screen,1_3_4_0,2022-04-28T09:45:34.077Z,,,,,,,,,,,,,,,,,,,,,,,,,,,,,,,4242.053999999989,,timeout,,,,,,,,,1,,,,,,,,S,I,O,,79763.70000000019,79761.017,75518.963,75523.20000000019,75535.664,79777.718,,,
Judgement,html.Screen,1_3_4_1,2022-04-28T09:45:34.926Z,,,,,,,,,,,,,,,,,,,,,,,,,,,,true,1,,831.5819999998203,,response,,,,,,,,,1,,1,click #choice-1,,,,,S,I,O,,80612.59999999963,80609.29999999981,79761.017,79763.90000000037,79777.718,80612.768,,,
Trial,flow.Sequence,1_3_4,2022-04-28T09:45:34.926Z,,,,,,,,,,,,,,,,,,,,,,,,,,,,,,,5073.635999999809,,completion,,,,,,,,,1,,,,,,,,S,I,O,,80612.90000000037,80609.29999999981,75518.963,75523.09999999963,75535.664,80612.768,,,
Sounds,html.Screen,1_3_5_0,2022-04-28T09:45:39.155Z,,,,,,,,,,,,,,,,,,,,,,,,,,,,,,,4243.005000000005,,timeout,,,,,,,,,2,,,,,,,,O,S,I,,84841.5,84839.072,80596.067,80613.29999999981,80612.768,84855.773,,,
Judgement,html.Screen,1_3_5_1,2022-04-28T09:45:39.653Z,,,,,,,,,,,,,,,,,,,,,,,,,,,,true,2,,481.6270000003715,,response,,,,,,,,,2,,2,click #choice-2,,,,,O,S,I,,85340.09999999963,85337.40000000037,84839.072,84841.70000000019,84855.773,85340.102,,,
Trial,flow.Sequence,1_3_5,2022-04-28T09:45:39.653Z,,,,,,,,,,,,,,,,,,,,,,,,,,,,,,,4724.632000000376,,completion,,,,,,,,,2,,,,,,,,O,S,I,,85340.40000000037,85337.40000000037,80596.067,80613.20000000019,80612.768,85340.102,,,
Task,flow.Loop,1_3,2022-04-28T09:45:39.661Z,,,,,,,,,,,,,,,,,,,,,,,,,,,,,,,32233.57400000037,,completion,,,1,,,,,,,,,,,,,,,,,,85348.40000000037,85337.40000000037,53087.125,53094.09999999963,53103.826,85340.102,,,
Trap,html.Screen,1_4,2022-04-28T09:45:39.663Z,,,,,,,,,,,,,,,,,,,,,,,,,,,,,,,NaN,,skipped,,,,,,,,,,,,,,,,,,,,,85349.79999999981,85337.40000000037,,85349.70000000019,,85340.102,,,
Thanks,html.Screen,1_5,2022-04-28T09:45:43.250Z,,,,,,,,,,,,,,,,,,,,,,,,,,,,,,,3593.197999999815,,response,,,,,,,,,,,continue,click button,,,,,,,,,88936.59999999963,88933.29999999981,85323.401,85349.90000000037,85340.102,92554.934,,,
Headphone screening,flow.Sequence,1,2022-04-28T09:45:43.250Z,,,,,,,,,,,,,,,,,,,,,,,,,,,,,,,72675.43299999982,,completion,,,,,,,,,,,,,,,,,,,,,88937,88933.29999999981,16241.166,16257.400000000373,16257.867,92554.934,,,
Instructions,html.Page,2_0,2022-04-28T09:46:03.882Z,,,,,,,,,,,,,,,,,,,,,,,,,,,,,,,17013.766000000192,,form submission,,,,,,,,,,,,,,,,,,,,,109569.20000000019,109568.70000000019,92538.233,92546.40000000037,92554.934,109576.068,,,
Holding screen,html.Screen,2_1_0_0,2022-04-28T09:46:13.878Z,,,,,,,,,,,,,,,,,,,,,,,,,,,,,,,10003.899000000005,,timeout,,,,,,,,,,,,,,,,,,,,,119565.70000000019,119563.266,109559.367,109569.5,109576.068,119579.967,,,
screen,html.Screen,2_1_0_1_0,2022-04-28T09:46:15.104Z,,,,,,,,,,,,,,,,,53,,,,,,,,,,,,,,1204.5329999999958,,response,,,,99,,,,,,,Space,keypress(Space),,,,,,,,When -- ----- -- ------ - ------- --- ----------<br>------------- ------ ------ ---- ---- ------- ----- -- ----<br>-------- ------- -- ---------- --- - --- ----- ----- ----<br>---- --- --- ----- --- ---- ---- ------- ----- ---- -------<br>--- --- -- ----- -- --- ---- -- --- ---- -- ------ ------<br>--- ----- -- ----,120791.29999999981,120784.5,119563.266,119566,119579.967,120799.14,,0,When
screen,html.Screen,2_1_0_1_1,2022-04-28T09:46:15.660Z,,,,,,,,,,,,,,,,,53,,,,,,,,,,,,,,545.1599999998143,,response,,,,99,,,,,,,Space,keypress(Space),,,,,,,,---- it ----- -- ------ - ------- --- ----------<br>------------- ------ ------ ---- ---- ------- ----- -- ----<br>-------- ------- -- ---------- --- - --- ----- ----- ----<br>---- --- --- ----- --- ---- ---- ------- ----- ---- -------<br>--- --- -- ----- -- --- ---- -- --- ---- -- ------ ------<br>--- ----- -- ----,121347.70000000019,121344.29999999981,120782.439,120791.59999999963,120799.14,121351.376,,1,it
screen,html.Screen,2_1_0_1_2,2022-04-28T09:46:16.245Z,,,,,,,,,,,,,,,,,53,,,,,,,,,,,,,,577.1239999999962,,response,,,,99,,,,,,,Space,keypress(Space),,,,,,,,---- -- comes -- ------ - ------- --- ----------<br>------------- ------ ------ ---- ---- ------- ----- -- ----<br>-------- ------- -- ---------- --- - --- ----- ----- ----<br>---- --- --- ----- --- ---- ---- ------- ----- ---- -------<br>--- --- -- ----- -- --- ---- -- --- ---- -- ------ ------<br>--- ----- -- ----,121932.29999999981,121928.5,121334.675,121348,121351.376,121935.911,,2,comes
screen,html.Screen,2_1_0_1_3,2022-04-28T09:46:16.860Z,,,,,,,,,,,,,,,,,53,,,,,,,,,,,,,,608.5890000000072,,response,,,,99,,,,,,,Space,keypress(Space),,,,,,,,---- -- ----- to ------ - ------- --- ----------<br>------------- ------ ------ ---- ---- ------- ----- -- ----<br>-------- ------- -- ---------- --- - --- ----- ----- ----<br>---- --- --- ----- --- ---- ---- ------- ----- ---- -------<br>--- --- -- ----- -- --- ---- -- --- ---- -- ------ ------<br>--- ----- -- ----,122547.90000000037,122544.5,121919.21,121932.5,121935.911,122553.848,,3,to
screen,html.Screen,2_1_0_1_4,2022-04-28T09:46:17.500Z,,,,,,,,,,,,,,,,,53,,,,,,,,,,,,,,630.5520000003744,,response,,,,99,,,,,,,Space,keypress(Space),,,,,,,,---- -- ----- -- having - ------- --- ----------<br>------------- ------ ------ ---- ---- ------- ----- -- ----<br>-------- ------- -- ---------- --- - --- ----- ----- ----<br>---- --- --- ----- --- ---- ---- ------- ----- ---- -------<br>--- --- -- ----- -- --- ---- -- --- ---- -- ------ ------<br>--- ----- -- ----,123187.70000000019,123184.40000000037,122537.147,122548.20000000019,122553.848,123205.187,,4,having
screen,html.Screen,2_1_0_1_5,2022-04-28T09:46:18.156Z,,,,,,,,,,,,,,,,,53,,,,,,,,,,,,,,635.1129999998084,,response,,,,99,,,,,,,Space,keypress(Space),,,,,,,,---- -- ----- -- ------ a ------- --- ----------<br>------------- ------ ------ ---- ---- ------- ----- -- ----<br>-------- ------- -- ---------- --- - --- ----- ----- ----<br>---- --- --- ----- --- ---- ---- ------- ----- ---- -------<br>--- --- -- ----- -- --- ---- -- --- ---- -- ------ ------<br>--- ----- -- ----,123843.09999999963,123840.29999999981,123188.486,123187.90000000037,123205.187,123856.526,,5,a
screen,html.Screen,2_1_0_1_6,2022-04-28T09:46:18.756Z,,,,,,,,,,,,,,,,,53,,,,,,,,,,,,,,583.8740000003745,,response,,,,99,,,,,,,Space,keypress(Space),,,,,,,,---- -- ----- -- ------ - lasting --- ----------<br>------------- ------ ------ ---- ---- ------- ----- -- ----<br>-------- ------- -- ---------- --- - --- ----- ----- ----<br>---- --- --- ----- --- ---- ---- ------- ----- ---- -------<br>--- --- -- ----- -- --- ---- -- --- ---- -- ------ ------<br>--- ----- -- ----,124443.90000000037,124440.40000000037,123839.825,123843.29999999981,123856.526,124457.762,,6,lasting
screen,html.Screen,2_1_0_1_7,2022-04-28T09:46:19.333Z,,,,,,,,,,,,,,,,,53,,,,,,,,,,,,,,558.7379999999976,,response,,,,99,,,,,,,Space,keypress(Space),,,,,,,,---- -- ----- -- ------ - ------- and ----------<br>------------- ------ ------ ---- ---- ------- ----- -- ----<br>-------- ------- -- ---------- --- - --- ----- ----- ----<br>---- --- --- ----- --- ---- ---- ------- ----- ---- -------<br>--- --- -- ----- -- --- ---- -- --- ---- -- ------ ------<br>--- ----- -- ----,125020.20000000019,125016.5,124441.061,124444.20000000019,124457.762,125025.596,,7,and
screen,html.Screen,2_1_0_1_8,2022-04-28T09:46:19.980Z,,,,,,,,,,,,,,,,,53,,,,,,,,,,,,,,638.903999999995,,response,,,,99,,,,,,,Space,keypress(Space),,,,,,,,---- -- ----- -- ------ - ------- --- fulfilling<br>------------- ------ ------ ---- ---- ------- ----- -- ----<br>-------- ------- -- ---------- --- - --- ----- ----- ----<br>---- --- --- ----- --- ---- ---- ------- ----- ---- -------<br>--- --- -- ----- -- --- ---- -- --- ---- -- ------ ------<br>--- ----- -- ----,125668,125664.5,125008.895,125020.5,125025.596,125676.935,,8,fulfilling
screen,html.Screen,2_1_0_1_9,2022-04-28T09:46:20.605Z,,,,,,,,,,,,,,,,,53,,,,,,,,,,,,,,611.4650000003749,,response,,,,99,,,,,,,Space,keypress(Space),,,,,,,,"---- -- ----- -- ------ - ------- --- ----------<br>relationship, ------ ------ ---- ---- ------- ----- -- ----<br>-------- ------- -- ---------- --- - --- ----- ----- ----<br>---- --- --- ----- --- ---- ---- ------- ----- ---- -------<br>--- --- -- ----- -- --- ---- -- --- ---- -- ------ ------<br>--- ----- -- ----",126292.09999999963,126288.40000000037,125660.234,125668.29999999981,125676.935,126294.872,,9,"relationship,"
screen,html.Screen,2_1_0_1_10,2022-04-28T09:46:21.316Z,,,,,,,,,,,,,,,,,53,,,,,,,,,,,,,,705.5280000003695,,response,,,,99,,,,,,,Space,keypress(Space),,,,,,,,---- -- ----- -- ------ - ------- --- ----------<br>------------- common ------ ---- ---- ------- ----- -- ----<br>-------- ------- -- ---------- --- - --- ----- ----- ----<br>---- --- --- ----- --- ---- ---- ------- ----- ---- -------<br>--- --- -- ----- -- --- ---- -- --- ---- -- ------ ------<br>--- ----- -- ----,127003.5,127000.40000000037,126278.171,126292.40000000037,126294.872,127013.015,,10,common
screen,html.Screen,2_1_0_1_11,2022-04-28T09:46:21.932Z,,,,,,,,,,,,,,,,,53,,,,,,,,,,,,,,603.3850000003731,,response,,,,99,,,,,,,Space,keypress(Space),,,,,,,,---- -- ----- -- ------ - ------- --- ----------<br>------------- ------ wisdom ---- ---- ------- ----- -- ----<br>-------- ------- -- ---------- --- - --- ----- ----- ----<br>---- --- --- ----- --- ---- ---- ------- ----- ---- -------<br>--- --- -- ----- -- --- ---- -- --- ---- -- ------ ------<br>--- ----- -- ----,127620,127616.40000000037,126996.314,127003.70000000019,127013.015,127630.952,,11,wisdom
screen,html.Screen,2_1_0_1_12,2022-04-28T09:46:22.580Z,,,,,,,,,,,,,,,,,53,,,,,,,,,,,,,,633.5479999999952,,response,,,,99,,,,,,,Space,keypress(Space),,,,,,,,---- -- ----- -- ------ - ------- --- ----------<br>------------- ------ ------ says ---- ------- ----- -- ----<br>-------- ------- -- ---------- --- - --- ----- ----- ----<br>---- --- --- ----- --- ---- ---- ------- ----- ---- -------<br>--- --- -- ----- -- --- ---- -- --- ---- -- ------ ------<br>--- ----- -- ----,128267.70000000019,128264.5,127614.251,127620.20000000019,127630.952,128282.291,,12,says
screen,html.Screen,2_1_0_1_13,2022-04-28T09:46:23.172Z,,,,,,,,,,,,,,,,,53,,,,,,,,,,,,,,574.1090000003751,,response,,,,99,,,,,,,Space,keypress(Space),,,,,,,,---- -- ----- -- ------ - ------- --- ----------<br>------------- ------ ------ ---- that ------- ----- -- ----<br>-------- ------- -- ---------- --- - --- ----- ----- ----<br>---- --- --- ----- --- ---- ---- ------- ----- ---- -------<br>--- --- -- ----- -- --- ---- -- --- ---- -- ------ ------<br>--- ----- -- ----,128859.79999999981,128856.40000000037,128265.59,128268,128282.291,128866.826,,13,that
screen,html.Screen,2_1_0_1_14,2022-04-28T09:46:23.748Z,,,,,,,,,,,,,,,,,53,,,,,,,,,,,,,,565.6739999999991,,response,,,,99,,,,,,,Space,keypress(Space),,,,,,,,---- -- ----- -- ------ - ------- --- ----------<br>------------- ------ ------ ---- ---- feeling ----- -- ----<br>-------- ------- -- ---------- --- - --- ----- ----- ----<br>---- --- --- ----- --- ---- ---- ------- ----- ---- -------<br>--- --- -- ----- -- --- ---- -- --- ---- -- ------ ------<br>--- ----- -- ----,129436,129432.5,128850.125,128860.09999999963,128866.826,129451.361,,14,feeling
screen,html.Screen,2_1_0_1_15,2022-04-28T09:46:24.308Z,,,,,,,,,,,,,,,,,53,,,,,,,,,,,,,,541.1389999999956,,response,,,,99,,,,,,,Space,keypress(Space),,,,,,,,---- -- ----- -- ------ - ------- --- ----------<br>------------- ------ ------ ---- ---- ------- close -- ----<br>-------- ------- -- ---------- --- - --- ----- ----- ----<br>---- --- --- ----- --- ---- ---- ------- ----- ---- -------<br>--- --- -- ----- -- --- ---- -- --- ---- -- ------ ------<br>--- ----- -- ----,129995.79999999981,129992.5,129434.66,129436.29999999981,129451.361,130002.494,,15,close
screen,html.Screen,2_1_0_1_16,2022-04-28T09:46:24.812Z,,,,,,,,,,,,,,,,,53,,,,,,,,,,,,,,493.9060000003665,,response,,,,99,,,,,,,Space,keypress(Space),,,,,,,,---- -- ----- -- ------ - ------- --- ----------<br>------------- ------ ------ ---- ---- ------- ----- to ----<br>-------- ------- -- ---------- --- - --- ----- ----- ----<br>---- --- --- ----- --- ---- ---- ------- ----- ---- -------<br>--- --- -- ----- -- --- ---- -- --- ---- -- ------ ------<br>--- ----- -- ----,130499.90000000037,130496.40000000037,129985.793,129996,130002.494,130503.524,,16,to
screen,html.Screen,2_1_0_1_17,2022-04-28T09:46:25.365Z,,,,,,,,,,,,,,,,,53,,,,,,,,,,,,,,544.8760000003676,,response,,,,99,,,,,,,Space,keypress(Space),,,,,,,,---- -- ----- -- ------ - ------- --- ----------<br>------------- ------ ------ ---- ---- ------- ----- -- your<br>-------- ------- -- ---------- --- - --- ----- ----- ----<br>---- --- --- ----- --- ---- ---- ------- ----- ---- -------<br>--- --- -- ----- -- --- ---- -- --- ---- -- ------ ------<br>--- ----- -- ----,131052.20000000019,131048.40000000037,130486.823,130500.20000000019,130503.524,131055.658,,17,your
screen,html.Screen,2_1_0_1_18,2022-04-28T09:46:26.044Z,,,,,,,,,,,,,,,,,53,,,,,,,,,,,,,,672.8420000000042,,response,,,,99,,,,,,,Space,keypress(Space),,,,,,,,---- -- ----- -- ------ - ------- --- ----------<br>------------- ------ ------ ---- ---- ------- ----- -- ----<br>romantic ------- -- ---------- --- - --- ----- ----- ----<br>---- --- --- ----- --- ---- ---- ------- ----- ---- -------<br>--- --- -- ----- -- --- ---- -- --- ---- -- ------ ------<br>--- ----- -- ----,131731.90000000037,131728.5,131038.957,131052.40000000037,131055.658,131740.399,,18,romantic
screen,html.Screen,2_1_0_1_19,2022-04-28T09:46:26.628Z,,,,,,,,,,,,,,,,,53,,,,,,,,,,,,,,572.1009999999951,,response,,,,99,,,,,,,Space,keypress(Space),,,,,,,,---- -- ----- -- ------ - ------- --- ----------<br>------------- ------ ------ ---- ---- ------- ----- -- ----<br>-------- partner -- ---------- --- - --- ----- ----- ----<br>---- --- --- ----- --- ---- ---- ------- ----- ---- -------<br>--- --- -- ----- -- --- ---- -- --- ---- -- ------ ------<br>--- ----- -- ----,132315.7000000002,132312.5,131723.698,131732.2000000002,131740.399,132324.934,,19,partner
screen,html.Screen,2_1_0_1_20,2022-04-28T09:46:27.196Z,,,,,,,,,,,,,,,,,53,,,,,,,,,,,,,,555.5659999999916,,response,,,,99,,,,,,,Space,keypress(Space),,,,,,,,---- -- ----- -- ------ - ------- --- ----------<br>------------- ------ ------ ---- ---- ------- ----- -- ----<br>-------- ------- is ---------- --- - --- ----- ----- ----<br>---- --- --- ----- --- ---- ---- ------- ----- ---- -------<br>--- --- -- ----- -- --- ---- -- --- ---- -- ------ ------<br>--- ----- -- ----,132884,132880.5,132308.233,132315.90000000037,132324.934,132892.768,,20,is
screen,html.Screen,2_1_0_1_21,2022-04-28T09:46:27.900Z,,,,,,,,,,,,,,,,,53,,,,,,,,,,,,,,691.6320000003616,,response,,,,99,,,,,,,Space,keypress(Space),,,,,,,,---- -- ----- -- ------ - ------- --- ----------<br>------------- ------ ------ ---- ---- ------- ----- -- ----<br>-------- ------- -- paramount. --- - --- ----- ----- ----<br>---- --- --- ----- --- ---- ---- ------- ----- ---- -------<br>--- --- -- ----- -- --- ---- -- --- ---- -- ------ ------<br>--- ----- -- ----,133588.09999999963,133584.40000000037,132876.067,132884.2999999998,132892.768,133594.21,,21,paramount.
screen,html.Screen,2_1_0_1_22,2022-04-28T09:46:28.596Z,,,,,,,,,,,,,,,,,53,,,,,,,,,,,,,,686.2900000000081,,response,,,,99,,,,,,,Space,keypress(Space),,,,,,,,---- -- ----- -- ------ - ------- --- ----------<br>------------- ------ ------ ---- ---- ------- ----- -- ----<br>-------- ------- -- ---------- But - --- ----- ----- ----<br>---- --- --- ----- --- ---- ---- ------- ----- ---- -------<br>--- --- -- ----- -- --- ---- -- --- ---- -- ------ ------<br>--- ----- -- ----,134283.7999999998,134280.5,133577.509,133588.2000000002,133594.21,134295.652,,22,But
screen,html.Screen,2_1_0_1_23,2022-04-28T09:46:29.164Z,,,,,,,,,,,,,,,,,53,,,,,,,,,,,,,,552.7480000003707,,response,,,,99,,,,,,,Space,keypress(Space),,,,,,,,---- -- ----- -- ------ - ------- --- ----------<br>------------- ------ ------ ---- ---- ------- ----- -- ----<br>-------- ------- -- ---------- --- a --- ----- ----- ----<br>---- --- --- ----- --- ---- ---- ------- ----- ---- -------<br>--- --- -- ----- -- --- ---- -- --- ---- -- ------ ------<br>--- ----- -- ----,134851.7999999998,134848.40000000037,134278.951,134284,134295.652,134863.486,,23,a
screen,html.Screen,2_1_0_1_24,2022-04-28T09:46:29.716Z,,,,,,,,,,,,,,,,,53,,,,,,,,,,,,,,536.9140000003681,,response,,,,99,,,,,,,Space,keypress(Space),,,,,,,,---- -- ----- -- ------ - ------- --- ----------<br>------------- ------ ------ ---- ---- ------- ----- -- ----<br>-------- ------- -- ---------- --- - new ----- ----- ----<br>---- --- --- ----- --- ---- ---- ------- ----- ---- -------<br>--- --- -- ----- -- --- ---- -- --- ---- -- ------ ------<br>--- ----- -- ----,135403.7999999998,135400.40000000037,134846.785,134852.2999999998,134863.486,135414.619,,24,new
screen,html.Screen,2_1_0_1_25,2022-04-28T09:46:30.260Z,,,,,,,,,,,,,,,,,53,,,,,,,,,,,,,,529.7810000003665,,response,,,,99,,,,,,,Space,keypress(Space),,,,,,,,---- -- ----- -- ------ - ------- --- ----------<br>------------- ------ ------ ---- ---- ------- ----- -- ----<br>-------- ------- -- ---------- --- - --- study ----- ----<br>---- --- --- ----- --- ---- ---- ------- ----- ---- -------<br>--- --- -- ----- -- --- ---- -- --- ---- -- ------ ------<br>--- ----- -- ----,135947.7000000002,135944.40000000037,135397.918,135404,135414.619,135949.051,,25,study
screen,html.Screen,2_1_0_1_26,2022-04-28T09:46:30.828Z,,,,,,,,,,,,,,,,,53,,,,,,,,,,,,,,563.3490000003658,,response,,,,99,,,,,,,Space,keypress(Space),,,,,,,,---- -- ----- -- ------ - ------- --- ----------<br>------------- ------ ------ ---- ---- ------- ----- -- ----<br>-------- ------- -- ---------- --- - --- ----- finds ----<br>---- --- --- ----- --- ---- ---- ------- ----- ---- -------<br>--- --- -- ----- -- --- ---- -- --- ---- -- ------ ------<br>--- ----- -- ----,136515.5,136512.40000000037,135932.35,135947.90000000037,135949.051,136516.885,,26,finds
screen,html.Screen,2_1_0_1_27,2022-04-28T09:46:31.427Z,,,,,,,,,,,,,,,,,53,,,,,,,,,,,,,,595.4149999998044,,response,,,,99,,,,,,,Space,keypress(Space),,,,,,,,---- -- ----- -- ------ - ------- --- ----------<br>------------- ------ ------ ---- ---- ------- ----- -- ----<br>-------- ------- -- ---------- --- - --- ----- ----- that<br>---- --- --- ----- --- ---- ---- ------- ----- ---- -------<br>--- --- -- ----- -- --- ---- -- --- ---- -- ------ ------<br>--- ----- -- ----,137114.90000000037,137112.2999999998,136500.184,136515.7999999998,136516.885,137118.121,,27,that
screen,html.Screen,2_1_0_1_28,2022-04-28T09:46:31.972Z,,,,,,,,,,,,,,,,,53,,,,,,,,,,,,,,538.2790000003588,,response,,,,99,,,,,,,Space,keypress(Space),,,,,,,,---- -- ----- -- ------ - ------- --- ----------<br>------------- ------ ------ ---- ---- ------- ----- -- ----<br>-------- ------- -- ---------- --- - --- ----- ----- ----<br>it's --- --- ----- --- ---- ---- ------- ----- ---- -------<br>--- --- -- ----- -- --- ---- -- --- ---- -- ------ ------<br>--- ----- -- ----,137659.59999999963,137656.40000000037,137101.42,137115.09999999963,137118.121,137669.254,,28,it's
screen,html.Screen,2_1_0_1_29,2022-04-28T09:46:32.532Z,,,,,,,,,,,,,,,,,53,,,,,,,,,,,,,,547.2460000000137,,response,,,,99,,,,,,,Space,keypress(Space),,,,,,,,---- -- ----- -- ------ - ------- --- ----------<br>------------- ------ ------ ---- ---- ------- ----- -- ----<br>-------- ------- -- ---------- --- - --- ----- ----- ----<br>---- not --- ----- --- ---- ---- ------- ----- ---- -------<br>--- --- -- ----- -- --- ---- -- --- ---- -- ------ ------<br>--- ----- -- ----,138219.7999999998,138216.5,137652.553,137659.7999999998,137669.254,138237.088,,29,not
screen,html.Screen,2_1_0_1_30,2022-04-28T09:46:33.100Z,,,,,,,,,,,,,,,,,53,,,,,,,,,,,,,,547.4120000000112,,response,,,,99,,,,,,,Space,keypress(Space),,,,,,,,---- -- ----- -- ------ - ------- --- ----------<br>------------- ------ ------ ---- ---- ------- ----- -- ----<br>-------- ------- -- ---------- --- - --- ----- ----- ----<br>---- --- how ----- --- ---- ---- ------- ----- ---- -------<br>--- --- -- ----- -- --- ---- -- --- ---- -- ------ ------<br>--- ----- -- ----,138787.90000000037,138784.5,138220.387,138220,138237.088,138804.922,,30,how
screen,html.Screen,2_1_0_1_31,2022-04-28T09:46:33.652Z,,,,,,,,,,,,,,,,,53,,,,,,,,,,,,,,531.5780000000086,,response,,,,99,,,,,,,Space,keypress(Space),,,,,,,,---- -- ----- -- ------ - ------- --- ----------<br>------------- ------ ------ ---- ---- ------- ----- -- ----<br>-------- ------- -- ---------- --- - --- ----- ----- ----<br>---- --- --- close --- ---- ---- ------- ----- ---- -------<br>--- --- -- ----- -- --- ---- -- --- ---- -- ------ ------<br>--- ----- -- ----,139339.7999999998,139336.5,138788.221,138788.2999999998,138804.922,139356.055,,31,close
screen,html.Screen,2_1_0_1_32,2022-04-28T09:46:34.156Z,,,,,,,,,,,,,,,,,53,,,,,,,,,,,,,,484.445000000007,,response,,,,99,,,,,,,Space,keypress(Space),,,,,,,,---- -- ----- -- ------ - ------- --- ----------<br>------------- ------ ------ ---- ---- ------- ----- -- ----<br>-------- ------- -- ---------- --- - --- ----- ----- ----<br>---- --- --- ----- you ---- ---- ------- ----- ---- -------<br>--- --- -- ----- -- --- ---- -- --- ---- -- ------ ------<br>--- ----- -- ----,139844,139840.5,139339.354,139340,139356.055,139857.085,,32,you
screen,html.Screen,2_1_0_1_33,2022-04-28T09:46:34.708Z,,,,,,,,,,,,,,,,,53,,,,,,,,,,,,,,535.4150000000081,,response,,,,99,,,,,,,Space,keypress(Space),,,,,,,,---- -- ----- -- ------ - ------- --- ----------<br>------------- ------ ------ ---- ---- ------- ----- -- ----<br>-------- ------- -- ---------- --- - --- ----- ----- ----<br>---- --- --- ----- --- feel ---- ------- ----- ---- -------<br>--- --- -- ----- -- --- ---- -- --- ---- -- ------ ------<br>--- ----- -- ----,140395.7000000002,140392.5,139840.384,139844.09999999963,139857.085,140408.218,,33,feel
screen,html.Screen,2_1_0_1_34,2022-04-28T09:46:35.236Z,,,,,,,,,,,,,,,,,53,,,,,,,,,,,,,,512.182000000379,,response,,,,99,,,,,,,Space,keypress(Space),,,,,,,,---- -- ----- -- ------ - ------- --- ----------<br>------------- ------ ------ ---- ---- ------- ----- -- ----<br>-------- ------- -- ---------- --- - --- ----- ----- ----<br>---- --- --- ----- --- ---- that ------- ----- ---- -------<br>--- --- -- ----- -- --- ---- -- --- ---- -- ------ ------<br>--- ----- -- ----,140924,140920.40000000037,140391.517,140396,140408.218,140925.949,,34,that
screen,html.Screen,2_1_0_1_35,2022-04-28T09:46:35.948Z,,,,,,,,,,,,,,,,,53,,,,,,,,,,,,,,706.4510000003793,,response,,,,99,,,,,,,Space,keypress(Space),,,,,,,,---- -- ----- -- ------ - ------- --- ----------<br>------------- ------ ------ ---- ---- ------- ----- -- ----<br>-------- ------- -- ---------- --- - --- ----- ----- ----<br>---- --- --- ----- --- ---- ---- matters ----- ---- -------<br>--- --- -- ----- -- --- ---- -- --- ---- -- ------ ------<br>--- ----- -- ----,141635.7999999998,141632.40000000037,140909.248,140924.2000000002,140925.949,141645.086,,35,matters
screen,html.Screen,2_1_0_1_36,2022-04-28T09:46:36.580Z,,,,,,,,,,,,,,,,,53,,,,,,,,,,,,,,619.3140000003623,,response,,,,99,,,,,,,Space,keypress(Space),,,,,,,,"---- -- ----- -- ------ - ------- --- ----------<br>------------- ------ ------ ---- ---- ------- ----- -- ----<br>-------- ------- -- ---------- --- - --- ----- ----- ----<br>---- --- --- ----- --- ---- ---- ------- most, ---- -------<br>--- --- -- ----- -- --- ---- -- --- ---- -- ------ ------<br>--- ----- -- ----",142268.09999999963,142264.40000000037,141628.385,141636,141645.086,142279.724,,36,"most,"
screen,html.Screen,2_1_0_1_37,2022-04-28T09:46:37.140Z,,,,,,,,,,,,,,,,,53,,,,,,,,,,,,,,544.7760000000126,,response,,,,99,,,,,,,Space,keypress(Space),,,,,,,,---- -- ----- -- ------ - ------- --- ----------<br>------------- ------ ------ ---- ---- ------- ----- -- ----<br>-------- ------- -- ---------- --- - --- ----- ----- ----<br>---- --- --- ----- --- ---- ---- ------- ----- it's -------<br>--- --- -- ----- -- --- ---- -- --- ---- -- ------ ------<br>--- ----- -- ----,142827.90000000037,142824.5,142263.023,142268.2999999998,142279.724,142830.857,,37,it's
screen,html.Screen,2_1_0_1_38,2022-04-28T09:46:37.860Z,,,,,,,,,,,,,,,,,53,,,,,,,,,,,,,,713.5430000003835,,response,,,,99,,,,,,,Space,keypress(Space),,,,,,,,---- -- ----- -- ------ - ------- --- ----------<br>------------- ------ ------ ---- ---- ------- ----- -- ----<br>-------- ------- -- ---------- --- - --- ----- ----- ----<br>---- --- --- ----- --- ---- ---- ------- ----- ---- whether<br>--- --- -- ----- -- --- ---- -- --- ---- -- ------ ------<br>--- ----- -- ----,143547.7000000002,143544.40000000037,142814.156,142828.09999999963,142830.857,143549,,38,whether
screen,html.Screen,2_1_0_1_39,2022-04-28T09:46:38.308Z,,,,,,,,,,,,,,,,,53,,,,,,,,,,,,,,443.5,,response,,,,99,,,,,,,Space,keypress(Space),,,,,,,,---- -- ----- -- ------ - ------- --- ----------<br>------------- ------ ------ ---- ---- ------- ----- -- ----<br>-------- ------- -- ---------- --- - --- ----- ----- ----<br>---- --- --- ----- --- ---- ---- ------- ----- ---- -------<br>you --- -- ----- -- --- ---- -- --- ---- -- ------ ------<br>--- ----- -- ----,143995.7999999998,143992.5,143532.299,143548,143549,143999.927,,39,you
screen,html.Screen,2_1_0_1_40,2022-04-28T09:46:38.796Z,,,,,,,,,,,,,,,,,53,,,,,,,,,,,,,,480.57300000000396,,response,,,,99,,,,,,,Space,keypress(Space),,,,,,,,---- -- ----- -- ------ - ------- --- ----------<br>------------- ------ ------ ---- ---- ------- ----- -- ----<br>-------- ------- -- ---------- --- - --- ----- ----- ----<br>---- --- --- ----- --- ---- ---- ------- ----- ---- -------<br>--- are -- ----- -- --- ---- -- --- ---- -- ------ ------<br>--- ----- -- ----,144483.90000000037,144480.5,143983.226,143995.90000000037,143999.927,144500.957,,40,are
screen,html.Screen,2_1_0_1_41,2022-04-28T09:46:39.259Z,,,,,,,,,,,,,,,,,53,,,,,,,,,,,,,,443.5430000000051,,response,,,,99,,,,,,,Space,keypress(Space),,,,,,,,---- -- ----- -- ------ - ------- --- ----------<br>------------- ------ ------ ---- ---- ------- ----- -- ----<br>-------- ------- -- ---------- --- - --- ----- ----- ----<br>---- --- --- ----- --- ---- ---- ------- ----- ---- -------<br>--- --- as ----- -- --- ---- -- --- ---- -- ------ ------<br>--- ----- -- ----,144947,144944.5,144484.256,144484.09999999963,144500.957,144951.884,,41,as
screen,html.Screen,2_1_0_1_42,2022-04-28T09:46:39.740Z,,,,,,,,,,,,,,,,,53,,,,,,,,,,,,,,472.6160000000091,,response,,,,99,,,,,,,Space,keypress(Space),,,,,,,,---- -- ----- -- ------ - ------- --- ----------<br>------------- ------ ------ ---- ---- ------- ----- -- ----<br>-------- ------- -- ---------- --- - --- ----- ----- ----<br>---- --- --- ----- --- ---- ---- ------- ----- ---- -------<br>--- --- -- close -- --- ---- -- --- ---- -- ------ ------<br>--- ----- -- ----,145427.5,145424.5,144935.183,144947.2000000002,144951.884,145436.213,,42,close
screen,html.Screen,2_1_0_1_43,2022-04-28T09:46:40.204Z,,,,,,,,,,,,,,,,,53,,,,,,,,,,,,,,452.1870000003837,,response,,,,99,,,,,,,Space,keypress(Space),,,,,,,,---- -- ----- -- ------ - ------- --- ----------<br>------------- ------ ------ ---- ---- ------- ----- -- ----<br>-------- ------- -- ---------- --- - --- ----- ----- ----<br>---- --- --- ----- --- ---- ---- ------- ----- ---- -------<br>--- --- -- ----- as --- ---- -- --- ---- -- ------ ------<br>--- ----- -- ----,145891.59999999963,145888.40000000037,145419.512,145427.7000000002,145436.213,145903.841,,43,as
screen,html.Screen,2_1_0_1_44,2022-04-28T09:46:40.644Z,,,,,,,,,,,,,,,,,53,,,,,,,,,,,,,,424.55900000038673,,response,,,,99,,,,,,,Space,keypress(Space),,,,,,,,---- -- ----- -- ------ - ------- --- ----------<br>------------- ------ ------ ---- ---- ------- ----- -- ----<br>-------- ------- -- ---------- --- - --- ----- ----- ----<br>---- --- --- ----- --- ---- ---- ------- ----- ---- -------<br>--- --- -- ----- -- you ---- -- --- ---- -- ------ ------<br>--- ----- -- ----,146331.59999999963,146328.40000000037,145887.14,145891.7999999998,145903.841,146338.067,,44,you
screen,html.Screen,2_1_0_1_45,2022-04-28T09:46:41.108Z,,,,,,,,,,,,,,,,,53,,,,,,,,,,,,,,454.43299999999,,response,,,,99,,,,,,,Space,keypress(Space),,,,,,,,---- -- ----- -- ------ - ------- --- ----------<br>------------- ------ ------ ---- ---- ------- ----- -- ----<br>-------- ------- -- ---------- --- - --- ----- ----- ----<br>---- --- --- ----- --- ---- ---- ------- ----- ---- -------<br>--- --- -- ----- -- --- want -- --- ---- -- ------ ------<br>--- ----- -- ----,146795.7000000002,146792.5,146321.366,146331.7000000002,146338.067,146805.695,,45,want
screen,html.Screen,2_1_0_1_46,2022-04-28T09:46:41.548Z,,,,,,,,,,,,,,,,,53,,,,,,,,,,,,,,426.70500000036554,,response,,,,99,,,,,,,Space,keypress(Space),,,,,,,,---- -- ----- -- ------ - ------- --- ----------<br>------------- ------ ------ ---- ---- ------- ----- -- ----<br>-------- ------- -- ---------- --- - --- ----- ----- ----<br>---- --- --- ----- --- ---- ---- ------- ----- ---- -------<br>--- --- -- ----- -- --- ---- to --- ---- -- ------ ------<br>--- ----- -- ----,147235.90000000037,147232.40000000037,146788.994,146795.90000000037,146805.695,147239.921,,46,to
screen,html.Screen,2_1_0_1_47,2022-04-28T09:46:42.012Z,,,,,,,,,,,,,,,,,53,,,,,,,,,,,,,,456.47900000037043,,response,,,,99,,,,,,,Space,keypress(Space),,,,,,,,"---- -- ----- -- ------ - ------- --- ----------<br>------------- ------ ------ ---- ---- ------- ----- -- ----<br>-------- ------- -- ---------- --- - --- ----- ----- ----<br>---- --- --- ----- --- ---- ---- ------- ----- ---- -------<br>--- --- -- ----- -- --- ---- -- be, ---- -- ------ ------<br>--- ----- -- ----",147699.7999999998,147696.40000000037,147223.22,147236,147239.921,147707.549,,47,"be,"
screen,html.Screen,2_1_0_1_48,2022-04-28T09:46:42.476Z,,,,,,,,,,,,,,,,,53,,,,,,,,,,,,,,452.85100000037346,,response,,,,99,,,,,,,Space,keypress(Space),,,,,,,,---- -- ----- -- ------ - ------- --- ----------<br>------------- ------ ------ ---- ---- ------- ----- -- ----<br>-------- ------- -- ---------- --- - --- ----- ----- ----<br>---- --- --- ----- --- ---- ---- ------- ----- ---- -------<br>--- --- -- ----- -- --- ---- -- --- even -- ------ ------<br>--- ----- -- ----,148163.59999999963,148160.40000000037,147690.848,147700.09999999963,147707.549,148175.177,,48,even
screen,html.Screen,2_1_0_1_49,2022-04-28T09:46:42.900Z,,,,,,,,,,,,,,,,,53,,,,,,,,,,,,,,409.32300000000396,,response,,,,99,,,,,,,Space,keypress(Space),,,,,,,,---- -- ----- -- ------ - ------- --- ----------<br>------------- ------ ------ ---- ---- ------- ----- -- ----<br>-------- ------- -- ---------- --- - --- ----- ----- ----<br>---- --- --- ----- --- ---- ---- ------- ----- ---- -------<br>--- --- -- ----- -- --- ---- -- --- ---- if ------ ------<br>--- ----- -- ----,148587.90000000037,148584.5,148158.476,148163.7999999998,148175.177,148592.702,,49,if
screen,html.Screen,2_1_0_1_50,2022-04-28T09:46:43.372Z,,,,,,,,,,,,,,,,,53,,,,,,,,,,,,,,463.6980000003823,,response,,,,99,,,,,,,Space,keypress(Space),,,,,,,,---- -- ----- -- ------ - ------- --- ----------<br>------------- ------ ------ ---- ---- ------- ----- -- ----<br>-------- ------- -- ---------- --- - --- ----- ----- ----<br>---- --- --- ----- --- ---- ---- ------- ----- ---- -------<br>--- --- -- ----- -- --- ---- -- --- ---- -- that's ------<br>--- ----- -- ----,149059.59999999963,149056.40000000037,148576.001,148588.09999999963,148592.702,149077.031,,50,that's
screen,html.Screen,2_1_0_1_51,2022-04-28T09:46:43.876Z,,,,,,,,,,,,,,,,,53,,,,,,,,,,,,,,483.4690000000119,,response,,,,99,,,,,,,Space,keypress(Space),,,,,,,,---- -- ----- -- ------ - ------- --- ----------<br>------------- ------ ------ ---- ---- ------- ----- -- ----<br>-------- ------- -- ---------- --- - --- ----- ----- ----<br>---- --- --- ----- --- ---- ---- ------- ----- ---- -------<br>--- --- -- ----- -- --- ---- -- --- ---- -- ------ really<br>--- ----- -- ----,149563.90000000037,149560.5,149060.33,149059.7999999998,149077.031,149578.061,,51,really
screen,html.Screen,2_1_0_1_52,2022-04-28T09:46:44.340Z,,,,,,,,,,,,,,,,,53,,,,,,,,,,,,,,446.33900000038557,,response,,,,99,,,,,,,Space,keypress(Space),,,,,,,,---- -- ----- -- ------ - ------- --- ----------<br>------------- ------ ------ ---- ---- ------- ----- -- ----<br>-------- ------- -- ---------- --- - --- ----- ----- ----<br>---- --- --- ----- --- ---- ---- ------- ----- ---- -------<br>--- --- -- ----- -- --- ---- -- --- ---- -- ------ ------<br>not ----- -- ----,150027.90000000037,150024.40000000037,149561.36,149564,149578.061,150028.988,,52,not
screen,html.Screen,2_1_0_1_53,2022-04-28T09:46:44.796Z,,,,,,,,,,,,,,,,,53,,,,,,,,,,,,,,451.5119999999879,,response,,,,99,,,,,,,Space,keypress(Space),,,,,,,,---- -- ----- -- ------ - ------- --- ----------<br>------------- ------ ------ ---- ---- ------- ----- -- ----<br>-------- ------- -- ---------- --- - --- ----- ----- ----<br>---- --- --- ----- --- ---- ---- ------- ----- ---- -------<br>--- --- -- ----- -- --- ---- -- --- ---- -- ------ ------<br>--- close -- ----,150483.7999999998,150480.5,150012.287,150028.09999999963,150028.988,150496.616,,53,close
screen,html.Screen,2_1_0_1_54,2022-04-28T09:46:45.236Z,,,,,,,,,,,,,,,,,53,,,,,,,,,,,,,,423.68399999980466,,response,,,,99,,,,,,,Space,keypress(Space),,,,,,,,---- -- ----- -- ------ - ------- --- ----------<br>------------- ------ ------ ---- ---- ------- ----- -- ----<br>-------- ------- -- ---------- --- - --- ----- ----- ----<br>---- --- --- ----- --- ---- ---- ------- ----- ---- -------<br>--- --- -- ----- -- --- ---- -- --- ---- -- ------ ------<br>--- ----- at ----,150923.59999999963,150920.2999999998,150479.915,150483.90000000037,150496.616,150930.842,,54,at
screen,html.Screen,2_1_0_1_55,2022-04-28T09:46:46.244Z,,,,,,,,,,,,,,,,,53,,,,,,,,,,,,,,997.5580000003683,,response,,,,99,,,,,,,Space,keypress(Space),,,,,,,,---- -- ----- -- ------ - ------- --- ----------<br>------------- ------ ------ ---- ---- ------- ----- -- ----<br>-------- ------- -- ---------- --- - --- ----- ----- ----<br>---- --- --- ----- --- ---- ---- ------- ----- ---- -------<br>--- --- -- ----- -- --- ---- -- --- ---- -- ------ ------<br>--- ----- -- all.,151932,151928.40000000037,150914.141,150923.7000000002,150930.842,151933.853,,55,all.
Item 99,flow.Loop,2_1_0_1,2022-04-28T09:46:46.244Z,,,,,,,,,,,,,,,,,,,,,,,,,,,,,,,32348.43300000037,,completion,,,,,D,,,,,,,,,,,silence,,,,,151932.40000000037,151928.40000000037,119563.266,119565.90000000037,119579.967,151933.853,,,
Question 1,html.Screen,2_1_0_2,2022-04-28T09:46:53.217Z,,,,,,,,,,,,,,,,,,,,,,,,,,,,true,FALSE,,6967.646999999997,,response,,,,99,D,,,,,,FALSE,click #choice-2,,,,silence,,,,,158904.7999999998,158901.5,151917.152,151932.5,151933.853,158914.871,,,
Question 2,html.Screen,2_1_0_3,2022-04-28T09:47:02.911Z,,,,,,,,,,,,,,,,,,,,,,,,,,,,true,TRUE,,9680.529000000359,,response,,,,99,D,,,,,,TRUE,click #choice-1,,,,silence,,,,,168598.7999999998,168595.40000000037,158898.17,158905.09999999963,158914.871,168602.383,,,
Item 99,flow.Sequence,2_1_0,2022-04-28T09:47:02.911Z,,,,,,,,,,,,,,,,,,,,,,,,,,,,,,,59019.33200000037,,completion,,,,,,,,,,,,,,,,,,,,,168599.2999999998,168595.40000000037,109559.367,109569.40000000037,109576.068,168602.383,,,
Holding screen,html.Screen,2_1_1_0,2022-04-28T09:47:12.904Z,,,,,,,,,,,,,,,,,,,,,,,,,,,,,,,10004.913,,timeout,,,,,,,,,,,,,,,,,,,,,178592.7999999998,178590.595,168585.682,168599.59999999963,168602.383,178607.296,,,
screen,html.Screen,2_1_1_1_0,2022-04-28T09:47:14.076Z,,,,,,,,,,,,,,,,,54,,,,,,,,,,,,,,1153.1040000003704,,response,,,,100,,,,,,,Space,keypress(Space),,,,,,,,At --- ---- --- ------ ----- ------- ---- -- --- ------- --<br>------- ---------- ------ -- ----- -- ----- -- ---- ------<br>--- ----- --- --- ------ -------- ----- --- ------ ----- --<br>----- ----- ---------- --- --- ------ ------ ---- -- ------<br>------- --- ------ ----- --- ---- ------- -- ---- --- --<br>------- ------,179763.90000000037,179760.40000000037,178590.595,178593.09999999963,178607.296,179776.366,,0,At
screen,html.Screen,2_1_1_1_1,2022-04-28T09:47:14.515Z,,,,,,,,,,,,,,,,,54,,,,,,,,,,,,,,423.93399999980466,,response,,,,100,,,,,,,Space,keypress(Space),,,,,,,,-- the ---- --- ------ ----- ------- ---- -- --- ------- --<br>------- ---------- ------ -- ----- -- ----- -- ---- ------<br>--- ----- --- --- ------ -------- ----- --- ------ ----- --<br>----- ----- ---------- --- --- ------ ------ ---- -- ------<br>------- --- ------ ----- --- ---- ------- -- ---- --- --<br>------- ------,180203.59999999963,180200.2999999998,179759.665,179764.09999999963,179776.366,180210.592,,1,the
screen,html.Screen,2_1_1_1_2,2022-04-28T09:47:15.019Z,,,,,,,,,,,,,,,,,54,,,,,,,,,,,,,,493.80800000036834,,response,,,,100,,,,,,,Space,keypress(Space),,,,,,,,-- --- time --- ------ ----- ------- ---- -- --- ------- --<br>------- ---------- ------ -- ----- -- ----- -- ---- ------<br>--- ----- --- --- ------ -------- ----- --- ------ ----- --<br>----- ----- ---------- --- --- ------ ------ ---- -- ------<br>------- --- ------ ----- --- ---- ------- -- ---- --- --<br>------- ------,180707.59999999963,180704.40000000037,180193.891,180203.7000000002,180210.592,180711.622,,2,time
screen,html.Screen,2_1_1_1_3,2022-04-28T09:47:15.484Z,,,,,,,,,,,,,,,,,54,,,,,,,,,,,,,,456.877999999997,,response,,,,100,,,,,,,Space,keypress(Space),,,,,,,,-- --- ---- the ------ ----- ------- ---- -- --- ------- --<br>------- ---------- ------ -- ----- -- ----- -- ---- ------<br>--- ----- --- --- ------ -------- ----- --- ------ ----- --<br>----- ----- ---------- --- --- ------ ------ ---- -- ------<br>------- --- ------ ----- --- ---- ------- -- ---- --- --<br>------- ------,181171.7999999998,181168.5,180694.921,180707.7000000002,180711.622,181179.25,,3,the
screen,html.Screen,2_1_1_1_4,2022-04-28T09:47:15.955Z,,,,,,,,,,,,,,,,,54,,,,,,,,,,,,,,461.15000000037253,,response,,,,100,,,,,,,Space,keypress(Space),,,,,,,,-- --- ---- --- French ----- ------- ---- -- --- ------- --<br>------- ---------- ------ -- ----- -- ----- -- ---- ------<br>--- ----- --- --- ------ -------- ----- --- ------ ----- --<br>----- ----- ---------- --- --- ------ ------ ---- -- ------<br>------- --- ------ ----- --- ---- ------- -- ---- --- --<br>------- ------,181643.40000000037,181640.40000000037,181162.549,181172.09999999963,181179.25,181647.904,,4,French
screen,html.Screen,2_1_1_1_5,2022-04-28T09:47:16.468Z,,,,,,,,,,,,,,,,,54,,,,,,,,,,,,,,504.496000000363,,response,,,,100,,,,,,,Space,keypress(Space),,,,,,,,-- --- ---- --- ------ crown ------- ---- -- --- ------- --<br>------- ---------- ------ -- ----- -- ----- -- ---- ------<br>--- ----- --- --- ------ -------- ----- --- ------ ----- --<br>----- ----- ---------- --- --- ------ ------ ---- -- ------<br>------- --- ------ ----- --- ---- ------- -- ---- --- --<br>------- ------,182155.90000000037,182152.40000000037,181631.203,181643.59999999963,181647.904,182165.635,,5,crown
screen,html.Screen,2_1_1_1_6,2022-04-28T09:47:16.956Z,,,,,,,,,,,,,,,,,54,,,,,,,,,,,,,,474.8649999999907,,response,,,,100,,,,,,,Space,keypress(Space),,,,,,,,-- --- ---- --- ------ ----- secured ---- -- --- ------- --<br>------- ---------- ------ -- ----- -- ----- -- ---- ------<br>--- ----- --- --- ------ -------- ----- --- ------ ----- --<br>----- ----- ---------- --- --- ------ ------ ---- -- ------<br>------- --- ------ ----- --- ---- ------- -- ---- --- --<br>------- ------,182643.90000000037,182640.5,182148.934,182156.09999999963,182165.635,182649.964,,6,secured
screen,html.Screen,2_1_1_1_7,2022-04-28T09:47:17.419Z,,,,,,,,,,,,,,,,,54,,,,,,,,,,,,,,454.4360000003653,,response,,,,100,,,,,,,Space,keypress(Space),,,,,,,,-- --- ---- --- ------ ----- ------- much -- --- ------- --<br>------- ---------- ------ -- ----- -- ----- -- ---- ------<br>--- ----- --- --- ------ -------- ----- --- ------ ----- --<br>----- ----- ---------- --- --- ------ ------ ---- -- ------<br>------- --- ------ ----- --- ---- ------- -- ---- --- --<br>------- ------,183107.7999999998,183104.40000000037,182633.263,182644.09999999963,182649.964,183117.592,,7,much
screen,html.Screen,2_1_1_1_8,2022-04-28T09:47:17.891Z,,,,,,,,,,,,,,,,,54,,,,,,,,,,,,,,458.9079999999958,,response,,,,100,,,,,,,Space,keypress(Space),,,,,,,,-- --- ---- --- ------ ----- ------- ---- of --- ------- --<br>------- ---------- ------ -- ----- -- ----- -- ---- ------<br>--- ----- --- --- ------ -------- ----- --- ------ ----- --<br>----- ----- ---------- --- --- ------ ------ ---- -- ------<br>------- --- ------ ----- --- ---- ------- -- ---- --- --<br>------- ------,183579.59999999963,183576.5,183100.891,183107.90000000037,183117.592,183585.22,,8,of
screen,html.Screen,2_1_1_1_9,2022-04-28T09:47:18.323Z,,,,,,,,,,,,,,,,,54,,,,,,,,,,,,,,423.18000000037136,,response,,,,100,,,,,,,Space,keypress(Space),,,,,,,,-- --- ---- --- ------ ----- ------- ---- -- its ------- --<br>------- ---------- ------ -- ----- -- ----- -- ---- ------<br>--- ----- --- --- ------ -------- ----- --- ------ ----- --<br>----- ----- ---------- --- --- ------ ------ ---- -- ------<br>------- --- ------ ----- --- ---- ------- -- ---- --- --<br>------- ------,184011.7000000002,184008.40000000037,183568.519,183579.7999999998,183585.22,184019.446,,9,its
screen,html.Screen,2_1_1_1_10,2022-04-28T09:47:18.843Z,,,,,,,,,,,,,,,,,54,,,,,,,,,,,,,,508.95400000037625,,response,,,,100,,,,,,,Space,keypress(Space),,,,,,,,-- --- ---- --- ------ ----- ------- ---- -- --- revenue --<br>------- ---------- ------ -- ----- -- ----- -- ---- ------<br>--- ----- --- --- ------ -------- ----- --- ------ ----- --<br>----- ----- ---------- --- --- ------ ------ ---- -- ------<br>------- --- ------ ----- --- ---- ------- -- ---- --- --<br>------- ------,184531.7999999998,184528.40000000037,184002.745,184011.90000000037,184019.446,184537.177,,10,revenue
screen,html.Screen,2_1_1_1_11,2022-04-28T09:47:19.356Z,,,,,,,,,,,,,,,,,54,,,,,,,,,,,,,,503.2230000003765,,response,,,,100,,,,,,,Space,keypress(Space),,,,,,,,-- --- ---- --- ------ ----- ------- ---- -- --- ------- by<br>------- ---------- ------ -- ----- -- ----- -- ---- ------<br>--- ----- --- --- ------ -------- ----- --- ------ ----- --<br>----- ----- ---------- --- --- ------ ------ ---- -- ------<br>------- --- ------ ----- --- ---- ------- -- ---- --- --<br>------- ------,185043.7999999998,185040.40000000037,184520.476,184532,184537.177,185054.908,,11,by
screen,html.Screen,2_1_1_1_12,2022-04-28T09:47:19.867Z,,,,,,,,,,,,,,,,,54,,,,,,,,,,,,,,497.4920000003767,,response,,,,100,,,,,,,Space,keypress(Space),,,,,,,,-- --- ---- --- ------ ----- ------- ---- -- --- ------- --<br>issuing ---------- ------ -- ----- -- ----- -- ---- ------<br>--- ----- --- --- ------ -------- ----- --- ------ ----- --<br>----- ----- ---------- --- --- ------ ------ ---- -- ------<br>------- --- ------ ----- --- ---- ------- -- ---- --- --<br>------- ------,185555.7000000002,185552.40000000037,185038.207,185044,185054.908,185572.639,,12,issuing
screen,html.Screen,2_1_1_1_13,2022-04-28T09:47:20.355Z,,,,,,,,,,,,,,,,,54,,,,,,,,,,,,,,467.66099999981816,,response,,,,100,,,,,,,Space,keypress(Space),,,,,,,,-- --- ---- --- ------ ----- ------- ---- -- --- ------- --<br>------- government ------ -- ----- -- ----- -- ---- ------<br>--- ----- --- --- ------ -------- ----- --- ------ ----- --<br>----- ----- ---------- --- --- ------ ------ ---- -- ------<br>------- --- ------ ----- --- ---- ------- -- ---- --- --<br>------- ------,186043.5,186040.2999999998,185555.938,185556,185572.639,186056.968,,13,government
screen,html.Screen,2_1_1_1_14,2022-04-28T09:47:20.916Z,,,,,,,,,,,,,,,,,54,,,,,,,,,,,,,,543.5320000000065,,response,,,,100,,,,,,,Space,keypress(Space),,,,,,,,-- --- ---- --- ------ ----- ------- ---- -- --- ------- --<br>------- ---------- bonds. -- ----- -- ----- -- ---- ------<br>--- ----- --- --- ------ -------- ----- --- ------ ----- --<br>----- ----- ---------- --- --- ------ ------ ---- -- ------<br>------- --- ------ ----- --- ---- ------- -- ---- --- --<br>------- ------,186603.90000000037,186600.5,186040.267,186043.7000000002,186056.968,186608.101,,14,bonds.
screen,html.Screen,2_1_1_1_15,2022-04-28T09:47:23.307Z,,,,,,,,,,,,,,,,,54,,,,,,,,,,,,,,2384.399000000005,,response,,,,100,,,,,,,Space,keypress(Space),,,,,,,,-- --- ---- --- ------ ----- ------- ---- -- --- ------- --<br>------- ---------- ------ In ----- -- ----- -- ---- ------<br>--- ----- --- --- ------ -------- ----- --- ------ ----- --<br>----- ----- ---------- --- --- ------ ------ ---- -- ------<br>------- --- ------ ----- --- ---- ------- -- ---- --- --<br>------- ------,188995.90000000037,188992.5,186591.4,186604.09999999963,186608.101,189013.045,,15,In
screen,html.Screen,2_1_1_1_16,2022-04-28T09:47:23.763Z,,,,,,,,,,,,,,,,,54,,,,,,,,,,,,,,435.3550000003597,,response,,,,100,,,,,,,Space,keypress(Space),,,,,,,,"-- --- ---- --- ------ ----- ------- ---- -- --- ------- --<br>------- ---------- ------ -- 1727, -- ----- -- ---- ------<br>--- ----- --- --- ------ -------- ----- --- ------ ----- --<br>----- ----- ---------- --- --- ------ ------ ---- -- ------<br>------- --- ------ ----- --- ---- ------- -- ---- --- --<br>------- ------",189451.59999999963,189448.40000000037,188996.344,188996.09999999963,189013.045,189463.972,,16,"1727,"
screen,html.Screen,2_1_1_1_17,2022-04-28T09:47:24.203Z,,,,,,,,,,,,,,,,,54,,,,,,,,,,,,,,424.4280000003637,,response,,,,100,,,,,,,Space,keypress(Space),,,,,,,,-- --- ---- --- ------ ----- ------- ---- -- --- ------- --<br>------- ---------- ------ -- ----- in ----- -- ---- ------<br>--- ----- --- --- ------ -------- ----- --- ------ ----- --<br>----- ----- ---------- --- --- ------ ------ ---- -- ------<br>------- --- ------ ----- --- ---- ------- -- ---- --- --<br>------- ------,189891.7999999998,189888.40000000037,189447.271,189451.7999999998,189463.972,189898.198,,17,in
screen,html.Screen,2_1_1_1_18,2022-04-28T09:47:24.675Z,,,,,,,,,,,,,,,,,54,,,,,,,,,,,,,,462.30199999999604,,response,,,,100,,,,,,,Space,keypress(Space),,,,,,,,-- --- ---- --- ------ ----- ------- ---- -- --- ------- --<br>------- ---------- ------ -- ----- -- order -- ---- ------<br>--- ----- --- --- ------ -------- ----- --- ------ ----- --<br>----- ----- ---------- --- --- ------ ------ ---- -- ------<br>------- --- ------ ----- --- ---- ------- -- ---- --- --<br>------- ------,190363.7000000002,190360.5,189881.497,189891.90000000037,189898.198,190365.826,,18,order
screen,html.Screen,2_1_1_1_19,2022-04-28T09:47:25.107Z,,,,,,,,,,,,,,,,,54,,,,,,,,,,,,,,426.67399999999907,,response,,,,100,,,,,,,Space,keypress(Space),,,,,,,,-- --- ---- --- ------ ----- ------- ---- -- --- ------- --<br>------- ---------- ------ -- ----- -- ----- to ---- ------<br>--- ----- --- --- ------ -------- ----- --- ------ ----- --<br>----- ----- ---------- --- --- ------ ------ ---- -- ------<br>------- --- ------ ----- --- ---- ------- -- ---- --- --<br>------- ------,190796,190792.5,190349.125,190363.90000000037,190365.826,190800.052,,19,to
screen,html.Screen,2_1_1_1_20,2022-04-28T09:47:25.596Z,,,,,,,,,,,,,,,,,54,,,,,,,,,,,,,,480.44800000000396,,response,,,,100,,,,,,,Space,keypress(Space),,,,,,,,-- --- ---- --- ------ ----- ------- ---- -- --- ------- --<br>------- ---------- ------ -- ----- -- ----- -- save ------<br>--- ----- --- --- ------ -------- ----- --- ------ ----- --<br>----- ----- ---------- --- --- ------ ------ ---- -- ------<br>------- --- ------ ----- --- ---- ------- -- ---- --- --<br>------- ------,191284.09999999963,191280.5,190783.351,190796.09999999963,190800.052,191301.082,,20,save
screen,html.Screen,2_1_1_1_21,2022-04-28T09:47:26.075Z,,,,,,,,,,,,,,,,,54,,,,,,,,,,,,,,459.31800000037765,,response,,,,100,,,,,,,Space,keypress(Space),,,,,,,,"-- --- ---- --- ------ ----- ------- ---- -- --- ------- --<br>------- ---------- ------ -- ----- -- ----- -- ---- money,<br>--- ----- --- --- ------ -------- ----- --- ------ ----- --<br>----- ----- ---------- --- --- ------ ------ ---- -- ------<br>------- --- ------ ----- --- ---- ------- -- ---- --- --<br>------- ------",191764,191760.40000000037,191284.381,191284.2999999998,191301.082,191769.604,,21,"money,"
screen,html.Screen,2_1_1_1_22,2022-04-28T09:47:26.514Z,,,,,,,,,,,,,,,,,54,,,,,,,,,,,,,,430.69599999982165,,response,,,,100,,,,,,,Space,keypress(Space),,,,,,,,-- --- ---- --- ------ ----- ------- ---- -- --- ------- --<br>------- ---------- ------ -- ----- -- ----- -- ---- ------<br>the ----- --- --- ------ -------- ----- --- ------ ----- --<br>----- ----- ---------- --- --- ------ ------ ---- -- ------<br>------- --- ------ ----- --- ---- ------- -- ---- --- --<br>------- ------,192202.7999999998,192200.2999999998,191752.903,191764.09999999963,191769.604,192203.83,,22,the
screen,html.Screen,2_1_1_1_23,2022-04-28T09:47:27.274Z,,,,,,,,,,,,,,,,,54,,,,,,,,,,,,,,756.5700000003853,,response,,,,100,,,,,,,Space,keypress(Space),,,,,,,,-- --- ---- --- ------ ----- ------- ---- -- --- ------- --<br>------- ---------- ------ -- ----- -- ----- -- ---- ------<br>--- state --- --- ------ -------- ----- --- ------ ----- --<br>----- ----- ---------- --- --- ------ ------ ---- -- ------<br>------- --- ------ ----- --- ---- ------- -- ---- --- --<br>------- ------,192962.7000000002,192960.40000000037,192187.129,192203,192203.83,192972.076,,23,state
screen,html.Screen,2_1_1_1_24,2022-04-28T09:47:27.739Z,,,,,,,,,,,,,,,,,54,,,,,,,,,,,,,,452.3240000003716,,response,,,,100,,,,,,,Space,keypress(Space),,,,,,,,-- --- ---- --- ------ ----- ------- ---- -- --- ------- --<br>------- ---------- ------ -- ----- -- ----- -- ---- ------<br>--- ----- cut --- ------ -------- ----- --- ------ ----- --<br>----- ----- ---------- --- --- ------ ------ ---- -- ------<br>------- --- ------ ----- --- ---- ------- -- ---- --- --<br>------- ------,193427.40000000037,193424.40000000037,192955.375,192962.7999999998,192972.076,193439.704,,24,cut
screen,html.Screen,2_1_1_1_25,2022-04-28T09:47:28.195Z,,,,,,,,,,,,,,,,,54,,,,,,,,,,,,,,440.7960000000021,,response,,,,100,,,,,,,Space,keypress(Space),,,,,,,,-- --- ---- --- ------ ----- ------- ---- -- --- ------- --<br>------- ---------- ------ -- ----- -- ----- -- ---- ------<br>--- ----- --- the ------ -------- ----- --- ------ ----- --<br>----- ----- ---------- --- --- ------ ------ ---- -- ------<br>------- --- ------ ----- --- ---- ------- -- ---- --- --<br>------- ------,193883.59999999963,193880.5,193423.003,193427.59999999963,193439.704,193890.631,,25,the
screen,html.Screen,2_1_1_1_26,2022-04-28T09:47:28.723Z,,,,,,,,,,,,,,,,,54,,,,,,,,,,,,,,517.869000000006,,response,,,,100,,,,,,,Space,keypress(Space),,,,,,,,-- --- ---- --- ------ ----- ------- ---- -- --- ------- --<br>------- ---------- ------ -- ----- -- ----- -- ---- ------<br>--- ----- --- --- bonds' -------- ----- --- ------ ----- --<br>----- ----- ---------- --- --- ------ ------ ---- -- ------<br>------- --- ------ ----- --- ---- ------- -- ---- --- --<br>------- ------,194411.7000000002,194408.5,193873.93,193883.7999999998,193890.631,194425.063,,26,bonds'
screen,html.Screen,2_1_1_1_27,2022-04-28T09:47:29.235Z,,,,,,,,,,,,,,,,,54,,,,,,,,,,,,,,495.3370000003779,,response,,,,100,,,,,,,Space,keypress(Space),,,,,,,,-- --- ---- --- ------ ----- ------- ---- -- --- ------- --<br>------- ---------- ------ -- ----- -- ----- -- ---- ------<br>--- ----- --- --- ------ interest ----- --- ------ ----- --<br>----- ----- ---------- --- --- ------ ------ ---- -- ------<br>------- --- ------ ----- --- ---- ------- -- ---- --- --<br>------- ------,194923.7999999998,194920.40000000037,194408.362,194411.90000000037,194425.063,194926.093,,27,interest
screen,html.Screen,2_1_1_1_28,2022-04-28T09:47:29.763Z,,,,,,,,,,,,,,,,,54,,,,,,,,,,,,,,522.4070000000065,,response,,,,100,,,,,,,Space,keypress(Space),,,,,,,,-- --- ---- --- ------ ----- ------- ---- -- --- ------- --<br>------- ---------- ------ -- ----- -- ----- -- ---- ------<br>--- ----- --- --- ------ -------- rate. --- ------ ----- --<br>----- ----- ---------- --- --- ------ ------ ---- -- ------<br>------- --- ------ ----- --- ---- ------- -- ---- --- --<br>------- ------,195452,195448.5,194909.392,194923.90000000037,194926.093,195460.525,,28,rate.
screen,html.Screen,2_1_1_1_29,2022-04-28T09:47:30.907Z,,,,,,,,,,,,,,,,,54,,,,,,,,,,,,,,1131.9750000000058,,response,,,,100,,,,,,,Space,keypress(Space),,,,,,,,-- --- ---- --- ------ ----- ------- ---- -- --- ------- --<br>------- ---------- ------ -- ----- -- ----- -- ---- ------<br>--- ----- --- --- ------ -------- ----- The ------ ----- --<br>----- ----- ---------- --- --- ------ ------ ---- -- ------<br>------- --- ------ ----- --- ---- ------- -- ---- --- --<br>------- ------,196595.90000000037,196592.5,195443.824,195452.2000000002,195460.525,196612.894,,29,The
screen,html.Screen,2_1_1_1_30,2022-04-28T09:47:31.379Z,,,,,,,,,,,,,,,,,54,,,,,,,,,,,,,,451.4059999998135,,response,,,,100,,,,,,,Space,keypress(Space),,,,,,,,-- --- ---- --- ------ ----- ------- ---- -- --- ------- --<br>------- ---------- ------ -- ----- -- ----- -- ---- ------<br>--- ----- --- --- ------ -------- ----- --- market ----- --<br>----- ----- ---------- --- --- ------ ------ ---- -- ------<br>------- --- ------ ----- --- ---- ------- -- ---- --- --<br>------- ------,197067.7000000002,197064.2999999998,196596.193,196596,196612.894,197080.522,,30,market
screen,html.Screen,2_1_1_1_31,2022-04-28T09:47:31.851Z,,,,,,,,,,,,,,,,,54,,,,,,,,,,,,,,455.9780000000028,,response,,,,100,,,,,,,Space,keypress(Space),,,,,,,,-- --- ---- --- ------ ----- ------- ---- -- --- ------- --<br>------- ---------- ------ -- ----- -- ----- -- ---- ------<br>--- ----- --- --- ------ -------- ----- --- ------ value --<br>----- ----- ---------- --- --- ------ ------ ---- -- ------<br>------- --- ------ ----- --- ---- ------- -- ---- --- --<br>------- ------,197539.90000000037,197536.5,197063.821,197067.90000000037,197080.522,197548.15,,31,value
screen,html.Screen,2_1_1_1_32,2022-04-28T09:47:32.314Z,,,,,,,,,,,,,,,,,54,,,,,,,,,,,,,,452.0500000001921,,response,,,,100,,,,,,,Space,keypress(Space),,,,,,,,-- --- ---- --- ------ ----- ------- ---- -- --- ------- --<br>------- ---------- ------ -- ----- -- ----- -- ---- ------<br>--- ----- --- --- ------ -------- ----- --- ------ ----- of<br>----- ----- ---------- --- --- ------ ------ ---- -- ------<br>------- --- ------ ----- --- ---- ------- -- ---- --- --<br>------- ------,198002.2999999998,198000.2000000002,197531.449,197540,197548.15,198015.778,,32,of
screen,html.Screen,2_1_1_1_33,2022-04-28T09:47:32.771Z,,,,,,,,,,,,,,,,,54,,,,,,,,,,,,,,440.72200000000885,,response,,,,100,,,,,,,Space,keypress(Space),,,,,,,,-- --- ---- --- ------ ----- ------- ---- -- --- ------- --<br>------- ---------- ------ -- ----- -- ----- -- ---- ------<br>--- ----- --- --- ------ -------- ----- --- ------ ----- --<br>these ----- ---------- --- --- ------ ------ ---- -- ------<br>------- --- ------ ----- --- ---- ------- -- ---- --- --<br>------- ------,198459.2999999998,198456.5,197999.077,198002.5,198015.778,198466.705,,33,these
screen,html.Screen,2_1_1_1_34,2022-04-28T09:47:33.235Z,,,,,,,,,,,,,,,,,54,,,,,,,,,,,,,,453.7950000000128,,response,,,,100,,,,,,,Space,keypress(Space),,,,,,,,-- --- ---- --- ------ ----- ------- ---- -- --- ------- --<br>------- ---------- ------ -- ----- -- ----- -- ---- ------<br>--- ----- --- --- ------ -------- ----- --- ------ ----- --<br>----- bonds ---------- --- --- ------ ------ ---- -- ------<br>------- --- ------ ----- --- ---- ------- -- ---- --- --<br>------- ------,198923.59999999963,198920.5,198450.004,198459.40000000037,198466.705,198934.333,,34,bonds
screen,html.Screen,2_1_1_1_35,2022-04-28T09:47:33.907Z,,,,,,,,,,,,,,,,,54,,,,,,,,,,,,,,658.0670000003593,,response,,,,100,,,,,,,Space,keypress(Space),,,,,,,,"-- --- ---- --- ------ ----- ------- ---- -- --- ------- --<br>------- ---------- ------ -- ----- -- ----- -- ---- ------<br>--- ----- --- --- ------ -------- ----- --- ------ ----- --<br>----- ----- plummeted, --- --- ------ ------ ---- -- ------<br>------- --- ------ ----- --- ---- ------- -- ---- --- --<br>------- ------",199595.7999999998,199592.40000000037,198917.632,198924.5,198934.333,199602.373,,35,"plummeted,"
screen,html.Screen,2_1_1_1_36,2022-04-28T09:47:34.428Z,,,,,,,,,,,,,,,,,54,,,,,,,,,,,,,,510.1270000000077,,response,,,,100,,,,,,,Space,keypress(Space),,,,,,,,-- --- ---- --- ------ ----- ------- ---- -- --- ------- --<br>------- ---------- ------ -- ----- -- ----- -- ---- ------<br>--- ----- --- --- ------ -------- ----- --- ------ ----- --<br>----- ----- ---------- and --- ------ ------ ---- -- ------<br>------- --- ------ ----- --- ---- ------- -- ---- --- --<br>------- ------,200116.09999999963,200112.5,199585.672,199596,199602.373,200120.104,,36,and
screen,html.Screen,2_1_1_1_37,2022-04-28T09:47:34.811Z,,,,,,,,,,,,,,,,,54,,,,,,,,,,,,,,376.29600000038045,,response,,,,100,,,,,,,Space,keypress(Space),,,,,,,,-- --- ---- --- ------ ----- ------- ---- -- --- ------- --<br>------- ---------- ------ -- ----- -- ----- -- ---- ------<br>--- ----- --- --- ------ -------- ----- --- ------ ----- --<br>----- ----- ---------- --- the ------ ------ ---- -- ------<br>------- --- ------ ----- --- ---- ------- -- ---- --- --<br>------- ------,200499.59999999963,200496.40000000037,200103.403,200116.2999999998,200120.104,200504.227,,37,the
screen,html.Screen,2_1_1_1_38,2022-04-28T09:47:35.259Z,,,,,,,,,,,,,,,,,54,,,,,,,,,,,,,,440.173000000359,,response,,,,100,,,,,,,Space,keypress(Space),,,,,,,,-- --- ---- --- ------ ----- ------- ---- -- --- ------- --<br>------- ---------- ------ -- ----- -- ----- -- ---- ------<br>--- ----- --- --- ------ -------- ----- --- ------ ----- --<br>----- ----- ---------- --- --- market ------ ---- -- ------<br>------- --- ------ ----- --- ---- ------- -- ---- --- --<br>------- ------,200947.59999999963,200944.40000000037,200487.526,200499.7999999998,200504.227,200955.154,,38,market
screen,html.Screen,2_1_1_1_39,2022-04-28T09:47:35.675Z,,,,,,,,,,,,,,,,,54,,,,,,,,,,,,,,405.246000000363,,response,,,,100,,,,,,,Space,keypress(Space),,,,,,,,-- --- ---- --- ------ ----- ------- ---- -- --- ------- --<br>------- ---------- ------ -- ----- -- ----- -- ---- ------<br>--- ----- --- --- ------ -------- ----- --- ------ ----- --<br>----- ----- ---------- --- --- ------ became ---- -- ------<br>------- --- ------ ----- --- ---- ------- -- ---- --- --<br>------- ------,201363.5,201360.40000000037,200938.453,200947.7999999998,200955.154,201372.679,,39,became
screen,html.Screen,2_1_1_1_40,2022-04-28T09:47:36.107Z,,,,,,,,,,,,,,,,,54,,,,,,,,,,,,,,419.8209999999963,,response,,,,100,,,,,,,Space,keypress(Space),,,,,,,,-- --- ---- --- ------ ----- ------- ---- -- --- ------- --<br>------- ---------- ------ -- ----- -- ----- -- ---- ------<br>--- ----- --- --- ------ -------- ----- --- ------ ----- --<br>----- ----- ---------- --- --- ------ ------ wary -- ------<br>------- --- ------ ----- --- ---- ------- -- ---- --- --<br>------- ------,201795.90000000037,201792.5,201355.978,201363.7999999998,201372.679,201807.971,,40,wary
screen,html.Screen,2_1_1_1_41,2022-04-28T09:47:36.515Z,,,,,,,,,,,,,,,,,54,,,,,,,,,,,,,,392.52900000000955,,response,,,,100,,,,,,,Space,keypress(Space),,,,,,,,-- --- ---- --- ------ ----- ------- ---- -- --- ------- --<br>------- ---------- ------ -- ----- -- ----- -- ---- ------<br>--- ----- --- --- ------ -------- ----- --- ------ ----- --<br>----- ----- ---------- --- --- ------ ------ ---- of ------<br>------- --- ------ ----- --- ---- ------- -- ---- --- --<br>------- ------,202203.90000000037,202200.5,201791.27,201796,201807.971,202208.795,,41,of
screen,html.Screen,2_1_1_1_42,2022-04-28T09:47:37.027Z,,,,,,,,,,,,,,,,,54,,,,,,,,,,,,,,503.50499999980093,,response,,,,100,,,,,,,Space,keypress(Space),,,,,,,,-- --- ---- --- ------ ----- ------- ---- -- --- ------- --<br>------- ---------- ------ -- ----- -- ----- -- ---- ------<br>--- ----- --- --- ------ -------- ----- --- ------ ----- --<br>----- ----- ---------- --- --- ------ ------ ---- -- French<br>------- --- ------ ----- --- ---- ------- -- ---- --- --<br>------- ------,202715.5,202712.2999999998,202192.094,202204.09999999963,202208.795,202726.526,,42,French
screen,html.Screen,2_1_1_1_43,2022-04-28T09:47:37.611Z,,,,,,,,,,,,,,,,,54,,,,,,,,,,,,,,569.9739999999874,,response,,,,100,,,,,,,Space,keypress(Space),,,,,,,,-- --- ---- --- ------ ----- ------- ---- -- --- ------- --<br>------- ---------- ------ -- ----- -- ----- -- ---- ------<br>--- ----- --- --- ------ -------- ----- --- ------ ----- --<br>----- ----- ---------- --- --- ------ ------ ---- -- ------<br>credit. --- ------ ----- --- ---- ------- -- ---- --- --<br>------- ------,203299.59999999963,203296.5,202709.825,202715.59999999963,202726.526,203311.061,,43,credit.
screen,html.Screen,2_1_1_1_44,2022-04-28T09:47:38.155Z,,,,,,,,,,,,,,,,,54,,,,,,,,,,,,,,529.3390000003856,,response,,,,100,,,,,,,Space,keypress(Space),,,,,,,,-- --- ---- --- ------ ----- ------- ---- -- --- ------- --<br>------- ---------- ------ -- ----- -- ----- -- ---- ------<br>--- ----- --- --- ------ -------- ----- --- ------ ----- --<br>----- ----- ---------- --- --- ------ ------ ---- -- ------<br>------- The ------ ----- --- ---- ------- -- ---- --- --<br>------- ------,203843.90000000037,203840.40000000037,203294.36,203299.7999999998,203311.061,203845.493,,44,The
screen,html.Screen,2_1_1_1_45,2022-04-28T09:47:38.667Z,,,,,,,,,,,,,,,,,54,,,,,,,,,,,,,,507.00700000001234,,response,,,,100,,,,,,,Space,keypress(Space),,,,,,,,-- --- ---- --- ------ ----- ------- ---- -- --- ------- --<br>------- ---------- ------ -- ----- -- ----- -- ---- ------<br>--- ----- --- --- ------ -------- ----- --- ------ ----- --<br>----- ----- ---------- --- --- ------ ------ ---- -- ------<br>------- --- French ----- --- ---- ------- -- ---- --- --<br>------- ------,204355.90000000037,204352.5,203828.792,203844.09999999963,203845.493,204363.224,,45,French
screen,html.Screen,2_1_1_1_46,2022-04-28T09:47:39.179Z,,,,,,,,,,,,,,,,,54,,,,,,,,,,,,,,501.2760000000126,,response,,,,100,,,,,,,Space,keypress(Space),,,,,,,,-- --- ---- --- ------ ----- ------- ---- -- --- ------- --<br>------- ---------- ------ -- ----- -- ----- -- ---- ------<br>--- ----- --- --- ------ -------- ----- --- ------ ----- --<br>----- ----- ---------- --- --- ------ ------ ---- -- ------<br>------- --- ------ state --- ---- ------- -- ---- --- --<br>------- ------,204867.7999999998,204864.5,204346.523,204356,204363.224,204880.955,,46,state
screen,html.Screen,2_1_1_1_47,2022-04-28T09:47:39.643Z,,,,,,,,,,,,,,,,,54,,,,,,,,,,,,,,447.44500000038533,,response,,,,100,,,,,,,Space,keypress(Space),,,,,,,,-- --- ---- --- ------ ----- ------- ---- -- --- ------- --<br>------- ---------- ------ -- ----- -- ----- -- ---- ------<br>--- ----- --- --- ------ -------- ----- --- ------ ----- --<br>----- ----- ---------- --- --- ------ ------ ---- -- ------<br>------- --- ------ ----- was ---- ------- -- ---- --- --<br>------- ------,205331.90000000037,205328.40000000037,204864.254,204868,204880.955,205348.583,,47,was
screen,html.Screen,2_1_1_1_48,2022-04-28T09:47:40.163Z,,,,,,,,,,,,,,,,,54,,,,,,,,,,,,,,499.71699999980046,,response,,,,100,,,,,,,Space,keypress(Space),,,,,,,,-- --- ---- --- ------ ----- ------- ---- -- --- ------- --<br>------- ---------- ------ -- ----- -- ----- -- ---- ------<br>--- ----- --- --- ------ -------- ----- --- ------ ----- --<br>----- ----- ---------- --- --- ------ ------ ---- -- ------<br>------- --- ------ ----- --- left ------- -- ---- --- --<br>------- ------,205851.7999999998,205848.2999999998,205331.882,205332.09999999963,205348.583,205866.314,,48,left
screen,html.Screen,2_1_1_1_49,2022-04-28T09:47:40.603Z,,,,,,,,,,,,,,,,,54,,,,,,,,,,,,,,422.0860000003595,,response,,,,100,,,,,,,Space,keypress(Space),,,,,,,,-- --- ---- --- ------ ----- ------- ---- -- --- ------- --<br>------- ---------- ------ -- ----- -- ----- -- ---- ------<br>--- ----- --- --- ------ -------- ----- --- ------ ----- --<br>----- ----- ---------- --- --- ------ ------ ---- -- ------<br>------- --- ------ ----- --- ---- without -- ---- --- --<br>------- ------,206291.59999999963,206288.40000000037,205849.613,205851.90000000037,205866.314,206300.54,,49,without
screen,html.Screen,2_1_1_1_50,2022-04-28T09:47:41.083Z,,,,,,,,,,,,,,,,,54,,,,,,,,,,,,,,467.95999999999185,,response,,,,100,,,,,,,Space,keypress(Space),,,,,,,,-- --- ---- --- ------ ----- ------- ---- -- --- ------- --<br>------- ---------- ------ -- ----- -- ----- -- ---- ------<br>--- ----- --- --- ------ -------- ----- --- ------ ----- --<br>----- ----- ---------- --- --- ------ ------ ---- -- ------<br>------- --- ------ ----- --- ---- ------- an ---- --- --<br>------- ------,206772,206768.5,206283.839,206291.7999999998,206300.54,206784.869,,50,an
screen,html.Screen,2_1_1_1_51,2022-04-28T09:47:41.523Z,,,,,,,,,,,,,,,,,54,,,,,,,,,,,,,,423.5310000003665,,response,,,,100,,,,,,,Space,keypress(Space),,,,,,,,-- --- ---- --- ------ ----- ------- ---- -- --- ------- --<br>------- ---------- ------ -- ----- -- ----- -- ---- ------<br>--- ----- --- --- ------ -------- ----- --- ------ ----- --<br>----- ----- ---------- --- --- ------ ------ ---- -- ------<br>------- --- ------ ----- --- ---- ------- -- easy --- --<br>------- ------,207211.7999999998,207208.40000000037,206768.168,206772.2000000002,206784.869,207219.095,,51,easy
screen,html.Screen,2_1_1_1_52,2022-04-28T09:47:41.931Z,,,,,,,,,,,,,,,,,54,,,,,,,,,,,,,,397.30500000037136,,response,,,,100,,,,,,,Space,keypress(Space),,,,,,,,-- --- ---- --- ------ ----- ------- ---- -- --- ------- --<br>------- ---------- ------ -- ----- -- ----- -- ---- ------<br>--- ----- --- --- ------ -------- ----- --- ------ ----- --<br>----- ----- ---------- --- --- ------ ------ ---- -- ------<br>------- --- ------ ----- --- ---- ------- -- ---- way --<br>------- ------,207619.7999999998,207616.40000000037,207202.394,207211.90000000037,207219.095,207636.62,,52,way
screen,html.Screen,2_1_1_1_53,2022-04-28T09:47:42.427Z,,,,,,,,,,,,,,,,,54,,,,,,,,,,,,,,475.88000000000466,,response,,,,100,,,,,,,Space,keypress(Space),,,,,,,,-- --- ---- --- ------ ----- ------- ---- -- --- ------- --<br>------- ---------- ------ -- ----- -- ----- -- ---- ------<br>--- ----- --- --- ------ -------- ----- --- ------ ----- --<br>----- ----- ---------- --- --- ------ ------ ---- -- ------<br>------- --- ------ ----- --- ---- ------- -- ---- --- of<br>------- ------,208115.7999999998,208112.5,207619.919,207619.90000000037,207636.62,208120.949,,53,of
screen,html.Screen,2_1_1_1_54,2022-04-28T09:47:42.979Z,,,,,,,,,,,,,,,,,54,,,,,,,,,,,,,,543.5510000000068,,response,,,,100,,,,,,,Space,keypress(Space),,,,,,,,-- --- ---- --- ------ ----- ------- ---- -- --- ------- --<br>------- ---------- ------ -- ----- -- ----- -- ---- ------<br>--- ----- --- --- ------ -------- ----- --- ------ ----- --<br>----- ----- ---------- --- --- ------ ------ ---- -- ------<br>------- --- ------ ----- --- ---- ------- -- ---- --- --<br>raising ------,208668,208664.5,208104.248,208115.90000000037,208120.949,208672.082,,54,raising
screen,html.Screen,2_1_1_1_55,2022-04-28T09:47:43.995Z,,,,,,,,,,,,,,,,,54,,,,,,,,,,,,,,1008.4180000000051,,response,,,,100,,,,,,,Space,keypress(Space),,,,,,,,-- --- ---- --- ------ ----- ------- ---- -- --- ------- --<br>------- ---------- ------ -- ----- -- ----- -- ---- ------<br>--- ----- --- --- ------ -------- ----- --- ------ ----- --<br>----- ----- ---------- --- --- ------ ------ ---- -- ------<br>------- --- ------ ----- --- ---- ------- -- ---- --- --<br>------- money.,209683.7000000002,209680.5,208655.381,208668.2000000002,208672.082,209690.843,,55,money.
Item 100,flow.Loop,2_1_1_1,2022-04-28T09:47:43.995Z,,,,,,,,,,,,,,,,,,,,,,,,,,,,,,,31073.203999999998,,completion,,,,,D,,,,,,,,,,,silence,,,,,209684,209680.5,178590.595,178593,178607.296,209690.843,,,
Question 1,html.Screen,2_1_1_2,2022-04-28T09:48:00.075Z,,,,,,,,,,,,,,,,,,,,,,,,,,,,false,TRUE,,16070.557000000379,,response,,,,100,D,,,,,,FALSE,click #choice-2,,,,silence,,,,,225764,225761.40000000037,209674.142,209684.2000000002,209690.843,225775.953,,,
Question 2,html.Screen,2_1_1_3,2022-04-28T09:48:03.080Z,,,,,,,,,,,,,,,,,,,,,,,,,,,,true,FALSE,,2989.346999999805,,response,,,,100,D,,,,,,FALSE,click #choice-2,,,,silence,,,,,228768.5,228765.2999999998,225759.252,225764.2999999998,225775.953,228782.133,,,
Item 100,flow.Sequence,2_1_1,2022-04-28T09:48:03.080Z,,,,,,,,,,,,,,,,,,,,,,,,,,,,,,,60162.91699999981,,completion,,,,,,,,,,,,,,,,,,,,,228768.7999999998,228765.2999999998,168585.682,168599.5,168602.383,228782.133,,,
End of Practice,html.Page,2_1_2,2022-04-28T09:48:23.086Z,,,,,,,,,,,,,,,,,,,,,,,,,,,,,,,20007.79800000001,,timeout,,,,,,,,,,,,,,,,,,,,,248775.2999999998,248773.23,228765.432,228769,228782.133,248789.931,,,
Practice,flow.Sequence,2_1,2022-04-28T09:48:23.086Z,,,,,,,,,,,,,,,,,,,,,,,,,,,,,,,139197.162,,completion,,,,,,,,,,,,,,,,,,,,,248775.59999999963,248773.23,109559.367,109569.40000000037,109576.068,248789.931,,,
Trap_instruction,html.Page,2_2_0,2022-04-28T09:48:43.094Z,,,,,,,,,,,,,,,,,,,,,,,,,,,,,,,20007.79799999998,,timeout,,,,,,,,,,,,,,,,,,,,,268783.4000000004,268781.028,248773.23,248775.7000000002,248789.931,268797.729,,,
trap_trial,html.Screen,2_2_1,2022-04-28T09:48:54.417Z,,,,,,,,,,,,,,,,,,,,,,,,,,,,true,1,,11305.771000000008,,response,,,,,,,,,,,1,click #choice-1,,,,,,,,,280106.7999999998,280103.5,268781.028,268783.7000000002,268797.729,280108.917,,,
end of trap trial,html.Page,2_2_2,2022-04-28T09:49:04.408Z,,,,,,,,,,,,,,,,,,,,,,,,,,,,,,,10003.898999999976,,timeout,,,,,,,,,,,,,,,,,,,,,290098.2000000002,290096.115,280092.216,280107,280108.917,290112.816,,,
Trap 1,flow.Sequence,2_2,2022-04-28T09:49:04.409Z,,,,,,,,,,,,,,,,,,,,,,,,,,,,,,,41306.18399999998,,completion,,,,,,,,,,,,,,,,,,,,,290098.5,290096.115,248773.23,248775.7000000002,248789.931,290112.816,,,
Standby,html.Page,2_3_0,2022-04-28T09:49:12.409Z,,,,,,,,,,,,,,,,,,,,,,,,,,,,,,,8000.869999999995,,timeout,,,,,,,,,,,,,,,,,,,,,298099.2999999998,298096.985,290096.115,290098.5999999996,290112.816,298113.686,,,
Holding screen,html.Screen,2_3_1_0_0,2022-04-28T09:49:19.408Z,,,,,,,,,,,,,,,,,,,,,,,,,,,,,,,6999.467000000004,,timeout,,,,,,,,,,,,,,,,,,,,,305098.4000000004,305096.452,298096.985,298099.7000000002,298113.686,305113.153,,,
screen,html.Screen,2_3_1_0_1_0,2022-04-28T09:49:22.066Z,,,,,,,,,,,,,,,,,2,,,,,,,,,,,,,,2639.1469999998226,,response,,,,1,D,,,,,,Space,keypress(Space),,,,speech,,,,Two ---- ------ --- ------- ---------- ------- ----------<br>--- --------- --- ----------- ------- ----- ------- ---<br>--------- ---- -- --- ---- -- --------- -- ---- -------<br>-- --------- ------ --- ----- ------ ---- --- --------- --<br>------ - ---- -- --- ----------- ------- ---- ----- -----<br>--- -------- - ------ ---- -- ----- ---- --- --- -----------<br>-- -------,307755.9000000004,307752.2999999998,305096.452,305098.7000000002,305113.153,307768.612,,0,Two
screen,html.Screen,2_3_1_0_1_1,2022-04-28T09:49:23.162Z,,,,,,,,,,,,,,,,,2,,,,,,,,,,,,,,1079.8879999999772,,response,,,,1,D,,,,,,Space,keypress(Space),,,,speech,,,,--- days ------ --- ------- ---------- ------- ----------<br>--- --------- --- ----------- ------- ----- ------- ---<br>--------- ---- -- --- ---- -- --------- -- ---- -------<br>-- --------- ------ --- ----- ------ ---- --- --------- --<br>------ - ---- -- --- ----------- ------- ---- ----- -----<br>--- -------- - ------ ---- -- ----- ---- --- --- -----------<br>-- -------,308851.9000000004,308848.5,307751.911,307756.0999999996,307768.612,308854.177,,1,days
screen,html.Screen,2_3_1_0_1_2,2022-04-28T09:49:23.962Z,,,,,,,,,,,,,,,,,2,,,,,,,,,,,,,,794.3229999999749,,response,,,,1,D,,,,,,Space,keypress(Space),,,,speech,,,,"--- ---- later, --- ------- ---------- ------- ----------<br>--- --------- --- ----------- ------- ----- ------- ---<br>--------- ---- -- --- ---- -- --------- -- ---- -------<br>-- --------- ------ --- ----- ------ ---- --- --------- --<br>------ - ---- -- --- ----------- ------- ---- ----- -----<br>--- -------- - ------ ---- -- ----- ---- --- --- -----------<br>-- -------",309651.7999999998,309648.5,308837.476,308852.2000000002,308854.177,309655.825,,2,"later,"
screen,html.Screen,2_3_1_0_1_3,2022-04-28T09:49:24.698Z,,,,,,,,,,,,,,,,,2,,,,,,,,,,,,,,728.6749999999884,,response,,,,1,D,,,,,,Space,keypress(Space),,,,speech,,,,--- ---- ------ the ------- ---------- ------- ----------<br>--- --------- --- ----------- ------- ----- ------- ---<br>--------- ---- -- --- ---- -- --------- -- ---- -------<br>-- --------- ------ --- ----- ------ ---- --- --------- --<br>------ - ---- -- --- ----------- ------- ---- ----- -----<br>--- -------- - ------ ---- -- ----- ---- --- --- -----------<br>-- -------,310388.0999999996,310384.5,309639.124,309651.9000000004,309655.825,310391.766,,3,the
screen,html.Screen,2_3_1_0_1_4,2022-04-28T09:49:25.394Z,,,,,,,,,,,,,,,,,2,,,,,,,,,,,,,,688.6340000003693,,response,,,,1,D,,,,,,Space,keypress(Space),,,,speech,,,,--- ---- ------ --- British ---------- ------- ----------<br>--- --------- --- ----------- ------- ----- ------- ---<br>--------- ---- -- --- ---- -- --------- -- ---- -------<br>-- --------- ------ --- ----- ------ ---- --- --------- --<br>------ - ---- -- --- ----------- ------- ---- ----- -----<br>--- -------- - ------ ---- -- ----- ---- --- --- -----------<br>-- -------,311083.9000000004,311080.4000000004,310375.065,310388.2999999998,310391.766,311093.208,,4,British
screen,html.Screen,2_3_1_0_1_5,2022-04-28T09:49:25.993Z,,,,,,,,,,,,,,,,,2,,,,,,,,,,,,,,587.0919999998296,,response,,,,1,D,,,,,,Space,keypress(Space),,,,speech,,,,--- ---- ------ --- ------- astronomer ------- ----------<br>--- --------- --- ----------- ------- ----- ------- ---<br>--------- ---- -- --- ---- -- --------- -- ---- -------<br>-- --------- ------ --- ----- ------ ---- --- --------- --<br>------ - ---- -- --- ----------- ------- ---- ----- -----<br>--- -------- - ------ ---- -- ----- ---- --- --- -----------<br>-- -------,311683.5,311680.2999999998,311076.507,311084,311093.208,311694.444,,5,astronomer
screen,html.Screen,2_3_1_0_1_6,2022-04-28T09:49:26.585Z,,,,,,,,,,,,,,,,,2,,,,,,,,,,,,,,577.9560000003548,,response,,,,1,D,,,,,,Space,keypress(Space),,,,speech,,,,--- ---- ------ --- ------- ---------- Richard ----------<br>--- --------- --- ----------- ------- ----- ------- ---<br>--------- ---- -- --- ---- -- --------- -- ---- -------<br>-- --------- ------ --- ----- ------ ---- --- --------- --<br>------ - ---- -- --- ----------- ------- ---- ----- -----<br>--- -------- - ------ ---- -- ----- ---- --- --- -----------<br>-- -------,312275.5999999996,312272.4000000004,311677.743,311683.7000000002,311694.444,312278.979,,6,Richard
screen,html.Screen,2_3_1_0_1_7,2022-04-28T09:49:27.418Z,,,,,,,,,,,,,,,,,2,,,,,,,,,,,,,,825.5210000000079,,response,,,,1,D,,,,,,Space,keypress(Space),,,,speech,,,,--- ---- ------ --- ------- ---------- ------- Carrington<br>--- --------- --- ----------- ------- ----- ------- ---<br>--------- ---- -- --- ---- -- --------- -- ---- -------<br>-- --------- ------ --- ----- ------ ---- --- --------- --<br>------ - ---- -- --- ----------- ------- ---- ----- -----<br>--- -------- - ------ ---- -- ----- ---- --- --- -----------<br>-- -------,313108,313104.5,312262.278,312275.7999999998,312278.979,313114.029,,7,Carrington
screen,html.Screen,2_3_1_0_1_8,2022-04-28T09:49:28.290Z,,,,,,,,,,,,,,,,,2,,,,,,,,,,,,,,862.3710000003921,,response,,,,1,D,,,,,,Space,keypress(Space),,,,speech,,,,--- ---- ------ --- ------- ---------- ------- ----------<br>was --------- --- ----------- ------- ----- ------- ---<br>--------- ---- -- --- ---- -- --------- -- ---- -------<br>-- --------- ------ --- ----- ------ ---- --- --------- --<br>------ - ---- -- --- ----------- ------- ---- ----- -----<br>--- -------- - ------ ---- -- ----- ---- --- --- -----------<br>-- -------,313980.0999999996,313976.4000000004,313097.328,313108.0999999996,313114.029,313982.481,,8,was
screen,html.Screen,2_3_1_0_1_9,2022-04-28T09:49:29.049Z,,,,,,,,,,,,,,,,,2,,,,,,,,,,,,,,754.0189999999711,,response,,,,1,D,,,,,,Space,keypress(Space),,,,speech,,,,--- ---- ------ --- ------- ---------- ------- ----------<br>--- observing --- ----------- ------- ----- ------- ---<br>--------- ---- -- --- ---- -- --------- -- ---- -------<br>-- --------- ------ --- ----- ------ ---- --- --------- --<br>------ - ---- -- --- ----------- ------- ---- ----- -----<br>--- -------- - ------ ---- -- ----- ---- --- --- -----------<br>-- -------,314739.5,314736.5,313965.78,313980.2999999998,313982.481,314750.727,,9,observing
screen,html.Screen,2_3_1_0_1_10,2022-04-28T09:49:30.017Z,,,,,,,,,,,,,,,,,2,,,,,,,,,,,,,,953.7729999999865,,response,,,,1,D,,,,,,Space,keypress(Space),,,,speech,,,,--- ---- ------ --- ------- ---------- ------- ----------<br>--- --------- the ----------- ------- ----- ------- ---<br>--------- ---- -- --- ---- -- --------- -- ---- -------<br>-- --------- ------ --- ----- ------ ---- --- --------- --<br>------ - ---- -- --- ----------- ------- ---- ----- -----<br>--- -------- - ------ ---- -- ----- ---- --- --- -----------<br>-- -------,315707.7000000002,315704.5,314734.026,314739.7999999998,314750.727,315719.385,,10,the
screen,html.Screen,2_3_1_0_1_11,2022-04-28T09:49:30.810Z,,,,,,,,,,,,,,,,,2,,,,,,,,,,,,,,777.0150000003632,,response,,,,1,D,,,,,,Space,keypress(Space),,,,speech,,,,--- ---- ------ --- ------- ---------- ------- ----------<br>--- --------- --- interesting ------- ----- ------- ---<br>--------- ---- -- --- ---- -- --------- -- ---- -------<br>-- --------- ------ --- ----- ------ ---- --- --------- --<br>------ - ---- -- --- ----------- ------- ---- ----- -----<br>--- -------- - ------ ---- -- ----- ---- --- --- -----------<br>-- -------,316499.9000000004,316496.4000000004,315702.684,315707.7999999998,315719.385,316504.332,,11,interesting
screen,html.Screen,2_3_1_0_1_12,2022-04-28T09:49:31.369Z,,,,,,,,,,,,,,,,,2,,,,,,,,,,,,,,552.0680000003777,,response,,,,1,D,,,,,,Space,keypress(Space),,,,speech,,,,--- ---- ------ --- ------- ---------- ------- ----------<br>--- --------- --- ----------- sunspot ----- ------- ---<br>--------- ---- -- --- ---- -- --------- -- ---- -------<br>-- --------- ------ --- ----- ------ ---- --- --------- --<br>------ - ---- -- --- ----------- ------- ---- ----- -----<br>--- -------- - ------ ---- -- ----- ---- --- --- -----------<br>-- -------,317059.7000000002,317056.4000000004,316487.631,316500.0999999996,316504.332,317072.166,,12,sunspot
screen,html.Screen,2_3_1_0_1_13,2022-04-28T09:49:32.186Z,,,,,,,,,,,,,,,,,2,,,,,,,,,,,,,,800.3339999999735,,response,,,,1,D,,,,,,Space,keypress(Space),,,,speech,,,,--- ---- ------ --- ------- ---------- ------- ----------<br>--- --------- --- ----------- ------- group ------- ---<br>--------- ---- -- --- ---- -- --------- -- ---- -------<br>-- --------- ------ --- ----- ------ ---- --- --------- --<br>------ - ---- -- --- ----------- ------- ---- ----- -----<br>--- -------- - ------ ---- -- ----- ---- --- --- -----------<br>-- -------,317876.2999999998,317872.5,317055.465,317059.7999999998,317072.166,317890.515,,13,group
screen,html.Screen,2_3_1_0_1_14,2022-04-28T09:49:32.818Z,,,,,,,,,,,,,,,,,2,,,,,,,,,,,,,,613.984999999986,,response,,,,1,D,,,,,,Space,keypress(Space),,,,speech,,,,--- ---- ------ --- ------- ---------- ------- ----------<br>--- --------- --- ----------- ------- ----- through ---<br>--------- ---- -- --- ---- -- --------- -- ---- -------<br>-- --------- ------ --- ----- ------ ---- --- --------- --<br>------ - ---- -- --- ----------- ------- ---- ----- -----<br>--- -------- - ------ ---- -- ----- ---- --- --- -----------<br>-- -------,318508.5,318504.5,317873.814,317876.5,317890.515,318525.153,,14,through
screen,html.Screen,2_3_1_0_1_15,2022-04-28T09:49:33.402Z,,,,,,,,,,,,,,,,,2,,,,,,,,,,,,,,563.2470000003814,,response,,,,1,D,,,,,,Space,keypress(Space),,,,speech,,,,--- ---- ------ --- ------- ---------- ------- ----------<br>--- --------- --- ----------- ------- ----- ------- his<br>--------- ---- -- --- ---- -- --------- -- ---- -------<br>-- --------- ------ --- ----- ------ ---- --- --------- --<br>------ - ---- -- --- ----------- ------- ---- ----- -----<br>--- -------- - ------ ---- -- ----- ---- --- --- -----------<br>-- -------,319091.7999999998,319088.4000000004,318508.452,318508.7000000002,318525.153,319092.987,,15,his
screen,html.Screen,2_3_1_0_1_16,2022-04-28T09:49:34.130Z,,,,,,,,,,,,,,,,,2,,,,,,,,,,,,,,723.4130000003497,,response,,,,1,D,,,,,,Space,keypress(Space),,,,speech,,,,--- ---- ------ --- ------- ---------- ------- ----------<br>--- --------- --- ----------- ------- ----- ------- ---<br>telescope ---- -- --- ---- -- --------- -- ---- -------<br>-- --------- ------ --- ----- ------ ---- --- --------- --<br>------ - ---- -- --- ----------- ------- ---- ----- -----<br>--- -------- - ------ ---- -- ----- ---- --- --- -----------<br>-- -------,319819.9000000004,319816.4000000004,319076.286,319092.0999999996,319092.987,319827.831,,16,telescope
screen,html.Screen,2_3_1_0_1_17,2022-04-28T09:49:35.066Z,,,,,,,,,,,,,,,,,2,,,,,,,,,,,,,,924.7689999996219,,response,,,,1,D,,,,,,Space,keypress(Space),,,,speech,,,,--- ---- ------ --- ------- ---------- ------- ----------<br>--- --------- --- ----------- ------- ----- ------- ---<br>--------- when -- --- ---- -- --------- -- ---- -------<br>-- --------- ------ --- ----- ------ ---- --- --------- --<br>------ - ---- -- --- ----------- ------- ---- ----- -----<br>--- -------- - ------ ---- -- ----- ---- --- --- -----------<br>-- -------,320756.2999999998,320752.5999999996,319811.13,319820.0999999996,319827.831,320764.108,,17,when
screen,html.Screen,2_3_1_0_1_18,2022-04-28T09:49:35.618Z,,,,,,,,,,,,,,,,,2,,,,,,,,,,,,,,540.3919999999925,,response,,,,1,D,,,,,,Space,keypress(Space),,,,speech,,,,--- ---- ------ --- ------- ---------- ------- ----------<br>--- --------- --- ----------- ------- ----- ------- ---<br>--------- ---- he --- ---- -- --------- -- ---- -------<br>-- --------- ------ --- ----- ------ ---- --- --------- --<br>------ - ---- -- --- ----------- ------- ---- ----- -----<br>--- -------- - ------ ---- -- ----- ---- --- --- -----------<br>-- -------,321308,321304.5,320747.407,320756.5,320764.108,321315.241,,18,he
screen,html.Screen,2_3_1_0_1_19,2022-04-28T09:49:36.137Z,,,,,,,,,,,,,,,,,2,,,,,,,,,,,,,,509.15900000039255,,response,,,,1,D,,,,,,Space,keypress(Space),,,,speech,,,,--- ---- ------ --- ------- ---------- ------- ----------<br>--- --------- --- ----------- ------- ----- ------- ---<br>--------- ---- -- saw ---- -- --------- -- ---- -------<br>-- --------- ------ --- ----- ------ ---- --- --------- --<br>------ - ---- -- --- ----------- ------- ---- ----- -----<br>--- -------- - ------ ---- -- ----- ---- --- --- -----------<br>-- -------,321827.7999999998,321824.4000000004,321298.54,321308.2999999998,321315.241,321832.972,,19,saw
screen,html.Screen,2_3_1_0_1_20,2022-04-28T09:49:36.721Z,,,,,,,,,,,,,,,,,2,,,,,,,,,,,,,,575.4280000003637,,response,,,,1,D,,,,,,Space,keypress(Space),,,,speech,,,,--- ---- ------ --- ------- ---------- ------- ----------<br>--- --------- --- ----------- ------- ----- ------- ---<br>--------- ---- -- --- what -- --------- -- ---- -------<br>-- --------- ------ --- ----- ------ ---- --- --------- --<br>------ - ---- -- --- ----------- ------- ---- ----- -----<br>--- -------- - ------ ---- -- ----- ---- --- --- -----------<br>-- -------,322411.7999999998,322408.4000000004,321816.271,321827.9000000004,321832.972,322417.507,,20,what
screen,html.Screen,2_3_1_0_1_21,2022-04-28T09:49:37.337Z,,,,,,,,,,,,,,,,,2,,,,,,,,,,,,,,606.8930000003893,,response,,,,1,D,,,,,,Space,keypress(Space),,,,speech,,,,--- ---- ------ --- ------- ---------- ------- ----------<br>--- --------- --- ----------- ------- ----- ------- ---<br>--------- ---- -- --- ---- he --------- -- ---- -------<br>-- --------- ------ --- ----- ------ ---- --- --------- --<br>------ - ---- -- --- ----------- ------- ---- ----- -----<br>--- -------- - ------ ---- -- ----- ---- --- --- -----------<br>-- -------,323027.0999999996,323024.4000000004,322400.806,322412,322417.507,323035.444,,21,he
screen,html.Screen,2_3_1_0_1_22,2022-04-28T09:49:38.009Z,,,,,,,,,,,,,,,,,2,,,,,,,,,,,,,,660.9560000003548,,response,,,,1,D,,,,,,Space,keypress(Space),,,,speech,,,,--- ---- ------ --- ------- ---------- ------- ----------<br>--- --------- --- ----------- ------- ----- ------- ---<br>--------- ---- -- --- ---- -- described -- ---- -------<br>-- --------- ------ --- ----- ------ ---- --- --------- --<br>------ - ---- -- --- ----------- ------- ---- ----- -----<br>--- -------- - ------ ---- -- ----- ---- --- --- -----------<br>-- -------,323699.7000000002,323696.4000000004,323018.743,323027.2000000002,323035.444,323703.484,,22,described
screen,html.Screen,2_3_1_0_1_23,2022-04-28T09:49:38.473Z,,,,,,,,,,,,,,,,,2,,,,,,,,,,,,,,457.11599999963073,,response,,,,1,D,,,,,,Space,keypress(Space),,,,speech,,,,--- ---- ------ --- ------- ---------- ------- ----------<br>--- --------- --- ----------- ------- ----- ------- ---<br>--------- ---- -- --- ---- -- --------- as ---- -------<br>-- --------- ------ --- ----- ------ ---- --- --------- --<br>------ - ---- -- --- ----------- ------- ---- ----- -----<br>--- -------- - ------ ---- -- ----- ---- --- --- -----------<br>-- -------,324163.7999999998,324160.5999999996,323686.783,323699.9000000004,323703.484,324171.112,,23,as
screen,html.Screen,2_3_1_0_1_24,2022-04-28T09:49:39.122Z,,,,,,,,,,,,,,,,,2,,,,,,,,,,,,,,637.3879999999772,,response,,,,1,D,,,,,,Space,keypress(Space),,,,speech,,,,"--- ---- ------ --- ------- ---------- ------- ----------<br>--- --------- --- ----------- ------- ----- ------- ---<br>--------- ---- -- --- ---- -- --------- -- ""two -------<br>-- --------- ------ --- ----- ------ ---- --- --------- --<br>------ - ---- -- --- ----------- ------- ---- ----- -----<br>--- -------- - ------ ---- -- ----- ---- --- --- -----------<br>-- -------",324811.9000000004,324808.5,324154.411,324164,324171.112,324822.451,,24,"""two"
screen,html.Screen,2_3_1_0_1_25,2022-04-28T09:49:39.761Z,,,,,,,,,,,,,,,,,2,,,,,,,,,,,,,,625.8489999998128,,response,,,,1,D,,,,,,Space,keypress(Space),,,,speech,,,,--- ---- ------ --- ------- ---------- ------- ----------<br>--- --------- --- ----------- ------- ----- ------- ---<br>--------- ---- -- --- ---- -- --------- -- ---- patches<br>-- --------- ------ --- ----- ------ ---- --- --------- --<br>------ - ---- -- --- ----------- ------- ---- ----- -----<br>--- -------- - ------ ---- -- ----- ---- --- --- -----------<br>-- -------,325451.5999999996,325448.2999999998,324805.75,324812,324822.451,325457.089,,25,patches
screen,html.Screen,2_3_1_0_1_26,2022-04-28T09:49:40.481Z,,,,,,,,,,,,,,,,,2,,,,,,,,,,,,,,711.4110000000219,,response,,,,1,D,,,,,,Space,keypress(Space),,,,speech,,,,--- ---- ------ --- ------- ---------- ------- ----------<br>--- --------- --- ----------- ------- ----- ------- ---<br>--------- ---- -- --- ---- -- --------- -- ---- -------<br>of --------- ------ --- ----- ------ ---- --- --------- --<br>------ - ---- -- --- ----------- ------- ---- ----- -----<br>--- -------- - ------ ---- -- ----- ---- --- --- -----------<br>-- -------,326171.7999999998,326168.5,325440.388,325451.7999999998,325457.089,326175.232,,26,of
screen,html.Screen,2_3_1_0_1_27,2022-04-28T09:49:41.713Z,,,,,,,,,,,,,,,,,2,,,,,,,,,,,,,,1225.0679999997956,,response,,,,1,D,,,,,,Space,keypress(Space),,,,speech,,,,--- ---- ------ --- ------- ---------- ------- ----------<br>--- --------- --- ----------- ------- ----- ------- ---<br>--------- ---- -- --- ---- -- --------- -- ---- -------<br>-- intensely ------ --- ----- ------ ---- --- --------- --<br>------ - ---- -- --- ----------- ------- ---- ----- -----<br>--- -------- - ------ ---- -- ----- ---- --- --- -----------<br>-- -------,327403.5,327400.2999999998,326158.531,326172,326175.232,327411.106,,27,intensely
screen,html.Screen,2_3_1_0_1_28,2022-04-28T09:49:42.426Z,,,,,,,,,,,,,,,,,2,,,,,,,,,,,,,,701.3939999999711,,response,,,,1,D,,,,,,Space,keypress(Space),,,,speech,,,,--- ---- ------ --- ------- ---------- ------- ----------<br>--- --------- --- ----------- ------- ----- ------- ---<br>--------- ---- -- --- ---- -- --------- -- ---- -------<br>-- --------- bright --- ----- ------ ---- --- --------- --<br>------ - ---- -- --- ----------- ------- ---- ----- -----<br>--- -------- - ------ ---- -- ----- ---- --- --- -----------<br>-- -------,328116,328112.5,327394.405,327403.7000000002,327411.106,328129.249,,28,bright
screen,html.Screen,2_3_1_0_1_29,2022-04-28T09:49:42.985Z,,,,,,,,,,,,,,,,,2,,,,,,,,,,,,,,543.1510000003618,,response,,,,1,D,,,,,,Space,keypress(Space),,,,speech,,,,--- ---- ------ --- ------- ---------- ------- ----------<br>--- --------- --- ----------- ------- ----- ------- ---<br>--------- ---- -- --- ---- -- --------- -- ---- -------<br>-- --------- ------ and ----- ------ ---- --- --------- --<br>------ - ---- -- --- ----------- ------- ---- ----- -----<br>--- -------- - ------ ---- -- ----- ---- --- --- -----------<br>-- -------,328675.5999999996,328672.4000000004,328112.548,328116.2000000002,328129.249,328680.382,,29,and
screen,html.Screen,2_3_1_0_1_30,2022-04-28T09:49:43.553Z,,,,,,,,,,,,,,,,,2,,,,,,,,,,,,,,559.9179999998305,,response,,,,1,D,,,,,,Space,keypress(Space),,,,speech,,,,--- ---- ------ --- ------- ---------- ------- ----------<br>--- --------- --- ----------- ------- ----- ------- ---<br>--------- ---- -- --- ---- -- --------- -- ---- -------<br>-- --------- ------ --- white ------ ---- --- --------- --<br>------ - ---- -- --- ----------- ------- ---- ----- -----<br>--- -------- - ------ ---- -- ----- ---- --- --- -----------<br>-- -------,329243.7000000002,329240.2999999998,328663.681,328675.7999999998,328680.382,329248.216,,30,white
screen,html.Screen,2_3_1_0_1_31,2022-04-28T09:49:44.185Z,,,,,,,,,,,,,,,,,2,,,,,,,,,,,,,,624.0839999997988,,response,,,,1,D,,,,,,Space,keypress(Space),,,,speech,,,,"--- ---- ------ --- ------- ---------- ------- ----------<br>--- --------- --- ----------- ------- ----- ------- ---<br>--------- ---- -- --- ---- -- --------- -- ---- -------<br>-- --------- ------ --- ----- light"" ---- --- --------- --<br>------ - ---- -- --- ----------- ------- ---- ----- -----<br>--- -------- - ------ ---- -- ----- ---- --- --- -----------<br>-- -------",329875.5,329872.2999999998,329231.515,329243.7999999998,329248.216,329882.854,,31,"light"""
screen,html.Screen,2_3_1_0_1_32,2022-04-28T09:49:44.953Z,,,,,,,,,,,,,,,,,2,,,,,,,,,,,,,,757.5460000003804,,response,,,,1,D,,,,,,Space,keypress(Space),,,,speech,,,,--- ---- ------ --- ------- ---------- ------- ----------<br>--- --------- --- ----------- ------- ----- ------- ---<br>--------- ---- -- --- ---- -- --------- -- ---- -------<br>-- --------- ------ --- ----- ------ over --- --------- --<br>------ - ---- -- --- ----------- ------- ---- ----- -----<br>--- -------- - ------ ---- -- ----- ---- --- --- -----------<br>-- -------,330643.7999999998,330640.4000000004,329866.153,329875.7000000002,329882.854,330651.969,,32,over
screen,html.Screen,2_3_1_0_1_33,2022-04-28T09:49:45.417Z,,,,,,,,,,,,,,,,,2,,,,,,,,,,,,,,452.53100000001723,,response,,,,1,D,,,,,,Space,keypress(Space),,,,speech,,,,--- ---- ------ --- ------- ---------- ------- ----------<br>--- --------- --- ----------- ------- ----- ------- ---<br>--------- ---- -- --- ---- -- --------- -- ---- -------<br>-- --------- ------ --- ----- ------ ---- the --------- --<br>------ - ---- -- --- ----------- ------- ---- ----- -----<br>--- -------- - ------ ---- -- ----- ---- --- --- -----------<br>-- -------,331107.4000000004,331104.5,330635.268,330644,330651.969,331119.597,,33,the
screen,html.Screen,2_3_1_0_1_34,2022-04-28T09:49:46.009Z,,,,,,,,,,,,,,,,,2,,,,,,,,,,,,,,576.8030000003637,,response,,,,1,D,,,,,,Space,keypress(Space),,,,speech,,,,--- ---- ------ --- ------- ---------- ------- ----------<br>--- --------- --- ----------- ------- ----- ------- ---<br>--------- ---- -- --- ---- -- --------- -- ---- -------<br>-- --------- ------ --- ----- ------ ---- --- sunspots. --<br>------ - ---- -- --- ----------- ------- ---- ----- -----<br>--- -------- - ------ ---- -- ----- ---- --- --- -----------<br>-- -------,331699.9000000004,331696.4000000004,331102.896,331107.5,331119.597,331704.132,,34,sunspots.
screen,html.Screen,2_3_1_0_1_35,2022-04-28T09:49:46.625Z,,,,,,,,,,,,,,,,,2,,,,,,,,,,,,,,608.2680000003893,,response,,,,1,D,,,,,,Space,keypress(Space),,,,speech,,,,--- ---- ------ --- ------- ---------- ------- ----------<br>--- --------- --- ----------- ------- ----- ------- ---<br>--------- ---- -- --- ---- -- --------- -- ---- -------<br>-- --------- ------ --- ----- ------ ---- --- --------- He<br>------ - ---- -- --- ----------- ------- ---- ----- -----<br>--- -------- - ------ ---- -- ----- ---- --- --- -----------<br>-- -------,332315.5,332312.4000000004,331687.431,331700,331704.132,332322.069,,35,He
screen,html.Screen,2_3_1_0_1_36,2022-04-28T09:49:47.337Z,,,,,,,,,,,,,,,,,2,,,,,,,,,,,,,,702.4309999999823,,response,,,,1,D,,,,,,Space,keypress(Space),,,,speech,,,,--- ---- ------ --- ------- ---------- ------- ----------<br>--- --------- --- ----------- ------- ----- ------- ---<br>--------- ---- -- --- ---- -- --------- -- ---- -------<br>-- --------- ------ --- ----- ------ ---- --- --------- --<br>jotted - ---- -- --- ----------- ------- ---- ----- -----<br>--- -------- - ------ ---- -- ----- ---- --- --- -----------<br>-- -------,333027.7000000002,333024.5,332305.368,332315.5999999996,332322.069,333040.212,,36,jotted
screen,html.Screen,2_3_1_0_1_37,2022-04-28T09:49:47.785Z,,,,,,,,,,,,,,,,,2,,,,,,,,,,,,,,432.188000000373,,response,,,,1,D,,,,,,Space,keypress(Space),,,,speech,,,,--- ---- ------ --- ------- ---------- ------- ----------<br>--- --------- --- ----------- ------- ----- ------- ---<br>--------- ---- -- --- ---- -- --------- -- ---- -------<br>-- --------- ------ --- ----- ------ ---- --- --------- --<br>------ a ---- -- --- ----------- ------- ---- ----- -----<br>--- -------- - ------ ---- -- ----- ---- --- --- -----------<br>-- -------,333475.5999999996,333472.4000000004,333023.511,333027.7999999998,333040.212,333491.139,,37,a
screen,html.Screen,2_3_1_0_1_38,2022-04-28T09:49:48.457Z,,,,,,,,,,,,,,,,,2,,,,,,,,,,,,,,653.2610000003478,,response,,,,1,D,,,,,,Space,keypress(Space),,,,speech,,,,--- ---- ------ --- ------- ---------- ------- ----------<br>--- --------- --- ----------- ------- ----- ------- ---<br>--------- ---- -- --- ---- -- --------- -- ---- -------<br>-- --------- ------ --- ----- ------ ---- --- --------- --<br>------ - note -- --- ----------- ------- ---- ----- -----<br>--- -------- - ------ ---- -- ----- ---- --- --- -----------<br>-- -------,334147.9000000004,334144.4000000004,333474.438,333476,333491.139,334159.179,,38,note
screen,html.Screen,2_3_1_0_1_39,2022-04-28T09:49:48.945Z,,,,,,,,,,,,,,,,,2,,,,,,,,,,,,,,473.2210000003688,,response,,,,1,D,,,,,,Space,keypress(Space),,,,speech,,,,--- ---- ------ --- ------- ---------- ------- ----------<br>--- --------- --- ----------- ------- ----- ------- ---<br>--------- ---- -- --- ---- -- --------- -- ---- -------<br>-- --------- ------ --- ----- ------ ---- --- --------- --<br>------ - ---- in --- ----------- ------- ---- ----- -----<br>--- -------- - ------ ---- -- ----- ---- --- --- -----------<br>-- -------,334635.7999999998,334632.4000000004,334142.478,334148.0999999996,334159.179,334643.508,,39,in
