sender,sender_type,sender_id,timestamp,meta,,Blues,Classical,Country,Dance,Electronic,Folk,Gospel,Hip-Hop,Jazz,Latin,Musical/Film,New-age,Pop,Prolific_id,Provo_ID,R&B,Rap,Reggae,Religious,Rock,Soul,Swing,Traditional,age,artist_name,correct,correctResponse,distraction,duration,education,ended_on,familiarity,gender,headphone_check_performance,item,list,music_frequency,offensiveness,pleasantness,position_correct,preference,response,response_action,snippet_file,song_name,song_rating,sound,stimulus_1,stimulus_2,stimulus_3,text,time_commit,time_end,time_render,time_run,time_show,time_switch,url,word,word_ID
Prolific ID,html.Form,0,2022-05-09T20:27:38.674Z,"{""labjs_version"":""20.2.2"",""labjs_build"":{""flavor"":""production"",""commit"":""a25486e0c714a0ae2ce03ff94b7bb6896854dcfa""},""location"":""https://run.pavlovia.org/mvasilev/prolific3_music_g/"",""userAgent"":""Mozilla/5.0 (Windows NT 10.0; Win64; x64) AppleWebKit/537.36 (KHTML, like Gecko) Chrome/101.0.4951.54 Safari/537.36 Edg/101.0.1210.39"",""platform"":""Win32"",""language"":""en-GB"",""locale"":""en-GB"",""timeZone"":""Europe/London"",""timezoneOffset"":-60,""screen_width"":1536,""screen_height"":864,""scroll_width"":1536,""scroll_height"":706,""window_innerWidth"":1536,""window_innerHeight"":754,""devicePixelRatio"":1.25}",,,,,,,,,,,,,,,5f4dbedb586c80a9fced2996,,,,,,,,,,,,,,,12300.88700001192,,form submission,,,,,,,,,,,,,,,,,,,,,42141.5,42140.80000001192,29806.673,29808.19999998808,29839.913,42355.776,{},,
Introduction,html.Screen,1_0,2022-05-09T20:27:45.065Z,,,,,,,,,,,,,,,,,,,,,,,,,,,,,,,6173.224000000002,,response,,,,,,,,,,,continue,click button,,,,,,,,,48532.60000002384,48529,42122.389,42142,42355.776,48555.295,,,
Volume calibration,html.Screen,1_1,2022-05-09T20:28:34.294Z,,,,,,,,,,,,,,,,,,,,,,,,,,,,,,,49200.205,,response,,,,,,,,,,,continue,click button,,,,,,,,,97760.69999998808,97755.5,48521.967,48532.90000003576,48555.295,97768.55,,,
Task instructions,html.Screen,1_2,2022-05-09T20:28:53.533Z,,,,,,,,,,,,,,,,,,,,,,,,,,,,,,,19230.05000002384,,response,,,,,,,,,,,continue,click button,,,,,,,,,116999.90000003576,116998.60000002384,97751.888,97760.90000003576,97768.55,117000.544,,,
Sounds,html.Screen,1_3_0_0,2022-05-09T20:28:57.770Z,,,,,,,,,,,,,,,,,,,,,,,,,,,,,,,4249.65400000001,,timeout,,,,,,,,,3,,,,,,,,O,I,S,,121236.90000003576,121233.636,116984.299,117000.10000002384,117000.544,121250.198,,,
Judgement,html.Screen,1_3_0_1,2022-05-09T20:29:02.949Z,,,,,,,,,,,,,,,,,,,,,,,,,,,,true,3,,5164.402000023838,,response,,,,,,,,,3,,3,click #choice-3,,,,,O,I,S,,126416.19999998808,126414.60000002384,121233.636,121237.19999998808,121250.198,126453.708,,,
Trial,flow.Sequence,1_3_0,2022-05-09T20:29:02.952Z,,,,,,,,,,,,,,,,,,,,,,,,,,,,,,,9414.056000023847,,completion,,,,,,,,,3,,,,,,,,O,I,S,,126419.10000002384,126414.60000002384,116984.299,117000.10000002384,117000.544,126453.708,,,
Sounds,html.Screen,1_3_1_0,2022-05-09T20:29:07.217Z,,,,,,,,,,,,,,,,,,,,,,,,,,,,,,,4245.879000000001,,timeout,,,,,,,,,3,,,,,,,,I,O,S,,130683.90000003576,130682.918,126399.873,126419.60000002384,126453.708,130699.587,,,
Judgement,html.Screen,1_3_1_1,2022-05-09T20:29:09.369Z,,,,,,,,,,,,,,,,,,,,,,,,,,,,true,3,,2135.2130000119214,,response,,,,,,,,,3,,3,click #choice-3,,,,,I,O,S,,132835.90000003576,132834.80000001192,130682.918,130684.19999998808,130699.587,132849.389,,,
Trial,flow.Sequence,1_3_1,2022-05-09T20:29:09.369Z,,,,,,,,,,,,,,,,,,,,,,,,,,,,,,,6381.092000011922,,completion,,,,,,,,,3,,,,,,,,I,O,S,,132836.19999998808,132834.80000001192,126399.873,126419.19999998808,126453.708,132849.389,,,
Sounds,html.Screen,1_3_2_0,2022-05-09T20:29:13.617Z,,,,,,,,,,,,,,,,,,,,,,,,,,,,,,,4249.777000000002,,timeout,,,,,,,,,1,,,,,,,,S,I,O,,137083.80000001192,137082.876,132832.74,132836.40000003576,132849.389,137099.166,,,
Judgement,html.Screen,1_3_2_1,2022-05-09T20:29:15.693Z,,,,,,,,,,,,,,,,,,,,,,,,,,,,true,1,,2060.4340000238444,,response,,,,,,,,,1,,1,click #choice-1,,,,,S,I,O,,139160.5,139159.60000002384,137082.876,137084,137099.166,139165.613,,,
Trial,flow.Sequence,1_3_2,2022-05-09T20:29:15.693Z,,,,,,,,,,,,,,,,,,,,,,,,,,,,,,,6310.211000023846,,completion,,,,,,,,,1,,,,,,,,S,I,O,,139160.69999998808,139159.60000002384,132832.74,132836.30000001192,132849.389,139165.613,,,
Sounds,html.Screen,1_3_3_0,2022-05-09T20:29:19.932Z,,,,,,,,,,,,,,,,,,,,,,,,,,,,,,,4249.690999999992,,timeout,,,,,,,,,1,,,,,,,,S,O,I,,143399.19999998808,143398.655,139148.985,139160.80000001192,139165.613,143415.304,,,
Judgement,html.Screen,1_3_3_1,2022-05-09T20:29:21.598Z,,,,,,,,,,,,,,,,,,,,,,,,,,,,true,1,,1648.7960000238381,,response,,,,,,,,,1,,1,click #choice-1,,,,,S,O,I,,145065.80000001192,145064.10000002384,143398.655,143399.30000001192,143415.304,145081.853,,,
Trial,flow.Sequence,1_3_3,2022-05-09T20:29:21.599Z,,,,,,,,,,,,,,,,,,,,,,,,,,,,,,,5898.48700002383,,completion,,,,,,,,,1,,,,,,,,S,O,I,,145066,145064.10000002384,139148.985,139160.80000001192,139165.613,145081.853,,,
Sounds,html.Screen,1_3_4_0,2022-05-09T20:29:25.848Z,,,,,,,,,,,,,,,,,,,,,,,,,,,,,,,4249.679000000004,,timeout,,,,,,,,,2,,,,,,,,O,S,I,,149315.69999998808,149314.956,145065.224,145066.30000001192,145081.853,149331.532,,,
Judgement,html.Screen,1_3_4_1,2022-05-09T20:29:27.669Z,,,,,,,,,,,,,,,,,,,,,,,,,,,,true,2,,1802.8680000357563,,response,,,,,,,,,2,,2,click #choice-2,,,,,O,S,I,,151135.80000001192,151134.40000003576,149314.956,149315.90000003576,149331.532,151148.12,,,
Trial,flow.Sequence,1_3_4,2022-05-09T20:29:27.669Z,,,,,,,,,,,,,,,,,,,,,,,,,,,,,,,6052.54700003576,,completion,,,,,,,,,2,,,,,,,,O,S,I,,151136.10000002384,151134.40000003576,145065.224,145066.19999998808,145081.853,151148.12,,,
Sounds,html.Screen,1_3_5_0,2022-05-09T20:29:31.915Z,,,,,,,,,,,,,,,,,,,,,,,,,,,,,,,4249.741000000009,,timeout,,,,,,,,,2,,,,,,,,I,S,O,,155382.10000002384,155381.191,151131.463,151136.30000001192,151148.12,155397.861,,,
Judgement,html.Screen,1_3_5_1,2022-05-09T20:29:33.519Z,,,,,,,,,,,,,,,,,,,,,,,,,,,,true,2,,1586.1389999999956,,response,,,,,,,,,2,,2,click #choice-2,,,,,I,S,O,,156985.80000001192,156984,155381.191,155382.30000001192,155397.861,156997.761,,,
Trial,flow.Sequence,1_3_5,2022-05-09T20:29:33.519Z,,,,,,,,,,,,,,,,,,,,,,,,,,,,,,,5835.880000000005,,completion,,,,,,,,,2,,,,,,,,I,S,O,,156986.19999998808,156984,151131.463,151136.19999998808,151148.12,156997.761,,,
Task,flow.Loop,1_3,2022-05-09T20:29:33.526Z,,,,,,,,,,,,,,,,,,,,,,,,,,,,,,,39983.456000000006,,completion,,,1,,,,,,,,,,,,,,,,,,156993.10000002384,156984,116984.299,117000,117000.544,156997.761,,,
Trap,html.Screen,1_4,2022-05-09T20:29:33.529Z,,,,,,,,,,,,,,,,,,,,,,,,,,,,,,,NaN,,skipped,,,,,,,,,,,,,,,,,,,,,156996.19999998808,156984,,156995.90000003576,,156997.761,,,
Thanks,html.Screen,1_5,2022-05-09T20:29:37.246Z,,,,,,,,,,,,,,,,,,,,,,,,,,,,,,,3714.0390000119223,,response,,,,,,,,,,,continue,click button,,,,,,,,,160713.19999998808,160711.80000001192,156981.099,156996.30000001192,156997.761,166547.079,,,
Headphone screening,flow.Sequence,1,2022-05-09T20:29:37.246Z,,,,,,,,,,,,,,,,,,,,,,,,,,,,,,,118356.02400001192,,completion,,,,,,,,,,,,,,,,,,,,,160713.40000003576,160711.80000001192,42122.389,42142,42355.776,166547.079,,,
Instructions,html.Page,2_0,2022-05-09T20:30:06.670Z,,,,,,,,,,,,,,,,,,,,,,,,,,,,,,,23590.62099998808,,form submission,,,,,,,,,,,,,,,,,,,,,190138.19999998808,190137.69999998808,166530.471,166537.40000003576,166547.079,190145.459,,,
Holding screen,html.Screen,2_1_0_0,2022-05-09T20:30:16.661Z,,,,,,,,,,,,,,,,,,,,,,,,,,,,,,,10015.899000000005,,timeout,,,,,,,,,,,,,,,,,,,,,200129.19999998808,200128.489,190112.041,190138.40000003576,190145.459,200161.358,,,
screen,html.Screen,2_1_0_1_0,2022-05-09T20:30:18.989Z,,,,,,,,,,,,,,,,,53,,,,,,,,,,,,,,2292.6419999999925,,response,,,,99,,,,,,,Space,keypress(Space),,,,,,,,When -- ----- -- ------ - ------- --- ----------<br>------------- ------ ------ ---- ---- ------- ----- -- ----<br>-------- ------- -- ---------- --- - --- ----- ----- ----<br>---- --- --- ----- --- ---- ---- ------- ----- ---- -------<br>--- --- -- ----- -- --- ---- -- --- ---- -- ------ ------<br>--- ----- -- ----,202457.40000003576,202454,200128.489,200129.5,200161.358,202461.248,,0,When
screen,html.Screen,2_1_0_1_1,2022-05-09T20:30:20.675Z,,,,,,,,,,,,,,,,,53,,,,,,,,,,,,,,1681.0520000119286,,response,,,,99,,,,,,,Space,keypress(Space),,,,,,,,---- it ----- -- ------ - ------- --- ----------<br>------------- ------ ------ ---- ---- ------- ----- -- ----<br>-------- ------- -- ---------- --- - --- ----- ----- ----<br>---- --- --- ----- --- ---- ---- ------- ----- ---- -------<br>--- --- -- ----- -- --- ---- -- --- ---- -- ------ ------<br>--- ----- -- ----,204143.10000002384,204142.30000001192,202444.56,202457.60000002384,202461.248,204165.71,,1,it
screen,html.Screen,2_1_0_1_2,2022-05-09T20:30:21.908Z,,,,,,,,,,,,,,,,,53,,,,,,,,,,,,,,1208.9899999880872,,response,,,,99,,,,,,,Space,keypress(Space),,,,,,,,---- -- comes -- ------ - ------- --- ----------<br>------------- ------ ------ ---- ---- ------- ----- -- ----<br>-------- ------- -- ---------- --- - --- ----- ----- ----<br>---- --- --- ----- --- ---- ---- ------- ----- ---- -------<br>--- --- -- ----- -- --- ---- -- --- ---- -- ------ ------<br>--- ----- -- ----,205375.60000002384,205374.69999998808,204127.803,204143.30000001192,204165.71,205377.664,,2,comes
screen,html.Screen,2_1_0_1_3,2022-05-09T20:30:22.871Z,,,,,,,,,,,,,,,,,53,,,,,,,,,,,,,,960.236000035773,,response,,,,99,,,,,,,Space,keypress(Space),,,,,,,,---- -- ----- to ------ - ------- --- ----------<br>------------- ------ ------ ---- ---- ------- ----- -- ----<br>-------- ------- -- ---------- --- - --- ----- ----- ----<br>---- --- --- ----- --- ---- ---- ------- ----- ---- -------<br>--- --- -- ----- -- --- ---- -- --- ---- -- ------ ------<br>--- ----- -- ----,206338.69999998808,206337.90000003576,205361.016,205375.80000001192,205377.664,206344.301,,3,to
screen,html.Screen,2_1_0_1_4,2022-05-09T20:30:23.815Z,,,,,,,,,,,,,,,,,53,,,,,,,,,,,,,,938.1989999999932,,response,,,,99,,,,,,,Space,keypress(Space),,,,,,,,---- -- ----- -- having - ------- --- ----------<br>------------- ------ ------ ---- ---- ------- ----- -- ----<br>-------- ------- -- ---------- --- - --- ----- ----- ----<br>---- --- --- ----- --- ---- ---- ------- ----- ---- -------<br>--- --- -- ----- -- --- ---- -- --- ---- -- ------ ------<br>--- ----- -- ----,207283.40000003576,207282.5,206327.606,206338.90000003576,206344.301,207294.186,,4,having
screen,html.Screen,2_1_0_1_5,2022-05-09T20:30:24.909Z,,,,,,,,,,,,,,,,,53,,,,,,,,,,,,,,1081.614000011934,,response,,,,99,,,,,,,Space,keypress(Space),,,,,,,,---- -- ----- -- ------ a ------- --- ----------<br>------------- ------ ------ ---- ---- ------- ----- -- ----<br>-------- ------- -- ---------- --- - --- ----- ----- ----<br>---- --- --- ----- --- ---- ---- ------- ----- ---- -------<br>--- --- -- ----- -- --- ---- -- --- ---- -- ------ ------<br>--- ----- -- ----,208376.5,208375.80000001192,207277.555,207283.5,207294.186,208410.777,,5,a
screen,html.Screen,2_1_0_1_6,2022-05-09T20:30:25.607Z,,,,,,,,,,,,,,,,,53,,,,,,,,,,,,,,663.5230000119191,,response,,,,99,,,,,,,Space,keypress(Space),,,,,,,,---- -- ----- -- ------ - lasting --- ----------<br>------------- ------ ------ ---- ---- ------- ----- -- ----<br>-------- ------- -- ---------- --- - --- ----- ----- ----<br>---- --- --- ----- --- ---- ---- ------- ----- ---- -------<br>--- --- -- ----- -- --- ---- -- --- ---- -- ------ ------<br>--- ----- -- ----,209075.10000002384,209074.30000001192,208394.667,208376.80000001192,208410.777,209077.44,,6,lasting
screen,html.Screen,2_1_0_1_7,2022-05-09T20:30:26.157Z,,,,,,,,,,,,,,,,,53,,,,,,,,,,,,,,546.7599999880767,,response,,,,99,,,,,,,Space,keypress(Space),,,,,,,,---- -- ----- -- ------ - ------- and ----------<br>------------- ------ ------ ---- ---- ------- ----- -- ----<br>-------- ------- -- ---------- --- - --- ----- ----- ----<br>---- --- --- ----- --- ---- ---- ------- ----- ---- -------<br>--- --- -- ----- -- --- ---- -- --- ---- -- ------ ------<br>--- ----- -- ----,209625,209624.19999998808,209061.24,209075.30000001192,209077.44,209627.401,,7,and
screen,html.Screen,2_1_0_1_8,2022-05-09T20:30:26.846Z,,,,,,,,,,,,,,,,,53,,,,,,,,,,,,,,685.8990000119084,,response,,,,99,,,,,,,Space,keypress(Space),,,,,,,,---- -- ----- -- ------ - ------- --- fulfilling<br>------------- ------ ------ ---- ---- ------- ----- -- ----<br>-------- ------- -- ---------- --- - --- ----- ----- ----<br>---- --- --- ----- --- ---- ---- ------- ----- ---- -------<br>--- --- -- ----- -- --- ---- -- --- ---- -- ------ ------<br>--- ----- -- ----,210314.10000002384,210313.30000001192,209610.713,209625.19999998808,209627.401,210327.28,,8,fulfilling
screen,html.Screen,2_1_0_1_9,2022-05-09T20:30:28.966Z,,,,,,,,,,,,,,,,,53,,,,,,,,,,,,,,2105.9199999880802,,response,,,,99,,,,,,,Space,keypress(Space),,,,,,,,"---- -- ----- -- ------ - ------- --- ----------<br>relationship, ------ ------ ---- ---- ------- ----- -- ----<br>-------- ------- -- ---------- --- - --- ----- ----- ----<br>---- --- --- ----- --- ---- ---- ------- ----- ---- -------<br>--- --- -- ----- -- --- ---- -- --- ---- -- ------ ------<br>--- ----- -- ----",212434,212433.19999998808,210310.646,210314.30000001192,210327.28,212443.792,,9,"relationship,"
screen,html.Screen,2_1_0_1_10,2022-05-09T20:30:29.596Z,,,,,,,,,,,,,,,,,53,,,,,,,,,,,,,,619.1080000357761,,response,,,,99,,,,,,,Space,keypress(Space),,,,,,,,---- -- ----- -- ------ - ------- --- ----------<br>------------- common ------ ---- ---- ------- ----- -- ----<br>-------- ------- -- ---------- --- - --- ----- ----- ----<br>---- --- --- ----- --- ---- ---- ------- ----- ---- -------<br>--- --- -- ----- -- --- ---- -- --- ---- -- ------ ------<br>--- ----- -- ----,213063.80000001192,213062.90000003576,212427.209,212434.19999998808,212443.792,213077.092,,10,common
screen,html.Screen,2_1_0_1_11,2022-05-09T20:30:30.039Z,,,,,,,,,,,,,,,,,53,,,,,,,,,,,,,,429.3080000357586,,response,,,,99,,,,,,,Space,keypress(Space),,,,,,,,---- -- ----- -- ------ - ------- --- ----------<br>------------- ------ wisdom ---- ---- ------- ----- -- ----<br>-------- ------- -- ---------- --- - --- ----- ----- ----<br>---- --- --- ----- --- ---- ---- ------- ----- ---- -------<br>--- --- -- ----- -- --- ---- -- --- ---- -- ------ ------<br>--- ----- -- ----,213507.10000002384,213506.40000003576,213060.529,213063.90000003576,213077.092,213510.456,,11,wisdom
screen,html.Screen,2_1_0_1_12,2022-05-09T20:30:30.416Z,,,,,,,,,,,,,,,,,53,,,,,,,,,,,,,,372.34400001191534,,response,,,,99,,,,,,,Space,keypress(Space),,,,,,,,---- -- ----- -- ------ - ------- --- ----------<br>------------- ------ ------ says ---- ------- ----- -- ----<br>-------- ------- -- ---------- --- - --- ----- ----- ----<br>---- --- --- ----- --- ---- ---- ------- ----- ---- -------<br>--- --- -- ----- -- --- ---- -- --- ---- -- ------ ------<br>--- ----- -- ----,213883.5,213882.80000001192,213493.746,213507.19999998808,213510.456,213893.723,,12,says
screen,html.Screen,2_1_0_1_13,2022-05-09T20:30:30.734Z,,,,,,,,,,,,,,,,,53,,,,,,,,,,,,,,307.0770000119228,,response,,,,99,,,,,,,Space,keypress(Space),,,,,,,,---- -- ----- -- ------ - ------- --- ----------<br>------------- ------ ------ ---- that ------- ----- -- ----<br>-------- ------- -- ---------- --- - --- ----- ----- ----<br>---- --- --- ----- --- ---- ---- ------- ----- ---- -------<br>--- --- -- ----- -- --- ---- -- --- ---- -- ------ ------<br>--- ----- -- ----,214201.60000002384,214200.80000001192,213877.058,213883.69999998808,213893.723,214210.364,,13,that
screen,html.Screen,2_1_0_1_14,2022-05-09T20:30:31.102Z,,,,,,,,,,,,,,,,,53,,,,,,,,,,,,,,359.3359999880777,,response,,,,99,,,,,,,Space,keypress(Space),,,,,,,,---- -- ----- -- ------ - ------- --- ----------<br>------------- ------ ------ ---- ---- feeling ----- -- ----<br>-------- ------- -- ---------- --- - --- ----- ----- ----<br>---- --- --- ----- --- ---- ---- ------- ----- ---- -------<br>--- --- -- ----- -- --- ---- -- --- ---- -- ------ ------<br>--- ----- -- ----,214570.40000003576,214569.69999998808,214193.704,214201.80000001192,214210.364,214577.047,,14,feeling
screen,html.Screen,2_1_0_1_15,2022-05-09T20:30:31.920Z,,,,,,,,,,,,,,,,,53,,,,,,,,,,,,,,810.1529999880877,,response,,,,99,,,,,,,Space,keypress(Space),,,,,,,,---- -- ----- -- ------ - ------- --- ----------<br>------------- ------ ------ ---- ---- ------- close -- ----<br>-------- ------- -- ---------- --- - --- ----- ----- ----<br>---- --- --- ----- --- ---- ---- ------- ----- ---- -------<br>--- --- -- ----- -- --- ---- -- --- ---- -- ------ ------<br>--- ----- -- ----,215388,215387.19999998808,214560.334,214570.5,214577.047,215393.64,,15,close
screen,html.Screen,2_1_0_1_16,2022-05-09T20:30:32.280Z,,,,,,,,,,,,,,,,,53,,,,,,,,,,,,,,354.0599999880651,,response,,,,99,,,,,,,Space,keypress(Space),,,,,,,,---- -- ----- -- ------ - ------- --- ----------<br>------------- ------ ------ ---- ---- ------- ----- to ----<br>-------- ------- -- ---------- --- - --- ----- ----- ----<br>---- --- --- ----- --- ---- ---- ------- ----- ---- -------<br>--- --- -- ----- -- --- ---- -- --- ---- -- ------ ------<br>--- ----- -- ----,215748.40000003576,215747.69999998808,215376.963,215388.19999998808,215393.64,215760.237,,16,to
screen,html.Screen,2_1_0_1_17,2022-05-09T20:30:32.752Z,,,,,,,,,,,,,,,,,53,,,,,,,,,,,,,,458.6630000357691,,response,,,,99,,,,,,,Space,keypress(Space),,,,,,,,---- -- ----- -- ------ - ------- --- ----------<br>------------- ------ ------ ---- ---- ------- ----- -- your<br>-------- ------- -- ---------- --- - --- ----- ----- ----<br>---- --- --- ----- --- ---- ---- ------- ----- ---- -------<br>--- --- -- ----- -- --- ---- -- --- ---- -- ------ ------<br>--- ----- -- ----,216219.60000002384,216218.90000003576,215743.647,215748.60000002384,215760.237,216226.889,,17,your
screen,html.Screen,2_1_0_1_18,2022-05-09T20:30:33.278Z,,,,,,,,,,,,,,,,,53,,,,,,,,,,,,,,517.8109999880835,,response,,,,99,,,,,,,Space,keypress(Space),,,,,,,,---- -- ----- -- ------ - ------- --- ----------<br>------------- ------ ------ ---- ---- ------- ----- -- ----<br>romantic ------- -- ---------- --- - --- ----- ----- ----<br>---- --- --- ----- --- ---- ---- ------- ----- ---- -------<br>--- --- -- ----- -- --- ---- -- --- ---- -- ------ ------<br>--- ----- -- ----,216745.60000002384,216744.69999998808,216210.255,216219.80000001192,216226.889,216760.24,,18,romantic
screen,html.Screen,2_1_0_1_19,2022-05-09T20:30:33.649Z,,,,,,,,,,,,,,,,,53,,,,,,,,,,,,,,355.4599999880884,,response,,,,99,,,,,,,Space,keypress(Space),,,,,,,,---- -- ----- -- ------ - ------- --- ----------<br>------------- ------ ------ ---- ---- ------- ----- -- ----<br>-------- partner -- ---------- --- - --- ----- ----- ----<br>---- --- --- ----- --- ---- ---- ------- ----- ---- -------<br>--- --- -- ----- -- --- ---- -- --- ---- -- ------ ------<br>--- ----- -- ----,217116.40000003576,217115.69999998808,216743.525,216745.80000001192,216760.24,217126.806,,19,partner
screen,html.Screen,2_1_0_1_20,2022-05-09T20:30:34.067Z,,,,,,,,,,,,,,,,,53,,,,,,,,,,,,,,407.0940000357514,,response,,,,99,,,,,,,Space,keypress(Space),,,,,,,,---- -- ----- -- ------ - ------- --- ----------<br>------------- ------ ------ ---- ---- ------- ----- -- ----<br>-------- ------- is ---------- --- - --- ----- ----- ----<br>---- --- --- ----- --- ---- ---- ------- ----- ---- -------<br>--- --- -- ----- -- --- ---- -- --- ---- -- ------ ------<br>--- ----- -- ----,217534.80000001192,217533.90000003576,217110.179,217116.60000002384,217126.806,217543.435,,20,is
screen,html.Screen,2_1_0_1_21,2022-05-09T20:30:34.486Z,,,,,,,,,,,,,,,,,53,,,,,,,,,,,,,,409.9650000357651,,response,,,,99,,,,,,,Space,keypress(Space),,,,,,,,---- -- ----- -- ------ - ------- --- ----------<br>------------- ------ ------ ---- ---- ------- ----- -- ----<br>-------- ------- -- paramount. --- - --- ----- ----- ----<br>---- --- --- ----- --- ---- ---- ------- ----- ---- -------<br>--- --- -- ----- -- --- ---- -- --- ---- -- ------ ------<br>--- ----- -- ----,217954.19999998808,217953.40000003576,217526.815,217534.90000003576,217543.435,217993.436,,21,paramount.
screen,html.Screen,2_1_0_1_22,2022-05-09T20:30:35.320Z,,,,,,,,,,,,,,,,,53,,,,,,,,,,,,,,793.4640000357758,,response,,,,99,,,,,,,Space,keypress(Space),,,,,,,,---- -- ----- -- ------ - ------- --- ----------<br>------------- ------ ------ ---- ---- ------- ----- -- ----<br>-------- ------- -- ---------- But - --- ----- ----- ----<br>---- --- --- ----- --- ---- ---- ------- ----- ---- -------<br>--- --- -- ----- -- --- ---- -- --- ---- -- ------ ------<br>--- ----- -- ----,218787.80000001192,218786.90000003576,217943.475,217954.40000003576,217993.436,218793.394,,22,But
screen,html.Screen,2_1_0_1_23,2022-05-09T20:30:35.757Z,,,,,,,,,,,,,,,,,53,,,,,,,,,,,,,,430.30599998807884,,response,,,,99,,,,,,,Space,keypress(Space),,,,,,,,---- -- ----- -- ------ - ------- --- ----------<br>------------- ------ ------ ---- ---- ------- ----- -- ----<br>-------- ------- -- ---------- --- a --- ----- ----- ----<br>---- --- --- ----- --- ---- ---- ------- ----- ---- -------<br>--- --- -- ----- -- --- ---- -- --- ---- -- ------ ------<br>--- ----- -- ----,219224.60000002384,219223.69999998808,218776.734,218787.90000003576,218793.394,219226.742,,23,a
screen,html.Screen,2_1_0_1_24,2022-05-09T20:30:35.946Z,,,,,,,,,,,,,,,,,53,,,,,,,,,,,,,,185.8580000238435,,response,,,,99,,,,,,,Space,keypress(Space),,,,,,,,---- -- ----- -- ------ - ------- --- ----------<br>------------- ------ ------ ---- ---- ------- ----- -- ----<br>-------- ------- -- ---------- --- - new ----- ----- ----<br>---- --- --- ----- --- ---- ---- ------- ----- ---- -------<br>--- --- -- ----- -- --- ---- -- --- ---- -- ------ ------<br>--- ----- -- ----,219413.69999998808,219412.60000002384,219210.007,219224.80000001192,219226.742,219426.692,,24,new
screen,html.Screen,2_1_0_1_25,2022-05-09T20:30:36.356Z,,,,,,,,,,,,,,,,,53,,,,,,,,,,,,,,395.80799999999,,response,,,,99,,,,,,,Space,keypress(Space),,,,,,,,---- -- ----- -- ------ - ------- --- ----------<br>------------- ------ ------ ---- ---- ------- ----- -- ----<br>-------- ------- -- ---------- --- - --- study ----- ----<br>---- --- --- ----- --- ---- ---- ------- ----- ---- -------<br>--- --- -- ----- -- --- ---- -- --- ---- -- ------ ------<br>--- ----- -- ----,219823.5,219822.5,219409.998,219413.90000003576,219426.692,219826.706,,25,study
screen,html.Screen,2_1_0_1_26,2022-05-09T20:30:36.719Z,,,,,,,,,,,,,,,,,53,,,,,,,,,,,,,,359.2939999999944,,response,,,,99,,,,,,,Space,keypress(Space),,,,,,,,---- -- ----- -- ------ - ------- --- ----------<br>------------- ------ ------ ---- ---- ------- ----- -- ----<br>-------- ------- -- ---------- --- - --- ----- finds ----<br>---- --- --- ----- --- ---- ---- ------- ----- ---- -------<br>--- --- -- ----- -- --- ---- -- --- ---- -- ------ ------<br>--- ----- -- ----,220187,220186,219810.013,219823.69999998808,219826.706,220193.317,,26,finds
screen,html.Screen,2_1_0_1_27,2022-05-09T20:30:37.122Z,,,,,,,,,,,,,,,,,53,,,,,,,,,,,,,,396.0830000357528,,response,,,,99,,,,,,,Space,keypress(Space),,,,,,,,---- -- ----- -- ------ - ------- --- ----------<br>------------- ------ ------ ---- ---- ------- ----- -- ----<br>-------- ------- -- ---------- --- - --- ----- ----- that<br>---- --- --- ----- --- ---- ---- ------- ----- ---- -------<br>--- --- -- ----- -- --- ---- -- --- ---- -- ------ ------<br>--- ----- -- ----,220590.19999998808,220589.40000003576,220176.636,220187.10000002384,220193.317,220593.332,,27,that
screen,html.Screen,2_1_0_1_28,2022-05-09T20:30:37.573Z,,,,,,,,,,,,,,,,,53,,,,,,,,,,,,,,447.0680000357679,,response,,,,99,,,,,,,Space,keypress(Space),,,,,,,,---- -- ----- -- ------ - ------- --- ----------<br>------------- ------ ------ ---- ---- ------- ----- -- ----<br>-------- ------- -- ---------- --- - --- ----- ----- ----<br>it's --- --- ----- --- ---- ---- ------- ----- ---- -------<br>--- --- -- ----- -- --- ---- -- --- ---- -- ------ ------<br>--- ----- -- ----,221041.30000001192,221040.40000003576,220576.612,220590.40000003576,220593.332,221064.881,,28,it's
screen,html.Screen,2_1_0_1_29,2022-05-09T20:30:38.031Z,,,,,,,,,,,,,,,,,53,,,,,,,,,,,,,,432.8189999880851,,response,,,,99,,,,,,,Space,keypress(Space),,,,,,,,---- -- ----- -- ------ - ------- --- ----------<br>------------- ------ ------ ---- ---- ------- ----- -- ----<br>-------- ------- -- ---------- --- - --- ----- ----- ----<br>---- not --- ----- --- ---- ---- ------- ----- ---- -------<br>--- --- -- ----- -- --- ---- -- --- ---- -- ------ ------<br>--- ----- -- ----,221498.40000003576,221497.69999998808,221026.568,221041.5,221064.881,221509.861,,29,not
screen,html.Screen,2_1_0_1_30,2022-05-09T20:30:38.537Z,,,,,,,,,,,,,,,,,53,,,,,,,,,,,,,,493.53900003575836,,response,,,,99,,,,,,,Space,keypress(Space),,,,,,,,---- -- ----- -- ------ - ------- --- ----------<br>------------- ------ ------ ---- ---- ------- ----- -- ----<br>-------- ------- -- ---------- --- - --- ----- ----- ----<br>---- --- how ----- --- ---- ---- ------- ----- ---- -------<br>--- --- -- ----- -- --- ---- -- --- ---- -- ------ ------<br>--- ----- -- ----,222004.5,222003.40000003576,221493.235,221498.60000002384,221509.861,222009.863,,30,how
screen,html.Screen,2_1_0_1_31,2022-05-09T20:30:39.087Z,,,,,,,,,,,,,,,,,53,,,,,,,,,,,,,,544.0370000357507,,response,,,,99,,,,,,,Space,keypress(Space),,,,,,,,---- -- ----- -- ------ - ------- --- ----------<br>------------- ------ ------ ---- ---- ------- ----- -- ----<br>-------- ------- -- ---------- --- - --- ----- ----- ----<br>---- --- --- close --- ---- ---- ------- ----- ---- -------<br>--- --- -- ----- -- --- ---- -- --- ---- -- ------ ------<br>--- ----- -- ----,222555.10000002384,222553.90000003576,221993.194,222004.69999998808,222009.863,222559.826,,31,close
screen,html.Screen,2_1_0_1_32,2022-05-09T20:30:39.529Z,,,,,,,,,,,,,,,,,53,,,,,,,,,,,,,,436.07400003576186,,response,,,,99,,,,,,,Space,keypress(Space),,,,,,,,---- -- ----- -- ------ - ------- --- ----------<br>------------- ------ ------ ---- ---- ------- ----- -- ----<br>-------- ------- -- ---------- --- - --- ----- ----- ----<br>---- --- --- ----- you ---- ---- ------- ----- ---- -------<br>--- --- -- ----- -- --- ---- -- --- ---- -- ------ ------<br>--- ----- -- ----,222996.69999998808,222995.90000003576,222543.158,222555.30000001192,222559.826,223009.776,,32,you
screen,html.Screen,2_1_0_1_33,2022-05-09T20:30:39.890Z,,,,,,,,,,,,,,,,,53,,,,,,,,,,,,,,347.02400001190836,,response,,,,99,,,,,,,Space,keypress(Space),,,,,,,,---- -- ----- -- ------ - ------- --- ----------<br>------------- ------ ------ ---- ---- ------- ----- -- ----<br>-------- ------- -- ---------- --- - --- ----- ----- ----<br>---- --- --- ----- --- feel ---- ------- ----- ---- -------<br>--- --- -- ----- -- --- ---- -- --- ---- -- ------ ------<br>--- ----- -- ----,223357.69999998808,223356.80000001192,222993.092,222998.10000002384,223009.776,223359.774,,33,feel
screen,html.Screen,2_1_0_1_34,2022-05-09T20:30:40.233Z,,,,,,,,,,,,,,,,,53,,,,,,,,,,,,,,340.82600002383697,,response,,,,99,,,,,,,Space,keypress(Space),,,,,,,,---- -- ----- -- ------ - ------- --- ----------<br>------------- ------ ------ ---- ---- ------- ----- -- ----<br>-------- ------- -- ---------- --- - --- ----- ----- ----<br>---- --- --- ----- --- ---- that ------- ----- ---- -------<br>--- --- -- ----- -- --- ---- -- --- ---- -- ------ ------<br>--- ----- -- ----,223701.40000003576,223700.60000002384,223343.069,223357.80000001192,223359.774,223709.671,,34,that
screen,html.Screen,2_1_0_1_35,2022-05-09T20:30:40.613Z,,,,,,,,,,,,,,,,,53,,,,,,,,,,,,,,370.42900002383976,,response,,,,99,,,,,,,Space,keypress(Space),,,,,,,,---- -- ----- -- ------ - ------- --- ----------<br>------------- ------ ------ ---- ---- ------- ----- -- ----<br>-------- ------- -- ---------- --- - --- ----- ----- ----<br>---- --- --- ----- --- ---- ---- matters ----- ---- -------<br>--- --- -- ----- -- --- ---- -- --- ---- -- ------ ------<br>--- ----- -- ----,224081,224080.10000002384,223693.056,223701.60000002384,223709.671,224093.015,,35,matters
screen,html.Screen,2_1_0_1_36,2022-05-09T20:30:40.954Z,,,,,,,,,,,,,,,,,53,,,,,,,,,,,,,,327.8850000357488,,response,,,,99,,,,,,,Space,keypress(Space),,,,,,,,"---- -- ----- -- ------ - ------- --- ----------<br>------------- ------ ------ ---- ---- ------- ----- -- ----<br>-------- ------- -- ---------- --- - --- ----- ----- ----<br>---- --- --- ----- --- ---- ---- ------- most, ---- -------<br>--- --- -- ----- -- --- ---- -- --- ---- -- ------ ------<br>--- ----- -- ----",224421.69999998808,224420.90000003576,224076.345,224081.10000002384,224093.015,224426.37,,36,"most,"
screen,html.Screen,2_1_0_1_37,2022-05-09T20:30:41.328Z,,,,,,,,,,,,,,,,,53,,,,,,,,,,,,,,368.8299999880837,,response,,,,99,,,,,,,Space,keypress(Space),,,,,,,,---- -- ----- -- ------ - ------- --- ----------<br>------------- ------ ------ ---- ---- ------- ----- -- ----<br>-------- ------- -- ---------- --- - --- ----- ----- ----<br>---- --- --- ----- --- ---- ---- ------- ----- it's -------<br>--- --- -- ----- -- --- ---- -- --- ---- -- ------ ------<br>--- ----- -- ----,224795.90000003576,224795.19999998808,224409.65,224421.80000001192,224426.37,224809.604,,37,it's
screen,html.Screen,2_1_0_1_38,2022-05-09T20:30:41.837Z,,,,,,,,,,,,,,,,,53,,,,,,,,,,,,,,494.595999988087,,response,,,,99,,,,,,,Space,keypress(Space),,,,,,,,---- -- ----- -- ------ - ------- --- ----------<br>------------- ------ ------ ---- ---- ------- ----- -- ----<br>-------- ------- -- ---------- --- - --- ----- ----- ----<br>---- --- --- ----- --- ---- ---- ------- ----- ---- whether<br>--- --- -- ----- -- --- ---- -- --- ---- -- ------ ------<br>--- ----- -- ----,225305.10000002384,225304.19999998808,224794.042,224796.10000002384,224809.604,225309.648,,38,whether
screen,html.Screen,2_1_0_1_39,2022-05-09T20:30:42.230Z,,,,,,,,,,,,,,,,,53,,,,,,,,,,,,,,387.5519999880926,,response,,,,99,,,,,,,Space,keypress(Space),,,,,,,,---- -- ----- -- ------ - ------- --- ----------<br>------------- ------ ------ ---- ---- ------- ----- -- ----<br>-------- ------- -- ---------- --- - --- ----- ----- ----<br>---- --- --- ----- --- ---- ---- ------- ----- ---- -------<br>you --- -- ----- -- --- ---- -- --- ---- -- ------ ------<br>--- ----- -- ----,225698,225697.19999998808,225292.939,225305.30000001192,225309.648,225709.58,,39,you
screen,html.Screen,2_1_0_1_40,2022-05-09T20:30:42.557Z,,,,,,,,,,,,,,,,,53,,,,,,,,,,,,,,314.4200000000128,,response,,,,99,,,,,,,Space,keypress(Space),,,,,,,,---- -- ----- -- ------ - ------- --- ----------<br>------------- ------ ------ ---- ---- ------- ----- -- ----<br>-------- ------- -- ---------- --- - --- ----- ----- ----<br>---- --- --- ----- --- ---- ---- ------- ----- ---- -------<br>--- are -- ----- -- --- ---- -- --- ---- -- ------ ------<br>--- ----- -- ----,226024.80000001192,226024,225692.904,225698.19999998808,225709.58,226047.179,,40,are
screen,html.Screen,2_1_0_1_41,2022-05-09T20:30:42.884Z,,,,,,,,,,,,,,,,,53,,,,,,,,,,,,,,303.52099998807535,,response,,,,99,,,,,,,Space,keypress(Space),,,,,,,,---- -- ----- -- ------ - ------- --- ----------<br>------------- ------ ------ ---- ---- ------- ----- -- ----<br>-------- ------- -- ---------- --- - --- ----- ----- ----<br>---- --- --- ----- --- ---- ---- ------- ----- ---- -------<br>--- --- as ----- -- --- ---- -- --- ---- -- ------ ------<br>--- ----- -- ----,226351.60000002384,226350.69999998808,226009.541,226025.10000002384,226047.179,226359.514,,41,as
screen,html.Screen,2_1_0_1_42,2022-05-09T20:30:43.266Z,,,,,,,,,,,,,,,,,53,,,,,,,,,,,,,,373.3860000357672,,response,,,,99,,,,,,,Space,keypress(Space),,,,,,,,---- -- ----- -- ------ - ------- --- ----------<br>------------- ------ ------ ---- ---- ------- ----- -- ----<br>-------- ------- -- ---------- --- - --- ----- ----- ----<br>---- --- --- ----- --- ---- ---- ------- ----- ---- -------<br>--- --- -- close -- --- ---- -- --- ---- -- ------ ------<br>--- ----- -- ----,226733.80000001192,226732.90000003576,226342.938,226351.80000001192,226359.514,226742.795,,42,close
screen,html.Screen,2_1_0_1_43,2022-05-09T20:30:43.649Z,,,,,,,,,,,,,,,,,53,,,,,,,,,,,,,,373.2049999999872,,response,,,,99,,,,,,,Space,keypress(Space),,,,,,,,---- -- ----- -- ------ - ------- --- ----------<br>------------- ------ ------ ---- ---- ------- ----- -- ----<br>-------- ------- -- ---------- --- - --- ----- ----- ----<br>---- --- --- ----- --- ---- ---- ------- ----- ---- -------<br>--- --- -- ----- as --- ---- -- --- ---- -- ------ ------<br>--- ----- -- ----,227116.90000003576,227116,226726.146,226734,226742.795,227126.102,,43,as
screen,html.Screen,2_1_0_1_44,2022-05-09T20:30:44.092Z,,,,,,,,,,,,,,,,,53,,,,,,,,,,,,,,432.59799998806557,,response,,,,99,,,,,,,Space,keypress(Space),,,,,,,,---- -- ----- -- ------ - ------- --- ----------<br>------------- ------ ------ ---- ---- ------- ----- -- ----<br>-------- ------- -- ---------- --- - --- ----- ----- ----<br>---- --- --- ----- --- ---- ---- ------- ----- ---- -------<br>--- --- -- ----- -- you ---- -- --- ---- -- ------ ------<br>--- ----- -- ----,227559.40000003576,227558.69999998808,227109.493,227117.10000002384,227126.102,227576.129,,44,you
screen,html.Screen,2_1_0_1_45,2022-05-09T20:30:44.549Z,,,,,,,,,,,,,,,,,53,,,,,,,,,,,,,,439.87100000001374,,response,,,,99,,,,,,,Space,keypress(Space),,,,,,,,---- -- ----- -- ------ - ------- --- ----------<br>------------- ------ ------ ---- ---- ------- ----- -- ----<br>-------- ------- -- ---------- --- - --- ----- ----- ----<br>---- --- --- ----- --- ---- ---- ------- ----- ---- -------<br>--- --- -- ----- -- --- want -- --- ---- -- ------ ------<br>--- ----- -- ----,228016.80000001192,228016,227559.44,227559.60000002384,227576.129,228026.051,,45,want
screen,html.Screen,2_1_0_1_46,2022-05-09T20:30:44.958Z,,,,,,,,,,,,,,,,,53,,,,,,,,,,,,,,399.5490000238351,,response,,,,99,,,,,,,Space,keypress(Space),,,,,,,,---- -- ----- -- ------ - ------- --- ----------<br>------------- ------ ------ ---- ---- ------- ----- -- ----<br>-------- ------- -- ---------- --- - --- ----- ----- ----<br>---- --- --- ----- --- ---- ---- ------- ----- ---- -------<br>--- --- -- ----- -- --- ---- to --- ---- -- ------ ------<br>--- ----- -- ----,228426.19999998808,228425.60000002384,228009.442,228017,228026.051,228442.711,,46,to
screen,html.Screen,2_1_0_1_47,2022-05-09T20:30:45.468Z,,,,,,,,,,,,,,,,,53,,,,,,,,,,,,,,491.8890000238316,,response,,,,99,,,,,,,Space,keypress(Space),,,,,,,,"---- -- ----- -- ------ - ------- --- ----------<br>------------- ------ ------ ---- ---- ------- ----- -- ----<br>-------- ------- -- ---------- --- - --- ----- ----- ----<br>---- --- --- ----- --- ---- ---- ------- ----- ---- -------<br>--- --- -- ----- -- --- ---- -- be, ---- -- ------ ------<br>--- ----- -- ----",228935.5,228934.60000002384,228426.044,228426.5,228442.711,228942.646,,47,"be,"
screen,html.Screen,2_1_0_1_48,2022-05-09T20:30:45.864Z,,,,,,,,,,,,,,,,,53,,,,,,,,,,,,,,388.654000011913,,response,,,,99,,,,,,,Space,keypress(Space),,,,,,,,---- -- ----- -- ------ - ------- --- ----------<br>------------- ------ ------ ---- ---- ------- ----- -- ----<br>-------- ------- -- ---------- --- - --- ----- ----- ----<br>---- --- --- ----- --- ---- ---- ------- ----- ---- -------<br>--- --- -- ----- -- --- ---- -- --- even -- ------ ------<br>--- ----- -- ----,229332.10000002384,229331.30000001192,228926.021,228935.69999998808,228942.646,229342.64,,48,even
screen,html.Screen,2_1_0_1_49,2022-05-09T20:30:46.141Z,,,,,,,,,,,,,,,,,53,,,,,,,,,,,,,,265.85999999998603,,response,,,,99,,,,,,,Space,keypress(Space),,,,,,,,---- -- ----- -- ------ - ------- --- ----------<br>------------- ------ ------ ---- ---- ------- ----- -- ----<br>-------- ------- -- ---------- --- - --- ----- ----- ----<br>---- --- --- ----- --- ---- ---- ------- ----- ---- -------<br>--- --- -- ----- -- --- ---- -- --- ---- if ------ ------<br>--- ----- -- ----,229609.10000002384,229608.5,229325.98,229332.30000001192,229342.64,229625.995,,49,if
screen,html.Screen,2_1_0_1_50,2022-05-09T20:30:46.527Z,,,,,,,,,,,,,,,,,53,,,,,,,,,,,,,,367.7049999880837,,response,,,,99,,,,,,,Space,keypress(Space),,,,,,,,---- -- ----- -- ------ - ------- --- ----------<br>------------- ------ ------ ---- ---- ------- ----- -- ----<br>-------- ------- -- ---------- --- - --- ----- ----- ----<br>---- --- --- ----- --- ---- ---- ------- ----- ---- -------<br>--- --- -- ----- -- --- ---- -- --- ---- -- that's ------<br>--- ----- -- ----,229994.5,229993.69999998808,229609.29,229609.40000003576,229625.995,230009.244,,50,that's
screen,html.Screen,2_1_0_1_51,2022-05-09T20:30:47.059Z,,,,,,,,,,,,,,,,,53,,,,,,,,,,,,,,517.0560000119149,,response,,,,99,,,,,,,Space,keypress(Space),,,,,,,,---- -- ----- -- ------ - ------- --- ----------<br>------------- ------ ------ ---- ---- ------- ----- -- ----<br>-------- ------- -- ---------- --- - --- ----- ----- ----<br>---- --- --- ----- --- ---- ---- ------- ----- ---- -------<br>--- --- -- ----- -- --- ---- -- --- ---- -- ------ really<br>--- ----- -- ----,230527.10000002384,230526.30000001192,229992.627,229994.80000001192,230009.244,230542.605,,51,really
screen,html.Screen,2_1_0_1_52,2022-05-09T20:30:47.520Z,,,,,,,,,,,,,,,,,53,,,,,,,,,,,,,,444.0949999880686,,response,,,,99,,,,,,,Space,keypress(Space),,,,,,,,---- -- ----- -- ------ - ------- --- ----------<br>------------- ------ ------ ---- ---- ------- ----- -- ----<br>-------- ------- -- ---------- --- - --- ----- ----- ----<br>---- --- --- ----- --- ---- ---- ------- ----- ---- -------<br>--- --- -- ----- -- --- ---- -- --- ---- -- ------ ------<br>not ----- -- ----,230987.60000002384,230986.69999998808,230525.897,230527.30000001192,230542.605,230992.601,,52,not
screen,html.Screen,2_1_0_1_53,2022-05-09T20:30:47.878Z,,,,,,,,,,,,,,,,,53,,,,,,,,,,,,,,352.2990000357677,,response,,,,99,,,,,,,Space,keypress(Space),,,,,,,,---- -- ----- -- ------ - ------- --- ----------<br>------------- ------ ------ ---- ---- ------- ----- -- ----<br>-------- ------- -- ---------- --- - --- ----- ----- ----<br>---- --- --- ----- --- ---- ---- ------- ----- ---- -------<br>--- --- -- ----- -- --- ---- -- --- ---- -- ------ ------<br>--- close -- ----,231345.80000001192,231344.90000003576,230975.899,230987.69999998808,230992.601,231359.159,,53,close
screen,html.Screen,2_1_0_1_54,2022-05-09T20:30:48.304Z,,,,,,,,,,,,,,,,,53,,,,,,,,,,,,,,411.6410000119067,,response,,,,99,,,,,,,Space,keypress(Space),,,,,,,,---- -- ----- -- ------ - ------- --- ----------<br>------------- ------ ------ ---- ---- ------- ----- -- ----<br>-------- ------- -- ---------- --- - --- ----- ----- ----<br>---- --- --- ----- --- ---- ---- ------- ----- ---- -------<br>--- --- -- ----- -- --- ---- -- --- ---- -- ------ ------<br>--- ----- at ----,231771.60000002384,231770.80000001192,231342.53,231345.90000003576,231359.159,231775.857,,54,at
screen,html.Screen,2_1_0_1_55,2022-05-09T20:30:54.152Z,,,,,,,,,,,,,,,,,53,,,,,,,,,,,,,,5843.443000011932,,response,,,,99,,,,,,,Space,keypress(Space),,,,,,,,---- -- ----- -- ------ - ------- --- ----------<br>------------- ------ ------ ---- ---- ------- ----- -- ----<br>-------- ------- -- ---------- --- - --- ----- ----- ----<br>---- --- --- ----- --- ---- ---- ------- ----- ---- -------<br>--- --- -- ----- -- --- ---- -- --- ---- -- ------ ------<br>--- ----- -- all.,237620.19999998808,237619.30000001192,231759.175,231771.69999998808,231775.857,237625.439,,55,all.
Item 99,flow.Loop,2_1_0_1,2022-05-09T20:30:54.153Z,,,,,,,,,,,,,,,,,,,,,,,,,,,,,,,37457.94200001191,,completion,,,,,G,,,,,,,,,,,silence,,,,,237620.60000002384,237619.30000001192,200128.489,200129.40000003576,200161.358,237625.439,,,
Question 1,html.Screen,2_1_0_2,2022-05-09T20:31:06.032Z,,,,,,,,,,,,,,,,,,,,,,,,,,,,false,FALSE,,11872.861000011908,,response,,,,99,G,,,,,,TRUE,click #choice-1,,,,silence,,,,,249499.40000003576,249498.30000001192,237608.769,237620.69999998808,237625.439,249507.889,,,
Question 2,html.Screen,2_1_0_3,2022-05-09T20:31:12.935Z,,,,,,,,,,,,,,,,,,,,,,,,,,,,true,TRUE,,6892.3109999880835,,response,,,,99,G,,,,,,TRUE,click #choice-1,,,,silence,,,,,256401.80000001192,256400.19999998808,249491.261,249499.40000003576,249507.889,256407.536,,,
Item 99,flow.Sequence,2_1_0,2022-05-09T20:31:12.935Z,,,,,,,,,,,,,,,,,,,,,,,,,,,,,,,66254.74099998808,,completion,,,,,,,,,,,,,,,,,,,,,256402.10000002384,256400.19999998808,190112.041,190138.40000003576,190145.459,256407.536,,,
Holding screen,html.Screen,2_1_1_0,2022-05-09T20:31:22.924Z,,,,,,,,,,,,,,,,,,,,,,,,,,,,,,,9999.157000000036,,timeout,,,,,,,,,,,,,,,,,,,,,266391.3000000119,266390.535,256390.768,256402.30000001192,256407.536,266406.693,,,
screen,html.Screen,2_1_1_1_0,2022-05-09T20:31:25.886Z,,,,,,,,,,,,,,,,,54,,,,,,,,,,,,,,2945.6070000118925,,response,,,,100,,,,,,,Space,keypress(Space),,,,,,,,At --- ---- --- ------ ----- ------- ---- -- --- ------- --<br>------- ---------- ------ -- ----- -- ----- -- ---- ------<br>--- ----- --- --- ------ -------- ----- --- ------ ----- --<br>----- ----- ---------- --- --- ------ ------ ---- -- ------<br>------- --- ------ ----- --- ---- ------- -- ---- --- --<br>------- ------,269353.6999999881,269352.3000000119,266390.535,266391.5,266406.693,269356.584,,0,At
screen,html.Screen,2_1_1_1_1,2022-05-09T20:31:26.351Z,,,,,,,,,,,,,,,,,54,,,,,,,,,,,,,,460.91600000002654,,response,,,,100,,,,,,,Space,keypress(Space),,,,,,,,-- the ---- --- ------ ----- ------- ---- -- --- ------- --<br>------- ---------- ------ -- ----- -- ----- -- ---- ------<br>--- ----- --- --- ------ -------- ----- --- ------ ----- --<br>----- ----- ---------- --- --- ------ ------ ---- -- ------<br>------- --- ------ ----- --- ---- ------- -- ---- --- --<br>------- ------,269818.3000000119,269817.5,269339.922,269353.8000000119,269356.584,269823.184,,1,the
screen,html.Screen,2_1_1_1_2,2022-05-09T20:31:26.661Z,,,,,,,,,,,,,,,,,54,,,,,,,,,,,,,,304.7160000357544,,response,,,,100,,,,,,,Space,keypress(Space),,,,,,,,-- --- time --- ------ ----- ------- ---- -- --- ------- --<br>------- ---------- ------ -- ----- -- ----- -- ---- ------<br>--- ----- --- --- ------ -------- ----- --- ------ ----- --<br>----- ----- ---------- --- --- ------ ------ ---- -- ------<br>------- --- ------ ----- --- ---- ------- -- ---- --- --<br>------- ------,270128.5,270127.90000003576,269806.503,269818.5,269823.184,270139.793,,2,time
screen,html.Screen,2_1_1_1_3,2022-05-09T20:31:27.042Z,,,,,,,,,,,,,,,,,54,,,,,,,,,,,,,,368.7069999999949,,response,,,,100,,,,,,,Space,keypress(Space),,,,,,,,-- --- ---- the ------ ----- ------- ---- -- --- ------- --<br>------- ---------- ------ -- ----- -- ----- -- ---- ------<br>--- ----- --- --- ------ -------- ----- --- ------ ----- --<br>----- ----- ---------- --- --- ------ ------ ---- -- ------<br>------- --- ------ ----- --- ---- ------- -- ---- --- --<br>------- ------,270509.1999999881,270508.5,270123.127,270128.8000000119,270139.793,270523.131,,3,the
screen,html.Screen,2_1_1_1_4,2022-05-09T20:31:27.301Z,,,,,,,,,,,,,,,,,54,,,,,,,,,,,,,,244.66900001192698,,response,,,,100,,,,,,,Space,keypress(Space),,,,,,,,-- --- ---- --- French ----- ------- ---- -- --- ------- --<br>------- ---------- ------ -- ----- -- ----- -- ---- ------<br>--- ----- --- --- ------ -------- ----- --- ------ ----- --<br>----- ----- ---------- --- --- ------ ------ ---- -- ------<br>------- --- ------ ----- --- ---- ------- -- ---- --- --<br>------- ------,270768.60000002384,270767.8000000119,270506.429,270509.40000003576,270523.131,270773.135,,4,French
screen,html.Screen,2_1_1_1_5,2022-05-09T20:31:27.661Z,,,,,,,,,,,,,,,,,54,,,,,,,,,,,,,,354.06499998806976,,response,,,,100,,,,,,,Space,keypress(Space),,,,,,,,-- --- ---- --- ------ crown ------- ---- -- --- ------- --<br>------- ---------- ------ -- ----- -- ----- -- ---- ------<br>--- ----- --- --- ------ -------- ----- --- ------ ----- --<br>----- ----- ---------- --- --- ------ ------ ---- -- ------<br>------- --- ------ ----- --- ---- ------- -- ---- --- --<br>------- ------,271128,271127.1999999881,270756.442,270768.8000000119,270773.135,271139.705,,5,crown
screen,html.Screen,2_1_1_1_6,2022-05-09T20:31:27.939Z,,,,,,,,,,,,,,,,,54,,,,,,,,,,,,,,265.6950000357465,,response,,,,100,,,,,,,Space,keypress(Space),,,,,,,,-- --- ---- --- ------ ----- secured ---- -- --- ------- --<br>------- ---------- ------ -- ----- -- ----- -- ---- ------<br>--- ----- --- --- ------ -------- ----- --- ------ ----- --<br>----- ----- ---------- --- --- ------ ------ ---- -- ------<br>------- --- ------ ----- --- ---- ------- -- ---- --- --<br>------- ------,271406.1999999881,271405.40000003576,271123.078,271128.10000002384,271139.705,271423.059,,6,secured
screen,html.Screen,2_1_1_1_7,2022-05-09T20:31:28.270Z,,,,,,,,,,,,,,,,,54,,,,,,,,,,,,,,313.6409999880707,,response,,,,100,,,,,,,Space,keypress(Space),,,,,,,,-- --- ---- --- ------ ----- ------- much -- --- ------- --<br>------- ---------- ------ -- ----- -- ----- -- ---- ------<br>--- ----- --- --- ------ -------- ----- --- ------ ----- --<br>----- ----- ---------- --- --- ------ ------ ---- -- ------<br>------- --- ------ ----- --- ---- ------- -- ---- --- --<br>------- ------,271737.60000002384,271736.6999999881,271406.387,271406.40000003576,271423.059,271739.727,,7,much
screen,html.Screen,2_1_1_1_8,2022-05-09T20:31:28.701Z,,,,,,,,,,,,,,,,,54,,,,,,,,,,,,,,428.0730000119074,,response,,,,100,,,,,,,Space,keypress(Space),,,,,,,,-- --- ---- --- ------ ----- ------- ---- of --- ------- --<br>------- ---------- ------ -- ----- -- ----- -- ---- ------<br>--- ----- --- --- ------ -------- ----- --- ------ ----- --<br>----- ----- ---------- --- --- ------ ------ ---- -- ------<br>------- --- ------ ----- --- ---- ------- -- ---- --- --<br>------- ------,272168.60000002384,272167.8000000119,271723.003,271737.8000000119,271739.727,272172.999,,8,of
screen,html.Screen,2_1_1_1_9,2022-05-09T20:31:29.005Z,,,,,,,,,,,,,,,,,54,,,,,,,,,,,,,,298.60100002383115,,response,,,,100,,,,,,,Space,keypress(Space),,,,,,,,-- --- ---- --- ------ ----- ------- ---- -- its ------- --<br>------- ---------- ------ -- ----- -- ----- -- ---- ------<br>--- ----- --- --- ------ -------- ----- --- ------ ----- --<br>----- ----- ---------- --- --- ------ ------ ---- -- ------<br>------- --- ------ ----- --- ---- ------- -- ---- --- --<br>------- ------,272472.5,272471.60000002384,272156.337,272168.8000000119,272172.999,272489.65,,9,its
screen,html.Screen,2_1_1_1_10,2022-05-09T20:31:29.333Z,,,,,,,,,,,,,,,,,54,,,,,,,,,,,,,,309.2500000357395,,response,,,,100,,,,,,,Space,keypress(Space),,,,,,,,-- --- ---- --- ------ ----- ------- ---- -- --- revenue --<br>------- ---------- ------ -- ----- -- ----- -- ---- ------<br>--- ----- --- --- ------ -------- ----- --- ------ ----- --<br>----- ----- ---------- --- --- ------ ------ ---- -- ------<br>------- --- ------ ----- --- ---- ------- -- ---- --- --<br>------- ------,272799.8000000119,272798.90000003576,272472.956,272472.8000000119,272489.65,272806.274,,10,revenue
screen,html.Screen,2_1_1_1_11,2022-05-09T20:31:29.706Z,,,,,,,,,,,,,,,,,54,,,,,,,,,,,,,,365.7260000000242,,response,,,,100,,,,,,,Space,keypress(Space),,,,,,,,-- --- ---- --- ------ ----- ------- ---- -- --- ------- by<br>------- ---------- ------ -- ----- -- ----- -- ---- ------<br>--- ----- --- --- ------ -------- ----- --- ------ ----- --<br>----- ----- ---------- --- --- ------ ------ ---- -- ------<br>------- --- ------ ----- --- ---- ------- -- ---- --- --<br>------- ------,273172.90000003576,273172,272789.65,272800,272806.274,273189.627,,11,by
screen,html.Screen,2_1_1_1_12,2022-05-09T20:31:30.194Z,,,,,,,,,,,,,,,,,54,,,,,,,,,,,,,,471.0729999881005,,response,,,,100,,,,,,,Space,keypress(Space),,,,,,,,-- --- ---- --- ------ ----- ------- ---- -- --- ------- --<br>issuing ---------- ------ -- ----- -- ----- -- ---- ------<br>--- ----- --- --- ------ -------- ----- --- ------ ----- --<br>----- ----- ---------- --- --- ------ ------ ---- -- ------<br>------- --- ------ ----- --- ---- ------- -- ---- --- --<br>------- ------,273661.5,273660.6999999881,273172.901,273173,273189.627,273672.895,,12,issuing
screen,html.Screen,2_1_1_1_13,2022-05-09T20:31:31.409Z,,,,,,,,,,,,,,,,,54,,,,,,,,,,,,,,1202.2050000238232,,response,,,,100,,,,,,,Space,keypress(Space),,,,,,,,-- --- ---- --- ------ ----- ------- ---- -- --- ------- --<br>------- government ------ -- ----- -- ----- -- ---- ------<br>--- ----- --- --- ------ -------- ----- --- ------ ----- --<br>----- ----- ---------- --- --- ------ ------ ---- -- ------<br>------- --- ------ ----- --- ---- ------- -- ---- --- --<br>------- ------,274875.8000000119,274875.10000002384,273656.282,273661.6999999881,273672.895,274889.47,,13,government
screen,html.Screen,2_1_1_1_14,2022-05-09T20:31:32.730Z,,,,,,,,,,,,,,,,,54,,,,,,,,,,,,,,1306.729999988107,,response,,,,100,,,,,,,Space,keypress(Space),,,,,,,,-- --- ---- --- ------ ----- ------- ---- -- --- ------- --<br>------- ---------- bonds. -- ----- -- ----- -- ---- ------<br>--- ----- --- --- ------ -------- ----- --- ------ ----- --<br>----- ----- ---------- --- --- ------ ------ ---- -- ------<br>------- --- ------ ----- --- ---- ------- -- ---- --- --<br>------- ------,276197,276196.1999999881,274872.825,274876,274889.47,276206.039,,14,bonds.
screen,html.Screen,2_1_1_1_15,2022-05-09T20:31:33.359Z,,,,,,,,,,,,,,,,,54,,,,,,,,,,,,,,619.4610000000102,,response,,,,100,,,,,,,Space,keypress(Space),,,,,,,,-- --- ---- --- ------ ----- ------- ---- -- --- ------- --<br>------- ---------- ------ In ----- -- ----- -- ---- ------<br>--- ----- --- --- ------ -------- ----- --- ------ ----- --<br>----- ----- ---------- --- --- ------ ------ ---- -- ------<br>------- --- ------ ----- --- ---- ------- -- ---- --- --<br>------- ------,276826.40000003576,276825.5,276189.442,276197.1999999881,276206.039,276839.331,,15,In
screen,html.Screen,2_1_1_1_16,2022-05-09T20:31:33.998Z,,,,,,,,,,,,,,,,,54,,,,,,,,,,,,,,624.7690000238363,,response,,,,100,,,,,,,Space,keypress(Space),,,,,,,,"-- --- ---- --- ------ ----- ------- ---- -- --- ------- --<br>------- ---------- ------ -- 1727, -- ----- -- ---- ------<br>--- ----- --- --- ------ -------- ----- --- ------ ----- --<br>----- ----- ---------- --- --- ------ ------ ---- -- ------<br>------- --- ------ ----- --- ---- ------- -- ---- --- --<br>------- ------",277465.10000002384,277464.10000002384,276822.719,276826.60000002384,276839.331,277472.649,,16,"1727,"
screen,html.Screen,2_1_1_1_17,2022-05-09T20:31:34.492Z,,,,,,,,,,,,,,,,,54,,,,,,,,,,,,,,486.0509999881033,,response,,,,100,,,,,,,Space,keypress(Space),,,,,,,,-- --- ---- --- ------ ----- ------- ---- -- --- ------- --<br>------- ---------- ------ -- ----- in ----- -- ---- ------<br>--- ----- --- --- ------ -------- ----- --- ------ ----- --<br>----- ----- ---------- --- --- ------ ------ ---- -- ------<br>------- --- ------ ----- --- ---- ------- -- ---- --- --<br>------- ------,277959.60000002384,277958.6999999881,277455.984,277465.1999999881,277472.649,277972.585,,17,in
screen,html.Screen,2_1_1_1_18,2022-05-09T20:31:34.786Z,,,,,,,,,,,,,,,,,54,,,,,,,,,,,,,,279.91499999997905,,response,,,,100,,,,,,,Space,keypress(Space),,,,,,,,-- --- ---- --- ------ ----- ------- ---- -- --- ------- --<br>------- ---------- ------ -- ----- -- order -- ---- ------<br>--- ----- --- --- ------ -------- ----- --- ------ ----- --<br>----- ----- ---------- --- --- ------ ------ ---- -- ------<br>------- --- ------ ----- --- ---- ------- -- ---- --- --<br>------- ------,278253.10000002384,278252.5,277955.925,277959.6999999881,277972.585,278255.934,,18,order
screen,html.Screen,2_1_1_1_19,2022-05-09T20:31:35.154Z,,,,,,,,,,,,,,,,,54,,,,,,,,,,,,,,364.4660000357544,,response,,,,100,,,,,,,Space,keypress(Space),,,,,,,,-- --- ---- --- ------ ----- ------- ---- -- --- ------- --<br>------- ---------- ------ -- ----- -- ----- to ---- ------<br>--- ----- --- --- ------ -------- ----- --- ------ ----- --<br>----- ----- ---------- --- --- ------ ------ ---- -- ------<br>------- --- ------ ----- --- ---- ------- -- ---- --- --<br>------- ------,278621.1999999881,278620.40000003576,278239.221,278253.3000000119,278255.934,278653.779,,19,to
screen,html.Screen,2_1_1_1_20,2022-05-09T20:31:35.392Z,,,,,,,,,,,,,,,,,54,,,,,,,,,,,,,,204.82100002386142,,response,,,,100,,,,,,,Space,keypress(Space),,,,,,,,-- --- ---- --- ------ ----- ------- ---- -- --- ------- --<br>------- ---------- ------ -- ----- -- ----- -- save ------<br>--- ----- --- --- ------ -------- ----- --- ------ ----- --<br>----- ----- ---------- --- --- ------ ------ ---- -- ------<br>------- --- ------ ----- --- ---- ------- -- ---- --- --<br>------- ------,278859.5,278858.60000002384,278605.868,278621.3000000119,278653.779,278872.513,,20,save
screen,html.Screen,2_1_1_1_21,2022-05-09T20:31:35.627Z,,,,,,,,,,,,,,,,,54,,,,,,,,,,,,,,220.8870000357856,,response,,,,100,,,,,,,Space,keypress(Space),,,,,,,,"-- --- ---- --- ------ ----- ------- ---- -- --- ------- --<br>------- ---------- ------ -- ----- -- ----- -- ---- money,<br>--- ----- --- --- ------ -------- ----- --- ------ ----- --<br>----- ----- ---------- --- --- ------ ------ ---- -- ------<br>------- --- ------ ----- --- ---- ------- -- ---- --- --<br>------- ------",279094.3000000119,279093.40000003576,278855.883,278859.6999999881,278872.513,279105.865,,21,"money,"
screen,html.Screen,2_1_1_1_22,2022-05-09T20:31:36.023Z,,,,,,,,,,,,,,,,,54,,,,,,,,,,,,,,383.8349999880884,,response,,,,100,,,,,,,Space,keypress(Space),,,,,,,,-- --- ---- --- ------ ----- ------- ---- -- --- ------- --<br>------- ---------- ------ -- ----- -- ----- -- ---- ------<br>the ----- --- --- ------ -------- ----- --- ------ ----- --<br>----- ----- ---------- --- --- ------ ------ ---- -- ------<br>------- --- ------ ----- --- ---- ------- -- ---- --- --<br>------- ------,279490.5,279489.6999999881,279089.327,279094.5,279105.865,279505.781,,22,the
screen,html.Screen,2_1_1_1_23,2022-05-09T20:31:36.444Z,,,,,,,,,,,,,,,,,54,,,,,,,,,,,,,,404.31900002382463,,response,,,,100,,,,,,,Space,keypress(Space),,,,,,,,-- --- ---- --- ------ ----- ------- ---- -- --- ------- --<br>------- ---------- ------ -- ----- -- ----- -- ---- ------<br>--- state --- --- ------ -------- ----- --- ------ ----- --<br>----- ----- ---------- --- --- ------ ------ ---- -- ------<br>------- --- ------ ----- --- ---- ------- -- ---- --- --<br>------- ------,279910.90000003576,279910.10000002384,279489.154,279490.6999999881,279505.781,279922.45,,23,state
screen,html.Screen,2_1_1_1_24,2022-05-09T20:31:36.821Z,,,,,,,,,,,,,,,,,54,,,,,,,,,,,,,,364.3500000119093,,response,,,,100,,,,,,,Space,keypress(Space),,,,,,,,-- --- ---- --- ------ ----- ------- ---- -- --- ------- --<br>------- ---------- ------ -- ----- -- ----- -- ---- ------<br>--- ----- cut --- ------ -------- ----- --- ------ ----- --<br>----- ----- ---------- --- --- ------ ------ ---- -- ------<br>------- --- ------ ----- --- ---- ------- -- ---- --- --<br>------- ------,280287.8000000119,280286.8000000119,279905.875,279911.10000002384,279922.45,280308.935,,24,cut
screen,html.Screen,2_1_1_1_25,2022-05-09T20:31:37.076Z,,,,,,,,,,,,,,,,,54,,,,,,,,,,,,,,233.6650000238442,,response,,,,100,,,,,,,Space,keypress(Space),,,,,,,,-- --- ---- --- ------ ----- ------- ---- -- --- ------- --<br>------- ---------- ------ -- ----- -- ----- -- ---- ------<br>--- ----- --- the ------ -------- ----- --- ------ ----- --<br>----- ----- ---------- --- --- ------ ------ ---- -- ------<br>------- --- ------ ----- --- ---- ------- -- ---- --- --<br>------- ------,280543.40000003576,280542.60000002384,280272.425,280287.90000003576,280308.935,280555.766,,25,the
screen,html.Screen,2_1_1_1_26,2022-05-09T20:31:37.296Z,,,,,,,,,,,,,,,,,54,,,,,,,,,,,,,,206.73399999999674,,response,,,,100,,,,,,,Space,keypress(Space),,,,,,,,-- --- ---- --- ------ ----- ------- ---- -- --- ------- --<br>------- ---------- ------ -- ----- -- ----- -- ---- ------<br>--- ----- --- --- bonds' -------- ----- --- ------ ----- --<br>----- ----- ---------- --- --- ------ ------ ---- -- ------<br>------- --- ------ ----- --- ---- ------- -- ---- --- --<br>------- ------,280763.1999999881,280762.5,280539.115,280543.60000002384,280555.766,280772.352,,26,bonds'
screen,html.Screen,2_1_1_1_27,2022-05-09T20:31:37.718Z,,,,,,,,,,,,,,,,,54,,,,,,,,,,,,,,412.0480000357493,,response,,,,100,,,,,,,Space,keypress(Space),,,,,,,,-- --- ---- --- ------ ----- ------- ---- -- --- ------- --<br>------- ---------- ------ -- ----- -- ----- -- ---- ------<br>--- ----- --- --- ------ interest ----- --- ------ ----- --<br>----- ----- ---------- --- --- ------ ------ ---- -- ------<br>------- --- ------ ----- --- ---- ------- -- ---- --- --<br>------- ------,281185.10000002384,281184.40000003576,280755.754,280763.40000003576,280772.352,281189.084,,27,interest
screen,html.Screen,2_1_1_1_28,2022-05-09T20:31:38.074Z,,,,,,,,,,,,,,,,,54,,,,,,,,,,,,,,351.31600003578933,,response,,,,100,,,,,,,Space,keypress(Space),,,,,,,,-- --- ---- --- ------ ----- ------- ---- -- --- ------- --<br>------- ---------- ------ -- ----- -- ----- -- ---- ------<br>--- ----- --- --- ------ -------- rate. --- ------ ----- --<br>----- ----- ---------- --- --- ------ ------ ---- -- ------<br>------- --- ------ ----- --- ---- ------- -- ---- --- --<br>------- ------,281541.1999999881,281540.40000003576,281172.378,281185.3000000119,281189.084,281555.667,,28,rate.
screen,html.Screen,2_1_1_1_29,2022-05-09T20:31:38.429Z,,,,,,,,,,,,,,,,,54,,,,,,,,,,,,,,339.73300003574695,,response,,,,100,,,,,,,Space,keypress(Space),,,,,,,,-- --- ---- --- ------ ----- ------- ---- -- --- ------- --<br>------- ---------- ------ -- ----- -- ----- -- ---- ------<br>--- ----- --- --- ------ -------- ----- The ------ ----- --<br>----- ----- ---------- --- --- ------ ------ ---- -- ------<br>------- --- ------ ----- --- ---- ------- -- ---- --- --<br>------- ------,281896.1999999881,281895.40000003576,281539.012,281541.5,281555.667,281905.651,,29,The
screen,html.Screen,2_1_1_1_30,2022-05-09T20:31:38.839Z,,,,,,,,,,,,,,,,,54,,,,,,,,,,,,,,399.9490000238293,,response,,,,100,,,,,,,Space,keypress(Space),,,,,,,,-- --- ---- --- ------ ----- ------- ---- -- --- ------- --<br>------- ---------- ------ -- ----- -- ----- -- ---- ------<br>--- ----- --- --- ------ -------- ----- --- market ----- --<br>----- ----- ---------- --- --- ------ ------ ---- -- ------<br>------- --- ------ ----- --- ---- ------- -- ---- --- --<br>------- ------,282306.40000003576,282305.60000002384,281889.036,281896.40000003576,281905.651,282322.301,,30,market
screen,html.Screen,2_1_1_1_31,2022-05-09T20:31:39.241Z,,,,,,,,,,,,,,,,,54,,,,,,,,,,,,,,384.8989999881014,,response,,,,100,,,,,,,Space,keypress(Space),,,,,,,,-- --- ---- --- ------ ----- ------- ---- -- --- ------- --<br>------- ---------- ------ -- ----- -- ----- -- ---- ------<br>--- ----- --- --- ------ -------- ----- --- ------ value --<br>----- ----- ---------- --- --- ------ ------ ---- -- ------<br>------- --- ------ ----- --- ---- ------- -- ---- --- --<br>------- ------,282708,282707.1999999881,282305.61,282306.5,282322.301,282722.231,,31,value
screen,html.Screen,2_1_1_1_32,2022-05-09T20:31:40.162Z,,,,,,,,,,,,,,,,,54,,,,,,,,,,,,,,905.7689999999711,,response,,,,100,,,,,,,Space,keypress(Space),,,,,,,,-- --- ---- --- ------ ----- ------- ---- -- --- ------- --<br>------- ---------- ------ -- ----- -- ----- -- ---- ------<br>--- ----- --- --- ------ -------- ----- --- ------ ----- of<br>----- ----- ---------- --- --- ------ ------ ---- -- ------<br>------- --- ------ ----- --- ---- ------- -- ---- --- --<br>------- ------,283628.8000000119,283628,282705.596,282708.10000002384,282722.231,283638.856,,32,of
screen,html.Screen,2_1_1_1_33,2022-05-09T20:31:40.752Z,,,,,,,,,,,,,,,,,54,,,,,,,,,,,,,,579.6439999999711,,response,,,,100,,,,,,,Space,keypress(Space),,,,,,,,-- --- ---- --- ------ ----- ------- ---- -- --- ------- --<br>------- ---------- ------ -- ----- -- ----- -- ---- ------<br>--- ----- --- --- ------ -------- ----- --- ------ ----- --<br>these ----- ---------- --- --- ------ ------ ---- -- ------<br>------- --- ------ ----- --- ---- ------- -- ---- --- --<br>------- ------,284219.3000000119,284218.5,283622.179,283629,283638.856,284222.228,,33,these
screen,html.Screen,2_1_1_1_34,2022-05-09T20:31:41.145Z,,,,,,,,,,,,,,,,,54,,,,,,,,,,,,,,389.17200003576,,response,,,,100,,,,,,,Space,keypress(Space),,,,,,,,-- --- ---- --- ------ ----- ------- ---- -- --- ------- --<br>------- ---------- ------ -- ----- -- ----- -- ---- ------<br>--- ----- --- --- ------ -------- ----- --- ------ ----- --<br>----- bonds ---------- --- --- ------ ------ ---- -- ------<br>------- --- ------ ----- --- ---- ------- -- ---- --- --<br>------- ------,284612.3000000119,284611.40000003576,284205.474,284219.5,284222.228,284622.114,,34,bonds
screen,html.Screen,2_1_1_1_35,2022-05-09T20:31:42.609Z,,,,,,,,,,,,,,,,,54,,,,,,,,,,,,,,1452.8859999999986,,response,,,,100,,,,,,,Space,keypress(Space),,,,,,,,"-- --- ---- --- ------ ----- ------- ---- -- --- ------- --<br>------- ---------- ------ -- ----- -- ----- -- ---- ------<br>--- ----- --- --- ------ -------- ----- --- ------ ----- --<br>----- ----- plummeted, --- --- ------ ------ ---- -- ------<br>------- --- ------ ----- --- ---- ------- -- ---- --- --<br>------- ------",286076,286075,284605.478,284613.40000003576,284622.114,286088.685,,35,"plummeted,"
screen,html.Screen,2_1_1_1_36,2022-05-09T20:31:43.196Z,,,,,,,,,,,,,,,,,54,,,,,,,,,,,,,,573.4150000238442,,response,,,,100,,,,,,,Space,keypress(Space),,,,,,,,-- --- ---- --- ------ ----- ------- ---- -- --- ------- --<br>------- ---------- ------ -- ----- -- ----- -- ---- ------<br>--- ----- --- --- ------ -------- ----- --- ------ ----- --<br>----- ----- ---------- and --- ------ ------ ---- -- ------<br>------- --- ------ ----- --- ---- ------- -- ---- --- --<br>------- ------,286663,286662.10000002384,286072.072,286076.1999999881,286088.685,286671.967,,36,and
screen,html.Screen,2_1_1_1_37,2022-05-09T20:31:43.587Z,,,,,,,,,,,,,,,,,54,,,,,,,,,,,,,,381.7329999880749,,response,,,,100,,,,,,,Space,keypress(Space),,,,,,,,-- --- ---- --- ------ ----- ------- ---- -- --- ------- --<br>------- ---------- ------ -- ----- -- ----- -- ---- ------<br>--- ----- --- --- ------ -------- ----- --- ------ ----- --<br>----- ----- ---------- --- the ------ ------ ---- -- ------<br>------- --- ------ ----- --- ---- ------- -- ---- --- --<br>------- ------,287054.60000002384,287053.6999999881,286655.318,286663.10000002384,286671.967,287071.957,,37,the
screen,html.Screen,2_1_1_1_38,2022-05-09T20:31:43.878Z,,,,,,,,,,,,,,,,,54,,,,,,,,,,,,,,272.7429999880842,,response,,,,100,,,,,,,Space,keypress(Space),,,,,,,,-- --- ---- --- ------ ----- ------- ---- -- --- ------- --<br>------- ---------- ------ -- ----- -- ----- -- ---- ------<br>--- ----- --- --- ------ -------- ----- --- ------ ----- --<br>----- ----- ---------- --- --- market ------ ---- -- ------<br>------- --- ------ ----- --- ---- ------- -- ---- --- --<br>------- ------,287345.5,287344.6999999881,287055.281,287054.8000000119,287071.957,287355.254,,38,market
screen,html.Screen,2_1_1_1_39,2022-05-09T20:31:44.232Z,,,,,,,,,,,,,,,,,54,,,,,,,,,,,,,,343.3460000238265,,response,,,,100,,,,,,,Space,keypress(Space),,,,,,,,-- --- ---- --- ------ ----- ------- ---- -- --- ------- --<br>------- ---------- ------ -- ----- -- ----- -- ---- ------<br>--- ----- --- --- ------ -------- ----- --- ------ ----- --<br>----- ----- ---------- --- --- ------ became ---- -- ------<br>------- --- ------ ----- --- ---- ------- -- ---- --- --<br>------- ------,287699.40000003576,287698.60000002384,287338.645,287345.6999999881,287355.254,287705.259,,39,became
screen,html.Screen,2_1_1_1_40,2022-05-09T20:31:44.560Z,,,,,,,,,,,,,,,,,54,,,,,,,,,,,,,,321.5410000119009,,response,,,,100,,,,,,,Space,keypress(Space),,,,,,,,-- --- ---- --- ------ ----- ------- ---- -- --- ------- --<br>------- ---------- ------ -- ----- -- ----- -- ---- ------<br>--- ----- --- --- ------ -------- ----- --- ------ ----- --<br>----- ----- ---------- --- --- ------ ------ wary -- ------<br>------- --- ------ ----- --- ---- ------- -- ---- --- --<br>------- ------,288027.6999999881,288026.8000000119,287688.58,287699.5,287705.259,288038.554,,40,wary
screen,html.Screen,2_1_1_1_41,2022-05-09T20:31:44.812Z,,,,,,,,,,,,,,,,,54,,,,,,,,,,,,,,239.7460000119172,,response,,,,100,,,,,,,Space,keypress(Space),,,,,,,,-- --- ---- --- ------ ----- ------- ---- -- --- ------- --<br>------- ---------- ------ -- ----- -- ----- -- ---- ------<br>--- ----- --- --- ------ -------- ----- --- ------ ----- --<br>----- ----- ---------- --- --- ------ ------ ---- of ------<br>------- --- ------ ----- --- ---- ------- -- ---- --- --<br>------- ------,288279.10000002384,288278.3000000119,288021.87,288027.8000000119,288038.554,288288.542,,41,of
screen,html.Screen,2_1_1_1_42,2022-05-09T20:31:45.019Z,,,,,,,,,,,,,,,,,54,,,,,,,,,,,,,,197.35800003574695,,response,,,,100,,,,,,,Space,keypress(Space),,,,,,,,-- --- ---- --- ------ ----- ------- ---- -- --- ------- --<br>------- ---------- ------ -- ----- -- ----- -- ---- ------<br>--- ----- --- --- ------ -------- ----- --- ------ ----- --<br>----- ----- ---------- --- --- ------ ------ ---- -- French<br>------- --- ------ ----- --- ---- ------- -- ---- --- --<br>------- ------,288486.60000002384,288485.90000003576,288271.906,288279.3000000119,288288.542,288488.559,,42,French
screen,html.Screen,2_1_1_1_43,2022-05-09T20:31:45.441Z,,,,,,,,,,,,,,,,,54,,,,,,,,,,,,,,418.4409999999916,,response,,,,100,,,,,,,Space,keypress(Space),,,,,,,,-- --- ---- --- ------ ----- ------- ---- -- --- ------- --<br>------- ---------- ------ -- ----- -- ----- -- ---- ------<br>--- ----- --- --- ------ -------- ----- --- ------ ----- --<br>----- ----- ---------- --- --- ------ ------ ---- -- ------<br>credit. --- ------ ----- --- ---- ------- -- ---- --- --<br>------- ------,288907.8000000119,288907,288471.842,288486.8000000119,288488.559,288921.851,,43,credit.
screen,html.Screen,2_1_1_1_44,2022-05-09T20:31:45.780Z,,,,,,,,,,,,,,,,,54,,,,,,,,,,,,,,324.5490000357386,,response,,,,100,,,,,,,Space,keypress(Space),,,,,,,,-- --- ---- --- ------ ----- ------- ---- -- --- ------- --<br>------- ---------- ------ -- ----- -- ----- -- ---- ------<br>--- ----- --- --- ------ -------- ----- --- ------ ----- --<br>----- ----- ---------- --- --- ------ ------ ---- -- ------<br>------- The ------ ----- --- ---- ------- -- ---- --- --<br>------- ------,289247.1999999881,289246.40000003576,288905.157,288907.90000003576,288921.851,289255.122,,44,The
screen,html.Screen,2_1_1_1_45,2022-05-09T20:31:46.041Z,,,,,,,,,,,,,,,,,54,,,,,,,,,,,,,,252.57799998810515,,response,,,,100,,,,,,,Space,keypress(Space),,,,,,,,-- --- ---- --- ------ ----- ------- ---- -- --- ------- --<br>------- ---------- ------ -- ----- -- ----- -- ---- ------<br>--- ----- --- --- ------ -------- ----- --- ------ ----- --<br>----- ----- ---------- --- --- ------ ------ ---- -- ------<br>------- --- French ----- --- ---- ------- -- ---- --- --<br>------- ------,289508.5,289507.6999999881,289238.487,289247.40000003576,289255.122,289521.78,,45,French
screen,html.Screen,2_1_1_1_46,2022-05-09T20:31:46.246Z,,,,,,,,,,,,,,,,,54,,,,,,,,,,,,,,190.41999998805113,,response,,,,100,,,,,,,Space,keypress(Space),,,,,,,,-- --- ---- --- ------ ----- ------- ---- -- --- ------- --<br>------- ---------- ------ -- ----- -- ----- -- ---- ------<br>--- ----- --- --- ------ -------- ----- --- ------ ----- --<br>----- ----- ---------- --- --- ------ ------ ---- -- ------<br>------- --- ------ state --- ---- ------- -- ---- --- --<br>------- ------,289713.10000002384,289712.1999999881,289505.152,289508.6999999881,289521.78,289721.761,,46,state
screen,html.Screen,2_1_1_1_47,2022-05-09T20:31:46.600Z,,,,,,,,,,,,,,,,,54,,,,,,,,,,,,,,344.2390000000014,,response,,,,100,,,,,,,Space,keypress(Space),,,,,,,,-- --- ---- --- ------ ----- ------- ---- -- --- ------- --<br>------- ---------- ------ -- ----- -- ----- -- ---- ------<br>--- ----- --- --- ------ -------- ----- --- ------ ----- --<br>----- ----- ---------- --- --- ------ ------ ---- -- ------<br>------- --- ------ ----- was ---- ------- -- ---- --- --<br>------- ------,290066.90000003576,290066,289705.188,289713.3000000119,289721.761,290071.778,,47,was
screen,html.Screen,2_1_1_1_48,2022-05-09T20:31:47.182Z,,,,,,,,,,,,,,,,,54,,,,,,,,,,,,,,576.4219999880879,,response,,,,100,,,,,,,Space,keypress(Space),,,,,,,,-- --- ---- --- ------ ----- ------- ---- -- --- ------- --<br>------- ---------- ------ -- ----- -- ----- -- ---- ------<br>--- ----- --- --- ------ -------- ----- --- ------ ----- --<br>----- ----- ---------- --- --- ------ ------ ---- -- ------<br>------- --- ------ ----- --- left ------- -- ---- --- --<br>------- ------,290649,290648.1999999881,290055.069,290067.10000002384,290071.778,290655.064,,48,left
screen,html.Screen,2_1_1_1_49,2022-05-09T20:31:47.477Z,,,,,,,,,,,,,,,,,54,,,,,,,,,,,,,,288.43599999998696,,response,,,,100,,,,,,,Space,keypress(Space),,,,,,,,-- --- ---- --- ------ ----- ------- ---- -- --- ------- --<br>------- ---------- ------ -- ----- -- ----- -- ---- ------<br>--- ----- --- --- ------ -------- ----- --- ------ ----- --<br>----- ----- ---------- --- --- ------ ------ ---- -- ------<br>------- --- ------ ----- --- ---- without -- ---- --- --<br>------- ------,290944.40000003576,290943.5,290638.411,290649.10000002384,290655.064,290955.009,,49,without
screen,html.Screen,2_1_1_1_50,2022-05-09T20:31:47.703Z,,,,,,,,,,,,,,,,,54,,,,,,,,,,,,,,214.89100003574276,,response,,,,100,,,,,,,Space,keypress(Space),,,,,,,,-- --- ---- --- ------ ----- ------- ---- -- --- ------- --<br>------- ---------- ------ -- ----- -- ----- -- ---- ------<br>--- ----- --- --- ------ -------- ----- --- ------ ----- --<br>----- ----- ---------- --- --- ------ ------ ---- -- ------<br>------- --- ------ ----- --- ---- ------- an ---- --- --<br>------- ------,291170.6999999881,291169.90000003576,290938.358,290944.5,290955.009,291205.011,,50,an
screen,html.Screen,2_1_1_1_51,2022-05-09T20:31:47.892Z,,,,,,,,,,,,,,,,,54,,,,,,,,,,,,,,153.4890000000014,,response,,,,100,,,,,,,Space,keypress(Space),,,,,,,,-- --- ---- --- ------ ----- ------- ---- -- --- ------- --<br>------- ---------- ------ -- ----- -- ----- -- ---- ------<br>--- ----- --- --- ------ -------- ----- --- ------ ----- --<br>----- ----- ---------- --- --- ------ ------ ---- -- ------<br>------- --- ------ ----- --- ---- ------- -- easy --- --<br>------- ------,291359.3000000119,291358.5,291188.378,291170.90000003576,291205.011,291371.655,,51,easy
screen,html.Screen,2_1_1_1_52,2022-05-09T20:31:48.413Z,,,,,,,,,,,,,,,,,54,,,,,,,,,,,,,,507.54499998805113,,response,,,,100,,,,,,,Space,keypress(Space),,,,,,,,-- --- ---- --- ------ ----- ------- ---- -- --- ------- --<br>------- ---------- ------ -- ----- -- ----- -- ---- ------<br>--- ----- --- --- ------ -------- ----- --- ------ ----- --<br>----- ----- ---------- --- --- ------ ------ ---- -- ------<br>------- --- ------ ----- --- ---- ------- -- ---- way --<br>------- ------,291879.90000003576,291879.1999999881,291355.058,291359.5,291371.655,291888.276,,52,way
screen,html.Screen,2_1_1_1_53,2022-05-09T20:31:48.737Z,,,,,,,,,,,,,,,,,54,,,,,,,,,,,,,,314.8240000238293,,response,,,,100,,,,,,,Space,keypress(Space),,,,,,,,-- --- ---- --- ------ ----- ------- ---- -- --- ------- --<br>------- ---------- ------ -- ----- -- ----- -- ---- ------<br>--- ----- --- --- ------ -------- ----- --- ------ ----- --<br>----- ----- ---------- --- --- ------ ------ ---- -- ------<br>------- --- ------ ----- --- ---- ------- -- ---- --- of<br>------- ------,292203.8000000119,292203.10000002384,291871.614,291880.10000002384,291888.276,292234.375,,53,of
screen,html.Screen,2_1_1_1_54,2022-05-09T20:31:49.137Z,,,,,,,,,,,,,,,,,54,,,,,,,,,,,,,,368.72500002384186,,response,,,,100,,,,,,,Space,keypress(Space),,,,,,,,-- --- ---- --- ------ ----- ------- ---- -- --- ------- --<br>------- ---------- ------ -- ----- -- ----- -- ---- ------<br>--- ----- --- --- ------ -------- ----- --- ------ ----- --<br>----- ----- ---------- --- --- ------ ------ ---- -- ------<br>------- --- ------ ----- --- ---- ------- -- ---- --- --<br>raising ------,292604,292603.10000002384,292188.256,292204,292234.375,292621.647,,54,raising
screen,html.Screen,2_1_1_1_55,2022-05-09T20:31:50.621Z,,,,,,,,,,,,,,,,,54,,,,,,,,,,,,,,1465.7530000357656,,response,,,,100,,,,,,,Space,keypress(Space),,,,,,,,-- --- ---- --- ------ ----- ------- ---- -- --- ------- --<br>------- ---------- ------ -- ----- -- ----- -- ---- ------<br>--- ----- --- --- ------ -------- ----- --- ------ ----- --<br>----- ----- ---------- --- --- ------ ------ ---- -- ------<br>------- --- ------ ----- --- ---- ------- -- ---- --- --<br>------- money.,294088.3000000119,294087.40000003576,292588.822,292604.1999999881,292621.647,294104.764,,55,money.
Item 100,flow.Loop,2_1_1_1,2022-05-09T20:31:50.621Z,,,,,,,,,,,,,,,,,,,,,,,,,,,,,,,27680.707000035734,,completion,,,,,G,,,,,,,,,,,silence,,,,,294088.60000002384,294087.40000003576,266390.535,266391.40000003576,266406.693,294104.764,,,
Question 1,html.Screen,2_1_1_2,2022-05-09T20:31:54.025Z,,,,,,,,,,,,,,,,,,,,,,,,,,,,true,TRUE,,3386.636000035738,,response,,,,100,G,,,,,,TRUE,click #choice-1,,,,silence,,,,,297492.3000000119,297491.40000003576,294088.176,294088.8000000119,294104.764,297504.59,,,
Question 2,html.Screen,2_1_1_3,2022-05-09T20:31:56.911Z,,,,,,,,,,,,,,,,,,,,,,,,,,,,true,FALSE,,2871.810000035737,,response,,,,100,G,,,,,,FALSE,click #choice-2,,,,silence,,,,,300377.6999999881,300376.40000003576,297487.91,297492.5,297504.59,300387.66,,,
Item 100,flow.Sequence,2_1_1,2022-05-09T20:31:56.911Z,,,,,,,,,,,,,,,,,,,,,,,,,,,,,,,43968.86400003577,,completion,,,,,,,,,,,,,,,,,,,,,300378,300376.40000003576,256390.768,256402.19999998808,256407.536,300387.66,,,
End of Practice,html.Page,2_1_2,2022-05-09T20:32:03.566Z,,,,,,,,,,,,,,,,,,,,,,,,,,,,,,,6644.840000000026,,form submission,,,,,,,,,,,,,,,,,,,,,307032.8000000119,307032.5,300371.051,300378.10000002384,300387.66,307037.351,,,
Practice,flow.Sequence,2_1,2022-05-09T20:32:03.566Z,,,,,,,,,,,,,,,,,,,,,,,,,,,,,,,116887.041,,completion,,,,,,,,,,,,,,,,,,,,,307033,307032.5,190112.041,190138.40000003576,190145.459,307037.351,,,
Trap_instruction,html.Page,2_2_0,2022-05-09T20:32:09.251Z,,,,,,,,,,,,,,,,,,,,,,,,,,,,,,,5680.348999988055,,form submission,,,,,,,,,,,,,,,,,,,,,312718,312717.6999999881,307020.59,307033.1999999881,307037.351,312736.887,,,
trap_trial,html.Screen,2_2_1,2022-05-09T20:32:14.543Z,,,,,,,,,,,,,,,,,,,,,,,,,,,,true,1,,5271.913000011933,,response,,,,,,,,,,,1,click #choice-1,,,,,,,,,318010.3000000119,318008.8000000119,312703.493,312718.1999999881,312736.887,318020.369,,,
end of trap trial,html.Page,2_2_2,2022-05-09T20:32:17.972Z,,,,,,,,,,,,,,,,,,,,,,,,,,,,,,,3418.830999988073,,form submission,,,,,,,,,,,,,,,,,,,,,321439.5,321439.1999999881,318003.21,318010.40000003576,318020.369,321452.935,,,
Trap 1,flow.Sequence,2_2,2022-05-09T20:32:17.973Z,,,,,,,,,,,,,,,,,,,,,,,,,,,,,,,14401.848999988055,,completion,,,,,,,,,,,,,,,,,,,,,321439.8000000119,321439.1999999881,307020.59,307033.1999999881,307037.351,321452.935,,,
Standby,html.Page,2_3_0,2022-05-09T20:32:25.969Z,,,,,,,,,,,,,,,,,,,,,,,,,,,,,,,7999.396000000008,,timeout,,,,,,,,,,,,,,,,,,,,,329436.3000000119,329435.686,321436.26,321440,321452.935,329452.331,,,
Holding screen,html.Screen,2_3_1_0_0,2022-05-09T20:32:32.969Z,,,,,,,,,,,,,,,,,,,,,,,,,,,,,,,6999.483000000007,,timeout,,,,,,,,,,,,,,,,,,,,,336436.60000002384,336435.654,329435.686,329436.5,329452.331,336451.814,,,
screen,html.Screen,2_3_1_0_1_0,2022-05-09T20:32:34.520Z,,,,,,,,,,,,,,,,,2,,,,,,,,,,,,,,1533.885999988066,,response,,,,1,G,,,,,,Space,keypress(Space),,,,instrumental,,,,Two ---- ------ --- ------- ---------- ------- ----------<br>--- --------- --- ----------- ------- ----- ------- ---<br>--------- ---- -- --- ---- -- --------- -- ---- -------<br>-- --------- ------ --- ----- ------ ---- --- --------- --<br>------ - ---- -- --- ----------- ------- ---- ----- -----<br>--- -------- - ------ ---- -- ----- ---- --- --- -----------<br>-- -------,337986.90000003576,337985.6999999881,336435.654,336436.8000000119,336451.814,338001.703,,0,Two
screen,html.Screen,2_3_1_0_1_1,2022-05-09T20:32:34.926Z,,,,,,,,,,,,,,,,,2,,,,,,,,,,,,,,390.6970000357833,,response,,,,1,G,,,,,,Space,keypress(Space),,,,instrumental,,,,--- days ------ --- ------- ---------- ------- ----------<br>--- --------- --- ----------- ------- ----- ------- ---<br>--------- ---- -- --- ---- -- --------- -- ---- -------<br>-- --------- ------ --- ----- ------ ---- --- --------- --<br>------ - ---- -- --- ----------- ------- ---- ----- -----<br>--- -------- - ------ ---- -- ----- ---- --- --- -----------<br>-- -------,338393.10000002384,338392.40000003576,337985.212,337987.10000002384,338001.703,338401.666,,1,days
screen,html.Screen,2_3_1_0_1_2,2022-05-09T20:32:35.322Z,,,,,,,,,,,,,,,,,2,,,,,,,,,,,,,,386.4340000238153,,response,,,,1,G,,,,,,Space,keypress(Space),,,,instrumental,,,,"--- ---- later, --- ------- ---------- ------- ----------<br>--- --------- --- ----------- ------- ----- ------- ---<br>--------- ---- -- --- ---- -- --------- -- ---- -------<br>-- --------- ------ --- ----- ------ ---- --- --------- --<br>------ - ---- -- --- ----------- ------- ---- ----- -----<br>--- -------- - ------ ---- -- ----- ---- --- --- -----------<br>-- -------",338788.90000003576,338788.10000002384,338385.179,338393.3000000119,338401.666,338801.685,,2,"later,"
screen,html.Screen,2_3_1_0_1_3,2022-05-09T20:32:35.767Z,,,,,,,,,,,,,,,,,2,,,,,,,,,,,,,,431.4150000238442,,response,,,,1,G,,,,,,Space,keypress(Space),,,,instrumental,,,,--- ---- ------ the ------- ---------- ------- ----------<br>--- --------- --- ----------- ------- ----- ------- ---<br>--------- ---- -- --- ---- -- --------- -- ---- -------<br>-- --------- ------ --- ----- ------ ---- --- --------- --<br>------ - ---- -- --- ----------- ------- ---- ----- -----<br>--- -------- - ------ ---- -- ----- ---- --- --- -----------<br>-- -------,339233.90000003576,339233.10000002384,338785.047,338789.10000002384,338801.685,339251.669,,3,the
screen,html.Screen,2_3_1_0_1_4,2022-05-09T20:32:36.087Z,,,,,,,,,,,,,,,,,2,,,,,,,,,,,,,,302.1310000119265,,response,,,,1,G,,,,,,Space,keypress(Space),,,,instrumental,,,,--- ---- ------ --- British ---------- ------- ----------<br>--- --------- --- ----------- ------- ----- ------- ---<br>--------- ---- -- --- ---- -- --------- -- ---- -------<br>-- --------- ------ --- ----- ------ ---- --- --------- --<br>------ - ---- -- --- ----------- ------- ---- ----- -----<br>--- -------- - ------ ---- -- ----- ---- --- --- -----------<br>-- -------,339554.5,339553.8000000119,339218.355,339234.10000002384,339251.669,339568.275,,4,British
screen,html.Screen,2_3_1_0_1_5,2022-05-09T20:32:36.520Z,,,,,,,,,,,,,,,,,2,,,,,,,,,,,,,,417.8250000238186,,response,,,,1,G,,,,,,Space,keypress(Space),,,,instrumental,,,,--- ---- ------ --- ------- astronomer ------- ----------<br>--- --------- --- ----------- ------- ----- ------- ---<br>--------- ---- -- --- ---- -- --------- -- ---- -------<br>-- --------- ------ --- ----- ------ ---- --- --------- --<br>------ - ---- -- --- ----------- ------- ---- ----- -----<br>--- -------- - ------ ---- -- ----- ---- --- --- -----------<br>-- -------,339987,339986.10000002384,339551.663,339554.6999999881,339568.275,340001.576,,5,astronomer
screen,html.Screen,2_3_1_0_1_6,2022-05-09T20:32:36.908Z,,,,,,,,,,,,,,,,,2,,,,,,,,,,,,,,372.42399999999907,,response,,,,1,G,,,,,,Space,keypress(Space),,,,instrumental,,,,--- ---- ------ --- ------- ---------- Richard ----------<br>--- --------- --- ----------- ------- ----- ------- ---<br>--------- ---- -- --- ---- -- --------- -- ---- -------<br>-- --------- ------ --- ----- ------ ---- --- --------- --<br>------ - ---- -- --- ----------- ------- ---- ----- -----<br>--- -------- - ------ ---- -- ----- ---- --- --- -----------<br>-- -------,340375,340374,339984.941,339987.1999999881,340001.576,340384.868,,6,Richard
screen,html.Screen,2_3_1_0_1_7,2022-05-09T20:32:37.359Z,,,,,,,,,,,,,,,,,2,,,,,,,,,,,,,,440.43200001190417,,response,,,,1,G,,,,,,Space,keypress(Space),,,,instrumental,,,,--- ---- ------ --- ------- ---------- ------- Carrington<br>--- --------- --- ----------- ------- ----- ------- ---<br>--------- ---- -- --- ---- -- --------- -- ---- -------<br>-- --------- ------ --- ----- ------ ---- --- --------- --<br>------ - ---- -- --- ----------- ------- ---- ----- -----<br>--- -------- - ------ ---- -- ----- ---- --- --- -----------<br>-- -------,340826.10000002384,340825.3000000119,340368.261,340375.10000002384,340384.868,340834.862,,7,Carrington
screen,html.Screen,2_3_1_0_1_8,2022-05-09T20:32:37.860Z,,,,,,,,,,,,,,,,,2,,,,,,,,,,,,,,491.53800003573997,,response,,,,1,G,,,,,,Space,keypress(Space),,,,instrumental,,,,--- ---- ------ --- ------- ---------- ------- ----------<br>was --------- --- ----------- ------- ----- ------- ---<br>--------- ---- -- --- ---- -- --------- -- ---- -------<br>-- --------- ------ --- ----- ------ ---- --- --------- --<br>------ - ---- -- --- ----------- ------- ---- ----- -----<br>--- -------- - ------ ---- -- ----- ---- --- --- -----------<br>-- -------,341327.40000003576,341326.40000003576,340818.219,340826.3000000119,340834.862,341334.8,,8,was
screen,html.Screen,2_3_1_0_1_9,2022-05-09T20:32:38.366Z,,,,,,,,,,,,,,,,,2,,,,,,,,,,,,,,497.70000000001164,,response,,,,1,G,,,,,,Space,keypress(Space),,,,instrumental,,,,--- ---- ------ --- ------- ---------- ------- ----------<br>--- observing --- ----------- ------- ----- ------- ---<br>--------- ---- -- --- ---- -- --------- -- ---- -------<br>-- --------- ------ --- ----- ------ ---- --- --------- --<br>------ - ---- -- --- ----------- ------- ---- ----- -----<br>--- -------- - ------ ---- -- ----- ---- --- --- -----------<br>-- -------,341833.1999999881,341832.5,341318.189,341327.60000002384,341334.8,341859.233,,9,observing
screen,html.Screen,2_3_1_0_1_10,2022-05-09T20:32:38.680Z,,,,,,,,,,,,,,,,,2,,,,,,,,,,,,,,286.9669999880716,,response,,,,1,G,,,,,,Space,keypress(Space),,,,instrumental,,,,--- ---- ------ --- ------- ---------- ------- ----------<br>--- --------- the ----------- ------- ----- ------- ---<br>--------- ---- -- --- ---- -- --------- -- ---- -------<br>-- --------- ------ --- ----- ------ ---- --- --------- --<br>------ - ---- -- --- ----------- ------- ---- ----- -----<br>--- -------- - ------ ---- -- ----- ---- --- --- -----------<br>-- -------,342147,342146.1999999881,341818.191,341833.40000003576,341859.233,342151.423,,10,the
screen,html.Screen,2_3_1_0_1_11,2022-05-09T20:32:38.905Z,,,,,,,,,,,,,,,,,2,,,,,,,,,,,,,,220.477000035753,,response,,,,1,G,,,,,,Space,keypress(Space),,,,instrumental,,,,--- ---- ------ --- ------- ---------- ------- ----------<br>--- --------- --- interesting ------- ----- ------- ---<br>--------- ---- -- --- ---- -- --------- -- ---- -------<br>-- --------- ------ --- ----- ------ ---- --- --------- --<br>------ - ---- -- --- ----------- ------- ---- ----- -----<br>--- -------- - ------ ---- -- ----- ---- --- --- -----------<br>-- -------,342372.6999999881,342371.90000003576,342134.808,342147.1999999881,342151.423,342384.835,,11,interesting
screen,html.Screen,2_3_1_0_1_12,2022-05-09T20:32:39.237Z,,,,,,,,,,,,,,,,,2,,,,,,,,,,,,,,318.8649999880581,,response,,,,1,G,,,,,,Space,keypress(Space),,,,instrumental,,,,--- ---- ------ --- ------- ---------- ------- ----------<br>--- --------- --- ----------- sunspot ----- ------- ---<br>--------- ---- -- --- ---- -- --------- -- ---- -------<br>-- --------- ------ --- ----- ------ ---- --- --------- --<br>------ - ---- -- --- ----------- ------- ---- ----- -----<br>--- -------- - ------ ---- -- ----- ---- --- --- -----------<br>-- -------,342704.40000003576,342703.6999999881,342368.103,342372.8000000119,342384.835,342718.049,,12,sunspot
screen,html.Screen,2_3_1_0_1_13,2022-05-09T20:32:41.333Z,,,,,,,,,,,,,,,,,2,,,,,,,,,,,,,,2081.451000000001,,response,,,,1,G,,,,,,Space,keypress(Space),,,,instrumental,,,,--- ---- ------ --- ------- ---------- ------- ----------<br>--- --------- --- ----------- ------- group ------- ---<br>--------- ---- -- --- ---- -- --------- -- ---- -------<br>-- --------- ------ --- ----- ------ ---- --- --------- --<br>------ - ---- -- --- ----------- ------- ---- ----- -----<br>--- -------- - ------ ---- -- ----- ---- --- --- -----------<br>-- -------,344800.5,344799.5,342701.411,342704.60000002384,342718.049,344817.904,,13,group
screen,html.Screen,2_3_1_0_1_14,2022-05-09T20:32:41.788Z,,,,,,,,,,,,,,,,,2,,,,,,,,,,,,,,436.49600003578234,,response,,,,1,G,,,,,,Space,keypress(Space),,,,instrumental,,,,--- ---- ------ --- ------- ---------- ------- ----------<br>--- --------- --- ----------- ------- ----- through ---<br>--------- ---- -- --- ---- -- --------- -- ---- -------<br>-- --------- ------ --- ----- ------ ---- --- --------- --<br>------ - ---- -- --- ----------- ------- ---- ----- -----<br>--- -------- - ------ ---- -- ----- ---- --- --- -----------<br>-- -------,345255.3000000119,345254.40000003576,344801.292,344800.6999999881,344817.904,345267.911,,14,through
screen,html.Screen,2_3_1_0_1_15,2022-05-09T20:32:42.342Z,,,,,,,,,,,,,,,,,2,,,,,,,,,,,,,,540.889000011899,,response,,,,1,G,,,,,,Space,keypress(Space),,,,instrumental,,,,--- ---- ------ --- ------- ---------- ------- ----------<br>--- --------- --- ----------- ------- ----- ------- his<br>--------- ---- -- --- ---- -- --------- -- ---- -------<br>-- --------- ------ --- ----- ------ ---- --- --------- --<br>------ - ---- -- --- ----------- ------- ---- ----- -----<br>--- -------- - ------ ---- -- ----- ---- --- --- -----------<br>-- -------,345809.60000002384,345808.8000000119,345251.229,345255.40000003576,345267.911,345817.825,,15,his
screen,html.Screen,2_3_1_0_1_16,2022-05-09T20:32:44.253Z,,,,,,,,,,,,,,,,,2,,,,,,,,,,,,,,1900.8749999880674,,response,,,,1,G,,,,,,Space,keypress(Space),,,,instrumental,,,,--- ---- ------ --- ------- ---------- ------- ----------<br>--- --------- --- ----------- ------- ----- ------- ---<br>telescope ---- -- --- ---- -- --------- -- ---- -------<br>-- --------- ------ --- ----- ------ ---- --- --------- --<br>------ - ---- -- --- ----------- ------- ---- ----- -----<br>--- -------- - ------ ---- -- ----- ---- --- --- -----------<br>-- -------,347719.8000000119,347718.6999999881,345801.266,345809.6999999881,345817.825,347734.401,,16,telescope
screen,html.Screen,2_3_1_0_1_17,2022-05-09T20:32:44.660Z,,,,,,,,,,,,,,,,,2,,,,,,,,,,,,,,391.6990000238293,,response,,,,1,G,,,,,,Space,keypress(Space),,,,instrumental,,,,--- ---- ------ --- ------- ---------- ------- ----------<br>--- --------- --- ----------- ------- ----- ------- ---<br>--------- when -- --- ---- -- --------- -- ---- -------<br>-- --------- ------ --- ----- ------ ---- --- --------- --<br>------ - ---- -- --- ----------- ------- ---- ----- -----<br>--- -------- - ------ ---- -- ----- ---- --- --- -----------<br>-- -------,348127.10000002384,348126.10000002384,347717.793,347720,347734.401,348134.338,,17,when
screen,html.Screen,2_3_1_0_1_18,2022-05-09T20:32:45.034Z,,,,,,,,,,,,,,,,,2,,,,,,,,,,,,,,366.56200003577396,,response,,,,1,G,,,,,,Space,keypress(Space),,,,instrumental,,,,--- ---- ------ --- ------- ---------- ------- ----------<br>--- --------- --- ----------- ------- ----- ------- ---<br>--------- ---- he --- ---- -- --------- -- ---- -------<br>-- --------- ------ --- ----- ------ ---- --- --------- --<br>------ - ---- -- --- ----------- ------- ---- ----- -----<br>--- -------- - ------ ---- -- ----- ---- --- --- -----------<br>-- -------,348501.6999999881,348500.90000003576,348117.713,348127.3000000119,348134.338,348517.698,,18,he
screen,html.Screen,2_3_1_0_1_19,2022-05-09T20:32:45.360Z,,,,,,,,,,,,,,,,,2,,,,,,,,,,,,,,308.80200000002515,,response,,,,1,G,,,,,,Space,keypress(Space),,,,instrumental,,,,--- ---- ------ --- ------- ---------- ------- ----------<br>--- --------- --- ----------- ------- ----- ------- ---<br>--------- ---- -- saw ---- -- --------- -- ---- -------<br>-- --------- ------ --- ----- ------ ---- --- --------- --<br>------ - ---- -- --- ----------- ------- ---- ----- -----<br>--- -------- - ------ ---- -- ----- ---- --- --- -----------<br>-- -------,348827.3000000119,348826.5,348501.017,348502,348517.698,348834.283,,19,saw
screen,html.Screen,2_3_1_0_1_20,2022-05-09T20:32:45.744Z,,,,,,,,,,,,,,,,,2,,,,,,,,,,,,,,375.7170000000042,,response,,,,1,G,,,,,,Space,keypress(Space),,,,instrumental,,,,--- ---- ------ --- ------- ---------- ------- ----------<br>--- --------- --- ----------- ------- ----- ------- ---<br>--------- ---- -- --- what -- --------- -- ---- -------<br>-- --------- ------ --- ----- ------ ---- --- --------- --<br>------ - ---- -- --- ----------- ------- ---- ----- -----<br>--- -------- - ------ ---- -- ----- ---- --- --- -----------<br>-- -------,349210.90000003576,349210,348817.658,348827.40000003576,348834.283,349217.684,,20,what
screen,html.Screen,2_3_1_0_1_21,2022-05-09T20:32:46.179Z,,,,,,,,,,,,,,,,,2,,,,,,,,,,,,,,427.5159999880707,,response,,,,1,G,,,,,,Space,keypress(Space),,,,instrumental,,,,--- ---- ------ --- ------- ---------- ------- ----------<br>--- --------- --- ----------- ------- ----- ------- ---<br>--------- ---- -- --- ---- he --------- -- ---- -------<br>-- --------- ------ --- ----- ------ ---- --- --------- --<br>------ - ---- -- --- ----------- ------- ---- ----- -----<br>--- -------- - ------ ---- -- ----- ---- --- --- -----------<br>-- -------,349646,349645.1999999881,349201.524,349211.10000002384,349217.684,349650.949,,21,he
screen,html.Screen,2_3_1_0_1_22,2022-05-09T20:32:46.684Z,,,,,,,,,,,,,,,,,2,,,,,,,,,,,,,,499.8510000118986,,response,,,,1,G,,,,,,Space,keypress(Space),,,,instrumental,,,,--- ---- ------ --- ------- ---------- ------- ----------<br>--- --------- --- ----------- ------- ----- ------- ---<br>--------- ---- -- --- ---- -- described -- ---- -------<br>-- --------- ------ --- ----- ------ ---- --- --------- --<br>------ - ---- -- --- ----------- ------- ---- ----- -----<br>--- -------- - ------ ---- -- ----- ---- --- --- -----------<br>-- -------,350151.60000002384,350150.8000000119,349634.298,349646.1999999881,349650.949,350167.555,,22,described
screen,html.Screen,2_3_1_0_1_23,2022-05-09T20:32:47.074Z,,,,,,,,,,,,,,,,,2,,,,,,,,,,,,,,372.3450000357698,,response,,,,1,G,,,,,,Space,keypress(Space),,,,instrumental,,,,--- ---- ------ --- ------- ---------- ------- ----------<br>--- --------- --- ----------- ------- ----- ------- ---<br>--------- ---- -- --- ---- -- --------- as ---- -------<br>-- --------- ------ --- ----- ------ ---- --- --------- --<br>------ - ---- -- --- ----------- ------- ---- ----- -----<br>--- -------- - ------ ---- -- ----- ---- --- --- -----------<br>-- -------,350541.1999999881,350539.90000003576,350150.927,350151.90000003576,350167.555,350550.864,,23,as
screen,html.Screen,2_3_1_0_1_24,2022-05-09T20:32:47.452Z,,,,,,,,,,,,,,,,,2,,,,,,,,,,,,,,367.3359999880777,,response,,,,1,G,,,,,,Space,keypress(Space),,,,instrumental,,,,"--- ---- ------ --- ------- ---------- ------- ----------<br>--- --------- --- ----------- ------- ----- ------- ---<br>--------- ---- -- --- ---- -- --------- -- ""two -------<br>-- --------- ------ --- ----- ------ ---- --- --------- --<br>------ - ---- -- --- ----------- ------- ---- ----- -----<br>--- -------- - ------ ---- -- ----- ---- --- --- -----------<br>-- -------",350919.10000002384,350918.1999999881,350534.183,350541.40000003576,350550.864,350934.207,,24,"""two"
screen,html.Screen,2_3_1_0_1_25,2022-05-09T20:32:47.956Z,,,,,,,,,,,,,,,,,2,,,,,,,,,,,,,,488.6930000357679,,response,,,,1,G,,,,,,Space,keypress(Space),,,,instrumental,,,,--- ---- ------ --- ------- ---------- ------- ----------<br>--- --------- --- ----------- ------- ----- ------- ---<br>--------- ---- -- --- ---- -- --------- -- ---- patches<br>-- --------- ------ --- ----- ------ ---- --- --------- --<br>------ - ---- -- --- ----------- ------- ---- ----- -----<br>--- -------- - ------ ---- -- ----- ---- --- --- -----------<br>-- -------,351423.6999999881,351422.90000003576,350917.531,350919.3000000119,350934.207,351434.113,,25,patches
screen,html.Screen,2_3_1_0_1_26,2022-05-09T20:32:48.357Z,,,,,,,,,,,,,,,,,2,,,,,,,,,,,,,,389.6870000119088,,response,,,,1,G,,,,,,Space,keypress(Space),,,,instrumental,,,,--- ---- ------ --- ------- ---------- ------- ----------<br>--- --------- --- ----------- ------- ----- ------- ---<br>--------- ---- -- --- ---- -- --------- -- ---- -------<br>of --------- ------ --- ----- ------ ---- --- --------- --<br>------ - ---- -- --- ----------- ------- ---- ----- -----<br>--- -------- - ------ ---- -- ----- ---- --- --- -----------<br>-- -------,351824.60000002384,351823.8000000119,351417.492,351423.8000000119,351434.113,351834.062,,26,of
screen,html.Screen,2_3_1_0_1_27,2022-05-09T20:32:48.761Z,,,,,,,,,,,,,,,,,2,,,,,,,,,,,,,,393.7380000119447,,response,,,,1,G,,,,,,Space,keypress(Space),,,,instrumental,,,,--- ---- ------ --- ------- ---------- ------- ----------<br>--- --------- --- ----------- ------- ----- ------- ---<br>--------- ---- -- --- ---- -- --------- -- ---- -------<br>-- intensely ------ --- ----- ------ ---- --- --------- --<br>------ - ---- -- --- ----------- ------- ---- ----- -----<br>--- -------- - ------ ---- -- ----- ---- --- --- -----------<br>-- -------,352228.60000002384,352227.8000000119,351817.451,351824.6999999881,351834.062,352234.104,,27,intensely
screen,html.Screen,2_3_1_0_1_28,2022-05-09T20:32:49.201Z,,,,,,,,,,,,,,,,,2,,,,,,,,,,,,,,433.69600001192885,,response,,,,1,G,,,,,,Space,keypress(Space),,,,instrumental,,,,--- ---- ------ --- ------- ---------- ------- ----------<br>--- --------- --- ----------- ------- ----- ------- ---<br>--------- ---- -- --- ---- -- --------- -- ---- -------<br>-- --------- bright --- ----- ------ ---- --- --------- --<br>------ - ---- -- --- ----------- ------- ---- ----- -----<br>--- -------- - ------ ---- -- ----- ---- --- --- -----------<br>-- -------,352668.8000000119,352667.8000000119,352217.479,352228.8000000119,352234.104,352684.052,,28,bright
screen,html.Screen,2_3_1_0_1_29,2022-05-09T20:32:49.785Z,,,,,,,,,,,,,,,,,2,,,,,,,,,,,,,,567.4479999999749,,response,,,,1,G,,,,,,Space,keypress(Space),,,,instrumental,,,,--- ---- ------ --- ------- ---------- ------- ----------<br>--- --------- --- ----------- ------- ----- ------- ---<br>--------- ---- -- --- ---- -- --------- -- ---- -------<br>-- --------- ------ and ----- ------ ---- --- --------- --<br>------ - ---- -- --- ----------- ------- ---- ----- -----<br>--- -------- - ------ ---- -- ----- ---- --- --- -----------<br>-- -------,353252.1999999881,353251.5,352667.409,352668.90000003576,352684.052,353267.301,,29,and
screen,html.Screen,2_3_1_0_1_30,2022-05-09T20:32:50.277Z,,,,,,,,,,,,,,,,,2,,,,,,,,,,,,,,475.69900000002235,,response,,,,1,G,,,,,,Space,keypress(Space),,,,instrumental,,,,--- ---- ------ --- ------- ---------- ------- ----------<br>--- --------- --- ----------- ------- ----- ------- ---<br>--------- ---- -- --- ---- -- --------- -- ---- -------<br>-- --------- ------ --- white ------ ---- --- --------- --<br>------ - ---- -- --- ----------- ------- ---- ----- -----<br>--- -------- - ------ ---- -- ----- ---- --- --- -----------<br>-- -------,353743.6999999881,353743,353250.68,353252.3000000119,353267.301,353750.598,,30,white
screen,html.Screen,2_3_1_0_1_31,2022-05-09T20:32:51.205Z,,,,,,,,,,,,,,,,,2,,,,,,,,,,,,,,920.6019999880809,,response,,,,1,G,,,,,,Space,keypress(Space),,,,instrumental,,,,"--- ---- ------ --- ------- ---------- ------- ----------<br>--- --------- --- ----------- ------- ----- ------- ---<br>--------- ---- -- --- ---- -- --------- -- ---- -------<br>-- --------- ------ --- ----- light"" ---- --- --------- --<br>------ - ---- -- --- ----------- ------- ---- ----- -----<br>--- -------- - ------ ---- -- ----- ---- --- --- -----------<br>-- -------",354671.90000003576,354671.1999999881,353733.962,353743.90000003576,353750.598,354683.923,,31,"light"""
screen,html.Screen,2_3_1_0_1_32,2022-05-09T20:32:51.717Z,,,,,,,,,,,,,,,,,2,,,,,,,,,,,,,,499.1770000238321,,response,,,,1,G,,,,,,Space,keypress(Space),,,,instrumental,,,,--- ---- ------ --- ------- ---------- ------- ----------<br>--- --------- --- ----------- ------- ----- ------- ---<br>--------- ---- -- --- ---- -- --------- -- ---- -------<br>-- --------- ------ --- ----- ------ over --- --------- --<br>------ - ---- -- --- ----------- ------- ---- ----- -----<br>--- -------- - ------ ---- -- ----- ---- --- --- -----------<br>-- -------,355183.90000003576,355183.10000002384,354667.284,354672.10000002384,354683.923,355200.547,,32,over
screen,html.Screen,2_3_1_0_1_33,2022-05-09T20:32:52.092Z,,,,,,,,,,,,,,,,,2,,,,,,,,,,,,,,357.4529999999795,,response,,,,1,G,,,,,,Space,keypress(Space),,,,instrumental,,,,--- ---- ------ --- ------- ---------- ------- ----------<br>--- --------- --- ----------- ------- ----- ------- ---<br>--------- ---- -- --- ---- -- --------- -- ---- -------<br>-- --------- ------ --- ----- ------ ---- the --------- --<br>------ - ---- -- --- ----------- ------- ---- ----- -----<br>--- -------- - ------ ---- -- ----- ---- --- --- -----------<br>-- -------,355558.90000003576,355558,355183.91,355184.10000002384,355200.547,355567.157,,33,the
screen,html.Screen,2_3_1_0_1_34,2022-05-09T20:32:53.238Z,,,,,,,,,,,,,,,,,2,,,,,,,,,,,,,,1137.5429999880726,,response,,,,1,G,,,,,,Space,keypress(Space),,,,instrumental,,,,--- ---- ------ --- ------- ---------- ------- ----------<br>--- --------- --- ----------- ------- ----- ------- ---<br>--------- ---- -- --- ---- -- --------- -- ---- -------<br>-- --------- ------ --- ----- ------ ---- --- sunspots. --<br>------ - ---- -- --- ----------- ------- ---- ----- -----<br>--- -------- - ------ ---- -- ----- ---- --- --- -----------<br>-- -------,356705.60000002384,356704.6999999881,355550.546,355559.10000002384,355567.157,356717.055,,34,sunspots.
screen,html.Screen,2_3_1_0_1_35,2022-05-09T20:32:53.777Z,,,,,,,,,,,,,,,,,2,,,,,,,,,,,,,,526.445000000007,,response,,,,1,G,,,,,,Space,keypress(Space),,,,instrumental,,,,--- ---- ------ --- ------- ---------- ------- ----------<br>--- --------- --- ----------- ------- ----- ------- ---<br>--------- ---- -- --- ---- -- --------- -- ---- -------<br>-- --------- ------ --- ----- ------ ---- --- --------- He<br>------ - ---- -- --- ----------- ------- ---- ----- -----<br>--- -------- - ------ ---- -- ----- ---- --- --- -----------<br>-- -------,357244.40000003576,357243.5,356700.459,356705.8000000119,356717.055,357250.434,,35,He
screen,html.Screen,2_3_1_0_1_36,2022-05-09T20:32:54.424Z,,,,,,,,,,,,,,,,,2,,,,,,,,,,,,,,640.2659999880707,,response,,,,1,G,,,,,,Space,keypress(Space),,,,instrumental,,,,--- ---- ------ --- ------- ---------- ------- ----------<br>--- --------- --- ----------- ------- ----- ------- ---<br>--------- ---- -- --- ---- -- --------- -- ---- -------<br>-- --------- ------ --- ----- ------ ---- --- --------- --<br>jotted - ---- -- --- ----------- ------- ---- ----- -----<br>--- -------- - ------ ---- -- ----- ---- --- --- -----------<br>-- -------,357891.5,357890.6999999881,357233.718,357244.6999999881,357250.434,357900.31,,36,jotted
screen,html.Screen,2_3_1_0_1_37,2022-05-09T20:32:54.838Z,,,,,,,,,,,,,,,,,2,,,,,,,,,,,,,,403.3899999880814,,response,,,,1,G,,,,,,Space,keypress(Space),,,,instrumental,,,,--- ---- ------ --- ------- ---------- ------- ----------<br>--- --------- --- ----------- ------- ----- ------- ---<br>--------- ---- -- --- ---- -- --------- -- ---- -------<br>-- --------- ------ --- ----- ------ ---- --- --------- --<br>------ a ---- -- --- ----------- ------- ---- ----- -----<br>--- -------- - ------ ---- -- ----- ---- --- --- -----------<br>-- -------,358305.60000002384,358303.6999999881,357883.72,357891.6999999881,357900.31,358316.972,,37,a
