sender,sender_type,sender_id,timestamp,meta,,Blues,Classical,Country,Dance,Electronic,Folk,Gospel,Hip-Hop,Jazz,Latin,Musical/Film,New-age,Pop,Prolific_id,Provo_ID,R&B,Rap,Reggae,Religious,Rock,Soul,Swing,Traditional,age,artist_name,correct,correctResponse,distraction,duration,education,ended_on,familiarity,gender,headphone_check_performance,item,list,music_frequency,offensiveness,pleasantness,position_correct,preference,response,response_action,snippet_file,song_name,song_rating,sound,stimulus_1,stimulus_2,stimulus_3,text,time_commit,time_end,time_render,time_run,time_show,time_switch,url,word,word_ID
Prolific ID,html.Form,0,2022-05-09T13:36:37.118Z,"{""labjs_version"":""20.2.2"",""labjs_build"":{""flavor"":""production"",""commit"":""a25486e0c714a0ae2ce03ff94b7bb6896854dcfa""},""location"":""https://run.pavlovia.org/mvasilev/prolific3_music_f/"",""userAgent"":""Mozilla/5.0 (Windows NT 10.0; Win64; x64) AppleWebKit/537.36 (KHTML, like Gecko) Chrome/100.0.4896.127 Safari/537.36"",""platform"":""Win32"",""language"":""en-US"",""locale"":""en-US"",""timeZone"":""Europe/London"",""timezoneOffset"":-60,""screen_width"":1280,""screen_height"":720,""scroll_width"":1280,""scroll_height"":561,""window_innerWidth"":1280,""window_innerHeight"":609,""devicePixelRatio"":1.5}",,,,,,,,,,,,,,,615a170c6eca532c6f57e09c,,,,,,,,,,,,,,,6517.606,,form submission,,,,,,,,,,,,,,,,,,,,,21895.5,21894.5,15297.721,15312.400000095367,15376.894,21938.295,{},,
Introduction,html.Screen,1_0,2022-05-09T13:36:40.045Z,,,,,,,,,,,,,,,,,,,,,,,,,,,,,,,2882.2050000000017,,response,,,,,,,,,,,continue,click button,,,,,,,,,24822,24820.5,21888.21,21896.200000047684,21938.295,24835.725,,,
Volume calibration,html.Screen,1_1,2022-05-09T13:37:09.562Z,,,,,,,,,,,,,,,,,,,,,,,,,,,,,,,29495.975000047685,,response,,,,,,,,,,,continue,click button,,,,,,,,,54338.799999952316,54331.700000047684,24819.117,24822.299999952316,24835.725,54344.466,,,
Task instructions,html.Screen,1_2,2022-05-09T13:37:15.293Z,,,,,,,,,,,,,,,,,,,,,,,,,,,,,,,5724.234000047683,,response,,,,,,,,,,,continue,click button,,,,,,,,,60069.90000009537,60068.700000047684,54327.959,54339.09999990463,54344.466,60073.113,,,
Sounds,html.Screen,1_3_0_0,2022-05-09T13:37:19.532Z,,,,,,,,,,,,,,,,,,,,,,,,,,,,,,,4246.380000000005,,timeout,,,,,,,,,2,,,,,,,,I,S,O,,64309.5,64302.852,60056.496,60070.299999952316,60073.113,64319.493,,,
Judgement,html.Screen,1_3_0_1,2022-05-09T13:37:20.277Z,,,,,,,,,,,,,,,,,,,,,,,,,,,,true,2,,732.6069999046304,,response,,,,,,,,,2,,2,click #choice-2,,,,,I,S,O,,65053.700000047684,65052.09999990463,64302.852,64309.700000047684,64319.493,65068.939,,,
Trial,flow.Sequence,1_3_0,2022-05-09T13:37:20.277Z,,,,,,,,,,,,,,,,,,,,,,,,,,,,,,,4978.986999904635,,completion,,,,,,,,,2,,,,,,,,I,S,O,,65054.09999990463,65052.09999990463,60056.496,60070.299999952316,60073.113,65068.939,,,
Sounds,html.Screen,1_3_1_0,2022-05-09T13:37:24.523Z,,,,,,,,,,,,,,,,,,,,,,,,,,,,,,,4246.483000000007,,timeout,,,,,,,,,1,,,,,,,,S,I,O,,69300.29999995232,69298.713,65052.291,65054.200000047684,65068.939,69315.422,,,
Judgement,html.Screen,1_3_1_1,2022-05-09T13:37:25.048Z,,,,,,,,,,,,,,,,,,,,,,,,,,,,true,1,,508.67799990462663,,response,,,,,,,,,1,,1,click #choice-1,,,,,S,I,O,,69825.5,69824.09999990463,69298.713,69300.5,69315.422,69831.614,,,
Trial,flow.Sequence,1_3_1,2022-05-09T13:37:25.051Z,,,,,,,,,,,,,,,,,,,,,,,,,,,,,,,4755.160999904634,,completion,,,,,,,,,1,,,,,,,,S,I,O,,69828,69824.09999990463,65052.291,65054.09999990463,65068.939,69831.614,,,
Sounds,html.Screen,1_3_2_0,2022-05-09T13:37:29.287Z,,,,,,,,,,,,,,,,,,,,,,,,,,,,,,,4246.7149999999965,,timeout,,,,,,,,,2,,,,,,,,O,S,I,,74063.70000004768,74061.387,69814.993,69828.20000004768,69831.614,74078.329,,,
Judgement,html.Screen,1_3_2_1,2022-05-09T13:37:29.820Z,,,,,,,,,,,,,,,,,,,,,,,,,,,,true,2,,517.6710000000021,,response,,,,,,,,,2,,2,click #choice-2,,,,,O,S,I,,74597.40000009537,74596,74061.387,74063.90000009537,74078.329,74610.998,,,
Trial,flow.Sequence,1_3_2,2022-05-09T13:37:29.821Z,,,,,,,,,,,,,,,,,,,,,,,,,,,,,,,4764.385999999999,,completion,,,,,,,,,2,,,,,,,,O,S,I,,74597.70000004768,74596,69814.993,69828.20000004768,69831.614,74610.998,,,
Sounds,html.Screen,1_3_3_0,2022-05-09T13:37:34.066Z,,,,,,,,,,,,,,,,,,,,,,,,,,,,,,,4247.009999999995,,timeout,,,,,,,,,1,,,,,,,,S,O,I,,78843.5,78840.788,74594.431,74597.90000009537,74610.998,78858.008,,,
Judgement,html.Screen,1_3_3_1,2022-05-09T13:37:34.651Z,,,,,,,,,,,,,,,,,,,,,,,,,,,,true,1,,568.4919999999984,,response,,,,,,,,,1,,1,click #choice-1,,,,,S,O,I,,79428.29999995232,79426.5,78840.788,78843.70000004768,78858.008,79440.513,,,
Trial,flow.Sequence,1_3_3,2022-05-09T13:37:34.652Z,,,,,,,,,,,,,,,,,,,,,,,,,,,,,,,4815.501999999993,,completion,,,,,,,,,1,,,,,,,,S,O,I,,79429.5,79426.5,74594.431,74597.90000009537,74610.998,79440.513,,,
Sounds,html.Screen,1_3_4_0,2022-05-09T13:37:38.894Z,,,,,,,,,,,,,,,,,,,,,,,,,,,,,,,4246.205999999991,,timeout,,,,,,,,,3,,,,,,,,I,O,S,,83671.09999990463,83670.104,79423.693,79429.79999995232,79440.513,83686.719,,,
Judgement,html.Screen,1_3_4_1,2022-05-09T13:37:39.446Z,,,,,,,,,,,,,,,,,,,,,,,,,,,,true,3,,534.580999952319,,response,,,,,,,,,3,,3,click #choice-3,,,,,I,O,S,,84222.90000009537,84221.29999995232,83670.104,83671.40000009537,83686.719,84236.242,,,
Trial,flow.Sequence,1_3_4,2022-05-09T13:37:39.446Z,,,,,,,,,,,,,,,,,,,,,,,,,,,,,,,4780.78699995231,,completion,,,,,,,,,3,,,,,,,,I,O,S,,84223.20000004768,84221.29999995232,79423.693,79429.70000004768,79440.513,84236.242,,,
Sounds,html.Screen,1_3_5_0,2022-05-09T13:37:43.691Z,,,,,,,,,,,,,,,,,,,,,,,,,,,,,,,4246.502999999997,,timeout,,,,,,,,,3,,,,,,,,O,I,S,,88467.90000009537,88466.108,84219.677,84223.40000009537,84236.242,88482.745,,,
Judgement,html.Screen,1_3_5_1,2022-05-09T13:37:44.174Z,,,,,,,,,,,,,,,,,,,,,,,,,,,,true,3,,466.3549999046372,,response,,,,,,,,,3,,3,click #choice-3,,,,,O,I,S,,88950.79999995232,88949.09999990463,88466.108,88468.09999990463,88482.745,88965.698,,,
Trial,flow.Sequence,1_3_5,2022-05-09T13:37:44.174Z,,,,,,,,,,,,,,,,,,,,,,,,,,,,,,,4712.857999904634,,completion,,,,,,,,,3,,,,,,,,O,I,S,,88951.09999990463,88949.09999990463,84219.677,84223.29999995232,84236.242,88965.698,,,
Task,flow.Loop,1_3,2022-05-09T13:37:44.182Z,,,,,,,,,,,,,,,,,,,,,,,,,,,,,,,28875.986999904635,,completion,,,1,,,,,,,,,,,,,,,,,,88958.79999995232,88949.09999990463,60056.496,60070.09999990463,60073.113,88965.698,,,
Trap,html.Screen,1_4,2022-05-09T13:37:44.186Z,,,,,,,,,,,,,,,,,,,,,,,,,,,,,,,NaN,,skipped,,,,,,,,,,,,,,,,,,,,,88963.09999990463,88949.09999990463,,88962.79999995232,,88965.698,,,
Thanks,html.Screen,1_5,2022-05-09T13:37:46.628Z,,,,,,,,,,,,,,,,,,,,,,,,,,,,,,,2438.2020000953635,,response,,,,,,,,,,,continue,click button,,,,,,,,,91405.29999995232,91403.90000009537,88949.122,88963.20000004768,88965.698,94011.548,,,
Headphone screening,flow.Sequence,1,2022-05-09T13:37:46.628Z,,,,,,,,,,,,,,,,,,,,,,,,,,,,,,,69465.60500009537,,completion,,,,,,,,,,,,,,,,,,,,,91405.5,91403.90000009537,21888.21,21896.099999904633,21938.295,94011.548,,,
Instructions,html.Page,2_0,2022-05-09T13:38:00.367Z,,,,,,,,,,,,,,,,,,,,,,,,,,,,,,,11132.551999904637,,form submission,,,,,,,,,,,,,,,,,,,,,105144.59999990463,105144.09999990463,93994.863,94018.70000004768,94011.548,105152.446,,,
Holding screen,html.Screen,2_1_0_0,2022-05-09T13:38:10.368Z,,,,,,,,,,,,,,,,,,,,,,,,,,,,,,,10024.989000000001,,timeout,,,,,,,,,,,,,,,,,,,,,115145,115143.986,105135.604,105144.90000009537,105152.446,115177.435,,,
screen,html.Screen,2_1_0_1_0,2022-05-09T13:38:11.366Z,,,,,,,,,,,,,,,,,53,,,,,,,,,,,,,,961.8649999523186,,response,,,,99,,,,,,,Space,keypress(Space),,,,,,,,When -- ----- -- ------ - ------- --- ----------<br>------------- ------ ------ ---- ---- ------- ----- -- ----<br>-------- ------- -- ---------- --- - --- ----- ----- ----<br>---- --- --- ----- --- ---- ---- ------- ----- ---- -------<br>--- --- -- ----- -- --- ---- -- --- ---- -- ------ ------<br>--- ----- -- ----,116142.70000004768,116139.29999995232,115143.986,115145.20000004768,115177.435,116159.802,,0,When
screen,html.Screen,2_1_0_1_1,2022-05-09T13:38:11.871Z,,,,,,,,,,,,,,,,,53,,,,,,,,,,,,,,486.19800000000396,,response,,,,99,,,,,,,Space,keypress(Space),,,,,,,,---- it ----- -- ------ - ------- --- ----------<br>------------- ------ ------ ---- ---- ------- ----- -- ----<br>-------- ------- -- ---------- --- - --- ----- ----- ----<br>---- --- --- ----- --- ---- ---- ------- ----- ---- -------<br>--- --- -- ----- -- --- ---- -- --- ---- -- ------ ------<br>--- ----- -- ----,116647.79999995232,116646,116143.804,116143,116159.802,116659.322,,1,it
screen,html.Screen,2_1_0_1_2,2022-05-09T13:38:12.283Z,,,,,,,,,,,,,,,,,53,,,,,,,,,,,,,,398.0780000953673,,response,,,,99,,,,,,,Space,keypress(Space),,,,,,,,---- -- comes -- ------ - ------- --- ----------<br>------------- ------ ------ ---- ---- ------- ----- -- ----<br>-------- ------- -- ---------- --- - --- ----- ----- ----<br>---- --- --- ----- --- ---- ---- ------- ----- ---- -------<br>--- --- -- ----- -- --- ---- -- --- ---- -- ------ ------<br>--- ----- -- ----,117060,117057.40000009537,116643.039,116647.90000009537,116659.322,117075.711,,2,comes
screen,html.Screen,2_1_0_1_3,2022-05-09T13:38:12.644Z,,,,,,,,,,,,,,,,,53,,,,,,,,,,,,,,344.68900009537174,,response,,,,99,,,,,,,Space,keypress(Space),,,,,,,,---- -- ----- to ------ - ------- --- ----------<br>------------- ------ ------ ---- ---- ------- ----- -- ----<br>-------- ------- -- ---------- --- - --- ----- ----- ----<br>---- --- --- ----- --- ---- ---- ------- ----- ---- -------<br>--- --- -- ----- -- --- ---- -- --- ---- -- ------ ------<br>--- ----- -- ----,117421.70000004768,117420.40000009537,117059.273,117060.20000004768,117075.711,117425.378,,3,to
screen,html.Screen,2_1_0_1_4,2022-05-09T13:38:13.060Z,,,,,,,,,,,,,,,,,53,,,,,,,,,,,,,,410.4219999523193,,response,,,,99,,,,,,,Space,keypress(Space),,,,,,,,---- -- ----- -- having - ------- --- ----------<br>------------- ------ ------ ---- ---- ------- ----- -- ----<br>-------- ------- -- ---------- --- - --- ----- ----- ----<br>---- --- --- ----- --- ---- ---- ------- ----- ---- -------<br>--- --- -- ----- -- --- ---- -- --- ---- -- ------ ------<br>--- ----- -- ----,117837.09999990463,117835.79999995232,117408.96,117421.79999995232,117425.378,117842.882,,4,having
screen,html.Screen,2_1_0_1_5,2022-05-09T13:38:13.446Z,,,,,,,,,,,,,,,,,53,,,,,,,,,,,,,,379.2179999046348,,response,,,,99,,,,,,,Space,keypress(Space),,,,,,,,---- -- ----- -- ------ a ------- --- ----------<br>------------- ------ ------ ---- ---- ------- ----- -- ----<br>-------- ------- -- ---------- --- - --- ----- ----- ----<br>---- --- --- ----- --- ---- ---- ------- ----- ---- -------<br>--- --- -- ----- -- --- ---- -- --- ---- -- ------ ------<br>--- ----- -- ----,118223.29999995232,118222.09999990463,117825.315,117837.29999995232,117842.882,118243.429,,5,a
screen,html.Screen,2_1_0_1_6,2022-05-09T13:38:13.897Z,,,,,,,,,,,,,,,,,53,,,,,,,,,,,,,,429.87099995231256,,response,,,,99,,,,,,,Space,keypress(Space),,,,,,,,---- -- ----- -- ------ - lasting --- ----------<br>------------- ------ ------ ---- ---- ------- ----- -- ----<br>-------- ------- -- ---------- --- - --- ----- ----- ----<br>---- --- --- ----- --- ---- ---- ------- ----- ---- -------<br>--- --- -- ----- -- --- ---- -- --- ---- -- ------ ------<br>--- ----- -- ----,118674.20000004768,118673.29999995232,118208.348,118223.5,118243.429,118691.043,,6,lasting
screen,html.Screen,2_1_0_1_7,2022-05-09T13:38:14.264Z,,,,,,,,,,,,,,,,,53,,,,,,,,,,,,,,348.55699990462745,,response,,,,99,,,,,,,Space,keypress(Space),,,,,,,,---- -- ----- -- ------ - ------- and ----------<br>------------- ------ ------ ---- ---- ------- ----- -- ----<br>-------- ------- -- ---------- --- - --- ----- ----- ----<br>---- --- --- ----- --- ---- ---- ------- ----- ---- -------<br>--- --- -- ----- -- --- ---- -- --- ---- -- ------ ------<br>--- ----- -- ----,119041.59999990463,119039.59999990463,118674.642,118675.59999990463,118691.043,119057.42,,7,and
screen,html.Screen,2_1_0_1_8,2022-05-09T13:38:14.658Z,,,,,,,,,,,,,,,,,53,,,,,,,,,,,,,,376.9800000953692,,response,,,,99,,,,,,,Space,keypress(Space),,,,,,,,---- -- ----- -- ------ - ------- --- fulfilling<br>------------- ------ ------ ---- ---- ------- ----- -- ----<br>-------- ------- -- ---------- --- - --- ----- ----- ----<br>---- --- --- ----- --- ---- ---- ------- ----- ---- -------<br>--- --- -- ----- -- --- ---- -- --- ---- -- ------ ------<br>--- ----- -- ----,119435.29999995232,119434.40000009537,119040.996,119041.90000009537,119057.42,119440.345,,8,fulfilling
screen,html.Screen,2_1_0_1_9,2022-05-09T13:38:15.040Z,,,,,,,,,,,,,,,,,53,,,,,,,,,,,,,,375.7549999046314,,response,,,,99,,,,,,,Space,keypress(Space),,,,,,,,"---- -- ----- -- ------ - ------- --- ----------<br>relationship, ------ ------ ---- ---- ------- ----- -- ----<br>-------- ------- -- ---------- --- - --- ----- ----- ----<br>---- --- --- ----- --- ---- ---- ------- ----- ---- -------<br>--- --- -- ----- -- --- ---- -- --- ---- -- ------ ------<br>--- ----- -- ----",119817.40000009537,119816.09999990463,119424.026,119435.5,119440.345,119823.355,,9,"relationship,"
screen,html.Screen,2_1_0_1_10,2022-05-09T13:38:15.405Z,,,,,,,,,,,,,,,,,53,,,,,,,,,,,,,,358.0450000953715,,response,,,,99,,,,,,,Space,keypress(Space),,,,,,,,---- -- ----- -- ------ - ------- --- ----------<br>------------- common ------ ---- ---- ------- ----- -- ----<br>-------- ------- -- ---------- --- - --- ----- ----- ----<br>---- --- --- ----- --- ---- ---- ------- ----- ---- -------<br>--- --- -- ----- -- --- ---- -- --- ---- -- ------ ------<br>--- ----- -- ----,120182.59999990463,120181.40000009537,119807.018,119817.59999990463,119823.355,120189.757,,10,common
screen,html.Screen,2_1_0_1_11,2022-05-09T13:38:15.736Z,,,,,,,,,,,,,,,,,53,,,,,,,,,,,,,,322.7430000000022,,response,,,,99,,,,,,,Space,keypress(Space),,,,,,,,---- -- ----- -- ------ - ------- --- ----------<br>------------- ------ wisdom ---- ---- ------- ----- -- ----<br>-------- ------- -- ---------- --- - --- ----- ----- ----<br>---- --- --- ----- --- ---- ---- ------- ----- ---- -------<br>--- --- -- ----- -- --- ---- -- --- ---- -- ------ ------<br>--- ----- -- ----,120513.5,120512.5,120173.939,120182.79999995232,120189.757,120522.82,,11,wisdom
screen,html.Screen,2_1_0_1_12,2022-05-09T13:38:16.035Z,,,,,,,,,,,,,,,,,53,,,,,,,,,,,,,,288.7799999046256,,response,,,,99,,,,,,,Space,keypress(Space),,,,,,,,---- -- ----- -- ------ - ------- --- ----------<br>------------- ------ ------ says ---- ------- ----- -- ----<br>-------- ------- -- ---------- --- - --- ----- ----- ----<br>---- --- --- ----- --- ---- ---- ------- ----- ---- -------<br>--- --- -- ----- -- --- ---- -- --- ---- -- ------ ------<br>--- ----- -- ----,120812.5,120811.59999990463,120506.434,120513.70000004768,120522.82,120822.504,,12,says
screen,html.Screen,2_1_0_1_13,2022-05-09T13:38:16.315Z,,,,,,,,,,,,,,,,,53,,,,,,,,,,,,,,268.59599990463175,,response,,,,99,,,,,,,Space,keypress(Space),,,,,,,,---- -- ----- -- ------ - ------- --- ----------<br>------------- ------ ------ ---- that ------- ----- -- ----<br>-------- ------- -- ---------- --- - --- ----- ----- ----<br>---- --- --- ----- --- ---- ---- ------- ----- ---- -------<br>--- --- -- ----- -- --- ---- -- --- ---- -- ------ ------<br>--- ----- -- ----,121092.5,121091.09999990463,120806.098,120812.70000004768,120822.504,121105.693,,13,that
screen,html.Screen,2_1_0_1_14,2022-05-09T13:38:16.605Z,,,,,,,,,,,,,,,,,53,,,,,,,,,,,,,,276.0070000476844,,response,,,,99,,,,,,,Space,keypress(Space),,,,,,,,---- -- ----- -- ------ - ------- --- ----------<br>------------- ------ ------ ---- ---- feeling ----- -- ----<br>-------- ------- -- ---------- --- - --- ----- ----- ----<br>---- --- --- ----- --- ---- ---- ------- ----- ---- -------<br>--- --- -- ----- -- --- ---- -- --- ---- -- ------ ------<br>--- ----- -- ----,121382.79999995232,121381.70000004768,121089.642,121092.59999990463,121105.693,121388.724,,14,feeling
screen,html.Screen,2_1_0_1_15,2022-05-09T13:38:16.931Z,,,,,,,,,,,,,,,,,53,,,,,,,,,,,,,,317.97600004768174,,response,,,,99,,,,,,,Space,keypress(Space),,,,,,,,---- -- ----- -- ------ - ------- --- ----------<br>------------- ------ ------ ---- ---- ------- close -- ----<br>-------- ------- -- ---------- --- - --- ----- ----- ----<br>---- --- --- ----- --- ---- ---- ------- ----- ---- -------<br>--- --- -- ----- -- --- ---- -- --- ---- -- ------ ------<br>--- ----- -- ----,121708.40000009537,121706.70000004768,121372.281,121383.29999995232,121388.724,121721.838,,15,close
screen,html.Screen,2_1_0_1_16,2022-05-09T13:38:17.203Z,,,,,,,,,,,,,,,,,53,,,,,,,,,,,,,,258.06200009536406,,response,,,,99,,,,,,,Space,keypress(Space),,,,,,,,---- -- ----- -- ------ - ------- --- ----------<br>------------- ------ ------ ---- ---- ------- ----- to ----<br>-------- ------- -- ---------- --- - --- ----- ----- ----<br>---- --- --- ----- --- ---- ---- ------- ----- ---- -------<br>--- --- -- ----- -- --- ---- -- --- ---- -- ------ ------<br>--- ----- -- ----,121980.70000004768,121979.90000009537,121705.379,121708.59999990463,121721.838,121988.409,,16,to
screen,html.Screen,2_1_0_1_17,2022-05-09T13:38:17.564Z,,,,,,,,,,,,,,,,,53,,,,,,,,,,,,,,352.4910000953678,,response,,,,99,,,,,,,Space,keypress(Space),,,,,,,,---- -- ----- -- ------ - ------- --- ----------<br>------------- ------ ------ ---- ---- ------- ----- -- your<br>-------- ------- -- ---------- --- - --- ----- ----- ----<br>---- --- --- ----- --- ---- ---- ------- ----- ---- -------<br>--- --- -- ----- -- --- ---- -- --- ---- -- ------ ------<br>--- ----- -- ----,122341.79999995232,122340.90000009537,121971.824,121980.90000009537,121988.409,122354.604,,17,your
screen,html.Screen,2_1_0_1_18,2022-05-09T13:38:17.866Z,,,,,,,,,,,,,,,,,53,,,,,,,,,,,,,,287.5960000476771,,response,,,,99,,,,,,,Space,keypress(Space),,,,,,,,---- -- ----- -- ------ - ------- --- ----------<br>------------- ------ ------ ---- ---- ------- ----- -- ----<br>romantic ------- -- ---------- --- - --- ----- ----- ----<br>---- --- --- ----- --- ---- ---- ------- ----- ---- -------<br>--- --- -- ----- -- --- ---- -- --- ---- -- ------ ------<br>--- ----- -- ----,122643.20000004768,122642.20000004768,122338.186,122341.90000009537,122354.604,122654.418,,18,romantic
screen,html.Screen,2_1_0_1_19,2022-05-09T13:38:18.173Z,,,,,,,,,,,,,,,,,53,,,,,,,,,,,,,,294.9820000953623,,response,,,,99,,,,,,,Space,keypress(Space),,,,,,,,---- -- ----- -- ------ - ------- --- ----------<br>------------- ------ ------ ---- ---- ------- ----- -- ----<br>-------- partner -- ---------- --- - --- ----- ----- ----<br>---- --- --- ----- --- ---- ---- ------- ----- ---- -------<br>--- --- -- ----- -- --- ---- -- --- ---- -- ------ ------<br>--- ----- -- ----,122950.29999995232,122949.40000009537,122637.964,122643.40000009537,122654.418,122954.333,,19,partner
screen,html.Screen,2_1_0_1_20,2022-05-09T13:38:18.734Z,,,,,,,,,,,,,,,,,53,,,,,,,,,,,,,,556.6670000000013,,response,,,,99,,,,,,,Space,keypress(Space),,,,,,,,---- -- ----- -- ------ - ------- --- ----------<br>------------- ------ ------ ---- ---- ------- ----- -- ----<br>-------- ------- is ---------- --- - --- ----- ----- ----<br>---- --- --- ----- --- ---- ---- ------- ----- ---- -------<br>--- --- -- ----- -- --- ---- -- --- ---- -- ------ ------<br>--- ----- -- ----,123511.90000009537,123511,122938.134,122950.5,122954.333,123520.304,,20,is
screen,html.Screen,2_1_0_1_21,2022-05-09T13:38:19.046Z,,,,,,,,,,,,,,,,,53,,,,,,,,,,,,,,301.49599995231256,,response,,,,99,,,,,,,Space,keypress(Space),,,,,,,,---- -- ----- -- ------ - ------- --- ----------<br>------------- ------ ------ ---- ---- ------- ----- -- ----<br>-------- ------- -- paramount. --- - --- ----- ----- ----<br>---- --- --- ----- --- ---- ---- ------- ----- ---- -------<br>--- --- -- ----- -- --- ---- -- --- ---- -- ------ ------<br>--- ----- -- ----,123823.20000004768,123821.79999995232,123504.443,123512.09999990463,123520.304,123836.773,,21,paramount.
screen,html.Screen,2_1_0_1_22,2022-05-09T13:38:19.351Z,,,,,,,,,,,,,,,,,53,,,,,,,,,,,,,,291.02699995231524,,response,,,,99,,,,,,,Space,keypress(Space),,,,,,,,---- -- ----- -- ------ - ------- --- ----------<br>------------- ------ ------ ---- ---- ------- ----- -- ----<br>-------- ------- -- ---------- But - --- ----- ----- ----<br>---- --- --- ----- --- ---- ---- ------- ----- ---- -------<br>--- --- -- ----- -- --- ---- -- --- ---- -- ------ ------<br>--- ----- -- ----,124128.79999995232,124127.79999995232,123820.259,123823.29999995232,123836.773,124136.418,,22,But
screen,html.Screen,2_1_0_1_23,2022-05-09T13:38:19.633Z,,,,,,,,,,,,,,,,,53,,,,,,,,,,,,,,272.4820000953623,,response,,,,99,,,,,,,Space,keypress(Space),,,,,,,,---- -- ----- -- ------ - ------- --- ----------<br>------------- ------ ------ ---- ---- ------- ----- -- ----<br>-------- ------- -- ---------- --- a --- ----- ----- ----<br>---- --- --- ----- --- ---- ---- ------- ----- ---- -------<br>--- --- -- ----- -- --- ---- -- --- ---- -- ------ ------<br>--- ----- -- ----,124410.29999995232,124408.90000009537,124119.994,124128.90000009537,124136.418,124419.516,,23,a
screen,html.Screen,2_1_0_1_24,2022-05-09T13:38:19.873Z,,,,,,,,,,,,,,,,,53,,,,,,,,,,,,,,229.98399999999674,,response,,,,99,,,,,,,Space,keypress(Space),,,,,,,,---- -- ----- -- ------ - ------- --- ----------<br>------------- ------ ------ ---- ---- ------- ----- -- ----<br>-------- ------- -- ---------- --- - new ----- ----- ----<br>---- --- --- ----- --- ---- ---- ------- ----- ---- -------<br>--- --- -- ----- -- --- ---- -- --- ---- -- ------ ------<br>--- ----- -- ----,124650.59999990463,124649.5,124403.128,124410.5,124419.516,124652.704,,24,new
screen,html.Screen,2_1_0_1_25,2022-05-09T13:38:20.133Z,,,,,,,,,,,,,,,,,53,,,,,,,,,,,,,,256.0959999523184,,response,,,,99,,,,,,,Space,keypress(Space),,,,,,,,---- -- ----- -- ------ - ------- --- ----------<br>------------- ------ ------ ---- ---- ------- ----- -- ----<br>-------- ------- -- ---------- --- - --- study ----- ----<br>---- --- --- ----- --- ---- ---- ------- ----- ---- -------<br>--- --- -- ----- -- --- ---- -- --- ---- -- ------ ------<br>--- ----- -- ----,124910.20000004768,124908.79999995232,124636.245,124650.70000004768,124652.704,124919.12,,25,study
screen,html.Screen,2_1_0_1_26,2022-05-09T13:38:20.400Z,,,,,,,,,,,,,,,,,53,,,,,,,,,,,,,,257.9799999046372,,response,,,,99,,,,,,,Space,keypress(Space),,,,,,,,---- -- ----- -- ------ - ------- --- ----------<br>------------- ------ ------ ---- ---- ------- ----- -- ----<br>-------- ------- -- ---------- --- - --- ----- finds ----<br>---- --- --- ----- --- ---- ---- ------- ----- ---- -------<br>--- --- -- ----- -- --- ---- -- --- ---- -- ------ ------<br>--- ----- -- ----,125177.90000009537,125177.09999990463,124902.718,124910.29999995232,124919.12,125185.558,,26,finds
screen,html.Screen,2_1_0_1_27,2022-05-09T13:38:20.771Z,,,,,,,,,,,,,,,,,53,,,,,,,,,,,,,,361.3420000953629,,response,,,,99,,,,,,,Space,keypress(Space),,,,,,,,---- -- ----- -- ------ - ------- --- ----------<br>------------- ------ ------ ---- ---- ------- ----- -- ----<br>-------- ------- -- ---------- --- - --- ----- ----- that<br>---- --- --- ----- --- ---- ---- ------- ----- ---- -------<br>--- --- -- ----- -- --- ---- -- --- ---- -- ------ ------<br>--- ----- -- ----,125548.09999990463,125546.90000009537,125169.089,125178.09999990463,125185.558,125552.135,,27,that
screen,html.Screen,2_1_0_1_28,2022-05-09T13:38:21.137Z,,,,,,,,,,,,,,,,,53,,,,,,,,,,,,,,361.06500004768895,,response,,,,99,,,,,,,Space,keypress(Space),,,,,,,,---- -- ----- -- ------ - ------- --- ----------<br>------------- ------ ------ ---- ---- ------- ----- -- ----<br>-------- ------- -- ---------- --- - --- ----- ----- ----<br>it's --- --- ----- --- ---- ---- ------- ----- ---- -------<br>--- --- -- ----- -- --- ---- -- --- ---- -- ------ ------<br>--- ----- -- ----,125914.5,125913.20000004768,125535.522,125548.29999995232,125552.135,125918.292,,28,it's
screen,html.Screen,2_1_0_1_29,2022-05-09T13:38:21.538Z,,,,,,,,,,,,,,,,,53,,,,,,,,,,,,,,396.8079999046313,,response,,,,99,,,,,,,Space,keypress(Space),,,,,,,,---- -- ----- -- ------ - ------- --- ----------<br>------------- ------ ------ ---- ---- ------- ----- -- ----<br>-------- ------- -- ---------- --- - --- ----- ----- ----<br>---- not --- ----- --- ---- ---- ------- ----- ---- -------<br>--- --- -- ----- -- --- ---- -- --- ---- -- ------ ------<br>--- ----- -- ----,126315.90000009537,126315.09999990463,125901.968,125914.70000004768,125918.292,126317.969,,29,not
screen,html.Screen,2_1_0_1_30,2022-05-09T13:38:21.844Z,,,,,,,,,,,,,,,,,53,,,,,,,,,,,,,,301.83099995231896,,response,,,,99,,,,,,,Space,keypress(Space),,,,,,,,---- -- ----- -- ------ - ------- --- ----------<br>------------- ------ ------ ---- ---- ------- ----- -- ----<br>-------- ------- -- ---------- --- - --- ----- ----- ----<br>---- --- how ----- --- ---- ---- ------- ----- ---- -------<br>--- --- -- ----- -- --- ---- -- --- ---- -- ------ ------<br>--- ----- -- ----,126621.20000004768,126619.79999995232,126302.119,126316.09999990463,126317.969,126634.555,,30,how
screen,html.Screen,2_1_0_1_31,2022-05-09T13:38:22.167Z,,,,,,,,,,,,,,,,,53,,,,,,,,,,,,,,309.04499990463955,,response,,,,99,,,,,,,Space,keypress(Space),,,,,,,,---- -- ----- -- ------ - ------- --- ----------<br>------------- ------ ------ ---- ---- ------- ----- -- ----<br>-------- ------- -- ---------- --- - --- ----- ----- ----<br>---- --- --- close --- ---- ---- ------- ----- ---- -------<br>--- --- -- ----- -- --- ---- -- --- ---- -- ------ ------<br>--- ----- -- ----,126945,126943.59999990463,126617.96,126621.29999995232,126634.555,126951.151,,31,close
screen,html.Screen,2_1_0_1_32,2022-05-09T13:38:22.483Z,,,,,,,,,,,,,,,,,53,,,,,,,,,,,,,,308.5490000476857,,response,,,,99,,,,,,,Space,keypress(Space),,,,,,,,---- -- ----- -- ------ - ------- --- ----------<br>------------- ------ ------ ---- ---- ------- ----- -- ----<br>-------- ------- -- ---------- --- - --- ----- ----- ----<br>---- --- --- ----- you ---- ---- ------- ----- ---- -------<br>--- --- -- ----- -- --- ---- -- --- ---- -- ------ ------<br>--- ----- -- ----,127260.5,127259.70000004768,126934.629,126945.20000004768,126951.151,127267.261,,32,you
screen,html.Screen,2_1_0_1_33,2022-05-09T13:38:22.767Z,,,,,,,,,,,,,,,,,53,,,,,,,,,,,,,,276.0389999523177,,response,,,,99,,,,,,,Space,keypress(Space),,,,,,,,---- -- ----- -- ------ - ------- --- ----------<br>------------- ------ ------ ---- ---- ------- ----- -- ----<br>-------- ------- -- ---------- --- - --- ----- ----- ----<br>---- --- --- ----- --- feel ---- ------- ----- ---- -------<br>--- --- -- ----- -- --- ---- -- --- ---- -- ------ ------<br>--- ----- -- ----,127544.40000009537,127543.29999995232,127250.749,127260.70000004768,127267.261,127550.326,,33,feel
screen,html.Screen,2_1_0_1_34,2022-05-09T13:38:23.083Z,,,,,,,,,,,,,,,,,53,,,,,,,,,,,,,,309.67399999999907,,response,,,,99,,,,,,,Space,keypress(Space),,,,,,,,---- -- ----- -- ------ - ------- --- ----------<br>------------- ------ ------ ---- ---- ------- ----- -- ----<br>-------- ------- -- ---------- --- - --- ----- ----- ----<br>---- --- --- ----- --- ---- that ------- ----- ---- -------<br>--- --- -- ----- -- --- ---- -- --- ---- -- ------ ------<br>--- ----- -- ----,127860.90000009537,127860,127533.84,127544.59999990463,127550.326,127866.659,,34,that
screen,html.Screen,2_1_0_1_35,2022-05-09T13:38:23.409Z,,,,,,,,,,,,,,,,,53,,,,,,,,,,,,,,319.34100000000035,,response,,,,99,,,,,,,Space,keypress(Space),,,,,,,,---- -- ----- -- ------ - ------- --- ----------<br>------------- ------ ------ ---- ---- ------- ----- -- ----<br>-------- ------- -- ---------- --- - --- ----- ----- ----<br>---- --- --- ----- --- ---- ---- matters ----- ---- -------<br>--- --- -- ----- -- --- ---- -- --- ---- -- ------ ------<br>--- ----- -- ----,128187,128186,127850.226,127861.09999990463,127866.659,128199.745,,35,matters
screen,html.Screen,2_1_0_1_36,2022-05-09T13:38:23.774Z,,,,,,,,,,,,,,,,,53,,,,,,,,,,,,,,350.1550000953721,,response,,,,99,,,,,,,Space,keypress(Space),,,,,,,,"---- -- ----- -- ------ - ------- --- ----------<br>------------- ------ ------ ---- ---- ------- ----- -- ----<br>-------- ------- -- ---------- --- - --- ----- ----- ----<br>---- --- --- ----- --- ---- ---- ------- most, ---- -------<br>--- --- -- ----- -- --- ---- -- --- ---- -- ------ ------<br>--- ----- -- ----",128551.09999990463,128549.90000009537,128183.37,128187.20000004768,128199.745,128566.2,,36,"most,"
screen,html.Screen,2_1_0_1_37,2022-05-09T13:38:24.113Z,,,,,,,,,,,,,,,,,53,,,,,,,,,,,,,,323.8999999046355,,response,,,,99,,,,,,,Space,keypress(Space),,,,,,,,---- -- ----- -- ------ - ------- --- ----------<br>------------- ------ ------ ---- ---- ------- ----- -- ----<br>-------- ------- -- ---------- --- - --- ----- ----- ----<br>---- --- --- ----- --- ---- ---- ------- ----- it's -------<br>--- --- -- ----- -- --- ---- -- --- ---- -- ------ ------<br>--- ----- -- ----,128891.09999990463,128890.09999990463,128549.814,128551.20000004768,128566.2,128899.348,,37,it's
screen,html.Screen,2_1_0_1_38,2022-05-09T13:38:24.464Z,,,,,,,,,,,,,,,,,53,,,,,,,,,,,,,,341.15200000000186,,response,,,,99,,,,,,,Space,keypress(Space),,,,,,,,---- -- ----- -- ------ - ------- --- ----------<br>------------- ------ ------ ---- ---- ------- ----- -- ----<br>-------- ------- -- ---------- --- - --- ----- ----- ----<br>---- --- --- ----- --- ---- ---- ------- ----- ---- whether<br>--- --- -- ----- -- --- ---- -- --- ---- -- ------ ------<br>--- ----- -- ----,129241.40000009537,129240.5,128882.785,128891.20000004768,128899.348,129248.837,,38,whether
screen,html.Screen,2_1_0_1_39,2022-05-09T13:38:24.774Z,,,,,,,,,,,,,,,,,53,,,,,,,,,,,,,,300.26299990463303,,response,,,,99,,,,,,,Space,keypress(Space),,,,,,,,---- -- ----- -- ------ - ------- --- ----------<br>------------- ------ ------ ---- ---- ------- ----- -- ----<br>-------- ------- -- ---------- --- - --- ----- ----- ----<br>---- --- --- ----- --- ---- ---- ------- ----- ---- -------<br>you --- -- ----- -- --- ---- -- --- ---- -- ------ ------<br>--- ----- -- ----,129551.20000004768,129549.09999990463,129232.523,129241.59999990463,129248.837,129565.253,,39,you
screen,html.Screen,2_1_0_1_40,2022-05-09T13:38:25.025Z,,,,,,,,,,,,,,,,,53,,,,,,,,,,,,,,236.64700009537046,,response,,,,99,,,,,,,Space,keypress(Space),,,,,,,,---- -- ----- -- ------ - ------- --- ----------<br>------------- ------ ------ ---- ---- ------- ----- -- ----<br>-------- ------- -- ---------- --- - --- ----- ----- ----<br>---- --- --- ----- --- ---- ---- ------- ----- ---- -------<br>--- are -- ----- -- --- ---- -- --- ---- -- ------ ------<br>--- ----- -- ----,129802.79999995232,129801.90000009537,129548.898,129551.40000009537,129565.253,129815.149,,40,are
screen,html.Screen,2_1_0_1_41,2022-05-09T13:38:25.342Z,,,,,,,,,,,,,,,,,53,,,,,,,,,,,,,,303.9509999046277,,response,,,,99,,,,,,,Space,keypress(Space),,,,,,,,---- -- ----- -- ------ - ------- --- ----------<br>------------- ------ ------ ---- ---- ------- ----- -- ----<br>-------- ------- -- ---------- --- - --- ----- ----- ----<br>---- --- --- ----- --- ---- ---- ------- ----- ---- -------<br>--- --- as ----- -- --- ---- -- --- ---- -- ------ ------<br>--- ----- -- ----,130120,130119.09999990463,129798.575,129803.09999990463,129815.149,130131.524,,41,as
screen,html.Screen,2_1_0_1_42,2022-05-09T13:38:25.691Z,,,,,,,,,,,,,,,,,53,,,,,,,,,,,,,,336.1760000476788,,response,,,,99,,,,,,,Space,keypress(Space),,,,,,,,---- -- ----- -- ------ - ------- --- ----------<br>------------- ------ ------ ---- ---- ------- ----- -- ----<br>-------- ------- -- ---------- --- - --- ----- ----- ----<br>---- --- --- ----- --- ---- ---- ------- ----- ---- -------<br>--- --- -- close -- --- ---- -- --- ---- -- ------ ------<br>--- ----- -- ----,130468.59999990463,130467.70000004768,130115.081,130120.20000004768,130131.524,130481.269,,42,close
screen,html.Screen,2_1_0_1_43,2022-05-09T13:38:26.030Z,,,,,,,,,,,,,,,,,53,,,,,,,,,,,,,,325.33099990463234,,response,,,,99,,,,,,,Space,keypress(Space),,,,,,,,---- -- ----- -- ------ - ------- --- ----------<br>------------- ------ ------ ---- ---- ------- ----- -- ----<br>-------- ------- -- ---------- --- - --- ----- ----- ----<br>---- --- --- ----- --- ---- ---- ------- ----- ---- -------<br>--- --- -- ----- as --- ---- -- --- ---- -- ------ ------<br>--- ----- -- ----,130807.90000009537,130806.59999990463,130464.819,130468.79999995232,130481.269,130814.175,,43,as
screen,html.Screen,2_1_0_1_44,2022-05-09T13:38:26.361Z,,,,,,,,,,,,,,,,,53,,,,,,,,,,,,,,323.0250000476808,,response,,,,99,,,,,,,Space,keypress(Space),,,,,,,,---- -- ----- -- ------ - ------- --- ----------<br>------------- ------ ------ ---- ---- ------- ----- -- ----<br>-------- ------- -- ---------- --- - --- ----- ----- ----<br>---- --- --- ----- --- ---- ---- ------- ----- ---- -------<br>--- --- -- ----- -- you ---- -- --- ---- -- ------ ------<br>--- ----- -- ----,131138.20000004768,131137.20000004768,130797.738,130808.09999990463,130814.175,131147.235,,44,you
screen,html.Screen,2_1_0_1_45,2022-05-09T13:38:26.677Z,,,,,,,,,,,,,,,,,53,,,,,,,,,,,,,,306.4650000476977,,response,,,,99,,,,,,,Space,keypress(Space),,,,,,,,---- -- ----- -- ------ - ------- --- ----------<br>------------- ------ ------ ---- ---- ------- ----- -- ----<br>-------- ------- -- ---------- --- - --- ----- ----- ----<br>---- --- --- ----- --- ---- ---- ------- ----- ---- -------<br>--- --- -- ----- -- --- want -- --- ---- -- ------ ------<br>--- ----- -- ----,131454.70000004768,131453.70000004768,131130.874,131138.40000009537,131147.235,131463.651,,45,want
screen,html.Screen,2_1_0_1_46,2022-05-09T13:38:26.966Z,,,,,,,,,,,,,,,,,53,,,,,,,,,,,,,,278.6489999523037,,response,,,,99,,,,,,,Space,keypress(Space),,,,,,,,---- -- ----- -- ------ - ------- --- ----------<br>------------- ------ ------ ---- ---- ------- ----- -- ----<br>-------- ------- -- ---------- --- - --- ----- ----- ----<br>---- --- --- ----- --- ---- ---- ------- ----- ---- -------<br>--- --- -- ----- -- --- ---- to --- ---- -- ------ ------<br>--- ----- -- ----,131743.20000004768,131742.29999995232,131447.28,131454.90000009537,131463.651,131746.809,,46,to
screen,html.Screen,2_1_0_1_47,2022-05-09T13:38:27.276Z,,,,,,,,,,,,,,,,,53,,,,,,,,,,,,,,305.2909999046242,,response,,,,99,,,,,,,Space,keypress(Space),,,,,,,,"---- -- ----- -- ------ - ------- --- ----------<br>------------- ------ ------ ---- ---- ------- ----- -- ----<br>-------- ------- -- ---------- --- - --- ----- ----- ----<br>---- --- --- ----- --- ---- ---- ------- ----- ---- -------<br>--- --- -- ----- -- --- ---- -- be, ---- -- ------ ------<br>--- ----- -- ----",132053.40000009537,132052.09999990463,131730.38,131743.40000009537,131746.809,132063.849,,47,"be,"
screen,html.Screen,2_1_0_1_48,2022-05-09T13:38:27.596Z,,,,,,,,,,,,,,,,,53,,,,,,,,,,,,,,308.05100009538,,response,,,,99,,,,,,,Space,keypress(Space),,,,,,,,---- -- ----- -- ------ - ------- --- ----------<br>------------- ------ ------ ---- ---- ------- ----- -- ----<br>-------- ------- -- ---------- --- - --- ----- ----- ----<br>---- --- --- ----- --- ---- ---- ------- ----- ---- -------<br>--- --- -- ----- -- --- ---- -- --- even -- ------ ------<br>--- ----- -- ----,132373.20000004768,132371.90000009537,132046.741,132053.59999990463,132063.849,132379.569,,48,even
screen,html.Screen,2_1_0_1_49,2022-05-09T13:38:27.899Z,,,,,,,,,,,,,,,,,53,,,,,,,,,,,,,,295.9310000000114,,response,,,,99,,,,,,,Space,keypress(Space),,,,,,,,---- -- ----- -- ------ - ------- --- ----------<br>------------- ------ ------ ---- ---- ------- ----- -- ----<br>-------- ------- -- ---------- --- - --- ----- ----- ----<br>---- --- --- ----- --- ---- ---- ------- ----- ---- -------<br>--- --- -- ----- -- --- ---- -- --- ---- if ------ ------<br>--- ----- -- ----,132676.40000009537,132675.5,132363.403,132373.29999995232,132379.569,132679.375,,49,if
screen,html.Screen,2_1_0_1_50,2022-05-09T13:38:28.188Z,,,,,,,,,,,,,,,,,53,,,,,,,,,,,,,,284.72499990463257,,response,,,,99,,,,,,,Space,keypress(Space),,,,,,,,---- -- ----- -- ------ - ------- --- ----------<br>------------- ------ ------ ---- ---- ------- ----- -- ----<br>-------- ------- -- ---------- --- - --- ----- ----- ----<br>---- --- --- ----- --- ---- ---- ------- ----- ---- -------<br>--- --- -- ----- -- --- ---- -- --- ---- -- that's ------<br>--- ----- -- ----,132965.09999990463,132964.09999990463,132662.955,132676.59999990463,132679.375,132979.185,,50,that's
screen,html.Screen,2_1_0_1_51,2022-05-09T13:38:28.552Z,,,,,,,,,,,,,,,,,53,,,,,,,,,,,,,,349.3150000000023,,response,,,,99,,,,,,,Space,keypress(Space),,,,,,,,---- -- ----- -- ------ - ------- --- ----------<br>------------- ------ ------ ---- ---- ------- ----- -- ----<br>-------- ------- -- ---------- --- - --- ----- ----- ----<br>---- --- --- ----- --- ---- ---- ------- ----- ---- -------<br>--- --- -- ----- -- --- ---- -- --- ---- -- ------ really<br>--- ----- -- ----,133329.90000009537,133328.5,132962.713,132965.29999995232,132979.185,133345.558,,51,really
screen,html.Screen,2_1_0_1_52,2022-05-09T13:38:28.902Z,,,,,,,,,,,,,,,,,53,,,,,,,,,,,,,,333.1420000476937,,response,,,,99,,,,,,,Space,keypress(Space),,,,,,,,---- -- ----- -- ------ - ------- --- ----------<br>------------- ------ ------ ---- ---- ------- ----- -- ----<br>-------- ------- -- ---------- --- - --- ----- ----- ----<br>---- --- --- ----- --- ---- ---- ------- ----- ---- -------<br>--- --- -- ----- -- --- ---- -- --- ---- -- ------ ------<br>not ----- -- ----,133680,133678.70000004768,133329.128,133330.09999990463,133345.558,133695.155,,52,not
screen,html.Screen,2_1_0_1_53,2022-05-09T13:38:29.207Z,,,,,,,,,,,,,,,,,53,,,,,,,,,,,,,,288.14499995231745,,response,,,,99,,,,,,,Space,keypress(Space),,,,,,,,---- -- ----- -- ------ - ------- --- ----------<br>------------- ------ ------ ---- ---- ------- ----- -- ----<br>-------- ------- -- ---------- --- - --- ----- ----- ----<br>---- --- --- ----- --- ---- ---- ------- ----- ---- -------<br>--- --- -- ----- -- --- ---- -- --- ---- -- ------ ------<br>--- close -- ----,133984.70000004768,133983.29999995232,133678.822,133680.20000004768,133695.155,133994.86,,53,close
screen,html.Screen,2_1_0_1_54,2022-05-09T13:38:29.537Z,,,,,,,,,,,,,,,,,53,,,,,,,,,,,,,,318.3400000476977,,response,,,,99,,,,,,,Space,keypress(Space),,,,,,,,---- -- ----- -- ------ - ------- --- ----------<br>------------- ------ ------ ---- ---- ------- ----- -- ----<br>-------- ------- -- ---------- --- - --- ----- ----- ----<br>---- --- --- ----- --- ---- ---- ------- ----- ---- -------<br>--- --- -- ----- -- --- ---- -- --- ---- -- ------ ------<br>--- ----- at ----,134314.5,134313.20000004768,133978.478,133984.79999995232,133994.86,134328.04,,54,at
screen,html.Screen,2_1_0_1_55,2022-05-09T13:38:30.054Z,,,,,,,,,,,,,,,,,53,,,,,,,,,,,,,,502.45999999999185,,response,,,,99,,,,,,,Space,keypress(Space),,,,,,,,---- -- ----- -- ------ - ------- --- ----------<br>------------- ------ ------ ---- ---- ------- ----- -- ----<br>-------- ------- -- ---------- --- - --- ----- ----- ----<br>---- --- --- ----- --- ---- ---- ------- ----- ---- -------<br>--- --- -- ----- -- --- ---- -- --- ---- -- ------ ------<br>--- ----- -- all.,134831.79999995232,134830.5,134311.605,134314.70000004768,134328.04,134844.202,,55,all.
Item 99,flow.Loop,2_1_0_1,2022-05-09T13:38:30.055Z,,,,,,,,,,,,,,,,,,,,,,,,,,,,,,,19653.065000000002,,completion,,,,,F,,,,,,,,,,,silence,,,,,134832.09999990463,134830.5,115143.986,115145.09999990463,115177.435,134844.202,,,
Question 1,html.Screen,2_1_0_2,2022-05-09T13:38:32.968Z,,,,,,,,,,,,,,,,,,,,,,,,,,,,true,FALSE,,2899.29800000001,,response,,,,99,F,,,,,,FALSE,click #choice-2,,,,silence,,,,,137745.29999995232,137743.5,134827.952,134832.29999995232,134844.202,137758.453,,,
Question 2,html.Screen,2_1_0_3,2022-05-09T13:38:35.548Z,,,,,,,,,,,,,,,,,,,,,,,,,,,,true,TRUE,,2564.3469999523077,,response,,,,99,F,,,,,,TRUE,click #choice-1,,,,silence,,,,,140325.40000009537,140322.79999995232,137741.885,137745.5,137758.453,140339.674,,,
Item 99,flow.Sequence,2_1_0,2022-05-09T13:38:35.548Z,,,,,,,,,,,,,,,,,,,,,,,,,,,,,,,35170.35399995232,,completion,,,,,,,,,,,,,,,,,,,,,140325.59999990463,140322.79999995232,105135.604,105144.90000009537,105152.446,140339.674,,,
Holding screen,html.Screen,2_1_1_0,2022-05-09T13:38:45.557Z,,,,,,,,,,,,,,,,,,,,,,,,,,,,,,,10008.30799999999,,timeout,,,,,,,,,,,,,,,,,,,,,150334.70000004768,150331.342,140323.084,140325.79999995232,140339.674,150347.982,,,
screen,html.Screen,2_1_1_1_0,2022-05-09T13:38:46.206Z,,,,,,,,,,,,,,,,,54,,,,,,,,,,,,,,634.7180000476947,,response,,,,100,,,,,,,Space,keypress(Space),,,,,,,,At --- ---- --- ------ ----- ------- ---- -- --- ------- --<br>------- ---------- ------ -- ----- -- ----- -- ---- ------<br>--- ----- --- --- ------ -------- ----- --- ------ ----- --<br>----- ----- ---------- --- --- ------ ------ ---- -- ------<br>------- --- ------ ----- --- ---- ------- -- ---- --- --<br>------- ------,150983.70000004768,150982.70000004768,150331.342,150334.90000009537,150347.982,150997.52,,0,At
screen,html.Screen,2_1_1_1_1,2022-05-09T13:38:46.461Z,,,,,,,,,,,,,,,,,54,,,,,,,,,,,,,,239.77999995232676,,response,,,,100,,,,,,,Space,keypress(Space),,,,,,,,-- the ---- --- ------ ----- ------- ---- -- --- ------- --<br>------- ---------- ------ -- ----- -- ----- -- ---- ------<br>--- ----- --- --- ------ -------- ----- --- ------ ----- --<br>----- ----- ---------- --- --- ------ ------ ---- -- ------<br>------- --- ------ ----- --- ---- ------- -- ---- --- --<br>------- ------,151238.09999990463,151237.29999995232,150981.326,150983.79999995232,150997.52,151247.174,,1,the
screen,html.Screen,2_1_1_1_2,2022-05-09T13:38:46.735Z,,,,,,,,,,,,,,,,,54,,,,,,,,,,,,,,264.1259999523172,,response,,,,100,,,,,,,Space,keypress(Space),,,,,,,,-- --- time --- ------ ----- ------- ---- -- --- ------- --<br>------- ---------- ------ -- ----- -- ----- -- ---- ------<br>--- ----- --- --- ------ -------- ----- --- ------ ----- --<br>----- ----- ---------- --- --- ------ ------ ---- -- ------<br>------- --- ------ ----- --- ---- ------- -- ---- --- --<br>------- ------,151512.09999990463,151511.29999995232,151230.812,151238.29999995232,151247.174,151546.34,,2,time
screen,html.Screen,2_1_1_1_3,2022-05-09T13:38:47.014Z,,,,,,,,,,,,,,,,,54,,,,,,,,,,,,,,244.25999990463606,,response,,,,100,,,,,,,Space,keypress(Space),,,,,,,,-- --- ---- the ------ ----- ------- ---- -- --- ------- --<br>------- ---------- ------ -- ----- -- ----- -- ---- ------<br>--- ----- --- --- ------ -------- ----- --- ------ ----- --<br>----- ----- ---------- --- --- ------ ------ ---- -- ------<br>------- --- ------ ----- --- ---- ------- -- ---- --- --<br>------- ------,151791.40000009537,151790.59999990463,151497.657,151512.29999995232,151546.34,151796.772,,3,the
screen,html.Screen,2_1_1_1_4,2022-05-09T13:38:47.321Z,,,,,,,,,,,,,,,,,54,,,,,,,,,,,,,,299.9280000476865,,response,,,,100,,,,,,,Space,keypress(Space),,,,,,,,-- --- ---- --- French ----- ------- ---- -- --- ------- --<br>------- ---------- ------ -- ----- -- ----- -- ---- ------<br>--- ----- --- --- ------ -------- ----- --- ------ ----- --<br>----- ----- ---------- --- --- ------ ------ ---- -- ------<br>------- --- ------ ----- --- ---- ------- -- ---- --- --<br>------- ------,152098.40000009537,152096.70000004768,151780.358,151791.59999990463,151796.772,152113.236,,4,French
screen,html.Screen,2_1_1_1_5,2022-05-09T13:38:47.645Z,,,,,,,,,,,,,,,,,54,,,,,,,,,,,,,,308.06399995231186,,response,,,,100,,,,,,,Space,keypress(Space),,,,,,,,-- --- ---- --- ------ crown ------- ---- -- --- ------- --<br>------- ---------- ------ -- ----- -- ----- -- ---- ------<br>--- ----- --- --- ------ -------- ----- --- ------ ----- --<br>----- ----- ---------- --- --- ------ ------ ---- -- ------<br>------- --- ------ ----- --- ---- ------- -- ---- --- --<br>------- ------,152422.40000009537,152421.29999995232,152096.803,152098.59999990463,152113.236,152429.609,,5,crown
screen,html.Screen,2_1_1_1_6,2022-05-09T13:38:47.929Z,,,,,,,,,,,,,,,,,54,,,,,,,,,,,,,,275.39100000000326,,response,,,,100,,,,,,,Space,keypress(Space),,,,,,,,-- --- ---- --- ------ ----- secured ---- -- --- ------- --<br>------- ---------- ------ -- ----- -- ----- -- ---- ------<br>--- ----- --- --- ------ -------- ----- --- ------ ----- --<br>----- ----- ---------- --- --- ------ ------ ---- -- ------<br>------- --- ------ ----- --- ---- ------- -- ---- --- --<br>------- ------,152706.20000004768,152705,152413.224,152422.59999990463,152429.609,152713.085,,6,secured
screen,html.Screen,2_1_1_1_7,2022-05-09T13:38:48.233Z,,,,,,,,,,,,,,,,,54,,,,,,,,,,,,,,296.8150000953756,,response,,,,100,,,,,,,Space,keypress(Space),,,,,,,,-- --- ---- --- ------ ----- ------- much -- --- ------- --<br>------- ---------- ------ -- ----- -- ----- -- ---- ------<br>--- ----- --- --- ------ -------- ----- --- ------ ----- --<br>----- ----- ---------- --- --- ------ ------ ---- -- ------<br>------- --- ------ ----- --- ---- ------- -- ---- --- --<br>------- ------,153010.79999995232,153009.90000009537,152697.062,152706.5,152713.085,153035.52,,7,much
screen,html.Screen,2_1_1_1_8,2022-05-09T13:38:48.521Z,,,,,,,,,,,,,,,,,54,,,,,,,,,,,,,,261.77999995232676,,response,,,,100,,,,,,,Space,keypress(Space),,,,,,,,-- --- ---- --- ------ ----- ------- ---- of --- ------- --<br>------- ---------- ------ -- ----- -- ----- -- ---- ------<br>--- ----- --- --- ------ -------- ----- --- ------ ----- --<br>----- ----- ---------- --- --- ------ ------ ---- -- ------<br>------- --- ------ ----- --- ---- ------- -- ---- --- --<br>------- ------,153298.5,153297.29999995232,152996.019,153010.90000009537,153035.52,153312.215,,8,of
screen,html.Screen,2_1_1_1_9,2022-05-09T13:38:48.766Z,,,,,,,,,,,,,,,,,54,,,,,,,,,,,,,,230.68500009537092,,response,,,,100,,,,,,,Space,keypress(Space),,,,,,,,-- --- ---- --- ------ ----- ------- ---- -- its ------- --<br>------- ---------- ------ -- ----- -- ----- -- ---- ------<br>--- ----- --- --- ------ -------- ----- --- ------ ----- --<br>----- ----- ---------- --- --- ------ ------ ---- -- ------<br>------- --- ------ ----- --- ---- ------- -- ---- --- --<br>------- ------,153543.70000004768,153542.90000009537,153295.785,153298.59999990463,153312.215,153570.172,,9,its
screen,html.Screen,2_1_1_1_10,2022-05-09T13:38:49.012Z,,,,,,,,,,,,,,,,,54,,,,,,,,,,,,,,218.02800004769233,,response,,,,100,,,,,,,Space,keypress(Space),,,,,,,,-- --- ---- --- ------ ----- ------- ---- -- --- revenue --<br>------- ---------- ------ -- ----- -- ----- -- ---- ------<br>--- ----- --- --- ------ -------- ----- --- ------ ----- --<br>----- ----- ---------- --- --- ------ ------ ---- -- ------<br>------- --- ------ ----- --- ---- ------- -- ---- --- --<br>------- ------,153789.59999990463,153788.20000004768,153528.895,153543.90000009537,153570.172,153795.497,,10,revenue
screen,html.Screen,2_1_1_1_11,2022-05-09T13:38:49.304Z,,,,,,,,,,,,,,,,,54,,,,,,,,,,,,,,284.80299995231326,,response,,,,100,,,,,,,Space,keypress(Space),,,,,,,,-- --- ---- --- ------ ----- ------- ---- -- --- ------- by<br>------- ---------- ------ -- ----- -- ----- -- ---- ------<br>--- ----- --- --- ------ -------- ----- --- ------ ----- --<br>----- ----- ---------- --- --- ------ ------ ---- -- ------<br>------- --- ------ ----- --- ---- ------- -- ---- --- --<br>------- ------,154081,154080.29999995232,153779.053,153789.79999995232,153795.497,154094.96,,11,by
screen,html.Screen,2_1_1_1_12,2022-05-09T13:38:49.573Z,,,,,,,,,,,,,,,,,54,,,,,,,,,,,,,,254.63999990464072,,response,,,,100,,,,,,,Space,keypress(Space),,,,,,,,-- --- ---- --- ------ ----- ------- ---- -- --- ------- --<br>issuing ---------- ------ -- ----- -- ----- -- ---- ------<br>--- ----- --- --- ------ -------- ----- --- ------ ----- --<br>----- ----- ---------- --- --- ------ ------ ---- -- ------<br>------- --- ------ ----- --- ---- ------- -- ---- --- --<br>------- ------,154350.5,154349.59999990463,154078.453,154081.29999995232,154094.96,154361.403,,12,issuing
screen,html.Screen,2_1_1_1_13,2022-05-09T13:38:49.874Z,,,,,,,,,,,,,,,,,54,,,,,,,,,,,,,,289.59700000000885,,response,,,,100,,,,,,,Space,keypress(Space),,,,,,,,-- --- ---- --- ------ ----- ------- ---- -- --- ------- --<br>------- government ------ -- ----- -- ----- -- ---- ------<br>--- ----- --- --- ------ -------- ----- --- ------ ----- --<br>----- ----- ---------- --- --- ------ ------ ---- -- ------<br>------- --- ------ ----- --- ---- ------- -- ---- --- --<br>------- ------,154651.90000009537,154651,154344.872,154350.59999990463,154361.403,154661.009,,13,government
screen,html.Screen,2_1_1_1_14,2022-05-09T13:38:50.209Z,,,,,,,,,,,,,,,,,54,,,,,,,,,,,,,,323.8910000953765,,response,,,,100,,,,,,,Space,keypress(Space),,,,,,,,-- --- ---- --- ------ ----- ------- ---- -- --- ------- --<br>------- ---------- bonds. -- ----- -- ----- -- ---- ------<br>--- ----- --- --- ------ -------- ----- --- ------ ----- --<br>----- ----- ---------- --- --- ------ ------ ---- -- ------<br>------- --- ------ ----- --- ---- ------- -- ---- --- --<br>------- ------,154986.29999995232,154984.90000009537,154645.178,154652.09999990463,154661.009,154994.079,,14,bonds.
screen,html.Screen,2_1_1_1_15,2022-05-09T13:38:50.506Z,,,,,,,,,,,,,,,,,54,,,,,,,,,,,,,,288.2209999523184,,response,,,,100,,,,,,,Space,keypress(Space),,,,,,,,-- --- ---- --- ------ ----- ------- ---- -- --- ------- --<br>------- ---------- ------ In ----- -- ----- -- ---- ------<br>--- ----- --- --- ------ -------- ----- --- ------ ----- --<br>----- ----- ---------- --- --- ------ ------ ---- -- ------<br>------- --- ------ ----- --- ---- ------- -- ---- --- --<br>------- ------,155283.09999990463,155282.29999995232,154977.85,154986.40000009537,154994.079,155293.996,,15,In
screen,html.Screen,2_1_1_1_16,2022-05-09T13:38:50.769Z,,,,,,,,,,,,,,,,,54,,,,,,,,,,,,,,251.50399999998626,,response,,,,100,,,,,,,Space,keypress(Space),,,,,,,,"-- --- ---- --- ------ ----- ------- ---- -- --- ------- --<br>------- ---------- ------ -- 1727, -- ----- -- ---- ------<br>--- ----- --- --- ------ -------- ----- --- ------ ----- --<br>----- ----- ---------- --- --- ------ ------ ---- -- ------<br>------- --- ------ ----- --- ---- ------- -- ---- --- --<br>------- ------",155546.5,155545.5,155277.486,155283.40000009537,155293.996,155560.304,,16,"1727,"
screen,html.Screen,2_1_1_1_17,2022-05-09T13:38:51.150Z,,,,,,,,,,,,,,,,,54,,,,,,,,,,,,,,365.39600004768,,response,,,,100,,,,,,,Space,keypress(Space),,,,,,,,-- --- ---- --- ------ ----- ------- ---- -- --- ------- --<br>------- ---------- ------ -- ----- in ----- -- ---- ------<br>--- ----- --- --- ------ -------- ----- --- ------ ----- --<br>----- ----- ---------- --- --- ------ ------ ---- -- ------<br>------- --- ------ ----- --- ---- ------- -- ---- --- --<br>------- ------,155927.09999990463,155925.70000004768,155543.902,155546.79999995232,155560.304,155943.469,,17,in
screen,html.Screen,2_1_1_1_18,2022-05-09T13:38:51.486Z,,,,,,,,,,,,,,,,,54,,,,,,,,,,,,,,319.3309999523044,,response,,,,100,,,,,,,Space,keypress(Space),,,,,,,,-- --- ---- --- ------ ----- ------- ---- -- --- ------- --<br>------- ---------- ------ -- ----- -- order -- ---- ------<br>--- ----- --- --- ------ -------- ----- --- ------ ----- --<br>----- ----- ---------- --- --- ------ ------ ---- -- ------<br>------- --- ------ ----- --- ---- ------- -- ---- --- --<br>------- ------,156263.79999995232,156262.79999995232,155927.179,155927.29999995232,155943.469,156276.472,,18,order
screen,html.Screen,2_1_1_1_19,2022-05-09T13:38:51.746Z,,,,,,,,,,,,,,,,,54,,,,,,,,,,,,,,246.52799999999115,,response,,,,100,,,,,,,Space,keypress(Space),,,,,,,,-- --- ---- --- ------ ----- ------- ---- -- --- ------- --<br>------- ---------- ------ -- ----- -- ----- to ---- ------<br>--- ----- --- --- ------ -------- ----- --- ------ ----- --<br>----- ----- ---------- --- --- ------ ------ ---- -- ------<br>------- --- ------ ----- --- ---- ------- -- ---- --- --<br>------- ------,156524,156523,156260.142,156264,156276.472,156526.2,,19,to
screen,html.Screen,2_1_1_1_20,2022-05-09T13:38:52.010Z,,,,,,,,,,,,,,,,,54,,,,,,,,,,,,,,259.79999999998836,,response,,,,100,,,,,,,Space,keypress(Space),,,,,,,,-- --- ---- --- ------ ----- ------- ---- -- --- ------- --<br>------- ---------- ------ -- ----- -- ----- -- save ------<br>--- ----- --- --- ------ -------- ----- --- ------ ----- --<br>----- ----- ---------- --- --- ------ ------ ---- -- ------<br>------- --- ------ ----- --- ---- ------- -- ---- --- --<br>------- ------,156787.40000009537,156786,156509.74,156524.09999990463,156526.2,156793.235,,20,save
screen,html.Screen,2_1_1_1_21,2022-05-09T13:38:52.318Z,,,,,,,,,,,,,,,,,54,,,,,,,,,,,,,,301.36499990464654,,response,,,,100,,,,,,,Space,keypress(Space),,,,,,,,"-- --- ---- --- ------ ----- ------- ---- -- --- ------- --<br>------- ---------- ------ -- ----- -- ----- -- ---- money,<br>--- ----- --- --- ------ -------- ----- --- ------ ----- --<br>----- ----- ---------- --- --- ------ ------ ---- -- ------<br>------- --- ------ ----- --- ---- ------- -- ---- --- --<br>------- ------",157095.5,157094.59999990463,156776.197,156787.59999990463,156793.235,157109.454,,21,"money,"
screen,html.Screen,2_1_1_1_22,2022-05-09T13:38:52.711Z,,,,,,,,,,,,,,,,,54,,,,,,,,,,,,,,377.4460000953695,,response,,,,100,,,,,,,Space,keypress(Space),,,,,,,,-- --- ---- --- ------ ----- ------- ---- -- --- ------- --<br>------- ---------- ------ -- ----- -- ----- -- ---- ------<br>the ----- --- --- ------ -------- ----- --- ------ ----- --<br>----- ----- ---------- --- --- ------ ------ ---- -- ------<br>------- --- ------ ----- --- ---- ------- -- ---- --- --<br>------- ------,157488.40000009537,157486.90000009537,157092.659,157095.70000004768,157109.454,157492.826,,22,the
screen,html.Screen,2_1_1_1_23,2022-05-09T13:38:52.955Z,,,,,,,,,,,,,,,,,54,,,,,,,,,,,,,,238.47399995231535,,response,,,,100,,,,,,,Space,keypress(Space),,,,,,,,-- --- ---- --- ------ ----- ------- ---- -- --- ------- --<br>------- ---------- ------ -- ----- -- ----- -- ---- ------<br>--- state --- --- ------ -------- ----- --- ------ ----- --<br>----- ----- ---------- --- --- ------ ------ ---- -- ------<br>------- --- ------ ----- --- ---- ------- -- ---- --- --<br>------- ------,157732.59999990463,157731.29999995232,157475.714,157488.59999990463,157492.826,157742.431,,23,state
screen,html.Screen,2_1_1_1_24,2022-05-09T13:38:53.223Z,,,,,,,,,,,,,,,,,54,,,,,,,,,,,,,,257.66899990462116,,response,,,,100,,,,,,,Space,keypress(Space),,,,,,,,-- --- ---- --- ------ ----- ------- ---- -- --- ------- --<br>------- ---------- ------ -- ----- -- ----- -- ---- ------<br>--- ----- cut --- ------ -------- ----- --- ------ ----- --<br>----- ----- ---------- --- --- ------ ------ ---- -- ------<br>------- --- ------ ----- --- ---- ------- -- ---- --- --<br>------- ------,158001,158000.09999990463,157725.54,157732.79999995232,157742.431,158008.28,,24,cut
screen,html.Screen,2_1_1_1_25,2022-05-09T13:38:53.483Z,,,,,,,,,,,,,,,,,54,,,,,,,,,,,,,,250.22000000000116,,response,,,,100,,,,,,,Space,keypress(Space),,,,,,,,-- --- ---- --- ------ ----- ------- ---- -- --- ------- --<br>------- ---------- ------ -- ----- -- ----- -- ---- ------<br>--- ----- --- the ------ -------- ----- --- ------ ----- --<br>----- ----- ---------- --- --- ------ ------ ---- -- ------<br>------- --- ------ ----- --- ---- ------- -- ---- --- --<br>------- ------,158260.59999990463,158258.5,157991.889,158001.20000004768,158008.28,158274.843,,25,the
screen,html.Screen,2_1_1_1_26,2022-05-09T13:38:53.740Z,,,,,,,,,,,,,,,,,54,,,,,,,,,,,,,,241.85700004769024,,response,,,,100,,,,,,,Space,keypress(Space),,,,,,,,-- --- ---- --- ------ ----- ------- ---- -- --- ------- --<br>------- ---------- ------ -- ----- -- ----- -- ---- ------<br>--- ----- --- --- bonds' -------- ----- --- ------ ----- --<br>----- ----- ---------- --- --- ------ ------ ---- -- ------<br>------- --- ------ ----- --- ---- ------- -- ---- --- --<br>------- ------,158517.59999990463,158516.70000004768,158258.232,158260.79999995232,158274.843,158524.554,,26,bonds'
screen,html.Screen,2_1_1_1_27,2022-05-09T13:38:54.034Z,,,,,,,,,,,,,,,,,54,,,,,,,,,,,,,,286.14600004768,,response,,,,100,,,,,,,Space,keypress(Space),,,,,,,,-- --- ---- --- ------ ----- ------- ---- -- --- ------- --<br>------- ---------- ------ -- ----- -- ----- -- ---- ------<br>--- ----- --- --- ------ interest ----- --- ------ ----- --<br>----- ----- ---------- --- --- ------ ------ ---- -- ------<br>------- --- ------ ----- --- ---- ------- -- ---- --- --<br>------- ------,158811.70000004768,158810.70000004768,158508.098,158517.79999995232,158524.554,158824.355,,27,interest
screen,html.Screen,2_1_1_1_28,2022-05-09T13:38:54.328Z,,,,,,,,,,,,,,,,,54,,,,,,,,,,,,,,280.54500009535695,,response,,,,100,,,,,,,Space,keypress(Space),,,,,,,,-- --- ---- --- ------ ----- ------- ---- -- --- ------- --<br>------- ---------- ------ -- ----- -- ----- -- ---- ------<br>--- ----- --- --- ------ -------- rate. --- ------ ----- --<br>----- ----- ---------- --- --- ------ ------ ---- -- ------<br>------- --- ------ ----- --- ---- ------- -- ---- --- --<br>------- ------,159105.79999995232,159104.90000009537,158807.819,158811.79999995232,158824.355,159135.746,,28,rate.
screen,html.Screen,2_1_1_1_29,2022-05-09T13:38:54.620Z,,,,,,,,,,,,,,,,,54,,,,,,,,,,,,,,260.85399990461883,,response,,,,100,,,,,,,Space,keypress(Space),,,,,,,,-- --- ---- --- ------ ----- ------- ---- -- --- ------- --<br>------- ---------- ------ -- ----- -- ----- -- ---- ------<br>--- ----- --- --- ------ -------- ----- The ------ ----- --<br>----- ----- ---------- --- --- ------ ------ ---- -- ------<br>------- --- ------ ----- --- ---- ------- -- ---- --- --<br>------- ------,159398,159396.59999990463,159090.924,159106,159135.746,159407.608,,29,The
screen,html.Screen,2_1_1_1_30,2022-05-09T13:38:54.894Z,,,,,,,,,,,,,,,,,54,,,,,,,,,,,,,,263.39199999999255,,response,,,,100,,,,,,,Space,keypress(Space),,,,,,,,-- --- ---- --- ------ ----- ------- ---- -- --- ------- --<br>------- ---------- ------ -- ----- -- ----- -- ---- ------<br>--- ----- --- --- ------ -------- ----- --- market ----- --<br>----- ----- ---------- --- --- ------ ------ ---- -- ------<br>------- --- ------ ----- --- ---- ------- -- ---- --- --<br>------- ------,159672,159671,159390.739,159398.09999990463,159407.608,159691.494,,30,market
screen,html.Screen,2_1_1_1_31,2022-05-09T13:38:55.189Z,,,,,,,,,,,,,,,,,54,,,,,,,,,,,,,,274.20600004767766,,response,,,,100,,,,,,,Space,keypress(Space),,,,,,,,-- --- ---- --- ------ ----- ------- ---- -- --- ------- --<br>------- ---------- ------ -- ----- -- ----- -- ---- ------<br>--- ----- --- --- ------ -------- ----- --- ------ value --<br>----- ----- ---------- --- --- ------ ------ ---- -- ------<br>------- --- ------ ----- --- ---- ------- -- ---- --- --<br>------- ------,159966.79999995232,159965.70000004768,159657.104,159672.09999990463,159691.494,159973.341,,31,value
screen,html.Screen,2_1_1_1_32,2022-05-09T13:38:55.501Z,,,,,,,,,,,,,,,,,54,,,,,,,,,,,,,,303.9589999523305,,response,,,,100,,,,,,,Space,keypress(Space),,,,,,,,-- --- ---- --- ------ ----- ------- ---- -- --- ------- --<br>------- ---------- ------ -- ----- -- ----- -- ---- ------<br>--- ----- --- --- ------ -------- ----- --- ------ ----- of<br>----- ----- ---------- --- --- ------ ------ ---- -- ------<br>------- --- ------ ----- --- ---- ------- -- ---- --- --<br>------- ------,160278.29999995232,160277.29999995232,159956.864,159967,159973.341,160289.735,,32,of
screen,html.Screen,2_1_1_1_33,2022-05-09T13:38:55.796Z,,,,,,,,,,,,,,,,,54,,,,,,,,,,,,,,282.6650000953814,,response,,,,100,,,,,,,Space,keypress(Space),,,,,,,,-- --- ---- --- ------ ----- ------- ---- -- --- ------- --<br>------- ---------- ------ -- ----- -- ----- -- ---- ------<br>--- ----- --- --- ------ -------- ----- --- ------ ----- --<br>these ----- ---------- --- --- ------ ------ ---- -- ------<br>------- --- ------ ----- --- ---- ------- -- ---- --- --<br>------- ------,160573.70000004768,160572.40000009537,160273.298,160278.40000009537,160289.735,160589.546,,33,these
screen,html.Screen,2_1_1_1_34,2022-05-09T13:38:56.065Z,,,,,,,,,,,,,,,,,54,,,,,,,,,,,,,,250.4539999999979,,response,,,,100,,,,,,,Space,keypress(Space),,,,,,,,-- --- ---- --- ------ ----- ------- ---- -- --- ------- --<br>------- ---------- ------ -- ----- -- ----- -- ---- ------<br>--- ----- --- --- ------ -------- ----- --- ------ ----- --<br>----- bonds ---------- --- --- ------ ------ ---- -- ------<br>------- --- ------ ----- --- ---- ------- -- ---- --- --<br>------- ------,160842.20000004768,160840,160573.101,160573.90000009537,160589.546,160855.984,,34,bonds
screen,html.Screen,2_1_1_1_35,2022-05-09T13:38:56.375Z,,,,,,,,,,,,,,,,,54,,,,,,,,,,,,,,295.4160000953707,,response,,,,100,,,,,,,Space,keypress(Space),,,,,,,,"-- --- ---- --- ------ ----- ------- ---- -- --- ------- --<br>------- ---------- ------ -- ----- -- ----- -- ---- ------<br>--- ----- --- --- ------ -------- ----- --- ------ ----- --<br>----- ----- plummeted, --- --- ------ ------ ---- -- ------<br>------- --- ------ ----- --- ---- ------- -- ---- --- --<br>------- ------",161152.29999995232,161151.40000009537,160839.434,160842.29999995232,160855.984,161155.847,,35,"plummeted,"
screen,html.Screen,2_1_1_1_36,2022-05-09T13:38:56.669Z,,,,,,,,,,,,,,,,,54,,,,,,,,,,,,,,289.65299999999115,,response,,,,100,,,,,,,Space,keypress(Space),,,,,,,,-- --- ---- --- ------ ----- ------- ---- -- --- ------- --<br>------- ---------- ------ -- ----- -- ----- -- ---- ------<br>--- ----- --- --- ------ -------- ----- --- ------ ----- --<br>----- ----- ---------- and --- ------ ------ ---- -- ------<br>------- --- ------ ----- --- ---- ------- -- ---- --- --<br>------- ------,161446.40000009537,161445.5,161139.253,161152.5,161155.847,161455.639,,36,and
screen,html.Screen,2_1_1_1_37,2022-05-09T13:38:56.955Z,,,,,,,,,,,,,,,,,54,,,,,,,,,,,,,,275.56100004768814,,response,,,,100,,,,,,,Space,keypress(Space),,,,,,,,-- --- ---- --- ------ ----- ------- ---- -- --- ------- --<br>------- ---------- ------ -- ----- -- ----- -- ---- ------<br>--- ----- --- --- ------ -------- ----- --- ------ ----- --<br>----- ----- ---------- --- the ------ ------ ---- -- ------<br>------- --- ------ ----- --- ---- ------- -- ---- --- --<br>------- ------,161732.40000009537,161731.20000004768,161439.31,161446.59999990463,161455.639,161738.92,,37,the
screen,html.Screen,2_1_1_1_38,2022-05-09T13:38:57.254Z,,,,,,,,,,,,,,,,,54,,,,,,,,,,,,,,291.7800000476709,,response,,,,100,,,,,,,Space,keypress(Space),,,,,,,,-- --- ---- --- ------ ----- ------- ---- -- --- ------- --<br>------- ---------- ------ -- ----- -- ----- -- ---- ------<br>--- ----- --- --- ------ -------- ----- --- ------ ----- --<br>----- ----- ---------- --- --- market ------ ---- -- ------<br>------- --- ------ ----- --- ---- ------- -- ---- --- --<br>------- ------,162031.5,162030.70000004768,161722.08,161732.59999990463,161738.92,162038.221,,38,market
screen,html.Screen,2_1_1_1_39,2022-05-09T13:38:57.547Z,,,,,,,,,,,,,,,,,54,,,,,,,,,,,,,,283.3789999046421,,response,,,,100,,,,,,,Space,keypress(Space),,,,,,,,-- --- ---- --- ------ ----- ------- ---- -- --- ------- --<br>------- ---------- ------ -- ----- -- ----- -- ---- ------<br>--- ----- --- --- ------ -------- ----- --- ------ ----- --<br>----- ----- ---------- --- --- ------ became ---- -- ------<br>------- --- ------ ----- --- ---- ------- -- ---- --- --<br>------- ------,162324.20000004768,162321.59999990463,162021.809,162031.70000004768,162038.221,162338.08,,39,became
screen,html.Screen,2_1_1_1_40,2022-05-09T13:38:57.824Z,,,,,,,,,,,,,,,,,54,,,,,,,,,,,,,,262.5199999046454,,response,,,,100,,,,,,,Space,keypress(Space),,,,,,,,-- --- ---- --- ------ ----- ------- ---- -- --- ------- --<br>------- ---------- ------ -- ----- -- ----- -- ---- ------<br>--- ----- --- --- ------ -------- ----- --- ------ ----- --<br>----- ----- ---------- --- --- ------ ------ wary -- ------<br>------- --- ------ ----- --- ---- ------- -- ---- --- --<br>------- ------,162601.5,162600.59999990463,162321.604,162324.40000009537,162338.08,162604.472,,40,wary
screen,html.Screen,2_1_1_1_41,2022-05-09T13:38:58.146Z,,,,,,,,,,,,,,,,,54,,,,,,,,,,,,,,318.22800004767487,,response,,,,100,,,,,,,Space,keypress(Space),,,,,,,,-- --- ---- --- ------ ----- ------- ---- -- --- ------- --<br>------- ---------- ------ -- ----- -- ----- -- ---- ------<br>--- ----- --- --- ------ -------- ----- --- ------ ----- --<br>----- ----- ---------- --- --- ------ ------ ---- of ------<br>------- --- ------ ----- --- ---- ------- -- ---- --- --<br>------- ------,162923.59999990463,162922.70000004768,162588.059,162601.59999990463,162604.472,162937.566,,41,of
screen,html.Screen,2_1_1_1_42,2022-05-09T13:38:58.466Z,,,,,,,,,,,,,,,,,54,,,,,,,,,,,,,,304.53399990464095,,response,,,,100,,,,,,,Space,keypress(Space),,,,,,,,-- --- ---- --- ------ ----- ------- ---- -- --- ------- --<br>------- ---------- ------ -- ----- -- ----- -- ---- ------<br>--- ----- --- --- ------ -------- ----- --- ------ ----- --<br>----- ----- ---------- --- --- ------ ------ ---- -- French<br>------- --- ------ ----- --- ---- ------- -- ---- --- --<br>------- ------,163243.09999990463,163242.09999990463,162921.832,162923.70000004768,162937.566,163254.579,,42,French
screen,html.Screen,2_1_1_1_43,2022-05-09T13:38:58.777Z,,,,,,,,,,,,,,,,,54,,,,,,,,,,,,,,298.4210000000021,,response,,,,100,,,,,,,Space,keypress(Space),,,,,,,,-- --- ---- --- ------ ----- ------- ---- -- --- ------- --<br>------- ---------- ------ -- ----- -- ----- -- ---- ------<br>--- ----- --- --- ------ -------- ----- --- ------ ----- --<br>----- ----- ---------- --- --- ------ ------ ---- -- ------<br>credit. --- ------ ----- --- ---- ------- -- ---- --- --<br>------- ------,163554.59999990463,163553,163237.515,163243.29999995232,163254.579,163570.352,,43,credit.
screen,html.Screen,2_1_1_1_44,2022-05-09T13:38:59.105Z,,,,,,,,,,,,,,,,,54,,,,,,,,,,,,,,311.3480000476702,,response,,,,100,,,,,,,Space,keypress(Space),,,,,,,,-- --- ---- --- ------ ----- ------- ---- -- --- ------- --<br>------- ---------- ------ -- ----- -- ----- -- ---- ------<br>--- ----- --- --- ------ -------- ----- --- ------ ----- --<br>----- ----- ---------- --- --- ------ ------ ---- -- ------<br>------- The ------ ----- --- ---- ------- -- ---- --- --<br>------- ------,163882.70000004768,163881.70000004768,163553.958,163554.70000004768,163570.352,163886.723,,44,The
screen,html.Screen,2_1_1_1_45,2022-05-09T13:38:59.405Z,,,,,,,,,,,,,,,,,54,,,,,,,,,,,,,,294.27700000000186,,response,,,,100,,,,,,,Space,keypress(Space),,,,,,,,-- --- ---- --- ------ ----- ------- ---- -- --- ------- --<br>------- ---------- ------ -- ----- -- ----- -- ---- ------<br>--- ----- --- --- ------ -------- ----- --- ------ ----- --<br>----- ----- ---------- --- --- ------ ------ ---- -- ------<br>------- --- French ----- --- ---- ------- -- ---- --- --<br>------- ------,164182.40000009537,164181,163870.349,163882.79999995232,163886.723,164187.772,,45,French
screen,html.Screen,2_1_1_1_46,2022-05-09T13:38:59.706Z,,,,,,,,,,,,,,,,,54,,,,,,,,,,,,,,295.32799990463536,,response,,,,100,,,,,,,Space,keypress(Space),,,,,,,,-- --- ---- --- ------ ----- ------- ---- -- --- ------- --<br>------- ---------- ------ -- ----- -- ----- -- ---- ------<br>--- ----- --- --- ------ -------- ----- --- ------ ----- --<br>----- ----- ---------- --- --- ------ ------ ---- -- ------<br>------- --- ------ state --- ---- ------- -- ---- --- --<br>------- ------,164484,164483.09999990463,164170.098,164182.5,164187.772,164486.213,,46,state
screen,html.Screen,2_1_1_1_47,2022-05-09T13:39:00.026Z,,,,,,,,,,,,,,,,,54,,,,,,,,,,,,,,315.58699995232746,,response,,,,100,,,,,,,Space,keypress(Space),,,,,,,,-- --- ---- --- ------ ----- ------- ---- -- --- ------- --<br>------- ---------- ------ -- ----- -- ----- -- ---- ------<br>--- ----- --- --- ------ -------- ----- --- ------ ----- --<br>----- ----- ---------- --- --- ------ ------ ---- -- ------<br>------- --- ------ ----- was ---- ------- -- ---- --- --<br>------- ------,164803.09999990463,164801.79999995232,164470.12,164484.20000004768,164486.213,164819.288,,47,was
screen,html.Screen,2_1_1_1_48,2022-05-09T13:39:00.318Z,,,,,,,,,,,,,,,,,54,,,,,,,,,,,,,,275.11200009536697,,response,,,,100,,,,,,,Space,keypress(Space),,,,,,,,-- --- ---- --- ------ ----- ------- ---- -- --- ------- --<br>------- ---------- ------ -- ----- -- ----- -- ---- ------<br>--- ----- --- --- ------ -------- ----- --- ------ ----- --<br>----- ----- ---------- --- --- ------ ------ ---- -- ------<br>------- --- ------ ----- --- left ------- -- ---- --- --<br>------- ------,165095.40000009537,165094.40000009537,164802.895,164803.29999995232,164819.288,165102.483,,48,left
screen,html.Screen,2_1_1_1_49,2022-05-09T13:39:00.626Z,,,,,,,,,,,,,,,,,54,,,,,,,,,,,,,,298.6169999046251,,response,,,,100,,,,,,,Space,keypress(Space),,,,,,,,-- --- ---- --- ------ ----- ------- ---- -- --- ------- --<br>------- ---------- ------ -- ----- -- ----- -- ---- ------<br>--- ----- --- --- ------ -------- ----- --- ------ ----- --<br>----- ----- ---------- --- --- ------ ------ ---- -- ------<br>------- --- ------ ----- --- ---- without -- ---- --- --<br>------- ------,165403.20000004768,165401.09999990463,165086.292,165095.59999990463,165102.483,165418.851,,49,without
screen,html.Screen,2_1_1_1_50,2022-05-09T13:39:00.937Z,,,,,,,,,,,,,,,,,54,,,,,,,,,,,,,,294.8490000476886,,response,,,,100,,,,,,,Space,keypress(Space),,,,,,,,-- --- ---- --- ------ ----- ------- ---- -- --- ------- --<br>------- ---------- ------ -- ----- -- ----- -- ---- ------<br>--- ----- --- --- ------ -------- ----- --- ------ ----- --<br>----- ----- ---------- --- --- ------ ------ ---- -- ------<br>------- --- ------ ----- --- ---- ------- an ---- --- --<br>------- ------,165714.59999990463,165713.70000004768,165402.567,165403.5,165418.851,165718.555,,50,an
screen,html.Screen,2_1_1_1_51,2022-05-09T13:39:01.248Z,,,,,,,,,,,,,,,,,54,,,,,,,,,,,,,,305.24499995232327,,response,,,,100,,,,,,,Space,keypress(Space),,,,,,,,-- --- ---- --- ------ ----- ------- ---- -- --- ------- --<br>------- ---------- ------ -- ----- -- ----- -- ---- ------<br>--- ----- --- --- ------ -------- ----- --- ------ ----- --<br>----- ----- ---------- --- --- ------ ------ ---- -- ------<br>------- --- ------ ----- --- ---- ------- -- easy --- --<br>------- ------,166025.09999990463,166023.79999995232,165702.148,165714.70000004768,165718.555,166034.935,,51,easy
screen,html.Screen,2_1_1_1_52,2022-05-09T13:39:01.569Z,,,,,,,,,,,,,,,,,54,,,,,,,,,,,,,,310.96500009536976,,response,,,,100,,,,,,,Space,keypress(Space),,,,,,,,-- --- ---- --- ------ ----- ------- ---- -- --- ------- --<br>------- ---------- ------ -- ----- -- ----- -- ---- ------<br>--- ----- --- --- ------ -------- ----- --- ------ ----- --<br>----- ----- ---------- --- --- ------ ------ ---- -- ------<br>------- --- ------ ----- --- ---- ------- -- ---- way --<br>------- ------,166346.79999995232,166345.90000009537,166018.571,166025.40000009537,166034.935,166351.359,,52,way
screen,html.Screen,2_1_1_1_53,2022-05-09T13:39:01.880Z,,,,,,,,,,,,,,,,,54,,,,,,,,,,,,,,304.7409999046358,,response,,,,100,,,,,,,Space,keypress(Space),,,,,,,,-- --- ---- --- ------ ----- ------- ---- -- --- ------- --<br>------- ---------- ------ -- ----- -- ----- -- ---- ------<br>--- ----- --- --- ------ -------- ----- --- ------ ----- --<br>----- ----- ---------- --- --- ------ ------ ---- -- ------<br>------- --- ------ ----- --- ---- ------- -- ---- --- of<br>------- ------,166657.5,166656.09999990463,166334.901,166347,166351.359,166667.879,,53,of
screen,html.Screen,2_1_1_1_54,2022-05-09T13:39:02.211Z,,,,,,,,,,,,,,,,,54,,,,,,,,,,,,,,319.2209999046463,,response,,,,100,,,,,,,Space,keypress(Space),,,,,,,,-- --- ---- --- ------ ----- ------- ---- -- --- ------- --<br>------- ---------- ------ -- ----- -- ----- -- ---- ------<br>--- ----- --- --- ------ -------- ----- --- ------ ----- --<br>----- ----- ---------- --- --- ------ ------ ---- -- ------<br>------- --- ------ ----- --- ---- ------- -- ---- --- --<br>raising ------,166988.20000004768,166987.09999990463,166651.302,166657.70000004768,166667.879,167000.901,,54,raising
screen,html.Screen,2_1_1_1_55,2022-05-09T13:39:02.664Z,,,,,,,,,,,,,,,,,54,,,,,,,,,,,,,,439.5989999999874,,response,,,,100,,,,,,,Space,keypress(Space),,,,,,,,-- --- ---- --- ------ ----- ------- ---- -- --- ------- --<br>------- ---------- ------ -- ----- -- ----- -- ---- ------<br>--- ----- --- --- ------ -------- ----- --- ------ ----- --<br>----- ----- ---------- --- --- ------ ------ ---- -- ------<br>------- --- ------ ----- --- ---- ------- -- ---- --- --<br>------- money.,167441.79999995232,167440.5,166984.439,166988.40000009537,167000.901,167450.429,,55,money.
Item 100,flow.Loop,2_1_1_1,2022-05-09T13:39:02.665Z,,,,,,,,,,,,,,,,,,,,,,,,,,,,,,,17092.51800000001,,completion,,,,,F,,,,,,,,,,,silence,,,,,167442.20000004768,167440.5,150331.342,150334.90000009537,150347.982,167450.429,,,
Question 1,html.Screen,2_1_1_2,2022-05-09T13:39:04.661Z,,,,,,,,,,,,,,,,,,,,,,,,,,,,true,TRUE,,1987.0709999999963,,response,,,,100,F,,,,,,TRUE,click #choice-1,,,,silence,,,,,169438.70000004768,169437.5,167434.094,167442.29999995232,167450.429,169448.774,,,
Question 2,html.Screen,2_1_1_3,2022-05-09T13:39:06.255Z,,,,,,,,,,,,,,,,,,,,,,,,,,,,true,FALSE,,1582.3259999046277,,response,,,,100,F,,,,,,FALSE,click #choice-2,,,,silence,,,,,171032.40000009537,171031.09999990463,169432.188,169438.90000009537,169448.774,171047.482,,,
Item 100,flow.Sequence,2_1_1,2022-05-09T13:39:06.255Z,,,,,,,,,,,,,,,,,,,,,,,,,,,,,,,30691.425999904633,,completion,,,,,,,,,,,,,,,,,,,,,171032.70000004768,171031.09999990463,140323.084,140325.79999995232,140339.674,171047.482,,,
End of Practice,html.Page,2_1_2,2022-05-09T13:39:11.947Z,,,,,,,,,,,,,,,,,,,,,,,,,,,,,,,5676.817999952327,,form submission,,,,,,,,,,,,,,,,,,,,,176724.59999990463,176724.29999995232,171031.436,171032.79999995232,171047.482,176726.085,,,
Practice,flow.Sequence,2_1,2022-05-09T13:39:11.947Z,,,,,,,,,,,,,,,,,,,,,,,,,,,,,,,71571.85399995232,,completion,,,,,,,,,,,,,,,,,,,,,176724.90000009537,176724.29999995232,105135.604,105144.79999995232,105152.446,176726.085,,,
Trap_instruction,html.Page,2_2_0,2022-05-09T13:39:15.564Z,,,,,,,,,,,,,,,,,,,,,,,,,,,,,,,3615.2149999523244,,form submission,,,,,,,,,,,,,,,,,,,,,180341.59999990463,180341.29999995232,176709.472,176725,176726.085,180373.036,,,
trap_trial,html.Screen,2_2_1,2022-05-09T13:39:19.547Z,,,,,,,,,,,,,,,,,,,,,,,,,,,,true,1,,3949.464000000007,,response,,,,,,,,,,,1,click #choice-1,,,,,,,,,184324.59999990463,184322.5,180339.774,180341.79999995232,180373.036,184336.57,,,
end of trap trial,html.Page,2_2_2,2022-05-09T13:39:29.551Z,,,,,,,,,,,,,,,,,,,,,,,,,,,,,,,10008.101999999984,,timeout,,,,,,,,,,,,,,,,,,,,,194329.29999995232,194328.103,184319.831,184324.79999995232,184336.57,194344.672,,,
Trap 1,flow.Sequence,2_2,2022-05-09T13:39:29.552Z,,,,,,,,,,,,,,,,,,,,,,,,,,,,,,,17602.01800000001,,completion,,,,,,,,,,,,,,,,,,,,,194329.5,194328.103,176709.472,176725,176726.085,194344.672,,,
Standby,html.Page,2_3_0,2022-05-09T13:39:37.545Z,,,,,,,,,,,,,,,,,,,,,,,,,,,,,,,7993.341000000015,,timeout,,,,,,,,,,,,,,,,,,,,,202322.40000009537,202321.422,194328.103,194329.70000004768,194344.672,202338.013,,,
Holding screen,html.Screen,2_3_1_0_0,2022-05-09T13:39:44.539Z,,,,,,,,,,,,,,,,,,,,,,,,,,,,,,,6994.234999999986,,timeout,,,,,,,,,,,,,,,,,,,,,209316.5,209315.633,202321.422,202322.70000004768,202338.013,209332.248,,,
screen,html.Screen,2_3_1_0_1_0,2022-05-09T13:39:45.479Z,,,,,,,,,,,,,,,,,12,,,,,,,,,,,,,,923.1520000953751,,response,,,,5,F,,,,,,Space,keypress(Space),,,,lyrical,,,,Some ------ ------ ------- ------ --- ------- -----------<br>-- ----- --- ---- -- --- ------ ---- - ---- -- ----------<br>-- ------ ---- --- ---- --- --- --- ----- -- -------- ---<br>------ ------- -------- --- ---- -- ------- ------------ --<br>------ -- ---- -- --- ---- -- -------- -- --- ------ ------,210257,210255.40000009537,209315.633,209316.79999995232,209332.248,210264.832,,0,Some
screen,html.Screen,2_3_1_0_1_1,2022-05-09T13:39:45.716Z,,,,,,,,,,,,,,,,,12,,,,,,,,,,,,,,228.36800004768884,,response,,,,5,F,,,,,,Space,keypress(Space),,,,lyrical,,,,---- months ------ ------- ------ --- ------- -----------<br>-- ----- --- ---- -- --- ------ ---- - ---- -- ----------<br>-- ------ ---- --- ---- --- --- --- ----- -- -------- ---<br>------ ------- -------- --- ---- -- ------- ------------ --<br>------ -- ---- -- --- ---- -- -------- -- --- ------ ------,210494.09999990463,210493.20000004768,210248.947,210257.20000004768,210264.832,210497.964,,1,months
screen,html.Screen,2_3_1_0_1_2,2022-05-09T13:39:45.990Z,,,,,,,,,,,,,,,,,12,,,,,,,,,,,,,,269.5359999999928,,response,,,,5,F,,,,,,Space,keypress(Space),,,,lyrical,,,,"---- ------ later, ------- ------ --- ------- -----------<br>-- ----- --- ---- -- --- ------ ---- - ---- -- ----------<br>-- ------ ---- --- ---- --- --- --- ----- -- -------- ---<br>------ ------- -------- --- ---- -- ------- ------------ --<br>------ -- ---- -- --- ---- -- -------- -- --- ------ ------",210768.29999995232,210767.5,210481.487,210494.29999995232,210497.964,210781.113,,2,"later,"
screen,html.Screen,2_3_1_0_1_3,2022-05-09T13:39:46.203Z,,,,,,,,,,,,,,,,,12,,,,,,,,,,,,,,198.5870000476716,,response,,,,5,F,,,,,,Space,keypress(Space),,,,lyrical,,,,---- ------ ------ Michael ------ --- ------- -----------<br>-- ----- --- ---- -- --- ------ ---- - ---- -- ----------<br>-- ------ ---- --- ---- --- --- --- ----- -- -------- ---<br>------ ------- -------- --- ---- -- ------- ------------ --<br>------ -- ---- -- --- ---- -- -------- -- --- ------ ------,210980.59999990463,210979.70000004768,210765.028,210768.5,210781.113,210997.598,,3,Michael
screen,html.Screen,2_3_1_0_1_4,2022-05-09T13:39:46.434Z,,,,,,,,,,,,,,,,,12,,,,,,,,,,,,,,213.50199990463443,,response,,,,5,F,,,,,,Space,keypress(Space),,,,lyrical,,,,---- ------ ------ ------- Larson --- ------- -----------<br>-- ----- --- ---- -- --- ------ ---- - ---- -- ----------<br>-- ------ ---- --- ---- --- --- --- ----- -- -------- ---<br>------ ------- -------- --- ---- -- ------- ------------ --<br>------ -- ---- -- --- ---- -- -------- -- --- ------ ------,211212,211211.09999990463,210981.053,210980.79999995232,210997.598,211214.028,,4,Larson
screen,html.Screen,2_3_1_0_1_5,2022-05-09T13:39:46.735Z,,,,,,,,,,,,,,,,,12,,,,,,,,,,,,,,298.17200004769256,,response,,,,5,F,,,,,,Space,keypress(Space),,,,lyrical,,,,---- ------ ------ ------- ------ saw ------- -----------<br>-- ----- --- ---- -- --- ------ ---- - ---- -- ----------<br>-- ------ ---- --- ---- --- --- --- ----- -- -------- ---<br>------ ------- -------- --- ---- -- ------- ------------ --<br>------ -- ---- -- --- ---- -- -------- -- --- ------ ------,211513.20000004768,211512.20000004768,211197.496,211212.09999990463,211214.028,211530.53,,5,saw
screen,html.Screen,2_3_1_0_1_6,2022-05-09T13:39:46.975Z,,,,,,,,,,,,,,,,,12,,,,,,,,,,,,,,221.67000004768488,,response,,,,5,F,,,,,,Space,keypress(Space),,,,lyrical,,,,---- ------ ------ ------- ------ --- another -----------<br>-- ----- --- ---- -- --- ------ ---- - ---- -- ----------<br>-- ------ ---- --- ---- --- --- --- ----- -- -------- ---<br>------ ------- -------- --- ---- -- ------- ------------ --<br>------ -- ---- -- --- ---- -- -------- -- --- ------ ------,211753,211752.20000004768,211514.099,211513.5,211530.53,211763.619,,6,another
screen,html.Screen,2_3_1_0_1_7,2022-05-09T13:39:47.177Z,,,,,,,,,,,,,,,,,12,,,,,,,,,,,,,,189.98099990462651,,response,,,,5,F,,,,,,Space,keypress(Space),,,,lyrical,,,,---- ------ ------ ------- ------ --- ------- opportunity<br>-- ----- --- ---- -- --- ------ ---- - ---- -- ----------<br>-- ------ ---- --- ---- --- --- --- ----- -- -------- ---<br>------ ------- -------- --- ---- -- ------- ------------ --<br>------ -- ---- -- --- ---- -- -------- -- --- ------ ------,211954.5,211953.59999990463,211747.099,211753.20000004768,211763.619,211963.369,,7,opportunity
screen,html.Screen,2_3_1_0_1_8,2022-05-09T13:39:47.534Z,,,,,,,,,,,,,,,,,12,,,,,,,,,,,,,,347.33100004767766,,response,,,,5,F,,,,,,Space,keypress(Space),,,,lyrical,,,,---- ------ ------ ------- ------ --- ------- -----------<br>to ----- --- ---- -- --- ------ ---- - ---- -- ----------<br>-- ------ ---- --- ---- --- --- --- ----- -- -------- ---<br>------ ------- -------- --- ---- -- ------- ------------ --<br>------ -- ---- -- --- ---- -- -------- -- --- ------ ------,212311.90000009537,212310.70000004768,211946.928,211954.59999990463,211963.369,212314.541,,8,to
screen,html.Screen,2_3_1_0_1_9,2022-05-09T13:39:47.744Z,,,,,,,,,,,,,,,,,12,,,,,,,,,,,,,,206.75899995231885,,response,,,,5,F,,,,,,Space,keypress(Space),,,,lyrical,,,,---- ------ ------ ------- ------ --- ------- -----------<br>-- stack --- ---- -- --- ------ ---- - ---- -- ----------<br>-- ------ ---- --- ---- --- --- --- ----- -- -------- ---<br>------ ------- -------- --- ---- -- ------- ------------ --<br>------ -- ---- -- --- ---- -- -------- -- --- ------ ------,212522,212521.29999995232,212296.726,212312,212314.541,212529.744,,9,stack
screen,html.Screen,2_3_1_0_1_10,2022-05-09T13:39:47.949Z,,,,,,,,,,,,,,,,,12,,,,,,,,,,,,,,195.85599990462651,,response,,,,5,F,,,,,,Space,keypress(Space),,,,lyrical,,,,---- ------ ------ ------- ------ --- ------- -----------<br>-- ----- the ---- -- --- ------ ---- - ---- -- ----------<br>-- ------ ---- --- ---- --- --- --- ----- -- -------- ---<br>------ ------- -------- --- ---- -- ------- ------------ --<br>------ -- ---- -- --- ---- -- -------- -- --- ------ ------,212726.79999995232,212725.59999990463,212513.28,212522.29999995232,212529.744,212729.457,,10,the
screen,html.Screen,2_3_1_0_1_11,2022-05-09T13:39:48.158Z,,,,,,,,,,,,,,,,,12,,,,,,,,,,,,,,204.94300009537255,,response,,,,5,F,,,,,,Space,keypress(Space),,,,lyrical,,,,---- ------ ------ ------- ------ --- ------- -----------<br>-- ----- --- odds -- --- ------ ---- - ---- -- ----------<br>-- ------ ---- --- ---- --- --- --- ----- -- -------- ---<br>------ ------- -------- --- ---- -- ------- ------------ --<br>------ -- ---- -- --- ---- -- -------- -- --- ------ ------,212935.5,212934.40000009537,212712.975,212726.90000009537,212729.457,212945.972,,11,odds
screen,html.Screen,2_3_1_0_1_12,2022-05-09T13:39:48.370Z,,,,,,,,,,,,,,,,,12,,,,,,,,,,,,,,201.02799999999115,,response,,,,5,F,,,,,,Space,keypress(Space),,,,lyrical,,,,---- ------ ------ ------- ------ --- ------- -----------<br>-- ----- --- ---- in --- ------ ---- - ---- -- ----------<br>-- ------ ---- --- ---- --- --- --- ----- -- -------- ---<br>------ ------- -------- --- ---- -- ------- ------------ --<br>------ -- ---- -- --- ---- -- -------- -- --- ------ ------,213147.90000009537,213147,212929.41,212935.70000004768,212945.972,213162.524,,12,in
screen,html.Screen,2_3_1_0_1_13,2022-05-09T13:39:48.586Z,,,,,,,,,,,,,,,,,12,,,,,,,,,,,,,,199.9759999999951,,response,,,,5,F,,,,,,Space,keypress(Space),,,,lyrical,,,,---- ------ ------ ------- ------ --- ------- -----------<br>-- ----- --- ---- -- his ------ ---- - ---- -- ----------<br>-- ------ ---- --- ---- --- --- --- ----- -- -------- ---<br>------ ------- -------- --- ---- -- ------- ------------ --<br>------ -- ---- -- --- ---- -- -------- -- --- ------ ------,213364,213362.5,213145.892,213148.09999990463,213162.524,213378.943,,13,his
screen,html.Screen,2_3_1_0_1_14,2022-05-09T13:39:48.802Z,,,,,,,,,,,,,,,,,12,,,,,,,,,,,,,,199.65699990463327,,response,,,,5,F,,,,,,Space,keypress(Space),,,,lyrical,,,,---- ------ ------ ------- ------ --- ------- -----------<br>-- ----- --- ---- -- --- favour ---- - ---- -- ----------<br>-- ------ ---- --- ---- --- --- --- ----- -- -------- ---<br>------ ------- -------- --- ---- -- ------- ------------ --<br>------ -- ---- -- --- ---- -- -------- -- --- ------ ------,213580,213578.59999990463,213362.447,213364.09999990463,213378.943,213595.475,,14,favour
screen,html.Screen,2_3_1_0_1_15,2022-05-09T13:39:49.024Z,,,,,,,,,,,,,,,,,12,,,,,,,,,,,,,,205.02499999999418,,response,,,,5,F,,,,,,Space,keypress(Space),,,,lyrical,,,,---- ------ ------ ------- ------ --- ------- -----------<br>-- ----- --- ---- -- --- ------ with - ---- -- ----------<br>-- ------ ---- --- ---- --- --- --- ----- -- -------- ---<br>------ ------- -------- --- ---- -- ------- ------------ --<br>------ -- ---- -- --- ---- -- -------- -- --- ------ ------,213801.40000009537,213800.5,213578.911,213580.20000004768,213595.475,213811.849,,15,with
screen,html.Screen,2_3_1_0_1_16,2022-05-09T13:39:49.233Z,,,,,,,,,,,,,,,,,12,,,,,,,,,,,,,,197.45099995232886,,response,,,,5,F,,,,,,Space,keypress(Space),,,,lyrical,,,,---- ------ ------ ------- ------ --- ------- -----------<br>-- ----- --- ---- -- --- ------ ---- a ---- -- ----------<br>-- ------ ---- --- ---- --- --- --- ----- -- -------- ---<br>------ ------- -------- --- ---- -- ------- ------------ --<br>------ -- ---- -- --- ---- -- -------- -- --- ------ ------,214010.59999990463,214009.29999995232,213795.357,213801.70000004768,213811.849,214028.435,,16,a
screen,html.Screen,2_3_1_0_1_17,2022-05-09T13:39:49.442Z,,,,,,,,,,,,,,,,,12,,,,,,,,,,,,,,190.46500009536976,,response,,,,5,F,,,,,,Space,keypress(Space),,,,lyrical,,,,---- ------ ------ ------- ------ --- ------- -----------<br>-- ----- --- ---- -- --- ------ ---- - dash -- ----------<br>-- ------ ---- --- ---- --- --- --- ----- -- -------- ---<br>------ ------- -------- --- ---- -- ------- ------------ --<br>------ -- ---- -- --- ---- -- -------- -- --- ------ ------,214219.79999995232,214218.90000009537,214011.866,214012.70000004768,214028.435,214228.218,,17,dash
screen,html.Screen,2_3_1_0_1_18,2022-05-09T13:39:49.692Z,,,,,,,,,,,,,,,,,12,,,,,,,,,,,,,,240.5819999523228,,response,,,,5,F,,,,,,Space,keypress(Space),,,,lyrical,,,,---- ------ ------ ------- ------ --- ------- -----------<br>-- ----- --- ---- -- --- ------ ---- - ---- of ----------<br>-- ------ ---- --- ---- --- --- --- ----- -- -------- ---<br>------ ------- -------- --- ---- -- ------- ------------ --<br>------ -- ---- -- --- ---- -- -------- -- --- ------ ------,214470.09999990463,214468.79999995232,214211.693,214220,214228.218,214478.032,,18,of
screen,html.Screen,2_3_1_0_1_19,2022-05-09T13:39:50.012Z,,,,,,,,,,,,,,,,,12,,,,,,,,,,,,,,310.4679999999935,,response,,,,5,F,,,,,,Space,keypress(Space),,,,lyrical,,,,---- ------ ------ ------- ------ --- ------- -----------<br>-- ----- --- ---- -- --- ------ ---- - ---- -- ingenuity.<br>-- ------ ---- --- ---- --- --- --- ----- -- -------- ---<br>------ ------- -------- --- ---- -- ------- ------------ --<br>------ -- ---- -- --- ---- -- -------- -- --- ------ ------,214789.40000009537,214788.5,214461.522,214470.29999995232,214478.032,214794.386,,19,ingenuity.
screen,html.Screen,2_3_1_0_1_20,2022-05-09T13:39:50.392Z,,,,,,,,,,,,,,,,,12,,,,,,,,,,,,,,374.6140000000014,,response,,,,5,F,,,,,,Space,keypress(Space),,,,lyrical,,,,---- ------ ------ ------- ------ --- ------- -----------<br>-- ----- --- ---- -- --- ------ ---- - ---- -- ----------<br>He ------ ---- --- ---- --- --- --- ----- -- -------- ---<br>------ ------- -------- --- ---- -- ------- ------------ --<br>------ -- ---- -- --- ---- -- -------- -- --- ------ ------,215170,215169,214778.021,214789.70000004768,214794.386,215177.413,,20,He
screen,html.Screen,2_3_1_0_1_21,2022-05-09T13:39:50.607Z,,,,,,,,,,,,,,,,,12,,,,,,,,,,,,,,206.38699995231582,,response,,,,5,F,,,,,,Space,keypress(Space),,,,lyrical,,,,---- ------ ------ ------- ------ --- ------- -----------<br>-- ----- --- ---- -- --- ------ ---- - ---- -- ----------<br>-- walked ---- --- ---- --- --- --- ----- -- -------- ---<br>------ ------- -------- --- ---- -- ------- ------------ --<br>------ -- ---- -- --- ---- -- -------- -- --- ------ ------,215385,215383.79999995232,215161.024,215170.20000004768,215177.413,215393.89,,21,walked
screen,html.Screen,2_3_1_0_1_22,2022-05-09T13:39:50.948Z,,,,,,,,,,,,,,,,,12,,,,,,,,,,,,,,329.81000004766975,,response,,,,5,F,,,,,,Space,keypress(Space),,,,lyrical,,,,---- ------ ------ ------- ------ --- ------- -----------<br>-- ----- --- ---- -- --- ------ ---- - ---- -- ----------<br>-- ------ into --- ---- --- --- --- ----- -- -------- ---<br>------ ------- -------- --- ---- -- ------- ------------ --<br>------ -- ---- -- --- ---- -- -------- -- --- ------ ------,215726.29999995232,215723.70000004768,215377.415,215385.20000004768,215393.89,215743.634,,22,into
screen,html.Screen,2_3_1_0_1_23,2022-05-09T13:39:51.216Z,,,,,,,,,,,,,,,,,12,,,,,,,,,,,,,,248.66599995232536,,response,,,,5,F,,,,,,Space,keypress(Space),,,,lyrical,,,,---- ------ ------ ------- ------ --- ------- -----------<br>-- ----- --- ---- -- --- ------ ---- - ---- -- ----------<br>-- ------ ---- his ---- --- --- --- ----- -- -------- ---<br>------ ------- -------- --- ---- -- ------- ------------ --<br>------ -- ---- -- --- ---- -- -------- -- --- ------ ------,215993.59999990463,215992.29999995232,215727.19,215726.5,215743.634,216010.138,,23,his
screen,html.Screen,2_3_1_0_1_24,2022-05-09T13:39:51.451Z,,,,,,,,,,,,,,,,,12,,,,,,,,,,,,,,217.06200004767743,,response,,,,5,F,,,,,,Space,keypress(Space),,,,lyrical,,,,---- ------ ------ ------- ------ --- ------- -----------<br>-- ----- --- ---- -- --- ------ ---- - ---- -- ----------<br>-- ------ ---- --- bank --- --- --- ----- -- -------- ---<br>------ ------- -------- --- ---- -- ------- ------------ --<br>------ -- ---- -- --- ---- -- -------- -- --- ------ ------,216228.29999995232,216227.20000004768,215993.607,215993.90000009537,216010.138,216243.221,,24,bank
screen,html.Screen,2_3_1_0_1_25,2022-05-09T13:39:51.712Z,,,,,,,,,,,,,,,,,12,,,,,,,,,,,,,,245.27900000000955,,response,,,,5,F,,,,,,Space,keypress(Space),,,,lyrical,,,,---- ------ ------ ------- ------ --- ------- -----------<br>-- ----- --- ---- -- --- ------ ---- - ---- -- ----------<br>-- ------ ---- --- ---- one --- --- ----- -- -------- ---<br>------ ------- -------- --- ---- -- ------- ------------ --<br>------ -- ---- -- --- ---- -- -------- -- --- ------ ------,216489.5,216488.5,216226.715,216228.5,216243.221,216492.993,,25,one
screen,html.Screen,2_3_1_0_1_26,2022-05-09T13:39:51.962Z,,,,,,,,,,,,,,,,,12,,,,,,,,,,,,,,246.20700004769606,,response,,,,5,F,,,,,,Space,keypress(Space),,,,lyrical,,,,---- ------ ------ ------- ------ --- ------- -----------<br>-- ----- --- ---- -- --- ------ ---- - ---- -- ----------<br>-- ------ ---- --- ---- --- day --- ----- -- -------- ---<br>------ ------- -------- --- ---- -- ------- ------------ --<br>------ -- ---- -- --- ---- -- -------- -- --- ------ ------,216740.09999990463,216739.20000004768,216476.508,216489.59999990463,216492.993,216742.776,,26,day
screen,html.Screen,2_3_1_0_1_27,2022-05-09T13:39:52.202Z,,,,,,,,,,,,,,,,,12,,,,,,,,,,,,,,235.32399990462,,response,,,,5,F,,,,,,Space,keypress(Space),,,,lyrical,,,,---- ------ ------ ------- ------ --- ------- -----------<br>-- ----- --- ---- -- --- ------ ---- - ---- -- ----------<br>-- ------ ---- --- ---- --- --- and ----- -- -------- ---<br>------ ------- -------- --- ---- -- ------- ------------ --<br>------ -- ---- -- --- ---- -- -------- -- --- ------ ------,216979.40000009537,216978.09999990463,216726.33,216740.29999995232,216742.776,216992.672,,27,and
screen,html.Screen,2_3_1_0_1_28,2022-05-09T13:39:52.525Z,,,,,,,,,,,,,,,,,12,,,,,,,,,,,,,,309.4279999046412,,response,,,,5,F,,,,,,Space,keypress(Space),,,,lyrical,,,,---- ------ ------ ------- ------ --- ------- -----------<br>-- ----- --- ---- -- --- ------ ---- - ---- -- ----------<br>-- ------ ---- --- ---- --- --- --- asked -- -------- ---<br>------ ------- -------- --- ---- -- ------- ------------ --<br>------ -- ---- -- --- ---- -- -------- -- --- ------ ------,217303,217302.09999990463,216976.094,216979.59999990463,216992.672,217309.009,,28,asked
screen,html.Screen,2_3_1_0_1_29,2022-05-09T13:39:52.782Z,,,,,,,,,,,,,,,,,12,,,,,,,,,,,,,,249.1910000476928,,response,,,,5,F,,,,,,Space,keypress(Space),,,,lyrical,,,,---- ------ ------ ------- ------ --- ------- -----------<br>-- ----- --- ---- -- --- ------ ---- - ---- -- ----------<br>-- ------ ---- --- ---- --- --- --- ----- to -------- ---<br>------ ------- -------- --- ---- -- ------- ------------ --<br>------ -- ---- -- --- ---- -- -------- -- --- ------ ------,217559.70000004768,217558.20000004768,217292.521,217303.20000004768,217309.009,217575.448,,29,to
screen,html.Screen,2_3_1_0_1_30,2022-05-09T13:39:53.058Z,,,,,,,,,,,,,,,,,12,,,,,,,,,,,,,,259.05199999999604,,response,,,,5,F,,,,,,Space,keypress(Space),,,,lyrical,,,,---- ------ ------ ------- ------ --- ------- -----------<br>-- ----- --- ---- -- --- ------ ---- - ---- -- ----------<br>-- ------ ---- --- ---- --- --- --- ----- -- withdraw ---<br>------ ------- -------- --- ---- -- ------- ------------ --<br>------ -- ---- -- --- ---- -- -------- -- --- ------ ------,217836.29999995232,217834.5,217558.997,217559.90000009537,217575.448,217842.06,,30,withdraw
screen,html.Screen,2_3_1_0_1_31,2022-05-09T13:39:53.409Z,,,,,,,,,,,,,,,,,12,,,,,,,,,,,,,,343.5399999046349,,response,,,,5,F,,,,,,Space,keypress(Space),,,,lyrical,,,,---- ------ ------ ------- ------ --- ------- -----------<br>-- ----- --- ---- -- --- ------ ---- - ---- -- ----------<br>-- ------ ---- --- ---- --- --- --- ----- -- -------- his<br>------ ------- -------- --- ---- -- ------- ------------ --<br>------ -- ---- -- --- ---- -- -------- -- --- ------ ------,218187,218185.59999990463,217825.432,217836.5,217842.06,218192.31,,31,his
screen,html.Screen,2_3_1_0_1_32,2022-05-09T13:39:53.727Z,,,,,,,,,,,,,,,,,12,,,,,,,,,,,,,,311.2899999046349,,response,,,,5,F,,,,,,Space,keypress(Space),,,,lyrical,,,,---- ------ ------ ------- ------ --- ------- -----------<br>-- ----- --- ---- -- --- ------ ---- - ---- -- ----------<br>-- ------ ---- --- ---- --- --- --- ----- -- -------- ---<br>entire ------- -------- --- ---- -- ------- ------------ --<br>------ -- ---- -- --- ---- -- -------- -- --- ------ ------,218504.90000009537,218503.59999990463,218175.214,218187.20000004768,218192.31,218507.951,,32,entire
screen,html.Screen,2_3_1_0_1_33,2022-05-09T13:39:53.998Z,,,,,,,,,,,,,,,,,12,,,,,,,,,,,,,,265.64899990463164,,response,,,,5,F,,,,,,Space,keypress(Space),,,,lyrical,,,,---- ------ ------ ------- ------ --- ------- -----------<br>-- ----- --- ---- -- --- ------ ---- - ---- -- ----------<br>-- ------ ---- --- ---- --- --- --- ----- -- -------- ---<br>------ account -------- --- ---- -- ------- ------------ --<br>------ -- ---- -- --- ---- -- -------- -- --- ------ ------,218775.40000009537,218773.59999990463,218491.517,218505.09999990463,218507.951,218791.166,,33,account
screen,html.Screen,2_3_1_0_1_34,2022-05-09T13:39:54.311Z,,,,,,,,,,,,,,,,,12,,,,,,,,,,,,,,296.5340000476863,,response,,,,5,F,,,,,,Space,keypress(Space),,,,lyrical,,,,"---- ------ ------ ------- ------ --- ------- -----------<br>-- ----- --- ---- -- --- ------ ---- - ---- -- ----------<br>-- ------ ---- --- ---- --- --- --- ----- -- -------- ---<br>------ ------- balance, --- ---- -- ------- ------------ --<br>------ -- ---- -- --- ---- -- -------- -- --- ------ ------",219088.79999995232,219087.70000004768,218774.691,218775.70000004768,218791.166,219090.827,,34,"balance,"
screen,html.Screen,2_3_1_0_1_35,2022-05-09T13:39:54.569Z,,,,,,,,,,,,,,,,,12,,,,,,,,,,,,,,254.67300000000978,,response,,,,5,F,,,,,,Space,keypress(Space),,,,lyrical,,,,---- ------ ------ ------- ------ --- ------- -----------<br>-- ----- --- ---- -- --- ------ ---- - ---- -- ----------<br>-- ------ ---- --- ---- --- --- --- ----- -- -------- ---<br>------ ------- -------- but ---- -- ------- ------------ --<br>------ -- ---- -- --- ---- -- -------- -- --- ------ ------,219346.79999995232,219345.5,219074.414,219089,219090.827,219357.272,,35,but
screen,html.Screen,2_3_1_0_1_36,2022-05-09T13:39:54.820Z,,,,,,,,,,,,,,,,,12,,,,,,,,,,,,,,239.7280000000028,,response,,,,5,F,,,,,,Space,keypress(Space),,,,lyrical,,,,---- ------ ------ ------- ------ --- ------- -----------<br>-- ----- --- ---- -- --- ------ ---- - ---- -- ----------<br>-- ------ ---- --- ---- --- --- --- ----- -- -------- ---<br>------ ------- -------- --- with -- ------- ------------ --<br>------ -- ---- -- --- ---- -- -------- -- --- ------ ------,219597.90000009537,219597,219340.814,219347,219357.272,219607.034,,36,with
screen,html.Screen,2_3_1_0_1_37,2022-05-09T13:39:55.042Z,,,,,,,,,,,,,,,,,12,,,,,,,,,,,,,,212.1660000476695,,response,,,,5,F,,,,,,Space,keypress(Space),,,,lyrical,,,,---- ------ ------ ------- ------ --- ------- -----------<br>-- ----- --- ---- -- --- ------ ---- - ---- -- ----------<br>-- ------ ---- --- ---- --- --- --- ----- -- -------- ---<br>------ ------- -------- --- ---- an ------- ------------ --<br>------ -- ---- -- --- ---- -- -------- -- --- ------ ------,219820.20000004768,219819.20000004768,219590.637,219598.20000004768,219607.034,219823.558,,37,an
screen,html.Screen,2_3_1_0_1_38,2022-05-09T13:39:55.299Z,,,,,,,,,,,,,,,,,12,,,,,,,,,,,,,,249.54199990464258,,response,,,,5,F,,,,,,Space,keypress(Space),,,,lyrical,,,,---- ------ ------ ------- ------ --- ------- -----------<br>-- ----- --- ---- -- --- ------ ---- - ---- -- ----------<br>-- ------ ---- --- ---- --- --- --- ----- -- -------- ---<br>------ ------- -------- --- ---- -- unusual ------------ --<br>------ -- ---- -- --- ---- -- -------- -- --- ------ ------,220076.70000004768,220073.09999990463,219807.035,219820.29999995232,219823.558,220090.022,,38,unusual
screen,html.Screen,2_3_1_0_1_39,2022-05-09T13:39:55.588Z,,,,,,,,,,,,,,,,,12,,,,,,,,,,,,,,275.07799990463536,,response,,,,5,F,,,,,,Space,keypress(Space),,,,lyrical,,,,---- ------ ------ ------- ------ --- ------- -----------<br>-- ----- --- ---- -- --- ------ ---- - ---- -- ----------<br>-- ------ ---- --- ---- --- --- --- ----- -- -------- ---<br>------ ------- -------- --- ---- -- ------- stipulation: --<br>------ -- ---- -- --- ---- -- -------- -- --- ------ ------,220366.09999990463,220365.09999990463,220073.568,220076.79999995232,220090.022,220373.24,,39,stipulation:
screen,html.Screen,2_3_1_0_1_40,2022-05-09T13:39:56.014Z,,,,,,,,,,,,,,,,,12,,,,,,,,,,,,,,417.3599999046419,,response,,,,5,F,,,,,,Space,keypress(Space),,,,lyrical,,,,---- ------ ------ ------- ------ --- ------- -----------<br>-- ----- --- ---- -- --- ------ ---- - ---- -- ----------<br>-- ------ ---- --- ---- --- --- --- ----- -- -------- ---<br>------ ------- -------- --- ---- -- ------- ------------ He<br>------ -- ---- -- --- ---- -- -------- -- --- ------ ------,220791.40000009537,220790.59999990463,220356.701,220366.29999995232,220373.24,220806.136,,40,He
screen,html.Screen,2_3_1_0_1_41,2022-05-09T13:39:56.289Z,,,,,,,,,,,,,,,,,12,,,,,,,,,,,,,,259.26400009536883,,response,,,,5,F,,,,,,Space,keypress(Space),,,,lyrical,,,,---- ------ ------ ------- ------ --- ------- -----------<br>-- ----- --- ---- -- --- ------ ---- - ---- -- ----------<br>-- ------ ---- --- ---- --- --- --- ----- -- -------- ---<br>------ ------- -------- --- ---- -- ------- ------------ --<br>wanted -- ---- -- --- ---- -- -------- -- --- ------ ------,221066.59999990463,221065.40000009537,220789.75,220791.59999990463,220806.136,221072.491,,41,wanted
screen,html.Screen,2_3_1_0_1_42,2022-05-09T13:39:56.543Z,,,,,,,,,,,,,,,,,12,,,,,,,,,,,,,,247.00899999999092,,response,,,,5,F,,,,,,Space,keypress(Space),,,,lyrical,,,,---- ------ ------ ------- ------ --- ------- -----------<br>-- ----- --- ---- -- --- ------ ---- - ---- -- ----------<br>-- ------ ---- --- ---- --- --- --- ----- -- -------- ---<br>------ ------- -------- --- ---- -- ------- ------------ --<br>------ as ---- -- --- ---- -- -------- -- --- ------ ------,221320.5,221319.5,221056.078,221066.70000004768,221072.491,221322.313,,42,as
