sender,sender_type,sender_id,timestamp,meta,,Blues,Classical,Country,Dance,Electronic,Folk,Gospel,Hip-Hop,Jazz,Latin,Musical/Film,New-age,Pop,Prolific_id,Provo_ID,R&B,Rap,Reggae,Religious,Rock,Soul,Swing,Traditional,age,artist_name,correct,correctResponse,distraction,duration,education,ended_on,familiarity,gender,headphone_check_performance,item,list,music_frequency,offensiveness,pleasantness,position_correct,preference,response,response_action,snippet_file,song_name,song_rating,sound,stimulus_1,stimulus_2,stimulus_3,text,time_commit,time_end,time_render,time_run,time_show,time_switch,url,word,word_ID
Prolific ID,html.Form,0,2022-05-09T20:23:09.993Z,"{""labjs_version"":""20.2.2"",""labjs_build"":{""flavor"":""production"",""commit"":""a25486e0c714a0ae2ce03ff94b7bb6896854dcfa""},""location"":""https://run.pavlovia.org/mvasilev/prolific3_music_g/"",""userAgent"":""Mozilla/5.0 (Macintosh; Intel Mac OS X 10_15_7) AppleWebKit/605.1.15 (KHTML, like Gecko) Version/14.1.2 Safari/605.1.15"",""platform"":""MacIntel"",""language"":""en-gb"",""locale"":""en-GB"",""timeZone"":""Europe/London"",""timezoneOffset"":-60,""screen_width"":2560,""screen_height"":1440,""scroll_width"":1467,""scroll_height"":955,""window_innerWidth"":1467,""window_innerHeight"":1003,""devicePixelRatio"":1}",,,,,,,,,,,,,,,5f0f59f3bc44f50f92845a05,,,,,,,,,,,,,,,11115.000000000004,,form submission,,,,,,,,,,,,,,,,,,,,,27179.000000000004,27179.000000000004,16047,16033.000000000002,16064,27206,{},,
Introduction,html.Screen,1_0,2022-05-09T20:23:15.170Z,,,,,,,,,,,,,,,,,,,,,,,,,,,,,,,4822.999999999996,,response,,,,,,,,,,,continue,click button,,,,,,,,,32356,32012.999999999996,27190,27179.000000000004,27206,32377,,,
Volume calibration,html.Screen,1_1,2022-05-09T20:23:20.424Z,,,,,,,,,,,,,,,,,,,,,,,,,,,,,,,4906,,response,,,,,,,,,,,continue,click button,,,,,,,,,37610,37267,32361,32356,32377,37632,,,
Task instructions,html.Screen,1_2,2022-05-09T20:23:28.050Z,,,,,,,,,,,,,,,,,,,,,,,,,,,,,,,7279,,response,,,,,,,,,,,continue,click button,,,,,,,,,45236.00000000001,44894,37615,37611.00000000001,37632,45254,,,
Sounds,html.Screen,1_3_0_0,2022-05-09T20:23:32.307Z,,,,,,,,,,,,,,,,,,,,,,,,,,,,,,,4253,,timeout,,,,,,,,,1,,,,,,,,S,O,I,,49493,49491,45238,45236.00000000001,45254,49507,,,
Judgement,html.Screen,1_3_0_1,2022-05-09T20:23:32.880Z,,,,,,,,,,,,,,,,,,,,,,,,,,,,true,1,,231,,response,,,,,,,,,1,,1,click #choice-1,,,,,S,O,I,,50066,49722,49491,49493,49507,50091,,,
Trial,flow.Sequence,1_3_0,2022-05-09T20:23:32.881Z,,,,,,,,,,,,,,,,,,,,,,,,,,,,,,,4468,,completion,,,,,,,,,1,,,,,,,,S,O,I,,50067,49722,45238,45236.00000000001,45254,50091,,,
Sounds,html.Screen,1_3_1_0,2022-05-09T20:23:37.144Z,,,,,,,,,,,,,,,,,,,,,,,,,,,,,,,4254,,timeout,,,,,,,,,2,,,,,,,,O,S,I,,54330,54329,50074,50067,50091,54345,,,
Judgement,html.Screen,1_3_1_1,2022-05-09T20:23:37.706Z,,,,,,,,,,,,,,,,,,,,,,,,,,,,true,2,,220,,response,,,,,,,,,2,,2,click #choice-2,,,,,O,S,I,,54892,54549,54329,54330,54345,54912,,,
Trial,flow.Sequence,1_3_1,2022-05-09T20:23:37.707Z,,,,,,,,,,,,,,,,,,,,,,,,,,,,,,,4458,,completion,,,,,,,,,2,,,,,,,,O,S,I,,54893,54549,50074,50067,50091,54912,,,
Sounds,html.Screen,1_3_2_0,2022-05-09T20:23:41.963Z,,,,,,,,,,,,,,,,,,,,,,,,,,,,,,,4253,,timeout,,,,,,,,,3,,,,,,,,I,O,S,,59149,59149,54894,54893,54912,59165,,,
Judgement,html.Screen,1_3_2_1,2022-05-09T20:23:42.407Z,,,,,,,,,,,,,,,,,,,,,,,,,,,,true,3,,100,,response,,,,,,,,,3,,3,click #choice-3,,,,,I,O,S,,59592,59249,59149,59150,59165,59615,,,
Trial,flow.Sequence,1_3_2,2022-05-09T20:23:42.407Z,,,,,,,,,,,,,,,,,,,,,,,,,,,,,,,4337,,completion,,,,,,,,,3,,,,,,,,I,O,S,,59593,59249,54894,54893,54912,59615,,,
Sounds,html.Screen,1_3_3_0,2022-05-09T20:23:46.667Z,,,,,,,,,,,,,,,,,,,,,,,,,,,,,,,4253,,timeout,,,,,,,,,1,,,,,,,,S,I,O,,63853,63852,59598,59593,59615,63868,,,
Judgement,html.Screen,1_3_3_1,2022-05-09T20:23:47.121Z,,,,,,,,,,,,,,,,,,,,,,,,,,,,true,1,,111,,response,,,,,,,,,1,,1,click #choice-1,,,,,S,I,O,,64306,63963,63852,63853,63868,64336,,,
Trial,flow.Sequence,1_3_3,2022-05-09T20:23:47.121Z,,,,,,,,,,,,,,,,,,,,,,,,,,,,,,,4348,,completion,,,,,,,,,1,,,,,,,,S,I,O,,64307,63963,59598,59593,59615,64336,,,
Sounds,html.Screen,1_3_4_0,2022-05-09T20:23:51.388Z,,,,,,,,,,,,,,,,,,,,,,,,,,,,,,,4254,,timeout,,,,,,,,,3,,,,,,,,O,I,S,,68574,68573,64320,64307,64336,68590,,,
Judgement,html.Screen,1_3_4_1,2022-05-09T20:23:51.846Z,,,,,,,,,,,,,,,,,,,,,,,,,,,,true,3,,116,,response,,,,,,,,,3,,3,click #choice-3,,,,,O,I,S,,69031,68689,68573,68574,68590,69056,,,
Trial,flow.Sequence,1_3_4,2022-05-09T20:23:51.846Z,,,,,,,,,,,,,,,,,,,,,,,,,,,,,,,4353,,completion,,,,,,,,,3,,,,,,,,O,I,S,,69032,68689,64320,64307,64336,69056,,,
Sounds,html.Screen,1_3_5_0,2022-05-09T20:23:56.109Z,,,,,,,,,,,,,,,,,,,,,,,,,,,,,,,4254,,timeout,,,,,,,,,2,,,,,,,,I,S,O,,73295,73294,69040,69032,69056,73310,,,
Judgement,html.Screen,1_3_5_1,2022-05-09T20:23:56.592Z,,,,,,,,,,,,,,,,,,,,,,,,,,,,true,2,,141,,response,,,,,,,,,2,,2,click #choice-2,,,,,I,S,O,,73778,73435,73294,73295,73310,73811,,,
Trial,flow.Sequence,1_3_5,2022-05-09T20:23:56.593Z,,,,,,,,,,,,,,,,,,,,,,,,,,,,,,,4379,,completion,,,,,,,,,2,,,,,,,,I,S,O,,73778,73435,69040,69032,69056,73811,,,
Task,flow.Loop,1_3,2022-05-09T20:23:56.596Z,,,,,,,,,,,,,,,,,,,,,,,,,,,,,,,28181,,completion,,,1,,,,,,,,,,,,,,,,,,73782,73435,45238,45236.00000000001,45254,73811,,,
Trap,html.Screen,1_4,2022-05-09T20:23:56.598Z,,,,,,,,,,,,,,,,,,,,,,,,,,,,,,,NaN,,skipped,,,,,,,,,,,,,,,,,,,,,73784,73435,,73783,,73811,,,
Thanks,html.Screen,1_5,2022-05-09T20:23:58.269Z,,,,,,,,,,,,,,,,,,,,,,,,,,,,,,,1317,,response,,,,,,,,,,,continue,click button,,,,,,,,,75455,75111,73794,73784,73811,82249,,,
Headphone screening,flow.Sequence,1,2022-05-09T20:23:58.270Z,,,,,,,,,,,,,,,,,,,,,,,,,,,,,,,47905,,completion,,,,,,,,,,,,,,,,,,,,,75455,75111,27190,27179.000000000004,27206,82249,,,
Instructions,html.Page,2_0,2022-05-09T20:24:08.793Z,,,,,,,,,,,,,,,,,,,,,,,,,,,,,,,3729.0000000000146,,form submission,,,,,,,,,,,,,,,,,,,,,85979,85978.00000000001,82232,82218,82249,85999,,,
Holding screen,html.Screen,2_1_0_0,2022-05-09T20:24:18.799Z,,,,,,,,,,,,,,,,,,,,,,,,,,,,,,,10000,,timeout,,,,,,,,,,,,,,,,,,,,,95984.00000000001,95984,85982,85979,85999,95999,,,
screen,html.Screen,2_1_0_1_0,2022-05-09T20:24:20.060Z,,,,,,,,,,,,,,,,,53,,,,,,,,,,,,,,912,,response,,,,99,,,,,,,Space,keypress(Space),,,,,,,,When -- ----- -- ------ - ------- --- ----------<br>------------- ------ ------ ---- ---- ------- ----- -- ----<br>-------- ------- -- ---------- --- - --- ----- ----- ----<br>---- --- --- ----- --- ---- ---- ------- ----- ---- -------<br>--- --- -- ----- -- --- ---- -- --- ---- -- ------ ------<br>--- ----- -- ----,97245,96896,95984,95985,95999,97282,,0,When
screen,html.Screen,2_1_0_1_1,2022-05-09T20:24:20.411Z,,,,,,,,,,,,,,,,,53,,,,,,,,,,,,,,-12,,response,,,,99,,,,,,,Space,keypress(Space),,,,,,,,---- it ----- -- ------ - ------- --- ----------<br>------------- ------ ------ ---- ---- ------- ----- -- ----<br>-------- ------- -- ---------- --- - --- ----- ----- ----<br>---- --- --- ----- --- ---- ---- ------- ----- ---- -------<br>--- --- -- ----- -- --- ---- -- --- ---- -- ------ ------<br>--- ----- -- ----,97597.00000000001,97254,97266,97246,97282,97615,,1,it
screen,html.Screen,2_1_0_1_2,2022-05-09T20:24:20.747Z,,,,,,,,,,,,,,,,,53,,,,,,,,,,,,,,-9,,response,,,,99,,,,,,,Space,keypress(Space),,,,,,,,---- -- comes -- ------ - ------- --- ----------<br>------------- ------ ------ ---- ---- ------- ----- -- ----<br>-------- ------- -- ---------- --- - --- ----- ----- ----<br>---- --- --- ----- --- ---- ---- ------- ----- ---- -------<br>--- --- -- ----- -- --- ---- -- --- ---- -- ------ ------<br>--- ----- -- ----,97932,97590,97599,97597.00000000001,97615,97965,,2,comes
screen,html.Screen,2_1_0_1_3,2022-05-09T20:24:21.119Z,,,,,,,,,,,,,,,,,53,,,,,,,,,,,,,,12,,response,,,,99,,,,,,,Space,keypress(Space),,,,,,,,---- -- ----- to ------ - ------- --- ----------<br>------------- ------ ------ ---- ---- ------- ----- -- ----<br>-------- ------- -- ---------- --- - --- ----- ----- ----<br>---- --- --- ----- --- ---- ---- ------- ----- ---- -------<br>--- --- -- ----- -- --- ---- -- --- ---- -- ------ ------<br>--- ----- -- ----,98304,97961,97949,97932,97965,98332,,3,to
screen,html.Screen,2_1_0_1_4,2022-05-09T20:24:21.411Z,,,,,,,,,,,,,,,,,53,,,,,,,,,,,,,,-62,,response,,,,99,,,,,,,Space,keypress(Space),,,,,,,,---- -- ----- -- having - ------- --- ----------<br>------------- ------ ------ ---- ---- ------- ----- -- ----<br>-------- ------- -- ---------- --- - --- ----- ----- ----<br>---- --- --- ----- --- ---- ---- ------- ----- ---- -------<br>--- --- -- ----- -- --- ---- -- --- ---- -- ------ ------<br>--- ----- -- ----,98596,98253,98315,98304,98332,98614,,4,having
screen,html.Screen,2_1_0_1_5,2022-05-09T20:24:21.774Z,,,,,,,,,,,,,,,,,53,,,,,,,,,,,,,,15,,response,,,,99,,,,,,,Space,keypress(Space),,,,,,,,---- -- ----- -- ------ a ------- --- ----------<br>------------- ------ ------ ---- ---- ------- ----- -- ----<br>-------- ------- -- ---------- --- - --- ----- ----- ----<br>---- --- --- ----- --- ---- ---- ------- ----- ---- -------<br>--- --- -- ----- -- --- ---- -- --- ---- -- ------ ------<br>--- ----- -- ----,98960.00000000001,98614,98599,98596,98614,98982,,5,a
screen,html.Screen,2_1_0_1_6,2022-05-09T20:24:22.133Z,,,,,,,,,,,,,,,,,53,,,,,,,,,,,,,,9,,response,,,,99,,,,,,,Space,keypress(Space),,,,,,,,---- -- ----- -- ------ - lasting --- ----------<br>------------- ------ ------ ---- ---- ------- ----- -- ----<br>-------- ------- -- ---------- --- - --- ----- ----- ----<br>---- --- --- ----- --- ---- ---- ------- ----- ---- -------<br>--- --- -- ----- -- --- ---- -- --- ---- -- ------ ------<br>--- ----- -- ----,99318,98974,98965,98960.00000000001,98982,99348,,6,lasting
screen,html.Screen,2_1_0_1_7,2022-05-09T20:24:22.436Z,,,,,,,,,,,,,,,,,53,,,,,,,,,,,,,,-54,,response,,,,99,,,,,,,Space,keypress(Space),,,,,,,,---- -- ----- -- ------ - ------- and ----------<br>------------- ------ ------ ---- ---- ------- ----- -- ----<br>-------- ------- -- ---------- --- - --- ----- ----- ----<br>---- --- --- ----- --- ---- ---- ------- ----- ---- -------<br>--- --- -- ----- -- --- ---- -- --- ---- -- ------ ------<br>--- ----- -- ----,99622,99278,99332,99318,99348,99648,,7,and
screen,html.Screen,2_1_0_1_8,2022-05-09T20:24:22.719Z,,,,,,,,,,,,,,,,,53,,,,,,,,,,,,,,-72,,response,,,,99,,,,,,,Space,keypress(Space),,,,,,,,---- -- ----- -- ------ - ------- --- fulfilling<br>------------- ------ ------ ---- ---- ------- ----- -- ----<br>-------- ------- -- ---------- --- - --- ----- ----- ----<br>---- --- --- ----- --- ---- ---- ------- ----- ---- -------<br>--- --- -- ----- -- --- ---- -- --- ---- -- ------ ------<br>--- ----- -- ----,99905,99560,99632,99622,99648,99932,,8,fulfilling
screen,html.Screen,2_1_0_1_9,2022-05-09T20:24:23.110Z,,,,,,,,,,,,,,,,,53,,,,,,,,,,,,,,39,,response,,,,99,,,,,,,Space,keypress(Space),,,,,,,,"---- -- ----- -- ------ - ------- --- ----------<br>relationship, ------ ------ ---- ---- ------- ----- -- ----<br>-------- ------- -- ---------- --- - --- ----- ----- ----<br>---- --- --- ----- --- ---- ---- ------- ----- ---- -------<br>--- --- -- ----- -- --- ---- -- --- ---- -- ------ ------<br>--- ----- -- ----",100296,99953,99914,99905,99932,100315,,9,"relationship,"
screen,html.Screen,2_1_0_1_10,2022-05-09T20:24:23.495Z,,,,,,,,,,,,,,,,,53,,,,,,,,,,,,,,38,,response,,,,99,,,,,,,Space,keypress(Space),,,,,,,,---- -- ----- -- ------ - ------- --- ----------<br>------------- common ------ ---- ---- ------- ----- -- ----<br>-------- ------- -- ---------- --- - --- ----- ----- ----<br>---- --- --- ----- --- ---- ---- ------- ----- ---- -------<br>--- --- -- ----- -- --- ---- -- --- ---- -- ------ ------<br>--- ----- -- ----,100680,100337,100299,100296,100315,100699,,10,common
screen,html.Screen,2_1_0_1_11,2022-05-09T20:24:23.852Z,,,,,,,,,,,,,,,,,53,,,,,,,,,,,,,,13.000000000014552,,response,,,,99,,,,,,,Space,keypress(Space),,,,,,,,---- -- ----- -- ------ - ------- --- ----------<br>------------- ------ wisdom ---- ---- ------- ----- -- ----<br>-------- ------- -- ---------- --- - --- ----- ----- ----<br>---- --- --- ----- --- ---- ---- ------- ----- ---- -------<br>--- --- -- ----- -- --- ---- -- --- ---- -- ------ ------<br>--- ----- -- ----,101037,100695.00000000001,100682,100680,100699,101065,,11,wisdom
screen,html.Screen,2_1_0_1_12,2022-05-09T20:24:24.268Z,,,,,,,,,,,,,,,,,53,,,,,,,,,,,,,,63,,response,,,,99,,,,,,,Space,keypress(Space),,,,,,,,---- -- ----- -- ------ - ------- --- ----------<br>------------- ------ ------ says ---- ------- ----- -- ----<br>-------- ------- -- ---------- --- - --- ----- ----- ----<br>---- --- --- ----- --- ---- ---- ------- ----- ---- -------<br>--- --- -- ----- -- --- ---- -- --- ---- -- ------ ------<br>--- ----- -- ----,101454.00000000001,101111,101048,101038,101065,101482,,12,says
screen,html.Screen,2_1_0_1_13,2022-05-09T20:24:24.563Z,,,,,,,,,,,,,,,,,53,,,,,,,,,,,,,,-61,,response,,,,99,,,,,,,Space,keypress(Space),,,,,,,,---- -- ----- -- ------ - ------- --- ----------<br>------------- ------ ------ ---- that ------- ----- -- ----<br>-------- ------- -- ---------- --- - --- ----- ----- ----<br>---- --- --- ----- --- ---- ---- ------- ----- ---- -------<br>--- --- -- ----- -- --- ---- -- --- ---- -- ------ ------<br>--- ----- -- ----,101748,101404,101465,101454.00000000001,101482,101782,,13,that
screen,html.Screen,2_1_0_1_14,2022-05-09T20:24:24.945Z,,,,,,,,,,,,,,,,,53,,,,,,,,,,,,,,22,,response,,,,99,,,,,,,Space,keypress(Space),,,,,,,,---- -- ----- -- ------ - ------- --- ----------<br>------------- ------ ------ ---- ---- feeling ----- -- ----<br>-------- ------- -- ---------- --- - --- ----- ----- ----<br>---- --- --- ----- --- ---- ---- ------- ----- ---- -------<br>--- --- -- ----- -- --- ---- -- --- ---- -- ------ ------<br>--- ----- -- ----,102131,101787,101765,101748,101782,102148,,14,feeling
screen,html.Screen,2_1_0_1_15,2022-05-09T20:24:25.316Z,,,,,,,,,,,,,,,,,53,,,,,,,,,,,,,,26,,response,,,,99,,,,,,,Space,keypress(Space),,,,,,,,---- -- ----- -- ------ - ------- --- ----------<br>------------- ------ ------ ---- ---- ------- close -- ----<br>-------- ------- -- ---------- --- - --- ----- ----- ----<br>---- --- --- ----- --- ---- ---- ------- ----- ---- -------<br>--- --- -- ----- -- --- ---- -- --- ---- -- ------ ------<br>--- ----- -- ----,102501,102158,102132,102131,102148,102532,,15,close
screen,html.Screen,2_1_0_1_16,2022-05-09T20:24:25.633Z,,,,,,,,,,,,,,,,,53,,,,,,,,,,,,,,-42,,response,,,,99,,,,,,,Space,keypress(Space),,,,,,,,---- -- ----- -- ------ - ------- --- ----------<br>------------- ------ ------ ---- ---- ------- ----- to ----<br>-------- ------- -- ---------- --- - --- ----- ----- ----<br>---- --- --- ----- --- ---- ---- ------- ----- ---- -------<br>--- --- -- ----- -- --- ---- -- --- ---- -- ------ ------<br>--- ----- -- ----,102818,102473,102515,102502,102532,102848,,16,to
screen,html.Screen,2_1_0_1_17,2022-05-09T20:24:26.026Z,,,,,,,,,,,,,,,,,53,,,,,,,,,,,,,,34,,response,,,,99,,,,,,,Space,keypress(Space),,,,,,,,---- -- ----- -- ------ - ------- --- ----------<br>------------- ------ ------ ---- ---- ------- ----- -- your<br>-------- ------- -- ---------- --- - --- ----- ----- ----<br>---- --- --- ----- --- ---- ---- ------- ----- ---- -------<br>--- --- -- ----- -- --- ---- -- --- ---- -- ------ ------<br>--- ----- -- ----,103211,102866,102832,102819,102848,103232,,17,your
screen,html.Screen,2_1_0_1_18,2022-05-09T20:24:26.452Z,,,,,,,,,,,,,,,,,53,,,,,,,,,,,,,,80,,response,,,,99,,,,,,,Space,keypress(Space),,,,,,,,---- -- ----- -- ------ - ------- --- ----------<br>------------- ------ ------ ---- ---- ------- ----- -- ----<br>romantic ------- -- ---------- --- - --- ----- ----- ----<br>---- --- --- ----- --- ---- ---- ------- ----- ---- -------<br>--- --- -- ----- -- --- ---- -- --- ---- -- ------ ------<br>--- ----- -- ----,103638,103294,103214,103211,103232,103666,,18,romantic
screen,html.Screen,2_1_0_1_19,2022-05-09T20:24:26.891Z,,,,,,,,,,,,,,,,,53,,,,,,,,,,,,,,85,,response,,,,99,,,,,,,Space,keypress(Space),,,,,,,,---- -- ----- -- ------ - ------- --- ----------<br>------------- ------ ------ ---- ---- ------- ----- -- ----<br>-------- partner -- ---------- --- - --- ----- ----- ----<br>---- --- --- ----- --- ---- ---- ------- ----- ---- -------<br>--- --- -- ----- -- --- ---- -- --- ---- -- ------ ------<br>--- ----- -- ----,104076.00000000001,103733,103648,103638,103666,104115,,19,partner
screen,html.Screen,2_1_0_1_20,2022-05-09T20:24:27.273Z,,,,,,,,,,,,,,,,,53,,,,,,,,,,,,,,17.000000000014552,,response,,,,99,,,,,,,Space,keypress(Space),,,,,,,,---- -- ----- -- ------ - ------- --- ----------<br>------------- ------ ------ ---- ---- ------- ----- -- ----<br>-------- ------- is ---------- --- - --- ----- ----- ----<br>---- --- --- ----- --- ---- ---- ------- ----- ---- -------<br>--- --- -- ----- -- --- ---- -- --- ---- -- ------ ------<br>--- ----- -- ----,104458,104115.00000000001,104098,104077,104115,104482,,20,is
screen,html.Screen,2_1_0_1_21,2022-05-09T20:24:27.647Z,,,,,,,,,,,,,,,,,53,,,,,,,,,,,,,,22.000000000014552,,response,,,,99,,,,,,,Space,keypress(Space),,,,,,,,---- -- ----- -- ------ - ------- --- ----------<br>------------- ------ ------ ---- ---- ------- ----- -- ----<br>-------- ------- -- paramount. --- - --- ----- ----- ----<br>---- --- --- ----- --- ---- ---- ------- ----- ---- -------<br>--- --- -- ----- -- --- ---- -- --- ---- -- ------ ------<br>--- ----- -- ----,104832.00000000001,104487.00000000001,104465,104459,104482,104864,,21,paramount.
screen,html.Screen,2_1_0_1_22,2022-05-09T20:24:28.041Z,,,,,,,,,,,,,,,,,53,,,,,,,,,,,,,,34,,response,,,,99,,,,,,,Space,keypress(Space),,,,,,,,---- -- ----- -- ------ - ------- --- ----------<br>------------- ------ ------ ---- ---- ------- ----- -- ----<br>-------- ------- -- ---------- But - --- ----- ----- ----<br>---- --- --- ----- --- ---- ---- ------- ----- ---- -------<br>--- --- -- ----- -- --- ---- -- --- ---- -- ------ ------<br>--- ----- -- ----,105226,104882,104848,104833,104864,105248,,22,But
screen,html.Screen,2_1_0_1_23,2022-05-09T20:24:28.356Z,,,,,,,,,,,,,,,,,53,,,,,,,,,,,,,,-36.99999999998545,,response,,,,99,,,,,,,Space,keypress(Space),,,,,,,,---- -- ----- -- ------ - ------- --- ----------<br>------------- ------ ------ ---- ---- ------- ----- -- ----<br>-------- ------- -- ---------- --- a --- ----- ----- ----<br>---- --- --- ----- --- ---- ---- ------- ----- ---- -------<br>--- --- -- ----- -- --- ---- -- --- ---- -- ------ ------<br>--- ----- -- ----,105541,105195.00000000001,105232,105227,105248,105565,,23,a
screen,html.Screen,2_1_0_1_24,2022-05-09T20:24:28.584Z,,,,,,,,,,,,,,,,,53,,,,,,,,,,,,,,-125,,response,,,,99,,,,,,,Space,keypress(Space),,,,,,,,---- -- ----- -- ------ - ------- --- ----------<br>------------- ------ ------ ---- ---- ------- ----- -- ----<br>-------- ------- -- ---------- --- - new ----- ----- ----<br>---- --- --- ----- --- ---- ---- ------- ----- ---- -------<br>--- --- -- ----- -- --- ---- -- --- ---- -- ------ ------<br>--- ----- -- ----,105769,105423,105548,105541,105565,105799,,24,new
screen,html.Screen,2_1_0_1_25,2022-05-09T20:24:28.806Z,,,,,,,,,,,,,,,,,53,,,,,,,,,,,,,,-136,,response,,,,99,,,,,,,Space,keypress(Space),,,,,,,,---- -- ----- -- ------ - ------- --- ----------<br>------------- ------ ------ ---- ---- ------- ----- -- ----<br>-------- ------- -- ---------- --- - --- study ----- ----<br>---- --- --- ----- --- ---- ---- ------- ----- ---- -------<br>--- --- -- ----- -- --- ---- -- --- ---- -- ------ ------<br>--- ----- -- ----,105992,105645,105781,105769,105799,106014,,25,study
screen,html.Screen,2_1_0_1_26,2022-05-09T20:24:29.040Z,,,,,,,,,,,,,,,,,53,,,,,,,,,,,,,,-117,,response,,,,99,,,,,,,Space,keypress(Space),,,,,,,,---- -- ----- -- ------ - ------- --- ----------<br>------------- ------ ------ ---- ---- ------- ----- -- ----<br>-------- ------- -- ---------- --- - --- ----- finds ----<br>---- --- --- ----- --- ---- ---- ------- ----- ---- -------<br>--- --- -- ----- -- --- ---- -- --- ---- -- ------ ------<br>--- ----- -- ----,106225.00000000001,105881,105998,105992,106014,106249,,26,finds
screen,html.Screen,2_1_0_1_27,2022-05-09T20:24:29.287Z,,,,,,,,,,,,,,,,,53,,,,,,,,,,,,,,-103,,response,,,,99,,,,,,,Space,keypress(Space),,,,,,,,---- -- ----- -- ------ - ------- --- ----------<br>------------- ------ ------ ---- ---- ------- ----- -- ----<br>-------- ------- -- ---------- --- - --- ----- ----- that<br>---- --- --- ----- --- ---- ---- ------- ----- ---- -------<br>--- --- -- ----- -- --- ---- -- --- ---- -- ------ ------<br>--- ----- -- ----,106472.00000000001,106129,106232,106225.00000000001,106249,106498,,27,that
screen,html.Screen,2_1_0_1_28,2022-05-09T20:24:29.537Z,,,,,,,,,,,,,,,,,53,,,,,,,,,,,,,,-103,,response,,,,99,,,,,,,Space,keypress(Space),,,,,,,,---- -- ----- -- ------ - ------- --- ----------<br>------------- ------ ------ ---- ---- ------- ----- -- ----<br>-------- ------- -- ---------- --- - --- ----- ----- ----<br>it's --- --- ----- --- ---- ---- ------- ----- ---- -------<br>--- --- -- ----- -- --- ---- -- --- ---- -- ------ ------<br>--- ----- -- ----,106722.00000000001,106378,106481,106473,106498,106749,,28,it's
screen,html.Screen,2_1_0_1_29,2022-05-09T20:24:29.797Z,,,,,,,,,,,,,,,,,53,,,,,,,,,,,,,,-95,,response,,,,99,,,,,,,Space,keypress(Space),,,,,,,,---- -- ----- -- ------ - ------- --- ----------<br>------------- ------ ------ ---- ---- ------- ----- -- ----<br>-------- ------- -- ---------- --- - --- ----- ----- ----<br>---- not --- ----- --- ---- ---- ------- ----- ---- -------<br>--- --- -- ----- -- --- ---- -- --- ---- -- ------ ------<br>--- ----- -- ----,106982,106636,106731,106722.00000000001,106749,107015,,29,not
screen,html.Screen,2_1_0_1_30,2022-05-09T20:24:30.021Z,,,,,,,,,,,,,,,,,53,,,,,,,,,,,,,,-139,,response,,,,99,,,,,,,Space,keypress(Space),,,,,,,,---- -- ----- -- ------ - ------- --- ----------<br>------------- ------ ------ ---- ---- ------- ----- -- ----<br>-------- ------- -- ---------- --- - --- ----- ----- ----<br>---- --- how ----- --- ---- ---- ------- ----- ---- -------<br>--- --- -- ----- -- --- ---- -- --- ---- -- ------ ------<br>--- ----- -- ----,107206,106860,106999,106982,107015,107232,,30,how
screen,html.Screen,2_1_0_1_31,2022-05-09T20:24:30.245Z,,,,,,,,,,,,,,,,,53,,,,,,,,,,,,,,-129.99999999998545,,response,,,,99,,,,,,,Space,keypress(Space),,,,,,,,---- -- ----- -- ------ - ------- --- ----------<br>------------- ------ ------ ---- ---- ------- ----- -- ----<br>-------- ------- -- ---------- --- - --- ----- ----- ----<br>---- --- --- close --- ---- ---- ------- ----- ---- -------<br>--- --- -- ----- -- --- ---- -- --- ---- -- ------ ------<br>--- ----- -- ----,107431,107085.00000000001,107215,107206,107232,107449,,31,close
screen,html.Screen,2_1_0_1_32,2022-05-09T20:24:30.451Z,,,,,,,,,,,,,,,,,53,,,,,,,,,,,,,,-143,,response,,,,99,,,,,,,Space,keypress(Space),,,,,,,,---- -- ----- -- ------ - ------- --- ----------<br>------------- ------ ------ ---- ---- ------- ----- -- ----<br>-------- ------- -- ---------- --- - --- ----- ----- ----<br>---- --- --- ----- you ---- ---- ------- ----- ---- -------<br>--- --- -- ----- -- --- ---- -- --- ---- -- ------ ------<br>--- ----- -- ----,107636,107290,107433,107431,107449,107665,,32,you
screen,html.Screen,2_1_0_1_33,2022-05-09T20:24:30.662Z,,,,,,,,,,,,,,,,,53,,,,,,,,,,,,,,-145,,response,,,,99,,,,,,,Space,keypress(Space),,,,,,,,---- -- ----- -- ------ - ------- --- ----------<br>------------- ------ ------ ---- ---- ------- ----- -- ----<br>-------- ------- -- ---------- --- - --- ----- ----- ----<br>---- --- --- ----- --- feel ---- ------- ----- ---- -------<br>--- --- -- ----- -- --- ---- -- --- ---- -- ------ ------<br>--- ----- -- ----,107847.00000000001,107503,107648,107637,107665,107864,,33,feel
screen,html.Screen,2_1_0_1_34,2022-05-09T20:24:30.864Z,,,,,,,,,,,,,,,,,53,,,,,,,,,,,,,,-143.99999999998545,,response,,,,99,,,,,,,Space,keypress(Space),,,,,,,,---- -- ----- -- ------ - ------- --- ----------<br>------------- ------ ------ ---- ---- ------- ----- -- ----<br>-------- ------- -- ---------- --- - --- ----- ----- ----<br>---- --- --- ----- --- ---- that ------- ----- ---- -------<br>--- --- -- ----- -- --- ---- -- --- ---- -- ------ ------<br>--- ----- -- ----,108050,107704.00000000001,107848,107847.00000000001,107864,108081,,34,that
screen,html.Screen,2_1_0_1_35,2022-05-09T20:24:31.065Z,,,,,,,,,,,,,,,,,53,,,,,,,,,,,,,,-159,,response,,,,99,,,,,,,Space,keypress(Space),,,,,,,,---- -- ----- -- ------ - ------- --- ----------<br>------------- ------ ------ ---- ---- ------- ----- -- ----<br>-------- ------- -- ---------- --- - --- ----- ----- ----<br>---- --- --- ----- --- ---- ---- matters ----- ---- -------<br>--- --- -- ----- -- --- ---- -- --- ---- -- ------ ------<br>--- ----- -- ----,108250,107906,108065,108050,108081,108282,,35,matters
screen,html.Screen,2_1_0_1_36,2022-05-09T20:24:31.304Z,,,,,,,,,,,,,,,,,53,,,,,,,,,,,,,,-121,,response,,,,99,,,,,,,Space,keypress(Space),,,,,,,,"---- -- ----- -- ------ - ------- --- ----------<br>------------- ------ ------ ---- ---- ------- ----- -- ----<br>-------- ------- -- ---------- --- - --- ----- ----- ----<br>---- --- --- ----- --- ---- ---- ------- most, ---- -------<br>--- --- -- ----- -- --- ---- -- --- ---- -- ------ ------<br>--- ----- -- ----",108489,108144,108265,108250,108282,108514,,36,"most,"
screen,html.Screen,2_1_0_1_37,2022-05-09T20:24:31.473Z,,,,,,,,,,,,,,,,,53,,,,,,,,,,,,,,-187,,response,,,,99,,,,,,,Space,keypress(Space),,,,,,,,---- -- ----- -- ------ - ------- --- ----------<br>------------- ------ ------ ---- ---- ------- ----- -- ----<br>-------- ------- -- ---------- --- - --- ----- ----- ----<br>---- --- --- ----- --- ---- ---- ------- ----- it's -------<br>--- --- -- ----- -- --- ---- -- --- ---- -- ------ ------<br>--- ----- -- ----,108658,108312,108499,108490.00000000001,108514,108681,,37,it's
screen,html.Screen,2_1_0_1_38,2022-05-09T20:24:31.684Z,,,,,,,,,,,,,,,,,53,,,,,,,,,,,,,,-139,,response,,,,99,,,,,,,Space,keypress(Space),,,,,,,,---- -- ----- -- ------ - ------- --- ----------<br>------------- ------ ------ ---- ---- ------- ----- -- ----<br>-------- ------- -- ---------- --- - --- ----- ----- ----<br>---- --- --- ----- --- ---- ---- ------- ----- ---- whether<br>--- --- -- ----- -- --- ---- -- --- ---- -- ------ ------<br>--- ----- -- ----,108870,108526,108665,108658,108681,108898,,38,whether
screen,html.Screen,2_1_0_1_39,2022-05-09T20:24:31.877Z,,,,,,,,,,,,,,,,,53,,,,,,,,,,,,,,-163,,response,,,,99,,,,,,,Space,keypress(Space),,,,,,,,---- -- ----- -- ------ - ------- --- ----------<br>------------- ------ ------ ---- ---- ------- ----- -- ----<br>-------- ------- -- ---------- --- - --- ----- ----- ----<br>---- --- --- ----- --- ---- ---- ------- ----- ---- -------<br>you --- -- ----- -- --- ---- -- --- ---- -- ------ ------<br>--- ----- -- ----,109063,108718,108881,108870,108898,109081,,39,you
screen,html.Screen,2_1_0_1_40,2022-05-09T20:24:32.088Z,,,,,,,,,,,,,,,,,53,,,,,,,,,,,,,,-136,,response,,,,99,,,,,,,Space,keypress(Space),,,,,,,,---- -- ----- -- ------ - ------- --- ----------<br>------------- ------ ------ ---- ---- ------- ----- -- ----<br>-------- ------- -- ---------- --- - --- ----- ----- ----<br>---- --- --- ----- --- ---- ---- ------- ----- ---- -------<br>--- are -- ----- -- --- ---- -- --- ---- -- ------ ------<br>--- ----- -- ----,109273,108929,109065,109063,109081,109298,,40,are
screen,html.Screen,2_1_0_1_41,2022-05-09T20:24:32.304Z,,,,,,,,,,,,,,,,,53,,,,,,,,,,,,,,-137,,response,,,,99,,,,,,,Space,keypress(Space),,,,,,,,---- -- ----- -- ------ - ------- --- ----------<br>------------- ------ ------ ---- ---- ------- ----- -- ----<br>-------- ------- -- ---------- --- - --- ----- ----- ----<br>---- --- --- ----- --- ---- ---- ------- ----- ---- -------<br>--- --- as ----- -- --- ---- -- --- ---- -- ------ ------<br>--- ----- -- ----,109489,109144,109281,109273,109298,109514,,41,as
screen,html.Screen,2_1_0_1_42,2022-05-09T20:24:32.484Z,,,,,,,,,,,,,,,,,53,,,,,,,,,,,,,,-173,,response,,,,99,,,,,,,Space,keypress(Space),,,,,,,,---- -- ----- -- ------ - ------- --- ----------<br>------------- ------ ------ ---- ---- ------- ----- -- ----<br>-------- ------- -- ---------- --- - --- ----- ----- ----<br>---- --- --- ----- --- ---- ---- ------- ----- ---- -------<br>--- --- -- close -- --- ---- -- --- ---- -- ------ ------<br>--- ----- -- ----,109670,109325,109498,109489,109514,109698,,42,close
screen,html.Screen,2_1_0_1_43,2022-05-09T20:24:32.686Z,,,,,,,,,,,,,,,,,53,,,,,,,,,,,,,,-154,,response,,,,99,,,,,,,Space,keypress(Space),,,,,,,,---- -- ----- -- ------ - ------- --- ----------<br>------------- ------ ------ ---- ---- ------- ----- -- ----<br>-------- ------- -- ---------- --- - --- ----- ----- ----<br>---- --- --- ----- --- ---- ---- ------- ----- ---- -------<br>--- --- -- ----- as --- ---- -- --- ---- -- ------ ------<br>--- ----- -- ----,109871.00000000001,109527,109681,109670,109698,109898,,43,as
screen,html.Screen,2_1_0_1_44,2022-05-09T20:24:32.876Z,,,,,,,,,,,,,,,,,53,,,,,,,,,,,,,,-163,,response,,,,99,,,,,,,Space,keypress(Space),,,,,,,,---- -- ----- -- ------ - ------- --- ----------<br>------------- ------ ------ ---- ---- ------- ----- -- ----<br>-------- ------- -- ---------- --- - --- ----- ----- ----<br>---- --- --- ----- --- ---- ---- ------- ----- ---- -------<br>--- --- -- ----- -- you ---- -- --- ---- -- ------ ------<br>--- ----- -- ----,110062,109718,109881,109871.00000000001,109898,110081,,44,you
screen,html.Screen,2_1_0_1_45,2022-05-09T20:24:33.070Z,,,,,,,,,,,,,,,,,53,,,,,,,,,,,,,,-154,,response,,,,99,,,,,,,Space,keypress(Space),,,,,,,,---- -- ----- -- ------ - ------- --- ----------<br>------------- ------ ------ ---- ---- ------- ----- -- ----<br>-------- ------- -- ---------- --- - --- ----- ----- ----<br>---- --- --- ----- --- ---- ---- ------- ----- ---- -------<br>--- --- -- ----- -- --- want -- --- ---- -- ------ ------<br>--- ----- -- ----,110255,109910,110064,110062,110081,110282,,45,want
screen,html.Screen,2_1_0_1_46,2022-05-09T20:24:33.269Z,,,,,,,,,,,,,,,,,53,,,,,,,,,,,,,,-153,,response,,,,99,,,,,,,Space,keypress(Space),,,,,,,,---- -- ----- -- ------ - ------- --- ----------<br>------------- ------ ------ ---- ---- ------- ----- -- ----<br>-------- ------- -- ---------- --- - --- ----- ----- ----<br>---- --- --- ----- --- ---- ---- ------- ----- ---- -------<br>--- --- -- ----- -- --- ---- to --- ---- -- ------ ------<br>--- ----- -- ----,110454.00000000001,110111,110264,110255,110282,110482,,46,to
screen,html.Screen,2_1_0_1_47,2022-05-09T20:24:33.473Z,,,,,,,,,,,,,,,,,53,,,,,,,,,,,,,,-150,,response,,,,99,,,,,,,Space,keypress(Space),,,,,,,,"---- -- ----- -- ------ - ------- --- ----------<br>------------- ------ ------ ---- ---- ------- ----- -- ----<br>-------- ------- -- ---------- --- - --- ----- ----- ----<br>---- --- --- ----- --- ---- ---- ------- ----- ---- -------<br>--- --- -- ----- -- --- ---- -- be, ---- -- ------ ------<br>--- ----- -- ----",110659,110314,110464,110455,110482,110682,,47,"be,"
screen,html.Screen,2_1_0_1_48,2022-05-09T20:24:33.654Z,,,,,,,,,,,,,,,,,53,,,,,,,,,,,,,,-170,,response,,,,99,,,,,,,Space,keypress(Space),,,,,,,,---- -- ----- -- ------ - ------- --- ----------<br>------------- ------ ------ ---- ---- ------- ----- -- ----<br>-------- ------- -- ---------- --- - --- ----- ----- ----<br>---- --- --- ----- --- ---- ---- ------- ----- ---- -------<br>--- --- -- ----- -- --- ---- -- --- even -- ------ ------<br>--- ----- -- ----,110839,110495,110665,110659,110682,110865,,48,even
screen,html.Screen,2_1_0_1_49,2022-05-09T20:24:33.867Z,,,,,,,,,,,,,,,,,53,,,,,,,,,,,,,,-140.99999999998545,,response,,,,99,,,,,,,Space,keypress(Space),,,,,,,,---- -- ----- -- ------ - ------- --- ----------<br>------------- ------ ------ ---- ---- ------- ----- -- ----<br>-------- ------- -- ---------- --- - --- ----- ----- ----<br>---- --- --- ----- --- ---- ---- ------- ----- ---- -------<br>--- --- -- ----- -- --- ---- -- --- ---- if ------ ------<br>--- ----- -- ----,111052,110707.00000000001,110848,110839,110865,111081,,49,if
screen,html.Screen,2_1_0_1_50,2022-05-09T20:24:34.035Z,,,,,,,,,,,,,,,,,53,,,,,,,,,,,,,,-188,,response,,,,99,,,,,,,Space,keypress(Space),,,,,,,,---- -- ----- -- ------ - ------- --- ----------<br>------------- ------ ------ ---- ---- ------- ----- -- ----<br>-------- ------- -- ---------- --- - --- ----- ----- ----<br>---- --- --- ----- --- ---- ---- ------- ----- ---- -------<br>--- --- -- ----- -- --- ---- -- --- ---- -- that's ------<br>--- ----- -- ----,111220,110876,111064,111052,111081,111249,,50,that's
screen,html.Screen,2_1_0_1_51,2022-05-09T20:24:34.237Z,,,,,,,,,,,,,,,,,53,,,,,,,,,,,,,,-151,,response,,,,99,,,,,,,Space,keypress(Space),,,,,,,,---- -- ----- -- ------ - ------- --- ----------<br>------------- ------ ------ ---- ---- ------- ----- -- ----<br>-------- ------- -- ---------- --- - --- ----- ----- ----<br>---- --- --- ----- --- ---- ---- ------- ----- ---- -------<br>--- --- -- ----- -- --- ---- -- --- ---- -- ------ really<br>--- ----- -- ----,111422,111080,111231,111220,111249,111448,,51,really
screen,html.Screen,2_1_0_1_52,2022-05-09T20:24:34.644Z,,,,,,,,,,,,,,,,,53,,,,,,,,,,,,,,52.00000000001455,,response,,,,99,,,,,,,Space,keypress(Space),,,,,,,,---- -- ----- -- ------ - ------- --- ----------<br>------------- ------ ------ ---- ---- ------- ----- -- ----<br>-------- ------- -- ---------- --- - --- ----- ----- ----<br>---- --- --- ----- --- ---- ---- ------- ----- ---- -------<br>--- --- -- ----- -- --- ---- -- --- ---- -- ------ ------<br>not ----- -- ----,111829.00000000001,111484.00000000001,111432,111423,111448,111865,,52,not
screen,html.Screen,2_1_0_1_53,2022-05-09T20:24:34.822Z,,,,,,,,,,,,,,,,,53,,,,,,,,,,,,,,-185,,response,,,,99,,,,,,,Space,keypress(Space),,,,,,,,---- -- ----- -- ------ - ------- --- ----------<br>------------- ------ ------ ---- ---- ------- ----- -- ----<br>-------- ------- -- ---------- --- - --- ----- ----- ----<br>---- --- --- ----- --- ---- ---- ------- ----- ---- -------<br>--- --- -- ----- -- --- ---- -- --- ---- -- ------ ------<br>--- close -- ----,112008,111664,111849,111830,111865,112032,,53,close
screen,html.Screen,2_1_0_1_54,2022-05-09T20:24:35.198Z,,,,,,,,,,,,,,,,,53,,,,,,,,,,,,,,23,,response,,,,99,,,,,,,Space,keypress(Space),,,,,,,,---- -- ----- -- ------ - ------- --- ----------<br>------------- ------ ------ ---- ---- ------- ----- -- ----<br>-------- ------- -- ---------- --- - --- ----- ----- ----<br>---- --- --- ----- --- ---- ---- ------- ----- ---- -------<br>--- --- -- ----- -- --- ---- -- --- ---- -- ------ ------<br>--- ----- at ----,112383,112037,112014,112008,112032,112414,,54,at
screen,html.Screen,2_1_0_1_55,2022-05-09T20:24:35.477Z,,,,,,,,,,,,,,,,,53,,,,,,,,,,,,,,-82,,response,,,,99,,,,,,,Space,keypress(Space),,,,,,,,---- -- ----- -- ------ - ------- --- ----------<br>------------- ------ ------ ---- ---- ------- ----- -- ----<br>-------- ------- -- ---------- --- - --- ----- ----- ----<br>---- --- --- ----- --- ---- ---- ------- ----- ---- -------<br>--- --- -- ----- -- --- ---- -- --- ---- -- ------ ------<br>--- ----- -- all.,112662,112316,112398,112383,112414,112682,,55,all.
Item 99,flow.Loop,2_1_0_1,2022-05-09T20:24:35.478Z,,,,,,,,,,,,,,,,,,,,,,,,,,,,,,,16317,,completion,,,,,G,,,,,,,,,,,silence,,,,,112663,112316,95984,95985,95999,112682,,,
Question 1,html.Screen,2_1_0_2,2022-05-09T20:24:41.356Z,,,,,,,,,,,,,,,,,,,,,,,,,,,,true,FALSE,,5530.000000000015,,response,,,,99,G,,,,,,FALSE,click #choice-2,,,,silence,,,,,118541,118198.00000000001,112668,112663,112682,118565,,,
Question 2,html.Screen,2_1_0_3,2022-05-09T20:24:43.854Z,,,,,,,,,,,,,,,,,,,,,,,,,,,,true,TRUE,,2147.0000000000146,,response,,,,99,G,,,,,,TRUE,click #choice-1,,,,silence,,,,,121039,120695.00000000001,118548,118541,118565,121079,,,
Item 99,flow.Sequence,2_1_0,2022-05-09T20:24:43.854Z,,,,,,,,,,,,,,,,,,,,,,,,,,,,,,,34696.000000000015,,completion,,,,,,,,,,,,,,,,,,,,,121040,120695.00000000001,85982,85979,85999,121079,,,
Holding screen,html.Screen,2_1_1_0,2022-05-09T20:24:53.881Z,,,,,,,,,,,,,,,,,,,,,,,,,,,,,,,10003,,timeout,,,,,,,,,,,,,,,,,,,,,131066,131066,121048,121040,121079,131082,,,
screen,html.Screen,2_1_1_1_0,2022-05-09T20:24:54.218Z,,,,,,,,,,,,,,,,,54,,,,,,,,,,,,,,-6,,response,,,,100,,,,,,,Space,keypress(Space),,,,,,,,At --- ---- --- ------ ----- ------- ---- -- --- ------- --<br>------- ---------- ------ -- ----- -- ----- -- ---- ------<br>--- ----- --- --- ------ -------- ----- --- ------ ----- --<br>----- ----- ---------- --- --- ------ ------ ---- -- ------<br>------- --- ------ ----- --- ---- ------- -- ---- --- --<br>------- ------,131403,131060,131066,131067,131082,131432,,0,At
screen,html.Screen,2_1_1_1_1,2022-05-09T20:24:54.646Z,,,,,,,,,,,,,,,,,54,,,,,,,,,,,,,,72,,response,,,,100,,,,,,,Space,keypress(Space),,,,,,,,-- the ---- --- ------ ----- ------- ---- -- --- ------- --<br>------- ---------- ------ -- ----- -- ----- -- ---- ------<br>--- ----- --- --- ------ -------- ----- --- ------ ----- --<br>----- ----- ---------- --- --- ------ ------ ---- -- ------<br>------- --- ------ ----- --- ---- ------- -- ---- --- --<br>------- ------,131831,131487,131415,131403,131432,131864,,1,the
screen,html.Screen,2_1_1_1_2,2022-05-09T20:24:54.801Z,,,,,,,,,,,,,,,,,54,,,,,,,,,,,,,,-205,,response,,,,100,,,,,,,Space,keypress(Space),,,,,,,,-- --- time --- ------ ----- ------- ---- -- --- ------- --<br>------- ---------- ------ -- ----- -- ----- -- ---- ------<br>--- ----- --- --- ------ -------- ----- --- ------ ----- --<br>----- ----- ---------- --- --- ------ ------ ---- -- ------<br>------- --- ------ ----- --- ---- ------- -- ---- --- --<br>------- ------,131986,131643,131848,131832,131864,132015,,2,time
screen,html.Screen,2_1_1_1_3,2022-05-09T20:24:55.083Z,,,,,,,,,,,,,,,,,54,,,,,,,,,,,,,,-74,,response,,,,100,,,,,,,Space,keypress(Space),,,,,,,,-- --- ---- the ------ ----- ------- ---- -- --- ------- --<br>------- ---------- ------ -- ----- -- ----- -- ---- ------<br>--- ----- --- --- ------ -------- ----- --- ------ ----- --<br>----- ----- ---------- --- --- ------ ------ ---- -- ------<br>------- --- ------ ----- --- ---- ------- -- ---- --- --<br>------- ------,132268,131924,131998,131987,132015,132297,,3,the
screen,html.Screen,2_1_1_1_4,2022-05-09T20:24:55.274Z,,,,,,,,,,,,,,,,,54,,,,,,,,,,,,,,-165,,response,,,,100,,,,,,,Space,keypress(Space),,,,,,,,-- --- ---- --- French ----- ------- ---- -- --- ------- --<br>------- ---------- ------ -- ----- -- ----- -- ---- ------<br>--- ----- --- --- ------ -------- ----- --- ------ ----- --<br>----- ----- ---------- --- --- ------ ------ ---- -- ------<br>------- --- ------ ----- --- ---- ------- -- ---- --- --<br>------- ------,132459,132116,132281,132269,132297,132481,,4,French
screen,html.Screen,2_1_1_1_5,2022-05-09T20:24:55.491Z,,,,,,,,,,,,,,,,,54,,,,,,,,,,,,,,-134,,response,,,,100,,,,,,,Space,keypress(Space),,,,,,,,-- --- ---- --- ------ crown ------- ---- -- --- ------- --<br>------- ---------- ------ -- ----- -- ----- -- ---- ------<br>--- ----- --- --- ------ -------- ----- --- ------ ----- --<br>----- ----- ---------- --- --- ------ ------ ---- -- ------<br>------- --- ------ ----- --- ---- ------- -- ---- --- --<br>------- ------,132676.00000000003,132330,132464,132460,132481,132698,,5,crown
screen,html.Screen,2_1_1_1_6,2022-05-09T20:24:55.706Z,,,,,,,,,,,,,,,,,54,,,,,,,,,,,,,,-134.9999999999709,,response,,,,100,,,,,,,Space,keypress(Space),,,,,,,,-- --- ---- --- ------ ----- secured ---- -- --- ------- --<br>------- ---------- ------ -- ----- -- ----- -- ---- ------<br>--- ----- --- --- ------ -------- ----- --- ------ ----- --<br>----- ----- ---------- --- --- ------ ------ ---- -- ------<br>------- --- ------ ----- --- ---- ------- -- ---- --- --<br>------- ------,132891,132545.00000000003,132680,132676.00000000003,132698,132914,,6,secured
screen,html.Screen,2_1_1_1_7,2022-05-09T20:24:55.930Z,,,,,,,,,,,,,,,,,54,,,,,,,,,,,,,,-129,,response,,,,100,,,,,,,Space,keypress(Space),,,,,,,,-- --- ---- --- ------ ----- ------- much -- --- ------- --<br>------- ---------- ------ -- ----- -- ----- -- ---- ------<br>--- ----- --- --- ------ -------- ----- --- ------ ----- --<br>----- ----- ---------- --- --- ------ ------ ---- -- ------<br>------- --- ------ ----- --- ---- ------- -- ---- --- --<br>------- ------,133115,132769,132898,132892,132914,133148,,7,much
screen,html.Screen,2_1_1_1_8,2022-05-09T20:24:56.132Z,,,,,,,,,,,,,,,,,54,,,,,,,,,,,,,,-160,,response,,,,100,,,,,,,Space,keypress(Space),,,,,,,,-- --- ---- --- ------ ----- ------- ---- of --- ------- --<br>------- ---------- ------ -- ----- -- ----- -- ---- ------<br>--- ----- --- --- ------ -------- ----- --- ------ ----- --<br>----- ----- ---------- --- --- ------ ------ ---- -- ------<br>------- --- ------ ----- --- ---- ------- -- ---- --- --<br>------- ------,133317,132971,133131,133116,133148,133347,,8,of
screen,html.Screen,2_1_1_1_9,2022-05-09T20:24:56.334Z,,,,,,,,,,,,,,,,,54,,,,,,,,,,,,,,-158,,response,,,,100,,,,,,,Space,keypress(Space),,,,,,,,-- --- ---- --- ------ ----- ------- ---- -- its ------- --<br>------- ---------- ------ -- ----- -- ----- -- ---- ------<br>--- ----- --- --- ------ -------- ----- --- ------ ----- --<br>----- ----- ---------- --- --- ------ ------ ---- -- ------<br>------- --- ------ ----- --- ---- ------- -- ---- --- --<br>------- ------,133519,133173,133331,133317,133347,133547,,9,its
screen,html.Screen,2_1_1_1_10,2022-05-09T20:24:56.525Z,,,,,,,,,,,,,,,,,54,,,,,,,,,,,,,,-165,,response,,,,100,,,,,,,Space,keypress(Space),,,,,,,,-- --- ---- --- ------ ----- ------- ---- -- --- revenue --<br>------- ---------- ------ -- ----- -- ----- -- ---- ------<br>--- ----- --- --- ------ -------- ----- --- ------ ----- --<br>----- ----- ---------- --- --- ------ ------ ---- -- ------<br>------- --- ------ ----- --- ---- ------- -- ---- --- --<br>------- ------,133711,133365,133530,133520,133547,133731,,10,revenue
screen,html.Screen,2_1_1_1_11,2022-05-09T20:24:56.716Z,,,,,,,,,,,,,,,,,54,,,,,,,,,,,,,,-157,,response,,,,100,,,,,,,Space,keypress(Space),,,,,,,,-- --- ---- --- ------ ----- ------- ---- -- --- ------- by<br>------- ---------- ------ -- ----- -- ----- -- ---- ------<br>--- ----- --- --- ------ -------- ----- --- ------ ----- --<br>----- ----- ---------- --- --- ------ ------ ---- -- ------<br>------- --- ------ ----- --- ---- ------- -- ---- --- --<br>------- ------,133901,133556,133713,133711,133731,133931,,11,by
screen,html.Screen,2_1_1_1_12,2022-05-09T20:24:56.933Z,,,,,,,,,,,,,,,,,54,,,,,,,,,,,,,,-142,,response,,,,100,,,,,,,Space,keypress(Space),,,,,,,,-- --- ---- --- ------ ----- ------- ---- -- --- ------- --<br>issuing ---------- ------ -- ----- -- ----- -- ---- ------<br>--- ----- --- --- ------ -------- ----- --- ------ ----- --<br>----- ----- ---------- --- --- ------ ------ ---- -- ------<br>------- --- ------ ----- --- ---- ------- -- ---- --- --<br>------- ------,134118,133772,133914,133901,133931,134147,,12,issuing
screen,html.Screen,2_1_1_1_13,2022-05-09T20:24:57.122Z,,,,,,,,,,,,,,,,,54,,,,,,,,,,,,,,-169,,response,,,,100,,,,,,,Space,keypress(Space),,,,,,,,-- --- ---- --- ------ ----- ------- ---- -- --- ------- --<br>------- government ------ -- ----- -- ----- -- ---- ------<br>--- ----- --- --- ------ -------- ----- --- ------ ----- --<br>----- ----- ---------- --- --- ------ ------ ---- -- ------<br>------- --- ------ ----- --- ---- ------- -- ---- --- --<br>------- ------,134307.00000000003,133962,134131,134118,134147,134331,,13,government
screen,html.Screen,2_1_1_1_14,2022-05-09T20:24:57.324Z,,,,,,,,,,,,,,,,,54,,,,,,,,,,,,,,-149,,response,,,,100,,,,,,,Space,keypress(Space),,,,,,,,-- --- ---- --- ------ ----- ------- ---- -- --- ------- --<br>------- ---------- bonds. -- ----- -- ----- -- ---- ------<br>--- ----- --- --- ------ -------- ----- --- ------ ----- --<br>----- ----- ---------- --- --- ------ ------ ---- -- ------<br>------- --- ------ ----- --- ---- ------- -- ---- --- --<br>------- ------,134509,134165,134314,134307.00000000003,134331,134531,,14,bonds.
screen,html.Screen,2_1_1_1_15,2022-05-09T20:24:57.514Z,,,,,,,,,,,,,,,,,54,,,,,,,,,,,,,,-160,,response,,,,100,,,,,,,Space,keypress(Space),,,,,,,,-- --- ---- --- ------ ----- ------- ---- -- --- ------- --<br>------- ---------- ------ In ----- -- ----- -- ---- ------<br>--- ----- --- --- ------ -------- ----- --- ------ ----- --<br>----- ----- ---------- --- --- ------ ------ ---- -- ------<br>------- --- ------ ----- --- ---- ------- -- ---- --- --<br>------- ------,134699,134354,134514,134509,134531,134731,,15,In
screen,html.Screen,2_1_1_1_16,2022-05-09T20:24:57.728Z,,,,,,,,,,,,,,,,,54,,,,,,,,,,,,,,-146,,response,,,,100,,,,,,,Space,keypress(Space),,,,,,,,"-- --- ---- --- ------ ----- ------- ---- -- --- ------- --<br>------- ---------- ------ -- 1727, -- ----- -- ---- ------<br>--- ----- --- --- ------ -------- ----- --- ------ ----- --<br>----- ----- ---------- --- --- ------ ------ ---- -- ------<br>------- --- ------ ----- --- ---- ------- -- ---- --- --<br>------- ------",134913,134568,134714,134700,134731,134931,,16,"1727,"
screen,html.Screen,2_1_1_1_17,2022-05-09T20:24:58.180Z,,,,,,,,,,,,,,,,,54,,,,,,,,,,,,,,103,,response,,,,100,,,,,,,Space,keypress(Space),,,,,,,,-- --- ---- --- ------ ----- ------- ---- -- --- ------- --<br>------- ---------- ------ -- ----- in ----- -- ---- ------<br>--- ----- --- --- ------ -------- ----- --- ------ ----- --<br>----- ----- ---------- --- --- ------ ------ ---- -- ------<br>------- --- ------ ----- --- ---- ------- -- ---- --- --<br>------- ------,135365,135019,134916,134914.00000000003,134931,135398,,17,in
screen,html.Screen,2_1_1_1_18,2022-05-09T20:24:58.356Z,,,,,,,,,,,,,,,,,54,,,,,,,,,,,,,,-184,,response,,,,100,,,,,,,Space,keypress(Space),,,,,,,,-- --- ---- --- ------ ----- ------- ---- -- --- ------- --<br>------- ---------- ------ -- ----- -- order -- ---- ------<br>--- ----- --- --- ------ -------- ----- --- ------ ----- --<br>----- ----- ---------- --- --- ------ ------ ---- -- ------<br>------- --- ------ ----- --- ---- ------- -- ---- --- --<br>------- ------,135541,135198,135382,135365,135398,135565,,18,order
screen,html.Screen,2_1_1_1_19,2022-05-09T20:24:58.573Z,,,,,,,,,,,,,,,,,54,,,,,,,,,,,,,,-136,,response,,,,100,,,,,,,Space,keypress(Space),,,,,,,,-- --- ---- --- ------ ----- ------- ---- -- --- ------- --<br>------- ---------- ------ -- ----- -- ----- to ---- ------<br>--- ----- --- --- ------ -------- ----- --- ------ ----- --<br>----- ----- ---------- --- --- ------ ------ ---- -- ------<br>------- --- ------ ----- --- ---- ------- -- ---- --- --<br>------- ------,135758,135412,135548,135542,135565,135781,,19,to
screen,html.Screen,2_1_1_1_20,2022-05-09T20:24:58.798Z,,,,,,,,,,,,,,,,,54,,,,,,,,,,,,,,-128,,response,,,,100,,,,,,,Space,keypress(Space),,,,,,,,-- --- ---- --- ------ ----- ------- ---- -- --- ------- --<br>------- ---------- ------ -- ----- -- ----- -- save ------<br>--- ----- --- --- ------ -------- ----- --- ------ ----- --<br>----- ----- ---------- --- --- ------ ------ ---- -- ------<br>------- --- ------ ----- --- ---- ------- -- ---- --- --<br>------- ------,135983,135637,135765,135759,135781,136015,,20,save
screen,html.Screen,2_1_1_1_21,2022-05-09T20:24:58.977Z,,,,,,,,,,,,,,,,,54,,,,,,,,,,,,,,-181,,response,,,,100,,,,,,,Space,keypress(Space),,,,,,,,"-- --- ---- --- ------ ----- ------- ---- -- --- ------- --<br>------- ---------- ------ -- ----- -- ----- -- ---- money,<br>--- ----- --- --- ------ -------- ----- --- ------ ----- --<br>----- ----- ---------- --- --- ------ ------ ---- -- ------<br>------- --- ------ ----- --- ---- ------- -- ---- --- --<br>------- ------",136162,135817,135998,135983,136015,136181,,21,"money,"
screen,html.Screen,2_1_1_1_22,2022-05-09T20:24:59.192Z,,,,,,,,,,,,,,,,,54,,,,,,,,,,,,,,-133,,response,,,,100,,,,,,,Space,keypress(Space),,,,,,,,-- --- ---- --- ------ ----- ------- ---- -- --- ------- --<br>------- ---------- ------ -- ----- -- ----- -- ---- ------<br>the ----- --- --- ------ -------- ----- --- ------ ----- --<br>----- ----- ---------- --- --- ------ ------ ---- -- ------<br>------- --- ------ ----- --- ---- ------- -- ---- --- --<br>------- ------,136377,136031,136164,136162,136181,136397,,22,the
screen,html.Screen,2_1_1_1_23,2022-05-09T20:24:59.406Z,,,,,,,,,,,,,,,,,54,,,,,,,,,,,,,,-136,,response,,,,100,,,,,,,Space,keypress(Space),,,,,,,,-- --- ---- --- ------ ----- ------- ---- -- --- ------- --<br>------- ---------- ------ -- ----- -- ----- -- ---- ------<br>--- state --- --- ------ -------- ----- --- ------ ----- --<br>----- ----- ---------- --- --- ------ ------ ---- -- ------<br>------- --- ------ ----- --- ---- ------- -- ---- --- --<br>------- ------,136591,136245,136381,136377,136397,136614,,23,state
screen,html.Screen,2_1_1_1_24,2022-05-09T20:24:59.608Z,,,,,,,,,,,,,,,,,54,,,,,,,,,,,,,,-151,,response,,,,100,,,,,,,Space,keypress(Space),,,,,,,,-- --- ---- --- ------ ----- ------- ---- -- --- ------- --<br>------- ---------- ------ -- ----- -- ----- -- ---- ------<br>--- ----- cut --- ------ -------- ----- --- ------ ----- --<br>----- ----- ---------- --- --- ------ ------ ---- -- ------<br>------- --- ------ ----- --- ---- ------- -- ---- --- --<br>------- ------,136793,136447,136598,136592,136614,136815,,24,cut
screen,html.Screen,2_1_1_1_25,2022-05-09T20:24:59.800Z,,,,,,,,,,,,,,,,,54,,,,,,,,,,,,,,-159,,response,,,,100,,,,,,,Space,keypress(Space),,,,,,,,-- --- ---- --- ------ ----- ------- ---- -- --- ------- --<br>------- ---------- ------ -- ----- -- ----- -- ---- ------<br>--- ----- --- the ------ -------- ----- --- ------ ----- --<br>----- ----- ---------- --- --- ------ ------ ---- -- ------<br>------- --- ------ ----- --- ---- ------- -- ---- --- --<br>------- ------,136985,136639,136798,136793,136815,137015,,25,the
screen,html.Screen,2_1_1_1_26,2022-05-09T20:25:00.003Z,,,,,,,,,,,,,,,,,54,,,,,,,,,,,,,,-156,,response,,,,100,,,,,,,Space,keypress(Space),,,,,,,,-- --- ---- --- ------ ----- ------- ---- -- --- ------- --<br>------- ---------- ------ -- ----- -- ----- -- ---- ------<br>--- ----- --- --- bonds' -------- ----- --- ------ ----- --<br>----- ----- ---------- --- --- ------ ------ ---- -- ------<br>------- --- ------ ----- --- ---- ------- -- ---- --- --<br>------- ------,137188.00000000003,136842,136998,136985,137015,137215,,26,bonds'
screen,html.Screen,2_1_1_1_27,2022-05-09T20:25:00.193Z,,,,,,,,,,,,,,,,,54,,,,,,,,,,,,,,-165,,response,,,,100,,,,,,,Space,keypress(Space),,,,,,,,-- --- ---- --- ------ ----- ------- ---- -- --- ------- --<br>------- ---------- ------ -- ----- -- ----- -- ---- ------<br>--- ----- --- --- ------ interest ----- --- ------ ----- --<br>----- ----- ---------- --- --- ------ ------ ---- -- ------<br>------- --- ------ ----- --- ---- ------- -- ---- --- --<br>------- ------,137378,137032,137197,137188.00000000003,137215,137398,,27,interest
screen,html.Screen,2_1_1_1_28,2022-05-09T20:25:00.394Z,,,,,,,,,,,,,,,,,54,,,,,,,,,,,,,,-147,,response,,,,100,,,,,,,Space,keypress(Space),,,,,,,,-- --- ---- --- ------ ----- ------- ---- -- --- ------- --<br>------- ---------- ------ -- ----- -- ----- -- ---- ------<br>--- ----- --- --- ------ -------- rate. --- ------ ----- --<br>----- ----- ---------- --- --- ------ ------ ---- -- ------<br>------- --- ------ ----- --- ---- ------- -- ---- --- --<br>------- ------,137579,137234,137381,137378,137398,137598,,28,rate.
screen,html.Screen,2_1_1_1_29,2022-05-09T20:25:00.598Z,,,,,,,,,,,,,,,,,54,,,,,,,,,,,,,,-144,,response,,,,100,,,,,,,Space,keypress(Space),,,,,,,,-- --- ---- --- ------ ----- ------- ---- -- --- ------- --<br>------- ---------- ------ -- ----- -- ----- -- ---- ------<br>--- ----- --- --- ------ -------- ----- The ------ ----- --<br>----- ----- ---------- --- --- ------ ------ ---- -- ------<br>------- --- ------ ----- --- ---- ------- -- ---- --- --<br>------- ------,137783.00000000003,137437,137581,137580,137598,137815,,29,The
screen,html.Screen,2_1_1_1_30,2022-05-09T20:25:00.792Z,,,,,,,,,,,,,,,,,54,,,,,,,,,,,,,,-167,,response,,,,100,,,,,,,Space,keypress(Space),,,,,,,,-- --- ---- --- ------ ----- ------- ---- -- --- ------- --<br>------- ---------- ------ -- ----- -- ----- -- ---- ------<br>--- ----- --- --- ------ -------- ----- --- market ----- --<br>----- ----- ---------- --- --- ------ ------ ---- -- ------<br>------- --- ------ ----- --- ---- ------- -- ---- --- --<br>------- ------,137977,137631,137798,137783.00000000003,137815,137997,,30,market
screen,html.Screen,2_1_1_1_31,2022-05-09T20:25:00.992Z,,,,,,,,,,,,,,,,,54,,,,,,,,,,,,,,-149,,response,,,,100,,,,,,,Space,keypress(Space),,,,,,,,-- --- ---- --- ------ ----- ------- ---- -- --- ------- --<br>------- ---------- ------ -- ----- -- ----- -- ---- ------<br>--- ----- --- --- ------ -------- ----- --- ------ value --<br>----- ----- ---------- --- --- ------ ------ ---- -- ------<br>------- --- ------ ----- --- ---- ------- -- ---- --- --<br>------- ------,138177,137832,137981,137977,137997,138198,,31,value
screen,html.Screen,2_1_1_1_32,2022-05-09T20:25:01.195Z,,,,,,,,,,,,,,,,,54,,,,,,,,,,,,,,-147,,response,,,,100,,,,,,,Space,keypress(Space),,,,,,,,-- --- ---- --- ------ ----- ------- ---- -- --- ------- --<br>------- ---------- ------ -- ----- -- ----- -- ---- ------<br>--- ----- --- --- ------ -------- ----- --- ------ ----- of<br>----- ----- ---------- --- --- ------ ------ ---- -- ------<br>------- --- ------ ----- --- ---- ------- -- ---- --- --<br>------- ------,138380,138034,138181,138177,138198,138398,,32,of
screen,html.Screen,2_1_1_1_33,2022-05-09T20:25:01.375Z,,,,,,,,,,,,,,,,,54,,,,,,,,,,,,,,-169,,response,,,,100,,,,,,,Space,keypress(Space),,,,,,,,-- --- ---- --- ------ ----- ------- ---- -- --- ------- --<br>------- ---------- ------ -- ----- -- ----- -- ---- ------<br>--- ----- --- --- ------ -------- ----- --- ------ ----- --<br>these ----- ---------- --- --- ------ ------ ---- -- ------<br>------- --- ------ ----- --- ---- ------- -- ---- --- --<br>------- ------,138560,138213,138382,138381,138398,138581,,33,these
screen,html.Screen,2_1_1_1_34,2022-05-09T20:25:01.578Z,,,,,,,,,,,,,,,,,54,,,,,,,,,,,,,,-148,,response,,,,100,,,,,,,Space,keypress(Space),,,,,,,,-- --- ---- --- ------ ----- ------- ---- -- --- ------- --<br>------- ---------- ------ -- ----- -- ----- -- ---- ------<br>--- ----- --- --- ------ -------- ----- --- ------ ----- --<br>----- bonds ---------- --- --- ------ ------ ---- -- ------<br>------- --- ------ ----- --- ---- ------- -- ---- --- --<br>------- ------,138763,138417,138565,138560,138581,138781,,34,bonds
screen,html.Screen,2_1_1_1_35,2022-05-09T20:25:01.753Z,,,,,,,,,,,,,,,,,54,,,,,,,,,,,,,,-170,,response,,,,100,,,,,,,Space,keypress(Space),,,,,,,,"-- --- ---- --- ------ ----- ------- ---- -- --- ------- --<br>------- ---------- ------ -- ----- -- ----- -- ---- ------<br>--- ----- --- --- ------ -------- ----- --- ------ ----- --<br>----- ----- plummeted, --- --- ------ ------ ---- -- ------<br>------- --- ------ ----- --- ---- ------- -- ---- --- --<br>------- ------",138938.00000000003,138595,138765,138764,138781,138965,,35,"plummeted,"
screen,html.Screen,2_1_1_1_36,2022-05-09T20:25:01.981Z,,,,,,,,,,,,,,,,,54,,,,,,,,,,,,,,-127,,response,,,,100,,,,,,,Space,keypress(Space),,,,,,,,-- --- ---- --- ------ ----- ------- ---- -- --- ------- --<br>------- ---------- ------ -- ----- -- ----- -- ---- ------<br>--- ----- --- --- ------ -------- ----- --- ------ ----- --<br>----- ----- ---------- and --- ------ ------ ---- -- ------<br>------- --- ------ ----- --- ---- ------- -- ---- --- --<br>------- ------,139166,138821,138948,138938.00000000003,138965,139198,,36,and
screen,html.Screen,2_1_1_1_37,2022-05-09T20:25:02.174Z,,,,,,,,,,,,,,,,,54,,,,,,,,,,,,,,-168,,response,,,,100,,,,,,,Space,keypress(Space),,,,,,,,-- --- ---- --- ------ ----- ------- ---- -- --- ------- --<br>------- ---------- ------ -- ----- -- ----- -- ---- ------<br>--- ----- --- --- ------ -------- ----- --- ------ ----- --<br>----- ----- ---------- --- the ------ ------ ---- -- ------<br>------- --- ------ ----- --- ---- ------- -- ---- --- --<br>------- ------,139359,139013,139181,139166,139198,139382,,37,the
screen,html.Screen,2_1_1_1_38,2022-05-09T20:25:02.374Z,,,,,,,,,,,,,,,,,54,,,,,,,,,,,,,,-150,,response,,,,100,,,,,,,Space,keypress(Space),,,,,,,,-- --- ---- --- ------ ----- ------- ---- -- --- ------- --<br>------- ---------- ------ -- ----- -- ----- -- ---- ------<br>--- ----- --- --- ------ -------- ----- --- ------ ----- --<br>----- ----- ---------- --- --- market ------ ---- -- ------<br>------- --- ------ ----- --- ---- ------- -- ---- --- --<br>------- ------,139559,139214,139364,139359,139382,139582,,38,market
screen,html.Screen,2_1_1_1_39,2022-05-09T20:25:02.566Z,,,,,,,,,,,,,,,,,54,,,,,,,,,,,,,,-159,,response,,,,100,,,,,,,Space,keypress(Space),,,,,,,,-- --- ---- --- ------ ----- ------- ---- -- --- ------- --<br>------- ---------- ------ -- ----- -- ----- -- ---- ------<br>--- ----- --- --- ------ -------- ----- --- ------ ----- --<br>----- ----- ---------- --- --- ------ became ---- -- ------<br>------- --- ------ ----- --- ---- ------- -- ---- --- --<br>------- ------,139751,139406,139565,139560,139582,139781,,39,became
screen,html.Screen,2_1_1_1_40,2022-05-09T20:25:02.746Z,,,,,,,,,,,,,,,,,54,,,,,,,,,,,,,,-179,,response,,,,100,,,,,,,Space,keypress(Space),,,,,,,,-- --- ---- --- ------ ----- ------- ---- -- --- ------- --<br>------- ---------- ------ -- ----- -- ----- -- ---- ------<br>--- ----- --- --- ------ -------- ----- --- ------ ----- --<br>----- ----- ---------- --- --- ------ ------ wary -- ------<br>------- --- ------ ----- --- ---- ------- -- ---- --- --<br>------- ------,139931,139586,139765,139752,139781,139964,,40,wary
screen,html.Screen,2_1_1_1_41,2022-05-09T20:25:02.948Z,,,,,,,,,,,,,,,,,54,,,,,,,,,,,,,,-160,,response,,,,100,,,,,,,Space,keypress(Space),,,,,,,,-- --- ---- --- ------ ----- ------- ---- -- --- ------- --<br>------- ---------- ------ -- ----- -- ----- -- ---- ------<br>--- ----- --- --- ------ -------- ----- --- ------ ----- --<br>----- ----- ---------- --- --- ------ ------ ---- of ------<br>------- --- ------ ----- --- ---- ------- -- ---- --- --<br>------- ------,140133,139788,139948,139931,139964,140165,,41,of
screen,html.Screen,2_1_1_1_42,2022-05-09T20:25:03.139Z,,,,,,,,,,,,,,,,,54,,,,,,,,,,,,,,-168,,response,,,,100,,,,,,,Space,keypress(Space),,,,,,,,-- --- ---- --- ------ ----- ------- ---- -- --- ------- --<br>------- ---------- ------ -- ----- -- ----- -- ---- ------<br>--- ----- --- --- ------ -------- ----- --- ------ ----- --<br>----- ----- ---------- --- --- ------ ------ ---- -- French<br>------- --- ------ ----- --- ---- ------- -- ---- --- --<br>------- ------,140324,139979,140147,140133,140165,140348,,42,French
screen,html.Screen,2_1_1_1_43,2022-05-09T20:25:03.332Z,,,,,,,,,,,,,,,,,54,,,,,,,,,,,,,,-160,,response,,,,100,,,,,,,Space,keypress(Space),,,,,,,,-- --- ---- --- ------ ----- ------- ---- -- --- ------- --<br>------- ---------- ------ -- ----- -- ----- -- ---- ------<br>--- ----- --- --- ------ -------- ----- --- ------ ----- --<br>----- ----- ---------- --- --- ------ ------ ---- -- ------<br>credit. --- ------ ----- --- ---- ------- -- ---- --- --<br>------- ------,140517,140171,140331,140325.00000000003,140348,140547,,43,credit.
screen,html.Screen,2_1_1_1_44,2022-05-09T20:25:03.523Z,,,,,,,,,,,,,,,,,54,,,,,,,,,,,,,,-169,,response,,,,100,,,,,,,Space,keypress(Space),,,,,,,,-- --- ---- --- ------ ----- ------- ---- -- --- ------- --<br>------- ---------- ------ -- ----- -- ----- -- ---- ------<br>--- ----- --- --- ------ -------- ----- --- ------ ----- --<br>----- ----- ---------- --- --- ------ ------ ---- -- ------<br>------- The ------ ----- --- ---- ------- -- ---- --- --<br>------- ------,140708,140362,140531,140518,140547,140730,,44,The
screen,html.Screen,2_1_1_1_45,2022-05-09T20:25:03.715Z,,,,,,,,,,,,,,,,,54,,,,,,,,,,,,,,-160,,response,,,,100,,,,,,,Space,keypress(Space),,,,,,,,-- --- ---- --- ------ ----- ------- ---- -- --- ------- --<br>------- ---------- ------ -- ----- -- ----- -- ---- ------<br>--- ----- --- --- ------ -------- ----- --- ------ ----- --<br>----- ----- ---------- --- --- ------ ------ ---- -- ------<br>------- --- French ----- --- ---- ------- -- ---- --- --<br>------- ------,140900,140554,140714,140709,140730,140931,,45,French
screen,html.Screen,2_1_1_1_46,2022-05-09T20:25:03.896Z,,,,,,,,,,,,,,,,,54,,,,,,,,,,,,,,-180,,response,,,,100,,,,,,,Space,keypress(Space),,,,,,,,-- --- ---- --- ------ ----- ------- ---- -- --- ------- --<br>------- ---------- ------ -- ----- -- ----- -- ---- ------<br>--- ----- --- --- ------ -------- ----- --- ------ ----- --<br>----- ----- ---------- --- --- ------ ------ ---- -- ------<br>------- --- ------ state --- ---- ------- -- ---- --- --<br>------- ------,141081,140735,140915,140901,140931,141114,,46,state
screen,html.Screen,2_1_1_1_47,2022-05-09T20:25:04.074Z,,,,,,,,,,,,,,,,,54,,,,,,,,,,,,,,-182.9999999999709,,response,,,,100,,,,,,,Space,keypress(Space),,,,,,,,-- --- ---- --- ------ ----- ------- ---- -- --- ------- --<br>------- ---------- ------ -- ----- -- ----- -- ---- ------<br>--- ----- --- --- ------ -------- ----- --- ------ ----- --<br>----- ----- ---------- --- --- ------ ------ ---- -- ------<br>------- --- ------ ----- was ---- ------- -- ---- --- --<br>------- ------,141259,140914.00000000003,141097,141081,141114,141281,,47,was
screen,html.Screen,2_1_1_1_48,2022-05-09T20:25:04.254Z,,,,,,,,,,,,,,,,,54,,,,,,,,,,,,,,-170,,response,,,,100,,,,,,,Space,keypress(Space),,,,,,,,-- --- ---- --- ------ ----- ------- ---- -- --- ------- --<br>------- ---------- ------ -- ----- -- ----- -- ---- ------<br>--- ----- --- --- ------ -------- ----- --- ------ ----- --<br>----- ----- ---------- --- --- ------ ------ ---- -- ------<br>------- --- ------ ----- --- left ------- -- ---- --- --<br>------- ------,141439,141095,141265,141259,141281,141465,,48,left
screen,html.Screen,2_1_1_1_49,2022-05-09T20:25:04.425Z,,,,,,,,,,,,,,,,,54,,,,,,,,,,,,,,-185,,response,,,,100,,,,,,,Space,keypress(Space),,,,,,,,-- --- ---- --- ------ ----- ------- ---- -- --- ------- --<br>------- ---------- ------ -- ----- -- ----- -- ---- ------<br>--- ----- --- --- ------ -------- ----- --- ------ ----- --<br>----- ----- ---------- --- --- ------ ------ ---- -- ------<br>------- --- ------ ----- --- ---- without -- ---- --- --<br>------- ------,141610,141263,141448,141440,141465,141631,,49,without
screen,html.Screen,2_1_1_1_50,2022-05-09T20:25:04.614Z,,,,,,,,,,,,,,,,,54,,,,,,,,,,,,,,-161,,response,,,,100,,,,,,,Space,keypress(Space),,,,,,,,-- --- ---- --- ------ ----- ------- ---- -- --- ------- --<br>------- ---------- ------ -- ----- -- ----- -- ---- ------<br>--- ----- --- --- ------ -------- ----- --- ------ ----- --<br>----- ----- ---------- --- --- ------ ------ ---- -- ------<br>------- --- ------ ----- --- ---- ------- an ---- --- --<br>------- ------,141799,141453,141614,141610,141631,141831,,50,an
screen,html.Screen,2_1_1_1_51,2022-05-09T20:25:04.785Z,,,,,,,,,,,,,,,,,54,,,,,,,,,,,,,,-190,,response,,,,100,,,,,,,Space,keypress(Space),,,,,,,,-- --- ---- --- ------ ----- ------- ---- -- --- ------- --<br>------- ---------- ------ -- ----- -- ----- -- ---- ------<br>--- ----- --- --- ------ -------- ----- --- ------ ----- --<br>----- ----- ---------- --- --- ------ ------ ---- -- ------<br>------- --- ------ ----- --- ---- ------- -- easy --- --<br>------- ------,141970,141624,141814,141800,141831,141998,,51,easy
screen,html.Screen,2_1_1_1_52,2022-05-09T20:25:04.982Z,,,,,,,,,,,,,,,,,54,,,,,,,,,,,,,,-157,,response,,,,100,,,,,,,Space,keypress(Space),,,,,,,,-- --- ---- --- ------ ----- ------- ---- -- --- ------- --<br>------- ---------- ------ -- ----- -- ----- -- ---- ------<br>--- ----- --- --- ------ -------- ----- --- ------ ----- --<br>----- ----- ---------- --- --- ------ ------ ---- -- ------<br>------- --- ------ ----- --- ---- ------- -- ---- way --<br>------- ------,142167,141824,141981,141970,141998,142197,,52,way
screen,html.Screen,2_1_1_1_53,2022-05-09T20:25:05.154Z,,,,,,,,,,,,,,,,,54,,,,,,,,,,,,,,-187,,response,,,,100,,,,,,,Space,keypress(Space),,,,,,,,-- --- ---- --- ------ ----- ------- ---- -- --- ------- --<br>------- ---------- ------ -- ----- -- ----- -- ---- ------<br>--- ----- --- --- ------ -------- ----- --- ------ ----- --<br>----- ----- ---------- --- --- ------ ------ ---- -- ------<br>------- --- ------ ----- --- ---- ------- -- ---- --- of<br>------- ------,142339,141993,142180,142168,142197,142364,,53,of
screen,html.Screen,2_1_1_1_54,2022-05-09T20:25:05.591Z,,,,,,,,,,,,,,,,,54,,,,,,,,,,,,,,84.0000000000291,,response,,,,100,,,,,,,Space,keypress(Space),,,,,,,,-- --- ---- --- ------ ----- ------- ---- -- --- ------- --<br>------- ---------- ------ -- ----- -- ----- -- ---- ------<br>--- ----- --- --- ------ -------- ----- --- ------ ----- --<br>----- ----- ---------- --- --- ------ ------ ---- -- ------<br>------- --- ------ ----- --- ---- ------- -- ---- --- --<br>raising ------,142776,142432.00000000003,142348,142340,142364,142815,,54,raising
screen,html.Screen,2_1_1_1_55,2022-05-09T20:25:05.966Z,,,,,,,,,,,,,,,,,54,,,,,,,,,,,,,,7,,response,,,,100,,,,,,,Space,keypress(Space),,,,,,,,-- --- ---- --- ------ ----- ------- ---- -- --- ------- --<br>------- ---------- ------ -- ----- -- ----- -- ---- ------<br>--- ----- --- --- ------ -------- ----- --- ------ ----- --<br>----- ----- ---------- --- --- ------ ------ ---- -- ------<br>------- --- ------ ----- --- ---- ------- -- ---- --- --<br>------- money.,143151,142805,142798,142776,142815,143180,,55,money.
Item 100,flow.Loop,2_1_1_1,2022-05-09T20:25:05.967Z,,,,,,,,,,,,,,,,,,,,,,,,,,,,,,,11723,,completion,,,,,G,,,,,,,,,,,silence,,,,,143152.00000000003,142805,131066,131066,131082,143180,,,
Question 1,html.Screen,2_1_1_2,2022-05-09T20:25:08.322Z,,,,,,,,,,,,,,,,,,,,,,,,,,,,true,TRUE,,2000.000000000029,,response,,,,100,G,,,,,,TRUE,click #choice-1,,,,silence,,,,,145507,145164.00000000003,143164,143152.00000000003,143180,145531,,,
Question 2,html.Screen,2_1_1_3,2022-05-09T20:25:10.279Z,,,,,,,,,,,,,,,,,,,,,,,,,,,,true,FALSE,,1607,,response,,,,100,G,,,,,,FALSE,click #choice-2,,,,silence,,,,,147464,147121,145514,145507,145531,147497,,,
Item 100,flow.Sequence,2_1_1,2022-05-09T20:25:10.280Z,,,,,,,,,,,,,,,,,,,,,,,,,,,,,,,26042,,completion,,,,,,,,,,,,,,,,,,,,,147464,147121,121048,121040,121079,147497,,,
End of Practice,html.Page,2_1_2,2022-05-09T20:25:12.355Z,,,,,,,,,,,,,,,,,,,,,,,,,,,,,,,2043,,form submission,,,,,,,,,,,,,,,,,,,,,149540,149540,147481,147465,147497,149565,,,
Practice,flow.Sequence,2_1,2022-05-09T20:25:12.356Z,,,,,,,,,,,,,,,,,,,,,,,,,,,,,,,63541,,completion,,,,,,,,,,,,,,,,,,,,,149541,149540,85982,85979,85999,149565,,,
Trap_instruction,html.Page,2_2_0,2022-05-09T20:25:16.287Z,,,,,,,,,,,,,,,,,,,,,,,,,,,,,,,3906,,form submission,,,,,,,,,,,,,,,,,,,,,153472,153471,149547,149541,149565,153498,,,
trap_trial,html.Screen,2_2_1,2022-05-09T20:25:20.900Z,,,,,,,,,,,,,,,,,,,,,,,,,,,,true,1,,4260,,response,,,,,,,,,,,1,click #choice-1,,,,,,,,,158085,157741,153481,153472,153498,158131,,,
end of trap trial,html.Page,2_2_2,2022-05-09T20:25:22.666Z,,,,,,,,,,,,,,,,,,,,,,,,,,,,,,,1720,,form submission,,,,,,,,,,,,,,,,,,,,,159851,159851,158098,158086,158131,159880,,,
Trap 1,flow.Sequence,2_2,2022-05-09T20:25:22.667Z,,,,,,,,,,,,,,,,,,,,,,,,,,,,,,,10286,,completion,,,,,,,,,,,,,,,,,,,,,159851,159851,149547,149541,149565,159880,,,
Standby,html.Page,2_3_0,2022-05-09T20:25:30.681Z,,,,,,,,,,,,,,,,,,,,,,,,,,,,,,,8001,,timeout,,,,,,,,,,,,,,,,,,,,,167865,167864,159864,159852,159880,167881,,,
Holding screen,html.Screen,2_3_1_0_0,2022-05-09T20:25:37.681Z,,,,,,,,,,,,,,,,,,,,,,,,,,,,,,,7001,,timeout,,,,,,,,,,,,,,,,,,,,,174866,174865,167864,167866,167881,174882,,,
screen,html.Screen,2_3_1_0_1_0,2022-05-09T20:25:38.985Z,,,,,,,,,,,,,,,,,19,,,,,,,,,,,,,,958,,response,,,,17,G,,,,,,Space,keypress(Space),,,,instrumental,,,,"Interestingly, --- -------- -------- ---------- ---- -------<br>-- ---------- -- --- ----- ------ ----- ---- --------- ----<br>------- ------ -------- -- ------ ---------- ------ ---<br>------ -- -- ---- -- ---------- -------- ------ ---- -------<br>---- --- --------- ------- ----- --------- ---- ----- --<br>------ -------- -- ------ -- ---- ------------",176170.00000000003,175823,174865,174866,174882,176198,,0,"Interestingly,"
screen,html.Screen,2_3_1_0_1_1,2022-05-09T20:25:39.504Z,,,,,,,,,,,,,,,,,19,,,,,,,,,,,,,,162,,response,,,,17,G,,,,,,Space,keypress(Space),,,,instrumental,,,,-------------- the -------- -------- ---------- ---- -------<br>-- ---------- -- --- ----- ------ ----- ---- --------- ----<br>------- ------ -------- -- ------ ---------- ------ ---<br>------ -- -- ---- -- ---------- -------- ------ ---- -------<br>---- --- --------- ------- ----- --------- ---- ----- --<br>------ -------- -- ------ -- ---- ------------,176689,176342,176180,176170.00000000003,176198,176731,,1,the
screen,html.Screen,2_3_1_0_1_2,2022-05-09T20:25:39.928Z,,,,,,,,,,,,,,,,,19,,,,,,,,,,,,,,52,,response,,,,17,G,,,,,,Space,keypress(Space),,,,instrumental,,,,-------------- --- heaviest -------- ---------- ---- -------<br>-- ---------- -- --- ----- ------ ----- ---- --------- ----<br>------- ------ -------- -- ------ ---------- ------ ---<br>------ -- -- ---- -- ---------- -------- ------ ---- -------<br>---- --- --------- ------- ----- --------- ---- ----- --<br>------ -------- -- ------ -- ---- ------------,177113,176766,176714,176689,176731,177147,,2,heaviest
screen,html.Screen,2_3_1_0_1_3,2022-05-09T20:25:40.213Z,,,,,,,,,,,,,,,,,19,,,,,,,,,,,,,,-79.9999999999709,,response,,,,17,G,,,,,,Space,keypress(Space),,,,instrumental,,,,-------------- --- -------- isotopes ---------- ---- -------<br>-- ---------- -- --- ----- ------ ----- ---- --------- ----<br>------- ------ -------- -- ------ ---------- ------ ---<br>------ -- -- ---- -- ---------- -------- ------ ---- -------<br>---- --- --------- ------- ----- --------- ---- ----- --<br>------ -------- -- ------ -- ---- ------------,177398,177051.00000000003,177131,177113,177147,177431,,3,isotopes
screen,html.Screen,2_3_1_0_1_4,2022-05-09T20:25:40.446Z,,,,,,,,,,,,,,,,,19,,,,,,,,,,,,,,-128,,response,,,,17,G,,,,,,Space,keypress(Space),,,,instrumental,,,,-------------- --- -------- -------- physicists ---- -------<br>-- ---------- -- --- ----- ------ ----- ---- --------- ----<br>------- ------ -------- -- ------ ---------- ------ ---<br>------ -- -- ---- -- ---------- -------- ------ ---- -------<br>---- --- --------- ------- ----- --------- ---- ----- --<br>------ -------- -- ------ -- ---- ------------,177631,177286,177414,177398,177431,177665,,4,physicists
screen,html.Screen,2_3_1_0_1_5,2022-05-09T20:25:40.726Z,,,,,,,,,,,,,,,,,19,,,,,,,,,,,,,,-82,,response,,,,17,G,,,,,,Space,keypress(Space),,,,instrumental,,,,-------------- --- -------- -------- ---------- have -------<br>-- ---------- -- --- ----- ------ ----- ---- --------- ----<br>------- ------ -------- -- ------ ---------- ------ ---<br>------ -- -- ---- -- ---------- -------- ------ ---- -------<br>---- --- --------- ------- ----- --------- ---- ----- --<br>------ -------- -- ------ -- ---- ------------,177911,177566,177648,177631,177665,177931,,5,have
screen,html.Screen,2_3_1_0_1_6,2022-05-09T20:25:41.021Z,,,,,,,,,,,,,,,,,19,,,,,,,,,,,,,,-54,,response,,,,17,G,,,,,,Space,keypress(Space),,,,instrumental,,,,-------------- --- -------- -------- ---------- ---- managed<br>-- ---------- -- --- ----- ------ ----- ---- --------- ----<br>------- ------ -------- -- ------ ---------- ------ ---<br>------ -- -- ---- -- ---------- -------- ------ ---- -------<br>---- --- --------- ------- ----- --------- ---- ----- --<br>------ -------- -- ------ -- ---- ------------,178205,177860,177914,177911,177931,178231,,6,managed
screen,html.Screen,2_3_1_0_1_7,2022-05-09T20:25:41.266Z,,,,,,,,,,,,,,,,,19,,,,,,,,,,,,,,-109,,response,,,,17,G,,,,,,Space,keypress(Space),,,,instrumental,,,,-------------- --- -------- -------- ---------- ---- -------<br>to ---------- -- --- ----- ------ ----- ---- --------- ----<br>------- ------ -------- -- ------ ---------- ------ ---<br>------ -- -- ---- -- ---------- -------- ------ ---- -------<br>---- --- --------- ------- ----- --------- ---- ----- --<br>------ -------- -- ------ -- ---- ------------,178451,178105,178214,178205,178231,178480,,7,to
screen,html.Screen,2_3_1_0_1_8,2022-05-09T20:25:41.514Z,,,,,,,,,,,,,,,,,19,,,,,,,,,,,,,,-111,,response,,,,17,G,,,,,,Space,keypress(Space),,,,instrumental,,,,-------------- --- -------- -------- ---------- ---- -------<br>-- synthesize -- --- ----- ------ ----- ---- --------- ----<br>------- ------ -------- -- ------ ---------- ------ ---<br>------ -- -- ---- -- ---------- -------- ------ ---- -------<br>---- --- --------- ------- ----- --------- ---- ----- --<br>------ -------- -- ------ -- ---- ------------,178699,178353,178464,178451,178480,178730,,8,synthesize
screen,html.Screen,2_3_1_0_1_9,2022-05-09T20:25:41.760Z,,,,,,,,,,,,,,,,,19,,,,,,,,,,,,,,-114,,response,,,,17,G,,,,,,Space,keypress(Space),,,,instrumental,,,,-------------- --- -------- -------- ---------- ---- -------<br>-- ---------- so --- ----- ------ ----- ---- --------- ----<br>------- ------ -------- -- ------ ---------- ------ ---<br>------ -- -- ---- -- ---------- -------- ------ ---- -------<br>---- --- --------- ------- ----- --------- ---- ----- --<br>------ -------- -- ------ -- ---- ------------,178945,178600,178714,178699,178730,178964,,9,so
screen,html.Screen,2_3_1_0_1_10,2022-05-09T20:25:41.996Z,,,,,,,,,,,,,,,,,19,,,,,,,,,,,,,,-111,,response,,,,17,G,,,,,,Space,keypress(Space),,,,instrumental,,,,-------------- --- -------- -------- ---------- ---- -------<br>-- ---------- -- far ----- ------ ----- ---- --------- ----<br>------- ------ -------- -- ------ ---------- ------ ---<br>------ -- -- ---- -- ---------- -------- ------ ---- -------<br>---- --- --------- ------- ----- --------- ---- ----- --<br>------ -------- -- ------ -- ---- ------------,179181,178836,178947,178945,178964,179214,,10,far
screen,html.Screen,2_3_1_0_1_11,2022-05-09T20:25:42.208Z,,,,,,,,,,,,,,,,,19,,,,,,,,,,,,,,-148,,response,,,,17,G,,,,,,Space,keypress(Space),,,,instrumental,,,,-------------- --- -------- -------- ---------- ---- -------<br>-- ---------- -- --- don't ------ ----- ---- --------- ----<br>------- ------ -------- -- ------ ---------- ------ ---<br>------ -- -- ---- -- ---------- -------- ------ ---- -------<br>---- --- --------- ------- ----- --------- ---- ----- --<br>------ -------- -- ------ -- ---- ------------,179393,179049,179197,179181,179214,179413,,11,don't
screen,html.Screen,2_3_1_0_1_12,2022-05-09T20:25:42.435Z,,,,,,,,,,,,,,,,,19,,,,,,,,,,,,,,-122,,response,,,,17,G,,,,,,Space,keypress(Space),,,,instrumental,,,,-------------- --- -------- -------- ---------- ---- -------<br>-- ---------- -- --- ----- behave ----- ---- --------- ----<br>------- ------ -------- -- ------ ---------- ------ ---<br>------ -- -- ---- -- ---------- -------- ------ ---- -------<br>---- --- --------- ------- ----- --------- ---- ----- --<br>------ -------- -- ------ -- ---- ------------,179620,179275,179397,179393,179413,179647,,12,behave
screen,html.Screen,2_3_1_0_1_13,2022-05-09T20:25:42.639Z,,,,,,,,,,,,,,,,,19,,,,,,,,,,,,,,-153,,response,,,,17,G,,,,,,Space,keypress(Space),,,,instrumental,,,,-------------- --- -------- -------- ---------- ---- -------<br>-- ---------- -- --- ----- ------ quite ---- --------- ----<br>------- ------ -------- -- ------ ---------- ------ ---<br>------ -- -- ---- -- ---------- -------- ------ ---- -------<br>---- --- --------- ------- ----- --------- ---- ----- --<br>------ -------- -- ------ -- ---- ------------,179824,179478,179631,179620,179647,179848,,13,quite
screen,html.Screen,2_3_1_0_1_14,2022-05-09T20:25:42.865Z,,,,,,,,,,,,,,,,,19,,,,,,,,,,,,,,-127,,response,,,,17,G,,,,,,Space,keypress(Space),,,,instrumental,,,,-------------- --- -------- -------- ---------- ---- -------<br>-- ---------- -- --- ----- ------ ----- like --------- ----<br>------- ------ -------- -- ------ ---------- ------ ---<br>------ -- -- ---- -- ---------- -------- ------ ---- -------<br>---- --- --------- ------- ----- --------- ---- ----- --<br>------ -------- -- ------ -- ---- ------------,180049,179703,179830,179824,179848,180080,,14,like
screen,html.Screen,2_3_1_0_1_15,2022-05-09T20:25:43.054Z,,,,,,,,,,,,,,,,,19,,,,,,,,,,,,,,-171,,response,,,,17,G,,,,,,Space,keypress(Space),,,,instrumental,,,,-------------- --- -------- -------- ---------- ---- -------<br>-- ---------- -- --- ----- ------ ----- ---- science's ----<br>------- ------ -------- -- ------ ---------- ------ ---<br>------ -- -- ---- -- ---------- -------- ------ ---- -------<br>---- --- --------- ------- ----- --------- ---- ----- --<br>------ -------- -- ------ -- ---- ------------,180238,179893,180064,180050,180080,180264,,15,science's
screen,html.Screen,2_3_1_0_1_16,2022-05-09T20:25:43.281Z,,,,,,,,,,,,,,,,,19,,,,,,,,,,,,,,-127,,response,,,,17,G,,,,,,Space,keypress(Space),,,,instrumental,,,,-------------- --- -------- -------- ---------- ---- -------<br>-- ---------- -- --- ----- ------ ----- ---- --------- best<br>------- ------ -------- -- ------ ---------- ------ ---<br>------ -- -- ---- -- ---------- -------- ------ ---- -------<br>---- --- --------- ------- ----- --------- ---- ----- --<br>------ -------- -- ------ -- ---- ------------,180466,180120,180247,180238,180264,180497,,16,best
screen,html.Screen,2_3_1_0_1_17,2022-05-09T20:25:43.653Z,,,,,,,,,,,,,,,,,19,,,,,,,,,,,,,,11,,response,,,,17,G,,,,,,Space,keypress(Space),,,,instrumental,,,,-------------- --- -------- -------- ---------- ---- -------<br>-- ---------- -- --- ----- ------ ----- ---- --------- ----<br>current ------ -------- -- ------ ---------- ------ ---<br>------ -- -- ---- -- ---------- -------- ------ ---- -------<br>---- --- --------- ------- ----- --------- ---- ----- --<br>------ -------- -- ------ -- ---- ------------,180837.00000000003,180491,180480,180466,180497,180863,,17,current
screen,html.Screen,2_3_1_0_1_18,2022-05-09T20:25:43.980Z,,,,,,,,,,,,,,,,,19,,,,,,,,,,,,,,-29,,response,,,,17,G,,,,,,Space,keypress(Space),,,,instrumental,,,,-------------- --- -------- -------- ---------- ---- -------<br>-- ---------- -- --- ----- ------ ----- ---- --------- ----<br>------- models -------- -- ------ ---------- ------ ---<br>------ -- -- ---- -- ---------- -------- ------ ---- -------<br>---- --- --------- ------- ----- --------- ---- ----- --<br>------ -------- -- ------ -- ---- ------------,181165,180818,180847,180838,180863,181198,,18,models
screen,html.Screen,2_3_1_0_1_19,2022-05-09T20:25:44.159Z,,,,,,,,,,,,,,,,,19,,,,,,,,,,,,,,-184,,response,,,,17,G,,,,,,Space,keypress(Space),,,,instrumental,,,,"-------------- --- -------- -------- ---------- ---- -------<br>-- ---------- -- --- ----- ------ ----- ---- --------- ----<br>------- ------ predict, -- ------ ---------- ------ ---<br>------ -- -- ---- -- ---------- -------- ------ ---- -------<br>---- --- --------- ------- ----- --------- ---- ----- --<br>------ -------- -- ------ -- ---- ------------",181343.00000000003,180997,181181,181165,181198,181363,,19,"predict,"
screen,html.Screen,2_3_1_0_1_20,2022-05-09T20:25:44.475Z,,,,,,,,,,,,,,,,,19,,,,,,,,,,,,,,-33.999999999970896,,response,,,,17,G,,,,,,Space,keypress(Space),,,,instrumental,,,,-------------- --- -------- -------- ---------- ---- -------<br>-- ---------- -- --- ----- ------ ----- ---- --------- ----<br>------- ------ -------- so ------ ---------- ------ ---<br>------ -- -- ---- -- ---------- -------- ------ ---- -------<br>---- --- --------- ------- ----- --------- ---- ----- --<br>------ -------- -- ------ -- ---- ------------,181660,181313.00000000003,181347,181344,181363,181680,,20,so
screen,html.Screen,2_3_1_0_1_21,2022-05-09T20:25:44.812Z,,,,,,,,,,,,,,,,,19,,,,,,,,,,,,,,-15,,response,,,,17,G,,,,,,Space,keypress(Space),,,,instrumental,,,,-------------- --- -------- -------- ---------- ---- -------<br>-- ---------- -- --- ----- ------ ----- ---- --------- ----<br>------- ------ -------- -- stable ---------- ------ ---<br>------ -- -- ---- -- ---------- -------- ------ ---- -------<br>---- --- --------- ------- ----- --------- ---- ----- --<br>------ -------- -- ------ -- ---- ------------,181996,181649,181664,181660,181680,182014,,21,stable
screen,html.Screen,2_3_1_0_1_22,2022-05-09T20:25:45.138Z,,,,,,,,,,,,,,,,,19,,,,,,,,,,,,,,-23,,response,,,,17,G,,,,,,Space,keypress(Space),,,,instrumental,,,,-------------- --- -------- -------- ---------- ---- -------<br>-- ---------- -- --- ----- ------ ----- ---- --------- ----<br>------- ------ -------- -- ------ superheavy ------ ---<br>------ -- -- ---- -- ---------- -------- ------ ---- -------<br>---- --- --------- ------- ----- --------- ---- ----- --<br>------ -------- -- ------ -- ---- ------------,182322,181976,181999,181997,182014,182348,,22,superheavy
screen,html.Screen,2_3_1_0_1_23,2022-05-09T20:25:45.349Z,,,,,,,,,,,,,,,,,19,,,,,,,,,,,,,,-142,,response,,,,17,G,,,,,,Space,keypress(Space),,,,instrumental,,,,-------------- --- -------- -------- ---------- ---- -------<br>-- ---------- -- --- ----- ------ ----- ---- --------- ----<br>------- ------ -------- -- ------ ---------- nuclei ---<br>------ -- -- ---- -- ---------- -------- ------ ---- -------<br>---- --- --------- ------- ----- --------- ---- ----- --<br>------ -------- -- ------ -- ---- ------------,182534,182189,182331,182323,182348,182563,,23,nuclei
screen,html.Screen,2_3_1_0_1_24,2022-05-09T20:25:45.577Z,,,,,,,,,,,,,,,,,19,,,,,,,,,,,,,,-131,,response,,,,17,G,,,,,,Space,keypress(Space),,,,instrumental,,,,-------------- --- -------- -------- ---------- ---- -------<br>-- ---------- -- --- ----- ------ ----- ---- --------- ----<br>------- ------ -------- -- ------ ---------- ------ are<br>------ -- -- ---- -- ---------- -------- ------ ---- -------<br>---- --- --------- ------- ----- --------- ---- ----- --<br>------ -------- -- ------ -- ---- ------------,182762,182416,182547,182534,182563,182781,,24,are
screen,html.Screen,2_3_1_0_1_25,2022-05-09T20:25:45.902Z,,,,,,,,,,,,,,,,,19,,,,,,,,,,,,,,-24,,response,,,,17,G,,,,,,Space,keypress(Space),,,,instrumental,,,,-------------- --- -------- -------- ---------- ---- -------<br>-- ---------- -- --- ----- ------ ----- ---- --------- ----<br>------- ------ -------- -- ------ ---------- ------ ---<br>likely -- -- ---- -- ---------- -------- ------ ---- -------<br>---- --- --------- ------- ----- --------- ---- ----- --<br>------ -------- -- ------ -- ---- ------------,183087.00000000003,182740,182764,182762,182781,183114,,25,likely
screen,html.Screen,2_3_1_0_1_26,2022-05-09T20:25:46.105Z,,,,,,,,,,,,,,,,,19,,,,,,,,,,,,,,-154,,response,,,,17,G,,,,,,Space,keypress(Space),,,,instrumental,,,,-------------- --- -------- -------- ---------- ---- -------<br>-- ---------- -- --- ----- ------ ----- ---- --------- ----<br>------- ------ -------- -- ------ ---------- ------ ---<br>------ to -- ---- -- ---------- -------- ------ ---- -------<br>---- --- --------- ------- ----- --------- ---- ----- --<br>------ -------- -- ------ -- ---- ------------,183289.00000000003,182943,183097,183087.00000000003,183114,183313,,26,to
screen,html.Screen,2_3_1_0_1_27,2022-05-09T20:25:46.341Z,,,,,,,,,,,,,,,,,19,,,,,,,,,,,,,,-119,,response,,,,17,G,,,,,,Space,keypress(Space),,,,instrumental,,,,-------------- --- -------- -------- ---------- ---- -------<br>-- ---------- -- --- ----- ------ ----- ---- --------- ----<br>------- ------ -------- -- ------ ---------- ------ ---<br>------ -- be ---- -- ---------- -------- ------ ---- -------<br>---- --- --------- ------- ----- --------- ---- ----- --<br>------ -------- -- ------ -- ---- ------------,183526,183179,183298,183290,183313,183547,,27,be
screen,html.Screen,2_3_1_0_1_28,2022-05-09T20:25:46.529Z,,,,,,,,,,,,,,,,,19,,,,,,,,,,,,,,-161,,response,,,,17,G,,,,,,Space,keypress(Space),,,,instrumental,,,,-------------- --- -------- -------- ---------- ---- -------<br>-- ---------- -- --- ----- ------ ----- ---- --------- ----<br>------- ------ -------- -- ------ ---------- ------ ---<br>------ -- -- full -- ---------- -------- ------ ---- -------<br>---- --- --------- ------- ----- --------- ---- ----- --<br>------ -------- -- ------ -- ---- ------------,183714,183370,183531,183526,183547,183747,,28,full
screen,html.Screen,2_3_1_0_1_29,2022-05-09T20:25:46.748Z,,,,,,,,,,,,,,,,,19,,,,,,,,,,,,,,-144,,response,,,,17,G,,,,,,Space,keypress(Space),,,,instrumental,,,,-------------- --- -------- -------- ---------- ---- -------<br>-- ---------- -- --- ----- ------ ----- ---- --------- ----<br>------- ------ -------- -- ------ ---------- ------ ---<br>------ -- -- ---- of ---------- -------- ------ ---- -------<br>---- --- --------- ------- ----- --------- ---- ----- --<br>------ -------- -- ------ -- ---- ------------,183933,183586,183730,183714,183747,183964,,29,of
screen,html.Screen,2_3_1_0_1_30,2022-05-09T20:25:46.926Z,,,,,,,,,,,,,,,,,19,,,,,,,,,,,,,,-183,,response,,,,17,G,,,,,,Space,keypress(Space),,,,instrumental,,,,-------------- --- -------- -------- ---------- ---- -------<br>-- ---------- -- --- ----- ------ ----- ---- --------- ----<br>------- ------ -------- -- ------ ---------- ------ ---<br>------ -- -- ---- -- surprises. -------- ------ ---- -------<br>---- --- --------- ------- ----- --------- ---- ----- --<br>------ -------- -- ------ -- ---- ------------,184111,183764,183947,183933,183964,184130,,30,surprises.
screen,html.Screen,2_3_1_0_1_31,2022-05-09T20:25:47.130Z,,,,,,,,,,,,,,,,,19,,,,,,,,,,,,,,-145,,response,,,,17,G,,,,,,Space,keypress(Space),,,,instrumental,,,,-------------- --- -------- -------- ---------- ---- -------<br>-- ---------- -- --- ----- ------ ----- ---- --------- ----<br>------- ------ -------- -- ------ ---------- ------ ---<br>------ -- -- ---- -- ---------- Chemists ------ ---- -------<br>---- --- --------- ------- ----- --------- ---- ----- --<br>------ -------- -- ------ -- ---- ------------,184315,183969,184114,184111,184130,184348,,31,Chemists
screen,html.Screen,2_3_1_0_1_32,2022-05-09T20:25:47.331Z,,,,,,,,,,,,,,,,,19,,,,,,,,,,,,,,-162,,response,,,,17,G,,,,,,Space,keypress(Space),,,,instrumental,,,,-------------- --- -------- -------- ---------- ---- -------<br>-- ---------- -- --- ----- ------ ----- ---- --------- ----<br>------- ------ -------- -- ------ ---------- ------ ---<br>------ -- -- ---- -- ---------- -------- cannot ---- -------<br>---- --- --------- ------- ----- --------- ---- ----- --<br>------ -------- -- ------ -- ---- ------------,184516,184169,184331,184315,184348,184548,,32,cannot
screen,html.Screen,2_3_1_0_1_33,2022-05-09T20:25:47.533Z,,,,,,,,,,,,,,,,,19,,,,,,,,,,,,,,-159,,response,,,,17,G,,,,,,Space,keypress(Space),,,,instrumental,,,,-------------- --- -------- -------- ---------- ---- -------<br>-- ---------- -- --- ----- ------ ----- ---- --------- ----<br>------- ------ -------- -- ------ ---------- ------ ---<br>------ -- -- ---- -- ---------- -------- ------ even -------<br>---- --- --------- ------- ----- --------- ---- ----- --<br>------ -------- -- ------ -- ---- ------------,184718.00000000003,184371,184530,184516,184548,184748,,33,even
screen,html.Screen,2_3_1_0_1_34,2022-05-09T20:25:47.725Z,,,,,,,,,,,,,,,,,19,,,,,,,,,,,,,,-167.9999999999709,,response,,,,17,G,,,,,,Space,keypress(Space),,,,instrumental,,,,-------------- --- -------- -------- ---------- ---- -------<br>-- ---------- -- --- ----- ------ ----- ---- --------- ----<br>------- ------ -------- -- ------ ---------- ------ ---<br>------ -- -- ---- -- ---------- -------- ------ ---- predict<br>---- --- --------- ------- ----- --------- ---- ----- --<br>------ -------- -- ------ -- ---- ------------,184910,184563.00000000003,184731,184718.00000000003,184748,184931,,34,predict
screen,html.Screen,2_3_1_0_1_35,2022-05-09T20:25:47.904Z,,,,,,,,,,,,,,,,,19,,,,,,,,,,,,,,-172,,response,,,,17,G,,,,,,Space,keypress(Space),,,,instrumental,,,,-------------- --- -------- -------- ---------- ---- -------<br>-- ---------- -- --- ----- ------ ----- ---- --------- ----<br>------- ------ -------- -- ------ ---------- ------ ---<br>------ -- -- ---- -- ---------- -------- ------ ---- -------<br>with --- --------- ------- ----- --------- ---- ----- --<br>------ -------- -- ------ -- ---- ------------,185089,184742,184914,184910,184931,185113,,35,with
screen,html.Screen,2_3_1_0_1_36,2022-05-09T20:25:48.108Z,,,,,,,,,,,,,,,,,19,,,,,,,,,,,,,,-151,,response,,,,17,G,,,,,,Space,keypress(Space),,,,instrumental,,,,-------------- --- -------- -------- ---------- ---- -------<br>-- ---------- -- --- ----- ------ ----- ---- --------- ----<br>------- ------ -------- -- ------ ---------- ------ ---<br>------ -- -- ---- -- ---------- -------- ------ ---- -------<br>---- any --------- ------- ----- --------- ---- ----- --<br>------ -------- -- ------ -- ---- ------------,185292,184946,185097,185089,185113,185313,,36,any
screen,html.Screen,2_3_1_0_1_37,2022-05-09T20:25:48.311Z,,,,,,,,,,,,,,,,,19,,,,,,,,,,,,,,-148,,response,,,,17,G,,,,,,Space,keypress(Space),,,,instrumental,,,,-------------- --- -------- -------- ---------- ---- -------<br>-- ---------- -- --- ----- ------ ----- ---- --------- ----<br>------- ------ -------- -- ------ ---------- ------ ---<br>------ -- -- ---- -- ---------- -------- ------ ---- -------<br>---- --- certainty ------- ----- --------- ---- ----- --<br>------ -------- -- ------ -- ---- ------------,185496,185149,185297,185293,185313,185513,,37,certainty
screen,html.Screen,2_3_1_0_1_38,2022-05-09T20:25:48.501Z,,,,,,,,,,,,,,,,,19,,,,,,,,,,,,,,-159,,response,,,,17,G,,,,,,Space,keypress(Space),,,,instrumental,,,,-------------- --- -------- -------- ---------- ---- -------<br>-- ---------- -- --- ----- ------ ----- ---- --------- ----<br>------- ------ -------- -- ------ ---------- ------ ---<br>------ -- -- ---- -- ---------- -------- ------ ---- -------<br>---- --- --------- whether ----- --------- ---- ----- --<br>------ -------- -- ------ -- ---- ------------,185685,185339,185498,185496,185513,185713,,38,whether
screen,html.Screen,2_3_1_0_1_39,2022-05-09T20:25:48.693Z,,,,,,,,,,,,,,,,,19,,,,,,,,,,,,,,-166,,response,,,,17,G,,,,,,Space,keypress(Space),,,,instrumental,,,,-------------- --- -------- -------- ---------- ---- -------<br>-- ---------- -- --- ----- ------ ----- ---- --------- ----<br>------- ------ -------- -- ------ ---------- ------ ---<br>------ -- -- ---- -- ---------- -------- ------ ---- -------<br>---- --- --------- ------- these --------- ---- ----- --<br>------ -------- -- ------ -- ---- ------------,185877,185531,185697,185685,185713,185898,,39,these
screen,html.Screen,2_3_1_0_1_40,2022-05-09T20:25:48.883Z,,,,,,,,,,,,,,,,,19,,,,,,,,,,,,,,-159,,response,,,,17,G,,,,,,Space,keypress(Space),,,,instrumental,,,,-------------- --- -------- -------- ---------- ---- -------<br>-- ---------- -- --- ----- ------ ----- ---- --------- ----<br>------- ------ -------- -- ------ ---------- ------ ---<br>------ -- -- ---- -- ---------- -------- ------ ---- -------<br>---- --- --------- ------- ----- materials ---- ----- --<br>------ -------- -- ------ -- ---- ------------,186068,185721,185880,185878,185898,186097,,40,materials
screen,html.Screen,2_3_1_0_1_41,2022-05-09T20:25:49.084Z,,,,,,,,,,,,,,,,,19,,,,,,,,,,,,,,-158,,response,,,,17,G,,,,,,Space,keypress(Space),,,,instrumental,,,,-------------- --- -------- -------- ---------- ---- -------<br>-- ---------- -- --- ----- ------ ----- ---- --------- ----<br>------- ------ -------- -- ------ ---------- ------ ---<br>------ -- -- ---- -- ---------- -------- ------ ---- -------<br>---- --- --------- ------- ----- --------- will ----- --<br>------ -------- -- ------ -- ---- ------------,186269,185923,186081,186068,186097,186297,,41,will
screen,html.Screen,2_3_1_0_1_42,2022-05-09T20:25:49.310Z,,,,,,,,,,,,,,,,,19,,,,,,,,,,,,,,-131,,response,,,,17,G,,,,,,Space,keypress(Space),,,,instrumental,,,,-------------- --- -------- -------- ---------- ---- -------<br>-- ---------- -- --- ----- ------ ----- ---- --------- ----<br>------- ------ -------- -- ------ ---------- ------ ---<br>------ -- -- ---- -- ---------- -------- ------ ---- -------<br>---- --- --------- ------- ----- --------- ---- exist --<br>------ -------- -- ------ -- ---- ------------,186494,186149,186280,186269,186297,186514,,42,exist
screen,html.Screen,2_3_1_0_1_43,2022-05-09T20:25:49.512Z,,,,,,,,,,,,,,,,,19,,,,,,,,,,,,,,-146,,response,,,,17,G,,,,,,Space,keypress(Space),,,,instrumental,,,,-------------- --- -------- -------- ---------- ---- -------<br>-- ---------- -- --- ----- ------ ----- ---- --------- ----<br>------- ------ -------- -- ------ ---------- ------ ---<br>------ -- -- ---- -- ---------- -------- ------ ---- -------<br>---- --- --------- ------- ----- --------- ---- ----- as<br>------ -------- -- ------ -- ---- ------------,186697,186351,186497,186495,186514,186730,,43,as
screen,html.Screen,2_3_1_0_1_44,2022-05-09T20:25:49.716Z,,,,,,,,,,,,,,,,,19,,,,,,,,,,,,,,-159,,response,,,,17,G,,,,,,Space,keypress(Space),,,,instrumental,,,,"-------------- --- -------- -------- ---------- ---- -------<br>-- ---------- -- --- ----- ------ ----- ---- --------- ----<br>------- ------ -------- -- ------ ---------- ------ ---<br>------ -- -- ---- -- ---------- -------- ------ ---- -------<br>---- --- --------- ------- ----- --------- ---- ----- --<br>gases, -------- -- ------ -- ---- ------------",186900,186555,186714,186697,186730,186930,,44,"gases,"
screen,html.Screen,2_3_1_0_1_45,2022-05-09T20:25:49.918Z,,,,,,,,,,,,,,,,,19,,,,,,,,,,,,,,-156,,response,,,,17,G,,,,,,Space,keypress(Space),,,,instrumental,,,,"-------------- --- -------- -------- ---------- ---- -------<br>-- ---------- -- --- ----- ------ ----- ---- --------- ----<br>------- ------ -------- -- ------ ---------- ------ ---<br>------ -- -- ---- -- ---------- -------- ------ ---- -------<br>---- --- --------- ------- ----- --------- ---- ----- --<br>------ liquids, -- ------ -- ---- ------------",187102,186757,186913,186901,186930,187131,,45,"liquids,"
screen,html.Screen,2_3_1_0_1_46,2022-05-09T20:25:50.110Z,,,,,,,,,,,,,,,,,19,,,,,,,,,,,,,,-165,,response,,,,17,G,,,,,,Space,keypress(Space),,,,instrumental,,,,-------------- --- -------- -------- ---------- ---- -------<br>-- ---------- -- --- ----- ------ ----- ---- --------- ----<br>------- ------ -------- -- ------ ---------- ------ ---<br>------ -- -- ---- -- ---------- -------- ------ ---- -------<br>---- --- --------- ------- ----- --------- ---- ----- --<br>------ -------- or ------ -- ---- ------------,187295.00000000003,186949,187114,187103,187131,187314,,46,or
screen,html.Screen,2_3_1_0_1_47,2022-05-09T20:25:50.311Z,,,,,,,,,,,,,,,,,19,,,,,,,,,,,,,,-147,,response,,,,17,G,,,,,,Space,keypress(Space),,,,instrumental,,,,-------------- --- -------- -------- ---------- ---- -------<br>-- ---------- -- --- ----- ------ ----- ---- --------- ----<br>------- ------ -------- -- ------ ---------- ------ ---<br>------ -- -- ---- -- ---------- -------- ------ ---- -------<br>---- --- --------- ------- ----- --------- ---- ----- --<br>------ -------- -- solids -- ---- ------------,187496,187150,187297,187295.00000000003,187314,187514,,47,solids
screen,html.Screen,2_3_1_0_1_48,2022-05-09T20:25:50.514Z,,,,,,,,,,,,,,,,,19,,,,,,,,,,,,,,-145,,response,,,,17,G,,,,,,Space,keypress(Space),,,,instrumental,,,,-------------- --- -------- -------- ---------- ---- -------<br>-- ---------- -- --- ----- ------ ----- ---- --------- ----<br>------- ------ -------- -- ------ ---------- ------ ---<br>------ -- -- ---- -- ---------- -------- ------ ---- -------<br>---- --- --------- ------- ----- --------- ---- ----- --<br>------ -------- -- ------ at ---- ------------,187699,187353,187498,187496,187514,187731,,48,at
screen,html.Screen,2_3_1_0_1_49,2022-05-09T20:25:50.783Z,,,,,,,,,,,,,,,,,19,,,,,,,,,,,,,,-91,,response,,,,17,G,,,,,,Space,keypress(Space),,,,instrumental,,,,-------------- --- -------- -------- ---------- ---- -------<br>-- ---------- -- --- ----- ------ ----- ---- --------- ----<br>------- ------ -------- -- ------ ---------- ------ ---<br>------ -- -- ---- -- ---------- -------- ------ ---- -------<br>---- --- --------- ------- ----- --------- ---- ----- --<br>------ -------- -- ------ -- room ------------,187968.00000000003,187622,187713,187699,187731,187997,,49,room
screen,html.Screen,2_3_1_0_1_50,2022-05-09T20:25:51.066Z,,,,,,,,,,,,,,,,,19,,,,,,,,,,,,,,-75,,response,,,,17,G,,,,,,Space,keypress(Space),,,,instrumental,,,,-------------- --- -------- -------- ---------- ---- -------<br>-- ---------- -- --- ----- ------ ----- ---- --------- ----<br>------- ------ -------- -- ------ ---------- ------ ---<br>------ -- -- ---- -- ---------- -------- ------ ---- -------<br>---- --- --------- ------- ----- --------- ---- ----- --<br>------ -------- -- ------ -- ---- temperature.,188251,187905,187980,187968.00000000003,187997,188281,,50,temperature.
Item 17,flow.Loop,2_3_1_0_1,2022-05-09T20:25:51.067Z,,,,,,,,,,,,,,,,,,,,,,,,,,,,,,,13023,,completion,,,,,,,,,,,,,,,,,,,,,188251,187905,174865,174866,174882,188281,,,
Question 1,html.Screen,2_3_1_0_2,2022-05-09T20:25:54.266Z,,,,,,,,,,,,,,,,,,,,,,,,,,,,true,FALSE,,2843,,response,,,,17,G,,,,,,FALSE,click #choice-2,,,,instrumental,,,,,191450.00000000003,191107,188264,188251,188281,191481,,,
Question 2,html.Screen,2_3_1_0_3,2022-05-09T20:25:57.271Z,,,,,,,,,,,,,,,,,,,,,,,,,,,,true,FALSE,,2648,,response,,,,17,G,,,,,,FALSE,click #choice-2,,,,instrumental,,,,,194456.00000000003,194111,191463,191450.00000000003,191481,194480,,,
Item 17,flow.Sequence,2_3_1_0,2022-05-09T20:25:57.272Z,,,,,,,,,,,,,,,,,,,,,,,,,,,,,,,26230,,completion,,,,,,,,,,,,,,,,,,,,,194456.00000000003,194111,167864,167866,167881,194480,,,
Holding screen,html.Screen,2_3_1_1_0,2022-05-09T20:26:04.279Z,,,,,,,,,,,,,,,,,,,,,,,,,,,,,,,7000,,timeout,,,,,,,,,,,,,,,,,,,,,201463,201463,194463,194456.00000000003,194480,201480,,,
screen,html.Screen,2_3_1_1_1_0,2022-05-09T20:26:07.884Z,,,,,,,,,,,,,,,,,12,,,,,,,,,,,,,,3259,,response,,,,5,G,,,,,,Space,keypress(Space),,,,instrumental,,,,Some ------ ------ ------- ------ --- ------- -----------<br>-- ----- --- ---- -- --- ------ ---- - ---- -- ----------<br>-- ------ ---- --- ---- --- --- --- ----- -- -------- ---<br>------ ------- -------- --- ---- -- ------- ------------ --<br>------ -- ---- -- --- ---- -- -------- -- --- ------ ------,205069.00000000003,204722,201463,201464,201480,205097,,0,Some
screen,html.Screen,2_3_1_1_1_1,2022-05-09T20:26:08.268Z,,,,,,,,,,,,,,,,,12,,,,,,,,,,,,,,25,,response,,,,5,G,,,,,,Space,keypress(Space),,,,instrumental,,,,---- months ------ ------- ------ --- ------- -----------<br>-- ----- --- ---- -- --- ------ ---- - ---- -- ----------<br>-- ------ ---- --- ---- --- --- --- ----- -- -------- ---<br>------ ------- -------- --- ---- -- ------- ------------ --<br>------ -- ---- -- --- ---- -- -------- -- --- ------ ------,205453,205106,205081,205069.00000000003,205097,205480,,1,months
screen,html.Screen,2_3_1_1_1_2,2022-05-09T20:26:08.660Z,,,,,,,,,,,,,,,,,12,,,,,,,,,,,,,,34,,response,,,,5,G,,,,,,Space,keypress(Space),,,,instrumental,,,,"---- ------ later, ------- ------ --- ------- -----------<br>-- ----- --- ---- -- --- ------ ---- - ---- -- ----------<br>-- ------ ---- --- ---- --- --- --- ----- -- -------- ---<br>------ ------- -------- --- ---- -- ------- ------------ --<br>------ -- ---- -- --- ---- -- -------- -- --- ------ ------",205845,205498,205464,205453,205480,205863,,2,"later,"
