sender,sender_type,sender_id,timestamp,meta,,Blues,Classical,Country,Dance,Electronic,Folk,Gospel,Hip-Hop,Jazz,Latin,Musical/Film,New-age,Pop,Prolific_id,Provo_ID,R&B,Rap,Reggae,Religious,Rock,Soul,Swing,Traditional,age,artist_name,correct,correctResponse,distraction,duration,education,ended_on,familiarity,gender,headphone_check_performance,item,list,music_frequency,offensiveness,pleasantness,position_correct,preference,response,response_action,snippet_file,song_name,song_rating,sound,stimulus_1,stimulus_2,stimulus_3,text,time_commit,time_end,time_render,time_run,time_show,time_switch,url,word,word_ID
Prolific ID,html.Form,0,2022-04-27T12:46:59.934Z,"{""labjs_version"":""20.2.2"",""labjs_build"":{""flavor"":""production"",""commit"":""a25486e0c714a0ae2ce03ff94b7bb6896854dcfa""},""location"":""https://run.pavlovia.org/mvasilev/prolific3_music_c/"",""userAgent"":""Mozilla/5.0 (Windows NT 10.0; Win64; x64) AppleWebKit/537.36 (KHTML, like Gecko) Chrome/100.0.4896.75 Safari/537.36"",""platform"":""Win32"",""language"":""en-GB"",""locale"":""en-GB"",""timeZone"":""Europe/London"",""timezoneOffset"":-60,""screen_width"":1280,""screen_height"":720,""scroll_width"":1163,""scroll_height"":525,""window_innerWidth"":1163,""window_innerHeight"":525,""devicePixelRatio"":1.6500000953674316}",,,,,,,,,,,,,,,5ca5fb084f3e9d0015440d1d,,,,,,,,,,,,,,,5927.575999952318,,form submission,,,,,,,,,,,,,,,,,,,,,22796,22792.299999952316,16781.269,16787.400000095367,16864.724,22821.263,{},,
Introduction,html.Screen,1_0,2022-04-27T12:47:08.439Z,,,,,,,,,,,,,,,,,,,,,,,,,,,,,,,8467.937000047685,,response,,,,,,,,,,,continue,click button,,,,,,,,,31301.299999952316,31289.200000047684,22754.573,22797.400000095367,22821.263,31330.62,,,
Volume calibration,html.Screen,1_1,2022-04-27T12:47:38.092Z,,,,,,,,,,,,,,,,,,,,,,,,,,,,,,,29607.38,,response,,,,,,,,,,,continue,click button,,,,,,,,,60954.10000014305,60938,31280.768,31302,31330.62,60963.167,,,
Task instructions,html.Screen,1_2,2022-04-27T12:47:45.181Z,,,,,,,,,,,,,,,,,,,,,,,,,,,,,,,7076.132999952315,,response,,,,,,,,,,,continue,click button,,,,,,,,,68043.20000004768,68039.29999995232,60929.931,60954.90000009537,60963.167,68054.469,,,
Sounds,html.Screen,1_3_0_0,2022-04-27T12:47:49.436Z,,,,,,,,,,,,,,,,,,,,,,,,,,,,,,,4254.528000000006,,timeout,,,,,,,,,1,,,,,,,,S,O,I,,72298.29999995232,72292.312,68037.702,68044.79999995232,68054.469,72308.997,,,
Judgement,html.Screen,1_3_0_1,2022-04-27T12:47:51.029Z,,,,,,,,,,,,,,,,,,,,,,,,,,,,true,1,,1579.502999999997,,response,,,,,,,,,1,,1,click #choice-1,,,,,S,O,I,,73891.40000009537,73888.5,72292.312,72298.70000004768,72308.997,73894.056,,,
Trial,flow.Sequence,1_3_0,2022-04-27T12:47:51.030Z,,,,,,,,,,,,,,,,,,,,,,,,,,,,,,,5834.031000000003,,completion,,,,,,,,,1,,,,,,,,S,O,I,,73892,73888.5,68037.702,68044.60000014305,68054.469,73894.056,,,
Sounds,html.Screen,1_3_1_0,2022-04-27T12:47:55.273Z,,,,,,,,,,,,,,,,,,,,,,,,,,,,,,,4255.968999999997,,timeout,,,,,,,,,3,,,,,,,,O,I,S,,78135,78132.396,73877.412,73892.79999995232,73894.056,78150.025,,,
Judgement,html.Screen,1_3_1_1,2022-04-27T12:47:57.077Z,,,,,,,,,,,,,,,,,,,,,,,,,,,,true,3,,1784.8750000953733,,response,,,,,,,,,3,,3,click #choice-3,,,,,O,I,S,,79939.29999995232,79934.90000009537,78132.396,78135.60000014305,78150.025,79950.855,,,
Trial,flow.Sequence,1_3_1,2022-04-27T12:47:57.078Z,,,,,,,,,,,,,,,,,,,,,,,,,,,,,,,6040.844000095371,,completion,,,,,,,,,3,,,,,,,,O,I,S,,79940.5,79934.90000009537,73877.412,73892.20000004768,73894.056,79950.855,,,
Sounds,html.Screen,1_3_2_0,2022-04-27T12:48:01.329Z,,,,,,,,,,,,,,,,,,,,,,,,,,,,,,,4258.52900000001,,timeout,,,,,,,,,3,,,,,,,,I,O,S,,84191.40000009537,84189.041,79934.501,79941.29999995232,79950.855,84209.384,,,
Judgement,html.Screen,1_3_2_1,2022-04-27T12:48:02.522Z,,,,,,,,,,,,,,,,,,,,,,,,,,,,true,3,,1170.4159999523108,,response,,,,,,,,,3,,3,click #choice-3,,,,,I,O,S,,85384.5,85379.79999995232,84189.041,84192,84209.384,85390.133,,,
Trial,flow.Sequence,1_3_2,2022-04-27T12:48:02.524Z,,,,,,,,,,,,,,,,,,,,,,,,,,,,,,,5428.94499995232,,completion,,,,,,,,,3,,,,,,,,I,O,S,,85385.60000014305,85379.79999995232,79934.501,79941.10000014305,79950.855,85390.133,,,
Sounds,html.Screen,1_3_3_0,2022-04-27T12:48:06.767Z,,,,,,,,,,,,,,,,,,,,,,,,,,,,,,,4254.517999999996,,timeout,,,,,,,,,2,,,,,,,,I,S,O,,89629.5,89628.108,85373.673,85386.40000009537,85390.133,89644.651,,,
Judgement,html.Screen,1_3_3_1,2022-04-27T12:48:08.058Z,,,,,,,,,,,,,,,,,,,,,,,,,,,,true,2,,1273.7490000953694,,response,,,,,,,,,2,,2,click #choice-2,,,,,I,S,O,,90920.5,90918.40000009537,89628.108,89629.79999995232,89644.651,90930.369,,,
Trial,flow.Sequence,1_3_3,2022-04-27T12:48:08.059Z,,,,,,,,,,,,,,,,,,,,,,,,,,,,,,,5528.267000095366,,completion,,,,,,,,,2,,,,,,,,I,S,O,,90920.90000009537,90918.40000009537,85373.673,85386.10000014305,85390.133,90930.369,,,
Sounds,html.Screen,1_3_4_0,2022-04-27T12:48:12.307Z,,,,,,,,,,,,,,,,,,,,,,,,,,,,,,,4253.960999999996,,timeout,,,,,,,,,1,,,,,,,,S,I,O,,95169.20000004768,95167.491,90912.788,90921.10000014305,90930.369,95184.33,,,
Judgement,html.Screen,1_3_4_1,2022-04-27T12:48:13.738Z,,,,,,,,,,,,,,,,,,,,,,,,,,,,true,1,,1413.870000047682,,response,,,,,,,,,1,,1,click #choice-1,,,,,S,I,O,,96600.5,96598.20000004768,95167.491,95169.5,95184.33,96602.714,,,
Trial,flow.Sequence,1_3_4,2022-04-27T12:48:13.739Z,,,,,,,,,,,,,,,,,,,,,,,,,,,,,,,5667.831000047678,,completion,,,,,,,,,1,,,,,,,,S,I,O,,96600.90000009537,96598.20000004768,90912.788,90921.10000014305,90930.369,96602.714,,,
Sounds,html.Screen,1_3_5_0,2022-04-27T12:48:17.980Z,,,,,,,,,,,,,,,,,,,,,,,,,,,,,,,4254.305999999997,,timeout,,,,,,,,,2,,,,,,,,O,S,I,,100841.70000004768,100840.441,96585.694,96601.10000014305,96602.714,100857.02,,,
Judgement,html.Screen,1_3_5_1,2022-04-27T12:48:19.324Z,,,,,,,,,,,,,,,,,,,,,,,,,,,,true,2,,1326.080000143047,,response,,,,,,,,,2,,2,click #choice-2,,,,,O,S,I,,102185.90000009537,102183.10000014305,100840.441,100842,100857.02,102208.547,,,
Trial,flow.Sequence,1_3_5,2022-04-27T12:48:19.324Z,,,,,,,,,,,,,,,,,,,,,,,,,,,,,,,5580.386000143044,,completion,,,,,,,,,2,,,,,,,,O,S,I,,102186.40000009537,102183.10000014305,96585.694,96601,96602.714,102208.547,,,
Task,flow.Loop,1_3,2022-04-27T12:48:19.333Z,,,,,,,,,,,,,,,,,,,,,,,,,,,,,,,34128.631000143054,,completion,,,1,,,,,,,,,,,,,,,,,,102195.29999995232,102183.10000014305,68037.702,68044.40000009537,68054.469,102208.547,,,
Trap,html.Screen,1_4,2022-04-27T12:48:19.337Z,,,,,,,,,,,,,,,,,,,,,,,,,,,,,,,NaN,,skipped,,,,,,,,,,,,,,,,,,,,,102198.70000004768,102183.10000014305,,102198.29999995232,,102208.547,,,
Thanks,html.Screen,1_5,2022-04-27T12:48:25.209Z,,,,,,,,,,,,,,,,,,,,,,,,,,,,,,,5859.8530000953615,,response,,,,,,,,,,,continue,click button,,,,,,,,,108070.60000014305,108068.40000009537,102175.181,102198.90000009537,102208.547,119380.414,,,
Headphone screening,flow.Sequence,1,2022-04-27T12:48:25.209Z,,,,,,,,,,,,,,,,,,,,,,,,,,,,,,,85247.13700009536,,completion,,,,,,,,,,,,,,,,,,,,,108070.90000009537,108068.40000009537,22754.573,22797.200000047684,22821.263,119380.414,,,
Instructions,html.Page,2_0,2022-04-27T12:48:53.776Z,,,,,,,,,,,,,,,,,,,,,,,,,,,,,,,17256.885999952312,,form submission,,,,,,,,,,,,,,,,,,,,,136638.20000004768,136637.29999995232,119228.036,119336.29999995232,119380.414,136646.443,,,
Holding screen,html.Screen,2_1_0_0,2022-04-27T12:49:03.763Z,,,,,,,,,,,,,,,,,,,,,,,,,,,,,,,10011.005999999994,,timeout,,,,,,,,,,,,,,,,,,,,,146625.29999995232,146624.066,136629.74,136638.70000004768,136646.443,146657.449,,,
screen,html.Screen,2_1_0_1_0,2022-04-27T12:49:04.824Z,,,,,,,,,,,,,,,,,53,,,,,,,,,,,,,,1024.7510000476905,,response,,,,99,,,,,,,Space,keypress(Space),,,,,,,,When -- ----- -- ------ - ------- --- ----------<br>------------- ------ ------ ---- ---- ------- ----- -- ----<br>-------- ------- -- ---------- --- - --- ----- ----- ----<br>---- --- --- ----- --- ---- ---- ------- ----- ---- -------<br>--- --- -- ----- -- --- ---- -- --- ---- -- ------ ------<br>--- ----- -- ----,147686.5,147682.20000004768,146624.066,146625.60000014305,146657.449,147691.911,,0,When
screen,html.Screen,2_1_0_1_1,2022-04-27T12:49:05.294Z,,,,,,,,,,,,,,,,,53,,,,,,,,,,,,,,463.28900004769093,,response,,,,99,,,,,,,Space,keypress(Space),,,,,,,,---- it ----- -- ------ - ------- --- ----------<br>------------- ------ ------ ---- ---- ------- ----- -- ----<br>-------- ------- -- ---------- --- - --- ----- ----- ----<br>---- --- --- ----- --- ---- ---- ------- ----- ---- -------<br>--- --- -- ----- -- --- ---- -- --- ---- -- ------ ------<br>--- ----- -- ----,148156.70000004768,148155.20000004768,147675.226,147686.79999995232,147691.911,148159.085,,1,it
screen,html.Screen,2_1_0_1_2,2022-04-27T12:49:05.765Z,,,,,,,,,,,,,,,,,53,,,,,,,,,,,,,,466.5150001430593,,response,,,,99,,,,,,,Space,keypress(Space),,,,,,,,---- -- comes -- ------ - ------- --- ----------<br>------------- ------ ------ ---- ---- ------- ----- -- ----<br>-------- ------- -- ---------- --- - --- ----- ----- ----<br>---- --- --- ----- --- ---- ---- ------- ----- ---- -------<br>--- --- -- ----- -- --- ---- -- --- ---- -- ------ ------<br>--- ----- -- ----,148627,148625.60000014305,148142.49,148156.90000009537,148159.085,148643.007,,2,comes
screen,html.Screen,2_1_0_1_3,2022-04-27T12:49:06.158Z,,,,,,,,,,,,,,,,,53,,,,,,,,,,,,,,376.49299999998766,,response,,,,99,,,,,,,Space,keypress(Space),,,,,,,,---- -- ----- to ------ - ------- --- ----------<br>------------- ------ ------ ---- ---- ------- ----- -- ----<br>-------- ------- -- ---------- --- - --- ----- ----- ----<br>---- --- --- ----- --- ---- ---- ------- ----- ---- -------<br>--- --- -- ----- -- --- ---- -- --- ---- -- ------ ------<br>--- ----- -- ----,149020.90000009537,149019.5,148626.358,148627.20000004768,148643.007,149026.716,,3,to
screen,html.Screen,2_1_0_1_4,2022-04-27T12:49:06.617Z,,,,,,,,,,,,,,,,,53,,,,,,,,,,,,,,450.5839999523305,,response,,,,99,,,,,,,Space,keypress(Space),,,,,,,,---- -- ----- -- having - ------- --- ----------<br>------------- ------ ------ ---- ---- ------- ----- -- ----<br>-------- ------- -- ---------- --- - --- ----- ----- ----<br>---- --- --- ----- --- ---- ---- ------- ----- ---- -------<br>--- --- -- ----- -- --- ---- -- --- ---- -- ------ ------<br>--- ----- -- ----,149479,149477.29999995232,149010.14,149021.20000004768,149026.716,149493.836,,4,having
screen,html.Screen,2_1_0_1_5,2022-04-27T12:49:07.040Z,,,,,,,,,,,,,,,,,53,,,,,,,,,,,,,,406.66399999998976,,response,,,,99,,,,,,,Space,keypress(Space),,,,,,,,---- -- ----- -- ------ a ------- --- ----------<br>------------- ------ ------ ---- ---- ------- ----- -- ----<br>-------- ------- -- ---------- --- - --- ----- ----- ----<br>---- --- --- ----- --- ---- ---- ------- ----- ---- -------<br>--- --- -- ----- -- --- ---- -- --- ---- -- ------ ------<br>--- ----- -- ----,149902,149900.5,149477.291,149479.20000004768,149493.836,149911.02,,5,a
screen,html.Screen,2_1_0_1_6,2022-04-27T12:49:07.589Z,,,,,,,,,,,,,,,,,53,,,,,,,,,,,,,,538.3800000953779,,response,,,,99,,,,,,,Space,keypress(Space),,,,,,,,---- -- ----- -- ------ - lasting --- ----------<br>------------- ------ ------ ---- ---- ------- ----- -- ----<br>-------- ------- -- ---------- --- - --- ----- ----- ----<br>---- --- --- ----- --- ---- ---- ------- ----- ---- -------<br>--- --- -- ----- -- --- ---- -- --- ---- -- ------ ------<br>--- ----- -- ----,150451,150449.40000009537,149894.353,149902.29999995232,149911.02,150461.735,,6,lasting
screen,html.Screen,2_1_0_1_7,2022-04-27T12:49:08.007Z,,,,,,,,,,,,,,,,,53,,,,,,,,,,,,,,405.9650000476977,,response,,,,99,,,,,,,Space,keypress(Space),,,,,,,,---- -- ----- -- ------ - ------- and ----------<br>------------- ------ ------ ---- ---- ------- ----- -- ----<br>-------- ------- -- ---------- --- - --- ----- ----- ----<br>---- --- --- ----- --- ---- ---- ------- ----- ---- -------<br>--- --- -- ----- -- --- ---- -- --- ---- -- ------ ------<br>--- ----- -- ----,150869.20000004768,150867.70000004768,150444.944,150451.20000004768,150461.735,150878.756,,7,and
screen,html.Screen,2_1_0_1_8,2022-04-27T12:49:08.541Z,,,,,,,,,,,,,,,,,53,,,,,,,,,,,,,,522.8440001430572,,response,,,,99,,,,,,,Space,keypress(Space),,,,,,,,---- -- ----- -- ------ - ------- --- fulfilling<br>------------- ------ ------ ---- ---- ------- ----- -- ----<br>-------- ------- -- ---------- --- - --- ----- ----- ----<br>---- --- --- ----- --- ---- ---- ------- ----- ---- -------<br>--- --- -- ----- -- --- ---- -- --- ---- -- ------ ------<br>--- ----- -- ----,151403.10000014305,151401.60000014305,150862.156,150869.40000009537,150878.756,151412.68,,8,fulfilling
screen,html.Screen,2_1_0_1_9,2022-04-27T12:49:09.105Z,,,,,,,,,,,,,,,,,53,,,,,,,,,,,,,,552.9200001430581,,response,,,,99,,,,,,,Space,keypress(Space),,,,,,,,"---- -- ----- -- ------ - ------- --- ----------<br>relationship, ------ ------ ---- ---- ------- ----- -- ----<br>-------- ------- -- ---------- --- - --- ----- ----- ----<br>---- --- --- ----- --- ---- ---- ------- ----- ---- -------<br>--- --- -- ----- -- --- ---- -- --- ---- -- ------ ------<br>--- ----- -- ----",151967.20000004768,151965.60000014305,151395.981,151403.20000004768,151412.68,151979.986,,9,"relationship,"
screen,html.Screen,2_1_0_1_10,2022-04-27T12:49:09.730Z,,,,,,,,,,,,,,,,,53,,,,,,,,,,,,,,610.914000095363,,response,,,,99,,,,,,,Space,keypress(Space),,,,,,,,---- -- ----- -- ------ - ------- --- ----------<br>------------- common ------ ---- ---- ------- ----- -- ----<br>-------- ------- -- ---------- --- - --- ----- ----- ----<br>---- --- --- ----- --- ---- ---- ------- ----- ---- -------<br>--- --- -- ----- -- --- ---- -- --- ---- -- ------ ------<br>--- ----- -- ----,152592.40000009537,152590.90000009537,151963.318,151967.40000009537,151979.986,152597.311,,10,common
screen,html.Screen,2_1_0_1_11,2022-04-27T12:49:10.113Z,,,,,,,,,,,,,,,,,53,,,,,,,,,,,,,,376.58900009538047,,response,,,,99,,,,,,,Space,keypress(Space),,,,,,,,---- -- ----- -- ------ - ------- --- ----------<br>------------- ------ wisdom ---- ---- ------- ----- -- ----<br>-------- ------- -- ---------- --- - --- ----- ----- ----<br>---- --- --- ----- --- ---- ---- ------- ----- ---- -------<br>--- --- -- ----- -- --- ---- -- --- ---- -- ------ ------<br>--- ----- -- ----,152975.40000009537,152973.90000009537,152580.626,152592.70000004768,152597.311,152981.056,,11,wisdom
screen,html.Screen,2_1_0_1_12,2022-04-27T12:49:10.551Z,,,,,,,,,,,,,,,,,53,,,,,,,,,,,,,,430.2439999523049,,response,,,,99,,,,,,,Space,keypress(Space),,,,,,,,---- -- ----- -- ------ - ------- --- ----------<br>------------- ------ ------ says ---- ------- ----- -- ----<br>-------- ------- -- ---------- --- - --- ----- ----- ----<br>---- --- --- ----- --- ---- ---- ------- ----- ---- -------<br>--- --- -- ----- -- --- ---- -- --- ---- -- ------ ------<br>--- ----- -- ----,153413,153411.29999995232,152964.378,152975.70000004768,152981.056,153438.965,,12,says
screen,html.Screen,2_1_0_1_13,2022-04-27T12:49:10.989Z,,,,,,,,,,,,,,,,,53,,,,,,,,,,,,,,410.5350000000035,,response,,,,99,,,,,,,Space,keypress(Space),,,,,,,,---- -- ----- -- ------ - ------- --- ----------<br>------------- ------ ------ ---- that ------- ----- -- ----<br>-------- ------- -- ---------- --- - --- ----- ----- ----<br>---- --- --- ----- --- ---- ---- ------- ----- ---- -------<br>--- --- -- ----- -- --- ---- -- --- ---- -- ------ ------<br>--- ----- -- ----,153851.20000004768,153849.5,153398.155,153413.10000014305,153438.965,153865.415,,13,that
screen,html.Screen,2_1_0_1_14,2022-04-27T12:49:11.452Z,,,,,,,,,,,,,,,,,53,,,,,,,,,,,,,,447.685000143043,,response,,,,99,,,,,,,Space,keypress(Space),,,,,,,,---- -- ----- -- ------ - ------- --- ----------<br>------------- ------ ------ ---- ---- feeling ----- -- ----<br>-------- ------- -- ---------- --- - --- ----- ----- ----<br>---- --- --- ----- --- ---- ---- ------- ----- ---- -------<br>--- --- -- ----- -- --- ---- -- --- ---- -- ------ ------<br>--- ----- -- ----,154314.60000014305,154313.10000014305,153848.772,153851.40000009537,153865.415,154349.457,,14,feeling
screen,html.Screen,2_1_0_1_15,2022-04-27T12:49:11.926Z,,,,,,,,,,,,,,,,,53,,,,,,,,,,,,,,437.24300004768884,,response,,,,99,,,,,,,Space,keypress(Space),,,,,,,,---- -- ----- -- ------ - ------- --- ----------<br>------------- ------ ------ ---- ---- ------- close -- ----<br>-------- ------- -- ---------- --- - --- ----- ----- ----<br>---- --- --- ----- --- ---- ---- ------- ----- ---- -------<br>--- --- -- ----- -- --- ---- -- --- ---- -- ------ ------<br>--- ----- -- ----,154788.29999995232,154786.70000004768,154332.55,154314.90000009537,154349.457,154799.88,,15,close
screen,html.Screen,2_1_0_1_16,2022-04-27T12:49:12.284Z,,,,,,,,,,,,,,,,,53,,,,,,,,,,,,,,344.61999999999534,,response,,,,99,,,,,,,Space,keypress(Space),,,,,,,,---- -- ----- -- ------ - ------- --- ----------<br>------------- ------ ------ ---- ---- ------- ----- to ----<br>-------- ------- -- ---------- --- - --- ----- ----- ----<br>---- --- --- ----- --- ---- ---- ------- ----- ---- -------<br>--- --- -- ----- -- --- ---- -- --- ---- -- ------ ------<br>--- ----- -- ----,155146.20000004768,155144.5,154783.077,154788.5,154799.88,155150.123,,16,to
screen,html.Screen,2_1_0_1_17,2022-04-27T12:49:12.667Z,,,,,,,,,,,,,,,,,53,,,,,,,,,,,,,,377.5770000476914,,response,,,,99,,,,,,,Space,keypress(Space),,,,,,,,---- -- ----- -- ------ - ------- --- ----------<br>------------- ------ ------ ---- ---- ------- ----- -- your<br>-------- ------- -- ---------- --- - --- ----- ----- ----<br>---- --- --- ----- --- ---- ---- ------- ----- ---- -------<br>--- --- -- ----- -- --- ---- -- --- ---- -- ------ ------<br>--- ----- -- ----,155529.20000004768,155527.70000004768,155133.517,155146.40000009537,155150.123,155533.875,,17,your
screen,html.Screen,2_1_0_1_18,2022-04-27T12:49:13.186Z,,,,,,,,,,,,,,,,,53,,,,,,,,,,,,,,512.7250001430511,,response,,,,99,,,,,,,Space,keypress(Space),,,,,,,,---- -- ----- -- ------ - ------- --- ----------<br>------------- ------ ------ ---- ---- ------- ----- -- ----<br>romantic ------- -- ---------- --- - --- ----- ----- ----<br>---- --- --- ----- --- ---- ---- ------- ----- ---- -------<br>--- --- -- ----- -- --- ---- -- --- ---- -- ------ ------<br>--- ----- -- ----,156048.70000004768,156046.60000014305,155517.185,155529.5,155533.875,156051.096,,18,romantic
screen,html.Screen,2_1_0_1_19,2022-04-27T12:49:13.723Z,,,,,,,,,,,,,,,,,53,,,,,,,,,,,,,,532.304000095377,,response,,,,99,,,,,,,Space,keypress(Space),,,,,,,,---- -- ----- -- ------ - ------- --- ----------<br>------------- ------ ------ ---- ---- ------- ----- -- ----<br>-------- partner -- ---------- --- - --- ----- ----- ----<br>---- --- --- ----- --- ---- ---- ------- ----- ---- -------<br>--- --- -- ----- -- --- ---- -- --- ---- -- ------ ------<br>--- ----- -- ----,156585,156583.40000009537,156034.425,156049,156051.096,156601.764,,19,partner
screen,html.Screen,2_1_0_1_20,2022-04-27T12:49:14.157Z,,,,,,,,,,,,,,,,,53,,,,,,,,,,,,,,415.5359999523207,,response,,,,99,,,,,,,Space,keypress(Space),,,,,,,,---- -- ----- -- ------ - ------- --- ----------<br>------------- ------ ------ ---- ---- ------- ----- -- ----<br>-------- ------- is ---------- --- - --- ----- ----- ----<br>---- --- --- ----- --- ---- ---- ------- ----- ---- -------<br>--- --- -- ----- -- --- ---- -- --- ---- -- ------ ------<br>--- ----- -- ----,157019.10000014305,157017.29999995232,156585.123,156585.29999995232,156601.764,157035.481,,20,is
screen,html.Screen,2_1_0_1_21,2022-04-27T12:49:14.499Z,,,,,,,,,,,,,,,,,53,,,,,,,,,,,,,,323.91900009536766,,response,,,,99,,,,,,,Space,keypress(Space),,,,,,,,---- -- ----- -- ------ - ------- --- ----------<br>------------- ------ ------ ---- ---- ------- ----- -- ----<br>-------- ------- -- paramount. --- - --- ----- ----- ----<br>---- --- --- ----- --- ---- ---- ------- ----- ---- -------<br>--- --- -- ----- -- --- ---- -- --- ---- -- ------ ------<br>--- ----- -- ----,157360.90000009537,157359.40000009537,157018.897,157019.20000004768,157035.481,157369.234,,21,paramount.
screen,html.Screen,2_1_0_1_22,2022-04-27T12:49:15.139Z,,,,,,,,,,,,,,,,,53,,,,,,,,,,,,,,630.3660001430544,,response,,,,99,,,,,,,Space,keypress(Space),,,,,,,,---- -- ----- -- ------ - ------- --- ----------<br>------------- ------ ------ ---- ---- ------- ----- -- ----<br>-------- ------- -- ---------- But - --- ----- ----- ----<br>---- --- --- ----- --- ---- ---- ------- ----- ---- -------<br>--- --- -- ----- -- --- ---- -- --- ---- -- ------ ------<br>--- ----- -- ----,158001.29999995232,157999.60000014305,157352.613,157361.20000004768,157369.234,158027.155,,22,But
screen,html.Screen,2_1_0_1_23,2022-04-27T12:49:15.522Z,,,,,,,,,,,,,,,,,53,,,,,,,,,,,,,,355.84500000000116,,response,,,,99,,,,,,,Space,keypress(Space),,,,,,,,---- -- ----- -- ------ - ------- --- ----------<br>------------- ------ ------ ---- ---- ------- ----- -- ----<br>-------- ------- -- ---------- --- a --- ----- ----- ----<br>---- --- --- ----- --- ---- ---- ------- ----- ---- -------<br>--- --- -- ----- -- --- ---- -- --- ---- -- ------ ------<br>--- ----- -- ----,158384.70000004768,158383,157986.651,158001.5,158027.155,158387,,23,a
screen,html.Screen,2_1_0_1_24,2022-04-27T12:49:15.790Z,,,,,,,,,,,,,,,,,53,,,,,,,,,,,,,,263.60000014305115,,response,,,,99,,,,,,,Space,keypress(Space),,,,,,,,---- -- ----- -- ------ - ------- --- ----------<br>------------- ------ ------ ---- ---- ------- ----- -- ----<br>-------- ------- -- ---------- --- - new ----- ----- ----<br>---- --- --- ----- --- ---- ---- ------- ----- ---- -------<br>--- --- -- ----- -- --- ---- -- --- ---- -- ------ ------<br>--- ----- -- ----,158652.10000014305,158650.60000014305,158370.324,158384.79999995232,158387,158679.723,,24,new
screen,html.Screen,2_1_0_1_25,2022-04-27T12:49:16.299Z,,,,,,,,,,,,,,,,,53,,,,,,,,,,,,,,480.377000143053,,response,,,,99,,,,,,,Space,keypress(Space),,,,,,,,---- -- ----- -- ------ - ------- --- ----------<br>------------- ------ ------ ---- ---- ------- ----- -- ----<br>-------- ------- -- ---------- --- - --- study ----- ----<br>---- --- --- ----- --- ---- ---- ------- ----- ---- -------<br>--- --- -- ----- -- --- ---- -- --- ---- -- ------ ------<br>--- ----- -- ----,159161.70000004768,159160.10000014305,158637.373,158652.40000009537,158679.723,159171.305,,25,study
screen,html.Screen,2_1_0_1_26,2022-04-27T12:49:16.847Z,,,,,,,,,,,,,,,,,53,,,,,,,,,,,,,,536.9949999523233,,response,,,,99,,,,,,,Space,keypress(Space),,,,,,,,---- -- ----- -- ------ - ------- --- ----------<br>------------- ------ ------ ---- ---- ------- ----- -- ----<br>-------- ------- -- ---------- --- - --- ----- finds ----<br>---- --- --- ----- --- ---- ---- ------- ----- ---- -------<br>--- --- -- ----- -- --- ---- -- --- ---- -- ------ ------<br>--- ----- -- ----,159709.90000009537,159708.29999995232,159154.506,159162,159171.305,159722.03,,26,finds
screen,html.Screen,2_1_0_1_27,2022-04-27T12:49:17.401Z,,,,,,,,,,,,,,,,,53,,,,,,,,,,,,,,540.1700000476849,,response,,,,99,,,,,,,Space,keypress(Space),,,,,,,,---- -- ----- -- ------ - ------- --- ----------<br>------------- ------ ------ ---- ---- ------- ----- -- ----<br>-------- ------- -- ---------- --- - --- ----- ----- that<br>---- --- --- ----- --- ---- ---- ------- ----- ---- -------<br>--- --- -- ----- -- --- ---- -- --- ---- -- ------ ------<br>--- ----- -- ----,160264,160262.20000004768,159705.206,159710.10000014305,159722.03,160272.418,,27,that
screen,html.Screen,2_1_0_1_28,2022-04-27T12:49:17.760Z,,,,,,,,,,,,,,,,,53,,,,,,,,,,,,,,347.682000143046,,response,,,,99,,,,,,,Space,keypress(Space),,,,,,,,---- -- ----- -- ------ - ------- --- ----------<br>------------- ------ ------ ---- ---- ------- ----- -- ----<br>-------- ------- -- ---------- --- - --- ----- ----- ----<br>it's --- --- ----- --- ---- ---- ------- ----- ---- -------<br>--- --- -- ----- -- --- ---- -- --- ---- -- ------ ------<br>--- ----- -- ----,160622,160620.10000014305,160255.738,160264.29999995232,160272.418,160656.225,,28,it's
screen,html.Screen,2_1_0_1_29,2022-04-27T12:49:18.143Z,,,,,,,,,,,,,,,,,53,,,,,,,,,,,,,,347.9750000476779,,response,,,,99,,,,,,,Space,keypress(Space),,,,,,,,---- -- ----- -- ------ - ------- --- ----------<br>------------- ------ ------ ---- ---- ------- ----- -- ----<br>-------- ------- -- ---------- --- - --- ----- ----- ----<br>---- not --- ----- --- ---- ---- ------- ----- ---- -------<br>--- --- -- ----- -- --- ---- -- --- ---- -- ------ ------<br>--- ----- -- ----,161005.70000004768,161004.20000004768,160639.567,160622.20000004768,160656.225,161039.973,,29,not
screen,html.Screen,2_1_0_1_30,2022-04-27T12:49:18.370Z,,,,,,,,,,,,,,,,,53,,,,,,,,,,,,,,191.32699995231815,,response,,,,99,,,,,,,Space,keypress(Space),,,,,,,,---- -- ----- -- ------ - ------- --- ----------<br>------------- ------ ------ ---- ---- ------- ----- -- ----<br>-------- ------- -- ---------- --- - --- ----- ----- ----<br>---- --- how ----- --- ---- ---- ------- ----- ---- -------<br>--- --- -- ----- -- --- ---- -- --- ---- -- ------ ------<br>--- ----- -- ----,161232.90000009537,161231.29999995232,161023.359,161006,161039.973,161240.148,,30,how
screen,html.Screen,2_1_0_1_31,2022-04-27T12:49:18.693Z,,,,,,,,,,,,,,,,,53,,,,,,,,,,,,,,314.25200009538094,,response,,,,99,,,,,,,Space,keypress(Space),,,,,,,,---- -- ----- -- ------ - ------- --- ----------<br>------------- ------ ------ ---- ---- ------- ----- -- ----<br>-------- ------- -- ---------- --- - --- ----- ----- ----<br>---- --- --- close --- ---- ---- ------- ----- ---- -------<br>--- --- -- ----- -- --- ---- -- --- ---- -- ------ ------<br>--- ----- -- ----,161555.90000009537,161554.40000009537,161223.546,161233.10000014305,161240.148,161582.71,,31,close
screen,html.Screen,2_1_0_1_32,2022-04-27T12:49:19.092Z,,,,,,,,,,,,,,,,,53,,,,,,,,,,,,,,370.58999995232443,,response,,,,99,,,,,,,Space,keypress(Space),,,,,,,,---- -- ----- -- ------ - ------- --- ----------<br>------------- ------ ------ ---- ---- ------- ----- -- ----<br>-------- ------- -- ---------- --- - --- ----- ----- ----<br>---- --- --- ----- you ---- ---- ------- ----- ---- -------<br>--- --- -- ----- -- --- ---- -- --- ---- -- ------ ------<br>--- ----- -- ----,161954.90000009537,161953.29999995232,161540.488,161556.10000014305,161582.71,161957.611,,32,you
screen,html.Screen,2_1_0_1_33,2022-04-27T12:49:19.411Z,,,,,,,,,,,,,,,,,53,,,,,,,,,,,,,,313.789000095363,,response,,,,99,,,,,,,Space,keypress(Space),,,,,,,,---- -- ----- -- ------ - ------- --- ----------<br>------------- ------ ------ ---- ---- ------- ----- -- ----<br>-------- ------- -- ---------- --- - --- ----- ----- ----<br>---- --- --- ----- --- feel ---- ------- ----- ---- -------<br>--- --- -- ----- -- --- ---- -- --- ---- -- ------ ------<br>--- ----- -- ----,162273,162271.40000009537,161941.009,161955,161957.611,162295.409,,33,feel
screen,html.Screen,2_1_0_1_34,2022-04-27T12:49:19.814Z,,,,,,,,,,,,,,,,,53,,,,,,,,,,,,,,379.2910000476695,,response,,,,99,,,,,,,Space,keypress(Space),,,,,,,,---- -- ----- -- ------ - ------- --- ----------<br>------------- ------ ------ ---- ---- ------- ----- -- ----<br>-------- ------- -- ---------- --- - --- ----- ----- ----<br>---- --- --- ----- --- ---- that ------- ----- ---- -------<br>--- --- -- ----- -- --- ---- -- --- ---- -- ------ ------<br>--- ----- -- ----,162676.5,162674.70000004768,162257.932,162273.10000014305,162295.409,162691.794,,34,that
screen,html.Screen,2_1_0_1_35,2022-04-27T12:49:20.272Z,,,,,,,,,,,,,,,,,53,,,,,,,,,,,,,,441.30600014305674,,response,,,,99,,,,,,,Space,keypress(Space),,,,,,,,---- -- ----- -- ------ - ------- --- ----------<br>------------- ------ ------ ---- ---- ------- ----- -- ----<br>-------- ------- -- ---------- --- - --- ----- ----- ----<br>---- --- --- ----- --- ---- ---- matters ----- ---- -------<br>--- --- -- ----- -- --- ---- -- --- ---- -- ------ ------<br>--- ----- -- ----,163134.79999995232,163133.10000014305,162675.028,162676.70000004768,162691.794,163142.225,,35,matters
screen,html.Screen,2_1_0_1_36,2022-04-27T12:49:20.797Z,,,,,,,,,,,,,,,,,53,,,,,,,,,,,,,,515.6750000953616,,response,,,,99,,,,,,,Space,keypress(Space),,,,,,,,"---- -- ----- -- ------ - ------- --- ----------<br>------------- ------ ------ ---- ---- ------- ----- -- ----<br>-------- ------- -- ---------- --- - --- ----- ----- ----<br>---- --- --- ----- --- ---- ---- ------- most, ---- -------<br>--- --- -- ----- -- --- ---- -- --- ---- -- ------ ------<br>--- ----- -- ----",163659.5,163657.90000009537,163125.59,163134.90000009537,163142.225,163676.256,,36,"most,"
screen,html.Screen,2_1_0_1_37,2022-04-27T12:49:21.282Z,,,,,,,,,,,,,,,,,53,,,,,,,,,,,,,,466.24400000000605,,response,,,,99,,,,,,,Space,keypress(Space),,,,,,,,---- -- ----- -- ------ - ------- --- ----------<br>------------- ------ ------ ---- ---- ------- ----- -- ----<br>-------- ------- -- ---------- --- - --- ----- ----- ----<br>---- --- --- ----- --- ---- ---- ------- ----- it's -------<br>--- --- -- ----- -- --- ---- -- --- ---- -- ------ ------<br>--- ----- -- ----,164144.10000014305,164142.5,163659.486,163659.70000004768,163676.256,164160.196,,37,it's
screen,html.Screen,2_1_0_1_38,2022-04-27T12:49:21.574Z,,,,,,,,,,,,,,,,,53,,,,,,,,,,,,,,274.8040000000037,,response,,,,99,,,,,,,Space,keypress(Space),,,,,,,,---- -- ----- -- ------ - ------- --- ----------<br>------------- ------ ------ ---- ---- ------- ----- -- ----<br>-------- ------- -- ---------- --- - --- ----- ----- ----<br>---- --- --- ----- --- ---- ---- ------- ----- ---- whether<br>--- --- -- ----- -- --- ---- -- --- ---- -- ------ ------<br>--- ----- -- ----,164436.79999995232,164435,164143.429,164144.29999995232,164160.196,164443.68,,38,whether
screen,html.Screen,2_1_0_1_39,2022-04-27T12:49:22.013Z,,,,,,,,,,,,,,,,,53,,,,,,,,,,,,,,430.42000014305813,,response,,,,99,,,,,,,Space,keypress(Space),,,,,,,,---- -- ----- -- ------ - ------- --- ----------<br>------------- ------ ------ ---- ---- ------- ----- -- ----<br>-------- ------- -- ---------- --- - --- ----- ----- ----<br>---- --- --- ----- --- ---- ---- ------- ----- ---- -------<br>you --- -- ----- -- --- ---- -- --- ---- -- ------ ------<br>--- ----- -- ----,164875.90000009537,164874.10000014305,164426.992,164437,164443.68,164906.489,,39,you
screen,html.Screen,2_1_0_1_40,2022-04-27T12:49:22.205Z,,,,,,,,,,,,,,,,,53,,,,,,,,,,,,,,158.8109999523149,,response,,,,99,,,,,,,Space,keypress(Space),,,,,,,,---- -- ----- -- ------ - ------- --- ----------<br>------------- ------ ------ ---- ---- ------- ----- -- ----<br>-------- ------- -- ---------- --- - --- ----- ----- ----<br>---- --- --- ----- --- ---- ---- ------- ----- ---- -------<br>--- are -- ----- -- --- ---- -- --- ---- -- ------ ------<br>--- ----- -- ----,165067.10000014305,165065.29999995232,164860.835,164876.10000014305,164906.489,165077.646,,40,are
screen,html.Screen,2_1_0_1_41,2022-04-27T12:49:22.583Z,,,,,,,,,,,,,,,,,53,,,,,,,,,,,,,,365.8539999999921,,response,,,,99,,,,,,,Space,keypress(Space),,,,,,,,---- -- ----- -- ------ - ------- --- ----------<br>------------- ------ ------ ---- ---- ------- ----- -- ----<br>-------- ------- -- ---------- --- - --- ----- ----- ----<br>---- --- --- ----- --- ---- ---- ------- ----- ---- -------<br>--- --- as ----- -- --- ---- -- --- ---- -- ------ ------<br>--- ----- -- ----,165445.10000014305,165443.5,165061.01,165067.29999995232,165077.646,165461.507,,41,as
screen,html.Screen,2_1_0_1_42,2022-04-27T12:49:23.006Z,,,,,,,,,,,,,,,,,53,,,,,,,,,,,,,,405.1930000476714,,response,,,,99,,,,,,,Space,keypress(Space),,,,,,,,---- -- ----- -- ------ - ------- --- ----------<br>------------- ------ ------ ---- ---- ------- ----- -- ----<br>-------- ------- -- ---------- --- - --- ----- ----- ----<br>---- --- --- ----- --- ---- ---- ------- ----- ---- -------<br>--- --- -- close -- --- ---- -- --- ---- -- ------ ------<br>--- ----- -- ----,165868.29999995232,165866.70000004768,165444.78,165445.20000004768,165461.507,165878.661,,42,close
screen,html.Screen,2_1_0_1_43,2022-04-27T12:49:23.440Z,,,,,,,,,,,,,,,,,53,,,,,,,,,,,,,,421.43900014305837,,response,,,,99,,,,,,,Space,keypress(Space),,,,,,,,---- -- ----- -- ------ - ------- --- ----------<br>------------- ------ ------ ---- ---- ------- ----- -- ----<br>-------- ------- -- ---------- --- - --- ----- ----- ----<br>---- --- --- ----- --- ---- ---- ------- ----- ---- -------<br>--- --- -- ----- as --- ---- -- --- ---- -- ------ ------<br>--- ----- -- ----,166302,166300.10000014305,165861.892,165868.70000004768,165878.661,166312.454,,43,as
screen,html.Screen,2_1_0_1_44,2022-04-27T12:49:23.779Z,,,,,,,,,,,,,,,,,53,,,,,,,,,,,,,,327.3459999523184,,response,,,,99,,,,,,,Space,keypress(Space),,,,,,,,---- -- ----- -- ------ - ------- --- ----------<br>------------- ------ ------ ---- ---- ------- ----- -- ----<br>-------- ------- -- ---------- --- - --- ----- ----- ----<br>---- --- --- ----- --- ---- ---- ------- ----- ---- -------<br>--- --- -- ----- -- you ---- -- --- ---- -- ------ ------<br>--- ----- -- ----,166641.5,166639.79999995232,166295.71,166302.29999995232,166312.454,166646.209,,44,you
screen,html.Screen,2_1_0_1_45,2022-04-27T12:49:23.981Z,,,,,,,,,,,,,,,,,53,,,,,,,,,,,,,,195.79099999999744,,response,,,,99,,,,,,,Space,keypress(Space),,,,,,,,---- -- ----- -- ------ - ------- --- ----------<br>------------- ------ ------ ---- ---- ------- ----- -- ----<br>-------- ------- -- ---------- --- - --- ----- ----- ----<br>---- --- --- ----- --- ---- ---- ------- ----- ---- -------<br>--- --- -- ----- -- --- want -- --- ---- -- ------ ------<br>--- ----- -- ----,166843.60000014305,166842,166629.411,166641.70000004768,166646.209,166846.319,,45,want
screen,html.Screen,2_1_0_1_46,2022-04-27T12:49:24.425Z,,,,,,,,,,,,,,,,,53,,,,,,,,,,,,,,439.1810000000114,,response,,,,99,,,,,,,Space,keypress(Space),,,,,,,,---- -- ----- -- ------ - ------- --- ----------<br>------------- ------ ------ ---- ---- ------- ----- -- ----<br>-------- ------- -- ---------- --- - --- ----- ----- ----<br>---- --- --- ----- --- ---- ---- ------- ----- ---- -------<br>--- --- -- ----- -- --- ---- to --- ---- -- ------ ------<br>--- ----- -- ----,167287.10000014305,167285.5,166829.677,166843.70000004768,166846.319,167296.974,,46,to
screen,html.Screen,2_1_0_1_47,2022-04-27T12:49:24.682Z,,,,,,,,,,,,,,,,,53,,,,,,,,,,,,,,246.2260000476963,,response,,,,99,,,,,,,Space,keypress(Space),,,,,,,,"---- -- ----- -- ------ - ------- --- ----------<br>------------- ------ ------ ---- ---- ------- ----- -- ----<br>-------- ------- -- ---------- --- - --- ----- ----- ----<br>---- --- --- ----- --- ---- ---- ------- ----- ---- -------<br>--- --- -- ----- -- --- ---- -- be, ---- -- ------ ------<br>--- ----- -- ----",167544.70000004768,167543.20000004768,167280.222,167287.29999995232,167296.974,167547.086,,47,"be,"
screen,html.Screen,2_1_0_1_48,2022-04-27T12:49:24.910Z,,,,,,,,,,,,,,,,,53,,,,,,,,,,,,,,223.41399999998976,,response,,,,99,,,,,,,Space,keypress(Space),,,,,,,,---- -- ----- -- ------ - ------- --- ----------<br>------------- ------ ------ ---- ---- ------- ----- -- ----<br>-------- ------- -- ---------- --- - --- ----- ----- ----<br>---- --- --- ----- --- ---- ---- ------- ----- ---- -------<br>--- --- -- ----- -- --- ---- -- --- even -- ------ ------<br>--- ----- -- ----,167772,167770.5,167530.478,167544.90000009537,167547.086,167780.757,,48,even
screen,html.Screen,2_1_0_1_49,2022-04-27T12:49:25.409Z,,,,,,,,,,,,,,,,,53,,,,,,,,,,,,,,488.8430001430388,,response,,,,99,,,,,,,Space,keypress(Space),,,,,,,,---- -- ----- -- ------ - ------- --- ----------<br>------------- ------ ------ ---- ---- ------- ----- -- ----<br>-------- ------- -- ---------- --- - --- ----- ----- ----<br>---- --- --- ----- --- ---- ---- ------- ----- ---- -------<br>--- --- -- ----- -- --- ---- -- --- ---- if ------ ------<br>--- ----- -- ----,168271.20000004768,168269.60000014305,167763.987,167772.29999995232,167780.757,168281.159,,49,if
screen,html.Screen,2_1_0_1_50,2022-04-27T12:49:25.585Z,,,,,,,,,,,,,,,,,53,,,,,,,,,,,,,,165.14099995230208,,response,,,,99,,,,,,,Space,keypress(Space),,,,,,,,---- -- ----- -- ------ - ------- --- ----------<br>------------- ------ ------ ---- ---- ------- ----- -- ----<br>-------- ------- -- ---------- --- - --- ----- ----- ----<br>---- --- --- ----- --- ---- ---- ------- ----- ---- -------<br>--- --- -- ----- -- --- ---- -- --- ---- -- that's ------<br>--- ----- -- ----,168447.79999995232,168446.29999995232,168264.577,168271.40000009537,168281.159,168464.703,,50,that's
screen,html.Screen,2_1_0_1_51,2022-04-27T12:49:26.053Z,,,,,,,,,,,,,,,,,53,,,,,,,,,,,,,,448.6970000953588,,response,,,,99,,,,,,,Space,keypress(Space),,,,,,,,---- -- ----- -- ------ - ------- --- ----------<br>------------- ------ ------ ---- ---- ------- ----- -- ----<br>-------- ------- -- ---------- --- - --- ----- ----- ----<br>---- --- --- ----- --- ---- ---- ------- ----- ---- -------<br>--- --- -- ----- -- --- ---- -- --- ---- -- ------ really<br>--- ----- -- ----,168915,168913.40000009537,168448.077,168448.10000014305,168464.703,168931.978,,51,really
screen,html.Screen,2_1_0_1_52,2022-04-27T12:49:26.401Z,,,,,,,,,,,,,,,,,53,,,,,,,,,,,,,,329.42200009536464,,response,,,,99,,,,,,,Space,keypress(Space),,,,,,,,---- -- ----- -- ------ - ------- --- ----------<br>------------- ------ ------ ---- ---- ------- ----- -- ----<br>-------- ------- -- ---------- --- - --- ----- ----- ----<br>---- --- --- ----- --- ---- ---- ------- ----- ---- -------<br>--- --- -- ----- -- --- ---- -- --- ---- -- ------ ------<br>not ----- -- ----,169262.90000009537,169261.40000009537,168915.254,168915.20000004768,168931.978,169265.654,,52,not
screen,html.Screen,2_1_0_1_53,2022-04-27T12:49:26.603Z,,,,,,,,,,,,,,,,,53,,,,,,,,,,,,,,198.04600004767417,,response,,,,99,,,,,,,Space,keypress(Space),,,,,,,,---- -- ----- -- ------ - ------- --- ----------<br>------------- ------ ------ ---- ---- ------- ----- -- ----<br>-------- ------- -- ---------- --- - --- ----- ----- ----<br>---- --- --- ----- --- ---- ---- ------- ----- ---- -------<br>--- --- -- ----- -- --- ---- -- --- ---- -- ------ ------<br>--- close -- ----,169465.5,169463.70000004768,169248.96,169263.20000004768,169265.654,169482.601,,53,close
screen,html.Screen,2_1_0_1_54,2022-04-27T12:49:26.971Z,,,,,,,,,,,,,,,,,53,,,,,,,,,,,,,,348.8990000000049,,response,,,,99,,,,,,,Space,keypress(Space),,,,,,,,---- -- ----- -- ------ - ------- --- ----------<br>------------- ------ ------ ---- ---- ------- ----- -- ----<br>-------- ------- -- ---------- --- - --- ----- ----- ----<br>---- --- --- ----- --- ---- ---- ------- ----- ---- -------<br>--- --- -- ----- -- --- ---- -- --- ---- -- ------ ------<br>--- ----- at ----,169833.10000014305,169831.5,169465.94,169465.70000004768,169482.601,169849.674,,54,at
screen,html.Screen,2_1_0_1_55,2022-04-27T12:49:27.324Z,,,,,,,,,,,,,,,,,53,,,,,,,,,,,,,,334.72600009536836,,response,,,,99,,,,,,,Space,keypress(Space),,,,,,,,---- -- ----- -- ------ - ------- --- ----------<br>------------- ------ ------ ---- ---- ------- ----- -- ----<br>-------- ------- -- ---------- --- - --- ----- ----- ----<br>---- --- --- ----- --- ---- ---- ------- ----- ---- -------<br>--- --- -- ----- -- --- ---- -- --- ---- -- ------ ------<br>--- ----- -- all.,170186.20000004768,170184.40000009537,169832.935,169833.29999995232,169849.674,170200.007,,55,all.
Item 99,flow.Loop,2_1_0_1,2022-04-27T12:49:27.324Z,,,,,,,,,,,,,,,,,,,,,,,,,,,,,,,23526.951000095374,,completion,,,,,C,,,,,,,,,,,silence,,,,,170186.60000014305,170184.40000009537,146624.066,146625.5,146657.449,170200.007,,,
Question 1,html.Screen,2_1_0_2,2022-04-27T12:49:32.493Z,,,,,,,,,,,,,,,,,,,,,,,,,,,,true,FALSE,,5153.393000095355,,response,,,,99,C,,,,,,FALSE,click #choice-2,,,,silence,,,,,175355.60000014305,175353.40000009537,170183.331,170186.79999995232,170200.007,175382.972,,,
Question 2,html.Screen,2_1_0_3,2022-04-27T12:49:36.790Z,,,,,,,,,,,,,,,,,,,,,,,,,,,,true,TRUE,,4267.128000143042,,response,,,,99,C,,,,,,TRUE,click #choice-1,,,,silence,,,,,179652.40000009537,179650.10000014305,175338.993,175356.79999995232,175382.972,179660.407,,,
Item 99,flow.Sequence,2_1_0,2022-04-27T12:49:36.790Z,,,,,,,,,,,,,,,,,,,,,,,,,,,,,,,43003.65700014305,,completion,,,,,,,,,,,,,,,,,,,,,179652.60000014305,179650.10000014305,136629.74,136638.5,136646.443,179660.407,,,
Holding screen,html.Screen,2_1_1_0,2022-04-27T12:49:46.777Z,,,,,,,,,,,,,,,,,,,,,,,,,,,,,,,9994.358000000007,,timeout,,,,,,,,,,,,,,,,,,,,,189639.40000009537,189638.15,179643.724,179652.90000009537,179660.407,189654.765,,,
screen,html.Screen,2_1_1_1_0,2022-04-27T12:49:47.520Z,,,,,,,,,,,,,,,,,54,,,,,,,,,,,,,,724.234999999986,,response,,,,100,,,,,,,Space,keypress(Space),,,,,,,,At --- ---- --- ------ ----- ------- ---- -- --- ------- --<br>------- ---------- ------ -- ----- -- ----- -- ---- ------<br>--- ----- --- --- ------ -------- ----- --- ------ ----- --<br>----- ----- ---------- --- --- ------ ------ ---- -- ------<br>------- --- ------ ----- --- ---- ------- -- ---- --- --<br>------- ------,190381.90000009537,190379,189638.15,189639.60000014305,189654.765,190388.883,,0,At
screen,html.Screen,2_1_1_1_1,2022-04-27T12:49:47.866Z,,,,,,,,,,,,,,,,,54,,,,,,,,,,,,,,338.0170000953658,,response,,,,100,,,,,,,Space,keypress(Space),,,,,,,,-- the ---- --- ------ ----- ------- ---- -- --- ------- --<br>------- ---------- ------ -- ----- -- ----- -- ---- ------<br>--- ----- --- --- ------ -------- ----- --- ------ ----- --<br>----- ----- ---------- --- --- ------ ------ ---- -- ------<br>------- --- ------ ----- --- ---- ------- -- ---- --- --<br>------- ------,190728.29999995232,190726.90000009537,190372.196,190382.10000014305,190388.883,190739.291,,1,the
screen,html.Screen,2_1_1_1_2,2022-04-27T12:49:48.144Z,,,,,,,,,,,,,,,,,54,,,,,,,,,,,,,,265.10900009537,,response,,,,100,,,,,,,Space,keypress(Space),,,,,,,,-- --- time --- ------ ----- ------- ---- -- --- ------- --<br>------- ---------- ------ -- ----- -- ----- -- ---- ------<br>--- ----- --- --- ------ -------- ----- --- ------ ----- --<br>----- ----- ---------- --- --- ------ ------ ---- -- ------<br>------- --- ------ ----- --- ---- ------- -- ---- --- --<br>------- ------,191005.90000009537,191004.40000009537,190722.638,190728.5,190739.291,191022.852,,2,time
screen,html.Screen,2_1_1_1_3,2022-04-27T12:49:48.532Z,,,,,,,,,,,,,,,,,54,,,,,,,,,,,,,,369.5480000953539,,response,,,,100,,,,,,,Space,keypress(Space),,,,,,,,-- --- ---- the ------ ----- ------- ---- -- --- ------- --<br>------- ---------- ------ -- ----- -- ----- -- ---- ------<br>--- ----- --- --- ------ -------- ----- --- ------ ----- --<br>----- ----- ---------- --- --- ------ ------ ---- -- ------<br>------- --- ------ ----- --- ---- ------- -- ---- --- --<br>------- ------,191394,191392.40000009537,191006.26,191006.20000004768,191022.852,191406.645,,3,the
screen,html.Screen,2_1_1_1_4,2022-04-27T12:49:48.836Z,,,,,,,,,,,,,,,,,54,,,,,,,,,,,,,,288.4550001430616,,response,,,,100,,,,,,,Space,keypress(Space),,,,,,,,-- --- ---- --- French ----- ------- ---- -- --- ------- --<br>------- ---------- ------ -- ----- -- ----- -- ---- ------<br>--- ----- --- --- ------ -------- ----- --- ------ ----- --<br>----- ----- ---------- --- --- ------ ------ ---- -- ------<br>------- --- ------ ----- --- ---- ------- -- ---- --- --<br>------- ------,191697.5,191695.10000014305,191390.059,191394.10000014305,191406.645,191707.03,,4,French
screen,html.Screen,2_1_1_1_5,2022-04-27T12:49:49.053Z,,,,,,,,,,,,,,,,,54,,,,,,,,,,,,,,206.17000004768488,,response,,,,100,,,,,,,Space,keypress(Space),,,,,,,,-- --- ---- --- ------ crown ------- ---- -- --- ------- --<br>------- ---------- ------ -- ----- -- ----- -- ---- ------<br>--- ----- --- --- ------ -------- ----- --- ------ ----- --<br>----- ----- ---------- --- --- ------ ------ ---- -- ------<br>------- --- ------ ----- --- ---- ------- -- ---- --- --<br>------- ------,191914.60000014305,191913.20000004768,191690.315,191697.79999995232,191707.03,191923.913,,5,crown
screen,html.Screen,2_1_1_1_6,2022-04-27T12:49:49.386Z,,,,,,,,,,,,,,,,,54,,,,,,,,,,,,,,321.98700009536697,,response,,,,100,,,,,,,Space,keypress(Space),,,,,,,,-- --- ---- --- ------ ----- secured ---- -- --- ------- --<br>------- ---------- ------ -- ----- -- ----- -- ---- ------<br>--- ----- --- --- ------ -------- ----- --- ------ ----- --<br>----- ----- ---------- --- --- ------ ------ ---- -- ------<br>------- --- ------ ----- --- ---- ------- -- ---- --- --<br>------- ------,192247.70000004768,192245.90000009537,191907.22,191914.79999995232,191923.913,192257.531,,6,secured
screen,html.Screen,2_1_1_1_7,2022-04-27T12:49:49.759Z,,,,,,,,,,,,,,,,,54,,,,,,,,,,,,,,361.6690000476956,,response,,,,100,,,,,,,Space,keypress(Space),,,,,,,,-- --- ---- --- ------ ----- ------- much -- --- ------- --<br>------- ---------- ------ -- ----- -- ----- -- ---- ------<br>--- ----- --- --- ------ -------- ----- --- ------ ----- --<br>----- ----- ---------- --- --- ------ ------ ---- -- ------<br>------- --- ------ ----- --- ---- ------- -- ---- --- --<br>------- ------,192620.70000004768,192619.20000004768,192241.002,192247.90000009537,192257.531,192624.673,,7,much
screen,html.Screen,2_1_1_1_8,2022-04-27T12:49:50.172Z,,,,,,,,,,,,,,,,,54,,,,,,,,,,,,,,407.52700004767394,,response,,,,100,,,,,,,Space,keypress(Space),,,,,,,,-- --- ---- --- ------ ----- ------- ---- of --- ------- --<br>------- ---------- ------ -- ----- -- ----- -- ---- ------<br>--- ----- --- --- ------ -------- ----- --- ------ ----- --<br>----- ----- ---------- --- --- ------ ------ ---- -- ------<br>------- --- ------ ----- --- ---- ------- -- ---- --- --<br>------- ------,193033.70000004768,193032.20000004768,192607.991,192620.79999995232,192624.673,193041.799,,8,of
screen,html.Screen,2_1_1_1_9,2022-04-27T12:49:50.465Z,,,,,,,,,,,,,,,,,54,,,,,,,,,,,,,,283.70100000000093,,response,,,,100,,,,,,,Space,keypress(Space),,,,,,,,-- --- ---- --- ------ ----- ------- ---- -- its ------- --<br>------- ---------- ------ -- ----- -- ----- -- ---- ------<br>--- ----- --- --- ------ -------- ----- --- ------ ----- --<br>----- ----- ---------- --- --- ------ ------ ---- -- ------<br>------- --- ------ ----- --- ---- ------- -- ---- --- --<br>------- ------,193327.20000004768,193325.5,193025.194,193033.90000009537,193041.799,193342.173,,9,its
screen,html.Screen,2_1_1_1_10,2022-04-27T12:49:50.666Z,,,,,,,,,,,,,,,,,54,,,,,,,,,,,,,,184.6269999523065,,response,,,,100,,,,,,,Space,keypress(Space),,,,,,,,-- --- ---- --- ------ ----- ------- ---- -- --- revenue --<br>------- ---------- ------ -- ----- -- ----- -- ---- ------<br>--- ----- --- --- ------ -------- ----- --- ------ ----- --<br>----- ----- ---------- --- --- ------ ------ ---- -- ------<br>------- --- ------ ----- --- ---- ------- -- ---- --- --<br>------- ------,193528.29999995232,193526.79999995232,193325.445,193327.5,193342.173,193542.392,,10,revenue
screen,html.Screen,2_1_1_1_11,2022-04-27T12:49:51.105Z,,,,,,,,,,,,,,,,,54,,,,,,,,,,,,,,422.7080001430586,,response,,,,100,,,,,,,Space,keypress(Space),,,,,,,,-- --- ---- --- ------ ----- ------- ---- -- --- ------- by<br>------- ---------- ------ -- ----- -- ----- -- ---- ------<br>--- ----- --- --- ------ -------- ----- --- ------ ----- --<br>----- ----- ---------- --- --- ------ ------ ---- -- ------<br>------- --- ------ ----- --- ---- ------- -- ---- --- --<br>------- ------,193966.90000009537,193965.10000014305,193525.663,193528.5,193542.392,193976.181,,11,by
screen,html.Screen,2_1_1_1_12,2022-04-27T12:49:51.478Z,,,,,,,,,,,,,,,,,54,,,,,,,,,,,,,,362.1189999523049,,response,,,,100,,,,,,,Space,keypress(Space),,,,,,,,-- --- ---- --- ------ ----- ------- ---- -- --- ------- --<br>issuing ---------- ------ -- ----- -- ----- -- ---- ------<br>--- ----- --- --- ------ -------- ----- --- ------ ----- --<br>----- ----- ---------- --- --- ------ ------ ---- -- ------<br>------- --- ------ ----- --- ---- ------- -- ---- --- --<br>------- ------,194340.10000014305,194338.29999995232,193959.479,193967.10000014305,193976.181,194343.233,,12,issuing
screen,html.Screen,2_1_1_1_13,2022-04-27T12:49:51.750Z,,,,,,,,,,,,,,,,,54,,,,,,,,,,,,,,267.3670001430437,,response,,,,100,,,,,,,Space,keypress(Space),,,,,,,,-- --- ---- --- ------ ----- ------- ---- -- --- ------- --<br>------- government ------ -- ----- -- ----- -- ---- ------<br>--- ----- --- --- ------ -------- ----- --- ------ ----- --<br>----- ----- ---------- --- --- ------ ------ ---- -- ------<br>------- --- ------ ----- --- ---- ------- -- ---- --- --<br>------- ------,194612.10000014305,194610.60000014305,194326.62,194340.29999995232,194343.233,194626.931,,13,government
screen,html.Screen,2_1_1_1_14,2022-04-27T12:49:52.038Z,,,,,,,,,,,,,,,,,54,,,,,,,,,,,,,,271.3689999523049,,response,,,,100,,,,,,,Space,keypress(Space),,,,,,,,-- --- ---- --- ------ ----- ------- ---- -- --- ------- --<br>------- ---------- bonds. -- ----- -- ----- -- ---- ------<br>--- ----- --- --- ------ -------- ----- --- ------ ----- --<br>----- ----- ---------- --- --- ------ ------ ---- -- ------<br>------- --- ------ ----- --- ---- ------- -- ---- --- --<br>------- ------,194899.90000009537,194898.29999995232,194610.275,194612.29999995232,194626.931,194910.494,,14,bonds.
screen,html.Screen,2_1_1_1_15,2022-04-27T12:49:52.515Z,,,,,,,,,,,,,,,,,54,,,,,,,,,,,,,,465.4060000953614,,response,,,,100,,,,,,,Space,keypress(Space),,,,,,,,-- --- ---- --- ------ ----- ------- ---- -- --- ------- --<br>------- ---------- ------ In ----- -- ----- -- ---- ------<br>--- ----- --- --- ------ -------- ----- --- ------ ----- --<br>----- ----- ---------- --- --- ------ ------ ---- -- ------<br>------- --- ------ ----- --- ---- ------- -- ---- --- --<br>------- ------,195377.40000009537,195375.90000009537,194893.829,194900.10000014305,194910.494,195394.406,,15,In
screen,html.Screen,2_1_1_1_16,2022-04-27T12:49:53.532Z,,,,,,,,,,,,,,,,,54,,,,,,,,,,,,,,997.8939999523282,,response,,,,100,,,,,,,Space,keypress(Space),,,,,,,,"-- --- ---- --- ------ ----- ------- ---- -- --- ------- --<br>------- ---------- ------ -- 1727, -- ----- -- ---- ------<br>--- ----- --- --- ------ -------- ----- --- ------ ----- --<br>----- ----- ---------- --- --- ------ ------ ---- -- ------<br>------- --- ------ ----- --- ---- ------- -- ---- --- --<br>------- ------",196394.20000004768,196392.29999995232,195377.701,195377.60000014305,195394.406,196423.258,,16,"1727,"
screen,html.Screen,2_1_1_1_17,2022-04-27T12:49:53.961Z,,,,,,,,,,,,,,,,,54,,,,,,,,,,,,,,398.3420001430495,,response,,,,100,,,,,,,Space,keypress(Space),,,,,,,,-- --- ---- --- ------ ----- ------- ---- -- --- ------- --<br>------- ---------- ------ -- ----- in ----- -- ---- ------<br>--- ----- --- --- ------ -------- ----- --- ------ ----- --<br>----- ----- ---------- --- --- ------ ------ ---- -- ------<br>------- --- ------ ----- --- ---- ------- -- ---- --- --<br>------- ------,196823.10000014305,196821.60000014305,196378.801,196394.5,196423.258,196829.295,,17,in
screen,html.Screen,2_1_1_1_18,2022-04-27T12:49:54.491Z,,,,,,,,,,,,,,,,,54,,,,,,,,,,,,,,521.9050000476709,,response,,,,100,,,,,,,Space,keypress(Space),,,,,,,,-- --- ---- --- ------ ----- ------- ---- -- --- ------- --<br>------- ---------- ------ -- ----- -- order -- ---- ------<br>--- ----- --- --- ------ -------- ----- --- ------ ----- --<br>----- ----- ---------- --- --- ------ ------ ---- -- ------<br>------- --- ------ ----- --- ---- ------- -- ---- --- --<br>------- ------,197352.70000004768,197351.20000004768,196812.666,196823.29999995232,196829.295,197363.31,,18,order
screen,html.Screen,2_1_1_1_19,2022-04-27T12:49:54.879Z,,,,,,,,,,,,,,,,,54,,,,,,,,,,,,,,376.09000009536976,,response,,,,100,,,,,,,Space,keypress(Space),,,,,,,,-- --- ---- --- ------ ----- ------- ---- -- --- ------- --<br>------- ---------- ------ -- ----- -- ----- to ---- ------<br>--- ----- --- --- ------ -------- ----- --- ------ ----- --<br>----- ----- ---------- --- --- ------ ------ ---- -- ------<br>------- --- ------ ----- --- ---- ------- -- ---- --- --<br>------- ------,197741.29999995232,197739.40000009537,197346.532,197352.90000009537,197363.31,197746.971,,19,to
screen,html.Screen,2_1_1_1_20,2022-04-27T12:49:55.136Z,,,,,,,,,,,,,,,,,54,,,,,,,,,,,,,,249.82899995232583,,response,,,,100,,,,,,,Space,keypress(Space),,,,,,,,-- --- ---- --- ------ ----- ------- ---- -- --- ------- --<br>------- ---------- ------ -- ----- -- ----- -- save ------<br>--- ----- --- --- ------ -------- ----- --- ------ ----- --<br>----- ----- ---------- --- --- ------ ------ ---- -- ------<br>------- --- ------ ----- --- ---- ------- -- ---- --- --<br>------- ------,197998.29999995232,197996.79999995232,197730.369,197742.20000004768,197746.971,198013.978,,20,save
screen,html.Screen,2_1_1_1_21,2022-04-27T12:49:55.325Z,,,,,,,,,,,,,,,,,54,,,,,,,,,,,,,,170.62200014304835,,response,,,,100,,,,,,,Space,keypress(Space),,,,,,,,"-- --- ---- --- ------ ----- ------- ---- -- --- ------- --<br>------- ---------- ------ -- ----- -- ----- -- ---- money,<br>--- ----- --- --- ------ -------- ----- --- ------ ----- --<br>----- ----- ---------- --- --- ------ ------ ---- -- ------<br>------- --- ------ ----- --- ---- ------- -- ---- --- --<br>------- ------",198186.90000009537,198184.60000014305,197997.329,197998.5,198013.978,198197.402,,21,"money,"
screen,html.Screen,2_1_1_1_22,2022-04-27T12:49:55.691Z,,,,,,,,,,,,,,,,,54,,,,,,,,,,,,,,354.29800004768185,,response,,,,100,,,,,,,Space,keypress(Space),,,,,,,,-- --- ---- --- ------ ----- ------- ---- -- --- ------- --<br>------- ---------- ------ -- ----- -- ----- -- ---- ------<br>the ----- --- --- ------ -------- ----- --- ------ ----- --<br>----- ----- ---------- --- --- ------ ------ ---- -- ------<br>------- --- ------ ----- --- ---- ------- -- ---- --- --<br>------- ------,198553.29999995232,198551.70000004768,198180.867,198187.20000004768,198197.402,198564.717,,22,the
screen,html.Screen,2_1_1_1_23,2022-04-27T12:49:56.105Z,,,,,,,,,,,,,,,,,54,,,,,,,,,,,,,,400.2829999999958,,response,,,,100,,,,,,,Space,keypress(Space),,,,,,,,-- --- ---- --- ------ ----- ------- ---- -- --- ------- --<br>------- ---------- ------ -- ----- -- ----- -- ---- ------<br>--- state --- --- ------ -------- ----- --- ------ ----- --<br>----- ----- ---------- --- --- ------ ------ ---- -- ------<br>------- --- ------ ----- --- ---- ------- -- ---- --- --<br>------- ------,198966.79999995232,198965,198547.936,198553.5,198564.717,198981.712,,23,state
screen,html.Screen,2_1_1_1_24,2022-04-27T12:49:56.377Z,,,,,,,,,,,,,,,,,54,,,,,,,,,,,,,,255.8880001430516,,response,,,,100,,,,,,,Space,keypress(Space),,,,,,,,-- --- ---- --- ------ ----- ------- ---- -- --- ------- --<br>------- ---------- ------ -- ----- -- ----- -- ---- ------<br>--- ----- cut --- ------ -------- ----- --- ------ ----- --<br>----- ----- ---------- --- --- ------ ------ ---- -- ------<br>------- --- ------ ----- --- ---- ------- -- ---- --- --<br>------- ------,199239.10000014305,199237.60000014305,198964.979,198967,198981.712,199248.566,,24,cut
screen,html.Screen,2_1_1_1_25,2022-04-27T12:49:56.569Z,,,,,,,,,,,,,,,,,54,,,,,,,,,,,,,,180.93400000000838,,response,,,,100,,,,,,,Space,keypress(Space),,,,,,,,-- --- ---- --- ------ ----- ------- ---- -- --- ------- --<br>------- ---------- ------ -- ----- -- ----- -- ---- ------<br>--- ----- --- the ------ -------- ----- --- ------ ----- --<br>----- ----- ---------- --- --- ------ ------ ---- -- ------<br>------- --- ------ ----- --- ---- ------- -- ---- --- --<br>------- ------,199431,199429.5,199231.932,199239.40000009537,199248.566,199465.609,,25,the
screen,html.Screen,2_1_1_1_26,2022-04-27T12:49:56.785Z,,,,,,,,,,,,,,,,,54,,,,,,,,,,,,,,180.09100004768698,,response,,,,100,,,,,,,Space,keypress(Space),,,,,,,,-- --- ---- --- ------ ----- ------- ---- -- --- ------- --<br>------- ---------- ------ -- ----- -- ----- -- ---- ------<br>--- ----- --- --- bonds' -------- ----- --- ------ ----- --<br>----- ----- ---------- --- --- ------ ------ ---- -- ------<br>------- --- ------ ----- --- ---- ------- -- ---- --- --<br>------- ------,199647.40000009537,199645.70000004768,199452.457,199431.29999995232,199465.609,199674.289,,26,bonds'
screen,html.Screen,2_1_1_1_27,2022-04-27T12:49:56.983Z,,,,,,,,,,,,,,,,,54,,,,,,,,,,,,,,169.51099995232653,,response,,,,100,,,,,,,Space,keypress(Space),,,,,,,,-- --- ---- --- ------ ----- ------- ---- -- --- ------- --<br>------- ---------- ------ -- ----- -- ----- -- ---- ------<br>--- ----- --- --- ------ interest ----- --- ------ ----- --<br>----- ----- ---------- --- --- ------ ------ ---- -- ------<br>------- --- ------ ----- --- ---- ------- -- ---- --- --<br>------- ------,199845.29999995232,199843.79999995232,199632.463,199647.60000014305,199674.289,199849.29,,27,interest
screen,html.Screen,2_1_1_1_28,2022-04-27T12:49:57.401Z,,,,,,,,,,,,,,,,,54,,,,,,,,,,,,,,411.70999999999185,,response,,,,100,,,,,,,Space,keypress(Space),,,,,,,,-- --- ---- --- ------ ----- ------- ---- -- --- ------- --<br>------- ---------- ------ -- ----- -- ----- -- ---- ------<br>--- ----- --- --- ------ -------- rate. --- ------ ----- --<br>----- ----- ---------- --- --- ------ ------ ---- -- ------<br>------- --- ------ ----- --- ---- ------- -- ---- --- --<br>------- ------,200262.5,200261,199832.691,199845.5,199849.29,200266.408,,28,rate.
screen,html.Screen,2_1_1_1_29,2022-04-27T12:49:57.750Z,,,,,,,,,,,,,,,,,54,,,,,,,,,,,,,,343.4920000953716,,response,,,,100,,,,,,,Space,keypress(Space),,,,,,,,-- --- ---- --- ------ ----- ------- ---- -- --- ------- --<br>------- ---------- ------ -- ----- -- ----- -- ---- ------<br>--- ----- --- --- ------ -------- ----- The ------ ----- --<br>----- ----- ---------- --- --- ------ ------ ---- -- ------<br>------- --- ------ ----- --- ---- ------- -- ---- --- --<br>------- ------,200611.60000014305,200609.90000009537,200249.725,200262.70000004768,200266.408,200616.806,,29,The
screen,html.Screen,2_1_1_1_30,2022-04-27T12:49:57.971Z,,,,,,,,,,,,,,,,,54,,,,,,,,,,,,,,214.1939999999886,,response,,,,100,,,,,,,Space,keypress(Space),,,,,,,,-- --- ---- --- ------ ----- ------- ---- -- --- ------- --<br>------- ---------- ------ -- ----- -- ----- -- ---- ------<br>--- ----- --- --- ------ -------- ----- --- market ----- --<br>----- ----- ---------- --- --- ------ ------ ---- -- ------<br>------- --- ------ ----- --- ---- ------- -- ---- --- --<br>------- ------,200832.70000004768,200831,200600.116,200611.79999995232,200616.806,200867.184,,30,market
screen,html.Screen,2_1_1_1_31,2022-04-27T12:49:58.349Z,,,,,,,,,,,,,,,,,54,,,,,,,,,,,,,,341.91600014304277,,response,,,,100,,,,,,,Space,keypress(Space),,,,,,,,-- --- ---- --- ------ ----- ------- ---- -- --- ------- --<br>------- ---------- ------ -- ----- -- ----- -- ---- ------<br>--- ----- --- --- ------ -------- ----- --- ------ value --<br>----- ----- ---------- --- --- ------ ------ ---- -- ------<br>------- --- ------ ----- --- ---- ------- -- ---- --- --<br>------- ------,201210.79999995232,201209.10000014305,200850.395,200832.90000009537,200867.184,201217.448,,31,value
screen,html.Screen,2_1_1_1_32,2022-04-27T12:49:58.697Z,,,,,,,,,,,,,,,,,54,,,,,,,,,,,,,,339.9520000953635,,response,,,,100,,,,,,,Space,keypress(Space),,,,,,,,-- --- ---- --- ------ ----- ------- ---- -- --- ------- --<br>------- ---------- ------ -- ----- -- ----- -- ---- ------<br>--- ----- --- --- ------ -------- ----- --- ------ ----- of<br>----- ----- ---------- --- --- ------ ------ ---- -- ------<br>------- --- ------ ----- --- ---- ------- -- ---- --- --<br>------- ------,201559.10000014305,201557.40000009537,201200.854,201211,201217.448,201567.878,,32,of
screen,html.Screen,2_1_1_1_33,2022-04-27T12:49:59.101Z,,,,,,,,,,,,,,,,,54,,,,,,,,,,,,,,393.4219999523193,,response,,,,100,,,,,,,Space,keypress(Space),,,,,,,,-- --- ---- --- ------ ----- ------- ---- -- --- ------- --<br>------- ---------- ------ -- ----- -- ----- -- ---- ------<br>--- ----- --- --- ------ -------- ----- --- ------ ----- --<br>these ----- ---------- --- --- ------ ------ ---- -- ------<br>------- --- ------ ----- --- ---- ------- -- ---- --- --<br>------- ------,201962.90000009537,201961.29999995232,201551.208,201559.20000004768,201567.878,201968.795,,33,these
screen,html.Screen,2_1_1_1_34,2022-04-27T12:49:59.415Z,,,,,,,,,,,,,,,,,54,,,,,,,,,,,,,,306.9050000476709,,response,,,,100,,,,,,,Space,keypress(Space),,,,,,,,-- --- ---- --- ------ ----- ------- ---- -- --- ------- --<br>------- ---------- ------ -- ----- -- ----- -- ---- ------<br>--- ----- --- --- ------ -------- ----- --- ------ ----- --<br>----- bonds ---------- --- --- ------ ------ ---- -- ------<br>------- --- ------ ----- --- ---- ------- -- ---- --- --<br>------- ------,202277.29999995232,202275.70000004768,201951.679,201963.10000014305,201968.795,202285.519,,34,bonds
screen,html.Screen,2_1_1_1_35,2022-04-27T12:49:59.608Z,,,,,,,,,,,,,,,,,54,,,,,,,,,,,,,,182.58100014305091,,response,,,,100,,,,,,,Space,keypress(Space),,,,,,,,"-- --- ---- --- ------ ----- ------- ---- -- --- ------- --<br>------- ---------- ------ -- ----- -- ----- -- ---- ------<br>--- ----- --- --- ------ -------- ----- --- ------ ----- --<br>----- ----- plummeted, --- --- ------ ------ ---- -- ------<br>------- --- ------ ----- --- ---- ------- -- ---- --- --<br>------- ------",202469.70000004768,202468.10000014305,202268.629,202277.5,202285.519,202485.609,,35,"plummeted,"
screen,html.Screen,2_1_1_1_36,2022-04-27T12:49:59.996Z,,,,,,,,,,,,,,,,,54,,,,,,,,,,,,,,370.4910001430544,,response,,,,100,,,,,,,Space,keypress(Space),,,,,,,,-- --- ---- --- ------ ----- ------- ---- -- --- ------- --<br>------- ---------- ------ -- ----- -- ----- -- ---- ------<br>--- ----- --- --- ------ -------- ----- --- ------ ----- --<br>----- ----- ---------- and --- ------ ------ ---- -- ------<br>------- --- ------ ----- --- ---- ------- -- ---- --- --<br>------- ------,202857.79999995232,202856.10000014305,202468.832,202469.90000009537,202485.609,202869.381,,36,and
screen,html.Screen,2_1_1_1_37,2022-04-27T12:50:00.233Z,,,,,,,,,,,,,,,,,54,,,,,,,,,,,,,,224.11900000000605,,response,,,,100,,,,,,,Space,keypress(Space),,,,,,,,-- --- ---- --- ------ ----- ------- ---- -- --- ------- --<br>------- ---------- ------ -- ----- -- ----- -- ---- ------<br>--- ----- --- --- ------ -------- ----- --- ------ ----- --<br>----- ----- ---------- --- the ------ ------ ---- -- ------<br>------- --- ------ ----- --- ---- ------- -- ---- --- --<br>------- ------,203095.20000004768,203093.5,202852.671,202858,202869.381,203102.862,,37,the
screen,html.Screen,2_1_1_1_38,2022-04-27T12:50:00.461Z,,,,,,,,,,,,,,,,,54,,,,,,,,,,,,,,218.43799995232257,,response,,,,100,,,,,,,Space,keypress(Space),,,,,,,,-- --- ---- --- ------ ----- ------- ---- -- --- ------- --<br>------- ---------- ------ -- ----- -- ----- -- ---- ------<br>--- ----- --- --- ------ -------- ----- --- ------ ----- --<br>----- ----- ---------- --- --- market ------ ---- -- ------<br>------- --- ------ ----- --- ---- ------- -- ---- --- --<br>------- ------,203322.90000009537,203321.29999995232,203086.18,203095.5,203102.862,203336.424,,38,market
screen,html.Screen,2_1_1_1_39,2022-04-27T12:50:00.889Z,,,,,,,,,,,,,,,,,54,,,,,,,,,,,,,,412.57600000000093,,response,,,,100,,,,,,,Space,keypress(Space),,,,,,,,-- --- ---- --- ------ ----- ------- ---- -- --- ------- --<br>------- ---------- ------ -- ----- -- ----- -- ---- ------<br>--- ----- --- --- ------ -------- ----- --- ------ ----- --<br>----- ----- ---------- --- --- ------ became ---- -- ------<br>------- --- ------ ----- --- ---- ------- -- ---- --- --<br>------- ------,203750.70000004768,203749,203319.751,203323.10000014305,203336.424,203753.587,,39,became
screen,html.Screen,2_1_1_1_40,2022-04-27T12:50:01.282Z,,,,,,,,,,,,,,,,,54,,,,,,,,,,,,,,388.6130000476842,,response,,,,100,,,,,,,Space,keypress(Space),,,,,,,,-- --- ---- --- ------ ----- ------- ---- -- --- ------- --<br>------- ---------- ------ -- ----- -- ----- -- ---- ------<br>--- ----- --- --- ------ -------- ----- --- ------ ----- --<br>----- ----- ---------- --- --- ------ ------ wary -- ------<br>------- --- ------ ----- --- ---- ------- -- ---- --- --<br>------- ------,204143.70000004768,204142.20000004768,203736.929,203750.90000009537,203753.587,204153.954,,40,wary
screen,html.Screen,2_1_1_1_41,2022-04-27T12:50:01.595Z,,,,,,,,,,,,,,,,,54,,,,,,,,,,,,,,301.0460000000021,,response,,,,100,,,,,,,Space,keypress(Space),,,,,,,,-- --- ---- --- ------ ----- ------- ---- -- --- ------- --<br>------- ---------- ------ -- ----- -- ----- -- ---- ------<br>--- ----- --- --- ------ -------- ----- --- ------ ----- --<br>----- ----- ---------- --- --- ------ ------ ---- of ------<br>------- --- ------ ----- --- ---- ------- -- ---- --- --<br>------- ------,204456.90000009537,204455,204137.338,204143.90000009537,204153.954,204471.082,,41,of
screen,html.Screen,2_1_1_1_42,2022-04-27T12:50:01.821Z,,,,,,,,,,,,,,,,,54,,,,,,,,,,,,,,210.01800014305627,,response,,,,100,,,,,,,Space,keypress(Space),,,,,,,,-- --- ---- --- ------ ----- ------- ---- -- --- ------- --<br>------- ---------- ------ -- ----- -- ----- -- ---- ------<br>--- ----- --- --- ------ -------- ----- --- ------ ----- --<br>----- ----- ---------- --- --- ------ ------ ---- -- French<br>------- --- ------ ----- --- ---- ------- -- ---- --- --<br>------- ------,204682.60000014305,204681.10000014305,204454.383,204457,204471.082,204687.947,,42,French
screen,html.Screen,2_1_1_1_43,2022-04-27T12:50:02.249Z,,,,,,,,,,,,,,,,,54,,,,,,,,,,,,,,421.45300009538187,,response,,,,100,,,,,,,Space,keypress(Space),,,,,,,,-- --- ---- --- ------ ----- ------- ---- -- --- ------- --<br>------- ---------- ------ -- ----- -- ----- -- ---- ------<br>--- ----- --- --- ------ -------- ----- --- ------ ----- --<br>----- ----- ---------- --- --- ------ ------ ---- -- ------<br>credit. --- ------ ----- --- ---- ------- -- ---- --- --<br>------- ------,205111.20000004768,205109.40000009537,204671.345,204682.90000009537,204687.947,205121.682,,43,credit.
screen,html.Screen,2_1_1_1_44,2022-04-27T12:50:02.567Z,,,,,,,,,,,,,,,,,54,,,,,,,,,,,,,,305.41800014305045,,response,,,,100,,,,,,,Space,keypress(Space),,,,,,,,-- --- ---- --- ------ ----- ------- ---- -- --- ------- --<br>------- ---------- ------ -- ----- -- ----- -- ---- ------<br>--- ----- --- --- ------ -------- ----- --- ------ ----- --<br>----- ----- ---------- --- --- ------ ------ ---- -- ------<br>------- The ------ ----- --- ---- ------- -- ---- --- --<br>------- ------,205428.70000004768,205427.10000014305,205105.152,205111.5,205121.682,205438.82,,44,The
screen,html.Screen,2_1_1_1_45,2022-04-27T12:50:02.815Z,,,,,,,,,,,,,,,,,54,,,,,,,,,,,,,,236.08000009536045,,response,,,,100,,,,,,,Space,keypress(Space),,,,,,,,-- --- ---- --- ------ ----- ------- ---- -- --- ------- --<br>------- ---------- ------ -- ----- -- ----- -- ---- ------<br>--- ----- --- --- ------ -------- ----- --- ------ ----- --<br>----- ----- ---------- --- --- ------ ------ ---- -- ------<br>------- --- French ----- --- ---- ------- -- ---- --- --<br>------- ------,205676.70000004768,205674.90000009537,205422.164,205428.90000009537,205438.82,205689.079,,45,French
screen,html.Screen,2_1_1_1_46,2022-04-27T12:50:03.263Z,,,,,,,,,,,,,,,,,54,,,,,,,,,,,,,,433.8210000953695,,response,,,,100,,,,,,,Space,keypress(Space),,,,,,,,-- --- ---- --- ------ ----- ------- ---- -- --- ------- --<br>------- ---------- ------ -- ----- -- ----- -- ---- ------<br>--- ----- --- --- ------ -------- ----- --- ------ ----- --<br>----- ----- ---------- --- --- ------ ------ ---- -- ------<br>------- --- ------ state --- ---- ------- -- ---- --- --<br>------- ------,206124.5,206122.90000009537,205672.437,205676.90000009537,205689.079,206139.588,,46,state
screen,html.Screen,2_1_1_1_47,2022-04-27T12:50:03.666Z,,,,,,,,,,,,,,,,,54,,,,,,,,,,,,,,386.5120001430623,,response,,,,100,,,,,,,Space,keypress(Space),,,,,,,,-- --- ---- --- ------ ----- ------- ---- -- --- ------- --<br>------- ---------- ------ -- ----- -- ----- -- ---- ------<br>--- ----- --- --- ------ -------- ----- --- ------ ----- --<br>----- ----- ---------- --- --- ------ ------ ---- -- ------<br>------- --- ------ ----- was ---- ------- -- ---- --- --<br>------- ------,206527.60000014305,206526.10000014305,206122.974,206124.70000004768,206139.588,206539.998,,47,was
screen,html.Screen,2_1_1_1_48,2022-04-27T12:50:04.139Z,,,,,,,,,,,,,,,,,54,,,,,,,,,,,,,,459.60200014305883,,response,,,,100,,,,,,,Space,keypress(Space),,,,,,,,-- --- ---- --- ------ ----- ------- ---- -- --- ------- --<br>------- ---------- ------ -- ----- -- ----- -- ---- ------<br>--- ----- --- --- ------ -------- ----- --- ------ ----- --<br>----- ----- ---------- --- --- ------ ------ ---- -- ------<br>------- --- ------ ----- --- left ------- -- ---- --- --<br>------- ------,207001.10000014305,206999.60000014305,206523.296,206527.90000009537,206539.998,207007.182,,48,left
screen,html.Screen,2_1_1_1_49,2022-04-27T12:50:04.603Z,,,,,,,,,,,,,,,,,54,,,,,,,,,,,,,,455.8179999999993,,response,,,,100,,,,,,,Space,keypress(Space),,,,,,,,-- --- ---- --- ------ ----- ------- ---- -- --- ------- --<br>------- ---------- ------ -- ----- -- ----- -- ---- ------<br>--- ----- --- --- ------ -------- ----- --- ------ ----- --<br>----- ----- ---------- --- --- ------ ------ ---- -- ------<br>------- --- ------ ----- --- ---- without -- ---- --- --<br>------- ------,207464.5,207463,206990.558,207001.29999995232,207007.182,207474.276,,49,without
screen,html.Screen,2_1_1_1_50,2022-04-27T12:50:04.926Z,,,,,,,,,,,,,,,,,54,,,,,,,,,,,,,,312.12400009535486,,response,,,,100,,,,,,,Space,keypress(Space),,,,,,,,-- --- ---- --- ------ ----- ------- ---- -- --- ------- --<br>------- ---------- ------ -- ----- -- ----- -- ---- ------<br>--- ----- --- --- ------ -------- ----- --- ------ ----- --<br>----- ----- ---------- --- --- ------ ------ ---- -- ------<br>------- --- ------ ----- --- ---- ------- an ---- --- --<br>------- ------,207788,207786.40000009537,207457.661,207464.79999995232,207474.276,207791.361,,50,an
screen,html.Screen,2_1_1_1_51,2022-04-27T12:50:05.299Z,,,,,,,,,,,,,,,,,54,,,,,,,,,,,,,,368.039000095363,,response,,,,100,,,,,,,Space,keypress(Space),,,,,,,,-- --- ---- --- ------ ----- ------- ---- -- --- ------- --<br>------- ---------- ------ -- ----- -- ----- -- ---- ------<br>--- ----- --- --- ------ -------- ----- --- ------ ----- --<br>----- ----- ---------- --- --- ------ ------ ---- -- ------<br>------- --- ------ ----- --- ---- ------- -- easy --- --<br>------- ------,208161.10000014305,208159.40000009537,207774.79,207788.29999995232,207791.361,208175.061,,51,easy
screen,html.Screen,2_1_1_1_52,2022-04-27T12:50:05.653Z,,,,,,,,,,,,,,,,,54,,,,,,,,,,,,,,337.93900000001304,,response,,,,100,,,,,,,Space,keypress(Space),,,,,,,,-- --- ---- --- ------ ----- ------- ---- -- --- ------- --<br>------- ---------- ------ -- ----- -- ----- -- ---- ------<br>--- ----- --- --- ------ -------- ----- --- ------ ----- --<br>----- ----- ---------- --- --- ------ ------ ---- -- ------<br>------- --- ------ ----- --- ---- ------- -- ---- way --<br>------- ------,208514.60000014305,208513,208158.43,208161.29999995232,208175.061,208525.548,,52,way
screen,html.Screen,2_1_1_1_53,2022-04-27T12:50:06.152Z,,,,,,,,,,,,,,,,,54,,,,,,,,,,,,,,486.4519999999902,,response,,,,100,,,,,,,Space,keypress(Space),,,,,,,,-- --- ---- --- ------ ----- ------- ---- -- --- ------- --<br>------- ---------- ------ -- ----- -- ----- -- ---- ------<br>--- ----- --- --- ------ -------- ----- --- ------ ----- --<br>----- ----- ---------- --- --- ------ ------ ---- -- ------<br>------- --- ------ ----- --- ---- ------- -- ---- --- of<br>------- ------,209013.70000004768,209012,208508.847,208514.90000009537,208525.548,209026.119,,53,of
screen,html.Screen,2_1_1_1_54,2022-04-27T12:50:06.546Z,,,,,,,,,,,,,,,,,54,,,,,,,,,,,,,,380.08100004767766,,response,,,,100,,,,,,,Space,keypress(Space),,,,,,,,-- --- ---- --- ------ ----- ------- ---- -- --- ------- --<br>------- ---------- ------ -- ----- -- ----- -- ---- ------<br>--- ----- --- --- ------ -------- ----- --- ------ ----- --<br>----- ----- ---------- --- --- ------ ------ ---- -- ------<br>------- --- ------ ----- --- ---- ------- -- ---- --- --<br>raising ------,209407.79999995232,209406.20000004768,209009.445,209013.90000009537,209026.119,209409.798,,54,raising
screen,html.Screen,2_1_1_1_55,2022-04-27T12:50:07.030Z,,,,,,,,,,,,,,,,,54,,,,,,,,,,,,,,480.5019999523065,,response,,,,100,,,,,,,Space,keypress(Space),,,,,,,,-- --- ---- --- ------ ----- ------- ---- -- --- ------- --<br>------- ---------- ------ -- ----- -- ----- -- ---- ------<br>--- ----- --- --- ------ -------- ----- --- ------ ----- --<br>----- ----- ---------- --- --- ------ ------ ---- -- ------<br>------- --- ------ ----- --- ---- ------- -- ---- --- --<br>------- money.,209891.90000009537,209890.29999995232,209393.196,209408,209409.798,209924.334,,55,money.
Item 100,flow.Loop,2_1_1_1,2022-04-27T12:50:07.030Z,,,,,,,,,,,,,,,,,,,,,,,,,,,,,,,20235.534999952302,,completion,,,,,C,,,,,,,,,,,silence,,,,,209892.29999995232,209890.29999995232,189638.15,189639.5,189654.765,209924.334,,,
Question 1,html.Screen,2_1_1_2,2022-04-27T12:50:10.854Z,,,,,,,,,,,,,,,,,,,,,,,,,,,,true,TRUE,,3788.9659999523137,,response,,,,100,C,,,,,,TRUE,click #choice-1,,,,silence,,,,,213716.29999995232,213713.29999995232,209877.064,209892.40000009537,209924.334,213731.678,,,
Question 2,html.Screen,2_1_1_3,2022-04-27T12:50:13.646Z,,,,,,,,,,,,,,,,,,,,,,,,,,,,true,FALSE,,2773.8219999999856,,response,,,,100,C,,,,,,FALSE,click #choice-2,,,,silence,,,,,216507.70000004768,216505.5,213714.619,213716.5,213731.678,216518.362,,,
Item 100,flow.Sequence,2_1_1,2022-04-27T12:50:13.646Z,,,,,,,,,,,,,,,,,,,,,,,,,,,,,,,36845.09299999999,,completion,,,,,,,,,,,,,,,,,,,,,216508,216505.5,179643.724,179652.90000009537,179660.407,216518.362,,,
End of Practice,html.Page,2_1_2,2022-04-27T12:50:18.266Z,,,,,,,,,,,,,,,,,,,,,,,,,,,,,,,4609.138000000006,,form submission,,,,,,,,,,,,,,,,,,,,,221128.20000004768,221127.5,216501.019,216508.10000014305,216518.362,221140.176,,,
Practice,flow.Sequence,2_1,2022-04-27T12:50:18.267Z,,,,,,,,,,,,,,,,,,,,,,,,,,,,,,,84481.057,,completion,,,,,,,,,,,,,,,,,,,,,221128.60000014305,221127.5,136629.74,136638.40000009537,136646.443,221140.176,,,
Trap_instruction,html.Page,2_2_0,2022-04-27T12:50:24.346Z,,,,,,,,,,,,,,,,,,,,,,,,,,,,,,,6066.924000143044,,form submission,,,,,,,,,,,,,,,,,,,,,227207.70000004768,227207.10000014305,221122.683,221128.79999995232,221140.176,227262.777,,,
trap_trial,html.Screen,2_2_1,2022-04-27T12:50:30.329Z,,,,,,,,,,,,,,,,,,,,,,,,,,,,true,1,,5926.222999999998,,response,,,,,,,,,,,1,click #choice-1,,,,,,,,,233191.29999995232,233189,227196.029,227208,227262.777,233202.645,,,
end of trap trial,html.Page,2_2_2,2022-04-27T12:50:32.887Z,,,,,,,,,,,,,,,,,,,,,,,,,,,,,,,2545.8550000000105,,form submission,,,,,,,,,,,,,,,,,,,,,235749.10000014305,235748.5,233186.057,233191.5,233202.645,235755.458,,,
Trap 1,flow.Sequence,2_2,2022-04-27T12:50:32.888Z,,,,,,,,,,,,,,,,,,,,,,,,,,,,,,,14608.323999999993,,completion,,,,,,,,,,,,,,,,,,,,,235749.5,235748.5,221122.683,221128.70000004768,221140.176,235755.458,,,
Standby,html.Page,2_3_0,2022-04-27T12:50:40.870Z,,,,,,,,,,,,,,,,,,,,,,,,,,,,,,,7992.691999999981,,timeout,,,,,,,,,,,,,,,,,,,,,243732.29999995232,243730.901,235738.765,235749.70000004768,235755.458,243748.15,,,
Holding screen,html.Screen,2_3_1_0_0,2022-04-27T12:50:47.882Z,,,,,,,,,,,,,,,,,,,,,,,,,,,,,,,7007.135999999999,,timeout,,,,,,,,,,,,,,,,,,,,,250744.90000009537,250738.605,243730.901,243732.70000004768,243748.15,250755.286,,,
screen,html.Screen,2_3_1_0_1_0,2022-04-27T12:50:48.751Z,,,,,,,,,,,,,,,,,51,,,,,,,,,,,,,,856.5139999523235,,response,,,,13,C,,,,,,Space,keypress(Space),,,,instrumental,,,,American -------- --- --- ---- --- --- ------ -- --------<br>---- --------- --- ------- ------------ ---------- ---------<br>--- ---------- ------- ---------- ------- -- -------- ----<br>---- --- ------ ----- ------ -- ---- --- ----- -- - -------<br>-------- -- --- --- -- ----- ----------- ----- -----------<br>---- --- ---------- --- ---- --- -- ----------,251613.70000004768,251611.79999995232,250738.605,250745.20000004768,250755.286,251622.908,,0,American
screen,html.Screen,2_3_1_0_1_1,2022-04-27T12:50:49.239Z,,,,,,,,,,,,,,,,,51,,,,,,,,,,,,,,476.8919999523205,,response,,,,13,C,,,,,,Space,keypress(Space),,,,instrumental,,,,-------- industry --- --- ---- --- --- ------ -- --------<br>---- --------- --- ------- ------------ ---------- ---------<br>--- ---------- ------- ---------- ------- -- -------- ----<br>---- --- ------ ----- ------ -- ---- --- ----- -- - -------<br>-------- -- --- --- -- ----- ----------- ----- -----------<br>---- --- ---------- --- ---- --- -- ----------,252101.29999995232,252099.79999995232,251606.282,251613.90000009537,251622.908,252106.765,,1,industry
screen,html.Screen,2_3_1_0_1_2,2022-04-27T12:50:49.794Z,,,,,,,,,,,,,,,,,51,,,,,,,,,,,,,,547.3350001430372,,response,,,,13,C,,,,,,Space,keypress(Space),,,,instrumental,,,,-------- -------- may --- ---- --- --- ------ -- --------<br>---- --------- --- ------- ------------ ---------- ---------<br>--- ---------- ------- ---------- ------- -- -------- ----<br>---- --- ------ ----- ------ -- ---- --- ----- -- - -------<br>-------- -- --- --- -- ----- ----------- ----- -----------<br>---- --- ---------- --- ---- --- -- ----------,252656.10000014305,252654.10000014305,252090.085,252101.5,252106.765,252690.691,,2,may
screen,html.Screen,2_3_1_0_1_3,2022-04-27T12:50:50.232Z,,,,,,,,,,,,,,,,,51,,,,,,,,,,,,,,401.90900014305953,,response,,,,13,C,,,,,,Space,keypress(Space),,,,instrumental,,,,-------- -------- --- not ---- --- --- ------ -- --------<br>---- --------- --- ------- ------------ ---------- ---------<br>--- ---------- ------- ---------- ------- -- -------- ----<br>---- --- ------ ----- ------ -- ---- --- ----- -- - -------<br>-------- -- --- --- -- ----- ----------- ----- -----------<br>---- --- ---------- --- ---- --- -- ----------,253094.10000014305,253092.60000014305,252680.037,252656.40000009537,252690.691,253107.979,,3,not
screen,html.Screen,2_3_1_0_1_4,2022-04-27T12:50:50.836Z,,,,,,,,,,,,,,,,,51,,,,,,,,,,,,,,588.8209999523242,,response,,,,13,C,,,,,,Space,keypress(Space),,,,instrumental,,,,-------- -------- --- --- know --- --- ------ -- --------<br>---- --------- --- ------- ------------ ---------- ---------<br>--- ---------- ------- ---------- ------- -- -------- ----<br>---- --- ------ ----- ------ -- ---- --- ----- -- - -------<br>-------- -- --- --- -- ----- ----------- ----- -----------<br>---- --- ---------- --- ---- --- -- ----------,253698.70000004768,253696.79999995232,253091.252,253094.29999995232,253107.979,253708.54,,4,know
screen,html.Screen,2_3_1_0_1_5,2022-04-27T12:50:51.325Z,,,,,,,,,,,,,,,,,51,,,,,,,,,,,,,,477.060000143043,,response,,,,13,C,,,,,,Space,keypress(Space),,,,instrumental,,,,"-------- -------- --- --- ---- it, --- ------ -- --------<br>---- --------- --- ------- ------------ ---------- ---------<br>--- ---------- ------- ---------- ------- -- -------- ----<br>---- --- ------ ----- ------ -- ---- --- ----- -- - -------<br>-------- -- --- --- -- ----- ----------- ----- -----------<br>---- --- ---------- --- ---- --- -- ----------",254187.29999995232,254185.60000014305,253691.917,253698.90000009537,253708.54,254192.395,,5,"it,"
screen,html.Screen,2_3_1_0_1_6,2022-04-27T12:50:52.206Z,,,,,,,,,,,,,,,,,51,,,,,,,,,,,,,,874.8050000476942,,response,,,,13,C,,,,,,Space,keypress(Space),,,,instrumental,,,,-------- -------- --- --- ---- --- but ------ -- --------<br>---- --------- --- ------- ------------ ---------- ---------<br>--- ---------- ------- ---------- ------- -- -------- ----<br>---- --- ------ ----- ------ -- ---- --- ----- -- - -------<br>-------- -- --- --- -- ----- ----------- ----- -----------<br>---- --- ---------- --- ---- --- -- ----------,255068.60000014305,255067.20000004768,254175.78,254187.60000014305,254192.395,255076.712,,6,but
screen,html.Screen,2_3_1_0_1_7,2022-04-27T12:50:52.689Z,,,,,,,,,,,,,,,,,51,,,,,,,,,,,,,,473.3880001430516,,response,,,,13,C,,,,,,Space,keypress(Space),,,,instrumental,,,,-------- -------- --- --- ---- --- --- debate -- --------<br>---- --------- --- ------- ------------ ---------- ---------<br>--- ---------- ------- ---------- ------- -- -------- ----<br>---- --- ------ ----- ------ -- ---- --- ----- -- - -------<br>-------- -- --- --- -- ----- ----------- ----- -----------<br>---- --- ---------- --- ---- --- -- ----------,255551.60000014305,255550.10000014305,255060.081,255068.79999995232,255076.712,255560.582,,7,debate
screen,html.Screen,2_3_1_0_1_8,2022-04-27T12:50:53.164Z,,,,,,,,,,,,,,,,,51,,,,,,,,,,,,,,464.01800014305627,,response,,,,13,C,,,,,,Space,keypress(Space),,,,instrumental,,,,-------- -------- --- --- ---- --- --- ------ in --------<br>---- --------- --- ------- ------------ ---------- ---------<br>--- ---------- ------- ---------- ------- -- -------- ----<br>---- --- ------ ----- ------ -- ---- --- ----- -- - -------<br>-------- -- --- --- -- ----- ----------- ----- -----------<br>---- --- ---------- --- ---- --- -- ----------,256026.10000014305,256024.60000014305,255543.893,255551.90000009537,255560.582,256044.54,,8,in
screen,html.Screen,2_3_1_0_1_9,2022-04-27T12:50:53.869Z,,,,,,,,,,,,,,,,,51,,,,,,,,,,,,,,685.1600000476756,,response,,,,13,C,,,,,,Space,keypress(Space),,,,instrumental,,,,-------- -------- --- --- ---- --- --- ------ -- Congress<br>---- --------- --- ------- ------------ ---------- ---------<br>--- ---------- ------- ---------- ------- -- -------- ----<br>---- --- ------ ----- ------ -- ---- --- ----- -- - -------<br>-------- -- --- --- -- ----- ----------- ----- -----------<br>---- --- ---------- --- ---- --- -- ----------,256731.40000009537,256729.70000004768,256027.815,256027.79999995232,256044.54,256745.308,,9,Congress
screen,html.Screen,2_3_1_0_1_10,2022-04-27T12:50:54.568Z,,,,,,,,,,,,,,,,,51,,,,,,,,,,,,,,683.2920001430612,,response,,,,13,C,,,,,,Space,keypress(Space),,,,instrumental,,,,-------- -------- --- --- ---- --- --- ------ -- --------<br>over --------- --- ------- ------------ ---------- ---------<br>--- ---------- ------- ---------- ------- -- -------- ----<br>---- --- ------ ----- ------ -- ---- --- ----- -- - -------<br>-------- -- --- --- -- ----- ----------- ----- -----------<br>---- --- ---------- --- ---- --- -- ----------,257430.20000004768,257428.60000014305,256728.594,256731.5,256745.308,257446.101,,10,over
screen,html.Screen,2_3_1_0_1_11,2022-04-27T12:50:54.981Z,,,,,,,,,,,,,,,,,51,,,,,,,,,,,,,,395.7990000953723,,response,,,,13,C,,,,,,Space,keypress(Space),,,,instrumental,,,,-------- -------- --- --- ---- --- --- ------ -- --------<br>---- reforming --- ------- ------------ ---------- ---------<br>--- ---------- ------- ---------- ------- -- -------- ----<br>---- --- ------ ----- ------ -- ---- --- ----- -- - -------<br>-------- -- --- --- -- ----- ----------- ----- -----------<br>---- --- ---------- --- ---- --- -- ----------,257843.60000014305,257841.90000009537,257429.36,257430.5,257446.101,257846.412,,11,reforming
screen,html.Screen,2_3_1_0_1_12,2022-04-27T12:50:55.330Z,,,,,,,,,,,,,,,,,51,,,,,,,,,,,,,,343.8879999523051,,response,,,,13,C,,,,,,Space,keypress(Space),,,,instrumental,,,,-------- -------- --- --- ---- --- --- ------ -- --------<br>---- --------- the ------- ------------ ---------- ---------<br>--- ---------- ------- ---------- ------- -- -------- ----<br>---- --- ------ ----- ------ -- ---- --- ----- -- - -------<br>-------- -- --- --- -- ----- ----------- ----- -----------<br>---- --- ---------- --- ---- --- -- ----------,258191.90000009537,258190.29999995232,257829.734,257843.90000009537,257846.412,258196.8,,12,the
screen,html.Screen,2_3_1_0_1_13,2022-04-27T12:50:55.687Z,,,,,,,,,,,,,,,,,51,,,,,,,,,,,,,,351.1000000953791,,response,,,,13,C,,,,,,Space,keypress(Space),,,,instrumental,,,,-------- -------- --- --- ---- --- --- ------ -- --------<br>---- --------- --- federal ------------ ---------- ---------<br>--- ---------- ------- ---------- ------- -- -------- ----<br>---- --- ------ ----- ------ -- ---- --- ----- -- - -------<br>-------- -- --- --- -- ----- ----------- ----- -----------<br>---- --- ---------- --- ---- --- -- ----------,258549.5,258547.90000009537,258180.142,258192.10000014305,258196.8,258563.907,,13,federal
screen,html.Screen,2_3_1_0_1_14,2022-04-27T12:50:56.155Z,,,,,,,,,,,,,,,,,51,,,,,,,,,,,,,,451.6930001430446,,response,,,,13,C,,,,,,Space,keypress(Space),,,,instrumental,,,,-------- -------- --- --- ---- --- --- ------ -- --------<br>---- --------- --- ------- government's ---------- ---------<br>--- ---------- ------- ---------- ------- -- -------- ----<br>---- --- ------ ----- ------ -- ---- --- ----- -- - -------<br>-------- -- --- --- -- ----- ----------- ----- -----------<br>---- --- ---------- --- ---- --- -- ----------,259017.79999995232,259015.60000014305,258547.197,258549.70000004768,258563.907,259031.04,,14,government's
screen,html.Screen,2_3_1_0_1_15,2022-04-27T12:50:56.624Z,,,,,,,,,,,,,,,,,51,,,,,,,,,,,,,,453.060000143043,,response,,,,13,C,,,,,,Space,keypress(Space),,,,instrumental,,,,-------- -------- --- --- ---- --- --- ------ -- --------<br>---- --------- --- ------- ------------ regulatory ---------<br>--- ---------- ------- ---------- ------- -- -------- ----<br>---- --- ------ ----- ------ -- ---- --- ----- -- - -------<br>-------- -- --- --- -- ----- ----------- ----- -----------<br>---- --- ---------- --- ---- --- -- ----------,259486.10000014305,259484.10000014305,259014.438,259018,259031.04,259498.177,,15,regulatory
screen,html.Screen,2_3_1_0_1_16,2022-04-27T12:50:57.112Z,,,,,,,,,,,,,,,,,51,,,,,,,,,,,,,,474.7230000953714,,response,,,,13,C,,,,,,Space,keypress(Space),,,,instrumental,,,,-------- -------- --- --- ---- --- --- ------ -- --------<br>---- --------- --- ------- ------------ ---------- apparatus<br>--- ---------- ------- ---------- ------- -- -------- ----<br>---- --- ------ ----- ------ -- ---- --- ----- -- - -------<br>-------- -- --- --- -- ----- ----------- ----- -----------<br>---- --- ---------- --- ---- --- -- ----------,259974.40000009537,259972.90000009537,259481.618,259486.40000009537,259498.177,259982.098,,16,apparatus
screen,html.Screen,2_3_1_0_1_17,2022-04-27T12:50:57.661Z,,,,,,,,,,,,,,,,,51,,,,,,,,,,,,,,539.7019999523181,,response,,,,13,C,,,,,,Space,keypress(Space),,,,instrumental,,,,-------- -------- --- --- ---- --- --- ------ -- --------<br>---- --------- --- ------- ------------ ---------- ---------<br>may ---------- ------- ---------- ------- -- -------- ----<br>---- --- ------ ----- ------ -- ---- --- ----- -- - -------<br>-------- -- --- --- -- ----- ----------- ----- -----------<br>---- --- ---------- --- ---- --- -- ----------,260523.60000014305,260521.79999995232,259965.475,259974.60000014305,259982.098,260532.809,,17,may
screen,html.Screen,2_3_1_0_1_18,2022-04-27T12:50:58.004Z,,,,,,,,,,,,,,,,,51,,,,,,,,,,,,,,331.9909999523079,,response,,,,13,C,,,,,,Space,keypress(Space),,,,instrumental,,,,-------- -------- --- --- ---- --- --- ------ -- --------<br>---- --------- --- ------- ------------ ---------- ---------<br>--- profoundly ------- ---------- ------- -- -------- ----<br>---- --- ------ ----- ------ -- ---- --- ----- -- - -------<br>-------- -- --- --- -- ----- ----------- ----- -----------<br>---- --- ---------- --- ---- --- -- ----------,260866.79999995232,260864.79999995232,260516.096,260523.79999995232,260532.809,260883.122,,18,profoundly
screen,html.Screen,2_3_1_0_1_19,2022-04-27T12:50:58.976Z,,,,,,,,,,,,,,,,,51,,,,,,,,,,,,,,953.877999999997,,response,,,,13,C,,,,,,Space,keypress(Space),,,,instrumental,,,,-------- -------- --- --- ---- --- --- ------ -- --------<br>---- --------- --- ------- ------------ ---------- ---------<br>--- ---------- improve ---------- ------- -- -------- ----<br>---- --- ------ ----- ------ -- ---- --- ----- -- - -------<br>-------- -- --- --- -- ----- ----------- ----- -----------<br>---- --- ---------- --- ---- --- -- ----------,261838.79999995232,261837,260866.423,260867,260883.122,261850.804,,19,improve
screen,html.Screen,2_3_1_0_1_20,2022-04-27T12:50:59.385Z,,,,,,,,,,,,,,,,,51,,,,,,,,,,,,,,393.6959999999963,,response,,,,13,C,,,,,,Space,keypress(Space),,,,instrumental,,,,-------- -------- --- --- ---- --- --- ------ -- --------<br>---- --------- --- ------- ------------ ---------- ---------<br>--- ---------- ------- companies' ------- -- -------- ----<br>---- --- ------ ----- ------ -- ---- --- ----- -- - -------<br>-------- -- --- --- -- ----- ----------- ----- -----------<br>---- --- ---------- --- ---- --- -- ----------,262247.10000014305,262244.5,261834.2,261839,261850.804,262251.272,,20,companies'
screen,html.Screen,2_3_1_0_1_21,2022-04-27T12:50:59.843Z,,,,,,,,,,,,,,,,,51,,,,,,,,,,,,,,452.4280000476865,,response,,,,13,C,,,,,,Space,keypress(Space),,,,instrumental,,,,-------- -------- --- --- ---- --- --- ------ -- --------<br>---- --------- --- ------- ------------ ---------- ---------<br>--- ---------- ------- ---------- ability -- -------- ----<br>---- --- ------ ----- ------ -- ---- --- ----- -- - -------<br>-------- -- --- --- -- ----- ----------- ----- -----------<br>---- --- ---------- --- ---- --- -- ----------,262705.7999999523,262703.7000000477,262234.571,262247.2999999523,262251.272,262718.418,,21,ability
screen,html.Screen,2_3_1_0_1_22,2022-04-27T12:51:00.146Z,,,,,,,,,,,,,,,,,51,,,,,,,,,,,,,,288.38199995231116,,response,,,,13,C,,,,,,Space,keypress(Space),,,,instrumental,,,,-------- -------- --- --- ---- --- --- ------ -- --------<br>---- --------- --- ------- ------------ ---------- ---------<br>--- ---------- ------- ---------- ------- to -------- ----<br>---- --- ------ ----- ------ -- ---- --- ----- -- - -------<br>-------- -- --- --- -- ----- ----------- ----- -----------<br>---- --- ---------- --- ---- --- -- ----------,263008.2999999523,263006.7999999523,262701.828,262706.2999999523,262718.418,263018.836,,22,to
screen,html.Screen,2_3_1_0_1_23,2022-04-27T12:51:00.408Z,,,,,,,,,,,,,,,,,51,,,,,,,,,,,,,,250.0640000953572,,response,,,,13,C,,,,,,Space,keypress(Space),,,,instrumental,,,,-------- -------- --- --- ---- --- --- ------ -- --------<br>---- --------- --- ------- ------------ ---------- ---------<br>--- ---------- ------- ---------- ------- -- survive. ----<br>---- --- ------ ----- ------ -- ---- --- ----- -- - -------<br>-------- -- --- --- -- ----- ----------- ----- -----------<br>---- --- ---------- --- ---- --- -- ----------,263270.40000009537,263268.90000009537,263002.16,263008.60000014305,263018.836,263285.738,,23,survive.
screen,html.Screen,2_3_1_0_1_24,2022-04-27T12:51:01.208Z,,,,,,,,,,,,,,,,,51,,,,,,,,,,,,,,783.4620000476716,,response,,,,13,C,,,,,,Space,keypress(Space),,,,instrumental,,,,-------- -------- --- --- ---- --- --- ------ -- --------<br>---- --------- --- ------- ------------ ---------- ---------<br>--- ---------- ------- ---------- ------- -- -------- This<br>---- --- ------ ----- ------ -- ---- --- ----- -- - -------<br>-------- -- --- --- -- ----- ----------- ----- -----------<br>---- --- ---------- --- ---- --- -- ----------,264070.7000000477,264069.2000000477,263269.068,263270.60000014305,263285.738,264086.585,,24,This
screen,html.Screen,2_3_1_0_1_25,2022-04-27T12:51:01.642Z,,,,,,,,,,,,,,,,,51,,,,,,,,,,,,,,416.41499999997905,,response,,,,13,C,,,,,,Space,keypress(Space),,,,instrumental,,,,-------- -------- --- --- ---- --- --- ------ -- --------<br>---- --------- --- ------- ------------ ---------- ---------<br>--- ---------- ------- ---------- ------- -- -------- ----<br>week --- ------ ----- ------ -- ---- --- ----- -- - -------<br>-------- -- --- --- -- ----- ----------- ----- -----------<br>---- --- ---------- --- ---- --- -- ----------,264504.90000009537,264503,264069.942,264071,264086.585,264520.37,,25,week
screen,html.Screen,2_3_1_0_1_26,2022-04-27T12:51:01.965Z,,,,,,,,,,,,,,,,,51,,,,,,,,,,,,,,304.92999995232094,,response,,,,13,C,,,,,,Space,keypress(Space),,,,instrumental,,,,-------- -------- --- --- ---- --- --- ------ -- --------<br>---- --------- --- ------- ------------ ---------- ---------<br>--- ---------- ------- ---------- ------- -- -------- ----<br>---- the ------ ----- ------ -- ---- --- ----- -- - -------<br>-------- -- --- --- -- ----- ----------- ----- -----------<br>---- --- ---------- --- ---- --- -- ----------,264827.2000000477,264825.2999999523,264503.803,264505.10000014305,264520.37,264837.447,,26,the
screen,html.Screen,2_3_1_0_1_27,2022-04-27T12:51:02.234Z,,,,,,,,,,,,,,,,,51,,,,,,,,,,,,,,256.75300004769815,,response,,,,13,C,,,,,,Space,keypress(Space),,,,instrumental,,,,-------- -------- --- --- ---- --- --- ------ -- --------<br>---- --------- --- ------- ------------ ---------- ---------<br>--- ---------- ------- ---------- ------- -- -------- ----<br>---- --- Senate ----- ------ -- ---- --- ----- -- - -------<br>-------- -- --- --- -- ----- ----------- ----- -----------<br>---- --- ---------- --- ---- --- -- ----------,265096.2999999523,265094.2000000477,264820.749,264827.40000009537,264837.447,265104.417,,27,Senate
screen,html.Screen,2_3_1_0_1_28,2022-04-27T12:51:02.651Z,,,,,,,,,,,,,,,,,51,,,,,,,,,,,,,,407.6830001430353,,response,,,,13,C,,,,,,Space,keypress(Space),,,,instrumental,,,,-------- -------- --- --- ---- --- --- ------ -- --------<br>---- --------- --- ------- ------------ ---------- ---------<br>--- ---------- ------- ---------- ------- -- -------- ----<br>---- --- ------ seems ------ -- ---- --- ----- -- - -------<br>-------- -- --- --- -- ----- ----------- ----- -----------<br>---- --- ---------- --- ---- --- -- ----------,265513.7000000477,265512.10000014305,265087.723,265096.5,265104.417,265521.549,,28,seems
screen,html.Screen,2_3_1_0_1_29,2022-04-27T12:51:03.045Z,,,,,,,,,,,,,,,,,51,,,,,,,,,,,,,,383.65100004768465,,response,,,,13,C,,,,,,Space,keypress(Space),,,,instrumental,,,,-------- -------- --- --- ---- --- --- ------ -- --------<br>---- --------- --- ------- ------------ ---------- ---------<br>--- ---------- ------- ---------- ------- -- -------- ----<br>---- --- ------ ----- poised -- ---- --- ----- -- - -------<br>-------- -- --- --- -- ----- ----------- ----- -----------<br>---- --- ---------- --- ---- --- -- ----------,265907.2000000477,265905.2000000477,265504.846,265514,265521.549,265921.995,,29,poised
screen,html.Screen,2_3_1_0_1_30,2022-04-27T12:51:03.402Z,,,,,,,,,,,,,,,,,51,,,,,,,,,,,,,,341.2050000476884,,response,,,,13,C,,,,,,Space,keypress(Space),,,,instrumental,,,,-------- -------- --- --- ---- --- --- ------ -- --------<br>---- --------- --- ------- ------------ ---------- ---------<br>--- ---------- ------- ---------- ------- -- -------- ----<br>---- --- ------ ----- ------ to ---- --- ----- -- - -------<br>-------- -- --- --- -- ----- ----------- ----- -----------<br>---- --- ---------- --- ---- --- -- ----------,266264.7999999523,266263.2000000477,265905.297,265907.40000009537,265921.995,266272.352,,30,to
screen,html.Screen,2_3_1_0_1_31,2022-04-27T12:51:03.781Z,,,,,,,,,,,,,,,,,51,,,,,,,,,,,,,,368.9479999523028,,response,,,,13,C,,,,,,Space,keypress(Space),,,,instrumental,,,,-------- -------- --- --- ---- --- --- ------ -- --------<br>---- --------- --- ------- ------------ ---------- ---------<br>--- ---------- ------- ---------- ------- -- -------- ----<br>---- --- ------ ----- ------ -- join --- ----- -- - -------<br>-------- -- --- --- -- ----- ----------- ----- -----------<br>---- --- ---------- --- ---- --- -- ----------,266642.90000009537,266641.2999999523,266255.669,266265,266272.352,266656.101,,31,join
screen,html.Screen,2_3_1_0_1_32,2022-04-27T12:51:04.038Z,,,,,,,,,,,,,,,,,51,,,,,,,,,,,,,,242.69899995229207,,response,,,,13,C,,,,,,Space,keypress(Space),,,,instrumental,,,,-------- -------- --- --- ---- --- --- ------ -- --------<br>---- --------- --- ------- ------------ ---------- ---------<br>--- ---------- ------- ---------- ------- -- -------- ----<br>---- --- ------ ----- ------ -- ---- the ----- -- - -------<br>-------- -- --- --- -- ----- ----------- ----- -----------<br>---- --- ---------- --- ---- --- -- ----------,266900.40000009537,266898.7999999523,266639.417,266643.10000014305,266656.101,266906.364,,32,the
screen,html.Screen,2_3_1_0_1_33,2022-04-27T12:51:04.276Z,,,,,,,,,,,,,,,,,51,,,,,,,,,,,,,,229.9359999523149,,response,,,,13,C,,,,,,Space,keypress(Space),,,,instrumental,,,,-------- -------- --- --- ---- --- --- ------ -- --------<br>---- --------- --- ------- ------------ ---------- ---------<br>--- ---------- ------- ---------- ------- -- -------- ----<br>---- --- ------ ----- ------ -- ---- --- House -- - -------<br>-------- -- --- --- -- ----- ----------- ----- -----------<br>---- --- ---------- --- ---- --- -- ----------,267138.2000000477,267136.2999999523,266889.702,266900.60000014305,266906.364,267139.962,,33,House
screen,html.Screen,2_3_1_0_1_34,2022-04-27T12:51:04.548Z,,,,,,,,,,,,,,,,,51,,,,,,,,,,,,,,268.53800000000047,,response,,,,13,C,,,,,,Space,keypress(Space),,,,instrumental,,,,-------- -------- --- --- ---- --- --- ------ -- --------<br>---- --------- --- ------- ------------ ---------- ---------<br>--- ---------- ------- ---------- ------- -- -------- ----<br>---- --- ------ ----- ------ -- ---- --- ----- in - -------<br>-------- -- --- --- -- ----- ----------- ----- -----------<br>---- --- ---------- --- ---- --- -- ----------,267410.2000000477,267408.5,267123.321,267138.40000009537,267139.962,267423.561,,34,in
screen,html.Screen,2_3_1_0_1_35,2022-04-27T12:51:04.830Z,,,,,,,,,,,,,,,,,51,,,,,,,,,,,,,,267.43900000001304,,response,,,,13,C,,,,,,Space,keypress(Space),,,,instrumental,,,,-------- -------- --- --- ---- --- --- ------ -- --------<br>---- --------- --- ------- ------------ ---------- ---------<br>--- ---------- ------- ---------- ------- -- -------- ----<br>---- --- ------ ----- ------ -- ---- --- ----- -- a -------<br>-------- -- --- --- -- ----- ----------- ----- -----------<br>---- --- ---------- --- ---- --- -- ----------,267692.7999999523,267691,267406.923,267410.40000009537,267423.561,267707.281,,35,a
screen,html.Screen,2_3_1_0_1_36,2022-04-27T12:51:05.083Z,,,,,,,,,,,,,,,,,51,,,,,,,,,,,,,,236.01899995229905,,response,,,,13,C,,,,,,Space,keypress(Space),,,,instrumental,,,,-------- -------- --- --- ---- --- --- ------ -- --------<br>---- --------- --- ------- ------------ ---------- ---------<br>--- ---------- ------- ---------- ------- -- -------- ----<br>---- --- ------ ----- ------ -- ---- --- ----- -- - massive<br>-------- -- --- --- -- ----- ----------- ----- -----------<br>---- --- ---------- --- ---- --- -- ----------,267945,267943.2999999523,267690.58,267692.90000009537,267707.281,267957.484,,36,massive
screen,html.Screen,2_3_1_0_1_37,2022-04-27T12:51:05.668Z,,,,,,,,,,,,,,,,,51,,,,,,,,,,,,,,571.1160001430544,,response,,,,13,C,,,,,,Space,keypress(Space),,,,instrumental,,,,-------- -------- --- --- ---- --- --- ------ -- --------<br>---- --------- --- ------- ------------ ---------- ---------<br>--- ---------- ------- ---------- ------- -- -------- ----<br>---- --- ------ ----- ------ -- ---- --- ----- -- - -------<br>overhaul -- --- --- -- ----- ----------- ----- -----------<br>---- --- ---------- --- ---- --- -- ----------,268530.40000009537,268528.60000014305,267940.86,267945.10000014305,267957.484,268541.489,,37,overhaul
screen,html.Screen,2_3_1_0_1_38,2022-04-27T12:51:05.966Z,,,,,,,,,,,,,,,,,51,,,,,,,,,,,,,,285.2110000476823,,response,,,,13,C,,,,,,Space,keypress(Space),,,,instrumental,,,,-------- -------- --- --- ---- --- --- ------ -- --------<br>---- --------- --- ------- ------------ ---------- ---------<br>--- ---------- ------- ---------- ------- -- -------- ----<br>---- --- ------ ----- ------ -- ---- --- ----- -- - -------<br>-------- of --- --- -- ----- ----------- ----- -----------<br>---- --- ---------- --- ---- --- -- ----------,268828.2999999523,268826.7000000477,268524.831,268530.60000014305,268541.489,268842.213,,38,of
