sender,sender_type,sender_id,timestamp,meta,,Blues,Classical,Country,Dance,Electronic,Folk,Gospel,Hip-Hop,Jazz,Latin,Musical/Film,New-age,Pop,Prolific_id,Provo_ID,R&B,Rap,Reggae,Religious,Rock,Soul,Swing,Traditional,age,artist_name,correct,correctResponse,distraction,duration,education,ended_on,familiarity,gender,headphone_check_performance,item,list,music_frequency,offensiveness,pleasantness,position_correct,preference,response,response_action,snippet_file,song_name,song_rating,sound,stimulus_1,stimulus_2,stimulus_3,text,time_commit,time_end,time_render,time_run,time_show,time_switch,url,word,word_ID
Prolific ID,html.Form,0,2022-04-28T11:16:52.498Z,"{""labjs_version"":""20.2.2"",""labjs_build"":{""flavor"":""production"",""commit"":""a25486e0c714a0ae2ce03ff94b7bb6896854dcfa""},""location"":""https://run.pavlovia.org/mvasilev/prolific3_music_d/"",""userAgent"":""Mozilla/5.0 (Macintosh; Intel Mac OS X 10_15_7) AppleWebKit/537.36 (KHTML, like Gecko) Chrome/100.0.4896.127 Safari/537.36"",""platform"":""MacIntel"",""language"":""en-US"",""locale"":""en-GB"",""timeZone"":""Europe/London"",""timezoneOffset"":-60,""screen_width"":1440,""screen_height"":900,""scroll_width"":1438,""scroll_height"":595,""window_innerWidth"":1438,""window_innerHeight"":643,""devicePixelRatio"":2}",,,,,,,,,,,,,,,5d5ea47446297800172e9ae7,,,,,,,,,,,,,,,4924.978000047684,,form submission,,,,,,,,,,,,,,,,,,,,,14591,14590.700000047684,9649.056,9664.200000047684,9665.722,14616.299,{},,
Introduction,html.Screen,1_0,2022-04-28T11:16:55.831Z,,,,,,,,,,,,,,,,,,,,,,,,,,,,,,,3305.401000047683,,response,,,,,,,,,,,continue,click button,,,,,,,,,17924.400000095367,17921.700000047684,14599.633,14591.200000047684,14616.299,17932.833,,,
Volume calibration,html.Screen,1_1,2022-04-28T11:17:07.918Z,,,,,,,,,,,,,,,,,,,,,,,,,,,,,,,12072.467000190736,,response,,,,,,,,,,,continue,click button,,,,,,,,,30011,30005.300000190735,17916.167,17924.800000190735,17932.833,30016.373,,,
Task instructions,html.Screen,1_2,2022-04-28T11:17:12.885Z,,,,,,,,,,,,,,,,,,,,,,,,,,,,,,,4955.827000047684,,response,,,,,,,,,,,continue,click button,,,,,,,,,34978.300000190735,34972.200000047684,29999.707,30011.200000047684,30016.373,34982.841,,,
Sounds,html.Screen,1_3_0_0,2022-04-28T11:17:17.128Z,,,,,,,,,,,,,,,,,,,,,,,,,,,,,,,4250.474000000002,,timeout,,,,,,,,,2,,,,,,,,O,S,I,,39221.40000009537,39216.649,34966.175,34978.60000014305,34982.841,39233.315,,,
Judgement,html.Screen,1_3_0_1,2022-04-28T11:17:17.801Z,,,,,,,,,,,,,,,,,,,,,,,,,,,,true,2,,655.7850001430488,,response,,,,,,,,,2,,2,click #choice-2,,,,,O,S,I,,39893.90000009537,39889.10000014305,39216.649,39221.700000047684,39233.315,39899.955,,,
Trial,flow.Sequence,1_3_0,2022-04-28T11:17:17.801Z,,,,,,,,,,,,,,,,,,,,,,,,,,,,,,,4906.259000143051,,completion,,,,,,,,,2,,,,,,,,O,S,I,,39894.300000190735,39889.10000014305,34966.175,34978.5,34982.841,39899.955,,,
Sounds,html.Screen,1_3_1_0,2022-04-28T11:17:22.042Z,,,,,,,,,,,,,,,,,,,,,,,,,,,,,,,4249.830000000002,,timeout,,,,,,,,,2,,,,,,,,I,S,O,,44135.5,44133.119,39883.289,39894.40000009537,39899.955,44149.785,,,
Judgement,html.Screen,1_3_1_1,2022-04-28T11:17:22.780Z,,,,,,,,,,,,,,,,,,,,,,,,,,,,true,2,,722.4150000476802,,response,,,,,,,,,2,,2,click #choice-2,,,,,I,S,O,,44873.5,44872.200000047684,44133.119,44135.700000047684,44149.785,44883.089,,,
Trial,flow.Sequence,1_3_1,2022-04-28T11:17:22.780Z,,,,,,,,,,,,,,,,,,,,,,,,,,,,,,,4972.245000047682,,completion,,,,,,,,,2,,,,,,,,I,S,O,,44874,44872.200000047684,39883.289,39894.40000009537,39899.955,44883.089,,,
Sounds,html.Screen,1_3_2_0,2022-04-28T11:17:27.026Z,,,,,,,,,,,,,,,,,,,,,,,,,,,,,,,4250.449999999997,,timeout,,,,,,,,,1,,,,,,,,S,O,I,,49119.60000014305,49116.873,44866.423,44874.10000014305,44883.089,49133.539,,,
Judgement,html.Screen,1_3_2_1,2022-04-28T11:17:27.497Z,,,,,,,,,,,,,,,,,,,,,,,,,,,,true,1,,455.26100019073783,,response,,,,,,,,,1,,1,click #choice-1,,,,,S,O,I,,49590.700000047684,49588.800000190735,49116.873,49119.800000190735,49133.539,49600.187,,,
Trial,flow.Sequence,1_3_2,2022-04-28T11:17:27.497Z,,,,,,,,,,,,,,,,,,,,,,,,,,,,,,,4705.711000190735,,completion,,,,,,,,,1,,,,,,,,S,O,I,,49591,49588.800000190735,44866.423,44874.10000014305,44883.089,49600.187,,,
Sounds,html.Screen,1_3_3_0,2022-04-28T11:17:31.743Z,,,,,,,,,,,,,,,,,,,,,,,,,,,,,,,4249.830000000002,,timeout,,,,,,,,,3,,,,,,,,O,I,S,,53836.5,53833.351,49583.521,49591.200000047684,49600.187,53850.017,,,
Judgement,html.Screen,1_3_3_1,2022-04-28T11:17:32.180Z,,,,,,,,,,,,,,,,,,,,,,,,,,,,true,3,,422.28300019073504,,response,,,,,,,,,3,,3,click #choice-3,,,,,O,I,S,,54273.700000047684,54272.300000190735,53833.351,53836.60000014305,53850.017,54283.333,,,
Trial,flow.Sequence,1_3_3,2022-04-28T11:17:32.180Z,,,,,,,,,,,,,,,,,,,,,,,,,,,,,,,4672.113000190737,,completion,,,,,,,,,3,,,,,,,,O,I,S,,54273.800000190735,54272.300000190735,49583.521,49591.10000014305,49600.187,54283.333,,,
Sounds,html.Screen,1_3_4_0,2022-04-28T11:17:36.425Z,,,,,,,,,,,,,,,,,,,,,,,,,,,,,,,4249.830000000002,,timeout,,,,,,,,,1,,,,,,,,S,I,O,,58519,58516.497,54266.667,54274,54283.333,58533.163,,,
Judgement,html.Screen,1_3_4_1,2022-04-28T11:17:36.850Z,,,,,,,,,,,,,,,,,,,,,,,,,,,,true,1,,406.33699999999953,,response,,,,,,,,,1,,1,click #choice-1,,,,,S,I,O,,58943.60000014305,58939.5,58516.497,58519.10000014305,58533.163,58950.481,,,
Trial,flow.Sequence,1_3_4,2022-04-28T11:17:36.850Z,,,,,,,,,,,,,,,,,,,,,,,,,,,,,,,4656.167000000001,,completion,,,,,,,,,1,,,,,,,,S,I,O,,58943.800000190735,58939.5,54266.667,54273.90000009537,54283.333,58950.481,,,
Sounds,html.Screen,1_3_5_0,2022-04-28T11:17:41.092Z,,,,,,,,,,,,,,,,,,,,,,,,,,,,,,,4249.830000000002,,timeout,,,,,,,,,3,,,,,,,,I,O,S,,63185.40000009537,63183.645,58933.815,58943.90000009537,58950.481,63200.311,,,
Judgement,html.Screen,1_3_5_1,2022-04-28T11:17:41.534Z,,,,,,,,,,,,,,,,,,,,,,,,,,,,true,3,,422.48900019073335,,response,,,,,,,,,3,,3,click #choice-3,,,,,I,O,S,,63628,63622.800000190735,63183.645,63185.60000014305,63200.311,63633.627,,,
Trial,flow.Sequence,1_3_5,2022-04-28T11:17:41.534Z,,,,,,,,,,,,,,,,,,,,,,,,,,,,,,,4672.319000190735,,completion,,,,,,,,,3,,,,,,,,I,O,S,,63628.300000190735,63622.800000190735,58933.815,58943.90000009537,58950.481,63633.627,,,
Task,flow.Loop,1_3,2022-04-28T11:17:41.541Z,,,,,,,,,,,,,,,,,,,,,,,,,,,,,,,28639.959000190735,,completion,,,1,,,,,,,,,,,,,,,,,,63635.10000014305,63622.800000190735,34966.175,34978.5,34982.841,63633.627,,,
Trap,html.Screen,1_4,2022-04-28T11:17:41.542Z,,,,,,,,,,,,,,,,,,,,,,,,,,,,,,,NaN,,skipped,,,,,,,,,,,,,,,,,,,,,63636.300000190735,63622.800000190735,,63636.200000047684,,63633.627,,,
Thanks,html.Screen,1_5,2022-04-28T11:17:44.147Z,,,,,,,,,,,,,,,,,,,,,,,,,,,,,,,2605.4730001430507,,response,,,,,,,,,,,continue,click button,,,,,,,,,66241.10000014305,66239.10000014305,63616.961,63636.300000190735,63633.627,68384.079,,,
Headphone screening,flow.Sequence,1,2022-04-28T11:17:44.147Z,,,,,,,,,,,,,,,,,,,,,,,,,,,,,,,51622.80100014305,,completion,,,,,,,,,,,,,,,,,,,,,66241.30000019073,66239.10000014305,14599.633,14591.200000047684,14616.299,68384.079,,,
Instructions,html.Page,2_0,2022-04-28T11:18:01.937Z,,,,,,,,,,,,,,,,,,,,,,,,,,,,,,,15646.921000000002,,form submission,,,,,,,,,,,,,,,,,,,,,84031.30000019073,84031,68367.413,68373.70000004768,68384.079,84033.453,,,
Holding screen,html.Screen,2_1_0_0,2022-04-28T11:18:11.926Z,,,,,,,,,,,,,,,,,,,,,,,,,,,,,,,10000.568,,timeout,,,,,,,,,,,,,,,,,,,,,94020.70000004768,94017.355,84016.787,84032.20000004768,84033.453,94034.021,,,
screen,html.Screen,2_1_0_1_0,2022-04-28T11:18:13.000Z,,,,,,,,,,,,,,,,,53,,,,,,,,,,,,,,1050.2790001907415,,response,,,,99,,,,,,,Space,keypress(Space),,,,,,,,When -- ----- -- ------ - ------- --- ----------<br>------------- ------ ------ ---- ---- ------- ----- -- ----<br>-------- ------- -- ---------- --- - --- ----- ----- ----<br>---- --- --- ----- --- ---- ---- ------- ----- ---- -------<br>--- --- -- ----- -- --- ---- -- --- ---- -- ------ ------<br>--- ----- -- ----,95094.5,95084.30000019073,94017.355,94023.10000014305,94034.021,95100.645,,0,When
screen,html.Screen,2_1_0_1_1,2022-04-28T11:18:13.374Z,,,,,,,,,,,,,,,,,53,,,,,,,,,,,,,,359.6550001907308,,response,,,,99,,,,,,,Space,keypress(Space),,,,,,,,---- it ----- -- ------ - ------- --- ----------<br>------------- ------ ------ ---- ---- ------- ----- -- ----<br>-------- ------- -- ---------- --- - --- ----- ----- ----<br>---- --- --- ----- --- ---- ---- ------- ----- ---- -------<br>--- --- -- ----- -- --- ---- -- --- ---- -- ------ ------<br>--- ----- -- ----,95468.90000009537,95460.30000019073,95083.979,95094.70000004768,95100.645,95484.697,,1,it
screen,html.Screen,2_1_0_1_2,2022-04-28T11:18:13.773Z,,,,,,,,,,,,,,,,,53,,,,,,,,,,,,,,374.90300014305103,,response,,,,99,,,,,,,Space,keypress(Space),,,,,,,,---- -- comes -- ------ - ------- --- ----------<br>------------- ------ ------ ---- ---- ------- ----- -- ----<br>-------- ------- -- ---------- --- - --- ----- ----- ----<br>---- --- --- ----- --- ---- ---- ------- ----- ---- -------<br>--- --- -- ----- -- --- ---- -- --- ---- -- ------ ------<br>--- ----- -- ----,95867.30000019073,95859.60000014305,95468.031,95469.10000014305,95484.697,95884.681,,2,comes
screen,html.Screen,2_1_0_1_3,2022-04-28T11:18:14.131Z,,,,,,,,,,,,,,,,,53,,,,,,,,,,,,,,333.7190000953706,,response,,,,99,,,,,,,Space,keypress(Space),,,,,,,,---- -- ----- to ------ - ------- --- ----------<br>------------- ------ ------ ---- ---- ------- ----- -- ----<br>-------- ------- -- ---------- --- - --- ----- ----- ----<br>---- --- --- ----- --- ---- ---- ------- ----- ---- -------<br>--- --- -- ----- -- --- ---- -- --- ---- -- ------ ------<br>--- ----- -- ----,96225.40000009537,96218.40000009537,95868.015,95867.5,95884.681,96234.667,,3,to
screen,html.Screen,2_1_0_1_4,2022-04-28T11:18:14.548Z,,,,,,,,,,,,,,,,,53,,,,,,,,,,,,,,398.8329999999987,,response,,,,99,,,,,,,Space,keypress(Space),,,,,,,,---- -- ----- -- having - ------- --- ----------<br>------------- ------ ------ ---- ---- ------- ----- -- ----<br>-------- ------- -- ---------- --- - --- ----- ----- ----<br>---- --- --- ----- --- ---- ---- ------- ----- ---- -------<br>--- --- -- ----- -- --- ---- -- --- ---- -- ------ ------<br>--- ----- -- ----,96642.30000019073,96633.5,96218.001,96225.70000004768,96234.667,96651.317,,4,having
screen,html.Screen,2_1_0_1_5,2022-04-28T11:18:14.876Z,,,,,,,,,,,,,,,,,53,,,,,,,,,,,,,,314.2830001430557,,response,,,,99,,,,,,,Space,keypress(Space),,,,,,,,---- -- ----- -- ------ a ------- --- ----------<br>------------- ------ ------ ---- ---- ------- ----- -- ----<br>-------- ------- -- ---------- --- - --- ----- ----- ----<br>---- --- --- ----- --- ---- ---- ------- ----- ---- -------<br>--- --- -- ----- -- --- ---- -- --- ---- -- ------ ------<br>--- ----- -- ----,96970.70000004768,96965.60000014305,96634.651,96642.70000004768,96651.317,96984.637,,5,a
screen,html.Screen,2_1_0_1_6,2022-04-28T11:18:15.173Z,,,,,,,,,,,,,,,,,53,,,,,,,,,,,,,,276.6630001907324,,response,,,,99,,,,,,,Space,keypress(Space),,,,,,,,---- -- ----- -- ------ - lasting --- ----------<br>------------- ------ ------ ---- ---- ------- ----- -- ----<br>-------- ------- -- ---------- --- - --- ----- ----- ----<br>---- --- --- ----- --- ---- ---- ------- ----- ---- -------<br>--- --- -- ----- -- --- ---- -- --- ---- -- ------ ------<br>--- ----- -- ----,97267.60000014305,97261.30000019073,96967.971,96971.20000004768,96984.637,97284.625,,6,lasting
screen,html.Screen,2_1_0_1_7,2022-04-28T11:18:15.548Z,,,,,,,,,,,,,,,,,53,,,,,,,,,,,,,,352.77500009536743,,response,,,,99,,,,,,,Space,keypress(Space),,,,,,,,---- -- ----- -- ------ - ------- and ----------<br>------------- ------ ------ ---- ---- ------- ----- -- ----<br>-------- ------- -- ---------- --- - --- ----- ----- ----<br>---- --- --- ----- --- ---- ---- ------- ----- ---- -------<br>--- --- -- ----- -- --- ---- -- --- ---- -- ------ ------<br>--- ----- -- ----,97642.80000019073,97637.40000009537,97267.959,97267.90000009537,97284.625,97651.277,,7,and
screen,html.Screen,2_1_0_1_8,2022-04-28T11:18:15.876Z,,,,,,,,,,,,,,,,,53,,,,,,,,,,,,,,313.42300004768185,,response,,,,99,,,,,,,Space,keypress(Space),,,,,,,,---- -- ----- -- ------ - ------- --- fulfilling<br>------------- ------ ------ ---- ---- ------- ----- -- ----<br>-------- ------- -- ---------- --- - --- ----- ----- ----<br>---- --- --- ----- --- ---- ---- ------- ----- ---- -------<br>--- --- -- ----- -- --- ---- -- --- ---- -- ------ ------<br>--- ----- -- ----,97970.80000019073,97964.70000004768,97634.611,97643.20000004768,97651.277,97984.597,,8,fulfilling
screen,html.Screen,2_1_0_1_9,2022-04-28T11:18:16.200Z,,,,,,,,,,,,,,,,,53,,,,,,,,,,,,,,304.70300019074057,,response,,,,99,,,,,,,Space,keypress(Space),,,,,,,,"---- -- ----- -- ------ - ------- --- ----------<br>relationship, ------ ------ ---- ---- ------- ----- -- ----<br>-------- ------- -- ---------- --- - --- ----- ----- ----<br>---- --- --- ----- --- ---- ---- ------- ----- ---- -------<br>--- --- -- ----- -- --- ---- -- --- ---- -- ------ ------<br>--- ----- -- ----",98294.90000009537,98289.30000019073,97967.931,97971.20000004768,97984.597,98301.251,,9,"relationship,"
screen,html.Screen,2_1_0_1_10,2022-04-28T11:18:16.483Z,,,,,,,,,,,,,,,,,53,,,,,,,,,,,,,,270.9490000476799,,response,,,,99,,,,,,,Space,keypress(Space),,,,,,,,---- -- ----- -- ------ - ------- --- ----------<br>------------- common ------ ---- ---- ------- ----- -- ----<br>-------- ------- -- ---------- --- - --- ----- ----- ----<br>---- --- --- ----- --- ---- ---- ------- ----- ---- -------<br>--- --- -- ----- -- --- ---- -- --- ---- -- ------ ------<br>--- ----- -- ----,98577.80000019073,98572.20000004768,98284.585,98295.30000019073,98301.251,98584.573,,10,common
screen,html.Screen,2_1_0_1_11,2022-04-28T11:18:16.771Z,,,,,,,,,,,,,,,,,53,,,,,,,,,,,,,,275.3270000953635,,response,,,,99,,,,,,,Space,keypress(Space),,,,,,,,---- -- ----- -- ------ - ------- --- ----------<br>------------- ------ wisdom ---- ---- ------- ----- -- ----<br>-------- ------- -- ---------- --- - --- ----- ----- ----<br>---- --- --- ----- --- ---- ---- ------- ----- ---- -------<br>--- --- -- ----- -- --- ---- -- --- ---- -- ------ ------<br>--- ----- -- ----,98865.20000004768,98859.90000009537,98567.907,98578.10000014305,98584.573,98867.895,,11,wisdom
screen,html.Screen,2_1_0_1_12,2022-04-28T11:18:17.156Z,,,,,,,,,,,,,,,,,53,,,,,,,,,,,,,,377.6049999999959,,response,,,,99,,,,,,,Space,keypress(Space),,,,,,,,---- -- ----- -- ------ - ------- --- ----------<br>------------- ------ ------ says ---- ------- ----- -- ----<br>-------- ------- -- ---------- --- - --- ----- ----- ----<br>---- --- --- ----- --- ---- ---- ------- ----- ---- -------<br>--- --- -- ----- -- --- ---- -- --- ---- -- ------ ------<br>--- ----- -- ----,99250.40000009537,99245.5,98851.229,98865.40000009537,98867.895,99251.213,,12,says
screen,html.Screen,2_1_0_1_13,2022-04-28T11:18:17.541Z,,,,,,,,,,,,,,,,,53,,,,,,,,,,,,,,379.18700009536406,,response,,,,99,,,,,,,Space,keypress(Space),,,,,,,,---- -- ----- -- ------ - ------- --- ----------<br>------------- ------ ------ ---- that ------- ----- -- ----<br>-------- ------- -- ---------- --- - --- ----- ----- ----<br>---- --- --- ----- --- ---- ---- ------- ----- ---- -------<br>--- --- -- ----- -- --- ---- -- --- ---- -- ------ ------<br>--- ----- -- ----,99635.70000004768,99630.40000009537,99234.547,99250.60000014305,99251.213,99651.197,,13,that
screen,html.Screen,2_1_0_1_14,2022-04-28T11:18:17.890Z,,,,,,,,,,,,,,,,,53,,,,,,,,,,,,,,328.10300019073475,,response,,,,99,,,,,,,Space,keypress(Space),,,,,,,,---- -- ----- -- ------ - ------- --- ----------<br>------------- ------ ------ ---- ---- feeling ----- -- ----<br>-------- ------- -- ---------- --- - --- ----- ----- ----<br>---- --- --- ----- --- ---- ---- ------- ----- ---- -------<br>--- --- -- ----- -- --- ---- -- --- ---- -- ------ ------<br>--- ----- -- ----,99984.5,99979.30000019073,99634.531,99636,99651.197,100001.183,,14,feeling
screen,html.Screen,2_1_0_1_15,2022-04-28T11:18:18.235Z,,,,,,,,,,,,,,,,,53,,,,,,,,,,,,,,324.9170001430466,,response,,,,99,,,,,,,Space,keypress(Space),,,,,,,,---- -- ----- -- ------ - ------- --- ----------<br>------------- ------ ------ ---- ---- ------- close -- ----<br>-------- ------- -- ---------- --- - --- ----- ----- ----<br>---- --- --- ----- --- ---- ---- ------- ----- ---- -------<br>--- --- -- ----- -- --- ---- -- --- ---- -- ------ ------<br>--- ----- -- ----,100330.10000014305,100326.10000014305,99984.517,99984.70000004768,100001.183,100334.503,,15,close
screen,html.Screen,2_1_0_1_16,2022-04-28T11:18:18.531Z,,,,,,,,,,,,,,,,,53,,,,,,,,,,,,,,285.2970001907379,,response,,,,99,,,,,,,Space,keypress(Space),,,,,,,,---- -- ----- -- ------ - ------- --- ----------<br>------------- ------ ------ ---- ---- ------- ----- to ----<br>-------- ------- -- ---------- --- - --- ----- ----- ----<br>---- --- --- ----- --- ---- ---- ------- ----- ---- -------<br>--- --- -- ----- -- --- ---- -- --- ---- -- ------ ------<br>--- ----- -- ----,100625.10000014305,100619.80000019073,100317.837,100330.10000014305,100334.503,100634.491,,16,to
screen,html.Screen,2_1_0_1_17,2022-04-28T11:18:18.824Z,,,,,,,,,,,,,,,,,53,,,,,,,,,,,,,,279.7090000476892,,response,,,,99,,,,,,,Space,keypress(Space),,,,,,,,---- -- ----- -- ------ - ------- --- ----------<br>------------- ------ ------ ---- ---- ------- ----- -- your<br>-------- ------- -- ---------- --- - --- ----- ----- ----<br>---- --- --- ----- --- ---- ---- ------- ----- ---- -------<br>--- --- -- ----- -- --- ---- -- --- ---- -- ------ ------<br>--- ----- -- ----,100918.30000019073,100914.20000004768,100617.825,100625.40000009537,100634.491,100934.479,,17,your
screen,html.Screen,2_1_0_1_18,2022-04-28T11:18:19.190Z,,,,,,,,,,,,,,,,,53,,,,,,,,,,,,,,344.8210001907282,,response,,,,99,,,,,,,Space,keypress(Space),,,,,,,,---- -- ----- -- ------ - ------- --- ----------<br>------------- ------ ------ ---- ---- ------- ----- -- ----<br>romantic ------- -- ---------- --- - --- ----- ----- ----<br>---- --- --- ----- --- ---- ---- ------- ----- ---- -------<br>--- --- -- ----- -- --- ---- -- --- ---- -- ------ ------<br>--- ----- -- ----,101285,101279.30000019073,100917.813,100918.5,100934.479,101301.131,,18,romantic
screen,html.Screen,2_1_0_1_19,2022-04-28T11:18:19.491Z,,,,,,,,,,,,,,,,,53,,,,,,,,,,,,,,278.86900000000605,,response,,,,99,,,,,,,Space,keypress(Space),,,,,,,,---- -- ----- -- ------ - ------- --- ----------<br>------------- ------ ------ ---- ---- ------- ----- -- ----<br>-------- partner -- ---------- --- - --- ----- ----- ----<br>---- --- --- ----- --- ---- ---- ------- ----- ---- -------<br>--- --- -- ----- -- --- ---- -- --- ---- -- ------ ------<br>--- ----- -- ----,101585.20000004768,101580,101284.465,101285.20000004768,101301.131,101601.119,,19,partner
screen,html.Screen,2_1_0_1_20,2022-04-28T11:18:19.832Z,,,,,,,,,,,,,,,,,53,,,,,,,,,,,,,,319.6810001907288,,response,,,,99,,,,,,,Space,keypress(Space),,,,,,,,---- -- ----- -- ------ - ------- --- ----------<br>------------- ------ ------ ---- ---- ------- ----- -- ----<br>-------- ------- is ---------- --- - --- ----- ----- ----<br>---- --- --- ----- --- ---- ---- ------- ----- ---- -------<br>--- --- -- ----- -- --- ---- -- --- ---- -- ------ ------<br>--- ----- -- ----,101926.20000004768,101920.80000019073,101584.453,101585.5,101601.119,101934.439,,20,is
screen,html.Screen,2_1_0_1_21,2022-04-28T11:18:20.153Z,,,,,,,,,,,,,,,,,53,,,,,,,,,,,,,,309.0610000000015,,response,,,,99,,,,,,,Space,keypress(Space),,,,,,,,---- -- ----- -- ------ - ------- --- ----------<br>------------- ------ ------ ---- ---- ------- ----- -- ----<br>-------- ------- -- paramount. --- - --- ----- ----- ----<br>---- --- --- ----- --- ---- ---- ------- ----- ---- -------<br>--- --- -- ----- -- --- ---- -- --- ---- -- ------ ------<br>--- ----- -- ----,102247.30000019073,102243.5,101917.773,101926.5,101934.439,102251.093,,21,paramount.
screen,html.Screen,2_1_0_1_22,2022-04-28T11:18:20.510Z,,,,,,,,,,,,,,,,,53,,,,,,,,,,,,,,347.4070000000065,,response,,,,99,,,,,,,Space,keypress(Space),,,,,,,,---- -- ----- -- ------ - ------- --- ----------<br>------------- ------ ------ ---- ---- ------- ----- -- ----<br>-------- ------- -- ---------- But - --- ----- ----- ----<br>---- --- --- ----- --- ---- ---- ------- ----- ---- -------<br>--- --- -- ----- -- --- ---- -- --- ---- -- ------ ------<br>--- ----- -- ----,102604.20000004768,102598.5,102234.427,102247.5,102251.093,102617.745,,22,But
screen,html.Screen,2_1_0_1_23,2022-04-28T11:18:20.807Z,,,,,,,,,,,,,,,,,53,,,,,,,,,,,,,,278.3550001430558,,response,,,,99,,,,,,,Space,keypress(Space),,,,,,,,---- -- ----- -- ------ - ------- --- ----------<br>------------- ------ ------ ---- ---- ------- ----- -- ----<br>-------- ------- -- ---------- --- a --- ----- ----- ----<br>---- --- --- ----- --- ---- ---- ------- ----- ---- -------<br>--- --- -- ----- -- --- ---- -- --- ---- -- ------ ------<br>--- ----- -- ----,102901.70000004768,102896.10000014305,102601.079,102604.5,102617.745,102917.733,,23,a
screen,html.Screen,2_1_0_1_24,2022-04-28T11:18:21.113Z,,,,,,,,,,,,,,,,,53,,,,,,,,,,,,,,283.86700014305825,,response,,,,99,,,,,,,Space,keypress(Space),,,,,,,,---- -- ----- -- ------ - ------- --- ----------<br>------------- ------ ------ ---- ---- ------- ----- -- ----<br>-------- ------- -- ---------- --- - new ----- ----- ----<br>---- --- --- ----- --- ---- ---- ------- ----- ---- -------<br>--- --- -- ----- -- --- ---- -- --- ---- -- ------ ------<br>--- ----- -- ----,103207.40000009537,103201.60000014305,102901.067,102902,102917.733,103217.721,,24,new
screen,html.Screen,2_1_0_1_25,2022-04-28T11:18:21.384Z,,,,,,,,,,,,,,,,,53,,,,,,,,,,,,,,255.778999999995,,response,,,,99,,,,,,,Space,keypress(Space),,,,,,,,---- -- ----- -- ------ - ------- --- ----------<br>------------- ------ ------ ---- ---- ------- ----- -- ----<br>-------- ------- -- ---------- --- - --- study ----- ----<br>---- --- --- ----- --- ---- ---- ------- ----- ---- -------<br>--- --- -- ----- -- --- ---- -- --- ---- -- ------ ------<br>--- ----- -- ----,103479.10000014305,103473.5,103201.055,103207.70000004768,103217.721,103484.377,,25,study
screen,html.Screen,2_1_0_1_26,2022-04-28T11:18:21.676Z,,,,,,,,,,,,,,,,,53,,,,,,,,,,,,,,280.62300000000687,,response,,,,99,,,,,,,Space,keypress(Space),,,,,,,,---- -- ----- -- ------ - ------- --- ----------<br>------------- ------ ------ ---- ---- ------- ----- -- ----<br>-------- ------- -- ---------- --- - --- ----- finds ----<br>---- --- --- ----- --- ---- ---- ------- ----- ---- -------<br>--- --- -- ----- -- --- ---- -- --- ---- -- ------ ------<br>--- ----- -- ----,103770.60000014305,103765,103467.711,103480.30000019073,103484.377,103784.365,,26,finds
screen,html.Screen,2_1_0_1_27,2022-04-28T11:18:21.974Z,,,,,,,,,,,,,,,,,53,,,,,,,,,,,,,,279.4350001907296,,response,,,,99,,,,,,,Space,keypress(Space),,,,,,,,---- -- ----- -- ------ - ------- --- ----------<br>------------- ------ ------ ---- ---- ------- ----- -- ----<br>-------- ------- -- ---------- --- - --- ----- ----- that<br>---- --- --- ----- --- ---- ---- ------- ----- ---- -------<br>--- --- -- ----- -- --- ---- -- --- ---- -- ------ ------<br>--- ----- -- ----,104068.90000009537,104063.80000019073,103767.699,103770.80000019073,103784.365,104084.353,,27,that
screen,html.Screen,2_1_0_1_28,2022-04-28T11:18:22.285Z,,,,,,,,,,,,,,,,,53,,,,,,,,,,,,,,290.24700014304835,,response,,,,99,,,,,,,Space,keypress(Space),,,,,,,,---- -- ----- -- ------ - ------- --- ----------<br>------------- ------ ------ ---- ---- ------- ----- -- ----<br>-------- ------- -- ---------- --- - --- ----- ----- ----<br>it's --- --- ----- --- ---- ---- ------- ----- ---- -------<br>--- --- -- ----- -- --- ---- -- --- ---- -- ------ ------<br>--- ----- -- ----,104379.90000009537,104374.60000014305,104067.687,104069.40000009537,104084.353,104384.341,,28,it's
screen,html.Screen,2_1_0_1_29,2022-04-28T11:18:22.580Z,,,,,,,,,,,,,,,,,53,,,,,,,,,,,,,,285.35900004768337,,response,,,,99,,,,,,,Space,keypress(Space),,,,,,,,---- -- ----- -- ------ - ------- --- ----------<br>------------- ------ ------ ---- ---- ------- ----- -- ----<br>-------- ------- -- ---------- --- - --- ----- ----- ----<br>---- not --- ----- --- ---- ---- ------- ----- ---- -------<br>--- --- -- ----- -- --- ---- -- --- ---- -- ------ ------<br>--- ----- -- ----,104675,104669.70000004768,104367.675,104380.20000004768,104384.341,104684.923,,29,not
screen,html.Screen,2_1_0_1_30,2022-04-28T11:18:22.832Z,,,,,,,,,,,,,,,,,53,,,,,,,,,,,,,,237.57700000000477,,response,,,,99,,,,,,,Space,keypress(Space),,,,,,,,---- -- ----- -- ------ - ------- --- ----------<br>------------- ------ ------ ---- ---- ------- ----- -- ----<br>-------- ------- -- ---------- --- - --- ----- ----- ----<br>---- --- how ----- --- ---- ---- ------- ----- ---- -------<br>--- --- -- ----- -- --- ---- -- --- ---- -- ------ ------<br>--- ----- -- ----,104926.5,104922.5,104668.257,104675.20000004768,104684.923,104934.913,,30,how
screen,html.Screen,2_1_0_1_31,2022-04-28T11:18:23.113Z,,,,,,,,,,,,,,,,,53,,,,,,,,,,,,,,265.48700009536697,,response,,,,99,,,,,,,Space,keypress(Space),,,,,,,,---- -- ----- -- ------ - ------- --- ----------<br>------------- ------ ------ ---- ---- ------- ----- -- ----<br>-------- ------- -- ---------- --- - --- ----- ----- ----<br>---- --- --- close --- ---- ---- ------- ----- ---- -------<br>--- --- -- ----- -- --- ---- -- --- ---- -- ------ ------<br>--- ----- -- ----,105207.30000019073,105200.40000009537,104918.247,104926.70000004768,104934.913,105218.235,,31,close
screen,html.Screen,2_1_0_1_32,2022-04-28T11:18:23.356Z,,,,,,,,,,,,,,,,,53,,,,,,,,,,,,,,227.66500009536685,,response,,,,99,,,,,,,Space,keypress(Space),,,,,,,,---- -- ----- -- ------ - ------- --- ----------<br>------------- ------ ------ ---- ---- ------- ----- -- ----<br>-------- ------- -- ---------- --- - --- ----- ----- ----<br>---- --- --- ----- you ---- ---- ------- ----- ---- -------<br>--- --- -- ----- -- --- ---- -- --- ---- -- ------ ------<br>--- ----- -- ----,105450.90000009537,105445.90000009537,105201.569,105207.60000014305,105218.235,105468.225,,32,you
screen,html.Screen,2_1_0_1_33,2022-04-28T11:18:23.596Z,,,,,,,,,,,,,,,,,53,,,,,,,,,,,,,,216.6750000953616,,response,,,,99,,,,,,,Space,keypress(Space),,,,,,,,---- -- ----- -- ------ - ------- --- ----------<br>------------- ------ ------ ---- ---- ------- ----- -- ----<br>-------- ------- -- ---------- --- - --- ----- ----- ----<br>---- --- --- ----- --- feel ---- ------- ----- ---- -------<br>--- --- -- ----- -- --- ---- -- --- ---- -- ------ ------<br>--- ----- -- ----,105690.30000019073,105684.90000009537,105451.559,105451.20000004768,105468.225,105701.549,,33,feel
screen,html.Screen,2_1_0_1_34,2022-04-28T11:18:23.888Z,,,,,,,,,,,,,,,,,53,,,,,,,,,,,,,,275.65100004768465,,response,,,,99,,,,,,,Space,keypress(Space),,,,,,,,---- -- ----- -- ------ - ------- --- ----------<br>------------- ------ ------ ---- ---- ------- ----- -- ----<br>-------- ------- -- ---------- --- - --- ----- ----- ----<br>---- --- --- ----- --- ---- that ------- ----- ---- -------<br>--- --- -- ----- -- --- ---- -- --- ---- -- ------ ------<br>--- ----- -- ----,105982.40000009537,105977.20000004768,105684.883,105690.60000014305,105701.549,105984.871,,34,that
screen,html.Screen,2_1_0_1_35,2022-04-28T11:18:24.169Z,,,,,,,,,,,,,,,,,53,,,,,,,,,,,,,,274.32900004768453,,response,,,,99,,,,,,,Space,keypress(Space),,,,,,,,---- -- ----- -- ------ - ------- --- ----------<br>------------- ------ ------ ---- ---- ------- ----- -- ----<br>-------- ------- -- ---------- --- - --- ----- ----- ----<br>---- --- --- ----- --- ---- ---- matters ----- ---- -------<br>--- --- -- ----- -- --- ---- -- --- ---- -- ------ ------<br>--- ----- -- ----,106263.40000009537,106259.20000004768,105968.205,105982.70000004768,105984.871,106268.193,,35,matters
screen,html.Screen,2_1_0_1_36,2022-04-28T11:18:24.388Z,,,,,,,,,,,,,,,,,53,,,,,,,,,,,,,,209.00700004768441,,response,,,,99,,,,,,,Space,keypress(Space),,,,,,,,"---- -- ----- -- ------ - ------- --- ----------<br>------------- ------ ------ ---- ---- ------- ----- -- ----<br>-------- ------- -- ---------- --- - --- ----- ----- ----<br>---- --- --- ----- --- ---- ---- ------- most, ---- -------<br>--- --- -- ----- -- --- ---- -- --- ---- -- ------ ------<br>--- ----- -- ----",106482.5,106477.20000004768,106251.527,106263.70000004768,106268.193,106484.851,,36,"most,"
screen,html.Screen,2_1_0_1_37,2022-04-28T11:18:24.702Z,,,,,,,,,,,,,,,,,53,,,,,,,,,,,,,,306.1490000000049,,response,,,,99,,,,,,,Space,keypress(Space),,,,,,,,---- -- ----- -- ------ - ------- --- ----------<br>------------- ------ ------ ---- ---- ------- ----- -- ----<br>-------- ------- -- ---------- --- - --- ----- ----- ----<br>---- --- --- ----- --- ---- ---- ------- ----- it's -------<br>--- --- -- ----- -- --- ---- -- --- ---- -- ------ ------<br>--- ----- -- ----,106796.40000009537,106791,106468.185,106482.60000014305,106484.851,106801.505,,37,it's
screen,html.Screen,2_1_0_1_38,2022-04-28T11:18:24.951Z,,,,,,,,,,,,,,,,,53,,,,,,,,,,,,,,238.7950001907302,,response,,,,99,,,,,,,Space,keypress(Space),,,,,,,,---- -- ----- -- ------ - ------- --- ----------<br>------------- ------ ------ ---- ---- ------- ----- -- ----<br>-------- ------- -- ---------- --- - --- ----- ----- ----<br>---- --- --- ----- --- ---- ---- ------- ----- ---- whether<br>--- --- -- ----- -- --- ---- -- --- ---- -- ------ ------<br>--- ----- -- ----,107045.70000004768,107040.30000019073,106784.839,106796.70000004768,106801.505,107051.495,,38,whether
screen,html.Screen,2_1_0_1_39,2022-04-28T11:18:25.234Z,,,,,,,,,,,,,,,,,53,,,,,,,,,,,,,,271.50500000000466,,response,,,,99,,,,,,,Space,keypress(Space),,,,,,,,---- -- ----- -- ------ - ------- --- ----------<br>------------- ------ ------ ---- ---- ------- ----- -- ----<br>-------- ------- -- ---------- --- - --- ----- ----- ----<br>---- --- --- ----- --- ---- ---- ------- ----- ---- -------<br>you --- -- ----- -- --- ---- -- --- ---- -- ------ ------<br>--- ----- -- ----,107328.70000004768,107323,107034.829,107046,107051.495,107334.817,,39,you
screen,html.Screen,2_1_0_1_40,2022-04-28T11:18:25.478Z,,,,,,,,,,,,,,,,,53,,,,,,,,,,,,,,231.68300000000454,,response,,,,99,,,,,,,Space,keypress(Space),,,,,,,,---- -- ----- -- ------ - ------- --- ----------<br>------------- ------ ------ ---- ---- ------- ----- -- ----<br>-------- ------- -- ---------- --- - --- ----- ----- ----<br>---- --- --- ----- --- ---- ---- ------- ----- ---- -------<br>--- are -- ----- -- --- ---- -- --- ---- -- ------ ------<br>--- ----- -- ----,107572.90000009537,107566.5,107318.151,107328.90000009537,107334.817,107584.807,,40,are
screen,html.Screen,2_1_0_1_41,2022-04-28T11:18:25.737Z,,,,,,,,,,,,,,,,,53,,,,,,,,,,,,,,242.1929999999993,,response,,,,99,,,,,,,Space,keypress(Space),,,,,,,,---- -- ----- -- ------ - ------- --- ----------<br>------------- ------ ------ ---- ---- ------- ----- -- ----<br>-------- ------- -- ---------- --- - --- ----- ----- ----<br>---- --- --- ----- --- ---- ---- ------- ----- ---- -------<br>--- --- as ----- -- --- ---- -- --- ---- -- ------ ------<br>--- ----- -- ----,107832.20000004768,107827,107568.141,107573.20000004768,107584.807,107834.797,,41,as
screen,html.Screen,2_1_0_1_42,2022-04-28T11:18:25.967Z,,,,,,,,,,,,,,,,,53,,,,,,,,,,,,,,221.6030000953615,,response,,,,99,,,,,,,Space,keypress(Space),,,,,,,,---- -- ----- -- ------ - ------- --- ----------<br>------------- ------ ------ ---- ---- ------- ----- -- ----<br>-------- ------- -- ---------- --- - --- ----- ----- ----<br>---- --- --- ----- --- ---- ---- ------- ----- ---- -------<br>--- --- -- close -- --- ---- -- --- ---- -- ------ ------<br>--- ----- -- ----,108062,108056.40000009537,107818.131,107832.40000009537,107834.797,108068.121,,42,close
screen,html.Screen,2_1_0_1_43,2022-04-28T11:18:26.410Z,,,,,,,,,,,,,,,,,53,,,,,,,,,,,,,,430.1790001907357,,response,,,,99,,,,,,,Space,keypress(Space),,,,,,,,---- -- ----- -- ------ - ------- --- ----------<br>------------- ------ ------ ---- ---- ------- ----- -- ----<br>-------- ------- -- ---------- --- - --- ----- ----- ----<br>---- --- --- ----- --- ---- ---- ------- ----- ---- -------<br>--- --- -- ----- as --- ---- -- --- ---- -- ------ ------<br>--- ----- -- ----,108505.10000014305,108498.30000019073,108051.455,108062.40000009537,108068.121,108518.103,,43,as
screen,html.Screen,2_1_0_1_44,2022-04-28T11:18:26.658Z,,,,,,,,,,,,,,,,,53,,,,,,,,,,,,,,228.99700014304835,,response,,,,99,,,,,,,Space,keypress(Space),,,,,,,,---- -- ----- -- ------ - ------- --- ----------<br>------------- ------ ------ ---- ---- ------- ----- -- ----<br>-------- ------- -- ---------- --- - --- ----- ----- ----<br>---- --- --- ----- --- ---- ---- ------- ----- ---- -------<br>--- --- -- ----- -- you ---- -- --- ---- -- ------ ------<br>--- ----- -- ----,108752.40000009537,108747.10000014305,108501.437,108505.30000019073,108518.103,108768.093,,44,you
screen,html.Screen,2_1_0_1_45,2022-04-28T11:18:26.874Z,,,,,,,,,,,,,,,,,53,,,,,,,,,,,,,,194.90700000000652,,response,,,,99,,,,,,,Space,keypress(Space),,,,,,,,---- -- ----- -- ------ - ------- --- ----------<br>------------- ------ ------ ---- ---- ------- ----- -- ----<br>-------- ------- -- ---------- --- - --- ----- ----- ----<br>---- --- --- ----- --- ---- ---- ------- ----- ---- -------<br>--- --- -- ----- -- --- want -- --- ---- -- ------ ------<br>--- ----- -- ----,108968.40000009537,108963,108751.427,108752.70000004768,108768.093,108984.751,,45,want
screen,html.Screen,2_1_0_1_46,2022-04-28T11:18:27.147Z,,,,,,,,,,,,,,,,,53,,,,,,,,,,,,,,253.3490001430473,,response,,,,99,,,,,,,Space,keypress(Space),,,,,,,,---- -- ----- -- ------ - ------- --- ----------<br>------------- ------ ------ ---- ---- ------- ----- -- ----<br>-------- ------- -- ---------- --- - --- ----- ----- ----<br>---- --- --- ----- --- ---- ---- ------- ----- ---- -------<br>--- --- -- ----- -- --- ---- to --- ---- -- ------ ------<br>--- ----- -- ----,109241.5,109238.10000014305,108968.085,108968.60000014305,108984.751,109251.407,,46,to
screen,html.Screen,2_1_0_1_47,2022-04-28T11:18:27.412Z,,,,,,,,,,,,,,,,,53,,,,,,,,,,,,,,248.9930000953609,,response,,,,99,,,,,,,Space,keypress(Space),,,,,,,,"---- -- ----- -- ------ - ------- --- ----------<br>------------- ------ ------ ---- ---- ------- ----- -- ----<br>-------- ------- -- ---------- --- - --- ----- ----- ----<br>---- --- --- ----- --- ---- ---- ------- ----- ---- -------<br>--- --- -- ----- -- --- ---- -- be, ---- -- ------ ------<br>--- ----- -- ----",109506.40000009537,109500.40000009537,109234.741,109241.60000014305,109251.407,109518.063,,47,"be,"
screen,html.Screen,2_1_0_1_48,2022-04-28T11:18:27.768Z,,,,,,,,,,,,,,,,,53,,,,,,,,,,,,,,340.93700000000536,,response,,,,99,,,,,,,Space,keypress(Space),,,,,,,,---- -- ----- -- ------ - ------- --- ----------<br>------------- ------ ------ ---- ---- ------- ----- -- ----<br>-------- ------- -- ---------- --- - --- ----- ----- ----<br>---- --- --- ----- --- ---- ---- ------- ----- ---- -------<br>--- --- -- ----- -- --- ---- -- --- even -- ------ ------<br>--- ----- -- ----,109863.10000014305,109859,109501.397,109506.70000004768,109518.063,109868.049,,48,even
screen,html.Screen,2_1_0_1_49,2022-04-28T11:18:28.157Z,,,,,,,,,,,,,,,,,53,,,,,,,,,,,,,,378.35100009536836,,response,,,,99,,,,,,,Space,keypress(Space),,,,,,,,---- -- ----- -- ------ - ------- --- ----------<br>------------- ------ ------ ---- ---- ------- ----- -- ----<br>-------- ------- -- ---------- --- - --- ----- ----- ----<br>---- --- --- ----- --- ---- ---- ------- ----- ---- -------<br>--- --- -- ----- -- --- ---- -- --- ---- if ------ ------<br>--- ----- -- ----,110251.90000009537,110246.40000009537,109851.383,109863.30000019073,109868.049,110268.033,,49,if
screen,html.Screen,2_1_0_1_50,2022-04-28T11:18:28.454Z,,,,,,,,,,,,,,,,,53,,,,,,,,,,,,,,275.76700019073905,,response,,,,99,,,,,,,Space,keypress(Space),,,,,,,,---- -- ----- -- ------ - ------- --- ----------<br>------------- ------ ------ ---- ---- ------- ----- -- ----<br>-------- ------- -- ---------- --- - --- ----- ----- ----<br>---- --- --- ----- --- ---- ---- ------- ----- ---- -------<br>--- --- -- ----- -- --- ---- -- --- ---- -- that's ------<br>--- ----- -- ----,110548.80000019073,110543.80000019073,110251.367,110252,110268.033,110551.355,,50,that's
screen,html.Screen,2_1_0_1_51,2022-04-28T11:18:28.800Z,,,,,,,,,,,,,,,,,53,,,,,,,,,,,,,,338.0450000953715,,response,,,,99,,,,,,,Space,keypress(Space),,,,,,,,---- -- ----- -- ------ - ------- --- ----------<br>------------- ------ ------ ---- ---- ------- ----- -- ----<br>-------- ------- -- ---------- --- - --- ----- ----- ----<br>---- --- --- ----- --- ---- ---- ------- ----- ---- -------<br>--- --- -- ----- -- --- ---- -- --- ---- -- ------ really<br>--- ----- -- ----,110894.5,110889.40000009537,110534.689,110549.10000014305,110551.355,110901.341,,51,really
screen,html.Screen,2_1_0_1_52,2022-04-28T11:18:29.086Z,,,,,,,,,,,,,,,,,53,,,,,,,,,,,,,,273.2590001430508,,response,,,,99,,,,,,,Space,keypress(Space),,,,,,,,---- -- ----- -- ------ - ------- --- ----------<br>------------- ------ ------ ---- ---- ------- ----- -- ----<br>-------- ------- -- ---------- --- - --- ----- ----- ----<br>---- --- --- ----- --- ---- ---- ------- ----- ---- -------<br>--- --- -- ----- -- --- ---- -- --- ---- -- ------ ------<br>not ----- -- ----,111180.5,111174.60000014305,110884.675,110894.70000004768,110901.341,111184.663,,52,not
screen,html.Screen,2_1_0_1_53,2022-04-28T11:18:29.258Z,,,,,,,,,,,,,,,,,53,,,,,,,,,,,,,,163.53700004768325,,response,,,,99,,,,,,,Space,keypress(Space),,,,,,,,---- -- ----- -- ------ - ------- --- ----------<br>------------- ------ ------ ---- ---- ------- ----- -- ----<br>-------- ------- -- ---------- --- - --- ----- ----- ----<br>---- --- --- ----- --- ---- ---- ------- ----- ---- -------<br>--- --- -- ----- -- --- ---- -- --- ---- -- ------ ------<br>--- close -- ----,111353.30000019073,111348.20000004768,111167.997,111180.90000009537,111184.663,111367.989,,53,close
screen,html.Screen,2_1_0_1_54,2022-04-28T11:18:29.683Z,,,,,,,,,,,,,,,,,53,,,,,,,,,,,,,,402.5109999999986,,response,,,,99,,,,,,,Space,keypress(Space),,,,,,,,---- -- ----- -- ------ - ------- --- ----------<br>------------- ------ ------ ---- ---- ------- ----- -- ----<br>-------- ------- -- ---------- --- - --- ----- ----- ----<br>---- --- --- ----- --- ---- ---- ------- ----- ---- -------<br>--- --- -- ----- -- --- ---- -- --- ---- -- ------ ------<br>--- ----- at ----,111777.60000014305,111770.5,111351.323,111353.40000009537,111367.989,111784.639,,54,at
screen,html.Screen,2_1_0_1_55,2022-04-28T11:18:30.423Z,,,,,,,,,,,,,,,,,53,,,,,,,,,,,,,,727.1610001907393,,response,,,,99,,,,,,,Space,keypress(Space),,,,,,,,---- -- ----- -- ------ - ------- --- ----------<br>------------- ------ ------ ---- ---- ------- ----- -- ----<br>-------- ------- -- ---------- --- - --- ----- ----- ----<br>---- --- --- ----- --- ---- ---- ------- ----- ---- -------<br>--- --- -- ----- -- --- ---- -- --- ---- -- ------ ------<br>--- ----- -- all.,112518.30000019073,112511.80000019073,111767.973,111777.80000019073,111784.639,112534.609,,55,all.
Item 99,flow.Loop,2_1_0_1,2022-04-28T11:18:30.424Z,,,,,,,,,,,,,,,,,,,,,,,,,,,,,,,18477.77900019074,,completion,,,,,D,,,,,,,,,,,silence,,,,,112518.80000019073,112511.80000019073,94017.355,94022.30000019073,94034.021,112534.609,,,
Question 1,html.Screen,2_1_0_2,2022-04-28T11:18:34.430Z,,,,,,,,,,,,,,,,,,,,,,,,,,,,true,FALSE,,3988.7910000953707,,response,,,,99,D,,,,,,FALSE,click #choice-2,,,,silence,,,,,116525.10000014305,116523.40000009537,112517.943,112519,112534.609,116535.021,,,
Question 2,html.Screen,2_1_0_3,2022-04-28T11:18:40.048Z,,,,,,,,,,,,,,,,,,,,,,,,,,,,false,TRUE,,5605.17900004769,,response,,,,99,D,,,,,,FALSE,click #choice-2,,,,silence,,,,,122143,122140.20000004768,116518.355,116525.30000019073,116535.021,122151.463,,,
Item 99,flow.Sequence,2_1_0,2022-04-28T11:18:40.048Z,,,,,,,,,,,,,,,,,,,,,,,,,,,,,,,38106.74700004769,,completion,,,,,,,,,,,,,,,,,,,,,122143.30000019073,122140.20000004768,84016.787,84031.80000019073,84033.453,122151.463,,,
Holding screen,html.Screen,2_1_1_0,2022-04-28T11:18:50.042Z,,,,,,,,,,,,,,,,,,,,,,,,,,,,,,,10000.210999999996,,timeout,,,,,,,,,,,,,,,,,,,,,132137.20000004768,132135.008,122134.797,122143.70000004768,122151.463,132151.674,,,
screen,html.Screen,2_1_1_1_0,2022-04-28T11:18:51.355Z,,,,,,,,,,,,,,,,,54,,,,,,,,,,,,,,1291.6260001907358,,response,,,,100,,,,,,,Space,keypress(Space),,,,,,,,At --- ---- --- ------ ----- ------- ---- -- --- ------- --<br>------- ---------- ------ -- ----- -- ----- -- ---- ------<br>--- ----- --- --- ------ -------- ----- --- ------ ----- --<br>----- ----- ---------- --- --- ------ ------ ---- -- ------<br>------- --- ------ ----- --- ---- ------- -- ---- --- --<br>------- ------,133450.40000009537,133443.30000019073,132135.008,132137.60000014305,132151.674,133451.622,,0,At
screen,html.Screen,2_1_1_1_1,2022-04-28T11:18:51.579Z,,,,,,,,,,,,,,,,,54,,,,,,,,,,,,,,217.0780000476807,,response,,,,100,,,,,,,Space,keypress(Space),,,,,,,,-- the ---- --- ------ ----- ------- ---- -- --- ------- --<br>------- ---------- ------ -- ----- -- ----- -- ---- ------<br>--- ----- --- --- ------ -------- ----- --- ------ ----- --<br>----- ----- ---------- --- --- ------ ------ ---- -- ------<br>------- --- ------ ----- --- ---- ------- -- ---- --- --<br>------- ------,133674.10000014305,133668.70000004768,133434.956,133450.60000014305,133451.622,133684.946,,1,the
screen,html.Screen,2_1_1_1_2,2022-04-28T11:18:51.725Z,,,,,,,,,,,,,,,,,54,,,,,,,,,,,,,,128.25400004768744,,response,,,,100,,,,,,,Space,keypress(Space),,,,,,,,-- --- time --- ------ ----- ------- ---- -- --- ------- --<br>------- ---------- ------ -- ----- -- ----- -- ---- ------<br>--- ----- --- --- ------ -------- ----- --- ------ ----- --<br>----- ----- ---------- --- --- ------ ------ ---- -- ------<br>------- --- ------ ----- --- ---- ------- -- ---- --- --<br>------- ------,133820,133813.20000004768,133668.28,133674.40000009537,133684.946,133834.94,,2,time
screen,html.Screen,2_1_1_1_3,2022-04-28T11:18:52.086Z,,,,,,,,,,,,,,,,,54,,,,,,,,,,,,,,341.2600000476814,,response,,,,100,,,,,,,Space,keypress(Space),,,,,,,,-- --- ---- the ------ ----- ------- ---- -- --- ------- --<br>------- ---------- ------ -- ----- -- ----- -- ---- ------<br>--- ----- --- --- ------ -------- ----- --- ------ ----- --<br>----- ----- ---------- --- --- ------ ------ ---- -- ------<br>------- --- ------ ----- --- ---- ------- -- ---- --- --<br>------- ------,134181.10000014305,134176.20000004768,133818.274,133820.20000004768,133834.94,134184.926,,3,the
screen,html.Screen,2_1_1_1_4,2022-04-28T11:18:52.233Z,,,,,,,,,,,,,,,,,54,,,,,,,,,,,,,,138.07399999999325,,response,,,,100,,,,,,,Space,keypress(Space),,,,,,,,-- --- ---- --- French ----- ------- ---- -- --- ------- --<br>------- ---------- ------ -- ----- -- ----- -- ---- ------<br>--- ----- --- --- ------ -------- ----- --- ------ ----- --<br>----- ----- ---------- --- --- ------ ------ ---- -- ------<br>------- --- ------ ----- --- ---- ------- -- ---- --- --<br>------- ------,134328.40000009537,134323,134168.26,134181.5,134184.926,134334.92,,4,French
screen,html.Screen,2_1_1_1_5,2022-04-28T11:18:52.671Z,,,,,,,,,,,,,,,,,54,,,,,,,,,,,,,,426.38000019072206,,response,,,,100,,,,,,,Space,keypress(Space),,,,,,,,-- --- ---- --- ------ crown ------- ---- -- --- ------- --<br>------- ---------- ------ -- ----- -- ----- -- ---- ------<br>--- ----- --- --- ------ -------- ----- --- ------ ----- --<br>----- ----- ---------- --- --- ------ ------ ---- -- ------<br>------- --- ------ ----- --- ---- ------- -- ---- --- --<br>------- ------,134766.30000019073,134761.30000019073,134318.254,134328.80000019073,134334.92,134768.236,,5,crown
screen,html.Screen,2_1_1_1_6,2022-04-28T11:18:53.150Z,,,,,,,,,,,,,,,,,54,,,,,,,,,,,,,,474.3640001430467,,response,,,,100,,,,,,,Space,keypress(Space),,,,,,,,-- --- ---- --- ------ ----- secured ---- -- --- ------- --<br>------- ---------- ------ -- ----- -- ----- -- ---- ------<br>--- ----- --- --- ------ -------- ----- --- ------ ----- --<br>----- ----- ---------- --- --- ------ ------ ---- -- ------<br>------- --- ------ ----- --- ---- ------- -- ---- --- --<br>------- ------,135245.5,135242.60000014305,134751.57,134766.40000009537,134768.236,135251.55,,6,secured
screen,html.Screen,2_1_1_1_7,2022-04-28T11:18:53.474Z,,,,,,,,,,,,,,,,,54,,,,,,,,,,,,,,312.5500001430628,,response,,,,100,,,,,,,Space,keypress(Space),,,,,,,,-- --- ---- --- ------ ----- ------- much -- --- ------- --<br>------- ---------- ------ -- ----- -- ----- -- ---- ------<br>--- ----- --- --- ------ -------- ----- --- ------ ----- --<br>----- ----- ---------- --- --- ------ ------ ---- -- ------<br>------- --- ------ ----- --- ---- ------- -- ---- --- --<br>------- ------,135568.90000009537,135564.10000014305,135234.884,135245.60000014305,135251.55,135584.87,,7,much
screen,html.Screen,2_1_1_1_8,2022-04-28T11:18:53.751Z,,,,,,,,,,,,,,,,,54,,,,,,,,,,,,,,256.5300000953721,,response,,,,100,,,,,,,Space,keypress(Space),,,,,,,,-- --- ---- --- ------ ----- ------- ---- of --- ------- --<br>------- ---------- ------ -- ----- -- ----- -- ---- ------<br>--- ----- --- --- ------ -------- ----- --- ------ ----- --<br>----- ----- ---------- --- --- ------ ------ ---- -- ------<br>------- --- ------ ----- --- ---- ------- -- ---- --- --<br>------- ------,135846.5,135841.40000009537,135568.204,135569.20000004768,135584.87,135852.186,,8,of
screen,html.Screen,2_1_1_1_9,2022-04-28T11:18:53.970Z,,,,,,,,,,,,,,,,,54,,,,,,,,,,,,,,207.9140001430642,,response,,,,100,,,,,,,Space,keypress(Space),,,,,,,,-- --- ---- --- ------ ----- ------- ---- -- its ------- --<br>------- ---------- ------ -- ----- -- ----- -- ---- ------<br>--- ----- --- --- ------ -------- ----- --- ------ ----- --<br>----- ----- ---------- --- --- ------ ------ ---- -- ------<br>------- --- ------ ----- --- ---- ------- -- ---- --- --<br>------- ------,136065.40000009537,136060.10000014305,135835.52,135846.70000004768,135852.186,136068.844,,9,its
screen,html.Screen,2_1_1_1_10,2022-04-28T11:18:54.239Z,,,,,,,,,,,,,,,,,54,,,,,,,,,,,,,,263.456000190723,,response,,,,100,,,,,,,Space,keypress(Space),,,,,,,,-- --- ---- --- ------ ----- ------- ---- -- --- revenue --<br>------- ---------- ------ -- ----- -- ----- -- ---- ------<br>--- ----- --- --- ------ -------- ----- --- ------ ----- --<br>----- ----- ---------- --- --- ------ ------ ---- -- ------<br>------- --- ------ ----- --- ---- ------- -- ---- --- --<br>------- ------,136334.60000014305,136332.30000019073,136052.178,136065.60000014305,136068.844,136335.5,,10,revenue
screen,html.Screen,2_1_1_1_11,2022-04-28T11:18:54.495Z,,,,,,,,,,,,,,,,,54,,,,,,,,,,,,,,248.60000014305115,,response,,,,100,,,,,,,Space,keypress(Space),,,,,,,,-- --- ---- --- ------ ----- ------- ---- -- --- ------- by<br>------- ---------- ------ -- ----- -- ----- -- ---- ------<br>--- ----- --- --- ------ -------- ----- --- ------ ----- --<br>----- ----- ---------- --- --- ------ ------ ---- -- ------<br>------- --- ------ ----- --- ---- ------- -- ---- --- --<br>------- ------,136590.40000009537,136584.10000014305,136318.834,136334.70000004768,136335.5,136602.156,,11,by
screen,html.Screen,2_1_1_1_12,2022-04-28T11:18:54.795Z,,,,,,,,,,,,,,,,,54,,,,,,,,,,,,,,281.944000143063,,response,,,,100,,,,,,,Space,keypress(Space),,,,,,,,-- --- ---- --- ------ ----- ------- ---- -- --- ------- --<br>issuing ---------- ------ -- ----- -- ----- -- ---- ------<br>--- ----- --- --- ------ -------- ----- --- ------ ----- --<br>----- ----- ---------- --- --- ------ ------ ---- -- ------<br>------- --- ------ ----- --- ---- ------- -- ---- --- --<br>------- ------,136890.60000014305,136884.10000014305,136585.49,136590.80000019073,136602.156,136902.144,,12,issuing
screen,html.Screen,2_1_1_1_13,2022-04-28T11:18:55.007Z,,,,,,,,,,,,,,,,,54,,,,,,,,,,,,,,194.55600004768348,,response,,,,100,,,,,,,Space,keypress(Space),,,,,,,,-- --- ---- --- ------ ----- ------- ---- -- --- ------- --<br>------- government ------ -- ----- -- ----- -- ---- ------<br>--- ----- --- --- ------ -------- ----- --- ------ ----- --<br>----- ----- ---------- --- --- ------ ------ ---- -- ------<br>------- --- ------ ----- --- ---- ------- -- ---- --- --<br>------- ------,137102.10000014305,137096.70000004768,136885.478,136890.90000009537,136902.144,137118.802,,13,government
screen,html.Screen,2_1_1_1_14,2022-04-28T11:18:55.291Z,,,,,,,,,,,,,,,,,54,,,,,,,,,,,,,,261.9980001907388,,response,,,,100,,,,,,,Space,keypress(Space),,,,,,,,-- --- ---- --- ------ ----- ------- ---- -- --- ------- --<br>------- ---------- bonds. -- ----- -- ----- -- ---- ------<br>--- ----- --- --- ------ -------- ----- --- ------ ----- --<br>----- ----- ---------- --- --- ------ ------ ---- -- ------<br>------- --- ------ ----- --- ---- ------- -- ---- --- --<br>------- ------,137386.5,137380.80000019073,137102.136,137102.30000019073,137118.802,137402.124,,14,bonds.
screen,html.Screen,2_1_1_1_15,2022-04-28T11:18:55.727Z,,,,,,,,,,,,,,,,,54,,,,,,,,,,,,,,417.97600014304044,,response,,,,100,,,,,,,Space,keypress(Space),,,,,,,,-- --- ---- --- ------ ----- ------- ---- -- --- ------- --<br>------- ---------- ------ In ----- -- ----- -- ---- ------<br>--- ----- --- --- ------ -------- ----- --- ------ ----- --<br>----- ----- ---------- --- --- ------ ------ ---- -- ------<br>------- --- ------ ----- --- ---- ------- -- ---- --- --<br>------- ------,137822.40000009537,137820.10000014305,137385.458,137386.70000004768,137402.124,137835.44,,15,In
screen,html.Screen,2_1_1_1_16,2022-04-28T11:18:56.020Z,,,,,,,,,,,,,,,,,54,,,,,,,,,,,,,,273.86000019073253,,response,,,,100,,,,,,,Space,keypress(Space),,,,,,,,"-- --- ---- --- ------ ----- ------- ---- -- --- ------- --<br>------- ---------- ------ -- 1727, -- ----- -- ---- ------<br>--- ----- --- --- ------ -------- ----- --- ------ ----- --<br>----- ----- ---------- --- --- ------ ------ ---- -- ------<br>------- --- ------ ----- --- ---- ------- -- ---- --- --<br>------- ------",138115,138109.30000019073,137818.774,137822.5,137835.44,138118.762,,16,"1727,"
screen,html.Screen,2_1_1_1_17,2022-04-28T11:18:56.540Z,,,,,,,,,,,,,,,,,54,,,,,,,,,,,,,,511.4380000476958,,response,,,,100,,,,,,,Space,keypress(Space),,,,,,,,-- --- ---- --- ------ ----- ------- ---- -- --- ------- --<br>------- ---------- ------ -- ----- in ----- -- ---- ------<br>--- ----- --- --- ------ -------- ----- --- ------ ----- --<br>----- ----- ---------- --- --- ------ ------ ---- -- ------<br>------- --- ------ ----- --- ---- ------- -- ---- --- --<br>------- ------,138635.5,138630.20000004768,138102.096,138115.20000004768,138118.762,138652.074,,17,in
screen,html.Screen,2_1_1_1_18,2022-04-28T11:18:57.027Z,,,,,,,,,,,,,,,,,54,,,,,,,,,,,,,,467.2260001907416,,response,,,,100,,,,,,,Space,keypress(Space),,,,,,,,-- --- ---- --- ------ ----- ------- ---- -- --- ------- --<br>------- ---------- ------ -- ----- -- order -- ---- ------<br>--- ----- --- --- ------ -------- ----- --- ------ ----- --<br>----- ----- ---------- --- --- ------ ------ ---- -- ------<br>------- --- ------ ----- --- ---- ------- -- ---- --- --<br>------- ------,139122,139119.30000019073,138635.408,138635.90000009537,138652.074,139135.388,,18,order
screen,html.Screen,2_1_1_1_19,2022-04-28T11:18:57.238Z,,,,,,,,,,,,,,,,,54,,,,,,,,,,,,,,195.31200004767743,,response,,,,100,,,,,,,Space,keypress(Space),,,,,,,,-- --- ---- --- ------ ----- ------- ---- -- --- ------- --<br>------- ---------- ------ -- ----- -- ----- to ---- ------<br>--- ----- --- --- ------ -------- ----- --- ------ ----- --<br>----- ----- ---------- --- --- ------ ------ ---- -- ------<br>------- --- ------ ----- --- ---- ------- -- ---- --- --<br>------- ------,139333.90000009537,139330.70000004768,139118.722,139122.10000014305,139135.388,139335.38,,19,to
screen,html.Screen,2_1_1_1_20,2022-04-28T11:18:57.441Z,,,,,,,,,,,,,,,,,54,,,,,,,,,,,,,,198.2200001430465,,response,,,,100,,,,,,,Space,keypress(Space),,,,,,,,-- --- ---- --- ------ ----- ------- ---- -- --- ------- --<br>------- ---------- ------ -- ----- -- ----- -- save ------<br>--- ----- --- --- ------ -------- ----- --- ------ ----- --<br>----- ----- ---------- --- --- ------ ------ ---- -- ------<br>------- --- ------ ----- --- ---- ------- -- ---- --- --<br>------- ------,139536.20000004768,139533.60000014305,139318.714,139333.90000009537,139335.38,139552.038,,20,save
screen,html.Screen,2_1_1_1_21,2022-04-28T11:18:57.810Z,,,,,,,,,,,,,,,,,54,,,,,,,,,,,,,,348.2620001907344,,response,,,,100,,,,,,,Space,keypress(Space),,,,,,,,"-- --- ---- --- ------ ----- ------- ---- -- --- ------- --<br>------- ---------- ------ -- ----- -- ----- -- ---- money,<br>--- ----- --- --- ------ -------- ----- --- ------ ----- --<br>----- ----- ---------- --- --- ------ ------ ---- -- ------<br>------- --- ------ ----- --- ---- ------- -- ---- --- --<br>------- ------",139905.80000019073,139900.30000019073,139535.372,139536.20000004768,139552.038,139918.69,,21,"money,"
screen,html.Screen,2_1_1_1_22,2022-04-28T11:18:58.590Z,,,,,,,,,,,,,,,,,54,,,,,,,,,,,,,,760.3099999999977,,response,,,,100,,,,,,,Space,keypress(Space),,,,,,,,-- --- ---- --- ------ ----- ------- ---- -- --- ------- --<br>------- ---------- ------ -- ----- -- ----- -- ---- ------<br>the ----- --- --- ------ -------- ----- --- ------ ----- --<br>----- ----- ---------- --- --- ------ ------ ---- -- ------<br>------- --- ------ ----- --- ---- ------- -- ---- --- --<br>------- ------,140685.40000009537,140679,139902.024,139906,139918.69,140701.992,,22,the
screen,html.Screen,2_1_1_1_23,2022-04-28T11:18:58.869Z,,,,,,,,,,,,,,,,,54,,,,,,,,,,,,,,258.1080001430528,,response,,,,100,,,,,,,Space,keypress(Space),,,,,,,,-- --- ---- --- ------ ----- ------- ---- -- --- ------- --<br>------- ---------- ------ -- ----- -- ----- -- ---- ------<br>--- state --- --- ------ -------- ----- --- ------ ----- --<br>----- ----- ---------- --- --- ------ ------ ---- -- ------<br>------- --- ------ ----- --- ---- ------- -- ---- --- --<br>------- ------,140964,140960.10000014305,140685.326,140685.70000004768,140701.992,140968.648,,23,state
screen,html.Screen,2_1_1_1_24,2022-04-28T11:18:59.060Z,,,,,,,,,,,,,,,,,54,,,,,,,,,,,,,,182.45200014306465,,response,,,,100,,,,,,,Space,keypress(Space),,,,,,,,-- --- ---- --- ------ ----- ------- ---- -- --- ------- --<br>------- ---------- ------ -- ----- -- ----- -- ---- ------<br>--- ----- cut --- ------ -------- ----- --- ------ ----- --<br>----- ----- ---------- --- --- ------ ------ ---- -- ------<br>------- --- ------ ----- --- ---- ------- -- ---- --- --<br>------- ------,141155,141151.10000014305,140951.982,140964.30000019073,140968.648,141168.64,,24,cut
screen,html.Screen,2_1_1_1_25,2022-04-28T11:18:59.345Z,,,,,,,,,,,,,,,,,54,,,,,,,,,,,,,,266.6600001907209,,response,,,,100,,,,,,,Space,keypress(Space),,,,,,,,-- --- ---- --- ------ ----- ------- ---- -- --- ------- --<br>------- ---------- ------ -- ----- -- ----- -- ---- ------<br>--- ----- --- the ------ -------- ----- --- ------ ----- --<br>----- ----- ---------- --- --- ------ ------ ---- -- ------<br>------- --- ------ ----- --- ---- ------- -- ---- --- --<br>------- ------,141440.90000009537,141435.30000019073,141151.974,141155.10000014305,141168.64,141451.962,,25,the
screen,html.Screen,2_1_1_1_26,2022-04-28T11:18:59.629Z,,,,,,,,,,,,,,,,,54,,,,,,,,,,,,,,266.03800000000047,,response,,,,100,,,,,,,Space,keypress(Space),,,,,,,,-- --- ---- --- ------ ----- ------- ---- -- --- ------- --<br>------- ---------- ------ -- ----- -- ----- -- ---- ------<br>--- ----- --- --- bonds' -------- ----- --- ------ ----- --<br>----- ----- ---------- --- --- ------ ------ ---- -- ------<br>------- --- ------ ----- --- ---- ------- -- ---- --- --<br>------- ------,141724.20000004768,141718,141435.296,141441.20000004768,141451.962,141735.284,,26,bonds'
screen,html.Screen,2_1_1_1_27,2022-04-28T11:19:00.013Z,,,,,,,,,,,,,,,,,54,,,,,,,,,,,,,,368.01600019072066,,response,,,,100,,,,,,,Space,keypress(Space),,,,,,,,-- --- ---- --- ------ ----- ------- ---- -- --- ------- --<br>------- ---------- ------ -- ----- -- ----- -- ---- ------<br>--- ----- --- --- ------ interest ----- --- ------ ----- --<br>----- ----- ---------- --- --- ------ ------ ---- -- ------<br>------- --- ------ ----- --- ---- ------- -- ---- --- --<br>------- ------,142108.20000004768,142103.30000019073,141718.618,141724.40000009537,141735.284,142118.602,,27,interest
screen,html.Screen,2_1_1_1_28,2022-04-28T11:19:00.382Z,,,,,,,,,,,,,,,,,54,,,,,,,,,,,,,,353.3979999999865,,response,,,,100,,,,,,,Space,keypress(Space),,,,,,,,-- --- ---- --- ------ ----- ------- ---- -- --- ------- --<br>------- ---------- ------ -- ----- -- ----- -- ---- ------<br>--- ----- --- --- ------ -------- rate. --- ------ ----- --<br>----- ----- ---------- --- --- ------ ------ ---- -- ------<br>------- --- ------ ----- --- ---- ------- -- ---- --- --<br>------- ------,142477.5,142472,142101.936,142108.5,142118.602,142485.254,,28,rate.
screen,html.Screen,2_1_1_1_29,2022-04-28T11:19:00.717Z,,,,,,,,,,,,,,,,,54,,,,,,,,,,,,,,322.0460001907486,,response,,,,100,,,,,,,Space,keypress(Space),,,,,,,,-- --- ---- --- ------ ----- ------- ---- -- --- ------- --<br>------- ---------- ------ -- ----- -- ----- -- ---- ------<br>--- ----- --- --- ------ -------- ----- The ------ ----- --<br>----- ----- ---------- --- --- ------ ------ ---- -- ------<br>------- --- ------ ----- --- ---- ------- -- ---- --- --<br>------- ------,142812.80000019073,142807.30000019073,142468.588,142477.90000009537,142485.254,142818.574,,29,The
screen,html.Screen,2_1_1_1_30,2022-04-28T11:19:01.012Z,,,,,,,,,,,,,,,,,54,,,,,,,,,,,,,,281.92600000000675,,response,,,,100,,,,,,,Space,keypress(Space),,,,,,,,-- --- ---- --- ------ ----- ------- ---- -- --- ------- --<br>------- ---------- ------ -- ----- -- ----- -- ---- ------<br>--- ----- --- --- ------ -------- ----- --- market ----- --<br>----- ----- ---------- --- --- ------ ------ ---- -- ------<br>------- --- ------ ----- --- ---- ------- -- ---- --- --<br>------- ------,143107,143100.5,142801.908,142813.20000004768,142818.574,143118.562,,30,market
screen,html.Screen,2_1_1_1_31,2022-04-28T11:19:01.345Z,,,,,,,,,,,,,,,,,54,,,,,,,,,,,,,,315.2380001907295,,response,,,,100,,,,,,,Space,keypress(Space),,,,,,,,-- --- ---- --- ------ ----- ------- ---- -- --- ------- --<br>------- ---------- ------ -- ----- -- ----- -- ---- ------<br>--- ----- --- --- ------ -------- ----- --- ------ value --<br>----- ----- ---------- --- --- ------ ------ ---- -- ------<br>------- --- ------ ----- --- ---- ------- -- ---- --- --<br>------- ------,143440.60000014305,143433.80000019073,143101.896,143107.30000019073,143118.562,143451.882,,31,value
screen,html.Screen,2_1_1_1_32,2022-04-28T11:19:01.642Z,,,,,,,,,,,,,,,,,54,,,,,,,,,,,,,,278.7180001430388,,response,,,,100,,,,,,,Space,keypress(Space),,,,,,,,-- --- ---- --- ------ ----- ------- ---- -- --- ------- --<br>------- ---------- ------ -- ----- -- ----- -- ---- ------<br>--- ----- --- --- ------ -------- ----- --- ------ ----- of<br>----- ----- ---------- --- --- ------ ------ ---- -- ------<br>------- --- ------ ----- --- ---- ------- -- ---- --- --<br>------- ------,143737.80000019073,143730.60000014305,143435.216,143440.80000019073,143451.882,143751.87,,32,of
screen,html.Screen,2_1_1_1_33,2022-04-28T11:19:01.912Z,,,,,,,,,,,,,,,,,54,,,,,,,,,,,,,,250.2300001430558,,response,,,,100,,,,,,,Space,keypress(Space),,,,,,,,-- --- ---- --- ------ ----- ------- ---- -- --- ------- --<br>------- ---------- ------ -- ----- -- ----- -- ---- ------<br>--- ----- --- --- ------ -------- ----- --- ------ ----- --<br>these ----- ---------- --- --- ------ ------ ---- -- ------<br>------- --- ------ ----- --- ---- ------- -- ---- --- --<br>------- ------,144007.70000004768,144002.10000014305,143735.204,143738.10000014305,143751.87,144018.526,,33,these
screen,html.Screen,2_1_1_1_34,2022-04-28T11:19:02.109Z,,,,,,,,,,,,,,,,,54,,,,,,,,,,,,,,180.37400009535486,,response,,,,100,,,,,,,Space,keypress(Space),,,,,,,,-- --- ---- --- ------ ----- ------- ---- -- --- ------- --<br>------- ---------- ------ -- ----- -- ----- -- ---- ------<br>--- ----- --- --- ------ -------- ----- --- ------ ----- --<br>----- bonds ---------- --- --- ------ ------ ---- -- ------<br>------- --- ------ ----- --- ---- ------- -- ---- --- --<br>------- ------,144204.40000009537,144198.90000009537,144001.86,144008,144018.526,144218.518,,34,bonds
screen,html.Screen,2_1_1_1_35,2022-04-28T11:19:02.318Z,,,,,,,,,,,,,,,,,54,,,,,,,,,,,,,,190.28200019072392,,response,,,,100,,,,,,,Space,keypress(Space),,,,,,,,"-- --- ---- --- ------ ----- ------- ---- -- --- ------- --<br>------- ---------- ------ -- ----- -- ----- -- ---- ------<br>--- ----- --- --- ------ -------- ----- --- ------ ----- --<br>----- ----- plummeted, --- --- ------ ------ ---- -- ------<br>------- --- ------ ----- --- ---- ------- -- ---- --- --<br>------- ------",144413.90000009537,144408.80000019073,144201.852,144204.5,144218.518,144418.51,,35,"plummeted,"
screen,html.Screen,2_1_1_1_36,2022-04-28T11:19:02.725Z,,,,,,,,,,,,,,,,,54,,,,,,,,,,,,,,396.8900000953581,,response,,,,100,,,,,,,Space,keypress(Space),,,,,,,,-- --- ---- --- ------ ----- ------- ---- -- --- ------- --<br>------- ---------- ------ -- ----- -- ----- -- ---- ------<br>--- ----- --- --- ------ -------- ----- --- ------ ----- --<br>----- ----- ---------- and --- ------ ------ ---- -- ------<br>------- --- ------ ----- --- ---- ------- -- ---- --- --<br>------- ------,144820.30000019073,144815.40000009537,144401.844,144414.10000014305,144418.51,144835.16,,36,and
screen,html.Screen,2_1_1_1_37,2022-04-28T11:19:02.990Z,,,,,,,,,,,,,,,,,54,,,,,,,,,,,,,,244.14000019073137,,response,,,,100,,,,,,,Space,keypress(Space),,,,,,,,-- --- ---- --- ------ ----- ------- ---- -- --- ------- --<br>------- ---------- ------ -- ----- -- ----- -- ---- ------<br>--- ----- --- --- ------ -------- ----- --- ------ ----- --<br>----- ----- ---------- --- the ------ ------ ---- -- ------<br>------- --- ------ ----- --- ---- ------- -- ---- --- --<br>------- ------,145085.5,145079.30000019073,144818.494,144820.70000004768,144835.16,145101.816,,37,the
screen,html.Screen,2_1_1_1_38,2022-04-28T11:19:03.184Z,,,,,,,,,,,,,,,,,54,,,,,,,,,,,,,,171.68400000000838,,response,,,,100,,,,,,,Space,keypress(Space),,,,,,,,-- --- ---- --- ------ ----- ------- ---- -- --- ------- --<br>------- ---------- ------ -- ----- -- ----- -- ---- ------<br>--- ----- --- --- ------ -------- ----- --- ------ ----- --<br>----- ----- ---------- --- --- market ------ ---- -- ------<br>------- --- ------ ----- --- ---- ------- -- ---- --- --<br>------- ------,145279.40000009537,145273.5,145085.15,145085.90000009537,145101.816,145285.142,,38,market
screen,html.Screen,2_1_1_1_39,2022-04-28T11:19:03.592Z,,,,,,,,,,,,,,,,,54,,,,,,,,,,,,,,396.85800000000745,,response,,,,100,,,,,,,Space,keypress(Space),,,,,,,,-- --- ---- --- ------ ----- ------- ---- -- --- ------- --<br>------- ---------- ------ -- ----- -- ----- -- ---- ------<br>--- ----- --- --- ------ -------- ----- --- ------ ----- --<br>----- ----- ---------- --- --- ------ became ---- -- ------<br>------- --- ------ ----- --- ---- ------- -- ---- --- --<br>------- ------,145687.20000004768,145682,145268.476,145279.70000004768,145285.142,145701.792,,39,became
screen,html.Screen,2_1_1_1_40,2022-04-28T11:19:03.837Z,,,,,,,,,,,,,,,,,54,,,,,,,,,,,,,,225.408000047697,,response,,,,100,,,,,,,Space,keypress(Space),,,,,,,,-- --- ---- --- ------ ----- ------- ---- -- --- ------- --<br>------- ---------- ------ -- ----- -- ----- -- ---- ------<br>--- ----- --- --- ------ -------- ----- --- ------ ----- --<br>----- ----- ---------- --- --- ------ ------ wary -- ------<br>------- --- ------ ----- --- ---- ------- -- ---- --- --<br>------- ------,145932.60000014305,145927.20000004768,145685.126,145687.60000014305,145701.792,145935.711,,40,wary
screen,html.Screen,2_1_1_1_41,2022-04-28T11:19:04.062Z,,,,,,,,,,,,,,,,,54,,,,,,,,,,,,,,216.78899999998976,,response,,,,100,,,,,,,Space,keypress(Space),,,,,,,,-- --- ---- --- ------ ----- ------- ---- -- --- ------- --<br>------- ---------- ------ -- ----- -- ----- -- ---- ------<br>--- ----- --- --- ------ -------- ----- --- ------ ----- --<br>----- ----- ---------- --- --- ------ ------ ---- of ------<br>------- --- ------ ----- --- ---- ------- -- ---- --- --<br>------- ------,146157.80000019073,146152.5,145919.045,145932.90000009537,145935.711,146169.035,,41,of
screen,html.Screen,2_1_1_1_42,2022-04-28T11:19:04.329Z,,,,,,,,,,,,,,,,,54,,,,,,,,,,,,,,249.06500014304766,,response,,,,100,,,,,,,Space,keypress(Space),,,,,,,,-- --- ---- --- ------ ----- ------- ---- -- --- ------- --<br>------- ---------- ------ -- ----- -- ----- -- ---- ------<br>--- ----- --- --- ------ -------- ----- --- ------ ----- --<br>----- ----- ---------- --- --- ------ ------ ---- -- French<br>------- --- ------ ----- --- ---- ------- -- ---- --- --<br>------- ------,146424.10000014305,146418.10000014305,146152.369,146158.10000014305,146169.035,146435.691,,42,French
screen,html.Screen,2_1_1_1_43,2022-04-28T11:19:04.653Z,,,,,,,,,,,,,,,,,54,,,,,,,,,,,,,,308.0090000476921,,response,,,,100,,,,,,,Space,keypress(Space),,,,,,,,-- --- ---- --- ------ ----- ------- ---- -- --- ------- --<br>------- ---------- ------ -- ----- -- ----- -- ---- ------<br>--- ----- --- --- ------ -------- ----- --- ------ ----- --<br>----- ----- ---------- --- --- ------ ------ ---- -- ------<br>credit. --- ------ ----- --- ---- ------- -- ---- --- --<br>------- ------,146748.90000009537,146743.70000004768,146419.025,146424.5,146435.691,146752.345,,43,credit.
screen,html.Screen,2_1_1_1_44,2022-04-28T11:19:04.963Z,,,,,,,,,,,,,,,,,54,,,,,,,,,,,,,,302.85500004768255,,response,,,,100,,,,,,,Space,keypress(Space),,,,,,,,-- --- ---- --- ------ ----- ------- ---- -- --- ------- --<br>------- ---------- ------ -- ----- -- ----- -- ---- ------<br>--- ----- --- --- ------ -------- ----- --- ------ ----- --<br>----- ----- ---------- --- --- ------ ------ ---- -- ------<br>------- The ------ ----- --- ---- ------- -- ---- --- --<br>------- ------,147058.30000019073,147055.20000004768,146735.679,146749,146752.345,147068.999,,44,The
screen,html.Screen,2_1_1_1_45,2022-04-28T11:19:05.241Z,,,,,,,,,,,,,,,,,54,,,,,,,,,,,,,,262.201000047673,,response,,,,100,,,,,,,Space,keypress(Space),,,,,,,,-- --- ---- --- ------ ----- ------- ---- -- --- ------- --<br>------- ---------- ------ -- ----- -- ----- -- ---- ------<br>--- ----- --- --- ------ -------- ----- --- ------ ----- --<br>----- ----- ---------- --- --- ------ ------ ---- -- ------<br>------- --- French ----- --- ---- ------- -- ---- --- --<br>------- ------,147336.20000004768,147331.20000004768,147052.333,147058.40000009537,147068.999,147352.321,,45,French
screen,html.Screen,2_1_1_1_46,2022-04-28T11:19:05.512Z,,,,,,,,,,,,,,,,,54,,,,,,,,,,,,,,250.07900009537116,,response,,,,100,,,,,,,Space,keypress(Space),,,,,,,,-- --- ---- --- ------ ----- ------- ---- -- --- ------- --<br>------- ---------- ------ -- ----- -- ----- -- ---- ------<br>--- ----- --- --- ------ -------- ----- --- ------ ----- --<br>----- ----- ---------- --- --- ------ ------ ---- -- ------<br>------- --- ------ state --- ---- ------- -- ---- --- --<br>------- ------,147608,147602.40000009537,147335.655,147336.5,147352.321,147618.977,,46,state
screen,html.Screen,2_1_1_1_47,2022-04-28T11:19:05.754Z,,,,,,,,,,,,,,,,,54,,,,,,,,,,,,,,225.42300009535393,,response,,,,100,,,,,,,Space,keypress(Space),,,,,,,,-- --- ---- --- ------ ----- ------- ---- -- --- ------- --<br>------- ---------- ------ -- ----- -- ----- -- ---- ------<br>--- ----- --- --- ------ -------- ----- --- ------ ----- --<br>----- ----- ---------- --- --- ------ ------ ---- -- ------<br>------- --- ------ ----- was ---- ------- -- ---- --- --<br>------- ------,147849.80000019073,147844.40000009537,147602.311,147608.40000009537,147618.977,147852.301,,47,was
screen,html.Screen,2_1_1_1_48,2022-04-28T11:19:05.998Z,,,,,,,,,,,,,,,,,54,,,,,,,,,,,,,,236.09900009536068,,response,,,,100,,,,,,,Space,keypress(Space),,,,,,,,-- --- ---- --- ------ ----- ------- ---- -- --- ------- --<br>------- ---------- ------ -- ----- -- ----- -- ---- ------<br>--- ----- --- --- ------ -------- ----- --- ------ ----- --<br>----- ----- ---------- --- --- ------ ------ ---- -- ------<br>------- --- ------ ----- --- left ------- -- ---- --- --<br>------- ------,148093.80000019073,148088.40000009537,147835.635,147850,147852.301,148102.291,,48,left
screen,html.Screen,2_1_1_1_49,2022-04-28T11:19:06.231Z,,,,,,,,,,,,,,,,,54,,,,,,,,,,,,,,219.20900000000256,,response,,,,100,,,,,,,Space,keypress(Space),,,,,,,,-- --- ---- --- ------ ----- ------- ---- -- --- ------- --<br>------- ---------- ------ -- ----- -- ----- -- ---- ------<br>--- ----- --- --- ------ -------- ----- --- ------ ----- --<br>----- ----- ---------- --- --- ------ ------ ---- -- ------<br>------- --- ------ ----- --- ---- without -- ---- --- --<br>------- ------,148326.80000019073,148321.5,148085.625,148094.10000014305,148102.291,148335.615,,49,without
screen,html.Screen,2_1_1_1_50,2022-04-28T11:19:06.456Z,,,,,,,,,,,,,,,,,54,,,,,,,,,,,,,,209.78500009537674,,response,,,,100,,,,,,,Space,keypress(Space),,,,,,,,-- --- ---- --- ------ ----- ------- ---- -- --- ------- --<br>------- ---------- ------ -- ----- -- ----- -- ---- ------<br>--- ----- --- --- ------ -------- ----- --- ------ ----- --<br>----- ----- ---------- --- --- ------ ------ ---- -- ------<br>------- --- ------ ----- --- ---- ------- an ---- --- --<br>------- ------,148551.80000019073,148545.40000009537,148318.949,148327.10000014305,148335.615,148568.939,,50,an
screen,html.Screen,2_1_1_1_51,2022-04-28T11:19:06.754Z,,,,,,,,,,,,,,,,,54,,,,,,,,,,,,,,275.2610000476707,,response,,,,100,,,,,,,Space,keypress(Space),,,,,,,,-- --- ---- --- ------ ----- ------- ---- -- --- ------- --<br>------- ---------- ------ -- ----- -- ----- -- ---- ------<br>--- ----- --- --- ------ -------- ----- --- ------ ----- --<br>----- ----- ---------- --- --- ------ ------ ---- -- ------<br>------- --- ------ ----- --- ---- ------- -- easy --- --<br>------- ------,148849.40000009537,148844.20000004768,148552.273,148552,148568.939,148852.261,,51,easy
screen,html.Screen,2_1_1_1_52,2022-04-28T11:19:07.110Z,,,,,,,,,,,,,,,,,54,,,,,,,,,,,,,,349.13900009536883,,response,,,,100,,,,,,,Space,keypress(Space),,,,,,,,-- --- ---- --- ------ ----- ------- ---- -- --- ------- --<br>------- ---------- ------ -- ----- -- ----- -- ---- ------<br>--- ----- --- --- ------ -------- ----- --- ------ ----- --<br>----- ----- ---------- --- --- ------ ------ ---- -- ------<br>------- --- ------ ----- --- ---- ------- -- ---- way --<br>------- ------,149205.70000004768,149201.40000009537,148835.595,148849.60000014305,148852.261,149218.913,,52,way
screen,html.Screen,2_1_1_1_53,2022-04-28T11:19:07.459Z,,,,,,,,,,,,,,,,,54,,,,,,,,,,,,,,329.8870001907344,,response,,,,100,,,,,,,Space,keypress(Space),,,,,,,,-- --- ---- --- ------ ----- ------- ---- -- --- ------- --<br>------- ---------- ------ -- ----- -- ----- -- ---- ------<br>--- ----- --- --- ------ -------- ----- --- ------ ----- --<br>----- ----- ---------- --- --- ------ ------ ---- -- ------<br>------- --- ------ ----- --- ---- ------- -- ---- --- of<br>------- ------,149554.30000019073,149548.80000019073,149202.247,149205.70000004768,149218.913,149568.899,,53,of
screen,html.Screen,2_1_1_1_54,2022-04-28T11:19:07.791Z,,,,,,,,,,,,,,,,,54,,,,,,,,,,,,,,313.40100019073,,response,,,,100,,,,,,,Space,keypress(Space),,,,,,,,-- --- ---- --- ------ ----- ------- ---- -- --- ------- --<br>------- ---------- ------ -- ----- -- ----- -- ---- ------<br>--- ----- --- --- ------ -------- ----- --- ------ ----- --<br>----- ----- ---------- --- --- ------ ------ ---- -- ------<br>------- --- ------ ----- --- ---- ------- -- ---- --- --<br>raising ------,149886.60000014305,149882.30000019073,149552.233,149554.60000014305,149568.899,149902.219,,54,raising
screen,html.Screen,2_1_1_1_55,2022-04-28T11:19:08.925Z,,,,,,,,,,,,,,,,,54,,,,,,,,,,,,,,1113.1810000953556,,response,,,,100,,,,,,,Space,keypress(Space),,,,,,,,-- --- ---- --- ------ ----- ------- ---- -- --- ------- --<br>------- ---------- ------ -- ----- -- ----- -- ---- ------<br>--- ----- --- --- ------ -------- ----- --- ------ ----- --<br>----- ----- ---------- --- --- ------ ------ ---- -- ------<br>------- --- ------ ----- --- ---- ------- -- ---- --- --<br>------- money.,151020.90000009537,151015.40000009537,149885.553,149886.80000019073,149902.219,151035.507,,55,money.
Item 100,flow.Loop,2_1_1_1,2022-04-28T11:19:08.926Z,,,,,,,,,,,,,,,,,,,,,,,,,,,,,,,18863.72600009537,,completion,,,,,D,,,,,,,,,,,silence,,,,,151021.40000009537,151015.40000009537,132135.008,132137.5,132151.674,151035.507,,,
Question 1,html.Screen,2_1_1_2,2022-04-28T11:19:11.918Z,,,,,,,,,,,,,,,,,,,,,,,,,,,,true,TRUE,,2972.393000095355,,response,,,,100,D,,,,,,TRUE,click #choice-1,,,,silence,,,,,154013.70000004768,154007.90000009537,151018.841,151021.60000014305,151035.507,154018.721,,,
Question 2,html.Screen,2_1_1_3,2022-04-28T11:19:13.682Z,,,,,,,,,,,,,,,,,,,,,,,,,,,,true,FALSE,,1755.7790000000095,,response,,,,100,D,,,,,,FALSE,click #choice-2,,,,silence,,,,,155778.10000014305,155774.5,154002.055,154013.80000019073,154018.721,155785.805,,,
Item 100,flow.Sequence,2_1_1,2022-04-28T11:19:13.683Z,,,,,,,,,,,,,,,,,,,,,,,,,,,,,,,33623.037,,completion,,,,,,,,,,,,,,,,,,,,,155778.30000019073,155774.5,122134.797,122143.40000009537,122151.463,155785.805,,,
End of Practice,html.Page,2_1_2,2022-04-28T11:19:17.052Z,,,,,,,,,,,,,,,,,,,,,,,,,,,,,,,3361.0950000953744,,form submission,,,,,,,,,,,,,,,,,,,,,159148.30000019073,159146.90000009537,155769.139,155778.40000009537,155785.805,159152.337,,,
Practice,flow.Sequence,2_1,2022-04-28T11:19:17.053Z,,,,,,,,,,,,,,,,,,,,,,,,,,,,,,,75113.44700009537,,completion,,,,,,,,,,,,,,,,,,,,,159148.5,159146.90000009537,84016.787,84031.40000009537,84033.453,159152.337,,,
Trap_instruction,html.Page,2_2_0,2022-04-28T11:19:19.298Z,,,,,,,,,,,,,,,,,,,,,,,,,,,,,,,2240.7630001430516,,form submission,,,,,,,,,,,,,,,,,,,,,161393.40000009537,161393.10000014305,159135.671,159148.70000004768,159152.337,161402.247,,,
trap_trial,html.Screen,2_2_1,2022-04-28T11:19:21.933Z,,,,,,,,,,,,,,,,,,,,,,,,,,,,true,1,,2622.353000143048,,response,,,,,,,,,,,1,click #choice-1,,,,,,,,,164028.40000009537,164024.60000014305,161385.581,161393.5,161402.247,164035.475,,,
end of trap trial,html.Page,2_2_2,2022-04-28T11:19:23.551Z,,,,,,,,,,,,,,,,,,,,,,,,,,,,,,,1611.225000047678,,form submission,,,,,,,,,,,,,,,,,,,,,165647.20000004768,165646.70000004768,164018.809,164028.60000014305,164035.475,165652.077,,,
Trap 1,flow.Sequence,2_2,2022-04-28T11:19:23.551Z,,,,,,,,,,,,,,,,,,,,,,,,,,,,,,,6494.363000047684,,completion,,,,,,,,,,,,,,,,,,,,,165647.40000009537,165646.70000004768,159135.671,159148.70000004768,159152.337,165652.077,,,
Standby,html.Page,2_3_0,2022-04-28T11:19:31.541Z,,,,,,,,,,,,,,,,,,,,,,,,,,,,,,,7999.680000000022,,timeout,,,,,,,,,,,,,,,,,,,,,173637.5,173635.091,165635.411,165647.60000014305,165652.077,173651.757,,,
Holding screen,html.Screen,2_3_1_0_0,2022-04-28T11:19:38.543Z,,,,,,,,,,,,,,,,,,,,,,,,,,,,,,,7001.084999999992,,timeout,,,,,,,,,,,,,,,,,,,,,180638.80000019073,180636.176,173635.091,173638,173651.757,180652.842,,,
screen,html.Screen,2_3_1_0_1_0,2022-04-28T11:19:40.019Z,,,,,,,,,,,,,,,,,40,,,,,,,,,,,,,,1452.4580001907307,,response,,,,9,D,,,,,,Space,keypress(Space),,,,speech,,,,Police -- ------- ---- ---- ---- - -------- ----- --- --<br>----- ----- ------ -- ---- -- --- - ---- -- - ----- -----<br>------ ---- ------ ---- - -------- ------- -- --- --------<br>-------- ----------- ---- ------ ---- ------ ---- --- ---<br>-------- --- -----,182115.70000004768,182105.30000019073,180636.176,180639.40000009537,180652.842,182119.45,,0,Police
screen,html.Screen,2_3_1_0_1_1,2022-04-28T11:19:40.419Z,,,,,,,,,,,,,,,,,40,,,,,,,,,,,,,,390.4500000953558,,response,,,,9,D,,,,,,Space,keypress(Space),,,,speech,,,,------ in ------- ---- ---- ---- - -------- ----- --- --<br>----- ----- ------ -- ---- -- --- - ---- -- - ----- -----<br>------ ---- ------ ---- - -------- ------- -- --- --------<br>-------- ----------- ---- ------ ---- ------ ---- --- ---<br>-------- --- -----,182515.40000009537,182509.90000009537,182102.784,182115.80000019073,182119.45,182519.434,,1,in
screen,html.Screen,2_3_1_0_1_2,2022-04-28T11:19:40.769Z,,,,,,,,,,,,,,,,,40,,,,,,,,,,,,,,340.16600014304277,,response,,,,9,D,,,,,,Space,keypress(Space),,,,speech,,,,------ -- Georgia ---- ---- ---- - -------- ----- --- --<br>----- ----- ------ -- ---- -- --- - ---- -- - ----- -----<br>------ ---- ------ ---- - -------- ------- -- --- --------<br>-------- ----------- ---- ------ ---- ------ ---- --- ---<br>-------- --- -----,182864.80000019073,182859.60000014305,182502.768,182515.70000004768,182519.434,182869.42,,2,Georgia
screen,html.Screen,2_3_1_0_1_3,2022-04-28T11:19:41.070Z,,,,,,,,,,,,,,,,,40,,,,,,,,,,,,,,291.7800000476709,,response,,,,9,D,,,,,,Space,keypress(Space),,,,speech,,,,------ -- ------- have ---- ---- - -------- ----- --- --<br>----- ----- ------ -- ---- -- --- - ---- -- - ----- -----<br>------ ---- ------ ---- - -------- ------- -- --- --------<br>-------- ----------- ---- ------ ---- ------ ---- --- ---<br>-------- --- -----,183166.70000004768,183161.20000004768,182852.754,182865.10000014305,182869.42,183169.408,,3,have
screen,html.Screen,2_3_1_0_1_4,2022-04-28T11:19:41.366Z,,,,,,,,,,,,,,,,,40,,,,,,,,,,,,,,287.4920000953716,,response,,,,9,D,,,,,,Space,keypress(Space),,,,speech,,,,------ -- ------- ---- shut ---- - -------- ----- --- --<br>----- ----- ------ -- ---- -- --- - ---- -- - ----- -----<br>------ ---- ------ ---- - -------- ------- -- --- --------<br>-------- ----------- ---- ------ ---- ------ ---- --- ---<br>-------- --- -----,183462.20000004768,183456.90000009537,183152.742,183167,183169.408,183469.396,,4,shut
screen,html.Screen,2_3_1_0_1_5,2022-04-28T11:19:41.684Z,,,,,,,,,,,,,,,,,40,,,,,,,,,,,,,,305.1039999999921,,response,,,,9,D,,,,,,Space,keypress(Space),,,,speech,,,,------ -- ------- ---- ---- down - -------- ----- --- --<br>----- ----- ------ -- ---- -- --- - ---- -- - ----- -----<br>------ ---- ------ ---- - -------- ------- -- --- --------<br>-------- ----------- ---- ------ ---- ------ ---- --- ---<br>-------- --- -----,183780.20000004768,183774.5,183452.73,183462.5,183469.396,183786.05,,5,down
screen,html.Screen,2_3_1_0_1_6,2022-04-28T11:19:41.957Z,,,,,,,,,,,,,,,,,40,,,,,,,,,,,,,,260.5500001430628,,response,,,,9,D,,,,,,Space,keypress(Space),,,,speech,,,,------ -- ------- ---- ---- ---- a -------- ----- --- --<br>----- ----- ------ -- ---- -- --- - ---- -- - ----- -----<br>------ ---- ------ ---- - -------- ------- -- --- --------<br>-------- ----------- ---- ------ ---- ------ ---- --- ---<br>-------- --- -----,184053,184046.60000014305,183769.384,183780.5,183786.05,184069.372,,6,a
screen,html.Screen,2_3_1_0_1_7,2022-04-28T11:19:42.603Z,,,,,,,,,,,,,,,,,40,,,,,,,,,,,,,,624.2280001430481,,response,,,,9,D,,,,,,Space,keypress(Space),,,,speech,,,,------ -- ------- ---- ---- ---- - lemonade ----- --- --<br>----- ----- ------ -- ---- -- --- - ---- -- - ----- -----<br>------ ---- ------ ---- - -------- ------- -- --- --------<br>-------- ----------- ---- ------ ---- ------ ---- --- ---<br>-------- --- -----,184699,184693.60000014305,184052.706,184053.30000019073,184069.372,184702.68,,7,lemonade
screen,html.Screen,2_3_1_0_1_8,2022-04-28T11:19:42.869Z,,,,,,,,,,,,,,,,,40,,,,,,,,,,,,,,258.2200000953744,,response,,,,9,D,,,,,,Space,keypress(Space),,,,speech,,,,------ -- ------- ---- ---- ---- - -------- stand --- --<br>----- ----- ------ -- ---- -- --- - ---- -- - ----- -----<br>------ ---- ------ ---- - -------- ------- -- --- --------<br>-------- ----------- ---- ------ ---- ------ ---- --- ---<br>-------- --- -----,184964.80000019073,184960.90000009537,184686.014,184699.30000019073,184702.68,184969.336,,8,stand
screen,html.Screen,2_3_1_0_1_9,2022-04-28T11:19:43.177Z,,,,,,,,,,,,,,,,,40,,,,,,,,,,,,,,298.4640001907246,,response,,,,9,D,,,,,,Space,keypress(Space),,,,speech,,,,------ -- ------- ---- ---- ---- - -------- ----- run --<br>----- ----- ------ -- ---- -- --- - ---- -- - ----- -----<br>------ ---- ------ ---- - -------- ------- -- --- --------<br>-------- ----------- ---- ------ ---- ------ ---- --- ---<br>-------- --- -----,185273.5,185267.80000019073,184952.67,184965,184969.336,185285.99,,9,run
screen,html.Screen,2_3_1_0_1_10,2022-04-28T11:19:43.650Z,,,,,,,,,,,,,,,,,40,,,,,,,,,,,,,,454.61000014306046,,response,,,,9,D,,,,,,Space,keypress(Space),,,,speech,,,,------ -- ------- ---- ---- ---- - -------- ----- --- by<br>----- ----- ------ -- ---- -- --- - ---- -- - ----- -----<br>------ ---- ------ ---- - -------- ------- -- --- --------<br>-------- ----------- ---- ------ ---- ------ ---- --- ---<br>-------- --- -----,185746.40000009537,185740.60000014305,185269.324,185274,185285.99,185752.638,,10,by
screen,html.Screen,2_3_1_0_1_11,2022-04-28T11:19:43.879Z,,,,,,,,,,,,,,,,,40,,,,,,,,,,,,,,216.76200009536115,,response,,,,9,D,,,,,,Space,keypress(Space),,,,speech,,,,------ -- ------- ---- ---- ---- - -------- ----- --- --<br>three ----- ------ -- ---- -- --- - ---- -- - ----- -----<br>------ ---- ------ ---- - -------- ------- -- --- --------<br>-------- ----------- ---- ------ ---- ------ ---- --- ---<br>-------- --- -----,185974.90000009537,185969.40000009537,185735.972,185746.70000004768,185752.638,185985.962,,11,three
screen,html.Screen,2_3_1_0_1_12,2022-04-28T11:19:44.132Z,,,,,,,,,,,,,,,,,40,,,,,,,,,,,,,,236.6380001430516,,response,,,,9,D,,,,,,Space,keypress(Space),,,,speech,,,,------ -- ------- ---- ---- ---- - -------- ----- --- --<br>----- girls ------ -- ---- -- --- - ---- -- - ----- -----<br>------ ---- ------ ---- - -------- ------- -- --- --------<br>-------- ----------- ---- ------ ---- ------ ---- --- ---<br>-------- --- -----,186228,186222.60000014305,185969.296,185975.30000019073,185985.962,186235.952,,12,girls
screen,html.Screen,2_3_1_0_1_13,2022-04-28T11:19:44.398Z,,,,,,,,,,,,,,,,,40,,,,,,,,,,,,,,252.64800014306093,,response,,,,9,D,,,,,,Space,keypress(Space),,,,speech,,,,------ -- ------- ---- ---- ---- - -------- ----- --- --<br>----- ----- trying -- ---- -- --- - ---- -- - ----- -----<br>------ ---- ------ ---- - -------- ------- -- --- --------<br>-------- ----------- ---- ------ ---- ------ ---- --- ---<br>-------- --- -----,186494,186488.60000014305,186219.286,186228.10000014305,186235.952,186502.608,,13,trying
screen,html.Screen,2_3_1_0_1_14,2022-04-28T11:19:44.619Z,,,,,,,,,,,,,,,,,40,,,,,,,,,,,,,,207.6920001907274,,response,,,,9,D,,,,,,Space,keypress(Space),,,,speech,,,,------ -- ------- ---- ---- ---- - -------- ----- --- --<br>----- ----- ------ to ---- -- --- - ---- -- - ----- -----<br>------ ---- ------ ---- - -------- ------- -- --- --------<br>-------- ----------- ---- ------ ---- ------ ---- --- ---<br>-------- --- -----,186715.80000019073,186710.30000019073,186485.942,186494.30000019073,186502.608,186719.266,,14,to
screen,html.Screen,2_3_1_0_1_15,2022-04-28T11:19:44.848Z,,,,,,,,,,,,,,,,,40,,,,,,,,,,,,,,219.5340001907316,,response,,,,9,D,,,,,,Space,keypress(Space),,,,speech,,,,------ -- ------- ---- ---- ---- - -------- ----- --- --<br>----- ----- ------ -- save -- --- - ---- -- - ----- -----<br>------ ---- ------ ---- - -------- ------- -- --- --------<br>-------- ----------- ---- ------ ---- ------ ---- --- ---<br>-------- --- -----,186944.30000019073,186938.80000019073,186702.6,186716,186719.266,186952.59,,15,save
screen,html.Screen,2_3_1_0_1_16,2022-04-28T11:19:45.080Z,,,,,,,,,,,,,,,,,40,,,,,,,,,,,,,,218.81000009537092,,response,,,,9,D,,,,,,Space,keypress(Space),,,,speech,,,,------ -- ------- ---- ---- ---- - -------- ----- --- --<br>----- ----- ------ -- ---- up --- - ---- -- - ----- -----<br>------ ---- ------ ---- - -------- ------- -- --- --------<br>-------- ----------- ---- ------ ---- ------ ---- --- ---<br>-------- --- -----,187176.80000019073,187171.40000009537,186935.924,186944.5,186952.59,187186.513,,16,up
screen,html.Screen,2_3_1_0_1_17,2022-04-28T11:19:45.304Z,,,,,,,,,,,,,,,,,40,,,,,,,,,,,,,,208.38700009536115,,response,,,,9,D,,,,,,Space,keypress(Space),,,,speech,,,,------ -- ------- ---- ---- ---- - -------- ----- --- --<br>----- ----- ------ -- ---- -- for - ---- -- - ----- -----<br>------ ---- ------ ---- - -------- ------- -- --- --------<br>-------- ----------- ---- ------ ---- ------ ---- --- ---<br>-------- --- -----,187400.10000014305,187394.90000009537,187169.847,187177.10000014305,187186.513,187403.171,,17,for
screen,html.Screen,2_3_1_0_1_18,2022-04-28T11:19:45.511Z,,,,,,,,,,,,,,,,,40,,,,,,,,,,,,,,198.12900019073277,,response,,,,9,D,,,,,,Space,keypress(Space),,,,speech,,,,------ -- ------- ---- ---- ---- - -------- ----- --- --<br>----- ----- ------ -- ---- -- --- a ---- -- - ----- -----<br>------ ---- ------ ---- - -------- ------- -- --- --------<br>-------- ----------- ---- ------ ---- ------ ---- --- ---<br>-------- --- -----,187607,187601.30000019073,187386.505,187400.40000009537,187403.171,187619.829,,18,a
screen,html.Screen,2_3_1_0_1_19,2022-04-28T11:19:45.704Z,,,,,,,,,,,,,,,,,40,,,,,,,,,,,,,,174.77100014305324,,response,,,,9,D,,,,,,Space,keypress(Space),,,,speech,,,,------ -- ------- ---- ---- ---- - -------- ----- --- --<br>----- ----- ------ -- ---- -- --- - trip -- - ----- -----<br>------ ---- ------ ---- - -------- ------- -- --- --------<br>-------- ----------- ---- ------ ---- ------ ---- --- ---<br>-------- --- -----,187799.90000009537,187794.60000014305,187603.163,187607.30000019073,187619.829,187803.155,,19,trip
screen,html.Screen,2_3_1_0_1_20,2022-04-28T11:19:45.898Z,,,,,,,,,,,,,,,,,40,,,,,,,,,,,,,,184.84500000000116,,response,,,,9,D,,,,,,Space,keypress(Space),,,,speech,,,,------ -- ------- ---- ---- ---- - -------- ----- --- --<br>----- ----- ------ -- ---- -- --- - ---- to - ----- -----<br>------ ---- ------ ---- - -------- ------- -- --- --------<br>-------- ----------- ---- ------ ---- ------ ---- --- ---<br>-------- --- -----,187994.20000004768,187988,187786.489,187800.20000004768,187803.155,188003.147,,20,to
screen,html.Screen,2_3_1_0_1_21,2022-04-28T11:19:46.124Z,,,,,,,,,,,,,,,,,40,,,,,,,,,,,,,,212.0530000476865,,response,,,,9,D,,,,,,Space,keypress(Space),,,,speech,,,,------ -- ------- ---- ---- ---- - -------- ----- --- --<br>----- ----- ------ -- ---- -- --- - ---- -- a ----- -----<br>------ ---- ------ ---- - -------- ------- -- --- --------<br>-------- ----------- ---- ------ ---- ------ ---- --- ---<br>-------- --- -----,188220.5,188215.20000004768,187986.481,187995.80000019073,188003.147,188236.471,,21,a
screen,html.Screen,2_3_1_0_1_22,2022-04-28T11:19:46.478Z,,,,,,,,,,,,,,,,,40,,,,,,,,,,,,,,331.52900000000955,,response,,,,9,D,,,,,,Space,keypress(Space),,,,speech,,,,------ -- ------- ---- ---- ---- - -------- ----- --- --<br>----- ----- ------ -- ---- -- --- - ---- -- - water -----<br>------ ---- ------ ---- - -------- ------- -- --- --------<br>-------- ----------- ---- ------ ---- ------ ---- --- ---<br>-------- --- -----,188574.10000014305,188568,188219.805,188220.90000009537,188236.471,188586.457,,22,water
screen,html.Screen,2_3_1_0_1_23,2022-04-28T11:19:46.812Z,,,,,,,,,,,,,,,,,40,,,,,,,,,,,,,,316.94300009537255,,response,,,,9,D,,,,,,Space,keypress(Space),,,,speech,,,,"------ -- ------- ---- ---- ---- - -------- ----- --- --<br>----- ----- ------ -- ---- -- --- - ---- -- - ----- park,<br>------ ---- ------ ---- - -------- ------- -- --- --------<br>-------- ----------- ---- ------ ---- ------ ---- --- ---<br>-------- --- -----",188908.60000014305,188903.40000009537,188569.791,188574.40000009537,188586.457,188919.777,,23,"park,"
screen,html.Screen,2_3_1_0_1_24,2022-04-28T11:19:47.133Z,,,,,,,,,,,,,,,,,40,,,,,,,,,,,,,,304.22299999999814,,response,,,,9,D,,,,,,Space,keypress(Space),,,,speech,,,,------ -- ------- ---- ---- ---- - -------- ----- --- --<br>----- ----- ------ -- ---- -- --- - ---- -- - ----- -----<br>saying ---- ------ ---- - -------- ------- -- --- --------<br>-------- ----------- ---- ------ ---- ------ ---- --- ---<br>-------- --- -----,189229.5,189224,188903.111,188909,188919.777,189236.431,,24,saying
screen,html.Screen,2_3_1_0_1_25,2022-04-28T11:19:47.387Z,,,,,,,,,,,,,,,,,40,,,,,,,,,,,,,,241.16900014303974,,response,,,,9,D,,,,,,Space,keypress(Space),,,,speech,,,,------ -- ------- ---- ---- ---- - -------- ----- --- --<br>----- ----- ------ -- ---- -- --- - ---- -- - ----- -----<br>------ they ------ ---- - -------- ------- -- --- --------<br>-------- ----------- ---- ------ ---- ------ ---- --- ---<br>-------- --- -----,189483.20000004768,189477.60000014305,189219.765,189229.70000004768,189236.431,189486.421,,25,they
screen,html.Screen,2_3_1_0_1_26,2022-04-28T11:19:47.586Z,,,,,,,,,,,,,,,,,40,,,,,,,,,,,,,,190.27900004768162,,response,,,,9,D,,,,,,Space,keypress(Space),,,,speech,,,,------ -- ------- ---- ---- ---- - -------- ----- --- --<br>----- ----- ------ -- ---- -- --- - ---- -- - ----- -----<br>------ ---- didn't ---- - -------- ------- -- --- --------<br>-------- ----------- ---- ------ ---- ------ ---- --- ---<br>-------- --- -----,189682.30000019073,189676.70000004768,189469.755,189483.30000019073,189486.421,189686.413,,26,didn't
screen,html.Screen,2_3_1_0_1_27,2022-04-28T11:19:47.799Z,,,,,,,,,,,,,,,,,40,,,,,,,,,,,,,,202.28700004768325,,response,,,,9,D,,,,,,Space,keypress(Space),,,,speech,,,,------ -- ------- ---- ---- ---- - -------- ----- --- --<br>----- ----- ------ -- ---- -- --- - ---- -- - ----- -----<br>------ ---- ------ have - -------- ------- -- --- --------<br>-------- ----------- ---- ------ ---- ------ ---- --- ---<br>-------- --- -----,189895,189888.70000004768,189669.747,189682.5,189686.413,189903.071,,27,have
screen,html.Screen,2_3_1_0_1_28,2022-04-28T11:19:48.111Z,,,,,,,,,,,,,,,,,40,,,,,,,,,,,,,,298.12900004768744,,response,,,,9,D,,,,,,Space,keypress(Space),,,,speech,,,,------ -- ------- ---- ---- ---- - -------- ----- --- --<br>----- ----- ------ -- ---- -- --- - ---- -- - ----- -----<br>------ ---- ------ ---- a -------- ------- -- --- --------<br>-------- ----------- ---- ------ ---- ------ ---- --- ---<br>-------- --- -----,190207.5,190201.20000004768,189886.405,189895.20000004768,189903.071,190219.725,,28,a
screen,html.Screen,2_3_1_0_1_29,2022-04-28T11:19:48.365Z,,,,,,,,,,,,,,,,,40,,,,,,,,,,,,,,236.4750000476779,,response,,,,9,D,,,,,,Space,keypress(Space),,,,speech,,,,------ -- ------- ---- ---- ---- - -------- ----- --- --<br>----- ----- ------ -- ---- -- --- - ---- -- - ----- -----<br>------ ---- ------ ---- - business ------- -- --- --------<br>-------- ----------- ---- ------ ---- ------ ---- --- ---<br>-------- --- -----,190461.90000009537,190456.20000004768,190203.059,190207.80000019073,190219.725,190469.715,,29,business
screen,html.Screen,2_3_1_0_1_30,2022-04-28T11:19:48.723Z,,,,,,,,,,,,,,,,,40,,,,,,,,,,,,,,344.38500014305464,,response,,,,9,D,,,,,,Space,keypress(Space),,,,speech,,,,------ -- ------- ---- ---- ---- - -------- ----- --- --<br>----- ----- ------ -- ---- -- --- - ---- -- - ----- -----<br>------ ---- ------ ---- - -------- license -- --- --------<br>-------- ----------- ---- ------ ---- ------ ---- --- ---<br>-------- --- -----,190819.70000004768,190814.10000014305,190453.049,190462.20000004768,190469.715,190836.367,,30,license
screen,html.Screen,2_3_1_0_1_31,2022-04-28T11:19:48.969Z,,,,,,,,,,,,,,,,,40,,,,,,,,,,,,,,223.63300000000163,,response,,,,9,D,,,,,,Space,keypress(Space),,,,speech,,,,------ -- ------- ---- ---- ---- - -------- ----- --- --<br>----- ----- ------ -- ---- -- --- - ---- -- - ----- -----<br>------ ---- ------ ---- - -------- ------- or --- --------<br>-------- ----------- ---- ------ ---- ------ ---- --- ---<br>-------- --- -----,191065.40000009537,191060,190819.701,190820.10000014305,190836.367,191069.691,,31,or
screen,html.Screen,2_3_1_0_1_32,2022-04-28T11:19:49.178Z,,,,,,,,,,,,,,,,,40,,,,,,,,,,,,,,198.7090000953758,,response,,,,9,D,,,,,,Space,keypress(Space),,,,speech,,,,------ -- ------- ---- ---- ---- - -------- ----- --- --<br>----- ----- ------ -- ---- -- --- - ---- -- - ----- -----<br>------ ---- ------ ---- - -------- ------- -- the --------<br>-------- ----------- ---- ------ ---- ------ ---- --- ---<br>-------- --- -----,191274.40000009537,191268.40000009537,191053.025,191065.80000019073,191069.691,191286.349,,32,the
screen,html.Screen,2_3_1_0_1_33,2022-04-28T11:19:49.387Z,,,,,,,,,,,,,,,,,40,,,,,,,,,,,,,,191.55100009538,,response,,,,9,D,,,,,,Space,keypress(Space),,,,speech,,,,------ -- ------- ---- ---- ---- - -------- ----- --- --<br>----- ----- ------ -- ---- -- --- - ---- -- - ----- -----<br>------ ---- ------ ---- - -------- ------- -- --- required<br>-------- ----------- ---- ------ ---- ------ ---- --- ---<br>-------- --- -----,191483.30000019073,191477.90000009537,191269.683,191274.70000004768,191286.349,191486.341,,33,required
screen,html.Screen,2_3_1_0_1_34,2022-04-28T11:19:49.683Z,,,,,,,,,,,,,,,,,40,,,,,,,,,,,,,,287.05900009538163,,response,,,,9,D,,,,,,Space,keypress(Space),,,,speech,,,,------ -- ------- ---- ---- ---- - -------- ----- --- --<br>----- ----- ------ -- ---- -- --- - ---- -- - ----- -----<br>------ ---- ------ ---- - -------- ------- -- --- --------<br>permits. ----------- ---- ------ ---- ------ ---- --- ---<br>-------- --- -----,191779.10000014305,191773.40000009537,191469.675,191483.60000014305,191486.341,191786.329,,34,permits.
screen,html.Screen,2_3_1_0_1_35,2022-04-28T11:19:49.919Z,,,,,,,,,,,,,,,,,40,,,,,,,,,,,,,,222.6710000000021,,response,,,,9,D,,,,,,Space,keypress(Space),,,,speech,,,,------ -- ------- ---- ---- ---- - -------- ----- --- --<br>----- ----- ------ -- ---- -- --- - ---- -- - ----- -----<br>------ ---- ------ ---- - -------- ------- -- --- --------<br>-------- Morningstar ---- ------ ---- ------ ---- --- ---<br>-------- --- -----,192015,192009,191769.663,191779.40000009537,191786.329,192019.653,,35,Morningstar
screen,html.Screen,2_3_1_0_1_36,2022-04-28T11:19:50.425Z,,,,,,,,,,,,,,,,,40,,,,,,,,,,,,,,495.04700004769256,,response,,,,9,D,,,,,,Space,keypress(Space),,,,speech,,,,------ -- ------- ---- ---- ---- - -------- ----- --- --<br>----- ----- ------ -- ---- -- --- - ---- -- - ----- -----<br>------ ---- ------ ---- - -------- ------- -- --- --------<br>-------- ----------- says ------ ---- ------ ---- --- ---<br>-------- --- -----,192521.80000019073,192514.70000004768,192002.987,192015.10000014305,192019.653,192536.299,,36,says
screen,html.Screen,2_3_1_0_1_37,2022-04-28T11:19:50.678Z,,,,,,,,,,,,,,,,,40,,,,,,,,,,,,,,232.30100014305208,,response,,,,9,D,,,,,,Space,keypress(Space),,,,speech,,,,------ -- ------- ---- ---- ---- - -------- ----- --- --<br>----- ----- ------ -- ---- -- --- - ---- -- - ----- -----<br>------ ---- ------ ---- - -------- ------- -- --- --------<br>-------- ----------- ---- police ---- ------ ---- --- ---<br>-------- --- -----,192774.80000019073,192768.60000014305,192519.633,192522.20000004768,192536.299,192786.289,,37,police
screen,html.Screen,2_3_1_0_1_38,2022-04-28T11:19:50.877Z,,,,,,,,,,,,,,,,,40,,,,,,,,,,,,,,181.91100004769396,,response,,,,9,D,,,,,,Space,keypress(Space),,,,speech,,,,------ -- ------- ---- ---- ---- - -------- ----- --- --<br>----- ----- ------ -- ---- -- --- - ---- -- - ----- -----<br>------ ---- ------ ---- - -------- ------- -- --- --------<br>-------- ----------- ---- ------ also ------ ---- --- ---<br>-------- --- -----,192973.20000004768,192968.20000004768,192769.623,192775.10000014305,192786.289,192986.281,,38,also
screen,html.Screen,2_3_1_0_1_39,2022-04-28T11:19:51.066Z,,,,,,,,,,,,,,,,,40,,,,,,,,,,,,,,171.6190000953793,,response,,,,9,D,,,,,,Space,keypress(Space),,,,speech,,,,------ -- ------- ---- ---- ---- - -------- ----- --- --<br>----- ----- ------ -- ---- -- --- - ---- -- - ----- -----<br>------ ---- ------ ---- - -------- ------- -- --- --------<br>-------- ----------- ---- ------ ---- didn't ---- --- ---<br>-------- --- -----,193162.30000019073,193157.90000009537,192969.615,192973.30000019073,192986.281,193169.607,,39,didn't
screen,html.Screen,2_3_1_0_1_40,2022-04-28T11:19:51.323Z,,,,,,,,,,,,,,,,,40,,,,,,,,,,,,,,243.4930001430621,,response,,,,9,D,,,,,,Space,keypress(Space),,,,speech,,,,------ -- ------- ---- ---- ---- - -------- ----- --- --<br>----- ----- ------ -- ---- -- --- - ---- -- - ----- -----<br>------ ---- ------ ---- - -------- ------- -- --- --------<br>-------- ----------- ---- ------ ---- ------ know --- ---<br>-------- --- -----,193419.5,193413.10000014305,193152.941,193162.5,193169.607,193436.263,,40,know
screen,html.Screen,2_3_1_0_1_41,2022-04-28T11:19:51.613Z,,,,,,,,,,,,,,,,,40,,,,,,,,,,,,,,267.13700009536115,,response,,,,9,D,,,,,,Space,keypress(Space),,,,speech,,,,------ -- ------- ---- ---- ---- - -------- ----- --- --<br>----- ----- ------ -- ---- -- --- - ---- -- - ----- -----<br>------ ---- ------ ---- - -------- ------- -- --- --------<br>-------- ----------- ---- ------ ---- ------ ---- how ---<br>-------- --- -----,193709,193703.40000009537,193419.597,193419.80000019073,193436.263,193719.585,,41,how
screen,html.Screen,2_3_1_0_1_42,2022-04-28T11:19:51.898Z,,,,,,,,,,,,,,,,,40,,,,,,,,,,,,,,269.61500004769186,,response,,,,9,D,,,,,,Space,keypress(Space),,,,speech,,,,------ -- ------- ---- ---- ---- - -------- ----- --- --<br>----- ----- ------ -- ---- -- --- - ---- -- - ----- -----<br>------ ---- ------ ---- - -------- ------- -- --- --------<br>-------- ----------- ---- ------ ---- ------ ---- --- the<br>-------- --- -----,193994.5,193989.20000004768,193702.919,193709.40000009537,193719.585,194002.907,,42,the
screen,html.Screen,2_3_1_0_1_43,2022-04-28T11:19:52.179Z,,,,,,,,,,,,,,,,,40,,,,,,,,,,,,,,267.0929999999935,,response,,,,9,D,,,,,,Space,keypress(Space),,,,speech,,,,------ -- ------- ---- ---- ---- - -------- ----- --- --<br>----- ----- ------ -- ---- -- --- - ---- -- - ----- -----<br>------ ---- ------ ---- - -------- ------- -- --- --------<br>-------- ----------- ---- ------ ---- ------ ---- --- ---<br>lemonade --- -----,194275.70000004768,194270,193986.241,193994.80000019073,194002.907,194286.229,,43,lemonade
screen,html.Screen,2_3_1_0_1_44,2022-04-28T11:19:52.519Z,,,,,,,,,,,,,,,,,40,,,,,,,,,,,,,,323.5710001907428,,response,,,,9,D,,,,,,Space,keypress(Space),,,,speech,,,,------ -- ------- ---- ---- ---- - -------- ----- --- --<br>----- ----- ------ -- ---- -- --- - ---- -- - ----- -----<br>------ ---- ------ ---- - -------- ------- -- --- --------<br>-------- ----------- ---- ------ ---- ------ ---- --- ---<br>-------- was -----,194615.20000004768,194609.80000019073,194269.563,194275.90000009537,194286.229,194619.549,,44,was
screen,html.Screen,2_3_1_0_1_45,2022-04-28T11:19:52.895Z,,,,,,,,,,,,,,,,,40,,,,,,,,,,,,,,365.2510001907358,,response,,,,9,D,,,,,,Space,keypress(Space),,,,speech,,,,------ -- ------- ---- ---- ---- - -------- ----- --- --<br>----- ----- ------ -- ---- -- --- - ---- -- - ----- -----<br>------ ---- ------ ---- - -------- ------- -- --- --------<br>-------- ----------- ---- ------ ---- ------ ---- --- ---<br>-------- --- made.,194991.30000019073,194984.80000019073,194602.883,194615.5,194619.549,195002.867,,45,made.
Item 9,flow.Loop,2_3_1_0_1,2022-04-28T11:19:52.895Z,,,,,,,,,,,,,,,,,,,,,,,,,,,,,,,14331.95800019073,,completion,,,,,,,,,,,,,,,,,,,,,194991.80000019073,194984.80000019073,180636.176,180639.20000004768,180652.842,195002.867,,,
Question 1,html.Screen,2_3_1_0_2,2022-04-28T11:19:55.031Z,,,,,,,,,,,,,,,,,,,,,,,,,,,,true,FALSE,,2122.1330000000016,,response,,,,9,D,,,,,,FALSE,click #choice-2,,,,speech,,,,,197127.10000014305,197125,194986.201,194992,195002.867,197136.658,,,
Question 2,html.Screen,2_3_1_0_3,2022-04-28T11:19:57.449Z,,,,,,,,,,,,,,,,,,,,,,,,,,,,true,FALSE,,2405.342000000004,,response,,,,9,D,,,,,,FALSE,click #choice-2,,,,speech,,,,,199545.70000004768,199542,197119.992,197127.30000019073,197136.658,199553.228,,,
