sender,sender_type,sender_id,timestamp,meta,,Blues,Classical,Country,Dance,Electronic,Folk,Gospel,Hip-Hop,Jazz,Latin,Musical/Film,New-age,Pop,Prolific_id,Provo_ID,R&B,Rap,Reggae,Religious,Rock,Soul,Swing,Traditional,age,artist_name,correct,correctResponse,distraction,duration,education,ended_on,familiarity,gender,headphone_check_performance,item,list,music_frequency,offensiveness,pleasantness,position_correct,preference,response,response_action,snippet_file,song_name,song_rating,sound,stimulus_1,stimulus_2,stimulus_3,text,time_commit,time_end,time_render,time_run,time_show,time_switch,url,word,word_ID
Prolific ID,html.Form,0,2022-05-09T17:19:50.275Z,"{""labjs_version"":""20.2.2"",""labjs_build"":{""flavor"":""production"",""commit"":""a25486e0c714a0ae2ce03ff94b7bb6896854dcfa""},""location"":""https://run.pavlovia.org/mvasilev/prolific3_music_g/"",""userAgent"":""Mozilla/5.0 (Windows NT 10.0; Win64; x64) AppleWebKit/537.36 (KHTML, like Gecko) Chrome/101.0.0.0 Safari/537.36"",""platform"":""Win32"",""language"":""en-GB"",""locale"":""en-GB"",""timeZone"":""Europe/London"",""timezoneOffset"":-60,""screen_width"":1280,""screen_height"":720,""scroll_width"":1280,""scroll_height"":561,""window_innerWidth"":1280,""window_innerHeight"":609,""devicePixelRatio"":1.5}",,,,,,,,,,,,,,,5ecfd28bb14b1c05751f178c,,,,,,,,,,,,,,,19724.184000071524,,form submission,,,,,,,,,,,,,,,,,,,,,35003,35002.300000071526,15227.968,15231.200000047684,15278.116,35028.854,{},,
Introduction,html.Screen,1_0,2022-05-09T17:20:03.422Z,,,,,,,,,,,,,,,,,,,,,,,,,,,,,,,13116.746000023842,,response,,,,,,,,,,,continue,click button,,,,,,,,,48150.200000047684,48145.60000002384,34994.931,35003.5,35028.854,48161.612,,,
Volume calibration,html.Screen,1_1,2022-05-09T17:20:29.643Z,,,,,,,,,,,,,,,,,,,,,,,,,,,,,,,26207.288000095366,,response,,,,,,,,,,,continue,click button,,,,,,,,,74370.60000002384,74368.90000009537,48144.937,48150.60000002384,48161.612,74379.58,,,
Task instructions,html.Screen,1_2,2022-05-09T17:21:34.933Z,,,,,,,,,,,,,,,,,,,,,,,,,,,,,,,65276.220000071524,,response,,,,,,,,,,,continue,click button,,,,,,,,,139657.40000009537,139655.80000007153,74362.451,74370.80000007153,74379.58,139663.263,,,
Sounds,html.Screen,1_3_0_0,2022-05-09T17:21:39.176Z,,,,,,,,,,,,,,,,,,,,,,,,,,,,,,,4249.049999999988,,timeout,,,,,,,,,1,,,,,,,,S,I,O,,143900.10000002384,143896.12,139646.068,139657.70000004768,139663.263,143912.313,,,
Judgement,html.Screen,1_3_0_1,2022-05-09T17:21:41.839Z,,,,,,,,,,,,,,,,,,,,,,,,,,,,true,1,,2649.6870000000054,,response,,,,,,,,,1,,1,click #choice-1,,,,,S,I,O,,146563.80000007153,146562,143896.12,143900.30000007153,143912.313,146579.417,,,
Trial,flow.Sequence,1_3_0,2022-05-09T17:21:41.840Z,,,,,,,,,,,,,,,,,,,,,,,,,,,,,,,6898.736999999994,,completion,,,,,,,,,1,,,,,,,,S,I,O,,146564.20000004768,146562,139646.068,139657.70000004768,139663.263,146579.417,,,
Sounds,html.Screen,1_3_1_0,2022-05-09T17:21:46.091Z,,,,,,,,,,,,,,,,,,,,,,,,,,,,,,,4249.542000000016,,timeout,,,,,,,,,3,,,,,,,,I,O,S,,150814.90000009537,150812.466,146562.355,146564.70000004768,146579.417,150828.959,,,
Judgement,html.Screen,1_3_1_1,2022-05-09T17:21:46.880Z,,,,,,,,,,,,,,,,,,,,,,,,,,,,true,3,,773.6410000238393,,response,,,,,,,,,3,,3,click #choice-3,,,,,I,O,S,,151604.5,151602.60000002384,150812.466,150815.20000004768,150828.959,151629.073,,,
Trial,flow.Sequence,1_3_1,2022-05-09T17:21:46.880Z,,,,,,,,,,,,,,,,,,,,,,,,,,,,,,,5023.183000023855,,completion,,,,,,,,,3,,,,,,,,I,O,S,,151604.80000007153,151602.60000002384,146562.355,146564.40000009537,146579.417,151629.073,,,
Sounds,html.Screen,1_3_2_0,2022-05-09T17:21:51.147Z,,,,,,,,,,,,,,,,,,,,,,,,,,,,,,,4249.989999999991,,timeout,,,,,,,,,2,,,,,,,,O,S,I,,155871.10000002384,155862.528,151612.405,151605.10000002384,151629.073,155879.063,,,
Judgement,html.Screen,1_3_2_1,2022-05-09T17:21:51.852Z,,,,,,,,,,,,,,,,,,,,,,,,,,,,true,2,,695.2370000715309,,response,,,,,,,,,2,,2,click #choice-2,,,,,O,S,I,,156575.80000007153,156574.30000007153,155862.528,155871.30000007153,155879.063,156579.113,,,
Trial,flow.Sequence,1_3_2,2022-05-09T17:21:51.852Z,,,,,,,,,,,,,,,,,,,,,,,,,,,,,,,4945.227000071522,,completion,,,,,,,,,2,,,,,,,,O,S,I,,156576.20000004768,156574.30000007153,151612.405,151605,151629.073,156579.113,,,
Sounds,html.Screen,1_3_3_0,2022-05-09T17:21:56.090Z,,,,,,,,,,,,,,,,,,,,,,,,,,,,,,,4250.174999999988,,timeout,,,,,,,,,1,,,,,,,,S,O,I,,160814,160812.479,156562.441,156576.40000009537,156579.113,160829.288,,,
Judgement,html.Screen,1_3_3_1,2022-05-09T17:21:58.039Z,,,,,,,,,,,,,,,,,,,,,,,,,,,,true,1,,1932.2119999999995,,response,,,,,,,,,1,,1,click #choice-1,,,,,S,O,I,,162762.80000007153,162761.5,160812.479,160814.30000007153,160829.288,162789.607,,,
Trial,flow.Sequence,1_3_3,2022-05-09T17:21:58.039Z,,,,,,,,,,,,,,,,,,,,,,,,,,,,,,,6182.386999999988,,completion,,,,,,,,,1,,,,,,,,S,O,I,,162763.20000004768,162761.5,156562.441,156576.30000007153,156579.113,162789.607,,,
Sounds,html.Screen,1_3_4_0,2022-05-09T17:22:02.306Z,,,,,,,,,,,,,,,,,,,,,,,,,,,,,,,4256.123000000021,,timeout,,,,,,,,,2,,,,,,,,I,S,O,,167030.60000002384,167029.622,162746.25,162763.40000009537,162789.607,167045.73,,,
Judgement,html.Screen,1_3_4_1,2022-05-09T17:22:02.949Z,,,,,,,,,,,,,,,,,,,,,,,,,,,,true,2,,626.170000095357,,response,,,,,,,,,2,,2,click #choice-2,,,,,I,S,O,,167673.5,167671.90000009537,167029.622,167030.80000007153,167045.73,167680.033,,,
Trial,flow.Sequence,1_3_4,2022-05-09T17:22:02.949Z,,,,,,,,,,,,,,,,,,,,,,,,,,,,,,,4882.293000095378,,completion,,,,,,,,,2,,,,,,,,I,S,O,,167673.80000007153,167671.90000009537,162746.25,162763.30000007153,162789.607,167680.033,,,
Sounds,html.Screen,1_3_5_0,2022-05-09T17:22:07.189Z,,,,,,,,,,,,,,,,,,,,,,,,,,,,,,,4249.564000000013,,timeout,,,,,,,,,3,,,,,,,,O,I,S,,171913.5,171912.56,167662.527,167673.90000009537,167680.033,171929.597,,,
Judgement,html.Screen,1_3_5_1,2022-05-09T17:22:07.768Z,,,,,,,,,,,,,,,,,,,,,,,,,,,,true,3,,560.1030000476749,,response,,,,,,,,,3,,3,click #choice-3,,,,,O,I,S,,172492.5,172489.70000004768,171912.56,171913.60000002384,171929.597,172496.876,,,
Trial,flow.Sequence,1_3_5,2022-05-09T17:22:07.768Z,,,,,,,,,,,,,,,,,,,,,,,,,,,,,,,4809.667000047688,,completion,,,,,,,,,3,,,,,,,,O,I,S,,172492.70000004768,172489.70000004768,167662.527,167673.90000009537,167680.033,172496.876,,,
Task,flow.Loop,1_3,2022-05-09T17:22:07.777Z,,,,,,,,,,,,,,,,,,,,,,,,,,,,,,,32826.43700004768,,completion,,,1,,,,,,,,,,,,,,,,,,172501.60000002384,172489.70000004768,139646.068,139657.60000002384,139663.263,172496.876,,,
Trap,html.Screen,1_4,2022-05-09T17:22:07.779Z,,,,,,,,,,,,,,,,,,,,,,,,,,,,,,,NaN,,skipped,,,,,,,,,,,,,,,,,,,,,172503.80000007153,172489.70000004768,,172503.5,,172496.876,,,
Thanks,html.Screen,1_5,2022-05-09T17:22:13.282Z,,,,,,,,,,,,,,,,,,,,,,,,,,,,,,,5507.624000000011,,response,,,,,,,,,,,continue,click button,,,,,,,,,178006.20000004768,178004.5,172479.215,172504,172496.876,185429.266,,,
Headphone screening,flow.Sequence,1,2022-05-09T17:22:13.282Z,,,,,,,,,,,,,,,,,,,,,,,,,,,,,,,142975.646,,completion,,,,,,,,,,,,,,,,,,,,,178006.40000009537,178004.5,34994.931,35003.40000009537,35028.854,185429.266,,,
Instructions,html.Page,2_0,2022-05-09T17:22:46.450Z,,,,,,,,,,,,,,,,,,,,,,,,,,,,,,,25743.83400002384,,form submission,,,,,,,,,,,,,,,,,,,,,211173.60000002384,211173.10000002384,185382.908,185426.30000007153,185429.266,211180.598,,,
Holding screen,html.Screen,2_1_0_0,2022-05-09T17:22:56.445Z,,,,,,,,,,,,,,,,,,,,,,,,,,,,,,,10015.600999999995,,timeout,,,,,,,,,,,,,,,,,,,,,221168.90000009537,221162.921,211162.802,211173.80000007153,211180.598,221196.199,,,
screen,html.Screen,2_1_0_1_0,2022-05-09T17:22:57.044Z,,,,,,,,,,,,,,,,,53,,,,,,,,,,,,,,567.5010000476905,,response,,,,99,,,,,,,Space,keypress(Space),,,,,,,,When -- ----- -- ------ - ------- --- ----------<br>------------- ------ ------ ---- ---- ------- ----- -- ----<br>-------- ------- -- ---------- --- - --- ----- ----- ----<br>---- --- --- ----- --- ---- ---- ------- ----- ---- -------<br>--- --- -- ----- -- --- ---- -- --- ---- -- ------ ------<br>--- ----- -- ----,221767.60000002384,221763.70000004768,221162.921,221169.10000002384,221196.199,221779.536,,0,When
screen,html.Screen,2_1_0_1_1,2022-05-09T17:22:58.227Z,,,,,,,,,,,,,,,,,53,,,,,,,,,,,,,,1170.164000047691,,response,,,,99,,,,,,,Space,keypress(Space),,,,,,,,---- it ----- -- ------ - ------- --- ----------<br>------------- ------ ------ ---- ---- ------- ----- -- ----<br>-------- ------- -- ---------- --- - --- ----- ----- ----<br>---- --- --- ----- --- ---- ---- ------- ----- ---- -------<br>--- --- -- ----- -- --- ---- -- --- ---- -- ------ ------<br>--- ----- -- ----,222950.5,222949.70000004768,221763.293,221767.80000007153,221779.536,222962.96,,1,it
screen,html.Screen,2_1_0_1_2,2022-05-09T17:22:59.602Z,,,,,,,,,,,,,,,,,53,,,,,,,,,,,,,,1361.3400000715337,,response,,,,99,,,,,,,Space,keypress(Space),,,,,,,,---- -- comes -- ------ - ------- --- ----------<br>------------- ------ ------ ---- ---- ------- ----- -- ----<br>-------- ------- -- ---------- --- - --- ----- ----- ----<br>---- --- --- ----- --- ---- ---- ------- ----- ---- -------<br>--- --- -- ----- -- --- ---- -- --- ---- -- ------ ------<br>--- ----- -- ----,224325.40000009537,224324.30000007153,222946.958,222950.60000002384,222962.96,224329.577,,2,comes
screen,html.Screen,2_1_0_1_3,2022-05-09T17:23:00.359Z,,,,,,,,,,,,,,,,,53,,,,,,,,,,,,,,751.6230000476935,,response,,,,99,,,,,,,Space,keypress(Space),,,,,,,,---- -- ----- to ------ - ------- --- ----------<br>------------- ------ ------ ---- ---- ------- ----- -- ----<br>-------- ------- -- ---------- --- - --- ----- ----- ----<br>---- --- --- ----- --- ---- ---- ------- ----- ---- -------<br>--- --- -- ----- -- --- ---- -- --- ---- -- ------ ------<br>--- ----- -- ----,225082.70000004768,225081.20000004768,224313.256,224325.70000004768,224329.577,225096.239,,3,to
screen,html.Screen,2_1_0_1_4,2022-05-09T17:23:00.956Z,,,,,,,,,,,,,,,,,53,,,,,,,,,,,,,,581.9610000476823,,response,,,,99,,,,,,,Space,keypress(Space),,,,,,,,---- -- ----- -- having - ------- --- ----------<br>------------- ------ ------ ---- ---- ------- ----- -- ----<br>-------- ------- -- ---------- --- - --- ----- ----- ----<br>---- --- --- ----- --- ---- ---- ------- ----- ---- -------<br>--- --- -- ----- -- --- ---- -- --- ---- -- ------ ------<br>--- ----- -- ----,225679.5,225678.20000004768,225079.971,225082.90000009537,225096.239,225696.698,,4,having
screen,html.Screen,2_1_0_1_5,2022-05-09T17:23:01.537Z,,,,,,,,,,,,,,,,,53,,,,,,,,,,,,,,563.2020000953635,,response,,,,99,,,,,,,Space,keypress(Space),,,,,,,,---- -- ----- -- ------ a ------- --- ----------<br>------------- ------ ------ ---- ---- ------- ----- -- ----<br>-------- ------- -- ---------- --- - --- ----- ----- ----<br>---- --- --- ----- --- ---- ---- ------- ----- ---- -------<br>--- --- -- ----- -- --- ---- -- --- ---- -- ------ ------<br>--- ----- -- ----,226261.10000002384,226259.90000009537,225679.554,225679.70000004768,225696.698,226262.883,,5,a
screen,html.Screen,2_1_0_1_6,2022-05-09T17:23:02.149Z,,,,,,,,,,,,,,,,,53,,,,,,,,,,,,,,608.8170000476821,,response,,,,99,,,,,,,Space,keypress(Space),,,,,,,,---- -- ----- -- ------ - lasting --- ----------<br>------------- ------ ------ ---- ---- ------- ----- -- ----<br>-------- ------- -- ---------- --- - --- ----- ----- ----<br>---- --- --- ----- --- ---- ---- ------- ----- ---- -------<br>--- --- -- ----- -- --- ---- -- --- ---- -- ------ ------<br>--- ----- -- ----,226872.5,226871.70000004768,226246.851,226261.30000007153,226262.883,226879.568,,6,lasting
screen,html.Screen,2_1_0_1_7,2022-05-09T17:23:02.961Z,,,,,,,,,,,,,,,,,53,,,,,,,,,,,,,,804.3320000953681,,response,,,,99,,,,,,,Space,keypress(Space),,,,,,,,---- -- ----- -- ------ - ------- and ----------<br>------------- ------ ------ ---- ---- ------- ----- -- ----<br>-------- ------- -- ---------- --- - --- ----- ----- ----<br>---- --- --- ----- --- ---- ---- ------- ----- ---- -------<br>--- --- -- ----- -- --- ---- -- --- ---- -- ------ ------<br>--- ----- -- ----,227685,227683.90000009537,226862.876,226872.70000004768,226879.568,227696.701,,7,and
screen,html.Screen,2_1_0_1_8,2022-05-09T17:23:03.714Z,,,,,,,,,,,,,,,,,53,,,,,,,,,,,,,,739.5990000715246,,response,,,,99,,,,,,,Space,keypress(Space),,,,,,,,---- -- ----- -- ------ - ------- --- fulfilling<br>------------- ------ ------ ---- ---- ------- ----- -- ----<br>-------- ------- -- ---------- --- - --- ----- ----- ----<br>---- --- --- ----- --- ---- ---- ------- ----- ---- -------<br>--- --- -- ----- -- --- ---- -- --- ---- -- ------ ------<br>--- ----- -- ----,228437.40000009537,228436.30000007153,227679.595,227685.20000004768,227696.701,228446.256,,8,fulfilling
screen,html.Screen,2_1_0_1_9,2022-05-09T17:23:05.353Z,,,,,,,,,,,,,,,,,53,,,,,,,,,,,,,,1629.1440000953735,,response,,,,99,,,,,,,Space,keypress(Space),,,,,,,,"---- -- ----- -- ------ - ------- --- ----------<br>relationship, ------ ------ ---- ---- ------- ----- -- ----<br>-------- ------- -- ---------- --- - --- ----- ----- ----<br>---- --- --- ----- --- ---- ---- ------- ----- ---- -------<br>--- --- -- ----- -- --- ---- -- --- ---- -- ------ ------<br>--- ----- -- ----",230076.40000009537,230075.40000009537,228430.236,228437.60000002384,228446.256,230079.566,,9,"relationship,"
screen,html.Screen,2_1_0_1_10,2022-05-09T17:23:06.017Z,,,,,,,,,,,,,,,,,53,,,,,,,,,,,,,,659.5340000238502,,response,,,,99,,,,,,,Space,keypress(Space),,,,,,,,---- -- ----- -- ------ - ------- --- ----------<br>------------- common ------ ---- ---- ------- ----- -- ----<br>-------- ------- -- ---------- --- - --- ----- ----- ----<br>---- --- --- ----- --- ---- ---- ------- ----- ---- -------<br>--- --- -- ----- -- --- ---- -- --- ---- -- ------ ------<br>--- ----- -- ----,230740.30000007153,230739.10000002384,230063.855,230076.70000004768,230079.566,230746.24,,10,common
screen,html.Screen,2_1_0_1_11,2022-05-09T17:23:06.633Z,,,,,,,,,,,,,,,,,53,,,,,,,,,,,,,,608.5600000715349,,response,,,,99,,,,,,,Space,keypress(Space),,,,,,,,---- -- ----- -- ------ - ------- --- ----------<br>------------- ------ wisdom ---- ---- ------- ----- -- ----<br>-------- ------- -- ---------- --- - --- ----- ----- ----<br>---- --- --- ----- --- ---- ---- ------- ----- ---- -------<br>--- --- -- ----- -- --- ---- -- --- ---- -- ------ ------<br>--- ----- -- ----,231356.20000004768,231354.80000007153,230729.589,230740.5,230746.24,231362.928,,11,wisdom
screen,html.Screen,2_1_0_1_12,2022-05-09T17:23:07.325Z,,,,,,,,,,,,,,,,,53,,,,,,,,,,,,,,684.5719999999856,,response,,,,99,,,,,,,Space,keypress(Space),,,,,,,,---- -- ----- -- ------ - ------- --- ----------<br>------------- ------ ------ says ---- ------- ----- -- ----<br>-------- ------- -- ---------- --- - --- ----- ----- ----<br>---- --- --- ----- --- ---- ---- ------- ----- ---- -------<br>--- --- -- ----- -- --- ---- -- --- ---- -- ------ ------<br>--- ----- -- ----,232048.40000009537,232047.5,231346.226,231356.40000009537,231362.928,232062.924,,12,says
screen,html.Screen,2_1_0_1_13,2022-05-09T17:23:07.901Z,,,,,,,,,,,,,,,,,53,,,,,,,,,,,,,,560.5760000000009,,response,,,,99,,,,,,,Space,keypress(Space),,,,,,,,---- -- ----- -- ------ - ------- --- ----------<br>------------- ------ ------ ---- that ------- ----- -- ----<br>-------- ------- -- ---------- --- - --- ----- ----- ----<br>---- --- --- ----- --- ---- ---- ------- ----- ---- -------<br>--- --- -- ----- -- --- ---- -- --- ---- -- ------ ------<br>--- ----- -- ----,232624.90000009537,232623.5,232046.381,232048.60000002384,232062.924,232629.596,,13,that
screen,html.Screen,2_1_0_1_14,2022-05-09T17:23:08.432Z,,,,,,,,,,,,,,,,,53,,,,,,,,,,,,,,525.4040000000095,,response,,,,99,,,,,,,Space,keypress(Space),,,,,,,,---- -- ----- -- ------ - ------- --- ----------<br>------------- ------ ------ ---- ---- feeling ----- -- ----<br>-------- ------- -- ---------- --- - --- ----- ----- ----<br>---- --- --- ----- --- ---- ---- ------- ----- ---- -------<br>--- --- -- ----- -- --- ---- -- --- ---- -- ------ ------<br>--- ----- -- ----,233156.10000002384,233155,232613.631,232625,232629.596,233162.926,,14,feeling
screen,html.Screen,2_1_0_1_15,2022-05-09T17:23:09.210Z,,,,,,,,,,,,,,,,,53,,,,,,,,,,,,,,769.4740000953607,,response,,,,99,,,,,,,Space,keypress(Space),,,,,,,,---- -- ----- -- ------ - ------- --- ----------<br>------------- ------ ------ ---- ---- ------- close -- ----<br>-------- ------- -- ---------- --- - --- ----- ----- ----<br>---- --- --- ----- --- ---- ---- ------- ----- ---- -------<br>--- --- -- ----- -- --- ---- -- --- ---- -- ------ ------<br>--- ----- -- ----,233933.30000007153,233932.40000009537,233146.673,233156.30000007153,233162.926,233946.363,,15,close
screen,html.Screen,2_1_0_1_16,2022-05-09T17:23:09.892Z,,,,,,,,,,,,,,,,,53,,,,,,,,,,,,,,668.0370000953553,,response,,,,99,,,,,,,Space,keypress(Space),,,,,,,,---- -- ----- -- ------ - ------- --- ----------<br>------------- ------ ------ ---- ---- ------- ----- to ----<br>-------- ------- -- ---------- --- - --- ----- ----- ----<br>---- --- --- ----- --- ---- ---- ------- ----- ---- -------<br>--- --- -- ----- -- --- ---- -- --- ---- -- ------ ------<br>--- ----- -- ----,234615.60000002384,234614.40000009537,233930.02,233933.5,233946.363,234630.094,,16,to
screen,html.Screen,2_1_0_1_17,2022-05-09T17:23:10.674Z,,,,,,,,,,,,,,,,,53,,,,,,,,,,,,,,766.50600002383,,response,,,,99,,,,,,,Space,keypress(Space),,,,,,,,---- -- ----- -- ------ - ------- --- ----------<br>------------- ------ ------ ---- ---- ------- ----- -- your<br>-------- ------- -- ---------- --- - --- ----- ----- ----<br>---- --- --- ----- --- ---- ---- ------- ----- ---- -------<br>--- --- -- ----- -- --- ---- -- --- ---- -- ------ ------<br>--- ----- -- ----,235397.90000009537,235396.60000002384,234613.603,234615.70000004768,234630.094,235413.419,,17,your
screen,html.Screen,2_1_0_1_18,2022-05-09T17:23:11.547Z,,,,,,,,,,,,,,,,,53,,,,,,,,,,,,,,855.7810000476893,,response,,,,99,,,,,,,Space,keypress(Space),,,,,,,,---- -- ----- -- ------ - ------- --- ----------<br>------------- ------ ------ ---- ---- ------- ----- -- ----<br>romantic ------- -- ---------- --- - --- ----- ----- ----<br>---- --- --- ----- --- ---- ---- ------- ----- ---- -------<br>--- --- -- ----- -- --- ---- -- --- ---- -- ------ ------<br>--- ----- -- ----,236270.40000009537,236269.20000004768,235396.865,235398,235413.419,236280.275,,18,romantic
screen,html.Screen,2_1_0_1_19,2022-05-09T17:23:12.314Z,,,,,,,,,,,,,,,,,53,,,,,,,,,,,,,,756.1250000953733,,response,,,,99,,,,,,,Space,keypress(Space),,,,,,,,---- -- ----- -- ------ - ------- --- ----------<br>------------- ------ ------ ---- ---- ------- ----- -- ----<br>-------- partner -- ---------- --- - --- ----- ----- ----<br>---- --- --- ----- --- ---- ---- ------- ----- ---- -------<br>--- --- -- ----- -- --- ---- -- --- ---- -- ------ ------<br>--- ----- -- ----,237037.30000007153,237036.40000009537,236263.549,236270.60000002384,236280.275,237046.439,,19,partner
screen,html.Screen,2_1_0_1_20,2022-05-09T17:23:13.047Z,,,,,,,,,,,,,,,,,53,,,,,,,,,,,,,,722.560999999987,,response,,,,99,,,,,,,Space,keypress(Space),,,,,,,,---- -- ----- -- ------ - ------- --- ----------<br>------------- ------ ------ ---- ---- ------- ----- -- ----<br>-------- ------- is ---------- --- - --- ----- ----- ----<br>---- --- --- ----- --- ---- ---- ------- ----- ---- -------<br>--- --- -- ----- -- --- ---- -- --- ---- -- ------ ------<br>--- ----- -- ----,237770.80000007153,237769,237030.205,237037.40000009537,237046.439,237779.635,,20,is
screen,html.Screen,2_1_0_1_21,2022-05-09T17:23:14.471Z,,,,,,,,,,,,,,,,,53,,,,,,,,,,,,,,1413.6650000715163,,response,,,,99,,,,,,,Space,keypress(Space),,,,,,,,---- -- ----- -- ------ - ------- --- ----------<br>------------- ------ ------ ---- ---- ------- ----- -- ----<br>-------- ------- -- paramount. --- - --- ----- ----- ----<br>---- --- --- ----- --- ---- ---- ------- ----- ---- -------<br>--- --- -- ----- -- --- ---- -- --- ---- -- ------ ------<br>--- ----- -- ----,239194.40000009537,239193.30000007153,237762.978,237771,237779.635,239196.314,,21,paramount.
screen,html.Screen,2_1_0_1_22,2022-05-09T17:23:15.393Z,,,,,,,,,,,,,,,,,53,,,,,,,,,,,,,,919.0860000953544,,response,,,,99,,,,,,,Space,keypress(Space),,,,,,,,---- -- ----- -- ------ - ------- --- ----------<br>------------- ------ ------ ---- ---- ------- ----- -- ----<br>-------- ------- -- ---------- But - --- ----- ----- ----<br>---- --- --- ----- --- ---- ---- ------- ----- ---- -------<br>--- --- -- ----- -- --- ---- -- --- ---- -- ------ ------<br>--- ----- -- ----,240116.70000004768,240115.40000009537,239180.029,239194.5,239196.314,240129.716,,22,But
screen,html.Screen,2_1_0_1_23,2022-05-09T17:23:16.150Z,,,,,,,,,,,,,,,,,53,,,,,,,,,,,,,,742.7840000000142,,response,,,,99,,,,,,,Space,keypress(Space),,,,,,,,---- -- ----- -- ------ - ------- --- ----------<br>------------- ------ ------ ---- ---- ------- ----- -- ----<br>-------- ------- -- ---------- --- a --- ----- ----- ----<br>---- --- --- ----- --- ---- ---- ------- ----- ---- -------<br>--- --- -- ----- -- --- ---- -- --- ---- -- ------ ------<br>--- ----- -- ----,240873.30000007153,240872.5,240113.41,240116.90000009537,240129.716,240880.336,,23,a
screen,html.Screen,2_1_0_1_24,2022-05-09T17:23:17.099Z,,,,,,,,,,,,,,,,,53,,,,,,,,,,,,,,940.9640000715153,,response,,,,99,,,,,,,Space,keypress(Space),,,,,,,,---- -- ----- -- ------ - ------- --- ----------<br>------------- ------ ------ ---- ---- ------- ----- -- ----<br>-------- ------- -- ---------- --- - new ----- ----- ----<br>---- --- --- ----- --- ---- ---- ------- ----- ---- -------<br>--- --- -- ----- -- --- ---- -- --- ---- -- ------ ------<br>--- ----- -- ----,241822.10000002384,241821.30000007153,240863.639,240873.5,240880.336,241829.664,,24,new
screen,html.Screen,2_1_0_1_25,2022-05-09T17:23:18.362Z,,,,,,,,,,,,,,,,,53,,,,,,,,,,,,,,1254.6360000715358,,response,,,,99,,,,,,,Space,keypress(Space),,,,,,,,---- -- ----- -- ------ - ------- --- ----------<br>------------- ------ ------ ---- ---- ------- ----- -- ----<br>-------- ------- -- ---------- --- - --- study ----- ----<br>---- --- --- ----- --- ---- ---- ------- ----- ---- -------<br>--- --- -- ----- -- --- ---- -- --- ---- -- ------ ------<br>--- ----- -- ----,243085.5,243084.30000007153,241813.839,241822.40000009537,241829.664,243096.95,,25,study
screen,html.Screen,2_1_0_1_26,2022-05-09T17:23:19.565Z,,,,,,,,,,,,,,,,,53,,,,,,,,,,,,,,1190.6500000238302,,response,,,,99,,,,,,,Space,keypress(Space),,,,,,,,---- -- ----- -- ------ - ------- --- ----------<br>------------- ------ ------ ---- ---- ------- ----- -- ----<br>-------- ------- -- ---------- --- - --- ----- finds ----<br>---- --- --- ----- --- ---- ---- ------- ----- ---- -------<br>--- --- -- ----- -- --- ---- -- --- ---- -- ------ ------<br>--- ----- -- ----,244288.70000004768,244287.60000002384,243080.763,243085.70000004768,243096.95,244296.306,,26,finds
screen,html.Screen,2_1_0_1_27,2022-05-09T17:23:20.407Z,,,,,,,,,,,,,,,,,53,,,,,,,,,,,,,,833.594000095356,,response,,,,99,,,,,,,Space,keypress(Space),,,,,,,,---- -- ----- -- ------ - ------- --- ----------<br>------------- ------ ------ ---- ---- ------- ----- -- ----<br>-------- ------- -- ---------- --- - --- ----- ----- that<br>---- --- --- ----- --- ---- ---- ------- ----- ---- -------<br>--- --- -- ----- -- --- ---- -- --- ---- -- ------ ------<br>--- ----- -- ----,245131.10000002384,245129.90000009537,244279.653,244288.90000009537,244296.306,245146.841,,27,that
screen,html.Screen,2_1_0_1_28,2022-05-09T17:23:21.200Z,,,,,,,,,,,,,,,,,53,,,,,,,,,,,,,,775.4590000715398,,response,,,,99,,,,,,,Space,keypress(Space),,,,,,,,---- -- ----- -- ------ - ------- --- ----------<br>------------- ------ ------ ---- ---- ------- ----- -- ----<br>-------- ------- -- ---------- --- - --- ----- ----- ----<br>it's --- --- ----- --- ---- ---- ------- ----- ---- -------<br>--- --- -- ----- -- --- ---- -- --- ---- -- ------ ------<br>--- ----- -- ----,245923.20000004768,245922.30000007153,245130.096,245131.30000007153,245146.841,245930.162,,28,it's
screen,html.Screen,2_1_0_1_29,2022-05-09T17:23:21.831Z,,,,,,,,,,,,,,,,,53,,,,,,,,,,,,,,623.5380000476725,,response,,,,99,,,,,,,Space,keypress(Space),,,,,,,,---- -- ----- -- ------ - ------- --- ----------<br>------------- ------ ------ ---- ---- ------- ----- -- ----<br>-------- ------- -- ---------- --- - --- ----- ----- ----<br>---- not --- ----- --- ---- ---- ------- ----- ---- -------<br>--- --- -- ----- -- --- ---- -- --- ---- -- ------ ------<br>--- ----- -- ----,246554.5,246553.70000004768,245913.495,245923.40000009537,245930.162,246562.987,,29,not
screen,html.Screen,2_1_0_1_30,2022-05-09T17:23:22.914Z,,,,,,,,,,,,,,,,,53,,,,,,,,,,,,,,1073.5130000000063,,response,,,,99,,,,,,,Space,keypress(Space),,,,,,,,---- -- ----- -- ------ - ------- --- ----------<br>------------- ------ ------ ---- ---- ------- ----- -- ----<br>-------- ------- -- ---------- --- - --- ----- ----- ----<br>---- --- how ----- --- ---- ---- ------- ----- ---- -------<br>--- --- -- ----- -- --- ---- -- --- ---- -- ------ ------<br>--- ----- -- ----,247638,247636.5,246546.913,246554.60000002384,246562.987,247646.367,,30,how
screen,html.Screen,2_1_0_1_31,2022-05-09T17:23:23.767Z,,,,,,,,,,,,,,,,,53,,,,,,,,,,,,,,842.7330000238435,,response,,,,99,,,,,,,Space,keypress(Space),,,,,,,,---- -- ----- -- ------ - ------- --- ----------<br>------------- ------ ------ ---- ---- ------- ----- -- ----<br>-------- ------- -- ---------- --- - --- ----- ----- ----<br>---- --- --- close --- ---- ---- ------- ----- ---- -------<br>--- --- -- ----- -- --- ---- -- --- ---- -- ------ ------<br>--- ----- -- ----,248490.20000004768,248489.10000002384,247630.34,247638.30000007153,247646.367,248496.41,,31,close
screen,html.Screen,2_1_0_1_32,2022-05-09T17:23:24.489Z,,,,,,,,,,,,,,,,,53,,,,,,,,,,,,,,715.3900000715221,,response,,,,99,,,,,,,Space,keypress(Space),,,,,,,,---- -- ----- -- ------ - ------- --- ----------<br>------------- ------ ------ ---- ---- ------- ----- -- ----<br>-------- ------- -- ---------- --- - --- ----- ----- ----<br>---- --- --- ----- you ---- ---- ------- ----- ---- -------<br>--- --- -- ----- -- --- ---- -- --- ---- -- ------ ------<br>--- ----- -- ----,249212.90000009537,249211.80000007153,248480.404,248490.30000007153,248496.41,249230.404,,32,you
screen,html.Screen,2_1_0_1_33,2022-05-09T17:23:25.157Z,,,,,,,,,,,,,,,,,53,,,,,,,,,,,,,,649.0959999999905,,response,,,,99,,,,,,,Space,keypress(Space),,,,,,,,---- -- ----- -- ------ - ------- --- ----------<br>------------- ------ ------ ---- ---- ------- ----- -- ----<br>-------- ------- -- ---------- --- - --- ----- ----- ----<br>---- --- --- ----- --- feel ---- ------- ----- ---- -------<br>--- --- -- ----- -- --- ---- -- --- ---- -- ------ ------<br>--- ----- -- ----,249880.80000007153,249879.5,249197.67,249213.10000002384,249230.404,249896.519,,33,feel
screen,html.Screen,2_1_0_1_34,2022-05-09T17:23:25.898Z,,,,,,,,,,,,,,,,,53,,,,,,,,,,,,,,724.3810000953672,,response,,,,99,,,,,,,Space,keypress(Space),,,,,,,,---- -- ----- -- ------ - ------- --- ----------<br>------------- ------ ------ ---- ---- ------- ----- -- ----<br>-------- ------- -- ---------- --- - --- ----- ----- ----<br>---- --- --- ----- --- ---- that ------- ----- ---- -------<br>--- --- -- ----- -- --- ---- -- --- ---- -- ------ ------<br>--- ----- -- ----,250622.10000002384,250620.90000009537,249879.912,249880.90000009537,249896.519,250630.2,,34,that
screen,html.Screen,2_1_0_1_35,2022-05-09T17:23:26.726Z,,,,,,,,,,,,,,,,,53,,,,,,,,,,,,,,818.2000000953558,,response,,,,99,,,,,,,Space,keypress(Space),,,,,,,,---- -- ----- -- ------ - ------- --- ----------<br>------------- ------ ------ ---- ---- ------- ----- -- ----<br>-------- ------- -- ---------- --- - --- ----- ----- ----<br>---- --- --- ----- --- ---- ---- matters ----- ---- -------<br>--- --- -- ----- -- --- ---- -- --- ---- -- ------ ------<br>--- ----- -- ----,251449.5,251448.40000009537,250613.651,250622.30000007153,250630.2,251463.534,,35,matters
screen,html.Screen,2_1_0_1_36,2022-05-09T17:23:27.643Z,,,,,,,,,,,,,,,,,53,,,,,,,,,,,,,,902.4659999999858,,response,,,,99,,,,,,,Space,keypress(Space),,,,,,,,"---- -- ----- -- ------ - ------- --- ----------<br>------------- ------ ------ ---- ---- ------- ----- -- ----<br>-------- ------- -- ---------- --- - --- ----- ----- ----<br>---- --- --- ----- --- ---- ---- ------- most, ---- -------<br>--- --- -- ----- -- --- ---- -- --- ---- -- ------ ------<br>--- ----- -- ----",252367.10000002384,252366,251447.06,251449.70000004768,251463.534,252380.758,,36,"most,"
screen,html.Screen,2_1_0_1_37,2022-05-09T17:23:28.582Z,,,,,,,,,,,,,,,,,53,,,,,,,,,,,,,,923.3420000238402,,response,,,,99,,,,,,,Space,keypress(Space),,,,,,,,---- -- ----- -- ------ - ------- --- ----------<br>------------- ------ ------ ---- ---- ------- ----- -- ----<br>-------- ------- -- ---------- --- - --- ----- ----- ----<br>---- --- --- ----- --- ---- ---- ------- ----- it's -------<br>--- --- -- ----- -- --- ---- -- --- ---- -- ------ ------<br>--- ----- -- ----,253305.40000009537,253304.10000002384,252363.089,252367.30000007153,252380.758,253313.024,,37,it's
screen,html.Screen,2_1_0_1_38,2022-05-09T17:23:29.449Z,,,,,,,,,,,,,,,,,53,,,,,,,,,,,,,,858.1760000476788,,response,,,,99,,,,,,,Space,keypress(Space),,,,,,,,---- -- ----- -- ------ - ------- --- ----------<br>------------- ------ ------ ---- ---- ------- ----- -- ----<br>-------- ------- -- ---------- --- - --- ----- ----- ----<br>---- --- --- ----- --- ---- ---- ------- ----- ---- whether<br>--- --- -- ----- -- --- ---- -- --- ---- -- ------ ------<br>--- ----- -- ----,254172.30000007153,254171.20000004768,253297.058,253305.60000002384,253313.024,254180.221,,38,whether
screen,html.Screen,2_1_0_1_39,2022-05-09T17:23:30.082Z,,,,,,,,,,,,,,,,,53,,,,,,,,,,,,,,624.2790000000095,,response,,,,99,,,,,,,Space,keypress(Space),,,,,,,,---- -- ----- -- ------ - ------- --- ----------<br>------------- ------ ------ ---- ---- ------- ----- -- ----<br>-------- ------- -- ---------- --- - --- ----- ----- ----<br>---- --- --- ----- --- ---- ---- ------- ----- ---- -------<br>you --- -- ----- -- --- ---- -- --- ---- -- ------ ------<br>--- ----- -- ----,254805.70000004768,254804.5,254163.126,254172.5,254180.221,254813.133,,39,you
screen,html.Screen,2_1_0_1_40,2022-05-09T17:23:30.577Z,,,,,,,,,,,,,,,,,53,,,,,,,,,,,,,,486.36699999999837,,response,,,,99,,,,,,,Space,keypress(Space),,,,,,,,---- -- ----- -- ------ - ------- --- ----------<br>------------- ------ ------ ---- ---- ------- ----- -- ----<br>-------- ------- -- ---------- --- - --- ----- ----- ----<br>---- --- --- ----- --- ---- ---- ------- ----- ---- -------<br>--- are -- ----- -- --- ---- -- --- ---- -- ------ ------<br>--- ----- -- ----,255300.60000002384,255299.5,254797.333,254805.90000009537,254813.133,255313.572,,40,are
screen,html.Screen,2_1_0_1_41,2022-05-09T17:23:31.293Z,,,,,,,,,,,,,,,,,53,,,,,,,,,,,,,,702.22800007154,,response,,,,99,,,,,,,Space,keypress(Space),,,,,,,,---- -- ----- -- ------ - ------- --- ----------<br>------------- ------ ------ ---- ---- ------- ----- -- ----<br>-------- ------- -- ---------- --- - --- ----- ----- ----<br>---- --- --- ----- --- ---- ---- ------- ----- ---- -------<br>--- --- as ----- -- --- ---- -- --- ---- -- ------ ------<br>--- ----- -- ----,256016.70000004768,256015.80000007153,255297.115,255300.70000004768,255313.572,256029.863,,41,as
screen,html.Screen,2_1_0_1_42,2022-05-09T17:23:32.076Z,,,,,,,,,,,,,,,,,53,,,,,,,,,,,,,,768.8370000476716,,response,,,,99,,,,,,,Space,keypress(Space),,,,,,,,---- -- ----- -- ------ - ------- --- ----------<br>------------- ------ ------ ---- ---- ------- ----- -- ----<br>-------- ------- -- ---------- --- - --- ----- ----- ----<br>---- --- --- ----- --- ---- ---- ------- ----- ---- -------<br>--- --- -- close -- --- ---- -- --- ---- -- ------ ------<br>--- ----- -- ----,256799.60000002384,256798.70000004768,256013.756,256017.70000004768,256029.863,256813.612,,42,close
screen,html.Screen,2_1_0_1_43,2022-05-09T17:23:32.588Z,,,,,,,,,,,,,,,,,53,,,,,,,,,,,,,,496.68800007153186,,response,,,,99,,,,,,,Space,keypress(Space),,,,,,,,---- -- ----- -- ------ - ------- --- ----------<br>------------- ------ ------ ---- ---- ------- ----- -- ----<br>-------- ------- -- ---------- --- - --- ----- ----- ----<br>---- --- --- ----- --- ---- ---- ------- ----- ---- -------<br>--- --- -- ----- as --- ---- -- --- ---- -- ------ ------<br>--- ----- -- ----,257311.40000009537,257310.30000007153,256796.979,256799.80000007153,256813.612,257339.271,,43,as
screen,html.Screen,2_1_0_1_44,2022-05-09T17:23:33.069Z,,,,,,,,,,,,,,,,,53,,,,,,,,,,,,,,452.4290000476758,,response,,,,99,,,,,,,Space,keypress(Space),,,,,,,,---- -- ----- -- ------ - ------- --- ----------<br>------------- ------ ------ ---- ---- ------- ----- -- ----<br>-------- ------- -- ---------- --- - --- ----- ----- ----<br>---- --- --- ----- --- ---- ---- ------- ----- ---- -------<br>--- --- -- ----- -- you ---- -- --- ---- -- ------ ------<br>--- ----- -- ----,257792.5,257791.70000004768,257297.114,257311.70000004768,257339.271,257796.47,,44,you
screen,html.Screen,2_1_0_1_45,2022-05-09T17:23:33.585Z,,,,,,,,,,,,,,,,,53,,,,,,,,,,,,,,511.02999999999884,,response,,,,99,,,,,,,Space,keypress(Space),,,,,,,,---- -- ----- -- ------ - ------- --- ----------<br>------------- ------ ------ ---- ---- ------- ----- -- ----<br>-------- ------- -- ---------- --- - --- ----- ----- ----<br>---- --- --- ----- --- ---- ---- ------- ----- ---- -------<br>--- --- -- ----- -- --- want -- --- ---- -- ------ ------<br>--- ----- -- ----,258308.60000002384,258307.5,257780.208,257792.70000004768,257796.47,258313.143,,45,want
screen,html.Screen,2_1_0_1_46,2022-05-09T17:23:34.258Z,,,,,,,,,,,,,,,,,53,,,,,,,,,,,,,,666.9570000238309,,response,,,,99,,,,,,,Space,keypress(Space),,,,,,,,---- -- ----- -- ------ - ------- --- ----------<br>------------- ------ ------ ---- ---- ------- ----- -- ----<br>-------- ------- -- ---------- --- - --- ----- ----- ----<br>---- --- --- ----- --- ---- ---- ------- ----- ---- -------<br>--- --- -- ----- -- --- ---- to --- ---- -- ------ ------<br>--- ----- -- ----,258981.10000002384,258980.10000002384,258296.877,258308.90000009537,258313.143,258996.925,,46,to
screen,html.Screen,2_1_0_1_47,2022-05-09T17:23:35.101Z,,,,,,,,,,,,,,,,,53,,,,,,,,,,,,,,826.6750000238535,,response,,,,99,,,,,,,Space,keypress(Space),,,,,,,,"---- -- ----- -- ------ - ------- --- ----------<br>------------- ------ ------ ---- ---- ------- ----- -- ----<br>-------- ------- -- ---------- --- - --- ----- ----- ----<br>---- --- --- ----- --- ---- ---- ------- ----- ---- -------<br>--- --- -- ----- -- --- ---- -- be, ---- -- ------ ------<br>--- ----- -- ----",259824.5,259823.60000002384,258980.238,258981.30000007153,258996.925,259829.787,,47,"be,"
screen,html.Screen,2_1_0_1_48,2022-05-09T17:23:35.797Z,,,,,,,,,,,,,,,,,53,,,,,,,,,,,,,,690.0130000715144,,response,,,,99,,,,,,,Space,keypress(Space),,,,,,,,---- -- ----- -- ------ - ------- --- ----------<br>------------- ------ ------ ---- ---- ------- ----- -- ----<br>-------- ------- -- ---------- --- - --- ----- ----- ----<br>---- --- --- ----- --- ---- ---- ------- ----- ---- -------<br>--- --- -- ----- -- --- ---- -- --- even -- ------ ------<br>--- ----- -- ----,260521,260519.80000007153,259813.15,259824.60000002384,259829.787,260529.746,,48,even
screen,html.Screen,2_1_0_1_49,2022-05-09T17:23:36.374Z,,,,,,,,,,,,,,,,,53,,,,,,,,,,,,,,566.6540000953537,,response,,,,99,,,,,,,Space,keypress(Space),,,,,,,,---- -- ----- -- ------ - ------- --- ----------<br>------------- ------ ------ ---- ---- ------- ----- -- ----<br>-------- ------- -- ---------- --- - --- ----- ----- ----<br>---- --- --- ----- --- ---- ---- ------- ----- ---- -------<br>--- --- -- ----- -- --- ---- -- --- ---- if ------ ------<br>--- ----- -- ----,261097.30000007153,261096.40000009537,260513.552,260521.10000002384,260529.746,261113.652,,49,if
screen,html.Screen,2_1_0_1_50,2022-05-09T17:23:37.001Z,,,,,,,,,,,,,,,,,53,,,,,,,,,,,,,,610.2480000953656,,response,,,,99,,,,,,,Space,keypress(Space),,,,,,,,---- -- ----- -- ------ - ------- --- ----------<br>------------- ------ ------ ---- ---- ------- ----- -- ----<br>-------- ------- -- ---------- --- - --- ----- ----- ----<br>---- --- --- ----- --- ---- ---- ------- ----- ---- -------<br>--- --- -- ----- -- --- ---- -- --- ---- -- that's ------<br>--- ----- -- ----,261725.10000002384,261723.90000009537,261097.021,261097.5,261113.652,261729.823,,50,that's
screen,html.Screen,2_1_0_1_51,2022-05-09T17:23:37.778Z,,,,,,,,,,,,,,,,,53,,,,,,,,,,,,,,770.5770000953635,,response,,,,99,,,,,,,Space,keypress(Space),,,,,,,,---- -- ----- -- ------ - ------- --- ----------<br>------------- ------ ------ ---- ---- ------- ----- -- ----<br>-------- ------- -- ---------- --- - --- ----- ----- ----<br>---- --- --- ----- --- ---- ---- ------- ----- ---- -------<br>--- --- -- ----- -- --- ---- -- --- ---- -- ------ really<br>--- ----- -- ----,262501.7000000477,262500.40000009537,261713.176,261725.20000004768,261729.823,262513.154,,51,really
screen,html.Screen,2_1_0_1_52,2022-05-09T17:23:38.425Z,,,,,,,,,,,,,,,,,53,,,,,,,,,,,,,,634.1460000715451,,response,,,,99,,,,,,,Space,keypress(Space),,,,,,,,---- -- ----- -- ------ - ------- --- ----------<br>------------- ------ ------ ---- ---- ------- ----- -- ----<br>-------- ------- -- ---------- --- - --- ----- ----- ----<br>---- --- --- ----- --- ---- ---- ------- ----- ---- -------<br>--- --- -- ----- -- --- ---- -- --- ---- -- ------ ------<br>not ----- -- ----,263148.40000009537,263147.3000000715,262496.892,262501.90000009537,262513.154,263163.24,,52,not
screen,html.Screen,2_1_0_1_53,2022-05-09T17:23:39.298Z,,,,,,,,,,,,,,,,,53,,,,,,,,,,,,,,856.960000047693,,response,,,,99,,,,,,,Space,keypress(Space),,,,,,,,---- -- ----- -- ------ - ------- --- ----------<br>------------- ------ ------ ---- ---- ------- ----- -- ----<br>-------- ------- -- ---------- --- - --- ----- ----- ----<br>---- --- --- ----- --- ---- ---- ------- ----- ---- -------<br>--- --- -- ----- -- --- ---- -- --- ---- -- ------ ------<br>--- close -- ----,264021,264020.2000000477,263147.137,263148.5,263163.24,264029.844,,53,close
screen,html.Screen,2_1_0_1_54,2022-05-09T17:23:40.170Z,,,,,,,,,,,,,,,,,53,,,,,,,,,,,,,,862.9560000715428,,response,,,,99,,,,,,,Space,keypress(Space),,,,,,,,---- -- ----- -- ------ - ------- --- ----------<br>------------- ------ ------ ---- ---- ------- ----- -- ----<br>-------- ------- -- ---------- --- - --- ----- ----- ----<br>---- --- --- ----- --- ---- ---- ------- ----- ---- -------<br>--- --- -- ----- -- --- ---- -- --- ---- -- ------ ------<br>--- ----- at ----,264893.5,264892.8000000715,264013.181,264021.3000000715,264029.844,264896.484,,54,at
screen,html.Screen,2_1_0_1_55,2022-05-09T17:23:43.836Z,,,,,,,,,,,,,,,,,53,,,,,,,,,,,,,,3661.616000023845,,response,,,,99,,,,,,,Space,keypress(Space),,,,,,,,---- -- ----- -- ------ - ------- --- ----------<br>------------- ------ ------ ---- ---- ------- ----- -- ----<br>-------- ------- -- ---------- --- - --- ----- ----- ----<br>---- --- --- ----- --- ---- ---- ------- ----- ---- -------<br>--- --- -- ----- -- --- ---- -- --- ---- -- ------ ------<br>--- ----- -- all.,268559.3000000715,268558.10000002384,264880.477,264893.7000000477,264896.484,268563.213,,55,all.
Item 99,flow.Loop,2_1_0_1,2022-05-09T17:23:43.836Z,,,,,,,,,,,,,,,,,,,,,,,,,,,,,,,47361.90100002385,,completion,,,,,G,,,,,,,,,,,silence,,,,,268559.60000002384,268558.10000002384,221162.921,221169.10000002384,221196.199,268563.213,,,
Question 1,html.Screen,2_1_0_2,2022-05-09T17:23:49.243Z,,,,,,,,,,,,,,,,,,,,,,,,,,,,false,FALSE,,5401.887000023853,,response,,,,99,G,,,,,,TRUE,click #choice-1,,,,silence,,,,,273966.40000009537,273965.10000002384,268546.533,268559.8000000715,268563.213,273979.883,,,
Question 2,html.Screen,2_1_0_3,2022-05-09T17:23:56.543Z,,,,,,,,,,,,,,,,,,,,,,,,,,,,true,TRUE,,7285.517000095395,,response,,,,99,G,,,,,,TRUE,click #choice-1,,,,silence,,,,,281266.60000002384,281265.40000009537,273963.23,273966.5,273979.883,281279.99,,,
Item 99,flow.Sequence,2_1_0,2022-05-09T17:23:56.543Z,,,,,,,,,,,,,,,,,,,,,,,,,,,,,,,70084.80200009537,,completion,,,,,,,,,,,,,,,,,,,,,281266.90000009537,281265.40000009537,211162.802,211173.80000007153,211180.598,281279.99,,,
Holding screen,html.Screen,2_1_1_0,2022-05-09T17:24:06.561Z,,,,,,,,,,,,,,,,,,,,,,,,,,,,,,,10000.05700000003,,timeout,,,,,,,,,,,,,,,,,,,,,291284.8000000715,291263.357,281263.839,281267.10000002384,281279.99,291280.047,,,
screen,html.Screen,2_1_1_1_0,2022-05-09T17:24:08.137Z,,,,,,,,,,,,,,,,,54,,,,,,,,,,,,,,1579.5530000238214,,response,,,,100,,,,,,,Space,keypress(Space),,,,,,,,At --- ---- --- ------ ----- ------- ---- -- --- ------- --<br>------- ---------- ------ -- ----- -- ----- -- ---- ------<br>--- ----- --- --- ------ -------- ----- --- ------ ----- --<br>----- ----- ---------- --- --- ------ ------ ---- -- ------<br>------- --- ------ ----- --- ---- ------- -- ---- --- --<br>------- ------,292860.8000000715,292859.60000002384,291263.357,291285,291280.047,292863.356,,0,At
screen,html.Screen,2_1_1_1_1,2022-05-09T17:24:08.944Z,,,,,,,,,,,,,,,,,54,,,,,,,,,,,,,,803.1439999999711,,response,,,,100,,,,,,,Space,keypress(Space),,,,,,,,-- the ---- --- ------ ----- ------- ---- -- --- ------- --<br>------- ---------- ------ -- ----- -- ----- -- ---- ------<br>--- ----- --- --- ------ -------- ----- --- ------ ----- --<br>----- ----- ---------- --- --- ------ ------ ---- -- ------<br>------- --- ------ ----- --- ---- ------- -- ---- --- --<br>------- ------,293667.7000000477,293666.5,292846.685,292861,292863.356,293680.52,,1,the
screen,html.Screen,2_1_1_1_2,2022-05-09T17:24:09.566Z,,,,,,,,,,,,,,,,,54,,,,,,,,,,,,,,607.780000071507,,response,,,,100,,,,,,,Space,keypress(Space),,,,,,,,-- --- time --- ------ ----- ------- ---- -- --- ------- --<br>------- ---------- ------ -- ----- -- ----- -- ---- ------<br>--- ----- --- --- ------ -------- ----- --- ------ ----- --<br>----- ----- ---------- --- --- ------ ------ ---- -- ------<br>------- --- ------ ----- --- ---- ------- -- ---- --- --<br>------- ------,294289.60000002384,294288.3000000715,293663.376,293667.90000009537,293680.52,294296.742,,2,time
screen,html.Screen,2_1_1_1_3,2022-05-09T17:24:10.117Z,,,,,,,,,,,,,,,,,54,,,,,,,,,,,,,,543.0580000714981,,response,,,,100,,,,,,,Space,keypress(Space),,,,,,,,-- --- ---- the ------ ----- ------- ---- -- --- ------- --<br>------- ---------- ------ -- ----- -- ----- -- ---- ------<br>--- ----- --- --- ------ -------- ----- --- ------ ----- --<br>----- ----- ---------- --- --- ------ ------ ---- -- ------<br>------- --- ------ ----- --- ---- ------- -- ---- --- --<br>------- ------,294841,294839.8000000715,294280.713,294289.7000000477,294296.742,294846.721,,3,the
screen,html.Screen,2_1_1_1_4,2022-05-09T17:24:10.699Z,,,,,,,,,,,,,,,,,54,,,,,,,,,,,,,,574.9790000476642,,response,,,,100,,,,,,,Space,keypress(Space),,,,,,,,-- --- ---- --- French ----- ------- ---- -- --- ------- --<br>------- ---------- ------ -- ----- -- ----- -- ---- ------<br>--- ----- --- --- ------ -------- ----- --- ------ ----- --<br>----- ----- ---------- --- --- ------ ------ ---- -- ------<br>------- --- ------ ----- --- ---- ------- -- ---- --- --<br>------- ------,295422.5,295421.7000000477,294831.134,294841.10000002384,294846.721,295430.069,,4,French
screen,html.Screen,2_1_1_1_5,2022-05-09T17:24:11.155Z,,,,,,,,,,,,,,,,,54,,,,,,,,,,,,,,447.7310000715079,,response,,,,100,,,,,,,Space,keypress(Space),,,,,,,,-- --- ---- --- ------ crown ------- ---- -- --- ------- --<br>------- ---------- ------ -- ----- -- ----- -- ---- ------<br>--- ----- --- --- ------ -------- ----- --- ------ ----- --<br>----- ----- ---------- --- --- ------ ------ ---- -- ------<br>------- --- ------ ----- --- ---- ------- -- ---- --- --<br>------- ------,295878.7000000477,295877.8000000715,295413.426,295422.60000002384,295430.069,295901.663,,5,crown
screen,html.Screen,2_1_1_1_6,2022-05-09T17:24:11.642Z,,,,,,,,,,,,,,,,,54,,,,,,,,,,,,,,462.6370000715251,,response,,,,100,,,,,,,Space,keypress(Space),,,,,,,,-- --- ---- --- ------ ----- secured ---- -- --- ------- --<br>------- ---------- ------ -- ----- -- ----- -- ---- ------<br>--- ----- --- --- ------ -------- ----- --- ------ ----- --<br>----- ----- ---------- --- --- ------ ------ ---- -- ------<br>------- --- ------ ----- --- ---- ------- -- ---- --- --<br>------- ------,296365.60000002384,296364.3000000715,295864.116,295878.8000000715,295901.663,296380.146,,6,secured
screen,html.Screen,2_1_1_1_7,2022-05-09T17:24:12.112Z,,,,,,,,,,,,,,,,,54,,,,,,,,,,,,,,455.0540000476758,,response,,,,100,,,,,,,Space,keypress(Space),,,,,,,,-- --- ---- --- ------ ----- ------- much -- --- ------- --<br>------- ---------- ------ -- ----- -- ----- -- ---- ------<br>--- ----- --- --- ------ -------- ----- --- ------ ----- --<br>----- ----- ---------- --- --- ------ ------ ---- -- ------<br>------- --- ------ ----- --- ---- ------- -- ---- --- --<br>------- ------,296836.10000002384,296835.2000000477,296363.82,296365.8000000715,296380.146,296847.389,,7,much
screen,html.Screen,2_1_1_1_8,2022-05-09T17:24:12.575Z,,,,,,,,,,,,,,,,,54,,,,,,,,,,,,,,449.6109999999753,,response,,,,100,,,,,,,Space,keypress(Space),,,,,,,,-- --- ---- --- ------ ----- ------- ---- of --- ------- --<br>------- ---------- ------ -- ----- -- ----- -- ---- ------<br>--- ----- --- --- ------ -------- ----- --- ------ ----- --<br>----- ----- ---------- --- --- ------ ------ ---- -- ------<br>------- --- ------ ----- --- ---- ------- -- ---- --- --<br>------- ------,297299,297297,296830.776,296836.2000000477,296847.389,297313.874,,8,of
screen,html.Screen,2_1_1_1_9,2022-05-09T17:24:12.991Z,,,,,,,,,,,,,,,,,54,,,,,,,,,,,,,,399.42600007151486,,response,,,,100,,,,,,,Space,keypress(Space),,,,,,,,-- --- ---- --- ------ ----- ------- ---- -- its ------- --<br>------- ---------- ------ -- ----- -- ----- -- ---- ------<br>--- ----- --- --- ------ -------- ----- --- ------ ----- --<br>----- ----- ---------- --- --- ------ ------ ---- -- ------<br>------- --- ------ ----- --- ---- ------- -- ---- --- --<br>------- ------,297714.60000002384,297713.3000000715,297297.413,297299.2000000477,297313.874,297730.104,,9,its
screen,html.Screen,2_1_1_1_10,2022-05-09T17:24:13.422Z,,,,,,,,,,,,,,,,,54,,,,,,,,,,,,,,414.3960000000079,,response,,,,100,,,,,,,Space,keypress(Space),,,,,,,,-- --- ---- --- ------ ----- ------- ---- -- --- revenue --<br>------- ---------- ------ -- ----- -- ----- -- ---- ------<br>--- ----- --- --- ------ -------- ----- --- ------ ----- --<br>----- ----- ---------- --- --- ------ ------ ---- -- ------<br>------- --- ------ ----- --- ---- ------- -- ---- --- --<br>------- ------,298145.7000000477,298144.5,297714.16,297714.8000000715,297730.104,298180.002,,10,revenue
screen,html.Screen,2_1_1_1_11,2022-05-09T17:24:14.009Z,,,,,,,,,,,,,,,,,54,,,,,,,,,,,,,,551.0980000238633,,response,,,,100,,,,,,,Space,keypress(Space),,,,,,,,-- --- ---- --- ------ ----- ------- ---- -- --- ------- by<br>------- ---------- ------ -- ----- -- ----- -- ---- ------<br>--- ----- --- --- ------ -------- ----- --- ------ ----- --<br>----- ----- ---------- --- --- ------ ------ ---- -- ------<br>------- --- ------ ----- --- ---- ------- -- ---- --- --<br>------- ------,298732.8000000715,298731.10000002384,298172.625,298145.8000000715,298180.002,298747.203,,11,by
screen,html.Screen,2_1_1_1_12,2022-05-09T17:24:14.485Z,,,,,,,,,,,,,,,,,54,,,,,,,,,,,,,,460.4970000477042,,response,,,,100,,,,,,,Space,keypress(Space),,,,,,,,-- --- ---- --- ------ ----- ------- ---- -- --- ------- --<br>issuing ---------- ------ -- ----- -- ----- -- ---- ------<br>--- ----- --- --- ------ -------- ----- --- ------ ----- --<br>----- ----- ---------- --- --- ------ ------ ---- -- ------<br>------- --- ------ ----- --- ---- ------- -- ---- --- --<br>------- ------,299208.8000000715,299207.7000000477,298730.485,298733,298747.203,299213.41,,12,issuing
screen,html.Screen,2_1_1_1_13,2022-05-09T17:24:14.902Z,,,,,,,,,,,,,,,,,54,,,,,,,,,,,,,,410.49000009539304,,response,,,,100,,,,,,,Space,keypress(Space),,,,,,,,-- --- ---- --- ------ ----- ------- ---- -- --- ------- --<br>------- government ------ -- ----- -- ----- -- ---- ------<br>--- ----- --- --- ------ -------- ----- --- ------ ----- --<br>----- ----- ---------- --- --- ------ ------ ---- -- ------<br>------- --- ------ ----- --- ---- ------- -- ---- --- --<br>------- ------,299625.10000002384,299623.90000009537,299196.72,299208.90000009537,299213.41,299630.095,,13,government
screen,html.Screen,2_1_1_1_14,2022-05-09T17:24:15.279Z,,,,,,,,,,,,,,,,,54,,,,,,,,,,,,,,371.40500000002794,,response,,,,100,,,,,,,Space,keypress(Space),,,,,,,,-- --- ---- --- ------ ----- ------- ---- -- --- ------- --<br>------- ---------- bonds. -- ----- -- ----- -- ---- ------<br>--- ----- --- --- ------ -------- ----- --- ------ ----- --<br>----- ----- ---------- --- --- ------ ------ ---- -- ------<br>------- --- ------ ----- --- ---- ------- -- ---- --- --<br>------- ------,300002.60000002384,300001.5,299613.847,299625.3000000715,299630.095,300013.425,,14,bonds.
screen,html.Screen,2_1_1_1_15,2022-05-09T17:24:15.985Z,,,,,,,,,,,,,,,,,54,,,,,,,,,,,,,,693.9750000953791,,response,,,,100,,,,,,,Space,keypress(Space),,,,,,,,-- --- ---- --- ------ ----- ------- ---- -- --- ------- --<br>------- ---------- ------ In ----- -- ----- -- ---- ------<br>--- ----- --- --- ------ -------- ----- --- ------ ----- --<br>----- ----- ---------- --- --- ------ ------ ---- -- ------<br>------- --- ------ ----- --- ---- ------- -- ---- --- --<br>------- ------,300708.60000002384,300707.40000009537,299997.164,300002.8000000715,300013.425,300713.427,,15,In
screen,html.Screen,2_1_1_1_16,2022-05-09T17:24:16.491Z,,,,,,,,,,,,,,,,,54,,,,,,,,,,,,,,499.77300004765857,,response,,,,100,,,,,,,Space,keypress(Space),,,,,,,,"-- --- ---- --- ------ ----- ------- ---- -- --- ------- --<br>------- ---------- ------ -- 1727, -- ----- -- ---- ------<br>--- ----- --- --- ------ -------- ----- --- ------ ----- --<br>----- ----- ---------- --- --- ------ ------ ---- -- ------<br>------- --- ------ ----- --- ---- ------- -- ---- --- --<br>------- ------",301214.2000000477,301213.2000000477,300697.308,300708.8000000715,300713.427,301230.122,,16,"1727,"
screen,html.Screen,2_1_1_1_17,2022-05-09T17:24:17.008Z,,,,,,,,,,,,,,,,,54,,,,,,,,,,,,,,499.7780000953935,,response,,,,100,,,,,,,Space,keypress(Space),,,,,,,,-- --- ---- --- ------ ----- ------- ---- -- --- ------- --<br>------- ---------- ------ -- ----- in ----- -- ---- ------<br>--- ----- --- --- ------ -------- ----- --- ------ ----- --<br>----- ----- ---------- --- --- ------ ------ ---- -- ------<br>------- --- ------ ----- --- ---- ------- -- ---- --- --<br>------- ------,301731.10000002384,301729.90000009537,301213.845,301215.40000009537,301230.122,301747.238,,17,in
screen,html.Screen,2_1_1_1_18,2022-05-09T17:24:17.469Z,,,,,,,,,,,,,,,,,54,,,,,,,,,,,,,,444.06200007151347,,response,,,,100,,,,,,,Space,keypress(Space),,,,,,,,-- --- ---- --- ------ ----- ------- ---- -- --- ------- --<br>------- ---------- ------ -- ----- -- order -- ---- ------<br>--- ----- --- --- ------ -------- ----- --- ------ ----- --<br>----- ----- ---------- --- --- ------ ------ ---- -- ------<br>------- --- ------ ----- --- ---- ------- -- ---- --- --<br>------- ------,302192.40000009537,302191.3000000715,301730.782,301731.2000000477,301747.238,302196.896,,18,order
screen,html.Screen,2_1_1_1_19,2022-05-09T17:24:18.297Z,,,,,,,,,,,,,,,,,54,,,,,,,,,,,,,,823.2040000238339,,response,,,,100,,,,,,,Space,keypress(Space),,,,,,,,-- --- ---- --- ------ ----- ------- ---- -- --- ------- --<br>------- ---------- ------ -- ----- -- ----- to ---- ------<br>--- ----- --- --- ------ -------- ----- --- ------ ----- --<br>----- ----- ---------- --- --- ------ ------ ---- -- ------<br>------- --- ------ ----- --- ---- ------- -- ---- --- --<br>------- ------,303021,303020.10000002384,302180.77,302192.7000000477,302196.896,303030.116,,19,to
screen,html.Screen,2_1_1_1_20,2022-05-09T17:24:18.868Z,,,,,,,,,,,,,,,,,54,,,,,,,,,,,,,,560.2840000953875,,response,,,,100,,,,,,,Space,keypress(Space),,,,,,,,-- --- ---- --- ------ ----- ------- ---- -- --- ------- --<br>------- ---------- ------ -- ----- -- ----- -- save ------<br>--- ----- --- --- ------ -------- ----- --- ------ ----- --<br>----- ----- ---------- --- --- ------ ------ ---- -- ------<br>------- --- ------ ----- --- ---- ------- -- ---- --- --<br>------- ------,303591.5,303590.40000009537,303013.851,303021.10000002384,303030.116,303596.764,,20,save
screen,html.Screen,2_1_1_1_21,2022-05-09T17:24:19.590Z,,,,,,,,,,,,,,,,,54,,,,,,,,,,,,,,715.7359999999753,,response,,,,100,,,,,,,Space,keypress(Space),,,,,,,,"-- --- ---- --- ------ ----- ------- ---- -- --- ------- --<br>------- ---------- ------ -- ----- -- ----- -- ---- money,<br>--- ----- --- --- ------ -------- ----- --- ------ ----- --<br>----- ----- ---------- --- --- ------ ------ ---- -- ------<br>------- --- ------ ----- --- ---- ------- -- ---- --- --<br>------- ------",304313.60000002384,304312.5,303580.95,303591.7000000477,303596.764,304330.592,,21,"money,"
screen,html.Screen,2_1_1_1_22,2022-05-09T17:24:20.141Z,,,,,,,,,,,,,,,,,54,,,,,,,,,,,,,,533.3080000953632,,response,,,,100,,,,,,,Space,keypress(Space),,,,,,,,-- --- ---- --- ------ ----- ------- ---- -- --- ------- --<br>------- ---------- ------ -- ----- -- ----- -- ---- ------<br>the ----- --- --- ------ -------- ----- --- ------ ----- --<br>----- ----- ---------- --- --- ------ ------ ---- -- ------<br>------- --- ------ ----- --- ---- ------- -- ---- --- --<br>------- ------,304865,304863.90000009537,304313.472,304313.7000000477,304330.592,304880.202,,22,the
screen,html.Screen,2_1_1_1_23,2022-05-09T17:24:20.809Z,,,,,,,,,,,,,,,,,54,,,,,,,,,,,,,,650.8980000238516,,response,,,,100,,,,,,,Space,keypress(Space),,,,,,,,-- --- ---- --- ------ ----- ------- ---- -- --- ------- --<br>------- ---------- ------ -- ----- -- ----- -- ---- ------<br>--- state --- --- ------ -------- ----- --- ------ ----- --<br>----- ----- ---------- --- --- ------ ------ ---- -- ------<br>------- --- ------ ----- --- ---- ------- -- ---- --- --<br>------- ------,305532.3000000715,305531.10000002384,304864.148,304865.2000000477,304880.202,305546.796,,23,state
screen,html.Screen,2_1_1_1_24,2022-05-09T17:24:21.446Z,,,,,,,,,,,,,,,,,54,,,,,,,,,,,,,,621.204000000027,,response,,,,100,,,,,,,Space,keypress(Space),,,,,,,,-- --- ---- --- ------ ----- ------- ---- -- --- ------- --<br>------- ---------- ------ -- ----- -- ----- -- ---- ------<br>--- ----- cut --- ------ -------- ----- --- ------ ----- --<br>----- ----- ---------- --- --- ------ ------ ---- -- ------<br>------- --- ------ ----- --- ---- ------- -- ---- --- --<br>------- ------,306169.2000000477,306168,305530.772,305532.40000009537,305546.796,306180.604,,24,cut
screen,html.Screen,2_1_1_1_25,2022-05-09T17:24:21.942Z,,,,,,,,,,,,,,,,,54,,,,,,,,,,,,,,483.79600009537535,,response,,,,100,,,,,,,Space,keypress(Space),,,,,,,,-- --- ---- --- ------ ----- ------- ---- -- --- ------- --<br>------- ---------- ------ -- ----- -- ----- -- ---- ------<br>--- ----- --- the ------ -------- ----- --- ------ ----- --<br>----- ----- ---------- --- --- ------ ------ ---- -- ------<br>------- --- ------ ----- --- ---- ------- -- ---- --- --<br>------- ------,306665.5,306664.40000009537,306164.084,306169.40000009537,306180.604,306680.687,,25,the
screen,html.Screen,2_1_1_1_26,2022-05-09T17:24:22.443Z,,,,,,,,,,,,,,,,,54,,,,,,,,,,,,,,485.1130000715493,,response,,,,100,,,,,,,Space,keypress(Space),,,,,,,,-- --- ---- --- ------ ----- ------- ---- -- --- ------- --<br>------- ---------- ------ -- ----- -- ----- -- ---- ------<br>--- ----- --- --- bonds' -------- ----- --- ------ ----- --<br>----- ----- ---------- --- --- ------ ------ ---- -- ------<br>------- --- ------ ----- --- ---- ------- -- ---- --- --<br>------- ------,307167,307165.8000000715,306664.141,306665.7000000477,306680.687,307180.157,,26,bonds'
screen,html.Screen,2_1_1_1_27,2022-05-09T17:24:23.130Z,,,,,,,,,,,,,,,,,54,,,,,,,,,,,,,,672.643000071519,,response,,,,100,,,,,,,Space,keypress(Space),,,,,,,,-- --- ---- --- ------ ----- ------- ---- -- --- ------- --<br>------- ---------- ------ -- ----- -- ----- -- ---- ------<br>--- ----- --- --- ------ interest ----- --- ------ ----- --<br>----- ----- ---------- --- --- ------ ------ ---- -- ------<br>------- --- ------ ----- --- ---- ------- -- ---- --- --<br>------- ------,307853.60000002384,307852.8000000715,307164.14,307167.10000002384,307180.157,307863.487,,27,interest
screen,html.Screen,2_1_1_1_28,2022-05-09T17:24:23.642Z,,,,,,,,,,,,,,,,,54,,,,,,,,,,,,,,500.4130000953446,,response,,,,100,,,,,,,Space,keypress(Space),,,,,,,,-- --- ---- --- ------ ----- ------- ---- -- --- ------- --<br>------- ---------- ------ -- ----- -- ----- -- ---- ------<br>--- ----- --- --- ------ -------- rate. --- ------ ----- --<br>----- ----- ---------- --- --- ------ ------ ---- -- ------<br>------- --- ------ ----- --- ---- ------- -- ---- --- --<br>------- ------,308365.5,308363.90000009537,307847.358,307853.8000000715,307863.487,308380.172,,28,rate.
screen,html.Screen,2_1_1_1_29,2022-05-09T17:24:24.193Z,,,,,,,,,,,,,,,,,54,,,,,,,,,,,,,,535.1280000715051,,response,,,,100,,,,,,,Space,keypress(Space),,,,,,,,-- --- ---- --- ------ ----- ------- ---- -- --- ------- --<br>------- ---------- ------ -- ----- -- ----- -- ---- ------<br>--- ----- --- --- ------ -------- ----- The ------ ----- --<br>----- ----- ---------- --- --- ------ ------ ---- -- ------<br>------- --- ------ ----- --- ---- ------- -- ---- --- --<br>------- ------,308916.10000002384,308915.3000000715,308364.134,308365.7000000477,308380.172,308930.205,,29,The
screen,html.Screen,2_1_1_1_30,2022-05-09T17:24:24.800Z,,,,,,,,,,,,,,,,,54,,,,,,,,,,,,,,592.4950000476674,,response,,,,100,,,,,,,Space,keypress(Space),,,,,,,,-- --- ---- --- ------ ----- ------- ---- -- --- ------- --<br>------- ---------- ------ -- ----- -- ----- -- ---- ------<br>--- ----- --- --- ------ -------- ----- --- market ----- --<br>----- ----- ---------- --- --- ------ ------ ---- -- ------<br>------- --- ------ ----- --- ---- ------- -- ---- --- --<br>------- ------,309523.8000000715,309522.7000000477,308913.487,308916.3000000715,308930.205,309530.149,,30,market
screen,html.Screen,2_1_1_1_31,2022-05-09T17:24:25.333Z,,,,,,,,,,,,,,,,,54,,,,,,,,,,,,,,524.9510000238661,,response,,,,100,,,,,,,Space,keypress(Space),,,,,,,,-- --- ---- --- ------ ----- ------- ---- -- --- ------- --<br>------- ---------- ------ -- ----- -- ----- -- ---- ------<br>--- ----- --- --- ------ -------- ----- --- ------ value --<br>----- ----- ---------- --- --- ------ ------ ---- -- ------<br>------- --- ------ ----- --- ---- ------- -- ---- --- --<br>------- ------,310056.2000000477,310055.10000002384,309514.135,309524.10000002384,309530.149,310063.962,,31,value
screen,html.Screen,2_1_1_1_32,2022-05-09T17:24:25.828Z,,,,,,,,,,,,,,,,,54,,,,,,,,,,,,,,486.6380000238423,,response,,,,100,,,,,,,Space,keypress(Space),,,,,,,,-- --- ---- --- ------ ----- ------- ---- -- --- ------- --<br>------- ---------- ------ -- ----- -- ----- -- ---- ------<br>--- ----- --- --- ------ -------- ----- --- ------ ----- of<br>----- ----- ---------- --- --- ------ ------ ---- -- ------<br>------- --- ------ ----- --- ---- ------- -- ---- --- --<br>------- ------,310551.8000000715,310550.60000002384,310047.249,310056.40000009537,310063.962,310564,,32,of
screen,html.Screen,2_1_1_1_33,2022-05-09T17:24:26.360Z,,,,,,,,,,,,,,,,,54,,,,,,,,,,,,,,518.3000000715256,,response,,,,100,,,,,,,Space,keypress(Space),,,,,,,,-- --- ---- --- ------ ----- ------- ---- -- --- ------- --<br>------- ---------- ------ -- ----- -- ----- -- ---- ------<br>--- ----- --- --- ------ -------- ----- --- ------ ----- --<br>these ----- ---------- --- --- ------ ------ ---- -- ------<br>------- --- ------ ----- --- ---- ------- -- ---- --- --<br>------- ------,311083.10000002384,311082.3000000715,310546.841,310551.90000009537,310564,311097.393,,33,these
screen,html.Screen,2_1_1_1_34,2022-05-09T17:24:26.886Z,,,,,,,,,,,,,,,,,54,,,,,,,,,,,,,,511.40700007154373,,response,,,,100,,,,,,,Space,keypress(Space),,,,,,,,-- --- ---- --- ------ ----- ------- ---- -- --- ------- --<br>------- ---------- ------ -- ----- -- ----- -- ---- ------<br>--- ----- --- --- ------ -------- ----- --- ------ ----- --<br>----- bonds ---------- --- --- ------ ------ ---- -- ------<br>------- --- ------ ----- --- ---- ------- -- ---- --- --<br>------- ------,311609.90000009537,311608.8000000715,311080.839,311083.40000009537,311097.393,311613.549,,34,bonds
screen,html.Screen,2_1_1_1_35,2022-05-09T17:24:27.528Z,,,,,,,,,,,,,,,,,54,,,,,,,,,,,,,,637.0510000238428,,response,,,,100,,,,,,,Space,keypress(Space),,,,,,,,"-- --- ---- --- ------ ----- ------- ---- -- --- ------- --<br>------- ---------- ------ -- ----- -- ----- -- ---- ------<br>--- ----- --- --- ------ -------- ----- --- ------ ----- --<br>----- ----- plummeted, --- --- ------ ------ ---- -- ------<br>------- --- ------ ----- --- ---- ------- -- ---- --- --<br>------- ------",312251.8000000715,312250.60000002384,311596.867,311610.10000002384,311613.549,312263.518,,35,"plummeted,"
screen,html.Screen,2_1_1_1_36,2022-05-09T17:24:28.155Z,,,,,,,,,,,,,,,,,54,,,,,,,,,,,,,,613.8820000953856,,response,,,,100,,,,,,,Space,keypress(Space),,,,,,,,-- --- ---- --- ------ ----- ------- ---- -- --- ------- --<br>------- ---------- ------ -- ----- -- ----- -- ---- ------<br>--- ----- --- --- ------ -------- ----- --- ------ ----- --<br>----- ----- ---------- and --- ------ ------ ---- -- ------<br>------- --- ------ ----- --- ---- ------- -- ---- --- --<br>------- ------,312878.2000000477,312877.40000009537,312247.252,312251.90000009537,312263.518,312880.167,,36,and
screen,html.Screen,2_1_1_1_37,2022-05-09T17:24:28.667Z,,,,,,,,,,,,,,,,,54,,,,,,,,,,,,,,509.2330000953516,,response,,,,100,,,,,,,Space,keypress(Space),,,,,,,,-- --- ---- --- ------ ----- ------- ---- -- --- ------- --<br>------- ---------- ------ -- ----- -- ----- -- ---- ------<br>--- ----- --- --- ------ -------- ----- --- ------ ----- --<br>----- ----- ---------- --- the ------ ------ ---- -- ------<br>------- --- ------ ----- --- ---- ------- -- ---- --- --<br>------- ------,313390.3000000715,313389.40000009537,312864.176,312878.5,312880.167,313396.801,,37,the
screen,html.Screen,2_1_1_1_38,2022-05-09T17:24:29.258Z,,,,,,,,,,,,,,,,,54,,,,,,,,,,,,,,584.1990000000224,,response,,,,100,,,,,,,Space,keypress(Space),,,,,,,,-- --- ---- --- ------ ----- ------- ---- -- --- ------- --<br>------- ---------- ------ -- ----- -- ----- -- ---- ------<br>--- ----- --- --- ------ -------- ----- --- ------ ----- --<br>----- ----- ---------- --- --- market ------ ---- -- ------<br>------- --- ------ ----- --- ---- ------- -- ---- --- --<br>------- ------,313981.8000000715,313981,313380.607,313390.40000009537,313396.801,313997.636,,38,market
screen,html.Screen,2_1_1_1_39,2022-05-09T17:24:29.825Z,,,,,,,,,,,,,,,,,54,,,,,,,,,,,,,,549.664000071527,,response,,,,100,,,,,,,Space,keypress(Space),,,,,,,,-- --- ---- --- ------ ----- ------- ---- -- --- ------- --<br>------- ---------- ------ -- ----- -- ----- -- ---- ------<br>--- ----- --- --- ------ -------- ----- --- ------ ----- --<br>----- ----- ---------- --- --- ------ became ---- -- ------<br>------- --- ------ ----- --- ---- ------- -- ---- --- --<br>------- ------,314548.5,314547.3000000715,313980.631,313982,313997.636,314563.998,,39,became
screen,html.Screen,2_1_1_1_40,2022-05-09T17:24:30.492Z,,,,,,,,,,,,,,,,,54,,,,,,,,,,,,,,650.5019999999786,,response,,,,100,,,,,,,Space,keypress(Space),,,,,,,,-- --- ---- --- ------ ----- ------- ---- -- --- ------- --<br>------- ---------- ------ -- ----- -- ----- -- ---- ------<br>--- ----- --- --- ------ -------- ----- --- ------ ----- --<br>----- ----- ---------- --- --- ------ ------ wary -- ------<br>------- --- ------ ----- --- ---- ------- -- ---- --- --<br>------- ------,315215.7000000477,315214.5,314547.511,314548.60000002384,314563.998,315230.706,,40,wary
screen,html.Screen,2_1_1_1_41,2022-05-09T17:24:31.098Z,,,,,,,,,,,,,,,,,54,,,,,,,,,,,,,,590.2939999999944,,response,,,,100,,,,,,,Space,keypress(Space),,,,,,,,-- --- ---- --- ------ ----- ------- ---- -- --- ------- --<br>------- ---------- ------ -- ----- -- ----- -- ---- ------<br>--- ----- --- --- ------ -------- ----- --- ------ ----- --<br>----- ----- ---------- --- --- ------ ------ ---- of ------<br>------- --- ------ ----- --- ---- ------- -- ---- --- --<br>------- ------,315821.8000000715,315821,315214.222,315215.8000000715,315230.706,315830.191,,41,of
screen,html.Screen,2_1_1_1_42,2022-05-09T17:24:31.991Z,,,,,,,,,,,,,,,,,54,,,,,,,,,,,,,,883.5090000476921,,response,,,,100,,,,,,,Space,keypress(Space),,,,,,,,-- --- ---- --- ------ ----- ------- ---- -- --- ------- --<br>------- ---------- ------ -- ----- -- ----- -- ---- ------<br>--- ----- --- --- ------ -------- ----- --- ------ ----- --<br>----- ----- ---------- --- --- ------ ------ ---- -- French<br>------- --- ------ ----- --- ---- ------- -- ---- --- --<br>------- ------,316714.90000009537,316713.7000000477,315814.035,315822,315830.191,316730.682,,42,French
screen,html.Screen,2_1_1_1_43,2022-05-09T17:24:32.849Z,,,,,,,,,,,,,,,,,54,,,,,,,,,,,,,,840.8180000000284,,response,,,,100,,,,,,,Space,keypress(Space),,,,,,,,-- --- ---- --- ------ ----- ------- ---- -- --- ------- --<br>------- ---------- ------ -- ----- -- ----- -- ---- ------<br>--- ----- --- --- ------ -------- ----- --- ------ ----- --<br>----- ----- ---------- --- --- ------ ------ ---- -- ------<br>credit. --- ------ ----- --- ---- ------- -- ---- --- --<br>------- ------,317572.60000002384,317571.5,316714.07,316715,316730.682,317580.716,,43,credit.
screen,html.Screen,2_1_1_1_44,2022-05-09T17:24:33.511Z,,,,,,,,,,,,,,,,,54,,,,,,,,,,,,,,652.4840000476688,,response,,,,100,,,,,,,Space,keypress(Space),,,,,,,,-- --- ---- --- ------ ----- ------- ---- -- --- ------- --<br>------- ---------- ------ -- ----- -- ----- -- ---- ------<br>--- ----- --- --- ------ -------- ----- --- ------ ----- --<br>----- ----- ---------- --- --- ------ ------ ---- -- ------<br>------- The ------ ----- --- ---- ------- -- ---- --- --<br>------- ------,318234.2000000477,318233.2000000477,317563.605,317572.8000000715,317580.716,318247.36,,44,The
screen,html.Screen,2_1_1_1_45,2022-05-09T17:24:34.329Z,,,,,,,,,,,,,,,,,54,,,,,,,,,,,,,,804.3400000476977,,response,,,,100,,,,,,,Space,keypress(Space),,,,,,,,-- --- ---- --- ------ ----- ------- ---- -- --- ------- --<br>------- ---------- ------ -- ----- -- ----- -- ---- ------<br>--- ----- --- --- ------ -------- ----- --- ------ ----- --<br>----- ----- ---------- --- --- ------ ------ ---- -- ------<br>------- --- French ----- --- ---- ------- -- ---- --- --<br>------- ------,319052.7000000477,319051.7000000477,318230.892,318234.40000009537,318247.36,319064.166,,45,French
screen,html.Screen,2_1_1_1_46,2022-05-09T17:24:35.186Z,,,,,,,,,,,,,,,,,54,,,,,,,,,,,,,,844.3339999999735,,response,,,,100,,,,,,,Space,keypress(Space),,,,,,,,-- --- ---- --- ------ ----- ------- ---- -- --- ------- --<br>------- ---------- ------ -- ----- -- ----- -- ---- ------<br>--- ----- --- --- ------ -------- ----- --- ------ ----- --<br>----- ----- ---------- --- --- ------ ------ ---- -- ------<br>------- --- ------ state --- ---- ------- -- ---- --- --<br>------- ------,319909.40000009537,319908.5,319047.559,319052.90000009537,319064.166,319913.562,,46,state
screen,html.Screen,2_1_1_1_47,2022-05-09T17:24:35.928Z,,,,,,,,,,,,,,,,,54,,,,,,,,,,,,,,736.5380000238656,,response,,,,100,,,,,,,Space,keypress(Space),,,,,,,,-- --- ---- --- ------ ----- ------- ---- -- --- ------- --<br>------- ---------- ------ -- ----- -- ----- -- ---- ------<br>--- ----- --- --- ------ -------- ----- --- ------ ----- --<br>----- ----- ---------- --- --- ------ ------ ---- -- ------<br>------- --- ------ ----- was ---- ------- -- ---- --- --<br>------- ------,320651.2000000477,320650.10000002384,319897.545,319909.5,319913.562,320663.654,,47,was
screen,html.Screen,2_1_1_1_48,2022-05-09T17:24:36.714Z,,,,,,,,,,,,,,,,,54,,,,,,,,,,,,,,773.746000095387,,response,,,,100,,,,,,,Space,keypress(Space),,,,,,,,-- --- ---- --- ------ ----- ------- ---- -- --- ------- --<br>------- ---------- ------ -- ----- -- ----- -- ---- ------<br>--- ----- --- --- ------ -------- ----- --- ------ ----- --<br>----- ----- ---------- --- --- ------ ------ ---- -- ------<br>------- --- ------ ----- --- left ------- -- ---- --- --<br>------- ------,321438.60000002384,321437.40000009537,320647.321,320651.40000009537,320663.654,321446.849,,48,left
screen,html.Screen,2_1_1_1_49,2022-05-09T17:24:37.481Z,,,,,,,,,,,,,,,,,54,,,,,,,,,,,,,,757.7510000238544,,response,,,,100,,,,,,,Space,keypress(Space),,,,,,,,-- --- ---- --- ------ ----- ------- ---- -- --- ------- --<br>------- ---------- ------ -- ----- -- ----- -- ---- ------<br>--- ----- --- --- ------ -------- ----- --- ------ ----- --<br>----- ----- ---------- --- --- ------ ------ ---- -- ------<br>------- --- ------ ----- --- ---- without -- ---- --- --<br>------- ------,322205.8000000715,322204.60000002384,321430.259,321438.7000000477,321446.849,322213.703,,49,without
screen,html.Screen,2_1_1_1_50,2022-05-09T17:24:38.238Z,,,,,,,,,,,,,,,,,54,,,,,,,,,,,,,,748.2970000000205,,response,,,,100,,,,,,,Space,keypress(Space),,,,,,,,-- --- ---- --- ------ ----- ------- ---- -- --- ------- --<br>------- ---------- ------ -- ----- -- ----- -- ---- ------<br>--- ----- --- --- ------ -------- ----- --- ------ ----- --<br>----- ----- ---------- --- --- ------ ------ ---- -- ------<br>------- --- ------ ----- --- ---- ------- an ---- --- --<br>------- ------,322963.10000002384,322962,322196.933,322206,322213.703,322997.432,,50,an
screen,html.Screen,2_1_1_1_51,2022-05-09T17:24:39.090Z,,,,,,,,,,,,,,,,,54,,,,,,,,,,,,,,816.6680000238703,,response,,,,100,,,,,,,Space,keypress(Space),,,,,,,,-- --- ---- --- ------ ----- ------- ---- -- --- ------- --<br>------- ---------- ------ -- ----- -- ----- -- ---- ------<br>--- ----- --- --- ------ -------- ----- --- ------ ----- --<br>----- ----- ---------- --- --- ------ ------ ---- -- ------<br>------- --- ------ ----- --- ---- ------- -- easy --- --<br>------- ------,323814.90000009537,323814.10000002384,322980.963,322963.40000009537,322997.432,323830.726,,51,easy
screen,html.Screen,2_1_1_1_52,2022-05-09T17:24:40.063Z,,,,,,,,,,,,,,,,,54,,,,,,,,,,,,,,955.5740000715014,,response,,,,100,,,,,,,Space,keypress(Space),,,,,,,,-- --- ---- --- ------ ----- ------- ---- -- --- ------- --<br>------- ---------- ------ -- ----- -- ----- -- ---- ------<br>--- ----- --- --- ------ -------- ----- --- ------ ----- --<br>----- ----- ---------- --- --- ------ ------ ---- -- ------<br>------- --- ------ ----- --- ---- ------- -- ---- way --<br>------- ------,324787.5,324786.3000000715,323814.166,323815,323830.726,324796.942,,52,way
screen,html.Screen,2_1_1_1_53,2022-05-09T17:24:41.047Z,,,,,,,,,,,,,,,,,54,,,,,,,,,,,,,,973.5580000000191,,response,,,,100,,,,,,,Space,keypress(Space),,,,,,,,-- --- ---- --- ------ ----- ------- ---- -- --- ------- --<br>------- ---------- ------ -- ----- -- ----- -- ---- ------<br>--- ----- --- --- ------ -------- ----- --- ------ ----- --<br>----- ----- ---------- --- --- ------ ------ ---- -- ------<br>------- --- ------ ----- --- ---- ------- -- ---- --- of<br>------- ------,325771.7000000477,325770.5,324780.909,324787.7000000477,324796.942,325780.392,,53,of
screen,html.Screen,2_1_1_1_54,2022-05-09T17:24:41.828Z,,,,,,,,,,,,,,,,,54,,,,,,,,,,,,,,771.1080000000075,,response,,,,100,,,,,,,Space,keypress(Space),,,,,,,,-- --- ---- --- ------ ----- ------- ---- -- --- ------- --<br>------- ---------- ------ -- ----- -- ----- -- ---- ------<br>--- ----- --- --- ------ -------- ----- --- ------ ----- --<br>----- ----- ---------- --- --- ------ ------ ---- -- ------<br>------- --- ------ ----- --- ---- ------- -- ---- --- --<br>raising ------,326552.90000009537,326551.5,325764.064,325771.8000000715,325780.392,326563.629,,54,raising
screen,html.Screen,2_1_1_1_55,2022-05-09T17:24:53.854Z,,,,,,,,,,,,,,,,,54,,,,,,,,,,,,,,12013.870999999985,,response,,,,100,,,,,,,Space,keypress(Space),,,,,,,,-- --- ---- --- ------ ----- ------- ---- -- --- ------- --<br>------- ---------- ------ -- ----- -- ----- -- ---- ------<br>--- ----- --- --- ------ -------- ----- --- ------ ----- --<br>----- ----- ---------- --- --- ------ ------ ---- -- ------<br>------- --- ------ ----- --- ---- ------- -- ---- --- --<br>------- money.,338578.60000002384,338577.5,326546.972,326553.10000002384,326563.629,338598.59,,55,money.
Item 100,flow.Loop,2_1_1_1,2022-05-09T17:24:53.854Z,,,,,,,,,,,,,,,,,,,,,,,,,,,,,,,47297.45299999998,,completion,,,,,G,,,,,,,,,,,silence,,,,,338578.90000009537,338577.5,291263.357,291284.90000009537,291280.047,338598.59,,,
Question 1,html.Screen,2_1_1_2,2022-05-09T17:24:57.955Z,,,,,,,,,,,,,,,,,,,,,,,,,,,,true,TRUE,,4080.2100000715,,response,,,,100,G,,,,,,TRUE,click #choice-1,,,,silence,,,,,342680,342678.8000000715,338563.434,338579,338598.59,342704.747,,,
Question 2,html.Screen,2_1_1_3,2022-05-09T17:25:03.478Z,,,,,,,,,,,,,,,,,,,,,,,,,,,,true,FALSE,,5496.1530000953935,,response,,,,100,G,,,,,,FALSE,click #choice-2,,,,silence,,,,,348202.7000000477,348200.90000009537,342663.791,342680.2000000477,342704.747,348214.628,,,
Item 100,flow.Sequence,2_1_1,2022-05-09T17:25:03.478Z,,,,,,,,,,,,,,,,,,,,,,,,,,,,,,,66920.91000009538,,completion,,,,,,,,,,,,,,,,,,,,,348202.90000009537,348200.90000009537,281263.839,281267,281279.99,348214.628,,,
End of Practice,html.Page,2_1_2,2022-05-09T17:25:09.115Z,,,,,,,,,,,,,,,,,,,,,,,,,,,,,,,5624.472000023816,,form submission,,,,,,,,,,,,,,,,,,,,,353839.5,353839.10000002384,348197.304,348203,348214.628,353847.18,,,
Practice,flow.Sequence,2_1,2022-05-09T17:25:09.115Z,,,,,,,,,,,,,,,,,,,,,,,,,,,,,,,142658.50200002384,,completion,,,,,,,,,,,,,,,,,,,,,353839.60000002384,353839.10000002384,211162.802,211173.80000007153,211180.598,353847.18,,,
Trap_instruction,html.Page,2_2_0,2022-05-09T17:25:14.094Z,,,,,,,,,,,,,,,,,,,,,,,,,,,,,,,4971.120000071533,,form submission,,,,,,,,,,,,,,,,,,,,,358818.7000000477,358818.3000000715,353830.727,353839.8000000715,353847.18,358847.232,,,
trap_trial,html.Screen,2_2_1,2022-05-09T17:25:18.023Z,,,,,,,,,,,,,,,,,,,,,,,,,,,,true,1,,3898.1680000953493,,response,,,,,,,,,,,1,click #choice-1,,,,,,,,,362747.60000002384,362745.40000009537,358814.121,358818.90000009537,358847.232,362763.832,,,
end of trap trial,html.Page,2_2_2,2022-05-09T17:25:22.303Z,,,,,,,,,,,,,,,,,,,,,,,,,,,,,,,4263.668000000005,,form submission,,,,,,,,,,,,,,,,,,,,,367027.90000009537,367027.5,362748.268,362747.8000000715,362763.832,367030.771,,,
Trap 1,flow.Sequence,2_2,2022-05-09T17:25:22.303Z,,,,,,,,,,,,,,,,,,,,,,,,,,,,,,,13180.320000000007,,completion,,,,,,,,,,,,,,,,,,,,,367028.2000000477,367027.5,353830.727,353839.8000000715,353847.18,367030.771,,,
Standby,html.Page,2_3_0,2022-05-09T17:25:30.291Z,,,,,,,,,,,,,,,,,,,,,,,,,,,,,,,7999.811999999976,,timeout,,,,,,,,,,,,,,,,,,,,,375015.5,375014.436,367013.949,367028.40000009537,367030.771,375030.583,,,
Holding screen,html.Screen,2_3_1_0_0,2022-05-09T17:25:37.292Z,,,,,,,,,,,,,,,,,,,,,,,,,,,,,,,7000.655000000028,,timeout,,,,,,,,,,,,,,,,,,,,,382015.40000009537,382014.531,375014.436,375015.8000000715,375030.583,382031.238,,,
screen,html.Screen,2_3_1_0_1_0,2022-05-09T17:25:38.319Z,,,,,,,,,,,,,,,,,2,,,,,,,,,,,,,,1009.4620000476716,,response,,,,1,G,,,,,,Space,keypress(Space),,,,instrumental,,,,Two ---- ------ --- ------- ---------- ------- ----------<br>--- --------- --- ----------- ------- ----- ------- ---<br>--------- ---- -- --- ---- -- --------- -- ---- -------<br>-- --------- ------ --- ----- ------ ---- --- --------- --<br>------ - ---- -- --- ----------- ------- ---- ----- -----<br>--- -------- - ------ ---- -- ----- ---- --- --- -----------<br>-- -------,383042.40000009537,383040.7000000477,382014.531,382015.8000000715,382031.238,383047.456,,0,Two
screen,html.Screen,2_3_1_0_1_1,2022-05-09T17:25:39.090Z,,,,,,,,,,,,,,,,,2,,,,,,,,,,,,,,764.9440000953618,,response,,,,1,G,,,,,,Space,keypress(Space),,,,instrumental,,,,--- days ------ --- ------- ---------- ------- ----------<br>--- --------- --- ----------- ------- ----- ------- ---<br>--------- ---- -- --- ---- -- --------- -- ---- -------<br>-- --------- ------ --- ----- ------ ---- --- --------- --<br>------ - ---- -- --- ----------- ------- ---- ----- -----<br>--- -------- - ------ ---- -- ----- ---- --- --- -----------<br>-- -------,383813.60000002384,383812.40000009537,383031.128,383042.5,383047.456,383847.365,,1,days
screen,html.Screen,2_3_1_0_1_2,2022-05-09T17:25:39.513Z,,,,,,,,,,,,,,,,,2,,,,,,,,,,,,,,387.1350000000093,,response,,,,1,G,,,,,,Space,keypress(Space),,,,instrumental,,,,"--- ---- later, --- ------- ---------- ------- ----------<br>--- --------- --- ----------- ------- ----- ------- ---<br>--------- ---- -- --- ---- -- --------- -- ---- -------<br>-- --------- ------ --- ----- ------ ---- --- --------- --<br>------ - ---- -- --- ----------- ------- ---- ----- -----<br>--- -------- - ------ ---- -- ----- ---- --- --- -----------<br>-- -------",384236.60000002384,384234.5,383831.184,383813.7000000477,383847.365,384247.367,,2,"later,"
screen,html.Screen,2_3_1_0_1_3,2022-05-09T17:25:39.742Z,,,,,,,,,,,,,,,,,2,,,,,,,,,,,,,,216.83300004765624,,response,,,,1,G,,,,,,Space,keypress(Space),,,,instrumental,,,,--- ---- ------ the ------- ---------- ------- ----------<br>--- --------- --- ----------- ------- ----- ------- ---<br>--------- ---- -- --- ---- -- --------- -- ---- -------<br>-- --------- ------ --- ----- ------ ---- --- --------- --<br>------ - ---- -- --- ----------- ------- ---- ----- -----<br>--- -------- - ------ ---- -- ----- ---- --- --- -----------<br>-- -------,384465.10000002384,384464.2000000477,384231.146,384236.7000000477,384247.367,384481.158,,3,the
screen,html.Screen,2_3_1_0_1_4,2022-05-09T17:25:40.203Z,,,,,,,,,,,,,,,,,2,,,,,,,,,,,,,,444.44200002384605,,response,,,,1,G,,,,,,Space,keypress(Space),,,,instrumental,,,,--- ---- ------ --- British ---------- ------- ----------<br>--- --------- --- ----------- ------- ----- ------- ---<br>--------- ---- -- --- ---- -- --------- -- ---- -------<br>-- --------- ------ --- ----- ------ ---- --- --------- --<br>------ - ---- -- --- ----------- ------- ---- ----- -----<br>--- -------- - ------ ---- -- ----- ---- --- --- -----------<br>-- -------,384927,384925.60000002384,384464.5,384465.2000000477,384481.158,384930.696,,4,British
screen,html.Screen,2_3_1_0_1_5,2022-05-09T17:25:40.433Z,,,,,,,,,,,,,,,,,2,,,,,,,,,,,,,,225.1040000715293,,response,,,,1,G,,,,,,Space,keypress(Space),,,,instrumental,,,,--- ---- ------ --- ------- astronomer ------- ----------<br>--- --------- --- ----------- ------- ----- ------- ---<br>--------- ---- -- --- ---- -- --------- -- ---- -------<br>-- --------- ------ --- ----- ------ ---- --- --------- --<br>------ - ---- -- --- ----------- ------- ---- ----- -----<br>--- -------- - ------ ---- -- ----- ---- --- --- -----------<br>-- -------,385156.60000002384,385155.8000000715,384914.36,384927.2000000477,384930.696,385164.473,,5,astronomer
screen,html.Screen,2_3_1_0_1_6,2022-05-09T17:25:40.680Z,,,,,,,,,,,,,,,,,2,,,,,,,,,,,,,,237.52700000000186,,response,,,,1,G,,,,,,Space,keypress(Space),,,,instrumental,,,,--- ---- ------ --- ------- ---------- Richard ----------<br>--- --------- --- ----------- ------- ----- ------- ---<br>--------- ---- -- --- ---- -- --------- -- ---- -------<br>-- --------- ------ --- ----- ------ ---- --- --------- --<br>------ - ---- -- --- ----------- ------- ---- ----- -----<br>--- -------- - ------ ---- -- ----- ---- --- --- -----------<br>-- -------,385403.2000000477,385402,385147.968,385156.8000000715,385164.473,385413.982,,6,Richard
screen,html.Screen,2_3_1_0_1_7,2022-05-09T17:25:41.613Z,,,,,,,,,,,,,,,,,2,,,,,,,,,,,,,,920.7180000476656,,response,,,,1,G,,,,,,Space,keypress(Space),,,,instrumental,,,,--- ---- ------ --- ------- ---------- ------- Carrington<br>--- --------- --- ----------- ------- ----- ------- ---<br>--------- ---- -- --- ---- -- --------- -- ---- -------<br>-- --------- ------ --- ----- ------ ---- --- --------- --<br>------ - ---- -- --- ----------- ------- ---- ----- -----<br>--- -------- - ------ ---- -- ----- ---- --- --- -----------<br>-- -------,386336.5,386334.7000000477,385397.385,385403.3000000715,385413.982,386347.814,,7,Carrington
screen,html.Screen,2_3_1_0_1_8,2022-05-09T17:25:42.184Z,,,,,,,,,,,,,,,,,2,,,,,,,,,,,,,,558.4860000715125,,response,,,,1,G,,,,,,Space,keypress(Space),,,,instrumental,,,,--- ---- ------ --- ------- ---------- ------- ----------<br>was --------- --- ----------- ------- ----- ------- ---<br>--------- ---- -- --- ---- -- --------- -- ---- -------<br>-- --------- ------ --- ----- ------ ---- --- --------- --<br>------ - ---- -- --- ----------- ------- ---- ----- -----<br>--- -------- - ------ ---- -- ----- ---- --- --- -----------<br>-- -------,386907.5,386906.3000000715,386330.704,386336.7000000477,386347.814,386914.041,,8,was
screen,html.Screen,2_3_1_0_1_9,2022-05-09T17:25:43.046Z,,,,,,,,,,,,,,,,,2,,,,,,,,,,,,,,854.759000071499,,response,,,,1,G,,,,,,Space,keypress(Space),,,,instrumental,,,,--- ---- ------ --- ------- ---------- ------- ----------<br>--- observing --- ----------- ------- ----- ------- ---<br>--------- ---- -- --- ---- -- --------- -- ---- -------<br>-- --------- ------ --- ----- ------ ---- --- --------- --<br>------ - ---- -- --- ----------- ------- ---- ----- -----<br>--- -------- - ------ ---- -- ----- ---- --- --- -----------<br>-- -------,387770,387768.8000000715,386897.585,386907.60000002384,386914.041,387780.718,,9,observing
screen,html.Screen,2_3_1_0_1_10,2022-05-09T17:25:43.559Z,,,,,,,,,,,,,,,,,2,,,,,,,,,,,,,,500.48200004769024,,response,,,,1,G,,,,,,Space,keypress(Space),,,,instrumental,,,,--- ---- ------ --- ------- ---------- ------- ----------<br>--- --------- the ----------- ------- ----- ------- ---<br>--------- ---- -- --- ---- -- --------- -- ---- -------<br>-- --------- ------ --- ----- ------ ---- --- --------- --<br>------ - ---- -- --- ----------- ------- ---- ----- -----<br>--- -------- - ------ ---- -- ----- ---- --- --- -----------<br>-- -------,388282.40000009537,388281.2000000477,387764.448,387770.2000000477,387780.718,388297.461,,10,the
screen,html.Screen,2_3_1_0_1_11,2022-05-09T17:25:43.969Z,,,,,,,,,,,,,,,,,2,,,,,,,,,,,,,,393.9390000953572,,response,,,,1,G,,,,,,Space,keypress(Space),,,,instrumental,,,,--- ---- ------ --- ------- ---------- ------- ----------<br>--- --------- --- interesting ------- ----- ------- ---<br>--------- ---- -- --- ---- -- --------- -- ---- -------<br>-- --------- ------ --- ----- ------ ---- --- --------- --<br>------ - ---- -- --- ----------- ------- ---- ----- -----<br>--- -------- - ------ ---- -- ----- ---- --- --- -----------<br>-- -------,388692.40000009537,388691.40000009537,388281.16,388282.60000002384,388297.461,388697.393,,11,interesting
screen,html.Screen,2_3_1_0_1_12,2022-05-09T17:25:44.586Z,,,,,,,,,,,,,,,,,2,,,,,,,,,,,,,,610.8070000477019,,response,,,,1,G,,,,,,Space,keypress(Space),,,,instrumental,,,,--- ---- ------ --- ------- ---------- ------- ----------<br>--- --------- --- ----------- sunspot ----- ------- ---<br>--------- ---- -- --- ---- -- --------- -- ---- -------<br>-- --------- ------ --- ----- ------ ---- --- --------- --<br>------ - ---- -- --- ----------- ------- ---- ----- -----<br>--- -------- - ------ ---- -- ----- ---- --- --- -----------<br>-- -------,389309.3000000715,389308.2000000477,388681.188,388692.5,388697.393,389314.058,,12,sunspot
screen,html.Screen,2_3_1_0_1_13,2022-05-09T17:25:45.193Z,,,,,,,,,,,,,,,,,2,,,,,,,,,,,,,,600.9419999999809,,response,,,,1,G,,,,,,Space,keypress(Space),,,,instrumental,,,,--- ---- ------ --- ------- ---------- ------- ----------<br>--- --------- --- ----------- ------- group ------- ---<br>--------- ---- -- --- ---- -- --------- -- ---- -------<br>-- --------- ------ --- ----- ------ ---- --- --------- --<br>------ - ---- -- --- ----------- ------- ---- ----- -----<br>--- -------- - ------ ---- -- ----- ---- --- --- -----------<br>-- -------,389916.8000000715,389915,389298.42,389309.60000002384,389314.058,389931.191,,13,group
screen,html.Screen,2_3_1_0_1_14,2022-05-09T17:25:45.779Z,,,,,,,,,,,,,,,,,2,,,,,,,,,,,,,,570.4090000238502,,response,,,,1,G,,,,,,Space,keypress(Space),,,,instrumental,,,,--- ---- ------ --- ------- ---------- ------- ----------<br>--- --------- --- ----------- ------- ----- through ---<br>--------- ---- -- --- ---- -- --------- -- ---- -------<br>-- --------- ------ --- ----- ------ ---- --- --------- --<br>------ - ---- -- --- ----------- ------- ---- ----- -----<br>--- -------- - ------ ---- -- ----- ---- --- --- -----------<br>-- -------,390502.8000000715,390501.60000002384,389914.08,389917,389931.191,390514.08,,14,through
screen,html.Screen,2_3_1_0_1_15,2022-05-09T17:25:46.391Z,,,,,,,,,,,,,,,,,2,,,,,,,,,,,,,,599.3200000953511,,response,,,,1,G,,,,,,Space,keypress(Space),,,,instrumental,,,,--- ---- ------ --- ------- ---------- ------- ----------<br>--- --------- --- ----------- ------- ----- ------- his<br>--------- ---- -- --- ---- -- --------- -- ---- -------<br>-- --------- ------ --- ----- ------ ---- --- --------- --<br>------ - ---- -- --- ----------- ------- ---- ----- -----<br>--- -------- - ------ ---- -- ----- ---- --- --- -----------<br>-- -------,391114.60000002384,391113.40000009537,390497.971,390502.90000009537,390514.08,391131.198,,15,his
screen,html.Screen,2_3_1_0_1_16,2022-05-09T17:25:47.339Z,,,,,,,,,,,,,,,,,2,,,,,,,,,,,,,,929.902000023867,,response,,,,1,G,,,,,,Space,keypress(Space),,,,instrumental,,,,--- ---- ------ --- ------- ---------- ------- ----------<br>--- --------- --- ----------- ------- ----- ------- ---<br>telescope ---- -- --- ---- -- --------- -- ---- -------<br>-- --------- ------ --- ----- ------ ---- --- --------- --<br>------ - ---- -- --- ----------- ------- ---- ----- -----<br>--- -------- - ------ ---- -- ----- ---- --- --- -----------<br>-- -------,392062.3000000715,392061.10000002384,391114.101,391114.7000000477,391131.198,392064.031,,16,telescope
screen,html.Screen,2_3_1_0_1_17,2022-05-09T17:25:47.920Z,,,,,,,,,,,,,,,,,2,,,,,,,,,,,,,,578.7690000715083,,response,,,,1,G,,,,,,Space,keypress(Space),,,,instrumental,,,,--- ---- ------ --- ------- ---------- ------- ----------<br>--- --------- --- ----------- ------- ----- ------- ---<br>--------- when -- --- ---- -- --------- -- ---- -------<br>-- --------- ------ --- ----- ------ ---- --- --------- --<br>------ - ---- -- --- ----------- ------- ---- ----- -----<br>--- -------- - ------ ---- -- ----- ---- --- --- -----------<br>-- -------,392643.90000009537,392642.8000000715,392047.872,392062.40000009537,392064.031,392647.398,,17,when
screen,html.Screen,2_3_1_0_1_18,2022-05-09T17:25:48.437Z,,,,,,,,,,,,,,,,,2,,,,,,,,,,,,,,512.3020000476972,,response,,,,1,G,,,,,,Space,keypress(Space),,,,instrumental,,,,--- ---- ------ --- ------- ---------- ------- ----------<br>--- --------- --- ----------- ------- ----- ------- ---<br>--------- ---- he --- ---- -- --------- -- ---- -------<br>-- --------- ------ --- ----- ------ ---- --- --------- --<br>------ - ---- -- --- ----------- ------- ---- ----- -----<br>--- -------- - ------ ---- -- ----- ---- --- --- -----------<br>-- -------,393160.7000000477,393159.7000000477,392631.162,392644.10000002384,392647.398,393164.075,,18,he
screen,html.Screen,2_3_1_0_1_19,2022-05-09T17:25:49.004Z,,,,,,,,,,,,,,,,,2,,,,,,,,,,,,,,562.2250000715139,,response,,,,1,G,,,,,,Space,keypress(Space),,,,instrumental,,,,--- ---- ------ --- ------- ---------- ------- ----------<br>--- --------- --- ----------- ------- ----- ------- ---<br>--------- ---- -- saw ---- -- --------- -- ---- -------<br>-- --------- ------ --- ----- ------ ---- --- --------- --<br>------ - ---- -- --- ----------- ------- ---- ----- -----<br>--- -------- - ------ ---- -- ----- ---- --- --- -----------<br>-- -------,393727.5,393726.3000000715,393147.87,393160.90000009537,393164.075,393730.757,,19,saw
screen,html.Screen,2_3_1_0_1_20,2022-05-09T17:25:49.535Z,,,,,,,,,,,,,,,,,2,,,,,,,,,,,,,,527.1430000953842,,response,,,,1,G,,,,,,Space,keypress(Space),,,,instrumental,,,,--- ---- ------ --- ------- ---------- ------- ----------<br>--- --------- --- ----------- ------- ----- ------- ---<br>--------- ---- -- --- what -- --------- -- ---- -------<br>-- --------- ------ --- ----- ------ ---- --- --------- --<br>------ - ---- -- --- ----------- ------- ---- ----- -----<br>--- -------- - ------ ---- -- ----- ---- --- --- -----------<br>-- -------,394259,394257.90000009537,393714.077,393727.60000002384,393730.757,394264.115,,20,what
screen,html.Screen,2_3_1_0_1_21,2022-05-09T17:25:50.728Z,,,,,,,,,,,,,,,,,2,,,,,,,,,,,,,,1186.7850000953767,,response,,,,1,G,,,,,,Space,keypress(Space),,,,instrumental,,,,--- ---- ------ --- ------- ---------- ------- ----------<br>--- --------- --- ----------- ------- ----- ------- ---<br>--------- ---- -- --- ---- he --------- -- ---- -------<br>-- --------- ------ --- ----- ------ ---- --- --------- --<br>------ - ---- -- --- ----------- ------- ---- ----- -----<br>--- -------- - ------ ---- -- ----- ---- --- --- -----------<br>-- -------,395451.7000000477,395450.90000009537,394247.888,394259.2000000477,394264.115,395464.625,,21,he
screen,html.Screen,2_3_1_0_1_22,2022-05-09T17:25:51.375Z,,,,,,,,,,,,,,,,,2,,,,,,,,,,,,,,633.0750000476837,,response,,,,1,G,,,,,,Space,keypress(Space),,,,instrumental,,,,--- ---- ------ --- ------- ---------- ------- ----------<br>--- --------- --- ----------- ------- ----- ------- ---<br>--------- ---- -- --- ---- -- described -- ---- -------<br>-- --------- ------ --- ----- ------ ---- --- --------- --<br>------ - ---- -- --- ----------- ------- ---- ----- -----<br>--- -------- - ------ ---- -- ----- ---- --- --- -----------<br>-- -------,396098.8000000715,396097.7000000477,395447.416,395451.90000009537,395464.625,396114.608,,22,described
screen,html.Screen,2_3_1_0_1_23,2022-05-09T17:25:51.902Z,,,,,,,,,,,,,,,,,2,,,,,,,,,,,,,,509.59200004767627,,response,,,,1,G,,,,,,Space,keypress(Space),,,,instrumental,,,,--- ---- ------ --- ------- ---------- ------- ----------<br>--- --------- --- ----------- ------- ----- ------- ---<br>--------- ---- -- --- ---- -- --------- as ---- -------<br>-- --------- ------ --- ----- ------ ---- --- --------- --<br>------ - ---- -- --- ----------- ------- ---- ----- -----<br>--- -------- - ------ ---- -- ----- ---- --- --- -----------<br>-- -------,396625.5,396624.2000000477,396097.461,396099.10000002384,396114.608,396630.848,,23,as
screen,html.Screen,2_3_1_0_1_24,2022-05-09T17:25:52.374Z,,,,,,,,,,,,,,,,,2,,,,,,,,,,,,,,464.7520000238437,,response,,,,1,G,,,,,,Space,keypress(Space),,,,instrumental,,,,"--- ---- ------ --- ------- ---------- ------- ----------<br>--- --------- --- ----------- ------- ----- ------- ---<br>--------- ---- -- --- ---- -- --------- -- ""two -------<br>-- --------- ------ --- ----- ------ ---- --- --------- --<br>------ - ---- -- --- ----------- ------- ---- ----- -----<br>--- -------- - ------ ---- -- ----- ---- --- --- -----------<br>-- -------",397097.2000000477,397095.60000002384,396614.655,396625.7000000477,396630.848,397131.275,,24,"""two"
screen,html.Screen,2_3_1_0_1_25,2022-05-09T17:25:52.990Z,,,,,,,,,,,,,,,,,2,,,,,,,,,,,,,,581.1250000953441,,response,,,,1,G,,,,,,Space,keypress(Space),,,,instrumental,,,,--- ---- ------ --- ------- ---------- ------- ----------<br>--- --------- --- ----------- ------- ----- ------- ---<br>--------- ---- -- --- ---- -- --------- -- ---- patches<br>-- --------- ------ --- ----- ------ ---- --- --------- --<br>------ - ---- -- --- ----------- ------- ---- ----- -----<br>--- -------- - ------ ---- -- ----- ---- --- --- -----------<br>-- -------,397713.5,397712.40000009537,397114.171,397097.3000000715,397131.275,397731.412,,25,patches
screen,html.Screen,2_3_1_0_1_26,2022-05-09T17:25:53.507Z,,,,,,,,,,,,,,,,,2,,,,,,,,,,,,,,498.3880000715144,,response,,,,1,G,,,,,,Space,keypress(Space),,,,instrumental,,,,--- ---- ------ --- ------- ---------- ------- ----------<br>--- --------- --- ----------- ------- ----- ------- ---<br>--------- ---- -- --- ---- -- --------- -- ---- -------<br>of --------- ------ --- ----- ------ ---- --- --------- --<br>------ - ---- -- --- ----------- ------- ---- ----- -----<br>--- -------- - ------ ---- -- ----- ---- --- --- -----------<br>-- -------,398231,398229.8000000715,397697.935,397713.7000000477,397731.412,398247.918,,26,of
screen,html.Screen,2_3_1_0_1_27,2022-05-09T17:25:53.994Z,,,,,,,,,,,,,,,,,2,,,,,,,,,,,,,,467.4820000953623,,response,,,,1,G,,,,,,Space,keypress(Space),,,,instrumental,,,,--- ---- ------ --- ------- ---------- ------- ----------<br>--- --------- --- ----------- ------- ----- ------- ---<br>--------- ---- -- --- ---- -- --------- -- ---- -------<br>-- intensely ------ --- ----- ------ ---- --- --------- --<br>------ - ---- -- --- ----------- ------- ---- ----- -----<br>--- -------- - ------ ---- -- ----- ---- --- --- -----------<br>-- -------,398717.2000000477,398715.40000009537,398231.252,398231.2000000477,398247.918,398731.273,,27,intensely
screen,html.Screen,2_3_1_0_1_28,2022-05-09T17:25:54.670Z,,,,,,,,,,,,,,,,,2,,,,,,,,,,,,,,660.9270000476972,,response,,,,1,G,,,,,,Space,keypress(Space),,,,instrumental,,,,--- ---- ------ --- ------- ---------- ------- ----------<br>--- --------- --- ----------- ------- ----- ------- ---<br>--------- ---- -- --- ---- -- --------- -- ---- -------<br>-- --------- bright --- ----- ------ ---- --- --------- --<br>------ - ---- -- --- ----------- ------- ---- ----- -----<br>--- -------- - ------ ---- -- ----- ---- --- --- -----------<br>-- -------,399393.3000000715,399392.2000000477,398714.132,398717.40000009537,398731.273,399397.507,,28,bright
screen,html.Screen,2_3_1_0_1_29,2022-05-09T17:25:55.628Z,,,,,,,,,,,,,,,,,2,,,,,,,,,,,,,,952.9930000000168,,response,,,,1,G,,,,,,Space,keypress(Space),,,,instrumental,,,,--- ---- ------ --- ------- ---------- ------- ----------<br>--- --------- --- ----------- ------- ----- ------- ---<br>--------- ---- -- --- ---- -- --------- -- ---- -------<br>-- --------- ------ and ----- ------ ---- --- --------- --<br>------ - ---- -- --- ----------- ------- ---- ----- -----<br>--- -------- - ------ ---- -- ----- ---- --- --- -----------<br>-- -------,400351.60000002384,400350.5,399381.263,399393.60000002384,399397.507,400364.096,,29,and
screen,html.Screen,2_3_1_0_1_30,2022-05-09T17:25:56.133Z,,,,,,,,,,,,,,,,,2,,,,,,,,,,,,,,491.8040000953479,,response,,,,1,G,,,,,,Space,keypress(Space),,,,instrumental,,,,--- ---- ------ --- ------- ---------- ------- ----------<br>--- --------- --- ----------- ------- ----- ------- ---<br>--------- ---- -- --- ---- -- --------- -- ---- -------<br>-- --------- ------ --- white ------ ---- --- --------- --<br>------ - ---- -- --- ----------- ------- ---- ----- -----<br>--- -------- - ------ ---- -- ----- ---- --- --- -----------<br>-- -------,400856.8000000715,400855.90000009537,400347.882,400351.7000000477,400364.096,400864.441,,30,white
screen,html.Screen,2_3_1_0_1_31,2022-05-09T17:25:56.751Z,,,,,,,,,,,,,,,,,2,,,,,,,,,,,,,,608.7590000476921,,response,,,,1,G,,,,,,Space,keypress(Space),,,,instrumental,,,,"--- ---- ------ --- ------- ---------- ------- ----------<br>--- --------- --- ----------- ------- ----- ------- ---<br>--------- ---- -- --- ---- -- --------- -- ---- -------<br>-- --------- ------ --- ----- light"" ---- --- --------- --<br>------ - ---- -- --- ----------- ------- ---- ----- -----<br>--- -------- - ------ ---- -- ----- ---- --- --- -----------<br>-- -------",401474.90000009537,401473.2000000477,400847.509,400857.10000002384,400864.441,401480.808,,31,"light"""
screen,html.Screen,2_3_1_0_1_32,2022-05-09T17:25:57.394Z,,,,,,,,,,,,,,,,,2,,,,,,,,,,,,,,634.4920000715065,,response,,,,1,G,,,,,,Space,keypress(Space),,,,instrumental,,,,--- ---- ------ --- ------- ---------- ------- ----------<br>--- --------- --- ----------- ------- ----- ------- ---<br>--------- ---- -- --- ---- -- --------- -- ---- -------<br>-- --------- ------ --- ----- ------ over --- --------- --<br>------ - ---- -- --- ----------- ------- ---- ----- -----<br>--- -------- - ------ ---- -- ----- ---- --- --- -----------<br>-- -------,402117.2000000477,402115.3000000715,401464.178,401475.3000000715,401480.808,402131.29,,32,over
screen,html.Screen,2_3_1_0_1_33,2022-05-09T17:25:58.029Z,,,,,,,,,,,,,,,,,2,,,,,,,,,,,,,,620.6100000953884,,response,,,,1,G,,,,,,Space,keypress(Space),,,,instrumental,,,,--- ---- ------ --- ------- ---------- ------- ----------<br>--- --------- --- ----------- ------- ----- ------- ---<br>--------- ---- -- --- ---- -- --------- -- ---- -------<br>-- --------- ------ --- ----- ------ ---- the --------- --<br>------ - ---- -- --- ----------- ------- ---- ----- -----<br>--- -------- - ------ ---- -- ----- ---- --- --- -----------<br>-- -------,402753.10000002384,402751.90000009537,402114.488,402117.3000000715,402131.29,402764.166,,33,the
screen,html.Screen,2_3_1_0_1_34,2022-05-09T17:25:58.747Z,,,,,,,,,,,,,,,,,2,,,,,,,,,,,,,,705.2340000953409,,response,,,,1,G,,,,,,Space,keypress(Space),,,,instrumental,,,,--- ---- ------ --- ------- ---------- ------- ----------<br>--- --------- --- ----------- ------- ----- ------- ---<br>--------- ---- -- --- ---- -- --------- -- ---- -------<br>-- --------- ------ --- ----- ------ ---- --- sunspots. --<br>------ - ---- -- --- ----------- ------- ---- ----- -----<br>--- -------- - ------ ---- -- ----- ---- --- --- -----------<br>-- -------,403470.5,403469.40000009537,402748.177,402753.2000000477,402764.166,403480.836,,34,sunspots.
screen,html.Screen,2_3_1_0_1_35,2022-05-09T17:25:59.764Z,,,,,,,,,,,,,,,,,2,,,,,,,,,,,,,,1005.8640000476735,,response,,,,1,G,,,,,,Space,keypress(Space),,,,instrumental,,,,--- ---- ------ --- ------- ---------- ------- ----------<br>--- --------- --- ----------- ------- ----- ------- ---<br>--------- ---- -- --- ---- -- --------- -- ---- -------<br>-- --------- ------ --- ----- ------ ---- --- --------- He<br>------ - ---- -- --- ----------- ------- ---- ----- -----<br>--- -------- - ------ ---- -- ----- ---- --- --- -----------<br>-- -------,404487.8000000715,404486.7000000477,403464.225,403470.60000002384,403480.836,404498.059,,35,He
screen,html.Screen,2_3_1_0_1_36,2022-05-09T17:26:00.426Z,,,,,,,,,,,,,,,,,2,,,,,,,,,,,,,,650.341000095359,,response,,,,1,G,,,,,,Space,keypress(Space),,,,instrumental,,,,--- ---- ------ --- ------- ---------- ------- ----------<br>--- --------- --- ----------- ------- ----- ------- ---<br>--------- ---- -- --- ---- -- --------- -- ---- -------<br>-- --------- ------ --- ----- ------ ---- --- --------- --<br>jotted - ---- -- --- ----------- ------- ---- ----- -----<br>--- -------- - ------ ---- -- ----- ---- --- --- -----------<br>-- -------,405149.5,405148.40000009537,404481.25,404487.90000009537,404498.059,405164.643,,36,jotted
screen,html.Screen,2_3_1_0_1_37,2022-05-09T17:26:01.024Z,,,,,,,,,,,,,,,,,2,,,,,,,,,,,,,,580.8570000000182,,response,,,,1,G,,,,,,Space,keypress(Space),,,,instrumental,,,,--- ---- ------ --- ------- ---------- ------- ----------<br>--- --------- --- ----------- ------- ----- ------- ---<br>--------- ---- -- --- ---- -- --------- -- ---- -------<br>-- --------- ------ --- ----- ------ ---- --- --------- --<br>------ a ---- -- --- ----------- ------- ---- ----- -----<br>--- -------- - ------ ---- -- ----- ---- --- --- -----------<br>-- -------,405747.40000009537,405745.5,405147.986,405149.60000002384,405164.643,405764.654,,37,a
