sender,sender_type,sender_id,timestamp,meta,,Blues,Classical,Country,Dance,Electronic,Folk,Gospel,Hip-Hop,Jazz,Latin,Musical/Film,New-age,Pop,Prolific_id,Provo_ID,R&B,Rap,Reggae,Religious,Rock,Soul,Swing,Traditional,age,artist_name,correct,correctResponse,distraction,duration,education,ended_on,familiarity,gender,headphone_check_performance,item,list,music_frequency,offensiveness,pleasantness,position_correct,preference,response,response_action,snippet_file,song_name,song_rating,sound,stimulus_1,stimulus_2,stimulus_3,text,time_commit,time_end,time_render,time_run,time_show,time_switch,url,word,word_ID
Prolific ID,html.Form,0,2022-04-27T12:42:42.990Z,"{""labjs_version"":""20.2.2"",""labjs_build"":{""flavor"":""production"",""commit"":""a25486e0c714a0ae2ce03ff94b7bb6896854dcfa""},""location"":""https://run.pavlovia.org/mvasilev/prolific3_music_c/"",""userAgent"":""Mozilla/5.0 (X11; CrOS x86_64 14526.89.0) AppleWebKit/537.36 (KHTML, like Gecko) Chrome/100.0.4896.133 Safari/537.36"",""platform"":""Linux x86_64"",""language"":""en-GB"",""locale"":""en-GB"",""timeZone"":""Europe/London"",""timezoneOffset"":-60,""screen_width"":1366,""screen_height"":768,""scroll_width"":1366,""scroll_height"":720,""window_innerWidth"":1366,""window_innerHeight"":768,""devicePixelRatio"":1}",,,,,,,,,,,,,,,5b421b9ac2e3810001763252,,,,,,,,,,,,,,,47603.49399999851,,form submission,,,,,,,,,,,,,,,,,,,,,65959.59999999963,65958.39999999851,18304.911,18314.299999998882,18354.906,65970.083,{},,
Introduction,html.Screen,1_0,2022-04-27T12:42:48.782Z,,,,,,,,,,,,,,,,,,,,,,,,,,,,,,,5776.716999998884,,response,,,,,,,,,,,continue,click button,,,,,,,,,71751.89999999851,71746.79999999888,65953.401,65960.19999999925,65970.083,71769.796,,,
Volume calibration,html.Screen,1_1,2022-04-27T12:43:49.951Z,,,,,,,,,,,,,,,,,,,,,,,,,,,,,,,61143.60399999851,,response,,,,,,,,,,,continue,click button,,,,,,,,,132920.69999999925,132913.3999999985,71753.131,71752.5,71769.796,132933.637,,,
Task instructions,html.Screen,1_2,2022-04-27T12:44:00.425Z,,,,,,,,,,,,,,,,,,,,,,,,,,,,,,,10458.562999999267,,response,,,,,,,,,,,continue,click button,,,,,,,,,143394,143392.19999999925,132916.972,132921,132933.637,143416.436,,,
Sounds,html.Screen,1_3_0_0,2022-04-27T12:44:04.684Z,,,,,,,,,,,,,,,,,,,,,,,,,,,,,,,4249.644,,timeout,,,,,,,,,1,,,,,,,,S,I,O,,147653.69999999925,147649.415,143399.771,143394.29999999888,143416.436,147666.08,,,
Judgement,html.Screen,1_3_0_1,2022-04-27T12:44:09.459Z,,,,,,,,,,,,,,,,,,,,,,,,,,,,true,1,,4760.420000000013,,response,,,,,,,,,1,,1,click #choice-1,,,,,S,I,O,,152428.79999999888,152426.5,147649.415,147654,147666.08,152449.393,,,
Trial,flow.Sequence,1_3_0,2022-04-27T12:44:09.462Z,,,,,,,,,,,,,,,,,,,,,,,,,,,,,,,9010.064000000013,,completion,,,,,,,,,1,,,,,,,,S,I,O,,152431.5,152426.5,143399.771,143394.29999999888,143416.436,152449.393,,,
Sounds,html.Screen,1_3_1_0,2022-04-27T12:44:13.715Z,,,,,,,,,,,,,,,,,,,,,,,,,,,,,,,4249.616999999998,,timeout,,,,,,,,,3,,,,,,,,O,I,S,,156684.3999999985,156682.345,152432.728,152432.3999999985,152449.393,156699.01,,,
Judgement,html.Screen,1_3_1_1,2022-04-27T12:44:15.214Z,,,,,,,,,,,,,,,,,,,,,,,,,,,,true,3,,1480.3899999985006,,response,,,,,,,,,3,,3,click #choice-3,,,,,O,I,S,,158183.59999999963,158179.3999999985,156682.345,156685,156699.01,158199.115,,,
Trial,flow.Sequence,1_3_1,2022-04-27T12:44:15.215Z,,,,,,,,,,,,,,,,,,,,,,,,,,,,,,,5730.006999998499,,completion,,,,,,,,,3,,,,,,,,O,I,S,,158184,158179.3999999985,152432.728,152431.69999999925,152449.393,158199.115,,,
Sounds,html.Screen,1_3_2_0,2022-04-27T12:44:19.466Z,,,,,,,,,,,,,,,,,,,,,,,,,,,,,,,4249.622000000003,,timeout,,,,,,,,,2,,,,,,,,I,S,O,,162435.79999999888,162432.072,158182.45,158185.3999999985,158199.115,162448.737,,,
Judgement,html.Screen,1_3_2_1,2022-04-27T12:44:20.422Z,,,,,,,,,,,,,,,,,,,,,,,,,,,,true,2,,939.6629999985162,,response,,,,,,,,,2,,2,click #choice-2,,,,,I,S,O,,163391.09999999963,163388.3999999985,162432.072,162436.29999999888,162448.737,163415.562,,,
Trial,flow.Sequence,1_3_2,2022-04-27T12:44:20.422Z,,,,,,,,,,,,,,,,,,,,,,,,,,,,,,,5189.284999998519,,completion,,,,,,,,,2,,,,,,,,I,S,O,,163391.5,163388.3999999985,158182.45,158185.29999999888,158199.115,163415.562,,,
Sounds,html.Screen,1_3_3_0,2022-04-27T12:44:24.681Z,,,,,,,,,,,,,,,,,,,,,,,,,,,,,,,4249.603000000003,,timeout,,,,,,,,,3,,,,,,,,I,O,S,,167650.09999999963,167648.5,163398.897,163391.69999999925,163415.562,167665.165,,,
Judgement,html.Screen,1_3_3_1,2022-04-27T12:44:25.325Z,,,,,,,,,,,,,,,,,,,,,,,,,,,,true,3,,626.2349999985017,,response,,,,,,,,,3,,3,click #choice-3,,,,,I,O,S,,168294,168291.3999999985,167648.5,167650.69999999925,167665.165,168298.675,,,
Trial,flow.Sequence,1_3_3,2022-04-27T12:44:25.325Z,,,,,,,,,,,,,,,,,,,,,,,,,,,,,,,4875.8379999985045,,completion,,,,,,,,,3,,,,,,,,I,O,S,,168294.29999999888,168291.3999999985,163398.897,163391.69999999925,163415.562,168298.675,,,
Sounds,html.Screen,1_3_4_0,2022-04-27T12:44:29.564Z,,,,,,,,,,,,,,,,,,,,,,,,,,,,,,,4249.590000000026,,timeout,,,,,,,,,2,,,,,,,,O,S,I,,172533,172531.6,168282.01,168294.59999999963,168298.675,172548.265,,,
Judgement,html.Screen,1_3_4_1,2022-04-27T12:44:30.323Z,,,,,,,,,,,,,,,,,,,,,,,,,,,,true,2,,742.3349999996135,,response,,,,,,,,,2,,2,click #choice-2,,,,,O,S,I,,173292.3999999985,173290.59999999963,172531.6,172533.09999999963,172548.265,173298.437,,,
Trial,flow.Sequence,1_3_4,2022-04-27T12:44:30.323Z,,,,,,,,,,,,,,,,,,,,,,,,,,,,,,,4991.924999999639,,completion,,,,,,,,,2,,,,,,,,O,S,I,,173292.69999999925,173290.59999999963,168282.01,168294.5,168298.675,173298.437,,,
Sounds,html.Screen,1_3_5_0,2022-04-27T12:44:34.563Z,,,,,,,,,,,,,,,,,,,,,,,,,,,,,,,4249.600999999995,,timeout,,,,,,,,,1,,,,,,,,S,O,I,,177532.69999999925,177531.373,173281.772,173292.8999999985,173298.437,177548.038,,,
Judgement,html.Screen,1_3_5_1,2022-04-27T12:44:35.120Z,,,,,,,,,,,,,,,,,,,,,,,,,,,,true,1,,539.261999998882,,response,,,,,,,,,1,,1,click #choice-1,,,,,S,O,I,,178089.79999999888,178087.29999999888,177531.373,177532.8999999985,177548.038,178098.214,,,
Trial,flow.Sequence,1_3_5,2022-04-27T12:44:35.121Z,,,,,,,,,,,,,,,,,,,,,,,,,,,,,,,4788.862999998877,,completion,,,,,,,,,1,,,,,,,,S,O,I,,178090.09999999963,178087.29999999888,173281.772,173292.79999999888,173298.437,178098.214,,,
Task,flow.Loop,1_3,2022-04-27T12:44:35.130Z,,,,,,,,,,,,,,,,,,,,,,,,,,,,,,,34670.863999998895,,completion,,,1,,,,,,,,,,,,,,,,,,178099.3999999985,178087.29999999888,143399.771,143394.29999999888,143416.436,178098.214,,,
Trap,html.Screen,1_4,2022-04-27T12:44:35.133Z,,,,,,,,,,,,,,,,,,,,,,,,,,,,,,,NaN,,skipped,,,,,,,,,,,,,,,,,,,,,178102.09999999963,178087.29999999888,,178101.59999999963,,178098.214,,,
Thanks,html.Screen,1_5,2022-04-27T12:44:41.215Z,,,,,,,,,,,,,,,,,,,,,,,,,,,,,,,6082.88599999962,,response,,,,,,,,,,,continue,click button,,,,,,,,,184184.59999999963,184181.09999999963,178081.549,178102.3999999985,178098.214,192180.492,,,
Headphone screening,flow.Sequence,1,2022-04-27T12:44:41.216Z,,,,,,,,,,,,,,,,,,,,,,,,,,,,,,,118211.01699999963,,completion,,,,,,,,,,,,,,,,,,,,,184185.29999999888,184181.09999999963,65953.401,65960.19999999925,65970.083,192180.492,,,
Instructions,html.Page,2_0,2022-04-27T12:45:13.990Z,,,,,,,,,,,,,,,,,,,,,,,,,,,,,,,24777.60799999963,,form submission,,,,,,,,,,,,,,,,,,,,,216959,216958.09999999963,192163.827,192180.79999999888,192180.492,216963.092,,,
Holding screen,html.Screen,2_1_0_0,2022-04-27T12:45:23.978Z,,,,,,,,,,,,,,,,,,,,,,,,,,,,,,,10032.831000000006,,timeout,,,,,,,,,,,,,,,,,,,,,226947.59999999963,226945.928,216946.427,216959.3999999985,216963.092,226995.923,,,
screen,html.Screen,2_1_0_1_0,2022-04-27T12:45:27.299Z,,,,,,,,,,,,,,,,,53,,,,,,,,,,,,,,3266.276999999245,,response,,,,99,,,,,,,Space,keypress(Space),,,,,,,,When -- ----- -- ------ - ------- --- ----------<br>------------- ------ ------ ---- ---- ------- ----- -- ----<br>-------- ------- -- ---------- --- - --- ----- ----- ----<br>---- --- --- ----- --- ---- ---- ------- ----- ---- -------<br>--- --- -- ----- -- --- ---- -- --- ---- -- ------ ------<br>--- ----- -- ----,230268.3999999985,230262.19999999925,226945.928,226948.29999999888,226995.923,230279.001,,0,When
screen,html.Screen,2_1_0_1_1,2022-04-27T12:45:27.522Z,,,,,,,,,,,,,,,,,53,,,,,,,,,,,,,,210.19899999926565,,response,,,,99,,,,,,,Space,keypress(Space),,,,,,,,---- it ----- -- ------ - ------- --- ----------<br>------------- ------ ------ ---- ---- ------- ----- -- ----<br>-------- ------- -- ---------- --- - --- ----- ----- ----<br>---- --- --- ----- --- ---- ---- ------- ----- ---- -------<br>--- --- -- ----- -- --- ---- -- --- ---- -- ------ ------<br>--- ----- -- ----,230491.3999999985,230489.19999999925,230262.336,230268.69999999925,230279.001,230495.815,,1,it
screen,html.Screen,2_1_0_1_2,2022-04-27T12:45:28.630Z,,,,,,,,,,,,,,,,,53,,,,,,,,,,,,,,1101.6849999999977,,response,,,,99,,,,,,,Space,keypress(Space),,,,,,,,---- -- comes -- ------ - ------- --- ----------<br>------------- ------ ------ ---- ---- ------- ----- -- ----<br>-------- ------- -- ---------- --- - --- ----- ----- ----<br>---- --- --- ----- --- ---- ---- ------- ----- ---- -------<br>--- --- -- ----- -- --- ---- -- --- ---- -- ------ ------<br>--- ----- -- ----,231599.59999999963,231597.5,230479.15,230491.5,230495.815,231612.377,,2,comes
screen,html.Screen,2_1_0_1_3,2022-04-27T12:45:29.347Z,,,,,,,,,,,,,,,,,53,,,,,,,,,,,,,,701.2229999996198,,response,,,,99,,,,,,,Space,keypress(Space),,,,,,,,---- -- ----- to ------ - ------- --- ----------<br>------------- ------ ------ ---- ---- ------- ----- -- ----<br>-------- ------- -- ---------- --- - --- ----- ----- ----<br>---- --- --- ----- --- ---- ---- ------- ----- ---- -------<br>--- --- -- ----- -- --- ---- -- --- ---- -- ------ ------<br>--- ----- -- ----,232316.09999999963,232313.59999999963,231595.712,231599.69999999925,231612.377,232329.028,,3,to
screen,html.Screen,2_1_0_1_4,2022-04-27T12:45:30.212Z,,,,,,,,,,,,,,,,,53,,,,,,,,,,,,,,849.3719999985187,,response,,,,99,,,,,,,Space,keypress(Space),,,,,,,,---- -- ----- -- having - ------- --- ----------<br>------------- ------ ------ ---- ---- ------- ----- -- ----<br>-------- ------- -- ---------- --- - --- ----- ----- ----<br>---- --- --- ----- --- ---- ---- ------- ----- ---- -------<br>--- --- -- ----- -- --- ---- -- --- ---- -- ------ ------<br>--- ----- -- ----,233180.8999999985,233178.3999999985,232312.363,232316.3999999985,232329.028,233195.644,,4,having
screen,html.Screen,2_1_0_1_5,2022-04-27T12:45:30.965Z,,,,,,,,,,,,,,,,,53,,,,,,,,,,,,,,736.9559999996272,,response,,,,99,,,,,,,Space,keypress(Space),,,,,,,,---- -- ----- -- ------ a ------- --- ----------<br>------------- ------ ------ ---- ---- ------- ----- -- ----<br>-------- ------- -- ---------- --- - --- ----- ----- ----<br>---- --- --- ----- --- ---- ---- ------- ----- ---- -------<br>--- --- -- ----- -- --- ---- -- --- ---- -- ------ ------<br>--- ----- -- ----,233934.79999999888,233932.59999999963,233178.979,233181.09999999963,233195.644,233945.631,,5,a
screen,html.Screen,2_1_0_1_6,2022-04-27T12:45:31.616Z,,,,,,,,,,,,,,,,,53,,,,,,,,,,,,,,637.2689999985159,,response,,,,99,,,,,,,Space,keypress(Space),,,,,,,,---- -- ----- -- ------ - lasting --- ----------<br>------------- ------ ------ ---- ---- ------- ----- -- ----<br>-------- ------- -- ---------- --- - --- ----- ----- ----<br>---- --- --- ----- --- ---- ---- ------- ----- ---- -------<br>--- --- -- ----- -- --- ---- -- --- ---- -- ------ ------<br>--- ----- -- ----,234585.09999999963,234582.8999999985,233928.966,233935.09999999963,233945.631,234595.609,,6,lasting
screen,html.Screen,2_1_0_1_7,2022-04-27T12:45:32.275Z,,,,,,,,,,,,,,,,,53,,,,,,,,,,,,,,645.8910000000033,,response,,,,99,,,,,,,Space,keypress(Space),,,,,,,,---- -- ----- -- ------ - ------- and ----------<br>------------- ------ ------ ---- ---- ------- ----- -- ----<br>-------- ------- -- ---------- --- - --- ----- ----- ----<br>---- --- --- ----- --- ---- ---- ------- ----- ---- -------<br>--- --- -- ----- -- --- ---- -- --- ---- -- ------ ------<br>--- ----- -- ----,235244.19999999925,235241.5,234578.944,234585.29999999888,234595.609,235262.242,,7,and
screen,html.Screen,2_1_0_1_8,2022-04-27T12:45:32.978Z,,,,,,,,,,,,,,,,,53,,,,,,,,,,,,,,681.6579999985115,,response,,,,99,,,,,,,Space,keypress(Space),,,,,,,,---- -- ----- -- ------ - ------- --- fulfilling<br>------------- ------ ------ ---- ---- ------- ----- -- ----<br>-------- ------- -- ---------- --- - --- ----- ----- ----<br>---- --- --- ----- --- ---- ---- ------- ----- ---- -------<br>--- --- -- ----- -- --- ---- -- --- ---- -- ------ ------<br>--- ----- -- ----,235947.19999999925,235943.8999999985,235245.577,235244.5,235262.242,235962.19,,8,fulfilling
screen,html.Screen,2_1_0_1_9,2022-04-27T12:45:33.658Z,,,,,,,,,,,,,,,,,53,,,,,,,,,,,,,,662.7099999985076,,response,,,,99,,,,,,,Space,keypress(Space),,,,,,,,"---- -- ----- -- ------ - ------- --- ----------<br>relationship, ------ ------ ---- ---- ------- ----- -- ----<br>-------- ------- -- ---------- --- - --- ----- ----- ----<br>---- --- --- ----- --- ---- ---- ------- ----- ---- -------<br>--- --- -- ----- -- --- ---- -- --- ---- -- ------ ------<br>--- ----- -- ----",236627.09999999963,236624.8999999985,235945.525,235947.3999999985,235962.19,236628.843,,9,"relationship,"
screen,html.Screen,2_1_0_1_10,2022-04-27T12:45:34.330Z,,,,,,,,,,,,,,,,,53,,,,,,,,,,,,,,668.1570000000065,,response,,,,99,,,,,,,Space,keypress(Space),,,,,,,,---- -- ----- -- ------ - ------- --- ----------<br>------------- common ------ ---- ---- ------- ----- -- ----<br>-------- ------- -- ---------- --- - --- ----- ----- ----<br>---- --- --- ----- --- ---- ---- ------- ----- ---- -------<br>--- --- -- ----- -- --- ---- -- --- ---- -- ------ ------<br>--- ----- -- ----,237299.09999999963,237297,236612.178,236627.29999999888,236628.843,237312.148,,10,common
screen,html.Screen,2_1_0_1_11,2022-04-27T12:45:34.989Z,,,,,,,,,,,,,,,,,53,,,,,,,,,,,,,,643.7519999985234,,response,,,,99,,,,,,,Space,keypress(Space),,,,,,,,---- -- ----- -- ------ - ------- --- ----------<br>------------- ------ wisdom ---- ---- ------- ----- -- ----<br>-------- ------- -- ---------- --- - --- ----- ----- ----<br>---- --- --- ----- --- ---- ---- ------- ----- ---- -------<br>--- --- -- ----- -- --- ---- -- --- ---- -- ------ ------<br>--- ----- -- ----,237958.19999999925,237955.8999999985,237295.483,237299.3999999985,237312.148,237962.12,,11,wisdom
screen,html.Screen,2_1_0_1_12,2022-04-27T12:45:35.728Z,,,,,,,,,,,,,,,,,53,,,,,,,,,,,,,,732.7799999985145,,response,,,,99,,,,,,,Space,keypress(Space),,,,,,,,---- -- ----- -- ------ - ------- --- ----------<br>------------- ------ ------ says ---- ------- ----- -- ----<br>-------- ------- -- ---------- --- - --- ----- ----- ----<br>---- --- --- ----- --- ---- ---- ------- ----- ---- -------<br>--- --- -- ----- -- --- ---- -- --- ---- -- ------ ------<br>--- ----- -- ----,238697.09999999963,238694.8999999985,237945.455,237958.3999999985,237962.12,238712.079,,12,says
screen,html.Screen,2_1_0_1_13,2022-04-27T12:45:36.336Z,,,,,,,,,,,,,,,,,53,,,,,,,,,,,,,,591.2209999988845,,response,,,,99,,,,,,,Space,keypress(Space),,,,,,,,---- -- ----- -- ------ - ------- --- ----------<br>------------- ------ ------ ---- that ------- ----- -- ----<br>-------- ------- -- ---------- --- - --- ----- ----- ----<br>---- --- --- ----- --- ---- ---- ------- ----- ---- -------<br>--- --- -- ----- -- --- ---- -- --- ---- -- ------ ------<br>--- ----- -- ----,239305.29999999888,239303.29999999888,238695.414,238697.29999999888,238712.079,239312.043,,13,that
screen,html.Screen,2_1_0_1_14,2022-04-27T12:45:36.966Z,,,,,,,,,,,,,,,,,53,,,,,,,,,,,,,,621.1569999992498,,response,,,,99,,,,,,,Space,keypress(Space),,,,,,,,---- -- ----- -- ------ - ------- --- ----------<br>------------- ------ ------ ---- ---- feeling ----- -- ----<br>-------- ------- -- ---------- --- - --- ----- ----- ----<br>---- --- --- ----- --- ---- ---- ------- ----- ---- -------<br>--- --- -- ----- -- --- ---- -- --- ---- -- ------ ------<br>--- ----- -- ----,239935.5,239933.19999999925,239295.378,239305.3999999985,239312.043,239945.362,,14,feeling
screen,html.Screen,2_1_0_1_15,2022-04-27T12:45:37.550Z,,,,,,,,,,,,,,,,,53,,,,,,,,,,,,,,572.0379999985162,,response,,,,99,,,,,,,Space,keypress(Space),,,,,,,,---- -- ----- -- ------ - ------- --- ----------<br>------------- ------ ------ ---- ---- ------- close -- ----<br>-------- ------- -- ---------- --- - --- ----- ----- ----<br>---- --- --- ----- --- ---- ---- ------- ----- ---- -------<br>--- --- -- ----- -- --- ---- -- --- ---- -- ------ ------<br>--- ----- -- ----,240519.8999999985,240517.3999999985,239928.697,239935.69999999925,239945.362,240528.672,,15,close
screen,html.Screen,2_1_0_1_16,2022-04-27T12:45:38.202Z,,,,,,,,,,,,,,,,,53,,,,,,,,,,,,,,640.5279999992636,,response,,,,99,,,,,,,Space,keypress(Space),,,,,,,,---- -- ----- -- ------ - ------- --- ----------<br>------------- ------ ------ ---- ---- ------- ----- to ----<br>-------- ------- -- ---------- --- - --- ----- ----- ----<br>---- --- --- ----- --- ---- ---- ------- ----- ---- -------<br>--- --- -- ----- -- --- ---- -- --- ---- -- ------ ------<br>--- ----- -- ----,241171.5,241169.19999999925,240512.007,240520.09999999963,240528.672,241178.639,,16,to
screen,html.Screen,2_1_0_1_17,2022-04-27T12:45:38.819Z,,,,,,,,,,,,,,,,,53,,,,,,,,,,,,,,607.6609999988868,,response,,,,99,,,,,,,Space,keypress(Space),,,,,,,,---- -- ----- -- ------ - ------- --- ----------<br>------------- ------ ------ ---- ---- ------- ----- -- your<br>-------- ------- -- ---------- --- - --- ----- ----- ----<br>---- --- --- ----- --- ---- ---- ------- ----- ---- -------<br>--- --- -- ----- -- --- ---- -- --- ---- -- ------ ------<br>--- ----- -- ----,241788.69999999925,241786.29999999888,241161.974,241171.59999999963,241178.639,241795.26,,17,your
screen,html.Screen,2_1_0_1_18,2022-04-27T12:45:39.517Z,,,,,,,,,,,,,,,,,53,,,,,,,,,,,,,,689.1399999985006,,response,,,,99,,,,,,,Space,keypress(Space),,,,,,,,---- -- ----- -- ------ - ------- --- ----------<br>------------- ------ ------ ---- ---- ------- ----- -- ----<br>romantic ------- -- ---------- --- - --- ----- ----- ----<br>---- --- --- ----- --- ---- ---- ------- ----- ---- -------<br>--- --- -- ----- -- --- ---- -- --- ---- -- ------ ------<br>--- ----- -- ----,242486.79999999888,242484.3999999985,241778.595,241788.8999999985,241795.26,242495.241,,18,romantic
screen,html.Screen,2_1_0_1_19,2022-04-27T12:45:40.145Z,,,,,,,,,,,,,,,,,53,,,,,,,,,,,,,,617.4589999992459,,response,,,,99,,,,,,,Space,keypress(Space),,,,,,,,---- -- ----- -- ------ - ------- --- ----------<br>------------- ------ ------ ---- ---- ------- ----- -- ----<br>-------- partner -- ---------- --- - --- ----- ----- ----<br>---- --- --- ----- --- ---- ---- ------- ----- ---- -------<br>--- --- -- ----- -- --- ---- -- --- ---- -- ------ ------<br>--- ----- -- ----,243114.79999999888,243112.69999999925,242478.576,242487,242495.241,243128.543,,19,partner
screen,html.Screen,2_1_0_1_20,2022-04-27T12:45:40.795Z,,,,,,,,,,,,,,,,,53,,,,,,,,,,,,,,633.4569999999949,,response,,,,99,,,,,,,Space,keypress(Space),,,,,,,,---- -- ----- -- ------ - ------- --- ----------<br>------------- ------ ------ ---- ---- ------- ----- -- ----<br>-------- ------- is ---------- --- - --- ----- ----- ----<br>---- --- --- ----- --- ---- ---- ------- ----- ---- -------<br>--- --- -- ----- -- --- ---- -- --- ---- -- ------ ------<br>--- ----- -- ----,243764.3999999985,243762,243111.878,243114.8999999985,243128.543,243778.501,,20,is
screen,html.Screen,2_1_0_1_21,2022-04-27T12:45:41.428Z,,,,,,,,,,,,,,,,,53,,,,,,,,,,,,,,616.7989999988931,,response,,,,99,,,,,,,Space,keypress(Space),,,,,,,,---- -- ----- -- ------ - ------- --- ----------<br>------------- ------ ------ ---- ---- ------- ----- -- ----<br>-------- ------- -- paramount. --- - --- ----- ----- ----<br>---- --- --- ----- --- ---- ---- ------- ----- ---- -------<br>--- --- -- ----- -- --- ---- -- --- ---- -- ------ ------<br>--- ----- -- ----,244397.5,244395.29999999888,243761.836,243764.59999999963,243778.501,244411.805,,21,paramount.
screen,html.Screen,2_1_0_1_22,2022-04-27T12:45:42.036Z,,,,,,,,,,,,,,,,,53,,,,,,,,,,,,,,591.3949999992619,,response,,,,99,,,,,,,Space,keypress(Space),,,,,,,,---- -- ----- -- ------ - ------- --- ----------<br>------------- ------ ------ ---- ---- ------- ----- -- ----<br>-------- ------- -- ---------- But - --- ----- ----- ----<br>---- --- --- ----- --- ---- ---- ------- ----- ---- -------<br>--- --- -- ----- -- --- ---- -- --- ---- -- ------ ------<br>--- ----- -- ----,245005.59999999963,245003.19999999925,244395.14,244397.69999999925,244411.805,245011.78,,22,But
screen,html.Screen,2_1_0_1_23,2022-04-27T12:45:42.686Z,,,,,,,,,,,,,,,,,53,,,,,,,,,,,,,,641.4199999992561,,response,,,,99,,,,,,,Space,keypress(Space),,,,,,,,---- -- ----- -- ------ - ------- --- ----------<br>------------- ------ ------ ---- ---- ------- ----- -- ----<br>-------- ------- -- ---------- --- a --- ----- ----- ----<br>---- --- --- ----- --- ---- ---- ------- ----- ---- -------<br>--- --- -- ----- -- --- ---- -- --- ---- -- ------ ------<br>--- ----- -- ----,245655.59999999963,245653.19999999925,244995.115,245005.69999999925,245011.78,245661.759,,23,a
screen,html.Screen,2_1_0_1_24,2022-04-27T12:45:43.248Z,,,,,,,,,,,,,,,,,53,,,,,,,,,,,,,,553.8409999996366,,response,,,,99,,,,,,,Space,keypress(Space),,,,,,,,---- -- ----- -- ------ - ------- --- ----------<br>------------- ------ ------ ---- ---- ------- ----- -- ----<br>-------- ------- -- ---------- --- - new ----- ----- ----<br>---- --- --- ----- --- ---- ---- ------- ----- ---- -------<br>--- --- -- ----- -- --- ---- -- --- ---- -- ------ ------<br>--- ----- -- ----,246217.79999999888,246215.59999999963,245645.094,245655.8999999985,245661.759,246228.397,,24,new
screen,html.Screen,2_1_0_1_25,2022-04-27T12:45:43.868Z,,,,,,,,,,,,,,,,,53,,,,,,,,,,,,,,607.3029999992577,,response,,,,99,,,,,,,Space,keypress(Space),,,,,,,,---- -- ----- -- ------ - ------- --- ----------<br>------------- ------ ------ ---- ---- ------- ----- -- ----<br>-------- ------- -- ---------- --- - --- study ----- ----<br>---- --- --- ----- --- ---- ---- ------- ----- ---- -------<br>--- --- -- ----- -- --- ---- -- --- ---- -- ------ ------<br>--- ----- -- ----,246837.79999999888,246835.69999999925,246211.732,246218,246228.397,246845.032,,25,study
screen,html.Screen,2_1_0_1_26,2022-04-27T12:45:44.447Z,,,,,,,,,,,,,,,,,53,,,,,,,,,,,,,,569.7679999988759,,response,,,,99,,,,,,,Space,keypress(Space),,,,,,,,---- -- ----- -- ------ - ------- --- ----------<br>------------- ------ ------ ---- ---- ------- ----- -- ----<br>-------- ------- -- ---------- --- - --- ----- finds ----<br>---- --- --- ----- --- ---- ---- ------- ----- ---- -------<br>--- --- -- ----- -- --- ---- -- --- ---- -- ------ ------<br>--- ----- -- ----,247416.69999999925,247414.79999999888,246828.367,246838,246845.032,247428.334,,26,finds
screen,html.Screen,2_1_0_1_27,2022-04-27T12:45:45.010Z,,,,,,,,,,,,,,,,,53,,,,,,,,,,,,,,548.5659999985073,,response,,,,99,,,,,,,Space,keypress(Space),,,,,,,,---- -- ----- -- ------ - ------- --- ----------<br>------------- ------ ------ ---- ---- ------- ----- -- ----<br>-------- ------- -- ---------- --- - --- ----- ----- that<br>---- --- --- ----- --- ---- ---- ------- ----- ---- -------<br>--- --- -- ----- -- --- ---- -- --- ---- -- ------ ------<br>--- ----- -- ----,247979.09999999963,247976.8999999985,247411.669,247417,247428.334,247994.991,,27,that
screen,html.Screen,2_1_0_1_28,2022-04-27T12:45:45.571Z,,,,,,,,,,,,,,,,,53,,,,,,,,,,,,,,542.6089999996184,,response,,,,99,,,,,,,Space,keypress(Space),,,,,,,,---- -- ----- -- ------ - ------- --- ----------<br>------------- ------ ------ ---- ---- ------- ----- -- ----<br>-------- ------- -- ---------- --- - --- ----- ----- ----<br>it's --- --- ----- --- ---- ---- ------- ----- ---- -------<br>--- --- -- ----- -- --- ---- -- --- ---- -- ------ ------<br>--- ----- -- ----,248540.09999999963,248537.59999999963,247978.326,247979.29999999888,247994.991,248544.967,,28,it's
screen,html.Screen,2_1_0_1_29,2022-04-27T12:45:46.150Z,,,,,,,,,,,,,,,,,53,,,,,,,,,,,,,,572.3329999988782,,response,,,,99,,,,,,,Space,keypress(Space),,,,,,,,---- -- ----- -- ------ - ------- --- ----------<br>------------- ------ ------ ---- ---- ------- ----- -- ----<br>-------- ------- -- ---------- --- - --- ----- ----- ----<br>---- not --- ----- --- ---- ---- ------- ----- ---- -------<br>--- --- -- ----- -- --- ---- -- --- ---- -- ------ ------<br>--- ----- -- ----,249119.69999999925,249117.29999999888,248528.302,248540.29999999888,248544.967,249128.269,,29,not
screen,html.Screen,2_1_0_1_30,2022-04-27T12:45:46.745Z,,,,,,,,,,,,,,,,,53,,,,,,,,,,,,,,584.4309999992547,,response,,,,99,,,,,,,Space,keypress(Space),,,,,,,,---- -- ----- -- ------ - ------- --- ----------<br>------------- ------ ------ ---- ---- ------- ----- -- ----<br>-------- ------- -- ---------- --- - --- ----- ----- ----<br>---- --- how ----- --- ---- ---- ------- ----- ---- -------<br>--- --- -- ----- -- --- ---- -- --- ---- -- ------ ------<br>--- ----- -- ----,249714.69999999925,249712.69999999925,249111.604,249119.79999999888,249128.269,249728.228,,30,how
screen,html.Screen,2_1_0_1_31,2022-04-27T12:45:47.263Z,,,,,,,,,,,,,,,,,53,,,,,,,,,,,,,,501.97199999925215,,response,,,,99,,,,,,,Space,keypress(Space),,,,,,,,---- -- ----- -- ------ - ------- --- ----------<br>------------- ------ ------ ---- ---- ------- ----- -- ----<br>-------- ------- -- ---------- --- - --- ----- ----- ----<br>---- --- --- close --- ---- ---- ------- ----- ---- -------<br>--- --- -- ----- -- --- ---- -- --- ---- -- ------ ------<br>--- ----- -- ----,250232.3999999985,250230.19999999925,249711.563,249714.8999999985,249728.228,250244.882,,31,close
screen,html.Screen,2_1_0_1_32,2022-04-27T12:45:47.812Z,,,,,,,,,,,,,,,,,53,,,,,,,,,,,,,,533.5179999984975,,response,,,,99,,,,,,,Space,keypress(Space),,,,,,,,---- -- ----- -- ------ - ------- --- ----------<br>------------- ------ ------ ---- ---- ------- ----- -- ----<br>-------- ------- -- ---------- --- - --- ----- ----- ----<br>---- --- --- ----- you ---- ---- ------- ----- ---- -------<br>--- --- -- ----- -- --- ---- -- --- ---- -- ------ ------<br>--- ----- -- ----,250781,250778.3999999985,250228.217,250232.59999999963,250244.882,250794.847,,32,you
screen,html.Screen,2_1_0_1_33,2022-04-27T12:45:48.350Z,,,,,,,,,,,,,,,,,53,,,,,,,,,,,,,,522.552999998501,,response,,,,99,,,,,,,Space,keypress(Space),,,,,,,,---- -- ----- -- ------ - ------- --- ----------<br>------------- ------ ------ ---- ---- ------- ----- -- ----<br>-------- ------- -- ---------- --- - --- ----- ----- ----<br>---- --- --- ----- --- feel ---- ------- ----- ---- -------<br>--- --- -- ----- -- --- ---- -- --- ---- -- ------ ------<br>--- ----- -- ----,251319.29999999888,251317.3999999985,250778.182,250781.19999999925,250794.847,251328.173,,33,feel
screen,html.Screen,2_1_0_1_34,2022-04-27T12:45:48.844Z,,,,,,,,,,,,,,,,,53,,,,,,,,,,,,,,483.7269999985001,,response,,,,99,,,,,,,Space,keypress(Space),,,,,,,,---- -- ----- -- ------ - ------- --- ----------<br>------------- ------ ------ ---- ---- ------- ----- -- ----<br>-------- ------- -- ---------- --- - --- ----- ----- ----<br>---- --- --- ----- --- ---- that ------- ----- ---- -------<br>--- --- -- ----- -- --- ---- -- --- ---- -- ------ ------<br>--- ----- -- ----,251813.79999999888,251811.8999999985,251311.508,251319.5,251328.173,251828.149,,34,that
screen,html.Screen,2_1_0_1_35,2022-04-27T12:45:49.496Z,,,,,,,,,,,,,,,,,53,,,,,,,,,,,,,,635.250999998505,,response,,,,99,,,,,,,Space,keypress(Space),,,,,,,,---- -- ----- -- ------ - ------- --- ----------<br>------------- ------ ------ ---- ---- ------- ----- -- ----<br>-------- ------- -- ---------- --- - --- ----- ----- ----<br>---- --- --- ----- --- ---- ---- matters ----- ---- -------<br>--- --- -- ----- -- --- ---- -- --- ---- -- ------ ------<br>--- ----- -- ----,252465.5,252463.3999999985,251811.484,251814,251828.149,252478.101,,35,matters
screen,html.Screen,2_1_0_1_36,2022-04-27T12:45:50.159Z,,,,,,,,,,,,,,,,,53,,,,,,,,,,,,,,647.4989999996324,,response,,,,99,,,,,,,Space,keypress(Space),,,,,,,,"---- -- ----- -- ------ - ------- --- ----------<br>------------- ------ ------ ---- ---- ------- ----- -- ----<br>-------- ------- -- ---------- --- - --- ----- ----- ----<br>---- --- --- ----- --- ---- ---- ------- most, ---- -------<br>--- --- -- ----- -- --- ---- -- --- ---- -- ------ ------<br>--- ----- -- ----",253128.09999999963,253125.59999999963,252461.436,252465.69999999925,252478.101,253144.752,,36,"most,"
screen,html.Screen,2_1_0_1_37,2022-04-27T12:45:50.688Z,,,,,,,,,,,,,,,,,53,,,,,,,,,,,,,,509.94799999924726,,response,,,,99,,,,,,,Space,keypress(Space),,,,,,,,---- -- ----- -- ------ - ------- --- ----------<br>------------- ------ ------ ---- ---- ------- ----- -- ----<br>-------- ------- -- ---------- --- - --- ----- ----- ----<br>---- --- --- ----- --- ---- ---- ------- ----- it's -------<br>--- --- -- ----- -- --- ---- -- --- ---- -- ------ ------<br>--- ----- -- ----,253657.29999999888,253654.69999999925,253128.087,253128.29999999888,253144.752,253661.396,,37,it's
screen,html.Screen,2_1_0_1_38,2022-04-27T12:45:51.290Z,,,,,,,,,,,,,,,,,53,,,,,,,,,,,,,,596.1039999999921,,response,,,,99,,,,,,,Space,keypress(Space),,,,,,,,---- -- ----- -- ------ - ------- --- ----------<br>------------- ------ ------ ---- ---- ------- ----- -- ----<br>-------- ------- -- ---------- --- - --- ----- ----- ----<br>---- --- --- ----- --- ---- ---- ------- ----- ---- whether<br>--- --- -- ----- -- --- ---- -- --- ---- -- ------ ------<br>--- ----- -- ----,254259.79999999888,254257.5,253644.731,253658.8999999985,253661.396,254261.371,,38,whether
screen,html.Screen,2_1_0_1_39,2022-04-27T12:45:51.895Z,,,,,,,,,,,,,,,,,53,,,,,,,,,,,,,,600.2289999996137,,response,,,,99,,,,,,,Space,keypress(Space),,,,,,,,---- -- ----- -- ------ - ------- --- ----------<br>------------- ------ ------ ---- ---- ------- ----- -- ----<br>-------- ------- -- ---------- --- - --- ----- ----- ----<br>---- --- --- ----- --- ---- ---- ------- ----- ---- -------<br>you --- -- ----- -- --- ---- -- --- ---- -- ------ ------<br>--- ----- -- ----,254864.29999999888,254861.59999999963,254244.706,254260,254261.371,254878.008,,39,you
screen,html.Screen,2_1_0_1_40,2022-04-27T12:45:52.483Z,,,,,,,,,,,,,,,,,53,,,,,,,,,,,,,,572.5919999996258,,response,,,,99,,,,,,,Space,keypress(Space),,,,,,,,---- -- ----- -- ------ - ------- --- ----------<br>------------- ------ ------ ---- ---- ------- ----- -- ----<br>-------- ------- -- ---------- --- - --- ----- ----- ----<br>---- --- --- ----- --- ---- ---- ------- ----- ---- -------<br>--- are -- ----- -- --- ---- -- --- ---- -- ------ ------<br>--- ----- -- ----,255452.59999999963,255450.59999999963,254861.343,254864.3999999985,254878.008,255461.305,,40,are
screen,html.Screen,2_1_0_1_41,2022-04-27T12:45:53.057Z,,,,,,,,,,,,,,,,,53,,,,,,,,,,,,,,562.9949999988894,,response,,,,99,,,,,,,Space,keypress(Space),,,,,,,,---- -- ----- -- ------ - ------- --- ----------<br>------------- ------ ------ ---- ---- ------- ----- -- ----<br>-------- ------- -- ---------- --- - --- ----- ----- ----<br>---- --- --- ----- --- ---- ---- ------- ----- ---- -------<br>--- --- as ----- -- --- ---- -- --- ---- -- ------ ------<br>--- ----- -- ----,256026.5,256024.29999999888,255444.64,255452.8999999985,255461.305,256044.621,,41,as
screen,html.Screen,2_1_0_1_42,2022-04-27T12:45:53.647Z,,,,,,,,,,,,,,,,,53,,,,,,,,,,,,,,569.0789999992412,,response,,,,99,,,,,,,Space,keypress(Space),,,,,,,,---- -- ----- -- ------ - ------- --- ----------<br>------------- ------ ------ ---- ---- ------- ----- -- ----<br>-------- ------- -- ---------- --- - --- ----- ----- ----<br>---- --- --- ----- --- ---- ---- ------- ----- ---- -------<br>--- --- -- close -- --- ---- -- --- ---- -- ------ ------<br>--- ----- -- ----,256616.69999999925,256613.69999999925,256027.956,256026.59999999963,256044.621,256627.926,,42,close
screen,html.Screen,2_1_0_1_43,2022-04-27T12:45:54.206Z,,,,,,,,,,,,,,,,,53,,,,,,,,,,,,,,544.8739999988757,,response,,,,99,,,,,,,Space,keypress(Space),,,,,,,,---- -- ----- -- ------ - ------- --- ----------<br>------------- ------ ------ ---- ---- ------- ----- -- ----<br>-------- ------- -- ---------- --- - --- ----- ----- ----<br>---- --- --- ----- --- ---- ---- ------- ----- ---- -------<br>--- --- -- ----- as --- ---- -- --- ---- -- ------ ------<br>--- ----- -- ----,257175,257172.79999999888,256611.261,256616.79999999888,256627.926,257177.903,,43,as
screen,html.Screen,2_1_0_1_44,2022-04-27T12:45:54.786Z,,,,,,,,,,,,,,,,,53,,,,,,,,,,,,,,574.9969999985187,,response,,,,99,,,,,,,Space,keypress(Space),,,,,,,,---- -- ----- -- ------ - ------- --- ----------<br>------------- ------ ------ ---- ---- ------- ----- -- ----<br>-------- ------- -- ---------- --- - --- ----- ----- ----<br>---- --- --- ----- --- ---- ---- ------- ----- ---- -------<br>--- --- -- ----- -- you ---- -- --- ---- -- ------ ------<br>--- ----- -- ----,257754.8999999985,257752.8999999985,257161.238,257175.29999999888,257177.903,257761.203,,44,you
screen,html.Screen,2_1_0_1_45,2022-04-27T12:45:55.374Z,,,,,,,,,,,,,,,,,53,,,,,,,,,,,,,,579.2969999999914,,response,,,,99,,,,,,,Space,keypress(Space),,,,,,,,---- -- ----- -- ------ - ------- --- ----------<br>------------- ------ ------ ---- ---- ------- ----- -- ----<br>-------- ------- -- ---------- --- - --- ----- ----- ----<br>---- --- --- ----- --- ---- ---- ------- ----- ---- -------<br>--- --- -- ----- -- --- want -- --- ---- -- ------ ------<br>--- ----- -- ----,258343.5,258340.5,257744.538,257755.09999999963,257761.203,258361.169,,45,want
screen,html.Screen,2_1_0_1_46,2022-04-27T12:45:55.946Z,,,,,,,,,,,,,,,,,53,,,,,,,,,,,,,,551.7309999985155,,response,,,,99,,,,,,,Space,keypress(Space),,,,,,,,---- -- ----- -- ------ - ------- --- ----------<br>------------- ------ ------ ---- ---- ------- ----- -- ----<br>-------- ------- -- ---------- --- - --- ----- ----- ----<br>---- --- --- ----- --- ---- ---- ------- ----- ---- -------<br>--- --- -- ----- -- --- ---- to --- ---- -- ------ ------<br>--- ----- -- ----,258915.69999999925,258912.8999999985,258344.504,258343.8999999985,258361.169,258927.819,,46,to
screen,html.Screen,2_1_0_1_47,2022-04-27T12:45:56.543Z,,,,,,,,,,,,,,,,,53,,,,,,,,,,,,,,582.5809999985213,,response,,,,99,,,,,,,Space,keypress(Space),,,,,,,,"---- -- ----- -- ------ - ------- --- ----------<br>------------- ------ ------ ---- ---- ------- ----- -- ----<br>-------- ------- -- ---------- --- - --- ----- ----- ----<br>---- --- --- ----- --- ---- ---- ------- ----- ---- -------<br>--- --- -- ----- -- --- ---- -- be, ---- -- ------ ------<br>--- ----- -- ----",259512.59999999963,259510.3999999985,258911.154,258915.8999999985,258927.819,259527.782,,47,"be,"
screen,html.Screen,2_1_0_1_48,2022-04-27T12:45:57.144Z,,,,,,,,,,,,,,,,,53,,,,,,,,,,,,,,582.5179999988759,,response,,,,99,,,,,,,Space,keypress(Space),,,,,,,,---- -- ----- -- ------ - ------- --- ----------<br>------------- ------ ------ ---- ---- ------- ----- -- ----<br>-------- ------- -- ---------- --- - --- ----- ----- ----<br>---- --- --- ----- --- ---- ---- ------- ----- ---- -------<br>--- --- -- ----- -- --- ---- -- --- even -- ------ ------<br>--- ----- -- ----,260113,260110.29999999888,259511.117,259512.79999999888,259527.782,260127.747,,48,even
screen,html.Screen,2_1_0_1_49,2022-04-27T12:45:57.703Z,,,,,,,,,,,,,,,,,53,,,,,,,,,,,,,,542.252999999997,,response,,,,99,,,,,,,Space,keypress(Space),,,,,,,,---- -- ----- -- ------ - ------- --- ----------<br>------------- ------ ------ ---- ---- ------- ----- -- ----<br>-------- ------- -- ---------- --- - --- ----- ----- ----<br>---- --- --- ----- --- ---- ---- ------- ----- ---- -------<br>--- --- -- ----- -- --- ---- -- --- ---- if ------ ------<br>--- ----- -- ----,260672.09999999963,260670,260111.082,260113.19999999925,260127.747,260677.741,,49,if
screen,html.Screen,2_1_0_1_50,2022-04-27T12:45:58.271Z,,,,,,,,,,,,,,,,,53,,,,,,,,,,,,,,560.0589999988733,,response,,,,99,,,,,,,Space,keypress(Space),,,,,,,,---- -- ----- -- ------ - ------- --- ----------<br>------------- ------ ------ ---- ---- ------- ----- -- ----<br>-------- ------- -- ---------- --- - --- ----- ----- ----<br>---- --- --- ----- --- ---- ---- ------- ----- ---- -------<br>--- --- -- ----- -- --- ---- -- --- ---- -- that's ------<br>--- ----- -- ----,261240.3999999985,261237.79999999888,260661.076,260672.19999999925,260677.741,261244.384,,50,that's
screen,html.Screen,2_1_0_1_51,2022-04-27T12:45:58.861Z,,,,,,,,,,,,,,,,,53,,,,,,,,,,,,,,583.2159999996366,,response,,,,99,,,,,,,Space,keypress(Space),,,,,,,,---- -- ----- -- ------ - ------- --- ----------<br>------------- ------ ------ ---- ---- ------- ----- -- ----<br>-------- ------- -- ---------- --- - --- ----- ----- ----<br>---- --- --- ----- --- ---- ---- ------- ----- ---- -------<br>--- --- -- ----- -- --- ---- -- --- ---- -- ------ really<br>--- ----- -- ----,261830.79999999888,261827.59999999963,261227.719,261240.5,261244.384,261844.354,,51,really
screen,html.Screen,2_1_0_1_52,2022-04-27T12:45:59.520Z,,,,,,,,,,,,,,,,,53,,,,,,,,,,,,,,642.5459999985178,,response,,,,99,,,,,,,Space,keypress(Space),,,,,,,,---- -- ----- -- ------ - ------- --- ----------<br>------------- ------ ------ ---- ---- ------- ----- -- ----<br>-------- ------- -- ---------- --- - --- ----- ----- ----<br>---- --- --- ----- --- ---- ---- ------- ----- ---- -------<br>--- --- -- ----- -- --- ---- -- --- ---- -- ------ ------<br>not ----- -- ----,262489.0999999996,262486.8999999985,261827.689,261831,261844.354,262494.308,,52,not
screen,html.Screen,2_1_0_1_53,2022-04-27T12:46:00.134Z,,,,,,,,,,,,,,,,,53,,,,,,,,,,,,,,606.9919999988633,,response,,,,99,,,,,,,Space,keypress(Space),,,,,,,,---- -- ----- -- ------ - ------- --- ----------<br>------------- ------ ------ ---- ---- ------- ----- -- ----<br>-------- ------- -- ---------- --- - --- ----- ----- ----<br>---- --- --- ----- --- ---- ---- ------- ----- ---- -------<br>--- --- -- ----- -- --- ---- -- --- ---- -- ------ ------<br>--- close -- ----,263103.5999999996,263101.2999999989,262477.643,262489.5,262494.308,263110.961,,53,close
screen,html.Screen,2_1_0_1_54,2022-04-27T12:46:00.754Z,,,,,,,,,,,,,,,,,53,,,,,,,,,,,,,,610.1389999996172,,response,,,,99,,,,,,,Space,keypress(Space),,,,,,,,---- -- ----- -- ------ - ------- --- ----------<br>------------- ------ ------ ---- ---- ------- ----- -- ----<br>-------- ------- -- ---------- --- - --- ----- ----- ----<br>---- --- --- ----- --- ---- ---- ------- ----- ---- -------<br>--- --- -- ----- -- --- ---- -- --- ---- -- ------ ------<br>--- ----- at ----,263723.19999999925,263721.0999999996,263094.296,263103.69999999925,263110.961,263727.599,,54,at
screen,html.Screen,2_1_0_1_55,2022-04-27T12:46:01.553Z,,,,,,,,,,,,,,,,,53,,,,,,,,,,,,,,792.200999998895,,response,,,,99,,,,,,,Space,keypress(Space),,,,,,,,---- -- ----- -- ------ - ------- --- ----------<br>------------- ------ ------ ---- ---- ------- ----- -- ----<br>-------- ------- -- ---------- --- - --- ----- ----- ----<br>---- --- --- ----- --- ---- ---- ------- ----- ---- -------<br>--- --- -- ----- -- --- ---- -- --- ---- -- ------ ------<br>--- ----- -- all.,264522.2999999989,264519.7999999989,263710.934,263723.3999999985,263727.599,264527.551,,55,all.
Item 99,flow.Loop,2_1_0_1,2022-04-27T12:46:01.553Z,,,,,,,,,,,,,,,,,,,,,,,,,,,,,,,37523.87699999887,,completion,,,,,C,,,,,,,,,,,silence,,,,,264522.7999999989,264519.7999999989,226945.928,226948.09999999963,226995.923,264527.551,,,
Question 1,html.Screen,2_1_0_2,2022-04-27T12:46:16.113Z,,,,,,,,,,,,,,,,,,,,,,,,,,,,false,FALSE,,14552.748999998905,,response,,,,99,C,,,,,,TRUE,click #choice-1,,,,silence,,,,,279082.0999999996,279080.2999999989,264510.886,264522.8999999985,264527.551,279093.562,,,
Question 2,html.Screen,2_1_0_3,2022-04-27T12:46:23.545Z,,,,,,,,,,,,,,,,,,,,,,,,,,,,true,TRUE,,7418.237999998906,,response,,,,99,C,,,,,,TRUE,click #choice-1,,,,silence,,,,,286514.0999999996,286511.7999999989,279076.897,279082.3999999985,279093.562,286526.537,,,
Item 99,flow.Sequence,2_1_0,2022-04-27T12:46:23.545Z,,,,,,,,,,,,,,,,,,,,,,,,,,,,,,,69548.70799999888,,completion,,,,,,,,,,,,,,,,,,,,,286514.5,286511.7999999989,216946.427,216959.29999999888,216963.092,286526.537,,,
Holding screen,html.Screen,2_1_1_0,2022-04-27T12:46:33.541Z,,,,,,,,,,,,,,,,,,,,,,,,,,,,,,,9999.512999999977,,timeout,,,,,,,,,,,,,,,,,,,,,296510.2999999989,296509.385,286509.872,286514.69999999925,286526.537,296526.05,,,
screen,html.Screen,2_1_1_1_0,2022-04-27T12:46:34.725Z,,,,,,,,,,,,,,,,,54,,,,,,,,,,,,,,1164.1499999992666,,response,,,,100,,,,,,,Space,keypress(Space),,,,,,,,At --- ---- --- ------ ----- ------- ---- -- --- ------- --<br>------- ---------- ------ -- ----- -- ----- -- ---- ------<br>--- ----- --- --- ------ -------- ----- --- ------ ----- --<br>----- ----- ---------- --- --- ------ ------ ---- -- ------<br>------- --- ------ ----- --- ---- ------- -- ---- --- --<br>------- ------,297694,297690.19999999925,296509.385,296510.5999999996,296526.05,297709.325,,0,At
screen,html.Screen,2_1_1_1_1,2022-04-27T12:46:36.210Z,,,,,,,,,,,,,,,,,54,,,,,,,,,,,,,,1468.5749999984982,,response,,,,100,,,,,,,Space,keypress(Space),,,,,,,,-- the ---- --- ------ ----- ------- ---- -- --- ------- --<br>------- ---------- ------ -- ----- -- ----- -- ---- ------<br>--- ----- --- --- ------ -------- ----- --- ------ ----- --<br>----- ----- ---------- --- --- ------ ------ ---- -- ------<br>------- --- ------ ----- --- ---- ------- -- ---- --- --<br>------- ------,299179.8999999985,299177.8999999985,297692.66,297694.5,297709.325,299192.573,,1,the
screen,html.Screen,2_1_1_1_2,2022-04-27T12:46:36.801Z,,,,,,,,,,,,,,,,,54,,,,,,,,,,,,,,575.2269999989076,,response,,,,100,,,,,,,Space,keypress(Space),,,,,,,,-- --- time --- ------ ----- ------- ---- -- --- ------- --<br>------- ---------- ------ -- ----- -- ----- -- ---- ------<br>--- ----- --- --- ------ -------- ----- --- ------ ----- --<br>----- ----- ---------- --- --- ------ ------ ---- -- ------<br>------- --- ------ ----- --- ---- ------- -- ---- --- --<br>------- ------,299770,299767.7999999989,299175.908,299180,299192.573,299775.919,,2,time
screen,html.Screen,2_1_1_1_3,2022-04-27T12:46:37.402Z,,,,,,,,,,,,,,,,,54,,,,,,,,,,,,,,593.380999998888,,response,,,,100,,,,,,,Space,keypress(Space),,,,,,,,-- --- ---- the ------ ----- ------- ---- -- --- ------- --<br>------- ---------- ------ -- ----- -- ----- -- ---- ------<br>--- ----- --- --- ------ -------- ----- --- ------ ----- --<br>----- ----- ---------- --- --- ------ ------ ---- -- ------<br>------- --- ------ ----- --- ---- ------- -- ---- --- --<br>------- ------,300371.69999999925,300369.2999999989,299759.254,299770.19999999925,299775.919,300375.89,,3,the
screen,html.Screen,2_1_1_1_4,2022-04-27T12:46:38.010Z,,,,,,,,,,,,,,,,,54,,,,,,,,,,,,,,602.0099999984959,,response,,,,100,,,,,,,Space,keypress(Space),,,,,,,,-- --- ---- --- French ----- ------- ---- -- --- ------- --<br>------- ---------- ------ -- ----- -- ----- -- ---- ------<br>--- ----- --- --- ------ -------- ----- --- ------ ----- --<br>----- ----- ---------- --- --- ------ ------ ---- -- ------<br>------- --- ------ ----- --- ---- ------- -- ---- --- --<br>------- ------,300979.8999999985,300977.8999999985,300359.225,300371.7999999989,300375.89,300992.534,,4,French
screen,html.Screen,2_1_1_1_5,2022-04-27T12:46:38.634Z,,,,,,,,,,,,,,,,,54,,,,,,,,,,,,,,608.6659999992698,,response,,,,100,,,,,,,Space,keypress(Space),,,,,,,,-- --- ---- --- ------ crown ------- ---- -- --- ------- --<br>------- ---------- ------ -- ----- -- ----- -- ---- ------<br>--- ----- --- --- ------ -------- ----- --- ------ ----- --<br>----- ----- ---------- --- --- ------ ------ ---- -- ------<br>------- --- ------ ----- --- ---- ------- -- ---- --- --<br>------- ------,301603.2999999989,301601.19999999925,300975.869,300980.0999999996,300992.534,301609.17,,5,crown
screen,html.Screen,2_1_1_1_6,2022-04-27T12:46:39.296Z,,,,,,,,,,,,,,,,,54,,,,,,,,,,,,,,654.1299999988987,,response,,,,100,,,,,,,Space,keypress(Space),,,,,,,,-- --- ---- --- ------ ----- secured ---- -- --- ------- --<br>------- ---------- ------ -- ----- -- ----- -- ---- ------<br>--- ----- --- --- ------ -------- ----- --- ------ ----- --<br>----- ----- ---------- --- --- ------ ------ ---- -- ------<br>------- --- ------ ----- --- ---- ------- -- ---- --- --<br>------- ------,302265.19999999925,302263.2999999989,301592.505,301603.3999999985,301609.17,302275.816,,6,secured
screen,html.Screen,2_1_1_1_7,2022-04-27T12:46:39.919Z,,,,,,,,,,,,,,,,,54,,,,,,,,,,,,,,610.3839999992633,,response,,,,100,,,,,,,Space,keypress(Space),,,,,,,,-- --- ---- --- ------ ----- ------- much -- --- ------- --<br>------- ---------- ------ -- ----- -- ----- -- ---- ------<br>--- ----- --- --- ------ -------- ----- --- ------ ----- --<br>----- ----- ---------- --- --- ------ ------ ---- -- ------<br>------- --- ------ ----- --- ---- ------- -- ---- --- --<br>------- ------,302888.5,302886.19999999925,302259.151,302265.3999999985,302275.816,302892.439,,7,much
screen,html.Screen,2_1_1_1_8,2022-04-27T12:46:40.453Z,,,,,,,,,,,,,,,,,54,,,,,,,,,,,,,,528.060999999987,,response,,,,100,,,,,,,Space,keypress(Space),,,,,,,,-- --- ---- --- ------ ----- ------- ---- of --- ------- --<br>------- ---------- ------ -- ----- -- ----- -- ---- ------<br>--- ----- --- --- ------ -------- ----- --- ------ ----- --<br>----- ----- ---------- --- --- ------ ------ ---- -- ------<br>------- --- ------ ----- --- ---- ------- -- ---- --- --<br>------- ------,303422.69999999925,303420.5,302875.774,302888.5999999996,302892.439,303425.754,,8,of
screen,html.Screen,2_1_1_1_9,2022-04-27T12:46:41.026Z,,,,,,,,,,,,,,,,,54,,,,,,,,,,,,,,567.8459999996121,,response,,,,100,,,,,,,Space,keypress(Space),,,,,,,,-- --- ---- --- ------ ----- ------- ---- -- its ------- --<br>------- ---------- ------ -- ----- -- ----- -- ---- ------<br>--- ----- --- --- ------ -------- ----- --- ------ ----- --<br>----- ----- ---------- --- --- ------ ------ ---- -- ------<br>------- --- ------ ----- --- ---- ------- -- ---- --- --<br>------- ------,303995.5999999996,303993.5999999996,303409.089,303422.8999999985,303425.754,304009.056,,9,its
screen,html.Screen,2_1_1_1_10,2022-04-27T12:46:41.589Z,,,,,,,,,,,,,,,,,54,,,,,,,,,,,,,,546.6439999992726,,response,,,,100,,,,,,,Space,keypress(Space),,,,,,,,-- --- ---- --- ------ ----- ------- ---- -- --- revenue --<br>------- ---------- ------ -- ----- -- ----- -- ---- ------<br>--- ----- --- --- ------ -------- ----- --- ------ ----- --<br>----- ----- ---------- --- --- ------ ------ ---- -- ------<br>------- --- ------ ----- --- ---- ------- -- ---- --- --<br>------- ------,304558,304555.69999999925,303992.391,303995.69999999925,304009.056,304575.714,,10,revenue
screen,html.Screen,2_1_1_1_11,2022-04-27T12:46:42.111Z,,,,,,,,,,,,,,,,,54,,,,,,,,,,,,,,502.5859999989043,,response,,,,100,,,,,,,Space,keypress(Space),,,,,,,,-- --- ---- --- ------ ----- ------- ---- -- --- ------- by<br>------- ---------- ------ -- ----- -- ----- -- ---- ------<br>--- ----- --- --- ------ -------- ----- --- ------ ----- --<br>----- ----- ---------- --- --- ------ ------ ---- -- ------<br>------- --- ------ ----- --- ---- ------- -- ---- --- --<br>------- ------,305080.3999999985,305078.2999999989,304559.049,304558.0999999996,304575.714,305092.346,,11,by
screen,html.Screen,2_1_1_1_12,2022-04-27T12:46:42.725Z,,,,,,,,,,,,,,,,,54,,,,,,,,,,,,,,598.7539999996079,,response,,,,100,,,,,,,Space,keypress(Space),,,,,,,,-- --- ---- --- ------ ----- ------- ---- -- --- ------- --<br>issuing ---------- ------ -- ----- -- ----- -- ---- ------<br>--- ----- --- --- ------ -------- ----- --- ------ ----- --<br>----- ----- ---------- --- --- ------ ------ ---- -- ------<br>------- --- ------ ----- --- ---- ------- -- ---- --- --<br>------- ------,305694.3999999985,305691.0999999996,305075.681,305080.5999999996,305092.346,305708.983,,12,issuing
screen,html.Screen,2_1_1_1_13,2022-04-27T12:46:43.284Z,,,,,,,,,,,,,,,,,54,,,,,,,,,,,,,,541.2169999992475,,response,,,,100,,,,,,,Space,keypress(Space),,,,,,,,-- --- ---- --- ------ ----- ------- ---- -- --- ------- --<br>------- government ------ -- ----- -- ----- -- ---- ------<br>--- ----- --- --- ------ -------- ----- --- ------ ----- --<br>----- ----- ---------- --- --- ------ ------ ---- -- ------<br>------- --- ------ ----- --- ---- ------- -- ---- --- --<br>------- ------,306253.3999999985,306250.19999999925,305692.318,305694.5999999996,305708.983,306258.966,,13,government
screen,html.Screen,2_1_1_1_14,2022-04-27T12:46:43.872Z,,,,,,,,,,,,,,,,,54,,,,,,,,,,,,,,579.1339999996126,,response,,,,100,,,,,,,Space,keypress(Space),,,,,,,,-- --- ---- --- ------ ----- ------- ---- -- --- ------- --<br>------- ---------- bonds. -- ----- -- ----- -- ---- ------<br>--- ----- --- --- ------ -------- ----- --- ------ ----- --<br>----- ----- ---------- --- --- ------ ------ ---- -- ------<br>------- --- ------ ----- --- ---- ------- -- ---- --- --<br>------- ------,306841.0999999996,306838.0999999996,306242.301,306253.5999999996,306258.966,306858.927,,14,bonds.
screen,html.Screen,2_1_1_1_15,2022-04-27T12:46:44.391Z,,,,,,,,,,,,,,,,,54,,,,,,,,,,,,,,499.07299999997485,,response,,,,100,,,,,,,Space,keypress(Space),,,,,,,,-- --- ---- --- ------ ----- ------- ---- -- --- ------- --<br>------- ---------- ------ In ----- -- ----- -- ---- ------<br>--- ----- --- --- ------ -------- ----- --- ------ ----- --<br>----- ----- ---------- --- --- ------ ------ ---- -- ------<br>------- --- ------ ----- --- ---- ------- -- ---- --- --<br>------- ------,307360.19999999925,307358,306842.262,306841.5,306858.927,307375.587,,15,In
screen,html.Screen,2_1_1_1_16,2022-04-27T12:46:45.041Z,,,,,,,,,,,,,,,,,54,,,,,,,,,,,,,,632.2129999988829,,response,,,,100,,,,,,,Space,keypress(Space),,,,,,,,"-- --- ---- --- ------ ----- ------- ---- -- --- ------- --<br>------- ---------- ------ -- 1727, -- ----- -- ---- ------<br>--- ----- --- --- ------ -------- ----- --- ------ ----- --<br>----- ----- ---------- --- --- ------ ------ ---- -- ------<br>------- --- ------ ----- --- ---- ------- -- ---- --- --<br>------- ------",308010.8999999985,308007.7999999989,307358.922,307360.3999999985,307375.587,308025.537,,16,"1727,"
screen,html.Screen,2_1_1_1_17,2022-04-27T12:46:45.648Z,,,,,,,,,,,,,,,,,54,,,,,,,,,,,,,,589.4629999999888,,response,,,,100,,,,,,,Space,keypress(Space),,,,,,,,-- --- ---- --- ------ ----- ------- ---- -- --- ------- --<br>------- ---------- ------ -- ----- in ----- -- ---- ------<br>--- ----- --- --- ------ -------- ----- --- ------ ----- --<br>----- ----- ---------- --- --- ------ ------ ---- -- ------<br>------- --- ------ ----- --- ---- ------- -- ---- --- --<br>------- ------,308617.5,308615,308008.872,308011.0999999996,308025.537,308625.51,,17,in
screen,html.Screen,2_1_1_1_18,2022-04-27T12:46:46.193Z,,,,,,,,,,,,,,,,,54,,,,,,,,,,,,,,534.9899999999907,,response,,,,100,,,,,,,Space,keypress(Space),,,,,,,,-- --- ---- --- ------ ----- ------- ---- -- --- ------- --<br>------- ---------- ------ -- ----- -- order -- ---- ------<br>--- ----- --- --- ------ -------- ----- --- ------ ----- --<br>----- ----- ---------- --- --- ------ ------ ---- -- ------<br>------- --- ------ ----- --- ---- ------- -- ---- --- --<br>------- ------,309162.8999999985,309160.5,308608.845,308617.69999999925,308625.51,309175.504,,18,order
screen,html.Screen,2_1_1_1_19,2022-04-27T12:46:46.733Z,,,,,,,,,,,,,,,,,54,,,,,,,,,,,,,,523.795999998867,,response,,,,100,,,,,,,Space,keypress(Space),,,,,,,,-- --- ---- --- ------ ----- ------- ---- -- --- ------- --<br>------- ---------- ------ -- ----- -- ----- to ---- ------<br>--- ----- --- --- ------ -------- ----- --- ------ ----- --<br>----- ----- ---------- --- --- ------ ------ ---- -- ------<br>------- --- ------ ----- --- ---- ------- -- ---- --- --<br>------- ------,309702.0999999996,309699.2999999989,309158.839,309163,309175.504,309708.796,,19,to
screen,html.Screen,2_1_1_1_20,2022-04-27T12:46:47.247Z,,,,,,,,,,,,,,,,,54,,,,,,,,,,,,,,505.90399999928195,,response,,,,100,,,,,,,Space,keypress(Space),,,,,,,,-- --- ---- --- ------ ----- ------- ---- -- --- ------- --<br>------- ---------- ------ -- ----- -- ----- -- save ------<br>--- ----- --- --- ------ -------- ----- --- ------ ----- --<br>----- ----- ---------- --- --- ------ ------ ---- -- ------<br>------- --- ------ ----- --- ---- ------- -- ---- --- --<br>------- ------,310216.8999999985,310214.69999999925,309692.131,309702.2999999989,309708.796,310225.455,,20,save
screen,html.Screen,2_1_1_1_21,2022-04-27T12:46:47.786Z,,,,,,,,,,,,,,,,,54,,,,,,,,,,,,,,527.5449999999837,,response,,,,100,,,,,,,Space,keypress(Space),,,,,,,,"-- --- ---- --- ------ ----- ------- ---- -- --- ------- --<br>------- ---------- ------ -- ----- -- ----- -- ---- money,<br>--- ----- --- --- ------ -------- ----- --- ------ ----- --<br>----- ----- ---------- --- --- ------ ------ ---- -- ------<br>------- --- ------ ----- --- ---- ------- -- ---- --- --<br>------- ------",310755.3999999985,310753,310208.79,310217.0999999996,310225.455,310758.767,,21,"money,"
screen,html.Screen,2_1_1_1_22,2022-04-27T12:46:48.325Z,,,,,,,,,,,,,,,,,54,,,,,,,,,,,,,,533.2330000000075,,response,,,,100,,,,,,,Space,keypress(Space),,,,,,,,-- --- ---- --- ------ ----- ------- ---- -- --- ------- --<br>------- ---------- ------ -- ----- -- ----- -- ---- ------<br>the ----- --- --- ------ -------- ----- --- ------ ----- --<br>----- ----- ---------- --- --- ------ ------ ---- -- ------<br>------- --- ------ ----- --- ---- ------- -- ---- --- --<br>------- ------,311294.2999999989,311292,310742.102,310755.5999999996,310758.767,311308.724,,22,the
screen,html.Screen,2_1_1_1_23,2022-04-27T12:46:48.867Z,,,,,,,,,,,,,,,,,54,,,,,,,,,,,,,,525.2760000000126,,response,,,,100,,,,,,,Space,keypress(Space),,,,,,,,-- --- ---- --- ------ ----- ------- ---- -- --- ------- --<br>------- ---------- ------ -- ----- -- ----- -- ---- ------<br>--- state --- --- ------ -------- ----- --- ------ ----- --<br>----- ----- ---------- --- --- ------ ------ ---- -- ------<br>------- --- ------ ----- --- ---- ------- -- ---- --- --<br>------- ------,311836.19999999925,311834,311292.059,311294.5,311308.724,311842.046,,23,state
screen,html.Screen,2_1_1_1_24,2022-04-27T12:46:49.404Z,,,,,,,,,,,,,,,,,54,,,,,,,,,,,,,,528.0539999996545,,response,,,,100,,,,,,,Space,keypress(Space),,,,,,,,-- --- ---- --- ------ ----- ------- ---- -- --- ------- --<br>------- ---------- ------ -- ----- -- ----- -- ---- ------<br>--- ----- cut --- ------ -------- ----- --- ------ ----- --<br>----- ----- ---------- --- --- ------ ------ ---- -- ------<br>------- --- ------ ----- --- ---- ------- -- ---- --- --<br>------- ------,312373.2999999989,312370.0999999996,311825.381,311836.3999999985,311842.046,312375.343,,24,cut
screen,html.Screen,2_1_1_1_25,2022-04-27T12:46:49.931Z,,,,,,,,,,,,,,,,,54,,,,,,,,,,,,,,522.6570000000065,,response,,,,100,,,,,,,Space,keypress(Space),,,,,,,,-- --- ---- --- ------ ----- ------- ---- -- --- ------- --<br>------- ---------- ------ -- ----- -- ----- -- ---- ------<br>--- ----- --- the ------ -------- ----- --- ------ ----- --<br>----- ----- ---------- --- --- ------ ------ ---- -- ------<br>------- --- ------ ----- --- ---- ------- -- ---- --- --<br>------- ------,312900.19999999925,312898,312358.678,312373.3999999985,312375.343,312908.663,,25,the
screen,html.Screen,2_1_1_1_26,2022-04-27T12:46:50.506Z,,,,,,,,,,,,,,,,,54,,,,,,,,,,,,,,564.5369999992545,,response,,,,100,,,,,,,Space,keypress(Space),,,,,,,,-- --- ---- --- ------ ----- ------- ---- -- --- ------- --<br>------- ---------- ------ -- ----- -- ----- -- ---- ------<br>--- ----- --- --- bonds' -------- ----- --- ------ ----- --<br>----- ----- ---------- --- --- ------ ------ ---- -- ------<br>------- --- ------ ----- --- ---- ------- -- ---- --- --<br>------- ------,313475.3999999985,313473.19999999925,312891.998,312900.3999999985,312908.663,313491.97,,26,bonds'
screen,html.Screen,2_1_1_1_27,2022-04-27T12:46:51.068Z,,,,,,,,,,,,,,,,,54,,,,,,,,,,,,,,542.7299999992829,,response,,,,100,,,,,,,Space,keypress(Space),,,,,,,,-- --- ---- --- ------ ----- ------- ---- -- --- ------- --<br>------- ---------- ------ -- ----- -- ----- -- ---- ------<br>--- ----- --- --- ------ interest ----- --- ------ ----- --<br>----- ----- ---------- --- --- ------ ------ ---- -- ------<br>------- --- ------ ----- --- ---- ------- -- ---- --- --<br>------- ------,314037.5999999996,314034.69999999925,313475.305,313475.5999999996,313491.97,314041.926,,27,interest
screen,html.Screen,2_1_1_1_28,2022-04-27T12:46:51.672Z,,,,,,,,,,,,,,,,,54,,,,,,,,,,,,,,596.7739999992773,,response,,,,100,,,,,,,Space,keypress(Space),,,,,,,,-- --- ---- --- ------ ----- ------- ---- -- --- ------- --<br>------- ---------- ------ -- ----- -- ----- -- ---- ------<br>--- ----- --- --- ------ -------- rate. --- ------ ----- --<br>----- ----- ---------- --- --- ------ ------ ---- -- ------<br>------- --- ------ ----- --- ---- ------- -- ---- --- --<br>------- ------,314641.5,314638.69999999925,314025.261,314037.7999999989,314041.926,314658.577,,28,rate.
screen,html.Screen,2_1_1_1_29,2022-04-27T12:46:52.335Z,,,,,,,,,,,,,,,,,54,,,,,,,,,,,,,,643.7229999988922,,response,,,,100,,,,,,,Space,keypress(Space),,,,,,,,-- --- ---- --- ------ ----- ------- ---- -- --- ------- --<br>------- ---------- ------ -- ----- -- ----- -- ---- ------<br>--- ----- --- --- ------ -------- ----- The ------ ----- --<br>----- ----- ---------- --- --- ------ ------ ---- -- ------<br>------- --- ------ ----- --- ---- ------- -- ---- --- --<br>------- ------,315304.69999999925,315302.2999999989,314641.912,314641.69999999925,314658.577,315308.541,,29,The
screen,html.Screen,2_1_1_1_30,2022-04-27T12:46:52.909Z,,,,,,,,,,,,,,,,,54,,,,,,,,,,,,,,567.6589999992284,,response,,,,100,,,,,,,Space,keypress(Space),,,,,,,,-- --- ---- --- ------ ----- ------- ---- -- --- ------- --<br>------- ---------- ------ -- ----- -- ----- -- ---- ------<br>--- ----- --- --- ------ -------- ----- --- market ----- --<br>----- ----- ---------- --- --- ------ ------ ---- -- ------<br>------- --- ------ ----- --- ---- ------- -- ---- --- --<br>------- ------,315878.5999999996,315876.19999999925,315291.876,315304.7999999989,315308.541,315891.858,,30,market
screen,html.Screen,2_1_1_1_31,2022-04-27T12:46:53.475Z,,,,,,,,,,,,,,,,,54,,,,,,,,,,,,,,550.24199999962,,response,,,,100,,,,,,,Space,keypress(Space),,,,,,,,-- --- ---- --- ------ ----- ------- ---- -- --- ------- --<br>------- ---------- ------ -- ----- -- ----- -- ---- ------<br>--- ----- --- --- ------ -------- ----- --- ------ value --<br>----- ----- ---------- --- --- ------ ------ ---- -- ------<br>------- --- ------ ----- --- ---- ------- -- ---- --- --<br>------- ------,316444.2999999989,316442.0999999996,315875.193,315878.69999999925,315891.858,316458.483,,31,value
screen,html.Screen,2_1_1_1_32,2022-04-27T12:46:54.017Z,,,,,,,,,,,,,,,,,54,,,,,,,,,,,,,,525.9169999985024,,response,,,,100,,,,,,,Space,keypress(Space),,,,,,,,-- --- ---- --- ------ ----- ------- ---- -- --- ------- --<br>------- ---------- ------ -- ----- -- ----- -- ---- ------<br>--- ----- --- --- ------ -------- ----- --- ------ ----- of<br>----- ----- ---------- --- --- ------ ------ ---- -- ------<br>------- --- ------ ----- --- ---- ------- -- ---- --- --<br>------- ------,316987,316984.3999999985,316441.818,316444.5,316458.483,316991.806,,32,of
screen,html.Screen,2_1_1_1_33,2022-04-27T12:46:54.617Z,,,,,,,,,,,,,,,,,54,,,,,,,,,,,,,,592.4939999989001,,response,,,,100,,,,,,,Space,keypress(Space),,,,,,,,-- --- ---- --- ------ ----- ------- ---- -- --- ------- --<br>------- ---------- ------ -- ----- -- ----- -- ---- ------<br>--- ----- --- --- ------ -------- ----- --- ------ ----- --<br>these ----- ---------- --- --- ------ ------ ---- -- ------<br>------- --- ------ ----- --- ---- ------- -- ---- --- --<br>------- ------,317586.8999999985,317584.2999999989,316975.141,316987.0999999996,316991.806,317591.78,,33,these
screen,html.Screen,2_1_1_1_34,2022-04-27T12:46:55.150Z,,,,,,,,,,,,,,,,,54,,,,,,,,,,,,,,524.5199999988545,,response,,,,100,,,,,,,Space,keypress(Space),,,,,,,,-- --- ---- --- ------ ----- ------- ---- -- --- ------- --<br>------- ---------- ------ -- ----- -- ----- -- ---- ------<br>--- ----- --- --- ------ -------- ----- --- ------ ----- --<br>----- bonds ---------- --- --- ------ ------ ---- -- ------<br>------- --- ------ ----- --- ---- ------- -- ---- --- --<br>------- ------,318119.5,318116.2999999989,317575.115,317586.8999999985,317591.78,318125.089,,34,bonds
screen,html.Screen,2_1_1_1_35,2022-04-27T12:46:55.757Z,,,,,,,,,,,,,,,,,54,,,,,,,,,,,,,,598.6109999992768,,response,,,,100,,,,,,,Space,keypress(Space),,,,,,,,"-- --- ---- --- ------ ----- ------- ---- -- --- ------- --<br>------- ---------- ------ -- ----- -- ----- -- ---- ------<br>--- ----- --- --- ------ -------- ----- --- ------ ----- --<br>----- ----- plummeted, --- --- ------ ------ ---- -- ------<br>------- --- ------ ----- --- ---- ------- -- ---- --- --<br>------- ------",318726.2999999989,318723.69999999925,318108.424,318119.69999999925,318125.089,318741.723,,35,"plummeted,"
screen,html.Screen,2_1_1_1_36,2022-04-27T12:46:56.367Z,,,,,,,,,,,,,,,,,54,,,,,,,,,,,,,,592.0769999988843,,response,,,,100,,,,,,,Space,keypress(Space),,,,,,,,-- --- ---- --- ------ ----- ------- ---- -- --- ------- --<br>------- ---------- ------ -- ----- -- ----- -- ---- ------<br>--- ----- --- --- ------ -------- ----- --- ------ ----- --<br>----- ----- ---------- and --- ------ ------ ---- -- ------<br>------- --- ------ ----- --- ---- ------- -- ---- --- --<br>------- ------,319336.5999999996,319333.7999999989,318725.058,318726.5,318741.723,319341.68,,36,and
screen,html.Screen,2_1_1_1_37,2022-04-27T12:46:56.910Z,,,,,,,,,,,,,,,,,54,,,,,,,,,,,,,,535.4199999996345,,response,,,,100,,,,,,,Space,keypress(Space),,,,,,,,-- --- ---- --- ------ ----- ------- ---- -- --- ------- --<br>------- ---------- ------ -- ----- -- ----- -- ---- ------<br>--- ----- --- --- ------ -------- ----- --- ------ ----- --<br>----- ----- ---------- --- the ------ ------ ---- -- ------<br>------- --- ------ ----- --- ---- ------- -- ---- --- --<br>------- ------,319879.5,319877.0999999996,319325.015,319336.7999999989,319341.68,319891.673,,37,the
screen,html.Screen,2_1_1_1_38,2022-04-27T12:46:57.499Z,,,,,,,,,,,,,,,,,54,,,,,,,,,,,,,,574.1269999988726,,response,,,,100,,,,,,,Space,keypress(Space),,,,,,,,-- --- ---- --- ------ ----- ------- ---- -- --- ------- --<br>------- ---------- ------ -- ----- -- ----- -- ---- ------<br>--- ----- --- --- ------ -------- ----- --- ------ ----- --<br>----- ----- ---------- --- --- market ------ ---- -- ------<br>------- --- ------ ----- --- ---- ------- -- ---- --- --<br>------- ------,320468.2999999989,320465.7999999989,319875.008,319879.69999999925,319891.673,320474.969,,38,market
screen,html.Screen,2_1_1_1_39,2022-04-27T12:46:58.086Z,,,,,,,,,,,,,,,,,54,,,,,,,,,,,,,,577.8309999988996,,response,,,,100,,,,,,,Space,keypress(Space),,,,,,,,-- --- ---- --- ------ ----- ------- ---- -- --- ------- --<br>------- ---------- ------ -- ----- -- ----- -- ---- ------<br>--- ----- --- --- ------ -------- ----- --- ------ ----- --<br>----- ----- ---------- --- --- ------ became ---- -- ------<br>------- --- ------ ----- --- ---- ------- -- ---- --- --<br>------- ------,321055.69999999925,321052.7999999989,320458.304,320468.5999999996,320474.969,321058.287,,39,became
screen,html.Screen,2_1_1_1_40,2022-04-27T12:46:58.691Z,,,,,,,,,,,,,,,,,54,,,,,,,,,,,,,,600.1129999984987,,response,,,,100,,,,,,,Space,keypress(Space),,,,,,,,-- --- ---- --- ------ ----- ------- ---- -- --- ------- --<br>------- ---------- ------ -- ----- -- ----- -- ---- ------<br>--- ----- --- --- ------ -------- ----- --- ------ ----- --<br>----- ----- ---------- --- --- ------ ------ wary -- ------<br>------- --- ------ ----- --- ---- ------- -- ---- --- --<br>------- ------,321660.8999999985,321658.3999999985,321041.622,321055.8999999985,321058.287,321674.911,,40,wary
screen,html.Screen,2_1_1_1_41,2022-04-27T12:46:59.288Z,,,,,,,,,,,,,,,,,54,,,,,,,,,,,,,,579.8889999988605,,response,,,,100,,,,,,,Space,keypress(Space),,,,,,,,-- --- ---- --- ------ ----- ------- ---- -- --- ------- --<br>------- ---------- ------ -- ----- -- ----- -- ---- ------<br>--- ----- --- --- ------ -------- ----- --- ------ ----- --<br>----- ----- ---------- --- --- ------ ------ ---- of ------<br>------- --- ------ ----- --- ---- ------- -- ---- --- --<br>------- ------,322257.0999999996,322254.7999999989,321658.246,321661,321674.911,322274.898,,41,of
screen,html.Screen,2_1_1_1_42,2022-04-27T12:46:59.869Z,,,,,,,,,,,,,,,,,54,,,,,,,,,,,,,,560.701999999641,,response,,,,100,,,,,,,Space,keypress(Space),,,,,,,,-- --- ---- --- ------ ----- ------- ---- -- --- ------- --<br>------- ---------- ------ -- ----- -- ----- -- ---- ------<br>--- ----- --- --- ------ -------- ----- --- ------ ----- --<br>----- ----- ---------- --- --- ------ ------ ---- -- French<br>------- --- ------ ----- --- ---- ------- -- ---- --- --<br>------- ------,322838.7999999989,322835.5999999996,322258.233,322257.5999999996,322274.898,322841.536,,42,French
screen,html.Screen,2_1_1_1_43,2022-04-27T12:47:00.631Z,,,,,,,,,,,,,,,,,54,,,,,,,,,,,,,,756.363999998488,,response,,,,100,,,,,,,Space,keypress(Space),,,,,,,,-- --- ---- --- ------ ----- ------- ---- -- --- ------- --<br>------- ---------- ------ -- ----- -- ----- -- ---- ------<br>--- ----- --- --- ------ -------- ----- --- ------ ----- --<br>----- ----- ---------- --- --- ------ ------ ---- -- ------<br>credit. --- ------ ----- --- ---- ------- -- ---- --- --<br>------- ------,323600.3999999985,323597.8999999985,322824.871,322839,322841.536,323608.155,,43,credit.
screen,html.Screen,2_1_1_1_44,2022-04-27T12:47:01.275Z,,,,,,,,,,,,,,,,,54,,,,,,,,,,,,,,634.044999999227,,response,,,,100,,,,,,,Space,keypress(Space),,,,,,,,-- --- ---- --- ------ ----- ------- ---- -- --- ------- --<br>------- ---------- ------ -- ----- -- ----- -- ---- ------<br>--- ----- --- --- ------ -------- ----- --- ------ ----- --<br>----- ----- ---------- --- --- ------ ------ ---- -- ------<br>------- The ------ ----- --- ---- ------- -- ---- --- --<br>------- ------,324244.2999999989,324242.19999999925,323591.49,323600.5999999996,323608.155,324258.127,,44,The
screen,html.Screen,2_1_1_1_45,2022-04-27T12:47:01.789Z,,,,,,,,,,,,,,,,,54,,,,,,,,,,,,,,498.17299999890383,,response,,,,100,,,,,,,Space,keypress(Space),,,,,,,,-- --- ---- --- ------ ----- ------- ---- -- --- ------- --<br>------- ---------- ------ -- ----- -- ----- -- ---- ------<br>--- ----- --- --- ------ -------- ----- --- ------ ----- --<br>----- ----- ---------- --- --- ------ ------ ---- -- ------<br>------- --- French ----- --- ---- ------- -- ---- --- --<br>------- ------,324758.7999999989,324756.2999999989,324241.462,324244.5,324258.127,324774.783,,45,French
screen,html.Screen,2_1_1_1_46,2022-04-27T12:47:02.389Z,,,,,,,,,,,,,,,,,54,,,,,,,,,,,,,,581.3169999996317,,response,,,,100,,,,,,,Space,keypress(Space),,,,,,,,-- --- ---- --- ------ ----- ------- ---- -- --- ------- --<br>------- ---------- ------ -- ----- -- ----- -- ---- ------<br>--- ----- --- --- ------ -------- ----- --- ------ ----- --<br>----- ----- ---------- --- --- ------ ------ ---- -- ------<br>------- --- ------ state --- ---- ------- -- ---- --- --<br>------- ------,325358.3999999985,325356.0999999996,324758.118,324759,324774.783,325374.755,,46,state
screen,html.Screen,2_1_1_1_47,2022-04-27T12:47:02.924Z,,,,,,,,,,,,,,,,,54,,,,,,,,,,,,,,516.2449999999953,,response,,,,100,,,,,,,Space,keypress(Space),,,,,,,,-- --- ---- --- ------ ----- ------- ---- -- --- ------- --<br>------- ---------- ------ -- ----- -- ----- -- ---- ------<br>--- ----- --- --- ------ -------- ----- --- ------ ----- --<br>----- ----- ---------- --- --- ------ ------ ---- -- ------<br>------- --- ------ ----- was ---- ------- -- ---- --- --<br>------- ------,325893.3999999985,325891,325358.09,325358.5999999996,325374.755,325908.066,,47,was
screen,html.Screen,2_1_1_1_48,2022-04-27T12:47:03.466Z,,,,,,,,,,,,,,,,,54,,,,,,,,,,,,,,525.0339999996359,,response,,,,100,,,,,,,Space,keypress(Space),,,,,,,,-- --- ---- --- ------ ----- ------- ---- -- --- ------- --<br>------- ---------- ------ -- ----- -- ----- -- ---- ------<br>--- ----- --- --- ------ -------- ----- --- ------ ----- --<br>----- ----- ---------- --- --- ------ ------ ---- -- ------<br>------- --- ------ ----- --- left ------- -- ---- --- --<br>------- ------,326435.5,326433.0999999996,325891.401,325893.5999999996,325908.066,326441.363,,48,left
screen,html.Screen,2_1_1_1_49,2022-04-27T12:47:04.083Z,,,,,,,,,,,,,,,,,54,,,,,,,,,,,,,,609.0369999984978,,response,,,,100,,,,,,,Space,keypress(Space),,,,,,,,-- --- ---- --- ------ ----- ------- ---- -- --- ------- --<br>------- ---------- ------ -- ----- -- ----- -- ---- ------<br>--- ----- --- --- ------ -------- ----- --- ------ ----- --<br>----- ----- ---------- --- --- ------ ------ ---- -- ------<br>------- --- ------ ----- --- ---- without -- ---- --- --<br>------- ------,327052.7999999989,327050.3999999985,326424.698,326435.7999999989,326441.363,327057.99,,49,without
screen,html.Screen,2_1_1_1_50,2022-04-27T12:47:04.618Z,,,,,,,,,,,,,,,,,54,,,,,,,,,,,,,,527.8099999988917,,response,,,,100,,,,,,,Space,keypress(Space),,,,,,,,-- --- ---- --- ------ ----- ------- ---- -- --- ------- --<br>------- ---------- ------ -- ----- -- ----- -- ---- ------<br>--- ----- --- --- ------ -------- ----- --- ------ ----- --<br>----- ----- ---------- --- --- ------ ------ ---- -- ------<br>------- --- ------ ----- --- ---- ------- an ---- --- --<br>------- ------,327587.8999999985,327585.7999999989,327041.325,327053,327057.99,327591.316,,50,an
screen,html.Screen,2_1_1_1_51,2022-04-27T12:47:05.181Z,,,,,,,,,,,,,,,,,54,,,,,,,,,,,,,,555.0839999985183,,response,,,,100,,,,,,,Space,keypress(Space),,,,,,,,-- --- ---- --- ------ ----- ------- ---- -- --- ------- --<br>------- ---------- ------ -- ----- -- ----- -- ---- ------<br>--- ----- --- --- ------ -------- ----- --- ------ ----- --<br>----- ----- ---------- --- --- ------ ------ ---- -- ------<br>------- --- ------ ----- --- ---- ------- -- easy --- --<br>------- ------,328150,328146.3999999985,327574.651,327588.0999999996,327591.316,328157.958,,51,easy
screen,html.Screen,2_1_1_1_52,2022-04-27T12:47:05.761Z,,,,,,,,,,,,,,,,,54,,,,,,,,,,,,,,570.4419999985257,,response,,,,100,,,,,,,Space,keypress(Space),,,,,,,,-- --- ---- --- ------ ----- ------- ---- -- --- ------- --<br>------- ---------- ------ -- ----- -- ----- -- ---- ------<br>--- ----- --- --- ------ -------- ----- --- ------ ----- --<br>----- ----- ---------- --- --- ------ ------ ---- -- ------<br>------- --- ------ ----- --- ---- ------- -- ---- way --<br>------- ------,328730.7999999989,328728.3999999985,328141.293,328150.2999999989,328157.958,328741.26,,52,way
screen,html.Screen,2_1_1_1_53,2022-04-27T12:47:06.325Z,,,,,,,,,,,,,,,,,54,,,,,,,,,,,,,,551.6399999985006,,response,,,,100,,,,,,,Space,keypress(Space),,,,,,,,-- --- ---- --- ------ ----- ------- ---- -- --- ------- --<br>------- ---------- ------ -- ----- -- ----- -- ---- ------<br>--- ----- --- --- ------ -------- ----- --- ------ ----- --<br>----- ----- ---------- --- --- ------ ------ ---- -- ------<br>------- --- ------ ----- --- ---- ------- -- ---- --- of<br>------- ------,329294.8999999985,329292.8999999985,328724.595,328730.8999999985,328741.26,329307.907,,53,of
screen,html.Screen,2_1_1_1_54,2022-04-27T12:47:06.878Z,,,,,,,,,,,,,,,,,54,,,,,,,,,,,,,,536.8929999988759,,response,,,,100,,,,,,,Space,keypress(Space),,,,,,,,-- --- ---- --- ------ ----- ------- ---- -- --- ------- --<br>------- ---------- ------ -- ----- -- ----- -- ---- ------<br>--- ----- --- --- ------ -------- ----- --- ------ ----- --<br>----- ----- ---------- --- --- ------ ------ ---- -- ------<br>------- --- ------ ----- --- ---- ------- -- ---- --- --<br>raising ------,329847.3999999985,329844.7999999989,329291.242,329295,329307.907,329857.866,,54,raising
screen,html.Screen,2_1_1_1_55,2022-04-27T12:47:07.480Z,,,,,,,,,,,,,,,,,54,,,,,,,,,,,,,,589.4339999989024,,response,,,,100,,,,,,,Space,keypress(Space),,,,,,,,-- --- ---- --- ------ ----- ------- ---- -- --- ------- --<br>------- ---------- ------ -- ----- -- ----- -- ---- ------<br>--- ----- --- --- ------ -------- ----- --- ------ ----- --<br>----- ----- ---------- --- --- ------ ------ ---- -- ------<br>------- --- ------ ----- --- ---- ------- -- ---- --- --<br>------- money.,330449.8999999985,330447.2999999989,329841.201,329847.5,329857.866,330457.848,,55,money.
Item 100,flow.Loop,2_1_1_1,2022-04-27T12:47:07.481Z,,,,,,,,,,,,,,,,,,,,,,,,,,,,,,,33921.249999998894,,completion,,,,,C,,,,,,,,,,,silence,,,,,330450.2999999989,330447.2999999989,296509.385,296510.5999999996,296526.05,330457.848,,,
Question 1,html.Screen,2_1_1_2,2022-04-27T12:47:12.347Z,,,,,,,,,,,,,,,,,,,,,,,,,,,,true,TRUE,,4856.652000000002,,response,,,,100,C,,,,,,TRUE,click #choice-1,,,,silence,,,,,335316.7999999989,335314.5,330441.183,330450.5,330457.848,335324.271,,,
Question 2,html.Screen,2_1_1_3,2022-04-27T12:47:15.585Z,,,,,,,,,,,,,,,,,,,,,,,,,,,,true,FALSE,,3228.8289999996196,,response,,,,100,C,,,,,,FALSE,click #choice-2,,,,silence,,,,,338554.7999999989,338553.0999999996,335307.606,335316.8999999985,335324.271,338557.487,,,
Item 100,flow.Sequence,2_1_1,2022-04-27T12:47:15.586Z,,,,,,,,,,,,,,,,,,,,,,,,,,,,,,,52026.562999999616,,completion,,,,,,,,,,,,,,,,,,,,,338555.0999999996,338553.0999999996,286509.872,286514.69999999925,286526.537,338557.487,,,
End of Practice,html.Page,2_1_2,2022-04-27T12:47:28.017Z,,,,,,,,,,,,,,,,,,,,,,,,,,,,,,,12428.412999998487,,form submission,,,,,,,,,,,,,,,,,,,,,350986.8999999985,350985.8999999985,338540.822,338555.2999999989,338557.487,350990.238,,,
Practice,flow.Sequence,2_1,2022-04-27T12:47:28.018Z,,,,,,,,,,,,,,,,,,,,,,,,,,,,,,,134022.8079999985,,completion,,,,,,,,,,,,,,,,,,,,,350987.69999999925,350985.8999999985,216946.427,216959.19999999925,216963.092,350990.238,,,
Trap_instruction,html.Page,2_2_0,2022-04-27T12:47:34.810Z,,,,,,,,,,,,,,,,,,,,,,,,,,,,,,,6788.56199999887,,form submission,,,,,,,,,,,,,,,,,,,,,357779.2999999989,357778.7999999989,350973.573,350988.2999999989,350990.238,357823.26,,,
trap_trial,html.Screen,2_2_1,2022-04-27T12:47:38.959Z,,,,,,,,,,,,,,,,,,,,,,,,,,,,true,1,,4102.539999998873,,response,,,,,,,,,,,1,click #choice-1,,,,,,,,,361928.5999999996,361925.7999999989,357789.93,357779.5999999996,357823.26,361939.542,,,
end of trap trial,html.Page,2_2_2,2022-04-27T12:47:40.894Z,,,,,,,,,,,,,,,,,,,,,,,,,,,,,,,1923.5579999996116,,form submission,,,,,,,,,,,,,,,,,,,,,363863.7999999989,363863.0999999996,361922.877,361928.8999999985,361939.542,363872.953,,,
Trap 1,flow.Sequence,2_2,2022-04-27T12:47:40.895Z,,,,,,,,,,,,,,,,,,,,,,,,,,,,,,,12872.861999999615,,completion,,,,,,,,,,,,,,,,,,,,,363864,363863.0999999996,350973.573,350988.19999999925,350990.238,363872.953,,,
Standby,html.Page,2_3_0,2022-04-27T12:47:48.888Z,,,,,,,,,,,,,,,,,,,,,,,,,,,,,,,7999.248000000021,,timeout,,,,,,,,,,,,,,,,,,,,,371857.5,371855.536,363856.288,363864.2999999989,363872.953,371872.201,,,
Holding screen,html.Screen,2_3_1_0_0,2022-04-27T12:47:55.888Z,,,,,,,,,,,,,,,,,,,,,,,,,,,,,,,7000.059999999998,,timeout,,,,,,,,,,,,,,,,,,,,,378857.7999999989,378855.596,371855.536,371858.2999999989,371872.201,378872.261,,,
screen,html.Screen,2_3_1_0_1_0,2022-04-27T12:47:57.764Z,,,,,,,,,,,,,,,,,2,,,,,,,,,,,,,,1857.7390000000014,,response,,,,1,C,,,,,,Space,keypress(Space),,,,instrumental,,,,Two ---- ------ --- ------- ---------- ------- ----------<br>--- --------- --- ----------- ------- ----- ------- ---<br>--------- ---- -- --- ---- -- --------- -- ---- -------<br>-- --------- ------ --- ----- ------ ---- --- --------- --<br>------ - ---- -- --- ----------- ------- ---- ----- -----<br>--- -------- - ------ ---- -- ----- ---- --- --- -----------<br>-- -------,380733.2999999989,380730,378855.596,378858.3999999985,378872.261,380738.815,,0,Two
screen,html.Screen,2_3_1_0_1_1,2022-04-27T12:47:58.527Z,,,,,,,,,,,,,,,,,2,,,,,,,,,,,,,,755.1849999999977,,response,,,,1,C,,,,,,Space,keypress(Space),,,,instrumental,,,,--- days ------ --- ------- ---------- ------- ----------<br>--- --------- --- ----------- ------- ----- ------- ---<br>--------- ---- -- --- ---- -- --------- -- ---- -------<br>-- --------- ------ --- ----- ------ ---- --- --------- --<br>------ - ---- -- --- ----------- ------- ---- ----- -----<br>--- -------- - ------ ---- -- ----- ---- --- --- -----------<br>-- -------,381496.3999999985,381494,380722.15,380733.5999999996,380738.815,381505.478,,1,days
screen,html.Screen,2_3_1_0_1_2,2022-04-27T12:47:59.282Z,,,,,,,,,,,,,,,,,2,,,,,,,,,,,,,,743.1219999996247,,response,,,,1,C,,,,,,Space,keypress(Space),,,,instrumental,,,,"--- ---- later, --- ------- ---------- ------- ----------<br>--- --------- --- ----------- ------- ----- ------- ---<br>--------- ---- -- --- ---- -- --------- -- ---- -------<br>-- --------- ------ --- ----- ------ ---- --- --------- --<br>------ - ---- -- --- ----------- ------- ---- ----- -----<br>--- -------- - ------ ---- -- ----- ---- --- --- -----------<br>-- -------",382251,382248.5999999996,381488.813,381496.5999999996,381505.478,382255.453,,2,"later,"
screen,html.Screen,2_3_1_0_1_3,2022-04-27T12:47:59.907Z,,,,,,,,,,,,,,,,,2,,,,,,,,,,,,,,619.146999999648,,response,,,,1,C,,,,,,Space,keypress(Space),,,,instrumental,,,,--- ---- ------ the ------- ---------- ------- ----------<br>--- --------- --- ----------- ------- ----- ------- ---<br>--------- ---- -- --- ---- -- --------- -- ---- -------<br>-- --------- ------ --- ----- ------ ---- --- --------- --<br>------ - ---- -- --- ----------- ------- ---- ----- -----<br>--- -------- - ------ ---- -- ----- ---- --- --- -----------<br>-- -------,382876.8999999985,382874.5999999996,382238.788,382251.19999999925,382255.453,382888.746,,3,the
screen,html.Screen,2_3_1_0_1_4,2022-04-27T12:48:00.470Z,,,,,,,,,,,,,,,,,2,,,,,,,,,,,,,,548.3539999996428,,response,,,,1,C,,,,,,Space,keypress(Space),,,,instrumental,,,,--- ---- ------ --- British ---------- ------- ----------<br>--- --------- --- ----------- ------- ----- ------- ---<br>--------- ---- -- --- ---- -- --------- -- ---- -------<br>-- --------- ------ --- ----- ------ ---- --- --------- --<br>------ - ---- -- --- ----------- ------- ---- ----- -----<br>--- -------- - ------ ---- -- ----- ---- --- --- -----------<br>-- -------,383439.5,383437.0999999996,382872.081,382877.0999999996,382888.746,383455.396,,4,British
screen,html.Screen,2_3_1_0_1_5,2022-04-27T12:48:01.173Z,,,,,,,,,,,,,,,,,2,,,,,,,,,,,,,,685.003999998502,,response,,,,1,C,,,,,,Space,keypress(Space),,,,instrumental,,,,--- ---- ------ --- ------- astronomer ------- ----------<br>--- --------- --- ----------- ------- ----- ------- ---<br>--------- ---- -- --- ---- -- --------- -- ---- -------<br>-- --------- ------ --- ----- ------ ---- --- --------- --<br>------ - ---- -- --- ----------- ------- ---- ----- -----<br>--- -------- - ------ ---- -- ----- ---- --- --- -----------<br>-- -------,384142.8999999985,384140.3999999985,383438.731,383439.69999999925,383455.396,384155.354,,5,astronomer
screen,html.Screen,2_3_1_0_1_6,2022-04-27T12:48:01.727Z,,,,,,,,,,,,,,,,,2,,,,,,,,,,,,,,539.0459999985178,,response,,,,1,C,,,,,,Space,keypress(Space),,,,instrumental,,,,--- ---- ------ --- ------- ---------- Richard ----------<br>--- --------- --- ----------- ------- ----- ------- ---<br>--------- ---- -- --- ---- -- --------- -- ---- -------<br>-- --------- ------ --- ----- ------ ---- --- --------- --<br>------ - ---- -- --- ----------- ------- ---- ----- -----<br>--- -------- - ------ ---- -- ----- ---- --- --- -----------<br>-- -------,384696.69999999925,384694.3999999985,384138.689,384143,384155.354,384705.348,,6,Richard
screen,html.Screen,2_3_1_0_1_7,2022-04-27T12:48:02.333Z,,,,,,,,,,,,,,,,,2,,,,,,,,,,,,,,594.3519999992568,,response,,,,1,C,,,,,,Space,keypress(Space),,,,instrumental,,,,--- ---- ------ --- ------- ---------- ------- Carrington<br>--- --------- --- ----------- ------- ----- ------- ---<br>--------- ---- -- --- ---- -- --------- -- ---- -------<br>-- --------- ------ --- ----- ------ ---- --- --------- --<br>------ - ---- -- --- ----------- ------- ---- ----- -----<br>--- -------- - ------ ---- -- ----- ---- --- --- -----------<br>-- -------,385302,385299.69999999925,384688.683,384697,384705.348,385305.316,,7,Carrington
screen,html.Screen,2_3_1_0_1_8,2022-04-27T12:48:02.959Z,,,,,,,,,,,,,,,,,2,,,,,,,,,,,,,,620.7839999996359,,response,,,,1,C,,,,,,Space,keypress(Space),,,,instrumental,,,,--- ---- ------ --- ------- ---------- ------- ----------<br>was --------- --- ----------- ------- ----- ------- ---<br>--------- ---- -- --- ---- -- --------- -- ---- -------<br>-- --------- ------ --- ----- ------ ---- --- --------- --<br>------ - ---- -- --- ----------- ------- ---- ----- -----<br>--- -------- - ------ ---- -- ----- ---- --- --- -----------<br>-- -------,385928.7999999989,385926.0999999996,385288.651,385302.0999999996,385305.316,385938.613,,8,was
screen,html.Screen,2_3_1_0_1_9,2022-04-27T12:48:03.508Z,,,,,,,,,,,,,,,,,2,,,,,,,,,,,,,,536.6869999988703,,response,,,,1,C,,,,,,Space,keypress(Space),,,,instrumental,,,,--- ---- ------ --- ------- ---------- ------- ----------<br>--- observing --- ----------- ------- ----- ------- ---<br>--------- ---- -- --- ---- -- --------- -- ---- -------<br>-- --------- ------ --- ----- ------ ---- --- --------- --<br>------ - ---- -- --- ----------- ------- ---- ----- -----<br>--- -------- - ------ ---- -- ----- ---- --- --- -----------<br>-- -------,386477.69999999925,386475.2999999989,385921.948,385929,385938.613,386488.599,,9,observing
screen,html.Screen,2_3_1_0_1_10,2022-04-27T12:48:04.136Z,,,,,,,,,,,,,,,,,2,,,,,,,,,,,,,,614.8009999985225,,response,,,,1,C,,,,,,Space,keypress(Space),,,,instrumental,,,,--- ---- ------ --- ------- ---------- ------- ----------<br>--- --------- the ----------- ------- ----- ------- ---<br>--------- ---- -- --- ---- -- --------- -- ---- -------<br>-- --------- ------ --- ----- ------ ---- --- --------- --<br>------ - ---- -- --- ----------- ------- ---- ----- -----<br>--- -------- - ------ ---- -- ----- ---- --- --- -----------<br>-- -------,387105.69999999925,387103.3999999985,386471.934,386477.8999999985,386488.599,387121.897,,10,the
screen,html.Screen,2_3_1_0_1_11,2022-04-27T12:48:04.820Z,,,,,,,,,,,,,,,,,2,,,,,,,,,,,,,,665.0029999985127,,response,,,,1,C,,,,,,Space,keypress(Space),,,,instrumental,,,,--- ---- ------ --- ------- ---------- ------- ----------<br>--- --------- --- interesting ------- ----- ------- ---<br>--------- ---- -- --- ---- -- --------- -- ---- -------<br>-- --------- ------ --- ----- ------ ---- --- --------- --<br>------ - ---- -- --- ----------- ------- ---- ----- -----<br>--- -------- - ------ ---- -- ----- ---- --- --- -----------<br>-- -------,387789.0999999996,387786.8999999985,387105.232,387106.19999999925,387121.897,387805.186,,11,interesting
screen,html.Screen,2_3_1_0_1_12,2022-04-27T12:48:05.548Z,,,,,,,,,,,,,,,,,2,,,,,,,,,,,,,,709.6139999988955,,response,,,,1,C,,,,,,Space,keypress(Space),,,,instrumental,,,,--- ---- ------ --- ------- ---------- ------- ----------<br>--- --------- --- ----------- sunspot ----- ------- ---<br>--------- ---- -- --- ---- -- --------- -- ---- -------<br>-- --------- ------ --- ----- ------ ---- --- --------- --<br>------ - ---- -- --- ----------- ------- ---- ----- -----<br>--- -------- - ------ ---- -- ----- ---- --- --- -----------<br>-- -------,388517.0999999996,388514.7999999989,387788.521,387789.3999999985,387805.186,388521.817,,12,sunspot
screen,html.Screen,2_3_1_0_1_13,2022-04-27T12:48:06.391Z,,,,,,,,,,,,,,,,,2,,,,,,,,,,,,,,836.582999998529,,response,,,,1,C,,,,,,Space,keypress(Space),,,,instrumental,,,,--- ---- ------ --- ------- ---------- ------- ----------<br>--- --------- --- ----------- ------- group ------- ---<br>--------- ---- -- --- ---- -- --------- -- ---- -------<br>-- --------- ------ --- ----- ------ ---- --- --------- --<br>------ - ---- -- --- ----------- ------- ---- ----- -----<br>--- -------- - ------ ---- -- ----- ---- --- --- -----------<br>-- -------,389360.8999999985,389358.3999999985,388505.152,388517.5,388521.817,389371.782,,13,group
screen,html.Screen,2_3_1_0_1_14,2022-04-27T12:48:08.055Z,,,,,,,,,,,,,,,,,2,,,,,,,,,,,,,,1649.4179999992484,,response,,,,1,C,,,,,,Space,keypress(Space),,,,instrumental,,,,--- ---- ------ --- ------- ---------- ------- ----------<br>--- --------- --- ----------- ------- ----- through ---<br>--------- ---- -- --- ---- -- --------- -- ---- -------<br>-- --------- ------ --- ----- ------ ---- --- --------- --<br>------ - ---- -- --- ----------- ------- ---- ----- -----<br>--- -------- - ------ ---- -- ----- ---- --- --- -----------<br>-- -------,391024.19999999925,391021.19999999925,389355.117,389361,389371.782,391038.316,,14,through
screen,html.Screen,2_3_1_0_1_15,2022-04-27T12:48:08.925Z,,,,,,,,,,,,,,,,,2,,,,,,,,,,,,,,853.6840000000084,,response,,,,1,C,,,,,,Space,keypress(Space),,,,instrumental,,,,--- ---- ------ --- ------- ---------- ------- ----------<br>--- --------- --- ----------- ------- ----- ------- his<br>--------- ---- -- --- ---- -- --------- -- ---- -------<br>-- --------- ------ --- ----- ------ ---- --- --------- --<br>------ - ---- -- --- ----------- ------- ---- ----- -----<br>--- -------- - ------ ---- -- ----- ---- --- --- -----------<br>-- -------,391894.19999999925,391892,391021.651,391024.3999999985,391038.316,391904.989,,15,his
screen,html.Screen,2_3_1_0_1_16,2022-04-27T12:48:09.739Z,,,,,,,,,,,,,,,,,2,,,,,,,,,,,,,,801.2109999992535,,response,,,,1,C,,,,,,Space,keypress(Space),,,,instrumental,,,,--- ---- ------ --- ------- ---------- ------- ----------<br>--- --------- --- ----------- ------- ----- ------- ---<br>telescope ---- -- --- ---- -- --------- -- ---- -------<br>-- --------- ------ --- ----- ------ ---- --- --------- --<br>------ - ---- -- --- ----------- ------- ---- ----- -----<br>--- -------- - ------ ---- -- ----- ---- --- --- -----------<br>-- -------,392708.5,392706.19999999925,391888.324,391894.3999999985,391904.989,392721.617,,16,telescope
screen,html.Screen,2_3_1_0_1_17,2022-04-27T12:48:10.264Z,,,,,,,,,,,,,,,,,2,,,,,,,,,,,,,,509.4829999996,,response,,,,1,C,,,,,,Space,keypress(Space),,,,instrumental,,,,--- ---- ------ --- ------- ---------- ------- ----------<br>--- --------- --- ----------- ------- ----- ------- ---<br>--------- when -- --- ---- -- --------- -- ---- -------<br>-- --------- ------ --- ----- ------ ---- --- --------- --<br>------ - ---- -- --- ----------- ------- ---- ----- -----<br>--- -------- - ------ ---- -- ----- ---- --- --- -----------<br>-- -------,393233.5,393231.0999999996,392704.952,392708.69999999925,392721.617,393238.291,,17,when
screen,html.Screen,2_3_1_0_1_18,2022-04-27T12:48:10.850Z,,,,,,,,,,,,,,,,,2,,,,,,,,,,,,,,579.0089999988559,,response,,,,1,C,,,,,,Space,keypress(Space),,,,instrumental,,,,--- ---- ------ --- ------- ---------- ------- ----------<br>--- --------- --- ----------- ------- ----- ------- ---<br>--------- ---- he --- ---- -- --------- -- ---- -------<br>-- --------- ------ --- ----- ------ ---- --- --------- --<br>------ - ---- -- --- ----------- ------- ---- ----- -----<br>--- -------- - ------ ---- -- ----- ---- --- --- -----------<br>-- -------,393819.5,393817.2999999989,393221.626,393233.69999999925,393238.291,393821.583,,18,he
screen,html.Screen,2_3_1_0_1_19,2022-04-27T12:48:11.502Z,,,,,,,,,,,,,,,,,2,,,,,,,,,,,,,,647.7169999988982,,response,,,,1,C,,,,,,Space,keypress(Space),,,,instrumental,,,,--- ---- ------ --- ------- ---------- ------- ----------<br>--- --------- --- ----------- ------- ----- ------- ---<br>--------- ---- -- saw ---- -- --------- -- ---- -------<br>-- --------- ------ --- ----- ------ ---- --- --------- --<br>------ - ---- -- --- ----------- ------- ---- ----- -----<br>--- -------- - ------ ---- -- ----- ---- --- --- -----------<br>-- -------,394471.3999999985,394469.2999999989,393804.918,393819.69999999925,393821.583,394488.22,,19,saw
screen,html.Screen,2_3_1_0_1_20,2022-04-27T12:48:12.153Z,,,,,,,,,,,,,,,,,2,,,,,,,,,,,,,,631.9799999992829,,response,,,,1,C,,,,,,Space,keypress(Space),,,,instrumental,,,,--- ---- ------ --- ------- ---------- ------- ----------<br>--- --------- --- ----------- ------- ----- ------- ---<br>--------- ---- -- --- what -- --------- -- ---- -------<br>-- --------- ------ --- ----- ------ ---- --- --------- --<br>------ - ---- -- --- ----------- ------- ---- ----- -----<br>--- -------- - ------ ---- -- ----- ---- --- --- -----------<br>-- -------,395122.3999999985,395120.19999999925,394471.555,394471.5999999996,394488.22,395138.192,,20,what
screen,html.Screen,2_3_1_0_1_21,2022-04-27T12:48:12.704Z,,,,,,,,,,,,,,,,,2,,,,,,,,,,,,,,532.8080000000191,,response,,,,1,C,,,,,,Space,keypress(Space),,,,instrumental,,,,--- ---- ------ --- ------- ---------- ------- ----------<br>--- --------- --- ----------- ------- ----- ------- ---<br>--------- ---- -- --- ---- he --------- -- ---- -------<br>-- --------- ------ --- ----- ------ ---- --- --------- --<br>------ - ---- -- --- ----------- ------- ---- ----- -----<br>--- -------- - ------ ---- -- ----- ---- --- --- -----------<br>-- -------,395673.2999999989,395671,395121.527,395122.5,395138.192,395688.162,,21,he
screen,html.Screen,2_3_1_0_1_22,2022-04-27T12:48:13.383Z,,,,,,,,,,,,,,,,,2,,,,,,,,,,,,,,661.1379999988712,,response,,,,1,C,,,,,,Space,keypress(Space),,,,instrumental,,,,--- ---- ------ --- ------- ---------- ------- ----------<br>--- --------- --- ----------- ------- ----- ------- ---<br>--------- ---- -- --- ---- -- described -- ---- -------<br>-- --------- ------ --- ----- ------ ---- --- --------- --<br>------ - ---- -- --- ----------- ------- ---- ----- -----<br>--- -------- - ------ ---- -- ----- ---- --- --- -----------<br>-- -------,396352.0999999996,396349.2999999989,395671.497,395673.5,395688.162,396354.797,,22,described
screen,html.Screen,2_3_1_0_1_23,2022-04-27T12:48:13.926Z,,,,,,,,,,,,,,,,,2,,,,,,,,,,,,,,538.0029999988619,,response,,,,1,C,,,,,,Space,keypress(Space),,,,instrumental,,,,--- ---- ------ --- ------- ---------- ------- ----------<br>--- --------- --- ----------- ------- ----- ------- ---<br>--------- ---- -- --- ---- -- --------- as ---- -------<br>-- --------- ------ --- ----- ------ ---- --- --------- --<br>------ - ---- -- --- ----------- ------- ---- ----- -----<br>--- -------- - ------ ---- -- ----- ---- --- --- -----------<br>-- -------,396895.0999999996,396892.7999999989,396338.132,396352.3999999985,396354.797,396904.781,,23,as
screen,html.Screen,2_3_1_0_1_24,2022-04-27T12:48:14.403Z,,,,,,,,,,,,,,,,,2,,,,,,,,,,,,,,465.5189999988652,,response,,,,1,C,,,,,,Space,keypress(Space),,,,instrumental,,,,"--- ---- ------ --- ------- ---------- ------- ----------<br>--- --------- --- ----------- ------- ----- ------- ---<br>--------- ---- -- --- ---- -- --------- -- ""two -------<br>-- --------- ------ --- ----- ------ ---- --- --------- --<br>------ - ---- -- --- ----------- ------- ---- ----- -----<br>--- -------- - ------ ---- -- ----- ---- --- --- -----------<br>-- -------",397372.2999999989,397370.2999999989,396888.116,396895.3999999985,396904.781,397388.087,,24,"""two"
screen,html.Screen,2_3_1_0_1_25,2022-04-27T12:48:14.900Z,,,,,,,,,,,,,,,,,2,,,,,,,,,,,,,,478.6129999992554,,response,,,,1,C,,,,,,Space,keypress(Space),,,,instrumental,,,,--- ---- ------ --- ------- ---------- ------- ----------<br>--- --------- --- ----------- ------- ----- ------- ---<br>--------- ---- -- --- ---- -- --------- -- ---- patches<br>-- --------- ------ --- ----- ------ ---- --- --------- --<br>------ - ---- -- --- ----------- ------- ---- ----- -----<br>--- -------- - ------ ---- -- ----- ---- --- --- -----------<br>-- -------,397869.19999999925,397866.69999999925,397371.422,397372.5999999996,397388.087,397871.414,,25,patches
screen,html.Screen,2_3_1_0_1_26,2022-04-27T12:48:15.383Z,,,,,,,,,,,,,,,,,2,,,,,,,,,,,,,,479.48599999852013,,response,,,,1,C,,,,,,Space,keypress(Space),,,,instrumental,,,,--- ---- ------ --- ------- ---------- ------- ----------<br>--- --------- --- ----------- ------- ----- ------- ---<br>--------- ---- -- --- ---- -- --------- -- ---- -------<br>of --------- ------ --- ----- ------ ---- --- --------- --<br>------ - ---- -- --- ----------- ------- ---- ----- -----<br>--- -------- - ------ ---- -- ----- ---- --- --- -----------<br>-- -------,398352.8999999985,398350.8999999985,397854.749,397869.2999999989,397871.414,398354.721,,26,of
screen,html.Screen,2_3_1_0_1_27,2022-04-27T12:48:16.004Z,,,,,,,,,,,,,,,,,2,,,,,,,,,,,,,,616.0789999988629,,response,,,,1,C,,,,,,Space,keypress(Space),,,,instrumental,,,,--- ---- ------ --- ------- ---------- ------- ----------<br>--- --------- --- ----------- ------- ----- ------- ---<br>--------- ---- -- --- ---- -- --------- -- ---- -------<br>-- intensely ------ --- ----- ------ ---- --- --------- --<br>------ - ---- -- --- ----------- ------- ---- ----- -----<br>--- -------- - ------ ---- -- ----- ---- --- --- -----------<br>-- -------,398973,398970.7999999989,398338.056,398353.0999999996,398354.721,398988.016,,27,intensely
screen,html.Screen,2_3_1_0_1_28,2022-04-27T12:48:16.530Z,,,,,,,,,,,,,,,,,2,,,,,,,,,,,,,,508.78399999887915,,response,,,,1,C,,,,,,Space,keypress(Space),,,,instrumental,,,,--- ---- ------ --- ------- ---------- ------- ----------<br>--- --------- --- ----------- ------- ----- ------- ---<br>--------- ---- -- --- ---- -- --------- -- ---- -------<br>-- --------- bright --- ----- ------ ---- --- --------- --<br>------ - ---- -- --- ----------- ------- ---- ----- -----<br>--- -------- - ------ ---- -- ----- ---- --- --- -----------<br>-- -------,399498.8999999985,399496.7999999989,398971.351,398973.19999999925,398988.016,399504.651,,28,bright
screen,html.Screen,2_3_1_0_1_29,2022-04-27T12:48:17.066Z,,,,,,,,,,,,,,,,,2,,,,,,,,,,,,,,528.9489999996149,,response,,,,1,C,,,,,,Space,keypress(Space),,,,instrumental,,,,--- ---- ------ --- ------- ---------- ------- ----------<br>--- --------- --- ----------- ------- ----- ------- ---<br>--------- ---- -- --- ---- -- --------- -- ---- -------<br>-- --------- ------ and ----- ------ ---- --- --------- --<br>------ - ---- -- --- ----------- ------- ---- ----- -----<br>--- -------- - ------ ---- -- ----- ---- --- --- -----------<br>-- -------,400035.8999999985,400033.5999999996,399487.986,399499.0999999996,399504.651,400054.63,,29,and
screen,html.Screen,2_3_1_0_1_30,2022-04-27T12:48:17.556Z,,,,,,,,,,,,,,,,,2,,,,,,,,,,,,,,468.0699999992503,,response,,,,1,C,,,,,,Space,keypress(Space),,,,instrumental,,,,--- ---- ------ --- ------- ---------- ------- ----------<br>--- --------- --- ----------- ------- ----- ------- ---<br>--------- ---- -- --- ---- -- --------- -- ---- -------<br>-- --------- ------ --- white ------ ---- --- --------- --<br>------ - ---- -- --- ----------- ------- ---- ----- -----<br>--- -------- - ------ ---- -- ----- ---- --- --- -----------<br>-- -------,400525,400522.69999999925,400037.965,400036.2999999989,400054.63,400537.942,,30,white
screen,html.Screen,2_3_1_0_1_31,2022-04-27T12:48:18.093Z,,,,,,,,,,,,,,,,,2,,,,,,,,,,,,,,521.757999999274,,response,,,,1,C,,,,,,Space,keypress(Space),,,,instrumental,,,,"--- ---- ------ --- ------- ---------- ------- ----------<br>--- --------- --- ----------- ------- ----- ------- ---<br>--------- ---- -- --- ---- -- --------- -- ---- -------<br>-- --------- ------ --- ----- light"" ---- --- --------- --<br>------ - ---- -- --- ----------- ------- ---- ----- -----<br>--- -------- - ------ ---- -- ----- ---- --- --- -----------<br>-- -------",401062.5,401059.69999999925,400521.277,400525.2999999989,400537.942,401071.261,,31,"light"""
screen,html.Screen,2_3_1_0_1_32,2022-04-27T12:48:18.659Z,,,,,,,,,,,,,,,,,2,,,,,,,,,,,,,,555.0389999988838,,response,,,,1,C,,,,,,Space,keypress(Space),,,,instrumental,,,,--- ---- ------ --- ------- ---------- ------- ----------<br>--- --------- --- ----------- ------- ----- ------- ---<br>--------- ---- -- --- ---- -- --------- -- ---- -------<br>-- --------- ------ --- ----- ------ over --- --------- --<br>------ - ---- -- --- ----------- ------- ---- ----- -----<br>--- -------- - ------ ---- -- ----- ---- --- --- -----------<br>-- -------,401628.8999999985,401626.2999999989,401054.596,401062.69999999925,401071.261,401637.897,,32,over
screen,html.Screen,2_3_1_0_1_33,2022-04-27T12:48:19.154Z,,,,,,,,,,,,,,,,,2,,,,,,,,,,,,,,483.4029999988852,,response,,,,1,C,,,,,,Space,keypress(Space),,,,instrumental,,,,--- ---- ------ --- ------- ---------- ------- ----------<br>--- --------- --- ----------- ------- ----- ------- ---<br>--------- ---- -- --- ---- -- --------- -- ---- -------<br>-- --------- ------ --- ----- ------ ---- the --------- --<br>------ - ---- -- --- ----------- ------- ---- ----- -----<br>--- -------- - ------ ---- -- ----- ---- --- --- -----------<br>-- -------,402123.5999999996,402121.2999999989,401621.232,401629.0999999996,401637.897,402137.866,,33,the
screen,html.Screen,2_3_1_0_1_34,2022-04-27T12:48:19.687Z,,,,,,,,,,,,,,,,,2,,,,,,,,,,,,,,515.9339999989024,,response,,,,1,C,,,,,,Space,keypress(Space),,,,instrumental,,,,--- ---- ------ --- ------- ---------- ------- ----------<br>--- --------- --- ----------- ------- ----- ------- ---<br>--------- ---- -- --- ---- -- --------- -- ---- -------<br>-- --------- ------ --- ----- ------ ---- --- sunspots. --<br>------ - ---- -- --- ----------- ------- ---- ----- -----<br>--- -------- - ------ ---- -- ----- ---- --- --- -----------<br>-- -------,402656.0999999996,402653.7999999989,402121.201,402123.69999999925,402137.866,402671.172,,34,sunspots.
screen,html.Screen,2_3_1_0_1_35,2022-04-27T12:48:20.249Z,,,,,,,,,,,,,,,,,2,,,,,,,,,,,,,,544.8279999999795,,response,,,,1,C,,,,,,Space,keypress(Space),,,,instrumental,,,,--- ---- ------ --- ------- ---------- ------- ----------<br>--- --------- --- ----------- ------- ----- ------- ---<br>--------- ---- -- --- ---- -- --------- -- ---- -------<br>-- --------- ------ --- ----- ------ ---- --- --------- He<br>------ - ---- -- --- ----------- ------- ---- ----- -----<br>--- -------- - ------ ---- -- ----- ---- --- --- -----------<br>-- -------,403218.5,403216,402654.507,402656.2999999989,402671.172,403221.156,,35,He
screen,html.Screen,2_3_1_0_1_36,2022-04-27T12:48:20.774Z,,,,,,,,,,,,,,,,,2,,,,,,,,,,,,,,520.0439999992377,,response,,,,1,C,,,,,,Space,keypress(Space),,,,instrumental,,,,--- ---- ------ --- ------- ---------- ------- ----------<br>--- --------- --- ----------- ------- ----- ------- ---<br>--------- ---- -- --- ---- -- --------- -- ---- -------<br>-- --------- ------ --- ----- ------ ---- --- --------- --<br>jotted - ---- -- --- ----------- ------- ---- ----- -----<br>--- -------- - ------ ---- -- ----- ---- --- --- -----------<br>-- -------,403743.3999999985,403741.19999999925,403204.491,403218.5999999996,403221.156,403754.465,,36,jotted
screen,html.Screen,2_3_1_0_1_37,2022-04-27T12:48:21.230Z,,,,,,,,,,,,,,,,,2,,,,,,,,,,,,,,442.73499999922933,,response,,,,1,C,,,,,,Space,keypress(Space),,,,instrumental,,,,--- ---- ------ --- ------- ---------- ------- ----------<br>--- --------- --- ----------- ------- ----- ------- ---<br>--------- ---- -- --- ---- -- --------- -- ---- -------<br>-- --------- ------ --- ----- ------ ---- --- --------- --<br>------ a ---- -- --- ----------- ------- ---- ----- -----<br>--- -------- - ------ ---- -- ----- ---- --- --- -----------<br>-- -------,404199.7999999989,404197.19999999925,403737.8,403743.5999999996,403754.465,404204.444,,37,a
