sender,sender_type,sender_id,timestamp,meta,,Blues,Classical,Country,Dance,Electronic,Folk,Gospel,Hip-Hop,Jazz,Latin,Musical/Film,New-age,Pop,Prolific_id,Provo_ID,R&B,Rap,Reggae,Religious,Rock,Soul,Swing,Traditional,age,artist_name,correct,correctResponse,distraction,duration,education,ended_on,familiarity,gender,headphone_check_performance,item,list,music_frequency,offensiveness,pleasantness,position_correct,preference,response,response_action,snippet_file,song_name,song_rating,sound,stimulus_1,stimulus_2,stimulus_3,text,time_commit,time_end,time_render,time_run,time_show,time_switch,url,word,word_ID
Prolific ID,html.Form,0,2022-05-12T17:01:44.514Z,"{""labjs_version"":""20.2.2"",""labjs_build"":{""flavor"":""production"",""commit"":""a25486e0c714a0ae2ce03ff94b7bb6896854dcfa""},""location"":""https://run.pavlovia.org/mvasilev/prolific3_music_g/"",""userAgent"":""Mozilla/5.0 (Windows NT 10.0; Win64; x64) AppleWebKit/537.36 (KHTML, like Gecko) Chrome/99.0.4844.84 Safari/537.36 OPR/85.0.4341.79"",""platform"":""Win32"",""language"":""en-US"",""locale"":""en-US"",""timeZone"":""Europe/London"",""timezoneOffset"":-60,""screen_width"":1920,""screen_height"":1080,""scroll_width"":2818,""scroll_height"":1417,""window_innerWidth"":2818,""window_innerHeight"":1465,""devicePixelRatio"":0.6666666865348816}",,,,,,,,,,,,,,,5c6410d4bcec6a00019fe6b7,,,,,,,,,,,,,,,73826.063,,form submission,,,,,,,,,,,,,,,,,,,,,79410.80000001192,79410.5,5563.613,5567.5,5584.437,79416.265,{},,
Introduction,html.Screen,1_0,2022-05-12T17:01:57.050Z,,,,,,,,,,,,,,,,,,,,,,,,,,,,,,,12528.935000017882,,response,,,,,,,,,,,continue,click button,,,,,,,,,91947,91945.20000001788,79409.3,79411.09999999404,79416.265,91950.749,,,
Volume calibration,html.Screen,1_1,2022-05-12T17:02:31.747Z,,,,,,,,,,,,,,,,,,,,,,,,,,,,,,,34690.451000017885,,response,,,,,,,,,,,continue,click button,,,,,,,,,126643.59999999404,126641.20000001788,91943.76,91947.09999999404,91950.749,126644.469,,,
Task instructions,html.Screen,1_2,2022-05-12T17:02:38.137Z,,,,,,,,,,,,,,,,,,,,,,,,,,,,,,,6388.630999994042,,response,,,,,,,,,,,continue,click button,,,,,,,,,133033.70000001788,133033.09999999404,126637.491,126643.70000001788,126644.469,133040.141,,,
Sounds,html.Screen,1_3_0_0,2022-05-12T17:02:42.388Z,,,,,,,,,,,,,,,,,,,,,,,,,,,,,,,4249.915999999997,,timeout,,,,,,,,,1,,,,,,,,S,O,I,,137284.70000001788,137283.152,133033.224,133033.90000000596,133040.141,137290.057,,,
Judgement,html.Screen,1_3_0_1,2022-05-12T17:02:44.153Z,,,,,,,,,,,,,,,,,,,,,,,,,,,,true,1,,1759.0429999940388,,response,,,,,,,,,1,,1,click #choice-1,,,,,S,O,I,,139050,139049.09999999404,137283.152,137284.90000000596,137290.057,139053.897,,,
Trial,flow.Sequence,1_3_0,2022-05-12T17:02:44.153Z,,,,,,,,,,,,,,,,,,,,,,,,,,,,,,,6008.958999994036,,completion,,,,,,,,,1,,,,,,,,S,O,I,,139050.20000001788,139049.09999999404,133033.224,133033.90000000596,133040.141,139053.897,,,
Sounds,html.Screen,1_3_1_0,2022-05-12T17:02:48.401Z,,,,,,,,,,,,,,,,,,,,,,,,,,,,,,,4249.959000000003,,timeout,,,,,,,,,2,,,,,,,,I,S,O,,143297.5,143296.913,139046.985,139050.30000001192,139053.897,143303.856,,,
Judgement,html.Screen,1_3_1_1,2022-05-12T17:02:49.321Z,,,,,,,,,,,,,,,,,,,,,,,,,,,,true,2,,913.2439999940398,,response,,,,,,,,,2,,2,click #choice-2,,,,,I,S,O,,144217.70000001788,144217.09999999404,143296.913,143297.59999999404,143303.856,144220.49,,,
Trial,flow.Sequence,1_3_1,2022-05-12T17:02:49.321Z,,,,,,,,,,,,,,,,,,,,,,,,,,,,,,,5163.202999994042,,completion,,,,,,,,,2,,,,,,,,I,S,O,,144217.90000000596,144217.09999999404,139046.985,139050.30000001192,139053.897,144220.49,,,
Sounds,html.Screen,1_3_2_0,2022-05-12T17:02:53.567Z,,,,,,,,,,,,,,,,,,,,,,,,,,,,,,,4249.88400000002,,timeout,,,,,,,,,2,,,,,,,,O,S,I,,148463.80000001192,148463.441,144213.532,144218,144220.49,148470.374,,,
Judgement,html.Screen,1_3_2_1,2022-05-12T17:02:54.057Z,,,,,,,,,,,,,,,,,,,,,,,,,,,,true,2,,482.6259999999893,,response,,,,,,,,,2,,2,click #choice-2,,,,,O,S,I,,148953.70000001788,148953,148463.441,148463.90000000596,148470.374,148956.52,,,
Trial,flow.Sequence,1_3_2,2022-05-12T17:02:54.057Z,,,,,,,,,,,,,,,,,,,,,,,,,,,,,,,4732.510000000009,,completion,,,,,,,,,2,,,,,,,,O,S,I,,148953.90000000596,148953,144213.532,144218,144220.49,148956.52,,,
Sounds,html.Screen,1_3_3_0,2022-05-12T17:02:58.303Z,,,,,,,,,,,,,,,,,,,,,,,,,,,,,,,4249.887000000017,,timeout,,,,,,,,,3,,,,,,,,I,O,S,,153199.90000000596,153199.47,148949.574,148954,148956.52,153206.407,,,
Judgement,html.Screen,1_3_3_1,2022-05-12T17:02:59.001Z,,,,,,,,,,,,,,,,,,,,,,,,,,,,true,3,,690.692999994033,,response,,,,,,,,,3,,3,click #choice-3,,,,,I,O,S,,153897.80000001192,153897.09999999404,153199.47,153200,153206.407,153900.851,,,
Trial,flow.Sequence,1_3_3,2022-05-12T17:02:59.001Z,,,,,,,,,,,,,,,,,,,,,,,,,,,,,,,4940.57999999405,,completion,,,,,,,,,3,,,,,,,,I,O,S,,153897.90000000596,153897.09999999404,148949.574,148953.90000000596,148956.52,153900.851,,,
Sounds,html.Screen,1_3_4_0,2022-05-12T17:03:03.247Z,,,,,,,,,,,,,,,,,,,,,,,,,,,,,,,4249.936000000016,,timeout,,,,,,,,,3,,,,,,,,O,I,S,,158144.20000001788,158143.821,153893.901,153898,153900.851,158150.787,,,
Judgement,html.Screen,1_3_4_1,2022-05-12T17:03:03.897Z,,,,,,,,,,,,,,,,,,,,,,,,,,,,true,3,,642.4130000178702,,response,,,,,,,,,3,,3,click #choice-3,,,,,O,I,S,,158794.20000001788,158793.20000001788,158143.821,158144.30000001192,158150.787,158796.582,,,
Trial,flow.Sequence,1_3_4,2022-05-12T17:03:03.897Z,,,,,,,,,,,,,,,,,,,,,,,,,,,,,,,4892.349000017886,,completion,,,,,,,,,3,,,,,,,,O,I,S,,158794.40000000596,158793.20000001788,153893.901,153898,153900.851,158796.582,,,
Sounds,html.Screen,1_3_5_0,2022-05-12T17:03:08.143Z,,,,,,,,,,,,,,,,,,,,,,,,,,,,,,,4249.887000000017,,timeout,,,,,,,,,1,,,,,,,,S,I,O,,163039.90000000596,163039.541,158789.664,158794.5,158796.582,163046.469,,,
Judgement,html.Screen,1_3_5_1,2022-05-12T17:03:08.585Z,,,,,,,,,,,,,,,,,,,,,,,,,,,,true,1,,434.9310000059486,,response,,,,,,,,,1,,1,click #choice-1,,,,,S,I,O,,163482.40000000596,163481.40000000596,163039.541,163040,163046.469,163483.986,,,
Trial,flow.Sequence,1_3_5,2022-05-12T17:03:08.586Z,,,,,,,,,,,,,,,,,,,,,,,,,,,,,,,4684.818000005966,,completion,,,,,,,,,1,,,,,,,,S,I,O,,163482.5,163481.40000000596,158789.664,158794.5,158796.582,163483.986,,,
Task,flow.Loop,1_3,2022-05-12T17:03:08.589Z,,,,,,,,,,,,,,,,,,,,,,,,,,,,,,,30441.259000005957,,completion,,,1,,,,,,,,,,,,,,,,,,163486,163481.40000000596,133033.224,133033.90000000596,133040.141,163483.986,,,
Trap,html.Screen,1_4,2022-05-12T17:03:08.590Z,,,,,,,,,,,,,,,,,,,,,,,,,,,,,,,NaN,,skipped,,,,,,,,,,,,,,,,,,,,,163487,163481.40000000596,,163486.80000001192,,163483.986,,,
Thanks,html.Screen,1_5,2022-05-12T17:03:13.017Z,,,,,,,,,,,,,,,,,,,,,,,,,,,,,,,4429.214000017877,,response,,,,,,,,,,,continue,click button,,,,,,,,,167914.09999999404,167913.20000001788,163477.023,163487,163483.986,170720.01,,,
Headphone screening,flow.Sequence,1,2022-05-12T17:03:13.017Z,,,,,,,,,,,,,,,,,,,,,,,,,,,,,,,88496.93500001788,,completion,,,,,,,,,,,,,,,,,,,,,167914.09999999404,167913.20000001788,79409.3,79411.09999999404,79416.265,170720.01,,,
Instructions,html.Page,2_0,2022-05-12T17:03:37.593Z,,,,,,,,,,,,,,,,,,,,,,,,,,,,,,,21769.690000017872,,form submission,,,,,,,,,,,,,,,,,,,,,192490,192489.70000001788,170713.027,170724.09999999404,170720.01,192490.344,,,
Holding screen,html.Screen,2_1_0_0,2022-05-12T17:03:47.587Z,,,,,,,,,,,,,,,,,,,,,,,,,,,,,,,10006.718999999983,,timeout,,,,,,,,,,,,,,,,,,,,,202483.80000001192,202483.203,192483.363,192490.09999999404,192490.344,202497.063,,,
screen,html.Screen,2_1_0_1_0,2022-05-12T17:03:48.639Z,,,,,,,,,,,,,,,,,53,,,,,,,,,,,,,,1036.3370000059658,,response,,,,99,,,,,,,Space,keypress(Space),,,,,,,,When -- ----- -- ------ - ------- --- ----------<br>------------- ------ ------ ---- ---- ------- ----- -- ----<br>-------- ------- -- ---------- --- - --- ----- ----- ----<br>---- --- --- ----- --- ---- ---- ------- ----- ---- -------<br>--- --- -- ----- -- --- ---- -- --- ---- -- ------ ------<br>--- ----- -- ----,203535.09999999404,203533.40000000596,202483.203,202484,202497.063,203538.739,,0,When
screen,html.Screen,2_1_0_1_1,2022-05-12T17:03:50.021Z,,,,,,,,,,,,,,,,,53,,,,,,,,,,,,,,1378.161000005959,,response,,,,99,,,,,,,Space,keypress(Space),,,,,,,,---- it ----- -- ------ - ------- --- ----------<br>------------- ------ ------ ---- ---- ------- ----- -- ----<br>-------- ------- -- ---------- --- - --- ----- ----- ----<br>---- --- --- ----- --- ---- ---- ------- ----- ---- -------<br>--- --- -- ----- -- --- ---- -- --- ---- -- ------ ------<br>--- ----- -- ----,204917.40000000596,204916.90000000596,203531.85,203535.20000001788,203538.739,204920.65,,1,it
screen,html.Screen,2_1_0_1_2,2022-05-12T17:03:51.413Z,,,,,,,,,,,,,,,,,53,,,,,,,,,,,,,,1388.2500000059663,,response,,,,99,,,,,,,Space,keypress(Space),,,,,,,,---- -- comes -- ------ - ------- --- ----------<br>------------- ------ ------ ---- ---- ------- ----- -- ----<br>-------- ------- -- ---------- --- - --- ----- ----- ----<br>---- --- --- ----- --- ---- ---- ------- ----- ---- -------<br>--- --- -- ----- -- --- ---- -- --- ---- -- ------ ------<br>--- ----- -- ----,206309.40000000596,206308.90000000596,204913.673,204917.5,204920.65,206316.429,,2,comes
screen,html.Screen,2_1_0_1_3,2022-05-12T17:03:52.629Z,,,,,,,,,,,,,,,,,53,,,,,,,,,,,,,,1208.6709999940358,,response,,,,99,,,,,,,Space,keypress(Space),,,,,,,,---- -- ----- to ------ - ------- --- ----------<br>------------- ------ ------ ---- ---- ------- ----- -- ----<br>-------- ------- -- ---------- --- - --- ----- ----- ----<br>---- --- --- ----- --- ---- ---- ------- ----- ---- -------<br>--- --- -- ----- -- --- ---- -- --- ---- -- ------ ------<br>--- ----- -- ----,207525.40000000596,207525.09999999404,206309.515,206309.5,206316.429,207531.679,,3,to
screen,html.Screen,2_1_0_1_4,2022-05-12T17:03:53.798Z,,,,,,,,,,,,,,,,,53,,,,,,,,,,,,,,1161.6210000119172,,response,,,,99,,,,,,,Space,keypress(Space),,,,,,,,---- -- ----- -- having - ------- --- ----------<br>------------- ------ ------ ---- ---- ------- ----- -- ----<br>-------- ------- -- ---------- --- - --- ----- ----- ----<br>---- --- --- ----- --- ---- ---- ------- ----- ---- -------<br>--- --- -- ----- -- --- ---- -- --- ---- -- ------ ------<br>--- ----- -- ----,208693.90000000596,208693.30000001192,207524.745,207525.5,207531.679,208698.341,,4,having
screen,html.Screen,2_1_0_1_5,2022-05-12T17:03:54.645Z,,,,,,,,,,,,,,,,,53,,,,,,,,,,,,,,842.6590000000142,,response,,,,99,,,,,,,Space,keypress(Space),,,,,,,,---- -- ----- -- ------ a ------- --- ----------<br>------------- ------ ------ ---- ---- ------- ----- -- ----<br>-------- ------- -- ---------- --- - --- ----- ----- ----<br>---- --- --- ----- --- ---- ---- ------- ----- ---- -------<br>--- --- -- ----- -- --- ---- -- --- ---- -- ------ ------<br>--- ----- -- ----,209541.30000001192,209541,208691.444,208693.90000000596,208698.341,209545.521,,5,a
screen,html.Screen,2_1_0_1_6,2022-05-12T17:03:55.781Z,,,,,,,,,,,,,,,,,53,,,,,,,,,,,,,,1131.3790000059525,,response,,,,99,,,,,,,Space,keypress(Space),,,,,,,,---- -- ----- -- ------ - lasting --- ----------<br>------------- ------ ------ ---- ---- ------- ----- -- ----<br>-------- ------- -- ---------- --- - --- ----- ----- ----<br>---- --- --- ----- --- ---- ---- ------- ----- ---- -------<br>--- --- -- ----- -- --- ---- -- --- ---- -- ------ ------<br>--- ----- -- ----,210677.40000000596,210676.90000000596,209538.59,209541.5,209545.521,210684.391,,6,lasting
screen,html.Screen,2_1_0_1_7,2022-05-12T17:03:56.733Z,,,,,,,,,,,,,,,,,53,,,,,,,,,,,,,,944.8090000178781,,response,,,,99,,,,,,,Space,keypress(Space),,,,,,,,---- -- ----- -- ------ - ------- and ----------<br>------------- ------ ------ ---- ---- ------- ----- -- ----<br>-------- ------- -- ---------- --- - --- ----- ----- ----<br>---- --- --- ----- --- ---- ---- ------- ----- ---- -------<br>--- --- -- ----- -- --- ---- -- --- ---- -- ------ ------<br>--- ----- -- ----,211629.90000000596,211629.20000001788,210677.489,210677.59999999404,210684.391,211635.764,,7,and
screen,html.Screen,2_1_0_1_8,2022-05-12T17:03:57.525Z,,,,,,,,,,,,,,,,,53,,,,,,,,,,,,,,785.2360000000044,,response,,,,99,,,,,,,Space,keypress(Space),,,,,,,,---- -- ----- -- ------ - ------- --- fulfilling<br>------------- ------ ------ ---- ---- ------- ----- -- ----<br>-------- ------- -- ---------- --- - --- ----- ----- ----<br>---- --- --- ----- --- ---- ---- ------- ----- ---- -------<br>--- --- -- ----- -- --- ---- -- --- ---- -- ------ ------<br>--- ----- -- ----,212421.5,212421,211628.833,211630,211635.764,212427.406,,8,fulfilling
screen,html.Screen,2_1_0_1_9,2022-05-12T17:03:58.726Z,,,,,,,,,,,,,,,,,53,,,,,,,,,,,,,,1194.2940000178933,,response,,,,99,,,,,,,Space,keypress(Space),,,,,,,,"---- -- ----- -- ------ - ------- --- ----------<br>relationship, ------ ------ ---- ---- ------- ----- -- ----<br>-------- ------- -- ---------- --- - --- ----- ----- ----<br>---- --- --- ----- --- ---- ---- ------- ----- ---- -------<br>--- --- -- ----- -- --- ---- -- --- ---- -- ------ ------<br>--- ----- -- ----",213622.20000001788,213621.70000001788,212420.484,212421.5,212427.406,213628.793,,9,"relationship,"
screen,html.Screen,2_1_0_1_10,2022-05-12T17:03:59.653Z,,,,,,,,,,,,,,,,,53,,,,,,,,,,,,,,920.3069999940344,,response,,,,99,,,,,,,Space,keypress(Space),,,,,,,,---- -- ----- -- ------ - ------- --- ----------<br>------------- common ------ ---- ---- ------- ----- -- ----<br>-------- ------- -- ---------- --- - --- ----- ----- ----<br>---- --- --- ----- --- ---- ---- ------- ----- ---- -------<br>--- --- -- ----- -- --- ---- -- --- ---- -- ------ ------<br>--- ----- -- ----,214549.70000001788,214549.09999999404,213621.833,213622.30000001192,213628.793,214552.397,,10,common
screen,html.Screen,2_1_0_1_11,2022-05-12T17:04:00.501Z,,,,,,,,,,,,,,,,,53,,,,,,,,,,,,,,844.6030000000028,,response,,,,99,,,,,,,Space,keypress(Space),,,,,,,,---- -- ----- -- ------ - ------- --- ----------<br>------------- ------ wisdom ---- ---- ------- ----- -- ----<br>-------- ------- -- ---------- --- - --- ----- ----- ----<br>---- --- --- ----- --- ---- ---- ------- ----- ---- -------<br>--- --- -- ----- -- --- ---- -- --- ---- -- ------ ------<br>--- ----- -- ----,215397.40000000596,215397,214545.455,214549.80000001192,214552.397,215399.595,,11,wisdom
screen,html.Screen,2_1_0_1_12,2022-05-12T17:04:01.205Z,,,,,,,,,,,,,,,,,53,,,,,,,,,,,,,,701.8050000059593,,response,,,,99,,,,,,,Space,keypress(Space),,,,,,,,---- -- ----- -- ------ - ------- --- ----------<br>------------- ------ ------ says ---- ------- ----- -- ----<br>-------- ------- -- ---------- --- - --- ----- ----- ----<br>---- --- --- ----- --- ---- ---- ------- ----- ---- -------<br>--- --- -- ----- -- --- ---- -- --- ---- -- ------ ------<br>--- ----- -- ----,216101.80000001192,216101.40000000596,215392.636,215397.5,215399.595,216107.903,,12,says
screen,html.Screen,2_1_0_1_13,2022-05-12T17:04:02.189Z,,,,,,,,,,,,,,,,,53,,,,,,,,,,,,,,977.1969999940484,,response,,,,99,,,,,,,Space,keypress(Space),,,,,,,,---- -- ----- -- ------ - ------- --- ----------<br>------------- ------ ------ ---- that ------- ----- -- ----<br>-------- ------- -- ---------- --- - --- ----- ----- ----<br>---- --- --- ----- --- ---- ---- ------- ----- ---- -------<br>--- --- -- ----- -- --- ---- -- --- ---- -- ------ ------<br>--- ----- -- ----,217085.5,217085.09999999404,216101.015,216101.90000000596,216107.903,217087.08,,13,that
screen,html.Screen,2_1_0_1_14,2022-05-12T17:04:02.973Z,,,,,,,,,,,,,,,,,53,,,,,,,,,,,,,,782.1200000178942,,response,,,,99,,,,,,,Space,keypress(Space),,,,,,,,---- -- ----- -- ------ - ------- --- ----------<br>------------- ------ ------ ---- ---- feeling ----- -- ----<br>-------- ------- -- ---------- --- - --- ----- ----- ----<br>---- --- --- ----- --- ---- ---- ------- ----- ---- -------<br>--- --- -- ----- -- --- ---- -- --- ---- -- ------ ------<br>--- ----- -- ----,217869.59999999404,217869.20000001788,217080.158,217085.5,217087.08,217871.776,,14,feeling
screen,html.Screen,2_1_0_1_15,2022-05-12T17:04:03.781Z,,,,,,,,,,,,,,,,,53,,,,,,,,,,,,,,805.6240000059479,,response,,,,99,,,,,,,Space,keypress(Space),,,,,,,,---- -- ----- -- ------ - ------- --- ----------<br>------------- ------ ------ ---- ---- ------- close -- ----<br>-------- ------- -- ---------- --- - --- ----- ----- ----<br>---- --- --- ----- --- ---- ---- ------- ----- ---- -------<br>--- --- -- ----- -- --- ---- -- --- ---- -- ------ ------<br>--- ----- -- ----,218677.80000001192,218677.40000000596,217864.835,217869.59999999404,217871.776,218684.231,,15,close
screen,html.Screen,2_1_0_1_16,2022-05-12T17:04:04.621Z,,,,,,,,,,,,,,,,,53,,,,,,,,,,,,,,832.8689999940398,,response,,,,99,,,,,,,Space,keypress(Space),,,,,,,,---- -- ----- -- ------ - ------- --- ----------<br>------------- ------ ------ ---- ---- ------- ----- to ----<br>-------- ------- -- ---------- --- - --- ----- ----- ----<br>---- --- --- ----- --- ---- ---- ------- ----- ---- -------<br>--- --- -- ----- -- --- ---- -- --- ---- -- ------ ------<br>--- ----- -- ----,219517.70000001788,219517.09999999404,218677.348,218678,218684.231,219524.506,,16,to
screen,html.Screen,2_1_0_1_17,2022-05-12T17:04:05.381Z,,,,,,,,,,,,,,,,,53,,,,,,,,,,,,,,752.6940000178874,,response,,,,99,,,,,,,Space,keypress(Space),,,,,,,,---- -- ----- -- ------ - ------- --- ----------<br>------------- ------ ------ ---- ---- ------- ----- -- your<br>-------- ------- -- ---------- --- - --- ----- ----- ----<br>---- --- --- ----- --- ---- ---- ------- ----- ---- -------<br>--- --- -- ----- -- --- ---- -- --- ---- -- ------ ------<br>--- ----- -- ----,220277.80000001192,220277.20000001788,219517.594,219517.70000001788,219524.506,220281.429,,17,your
screen,html.Screen,2_1_0_1_18,2022-05-12T17:04:06.141Z,,,,,,,,,,,,,,,,,53,,,,,,,,,,,,,,755.8710000119172,,response,,,,99,,,,,,,Space,keypress(Space),,,,,,,,---- -- ----- -- ------ - ------- --- ----------<br>------------- ------ ------ ---- ---- ------- ----- -- ----<br>romantic ------- -- ---------- --- - --- ----- ----- ----<br>---- --- --- ----- --- ---- ---- ------- ----- ---- -------<br>--- --- -- ----- -- --- ---- -- --- ---- -- ------ ------<br>--- ----- -- ----,221037.70000001788,221037.30000001192,220274.484,220277.80000001192,220281.429,221038.384,,18,romantic
screen,html.Screen,2_1_0_1_19,2022-05-12T17:04:06.789Z,,,,,,,,,,,,,,,,,53,,,,,,,,,,,,,,646.7159999940486,,response,,,,99,,,,,,,Space,keypress(Space),,,,,,,,---- -- ----- -- ------ - ------- --- ----------<br>------------- ------ ------ ---- ---- ------- ----- -- ----<br>-------- partner -- ---------- --- - --- ----- ----- ----<br>---- --- --- ----- --- ---- ---- ------- ----- ---- -------<br>--- --- -- ----- -- --- ---- -- --- ---- -- ------ ------<br>--- ----- -- ----,221685.5,221685.09999999404,221031.463,221037.80000001192,221038.384,221691.108,,19,partner
screen,html.Screen,2_1_0_1_20,2022-05-12T17:04:07.733Z,,,,,,,,,,,,,,,,,53,,,,,,,,,,,,,,937.9919999940321,,response,,,,99,,,,,,,Space,keypress(Space),,,,,,,,---- -- ----- -- ------ - ------- --- ----------<br>------------- ------ ------ ---- ---- ------- ----- -- ----<br>-------- ------- is ---------- --- - --- ----- ----- ----<br>---- --- --- ----- --- ---- ---- ------- ----- ---- -------<br>--- --- -- ----- -- --- ---- -- --- ---- -- ------ ------<br>--- ----- -- ----,222629.5,222629.09999999404,221684.168,221685.70000001788,221691.108,222635.536,,20,is
screen,html.Screen,2_1_0_1_21,2022-05-12T17:04:08.541Z,,,,,,,,,,,,,,,,,53,,,,,,,,,,,,,,801.5639999940468,,response,,,,99,,,,,,,Space,keypress(Space),,,,,,,,---- -- ----- -- ------ - ------- --- ----------<br>------------- ------ ------ ---- ---- ------- ----- -- ----<br>-------- ------- -- paramount. --- - --- ----- ----- ----<br>---- --- --- ----- --- ---- ---- ------- ----- ---- -------<br>--- --- -- ----- -- --- ---- -- --- ---- -- ------ ------<br>--- ----- -- ----,223437.5,223437.09999999404,222628.605,222629.70000001788,222635.536,223441.068,,21,paramount.
screen,html.Screen,2_1_0_1_22,2022-05-12T17:04:09.221Z,,,,,,,,,,,,,,,,,53,,,,,,,,,,,,,,676.3320000059612,,response,,,,99,,,,,,,Space,keypress(Space),,,,,,,,---- -- ----- -- ------ - ------- --- ----------<br>------------- ------ ------ ---- ---- ------- ----- -- ----<br>-------- ------- -- ---------- But - --- ----- ----- ----<br>---- --- --- ----- --- ---- ---- ------- ----- ---- -------<br>--- --- -- ----- -- --- ---- -- --- ---- -- ------ ------<br>--- ----- -- ----,224117.80000001192,224117.40000000596,223434.158,223437.70000001788,223441.068,224121.624,,22,But
screen,html.Screen,2_1_0_1_23,2022-05-12T17:04:09.829Z,,,,,,,,,,,,,,,,,53,,,,,,,,,,,,,,603.5760000178707,,response,,,,99,,,,,,,Space,keypress(Space),,,,,,,,---- -- ----- -- ------ - ------- --- ----------<br>------------- ------ ------ ---- ---- ------- ----- -- ----<br>-------- ------- -- ---------- --- a --- ----- ----- ----<br>---- --- --- ----- --- ---- ---- ------- ----- ---- -------<br>--- --- -- ----- -- --- ---- -- --- ---- -- ------ ------<br>--- ----- -- ----,224725.59999999404,224725.20000001788,224114.786,224117.80000001192,224121.624,224732.773,,23,a
screen,html.Screen,2_1_0_1_24,2022-05-12T17:04:10.405Z,,,,,,,,,,,,,,,,,53,,,,,,,,,,,,,,568.326999994053,,response,,,,99,,,,,,,Space,keypress(Space),,,,,,,,---- -- ----- -- ------ - ------- --- ----------<br>------------- ------ ------ ---- ---- ------- ----- -- ----<br>-------- ------- -- ---------- --- - new ----- ----- ----<br>---- --- --- ----- --- ---- ---- ------- ----- ---- -------<br>--- --- -- ----- -- --- ---- -- --- ---- -- ------ ------<br>--- ----- -- ----,225301.5,225301.09999999404,224725.806,224725.70000001788,224732.773,225302.165,,24,new
screen,html.Screen,2_1_0_1_25,2022-05-12T17:04:10.886Z,,,,,,,,,,,,,,,,,53,,,,,,,,,,,,,,479.53500001787324,,response,,,,99,,,,,,,Space,keypress(Space),,,,,,,,---- -- ----- -- ------ - ------- --- ----------<br>------------- ------ ------ ---- ---- ------- ----- -- ----<br>-------- ------- -- ---------- --- - --- study ----- ----<br>---- --- --- ----- --- ---- ---- ------- ----- ---- -------<br>--- --- -- ----- -- --- ---- -- --- ---- -- ------ ------<br>--- ----- -- ----,225782.5,225781.70000001788,225295.237,225301.59999999404,225302.165,225788.256,,25,study
screen,html.Screen,2_1_0_1_26,2022-05-12T17:04:11.446Z,,,,,,,,,,,,,,,,,53,,,,,,,,,,,,,,553.4440000178874,,response,,,,99,,,,,,,Space,keypress(Space),,,,,,,,---- -- ----- -- ------ - ------- --- ----------<br>------------- ------ ------ ---- ---- ------- ----- -- ----<br>-------- ------- -- ---------- --- - --- ----- finds ----<br>---- --- --- ----- --- ---- ---- ------- ----- ---- -------<br>--- --- -- ----- -- --- ---- -- --- ---- -- ------ ------<br>--- ----- -- ----,226342.09999999404,226341.70000001788,225781.372,225782.59999999404,225788.256,226343.866,,26,finds
screen,html.Screen,2_1_0_1_27,2022-05-12T17:04:11.965Z,,,,,,,,,,,,,,,,,53,,,,,,,,,,,,,,517.4340000119118,,response,,,,99,,,,,,,Space,keypress(Space),,,,,,,,---- -- ----- -- ------ - ------- --- ----------<br>------------- ------ ------ ---- ---- ------- ----- -- ----<br>-------- ------- -- ---------- --- - --- ----- ----- that<br>---- --- --- ----- --- ---- ---- ------- ----- ---- -------<br>--- --- -- ----- -- --- ---- -- --- ---- -- ------ ------<br>--- ----- -- ----,226861.80000001192,226861.30000001192,226336.854,226342.09999999404,226343.866,226864.636,,27,that
screen,html.Screen,2_1_0_1_28,2022-05-12T17:04:12.589Z,,,,,,,,,,,,,,,,,53,,,,,,,,,,,,,,620.6640000119223,,response,,,,99,,,,,,,Space,keypress(Space),,,,,,,,---- -- ----- -- ------ - ------- --- ----------<br>------------- ------ ------ ---- ---- ------- ----- -- ----<br>-------- ------- -- ---------- --- - --- ----- ----- ----<br>it's --- --- ----- --- ---- ---- ------- ----- ---- -------<br>--- --- -- ----- -- --- ---- -- --- ---- -- ------ ------<br>--- ----- -- ----,227485.70000001788,227485.30000001192,226858.359,226861.90000000596,226864.636,227489.601,,28,it's
screen,html.Screen,2_1_0_1_29,2022-05-12T17:04:13.118Z,,,,,,,,,,,,,,,,,53,,,,,,,,,,,,,,523.9989999940444,,response,,,,99,,,,,,,Space,keypress(Space),,,,,,,,---- -- ----- -- ------ - ------- --- ----------<br>------------- ------ ------ ---- ---- ------- ----- -- ----<br>-------- ------- -- ---------- --- - --- ----- ----- ----<br>---- not --- ----- --- ---- ---- ------- ----- ---- -------<br>--- --- -- ----- -- --- ---- -- --- ---- -- ------ ------<br>--- ----- -- ----,228014.09999999404,228013.59999999404,227482.688,227485.70000001788,227489.601,228017.416,,29,not
screen,html.Screen,2_1_0_1_30,2022-05-12T17:04:13.653Z,,,,,,,,,,,,,,,,,53,,,,,,,,,,,,,,531.6839999940421,,response,,,,99,,,,,,,Space,keypress(Space),,,,,,,,---- -- ----- -- ------ - ------- --- ----------<br>------------- ------ ------ ---- ---- ------- ----- -- ----<br>-------- ------- -- ---------- --- - --- ----- ----- ----<br>---- --- how ----- --- ---- ---- ------- ----- ---- -------<br>--- --- -- ----- -- --- ---- -- --- ---- -- ------ ------<br>--- ----- -- ----,228549.59999999404,228549.09999999404,228010.613,228014.09999999404,228017.416,228552.102,,30,how
screen,html.Screen,2_1_0_1_31,2022-05-12T17:04:14.254Z,,,,,,,,,,,,,,,,,53,,,,,,,,,,,,,,597.1980000119074,,response,,,,99,,,,,,,Space,keypress(Space),,,,,,,,---- -- ----- -- ------ - ------- --- ----------<br>------------- ------ ------ ---- ---- ------- ----- -- ----<br>-------- ------- -- ---------- --- - --- ----- ----- ----<br>---- --- --- close --- ---- ---- ------- ----- ---- -------<br>--- --- -- ----- -- --- ---- -- --- ---- -- ------ ------<br>--- ----- -- ----,229150.90000000596,229149.30000001192,228545.145,228549.70000001788,228552.102,229156.233,,31,close
screen,html.Screen,2_1_0_1_32,2022-05-12T17:04:14.838Z,,,,,,,,,,,,,,,,,53,,,,,,,,,,,,,,577.3669999940321,,response,,,,99,,,,,,,Space,keypress(Space),,,,,,,,---- -- ----- -- ------ - ------- --- ----------<br>------------- ------ ------ ---- ---- ------- ----- -- ----<br>-------- ------- -- ---------- --- - --- ----- ----- ----<br>---- --- --- ----- you ---- ---- ------- ----- ---- -------<br>--- --- -- ----- -- --- ---- -- --- ---- -- ------ ------<br>--- ----- -- ----,229734.09999999404,229733.59999999404,229149.391,229151,229156.233,229739.558,,32,you
screen,html.Screen,2_1_0_1_33,2022-05-12T17:04:15.454Z,,,,,,,,,,,,,,,,,53,,,,,,,,,,,,,,610.2420000119309,,response,,,,99,,,,,,,Space,keypress(Space),,,,,,,,---- -- ----- -- ------ - ------- --- ----------<br>------------- ------ ------ ---- ---- ------- ----- -- ----<br>-------- ------- -- ---------- --- - --- ----- ----- ----<br>---- --- --- ----- --- feel ---- ------- ----- ---- -------<br>--- --- -- ----- -- --- ---- -- --- ---- -- ------ ------<br>--- ----- -- ----,230350.20000001788,230349.80000001192,229732.641,229734.20000001788,229739.558,230357.608,,33,feel
screen,html.Screen,2_1_0_1_34,2022-05-12T17:04:15.974Z,,,,,,,,,,,,,,,,,53,,,,,,,,,,,,,,511.9919999940321,,response,,,,99,,,,,,,Space,keypress(Space),,,,,,,,---- -- ----- -- ------ - ------- --- ----------<br>------------- ------ ------ ---- ---- ------- ----- -- ----<br>-------- ------- -- ---------- --- - --- ----- ----- ----<br>---- --- --- ----- --- ---- that ------- ----- ---- -------<br>--- --- -- ----- -- --- ---- -- --- ---- -- ------ ------<br>--- ----- -- ----,230870.20000001788,230869.59999999404,230350.676,230350.20000001788,230357.608,230871.511,,34,that
screen,html.Screen,2_1_0_1_35,2022-05-12T17:04:16.437Z,,,,,,,,,,,,,,,,,53,,,,,,,,,,,,,,461.6890000178828,,response,,,,99,,,,,,,Space,keypress(Space),,,,,,,,---- -- ----- -- ------ - ------- --- ----------<br>------------- ------ ------ ---- ---- ------- ----- -- ----<br>-------- ------- -- ---------- --- - --- ----- ----- ----<br>---- --- --- ----- --- ---- ---- matters ----- ---- -------<br>--- --- -- ----- -- --- ---- -- --- ---- -- ------ ------<br>--- ----- -- ----,231333.59999999404,231333.20000001788,230864.584,230870.40000000596,230871.511,231336.766,,35,matters
screen,html.Screen,2_1_0_1_36,2022-05-12T17:04:16.917Z,,,,,,,,,,,,,,,,,53,,,,,,,,,,,,,,476.73399999999674,,response,,,,99,,,,,,,Space,keypress(Space),,,,,,,,"---- -- ----- -- ------ - ------- --- ----------<br>------------- ------ ------ ---- ---- ------- ----- -- ----<br>-------- ------- -- ---------- --- - --- ----- ----- ----<br>---- --- --- ----- --- ---- ---- ------- most, ---- -------<br>--- --- -- ----- -- --- ---- -- --- ---- -- ------ ------<br>--- ----- -- ----",231813.90000000596,231813.5,231329.815,231333.70000001788,231336.766,231815.926,,36,"most,"
screen,html.Screen,2_1_0_1_37,2022-05-12T17:04:17.469Z,,,,,,,,,,,,,,,,,53,,,,,,,,,,,,,,549.4740000059537,,response,,,,99,,,,,,,Space,keypress(Space),,,,,,,,---- -- ----- -- ------ - ------- --- ----------<br>------------- ------ ------ ---- ---- ------- ----- -- ----<br>-------- ------- -- ---------- --- - --- ----- ----- ----<br>---- --- --- ----- --- ---- ---- ------- ----- it's -------<br>--- --- -- ----- -- --- ---- -- --- ---- -- ------ ------<br>--- ----- -- ----,232365.90000000596,232365.40000000596,231808.975,231814,231815.926,232371.446,,37,it's
screen,html.Screen,2_1_0_1_38,2022-05-12T17:04:17.949Z,,,,,,,,,,,,,,,,,53,,,,,,,,,,,,,,473.85400001192465,,response,,,,99,,,,,,,Space,keypress(Space),,,,,,,,---- -- ----- -- ------ - ------- --- ----------<br>------------- ------ ------ ---- ---- ------- ----- -- ----<br>-------- ------- -- ---------- --- - --- ----- ----- ----<br>---- --- --- ----- --- ---- ---- ------- ----- ---- whether<br>--- --- -- ----- -- --- ---- -- --- ---- -- ------ ------<br>--- ----- -- ----,232845.80000001192,232845.30000001192,232364.538,232365.90000000596,232371.446,232850.601,,38,whether
screen,html.Screen,2_1_0_1_39,2022-05-12T17:04:18.350Z,,,,,,,,,,,,,,,,,53,,,,,,,,,,,,,,394.9989999940444,,response,,,,99,,,,,,,Space,keypress(Space),,,,,,,,---- -- ----- -- ------ - ------- --- ----------<br>------------- ------ ------ ---- ---- ------- ----- -- ----<br>-------- ------- -- ---------- --- - --- ----- ----- ----<br>---- --- --- ----- --- ---- ---- ------- ----- ---- -------<br>you --- -- ----- -- --- ---- -- --- ---- -- ------ ------<br>--- ----- -- ----,233246.09999999404,233245.59999999404,232843.673,232845.80000001192,232850.601,233253.409,,39,you
screen,html.Screen,2_1_0_1_40,2022-05-12T17:04:18.774Z,,,,,,,,,,,,,,,,,53,,,,,,,,,,,,,,416.2910000178672,,response,,,,99,,,,,,,Space,keypress(Space),,,,,,,,---- -- ----- -- ------ - ------- --- ----------<br>------------- ------ ------ ---- ---- ------- ----- -- ----<br>-------- ------- -- ---------- --- - --- ----- ----- ----<br>---- --- --- ----- --- ---- ---- ------- ----- ---- -------<br>--- are -- ----- -- --- ---- -- --- ---- -- ------ ------<br>--- ----- -- ----,233670.40000000596,233669.70000001788,233246.478,233246.20000001788,233253.409,233676.98,,40,are
screen,html.Screen,2_1_0_1_41,2022-05-12T17:04:19.141Z,,,,,,,,,,,,,,,,,53,,,,,,,,,,,,,,360.32000001191045,,response,,,,99,,,,,,,Space,keypress(Space),,,,,,,,---- -- ----- -- ------ - ------- --- ----------<br>------------- ------ ------ ---- ---- ------- ----- -- ----<br>-------- ------- -- ---------- --- - --- ----- ----- ----<br>---- --- --- ----- --- ---- ---- ------- ----- ---- -------<br>--- --- as ----- -- --- ---- -- --- ---- -- ------ ------<br>--- ----- -- ----,234037.70000001788,234037.30000001192,233670.096,233670.5,233676.98,234045.027,,41,as
screen,html.Screen,2_1_0_1_42,2022-05-12T17:04:19.574Z,,,,,,,,,,,,,,,,,53,,,,,,,,,,,,,,424.8730000059586,,response,,,,99,,,,,,,Space,keypress(Space),,,,,,,,---- -- ----- -- ------ - ------- --- ----------<br>------------- ------ ------ ---- ---- ------- ----- -- ----<br>-------- ------- -- ---------- --- - --- ----- ----- ----<br>---- --- --- ----- --- ---- ---- ------- ----- ---- -------<br>--- --- -- close -- --- ---- -- --- ---- -- ------ ------<br>--- ----- -- ----,234470.30000001192,234469.90000000596,234038.12,234037.80000001192,234045.027,234475.566,,42,close
screen,html.Screen,2_1_0_1_43,2022-05-12T17:04:20.038Z,,,,,,,,,,,,,,,,,53,,,,,,,,,,,,,,458.0339999940479,,response,,,,99,,,,,,,Space,keypress(Space),,,,,,,,---- -- ----- -- ------ - ------- --- ----------<br>------------- ------ ------ ---- ---- ------- ----- -- ----<br>-------- ------- -- ---------- --- - --- ----- ----- ----<br>---- --- --- ----- --- ---- ---- ------- ----- ---- -------<br>--- --- -- ----- as --- ---- -- --- ---- -- ------ ------<br>--- ----- -- ----,234934.40000000596,234933.59999999404,234468.612,234470.40000000596,234475.566,234940.86,,43,as
screen,html.Screen,2_1_0_1_44,2022-05-12T17:04:20.886Z,,,,,,,,,,,,,,,,,53,,,,,,,,,,,,,,840.8400000178954,,response,,,,99,,,,,,,Space,keypress(Space),,,,,,,,---- -- ----- -- ------ - ------- --- ----------<br>------------- ------ ------ ---- ---- ------- ----- -- ----<br>-------- ------- -- ---------- --- - --- ----- ----- ----<br>---- --- --- ----- --- ---- ---- ------- ----- ---- -------<br>--- --- -- ----- -- you ---- -- --- ---- -- ------ ------<br>--- ----- -- ----,235782.09999999404,235781.70000001788,234933.958,234934.5,234940.86,235788.064,,44,you
screen,html.Screen,2_1_0_1_45,2022-05-12T17:04:21.485Z,,,,,,,,,,,,,,,,,53,,,,,,,,,,,,,,593.3360000059474,,response,,,,99,,,,,,,Space,keypress(Space),,,,,,,,---- -- ----- -- ------ - ------- --- ----------<br>------------- ------ ------ ---- ---- ------- ----- -- ----<br>-------- ------- -- ---------- --- - --- ----- ----- ----<br>---- --- --- ----- --- ---- ---- ------- ----- ---- -------<br>--- --- -- ----- -- --- want -- --- ---- -- ------ ------<br>--- ----- -- ----,236381.70000001788,236381.40000000596,235781.16,235782.20000001788,235788.064,236385.267,,45,want
screen,html.Screen,2_1_0_1_46,2022-05-12T17:04:22.013Z,,,,,,,,,,,,,,,,,53,,,,,,,,,,,,,,524.0330000119284,,response,,,,99,,,,,,,Space,keypress(Space),,,,,,,,---- -- ----- -- ------ - ------- --- ----------<br>------------- ------ ------ ---- ---- ------- ----- -- ----<br>-------- ------- -- ---------- --- - --- ----- ----- ----<br>---- --- --- ----- --- ---- ---- ------- ----- ---- -------<br>--- --- -- ----- -- --- ---- to --- ---- -- ------ ------<br>--- ----- -- ----,236909.80000001192,236909.30000001192,236378.319,236381.90000000596,236385.267,236913.043,,46,to
screen,html.Screen,2_1_0_1_47,2022-05-12T17:04:22.462Z,,,,,,,,,,,,,,,,,53,,,,,,,,,,,,,,444.5569999940344,,response,,,,99,,,,,,,Space,keypress(Space),,,,,,,,"---- -- ----- -- ------ - ------- --- ----------<br>------------- ------ ------ ---- ---- ------- ----- -- ----<br>-------- ------- -- ---------- --- - --- ----- ----- ----<br>---- --- --- ----- --- ---- ---- ------- ----- ---- -------<br>--- --- -- ----- -- --- ---- -- be, ---- -- ------ ------<br>--- ----- -- ----",237358.09999999404,237357.59999999404,236906.084,236909.90000000596,236913.043,237364.403,,47,"be,"
screen,html.Screen,2_1_0_1_48,2022-05-12T17:04:22.990Z,,,,,,,,,,,,,,,,,53,,,,,,,,,,,,,,521.2970000178902,,response,,,,99,,,,,,,Space,keypress(Space),,,,,,,,---- -- ----- -- ------ - ------- --- ----------<br>------------- ------ ------ ---- ---- ------- ----- -- ----<br>-------- ------- -- ---------- --- - --- ----- ----- ----<br>---- --- --- ----- --- ---- ---- ------- ----- ---- -------<br>--- --- -- ----- -- --- ---- -- --- even -- ------ ------<br>--- ----- -- ----,237886.30000001192,237885.70000001788,237357.471,237358.20000001788,237364.403,237892.188,,48,even
screen,html.Screen,2_1_0_1_49,2022-05-12T17:04:23.502Z,,,,,,,,,,,,,,,,,53,,,,,,,,,,,,,,505.31200000000536,,response,,,,99,,,,,,,Space,keypress(Space),,,,,,,,---- -- ----- -- ------ - ------- --- ----------<br>------------- ------ ------ ---- ---- ------- ----- -- ----<br>-------- ------- -- ---------- --- - --- ----- ----- ----<br>---- --- --- ----- --- ---- ---- ------- ----- ---- -------<br>--- --- -- ----- -- --- ---- -- --- ---- if ------ ------<br>--- ----- -- ----,238397.90000000596,238397.5,237885.261,237886.40000000596,237892.188,238399.153,,49,if
screen,html.Screen,2_1_0_1_50,2022-05-12T17:04:23.957Z,,,,,,,,,,,,,,,,,53,,,,,,,,,,,,,,454.1470000119298,,response,,,,99,,,,,,,Space,keypress(Space),,,,,,,,---- -- ----- -- ------ - ------- --- ----------<br>------------- ------ ------ ---- ---- ------- ----- -- ----<br>-------- ------- -- ---------- --- - --- ----- ----- ----<br>---- --- --- ----- --- ---- ---- ------- ----- ---- -------<br>--- --- -- ----- -- --- ---- -- --- ---- -- that's ------<br>--- ----- -- ----,238853.80000001192,238853.30000001192,238392.233,238398,238399.153,238857.448,,50,that's
screen,html.Screen,2_1_0_1_51,2022-05-12T17:04:24.454Z,,,,,,,,,,,,,,,,,53,,,,,,,,,,,,,,492.4520000059565,,response,,,,99,,,,,,,Space,keypress(Space),,,,,,,,---- -- ----- -- ------ - ------- --- ----------<br>------------- ------ ------ ---- ---- ------- ----- -- ----<br>-------- ------- -- ---------- --- - --- ----- ----- ----<br>---- --- --- ----- --- ---- ---- ------- ----- ---- -------<br>--- --- -- ----- -- --- ---- -- --- ---- -- ------ really<br>--- ----- -- ----,239350.59999999404,239349.90000000596,238850.553,238853.90000000596,238857.448,239357.428,,51,really
screen,html.Screen,2_1_0_1_52,2022-05-12T17:04:24.870Z,,,,,,,,,,,,,,,,,53,,,,,,,,,,,,,,407.97200000594603,,response,,,,99,,,,,,,Space,keypress(Space),,,,,,,,---- -- ----- -- ------ - ------- --- ----------<br>------------- ------ ------ ---- ---- ------- ----- -- ----<br>-------- ------- -- ---------- --- - --- ----- ----- ----<br>---- --- --- ----- --- ---- ---- ------- ----- ---- -------<br>--- --- -- ----- -- --- ---- -- --- ---- -- ------ ------<br>not ----- -- ----,239765.90000000596,239765.40000000596,239350.521,239350.80000001192,239357.428,239767.16,,52,not
screen,html.Screen,2_1_0_1_53,2022-05-12T17:04:25.294Z,,,,,,,,,,,,,,,,,53,,,,,,,,,,,,,,422.93999999403604,,response,,,,99,,,,,,,Space,keypress(Space),,,,,,,,---- -- ----- -- ------ - ------- --- ----------<br>------------- ------ ------ ---- ---- ------- ----- -- ----<br>-------- ------- -- ---------- --- - --- ----- ----- ----<br>---- --- --- ----- --- ---- ---- ------- ----- ---- -------<br>--- --- -- ----- -- --- ---- -- --- ---- -- ------ ------<br>--- close -- ----,240190.59999999404,240190.09999999404,239760.267,239766,239767.16,240197.722,,53,close
screen,html.Screen,2_1_0_1_54,2022-05-12T17:04:25.766Z,,,,,,,,,,,,,,,,,53,,,,,,,,,,,,,,463.8779999940307,,response,,,,99,,,,,,,Space,keypress(Space),,,,,,,,---- -- ----- -- ------ - ------- --- ----------<br>------------- ------ ------ ---- ---- ------- ----- -- ----<br>-------- ------- -- ---------- --- - --- ----- ----- ----<br>---- --- --- ----- --- ---- ---- ------- ----- ---- -------<br>--- --- -- ----- -- --- ---- -- --- ---- -- ------ ------<br>--- ----- at ----,240662.20000001788,240661.59999999404,240190.796,240190.59999999404,240197.722,240663.045,,54,at
screen,html.Screen,2_1_0_1_55,2022-05-12T17:04:26.470Z,,,,,,,,,,,,,,,,,53,,,,,,,,,,,,,,702.5549999940267,,response,,,,99,,,,,,,Space,keypress(Space),,,,,,,,---- -- ----- -- ------ - ------- --- ----------<br>------------- ------ ------ ---- ---- ------- ----- -- ----<br>-------- ------- -- ---------- --- - --- ----- ----- ----<br>---- --- --- ----- --- ---- ---- ------- ----- ---- -------<br>--- --- -- ----- -- --- ---- -- --- ---- -- ------ ------<br>--- ----- -- all.,241366,241365.59999999404,240662.931,240662.40000000596,240663.045,241371.283,,55,all.
Item 99,flow.Loop,2_1_0_1,2022-05-12T17:04:26.470Z,,,,,,,,,,,,,,,,,,,,,,,,,,,,,,,38868.536999994045,,completion,,,,,G,,,,,,,,,,,silence,,,,,241366.20000001788,241365.59999999404,202483.203,202483.90000000596,202497.063,241371.283,,,
Question 1,html.Screen,2_1_0_2,2022-05-12T17:04:30.218Z,,,,,,,,,,,,,,,,,,,,,,,,,,,,false,FALSE,,3742.017000011925,,response,,,,99,G,,,,,,TRUE,click #choice-1,,,,silence,,,,,245114.59999999404,245113.30000001192,241364.32,241366.20000001788,241371.283,245114.272,,,
Question 2,html.Screen,2_1_0_3,2022-05-12T17:04:37.441Z,,,,,,,,,,,,,,,,,,,,,,,,,,,,true,TRUE,,7222.628000005963,,response,,,,99,G,,,,,,TRUE,click #choice-1,,,,silence,,,,,252337.59999999404,252336.90000000596,245114.252,245114.80000001192,245114.272,252343.353,,,
Item 99,flow.Sequence,2_1_0,2022-05-12T17:04:37.441Z,,,,,,,,,,,,,,,,,,,,,,,,,,,,,,,59846.55600000595,,completion,,,,,,,,,,,,,,,,,,,,,252337.70000001788,252336.90000000596,192483.363,192490.09999999404,192490.344,252343.353,,,
Holding screen,html.Screen,2_1_1_0,2022-05-12T17:04:47.440Z,,,,,,,,,,,,,,,,,,,,,,,,,,,,,,,9999.739000000001,,timeout,,,,,,,,,,,,,,,,,,,,,262336.59999999404,262336.091,252336.321,252338,252343.353,262343.092,,,
screen,html.Screen,2_1_1_1_0,2022-05-12T17:04:52.822Z,,,,,,,,,,,,,,,,,54,,,,,,,,,,,,,,5374.708000011917,,response,,,,100,,,,,,,Space,keypress(Space),,,,,,,,At --- ---- --- ------ ----- ------- ---- -- --- ------- --<br>------- ---------- ------ -- ----- -- ----- -- ---- ------<br>--- ----- --- --- ------ -------- ----- --- ------ ----- --<br>----- ----- ---------- --- --- ------ ------ ---- -- ------<br>------- --- ------ ----- --- ---- ------- -- ---- --- --<br>------- ------,267718.3000000119,267717.8000000119,262336.091,262336.7000000179,262343.092,267717.962,,0,At
screen,html.Screen,2_1_1_1_1,2022-05-12T17:04:53.790Z,,,,,,,,,,,,,,,,,54,,,,,,,,,,,,,,967.7380000178819,,response,,,,100,,,,,,,Space,keypress(Space),,,,,,,,-- the ---- --- ------ ----- ------- ---- -- --- ------- --<br>------- ---------- ------ -- ----- -- ----- -- ---- ------<br>--- ----- --- --- ------ -------- ----- --- ------ ----- --<br>----- ----- ---------- --- --- ------ ------ ---- -- ------<br>------- --- ------ ----- --- ---- ------- -- ---- --- --<br>------- ------,268686.2000000179,268685.7000000179,267717.925,267718.3000000119,267717.962,268690.141,,1,the
screen,html.Screen,2_1_1_1_2,2022-05-12T17:04:54.526Z,,,,,,,,,,,,,,,,,54,,,,,,,,,,,,,,731.6590000119177,,response,,,,100,,,,,,,Space,keypress(Space),,,,,,,,-- --- time --- ------ ----- ------- ---- -- --- ------- --<br>------- ---------- ------ -- ----- -- ----- -- ---- ------<br>--- ----- --- --- ------ -------- ----- --- ------ ----- --<br>----- ----- ---------- --- --- ------ ------ ---- -- ------<br>------- --- ------ ----- --- ---- ------- -- ---- --- --<br>------- ------,269422.2000000179,269421.8000000119,268683.227,268686.2000000179,268690.141,269426.236,,2,time
screen,html.Screen,2_1_1_1_3,2022-05-12T17:04:55.230Z,,,,,,,,,,,,,,,,,54,,,,,,,,,,,,,,699.8639999940642,,response,,,,100,,,,,,,Space,keypress(Space),,,,,,,,-- --- ---- the ------ ----- ------- ---- -- --- ------- --<br>------- ---------- ------ -- ----- -- ----- -- ---- ------<br>--- ----- --- --- ------ -------- ----- --- ------ ----- --<br>----- ----- ---------- --- --- ------ ------ ---- -- ------<br>------- --- ------ ----- --- ---- ------- -- ---- --- --<br>------- ------,270126.59999999404,270126.09999999404,269419.274,269422.3000000119,269426.236,270127.637,,3,the
screen,html.Screen,2_1_1_1_4,2022-05-12T17:04:55.942Z,,,,,,,,,,,,,,,,,54,,,,,,,,,,,,,,710.163000011933,,response,,,,100,,,,,,,Space,keypress(Space),,,,,,,,-- --- ---- --- French ----- ------- ---- -- --- ------- --<br>------- ---------- ------ -- ----- -- ----- -- ---- ------<br>--- ----- --- --- ------ -------- ----- --- ------ ----- --<br>----- ----- ---------- --- --- ------ ------ ---- -- ------<br>------- --- ------ ----- --- ---- ------- -- ---- --- --<br>------- ------,270838.3000000119,270837.8000000119,270120.695,270126.7000000179,270127.637,270842.883,,4,French
screen,html.Screen,2_1_1_1_5,2022-05-12T17:04:56.718Z,,,,,,,,,,,,,,,,,54,,,,,,,,,,,,,,771.0170000059879,,response,,,,100,,,,,,,Space,keypress(Space),,,,,,,,-- --- ---- --- ------ crown ------- ---- -- --- ------- --<br>------- ---------- ------ -- ----- -- ----- -- ---- ------<br>--- ----- --- --- ------ -------- ----- --- ------ ----- --<br>----- ----- ---------- --- --- ------ ------ ---- -- ------<br>------- --- ------ ----- --- ---- ------- -- ---- --- --<br>------- ------,271614.3000000119,271613.90000000596,270835.93,270838.40000000596,270842.883,271620.643,,5,crown
screen,html.Screen,2_1_1_1_6,2022-05-12T17:04:57.374Z,,,,,,,,,,,,,,,,,54,,,,,,,,,,,,,,649.4569999940577,,response,,,,100,,,,,,,Space,keypress(Space),,,,,,,,-- --- ---- --- ------ ----- secured ---- -- --- ------- --<br>------- ---------- ------ -- ----- -- ----- -- ---- ------<br>--- ----- --- --- ------ -------- ----- --- ------ ----- --<br>----- ----- ---------- --- --- ------ ------ ---- -- ------<br>------- --- ------ ----- --- ---- ------- -- ---- --- --<br>------- ------,272270.7000000179,272270.09999999404,271613.732,271614.3000000119,271620.643,272273.441,,6,secured
screen,html.Screen,2_1_1_1_7,2022-05-12T17:04:58.135Z,,,,,,,,,,,,,,,,,54,,,,,,,,,,,,,,756.6589999940479,,response,,,,100,,,,,,,Space,keypress(Space),,,,,,,,-- --- ---- --- ------ ----- ------- much -- --- ------- --<br>------- ---------- ------ -- ----- -- ----- -- ---- ------<br>--- ----- --- --- ------ -------- ----- --- ------ ----- --<br>----- ----- ---------- --- --- ------ ------ ---- -- ------<br>------- --- ------ ----- --- ---- ------- -- ---- --- --<br>------- ------,273031.09999999404,273030.09999999404,272266.466,272270.90000000596,272273.441,273037.288,,7,much
screen,html.Screen,2_1_1_1_8,2022-05-12T17:04:58.902Z,,,,,,,,,,,,,,,,,54,,,,,,,,,,,,,,760.61200000596,,response,,,,100,,,,,,,Space,keypress(Space),,,,,,,,-- --- ---- --- ------ ----- ------- ---- of --- ------- --<br>------- ---------- ------ -- ----- -- ----- -- ---- ------<br>--- ----- --- --- ------ -------- ----- --- ------ ----- --<br>----- ----- ---------- --- --- ------ ------ ---- -- ------<br>------- --- ------ ----- --- ---- ------- -- ---- --- --<br>------- ------,273798.3000000119,273797.90000000596,273030.419,273031.2000000179,273037.288,273801.181,,8,of
screen,html.Screen,2_1_1_1_9,2022-05-12T17:04:59.446Z,,,,,,,,,,,,,,,,,54,,,,,,,,,,,,,,541.2190000059782,,response,,,,100,,,,,,,Space,keypress(Space),,,,,,,,-- --- ---- --- ------ ----- ------- ---- -- its ------- --<br>------- ---------- ------ -- ----- -- ----- -- ---- ------<br>--- ----- --- --- ------ -------- ----- --- ------ ----- --<br>----- ----- ---------- --- --- ------ ------ ---- -- ------<br>------- --- ------ ----- --- ---- ------- -- ---- --- --<br>------- ------,274343,274342.40000000596,273794.231,273798.40000000596,273801.181,274349.782,,9,its
screen,html.Screen,2_1_1_1_10,2022-05-12T17:05:00.278Z,,,,,,,,,,,,,,,,,54,,,,,,,,,,,,,,824.118000005954,,response,,,,100,,,,,,,Space,keypress(Space),,,,,,,,-- --- ---- --- ------ ----- ------- ---- -- --- revenue --<br>------- ---------- ------ -- ----- -- ----- -- ---- ------<br>--- ----- --- --- ------ -------- ----- --- ------ ----- --<br>----- ----- ---------- --- --- ------ ------ ---- -- ------<br>------- --- ------ ----- --- ---- ------- -- ---- --- --<br>------- ------,275174.40000000596,275173.90000000596,274342.87,274343,274349.782,275176.147,,10,revenue
screen,html.Screen,2_1_1_1_11,2022-05-12T17:05:00.998Z,,,,,,,,,,,,,,,,,54,,,,,,,,,,,,,,717.7530000059633,,response,,,,100,,,,,,,Space,keypress(Space),,,,,,,,-- --- ---- --- ------ ----- ------- ---- -- --- ------- by<br>------- ---------- ------ -- ----- -- ----- -- ---- ------<br>--- ----- --- --- ------ -------- ----- --- ------ ----- --<br>----- ----- ---------- --- --- ------ ------ ---- -- ------<br>------- --- ------ ----- --- ---- ------- -- ---- --- --<br>------- ------,275894.3000000119,275893.90000000596,275169.208,275174.40000000596,275176.147,275898.328,,11,by
screen,html.Screen,2_1_1_1_12,2022-05-12T17:05:01.918Z,,,,,,,,,,,,,,,,,54,,,,,,,,,,,,,,915.572000005981,,response,,,,100,,,,,,,Space,keypress(Space),,,,,,,,-- --- ---- --- ------ ----- ------- ---- -- --- ------- --<br>issuing ---------- ------ -- ----- -- ----- -- ---- ------<br>--- ----- --- --- ------ -------- ----- --- ------ ----- --<br>----- ----- ---------- --- --- ------ ------ ---- -- ------<br>------- --- ------ ----- --- ---- ------- -- ---- --- --<br>------- ------,276814.40000000596,276813.90000000596,275891.397,275894.3000000119,275898.328,276815,,12,issuing
screen,html.Screen,2_1_1_1_13,2022-05-12T17:05:03.142Z,,,,,,,,,,,,,,,,,54,,,,,,,,,,,,,,1223.0999999940395,,response,,,,100,,,,,,,Space,keypress(Space),,,,,,,,-- --- ---- --- ------ ----- ------- ---- -- --- ------- --<br>------- government ------ -- ----- -- ----- -- ---- ------<br>--- ----- --- --- ------ -------- ----- --- ------ ----- --<br>----- ----- ---------- --- --- ------ ------ ---- -- ------<br>------- --- ------ ----- --- ---- ------- -- ---- --- --<br>------- ------,278038.59999999404,278038.09999999404,276808.059,276814.40000000596,276815,278044.142,,13,government
screen,html.Screen,2_1_1_1_14,2022-05-12T17:05:04.190Z,,,,,,,,,,,,,,,,,54,,,,,,,,,,,,,,1041.758000005968,,response,,,,100,,,,,,,Space,keypress(Space),,,,,,,,-- --- ---- --- ------ ----- ------- ---- -- --- ------- --<br>------- ---------- bonds. -- ----- -- ----- -- ---- ------<br>--- ----- --- --- ------ -------- ----- --- ------ ----- --<br>----- ----- ---------- --- --- ------ ------ ---- -- ------<br>------- --- ------ ----- --- ---- ------- -- ---- --- --<br>------- ------,279086.3000000119,279085.90000000596,278037.19,278038.7000000179,278044.142,279092.712,,14,bonds.
screen,html.Screen,2_1_1_1_15,2022-05-12T17:05:04.902Z,,,,,,,,,,,,,,,,,54,,,,,,,,,,,,,,705.4880000178819,,response,,,,100,,,,,,,Space,keypress(Space),,,,,,,,-- --- ---- --- ------ ----- ------- ---- -- --- ------- --<br>------- ---------- ------ In ----- -- ----- -- ---- ------<br>--- ----- --- --- ------ -------- ----- --- ------ ----- --<br>----- ----- ---------- --- --- ------ ------ ---- -- ------<br>------- --- ------ ----- --- ---- ------- -- ---- --- --<br>------- ------,279798.59999999404,279798.2000000179,279085.769,279086.5,279092.712,279801.05,,15,In
screen,html.Screen,2_1_1_1_16,2022-05-12T17:05:05.614Z,,,,,,,,,,,,,,,,,54,,,,,,,,,,,,,,708.8500000059721,,response,,,,100,,,,,,,Space,keypress(Space),,,,,,,,"-- --- ---- --- ------ ----- ------- ---- -- --- ------- --<br>------- ---------- ------ -- 1727, -- ----- -- ---- ------<br>--- ----- --- --- ------ -------- ----- --- ------ ----- --<br>----- ----- ---------- --- --- ------ ------ ---- -- ------<br>------- --- ------ ----- --- ---- ------- -- ---- --- --<br>------- ------",280510.3000000119,280509.90000000596,279794.108,279798.59999999404,279801.05,280516.337,,16,"1727,"
screen,html.Screen,2_1_1_1_17,2022-05-12T17:05:06.270Z,,,,,,,,,,,,,,,,,54,,,,,,,,,,,,,,649.5630000059609,,response,,,,100,,,,,,,Space,keypress(Space),,,,,,,,-- --- ---- --- ------ ----- ------- ---- -- --- ------- --<br>------- ---------- ------ -- ----- in ----- -- ---- ------<br>--- ----- --- --- ------ -------- ----- --- ------ ----- --<br>----- ----- ---------- --- --- ------ ------ ---- -- ------<br>------- --- ------ ----- --- ---- ------- -- ---- --- --<br>------- ------,281166.40000000596,281165.90000000596,280509.344,280510.40000000596,280516.337,281169.092,,17,in
screen,html.Screen,2_1_1_1_18,2022-05-12T17:05:07.038Z,,,,,,,,,,,,,,,,,54,,,,,,,,,,,,,,764.9079999999958,,response,,,,100,,,,,,,Space,keypress(Space),,,,,,,,-- --- ---- --- ------ ----- ------- ---- -- --- ------- --<br>------- ---------- ------ -- ----- -- order -- ---- ------<br>--- ----- --- --- ------ -------- ----- --- ------ ----- --<br>----- ----- ---------- --- --- ------ ------ ---- -- ------<br>------- --- ------ ----- --- ---- ------- -- ---- --- --<br>------- ------,281934.40000000596,281934,281162.118,281166.40000000596,281169.092,281939.885,,18,order
screen,html.Screen,2_1_1_1_19,2022-05-12T17:05:07.694Z,,,,,,,,,,,,,,,,,54,,,,,,,,,,,,,,650.5150000059512,,response,,,,100,,,,,,,Space,keypress(Space),,,,,,,,-- --- ---- --- ------ ----- ------- ---- -- --- ------- --<br>------- ---------- ------ -- ----- -- ----- to ---- ------<br>--- ----- --- --- ------ -------- ----- --- ------ ----- --<br>----- ----- ---------- --- --- ------ ------ ---- -- ------<br>------- --- ------ ----- --- ---- ------- -- ---- --- --<br>------- ------,282590.90000000596,282590.40000000596,281932.925,281934.5,281939.885,282592.664,,19,to
screen,html.Screen,2_1_1_1_20,2022-05-12T17:05:08.254Z,,,,,,,,,,,,,,,,,54,,,,,,,,,,,,,,557.3360000000102,,response,,,,100,,,,,,,Space,keypress(Space),,,,,,,,-- --- ---- --- ------ ----- ------- ---- -- --- ------- --<br>------- ---------- ------ -- ----- -- ----- -- save ------<br>--- ----- --- --- ------ -------- ----- --- ------ ----- --<br>----- ----- ---------- --- --- ------ ------ ---- -- ------<br>------- --- ------ ----- --- ---- ------- -- ---- --- --<br>------- ------,283150.40000000596,283150,282585.672,282591.09999999404,282592.664,283155.135,,20,save
screen,html.Screen,2_1_1_1_21,2022-05-12T17:05:08.758Z,,,,,,,,,,,,,,,,,54,,,,,,,,,,,,,,498.8649999999907,,response,,,,100,,,,,,,Space,keypress(Space),,,,,,,,"-- --- ---- --- ------ ----- ------- ---- -- --- ------- --<br>------- ---------- ------ -- ----- -- ----- -- ---- money,<br>--- ----- --- --- ------ -------- ----- --- ------ ----- --<br>----- ----- ---------- --- --- ------ ------ ---- -- ------<br>------- --- ------ ----- --- ---- ------- -- ---- --- --<br>------- ------",283654.40000000596,283654,283148.204,283150.5,283155.135,283655.146,,21,"money,"
screen,html.Screen,2_1_1_1_22,2022-05-12T17:05:09.262Z,,,,,,,,,,,,,,,,,54,,,,,,,,,,,,,,502.9539999940316,,response,,,,100,,,,,,,Space,keypress(Space),,,,,,,,-- --- ---- --- ------ ----- ------- ---- -- --- ------- --<br>------- ---------- ------ -- ----- -- ----- -- ---- ------<br>the ----- --- --- ------ -------- ----- --- ------ ----- --<br>----- ----- ---------- --- --- ------ ------ ---- -- ------<br>------- --- ------ ----- --- ---- ------- -- ---- --- --<br>------- ------,284158.59999999404,284158.09999999404,283648.171,283654.5,283655.146,284162.084,,22,the
screen,html.Screen,2_1_1_1_23,2022-05-12T17:05:09.846Z,,,,,,,,,,,,,,,,,54,,,,,,,,,,,,,,580.5159999940661,,response,,,,100,,,,,,,Space,keypress(Space),,,,,,,,-- --- ---- --- ------ ----- ------- ---- -- --- ------- --<br>------- ---------- ------ -- ----- -- ----- -- ---- ------<br>--- state --- --- ------ -------- ----- --- ------ ----- --<br>----- ----- ---------- --- --- ------ ------ ---- -- ------<br>------- --- ------ ----- --- ---- ------- -- ---- --- --<br>------- ------,284743,284742.59999999404,284155.134,284158.7000000179,284162.084,284745.389,,23,state
screen,html.Screen,2_1_1_1_24,2022-05-12T17:05:10.350Z,,,,,,,,,,,,,,,,,54,,,,,,,,,,,,,,500.6109999999753,,response,,,,100,,,,,,,Space,keypress(Space),,,,,,,,-- --- ---- --- ------ ----- ------- ---- -- --- ------- --<br>------- ---------- ------ -- ----- -- ----- -- ---- ------<br>--- ----- cut --- ------ -------- ----- --- ------ ----- --<br>----- ----- ---------- --- --- ------ ------ ---- -- ------<br>------- --- ------ ----- --- ---- ------- -- ---- --- --<br>------- ------,285246.40000000596,285246,284738.415,284743,284745.389,285252.362,,24,cut
screen,html.Screen,2_1_1_1_25,2022-05-12T17:05:10.847Z,,,,,,,,,,,,,,,,,54,,,,,,,,,,,,,,489.9380000118981,,response,,,,100,,,,,,,Space,keypress(Space),,,,,,,,-- --- ---- --- ------ ----- ------- ---- -- --- ------- --<br>------- ---------- ------ -- ----- -- ----- -- ---- ------<br>--- ----- --- the ------ -------- ----- --- ------ ----- --<br>----- ----- ---------- --- --- ------ ------ ---- -- ------<br>------- --- ------ ----- --- ---- ------- -- ---- --- --<br>------- ------,285743.2000000179,285742.3000000119,285245.399,285246.5,285252.362,285745.378,,25,the
screen,html.Screen,2_1_1_1_26,2022-05-12T17:05:11.342Z,,,,,,,,,,,,,,,,,54,,,,,,,,,,,,,,492.6219999999739,,response,,,,100,,,,,,,Space,keypress(Space),,,,,,,,-- --- ---- --- ------ ----- ------- ---- -- --- ------- --<br>------- ---------- ------ -- ----- -- ----- -- ---- ------<br>--- ----- --- --- bonds' -------- ----- --- ------ ----- --<br>----- ----- ---------- --- --- ------ ------ ---- -- ------<br>------- --- ------ ----- --- ---- ------- -- ---- --- --<br>------- ------,286238.3000000119,286238,285738.402,285743.3000000119,285745.378,286245.351,,26,bonds'
screen,html.Screen,2_1_1_1_27,2022-05-12T17:05:11.934Z,,,,,,,,,,,,,,,,,54,,,,,,,,,,,,,,584.7489999940153,,response,,,,100,,,,,,,Space,keypress(Space),,,,,,,,-- --- ---- --- ------ ----- ------- ---- -- --- ------- --<br>------- ---------- ------ -- ----- -- ----- -- ---- ------<br>--- ----- --- --- ------ interest ----- --- ------ ----- --<br>----- ----- ---------- --- --- ------ ------ ---- -- ------<br>------- --- ------ ----- --- ---- ------- -- ---- --- --<br>------- ------,286830.40000000596,286830.09999999404,286238.424,286238.5,286245.351,286835.626,,27,interest
screen,html.Screen,2_1_1_1_28,2022-05-12T17:05:12.471Z,,,,,,,,,,,,,,,,,54,,,,,,,,,,,,,,530.4739999940502,,response,,,,100,,,,,,,Space,keypress(Space),,,,,,,,-- --- ---- --- ------ ----- ------- ---- -- --- ------- --<br>------- ---------- ------ -- ----- -- ----- -- ---- ------<br>--- ----- --- --- ------ -------- rate. --- ------ ----- --<br>----- ----- ---------- --- --- ------ ------ ---- -- ------<br>------- --- ------ ----- --- ---- ------- -- ---- --- --<br>------- ------,287367.09999999404,287366.09999999404,286828.689,286830.5,286835.626,287370.346,,28,rate.
screen,html.Screen,2_1_1_1_29,2022-05-12T17:05:13.039Z,,,,,,,,,,,,,,,,,54,,,,,,,,,,,,,,564.0540000059409,,response,,,,100,,,,,,,Space,keypress(Space),,,,,,,,-- --- ---- --- ------ ----- ------- ---- -- --- ------- --<br>------- ---------- ------ -- ----- -- ----- -- ---- ------<br>--- ----- --- --- ------ -------- ----- The ------ ----- --<br>----- ----- ---------- --- --- ------ ------ ---- -- ------<br>------- --- ------ ----- --- ---- ------- -- ---- --- --<br>------- ------,287935.09999999404,287934.40000000596,287363.411,287367.3000000119,287370.346,287939.757,,29,The
screen,html.Screen,2_1_1_1_30,2022-05-12T17:05:13.678Z,,,,,,,,,,,,,,,,,54,,,,,,,,,,,,,,634.4430000178982,,response,,,,100,,,,,,,Space,keypress(Space),,,,,,,,-- --- ---- --- ------ ----- ------- ---- -- --- ------- --<br>------- ---------- ------ -- ----- -- ----- -- ---- ------<br>--- ----- --- --- ------ -------- ----- --- market ----- --<br>----- ----- ---------- --- --- ------ ------ ---- -- ------<br>------- --- ------ ----- --- ---- ------- -- ---- --- --<br>------- ------,288574.7000000179,288574.2000000179,287932.804,287935.09999999404,287939.757,288578.626,,30,market
screen,html.Screen,2_1_1_1_31,2022-05-12T17:05:14.286Z,,,,,,,,,,,,,,,,,54,,,,,,,,,,,,,,603.3740000000107,,response,,,,100,,,,,,,Space,keypress(Space),,,,,,,,-- --- ---- --- ------ ----- ------- ---- -- --- ------- --<br>------- ---------- ------ -- ----- -- ----- -- ---- ------<br>--- ----- --- --- ------ -------- ----- --- ------ value --<br>----- ----- ---------- --- --- ------ ------ ---- -- ------<br>------- --- ------ ----- --- ---- ------- -- ---- --- --<br>------- ------,289182.59999999404,289182,288571.662,288574.7000000179,288578.626,289189.727,,31,value
screen,html.Screen,2_1_1_1_32,2022-05-12T17:05:14.886Z,,,,,,,,,,,,,,,,,54,,,,,,,,,,,,,,592.372999994026,,response,,,,100,,,,,,,Space,keypress(Space),,,,,,,,-- --- ---- --- ------ ----- ------- ---- -- --- ------- --<br>------- ---------- ------ -- ----- -- ----- -- ---- ------<br>--- ----- --- --- ------ -------- ----- --- ------ ----- of<br>----- ----- ---------- --- --- ------ ------ ---- -- ------<br>------- --- ------ ----- --- ---- ------- -- ---- --- --<br>------- ------,289782.40000000596,289782.09999999404,289182.86,289182.8000000119,289189.727,289786.954,,32,of
screen,html.Screen,2_1_1_1_33,2022-05-12T17:05:15.542Z,,,,,,,,,,,,,,,,,54,,,,,,,,,,,,,,651.1459999940125,,response,,,,100,,,,,,,Space,keypress(Space),,,,,,,,-- --- ---- --- ------ ----- ------- ---- -- --- ------- --<br>------- ---------- ------ -- ----- -- ----- -- ---- ------<br>--- ----- --- --- ------ -------- ----- --- ------ ----- --<br>these ----- ---------- --- --- ------ ------ ---- -- ------<br>------- --- ------ ----- --- ---- ------- -- ---- --- --<br>------- ------,290438.40000000596,290438.09999999404,289780.049,289782.59999999404,289786.954,290439.735,,33,these
screen,html.Screen,2_1_1_1_34,2022-05-12T17:05:16.086Z,,,,,,,,,,,,,,,,,54,,,,,,,,,,,,,,542.3649999940535,,response,,,,100,,,,,,,Space,keypress(Space),,,,,,,,-- --- ---- --- ------ ----- ------- ---- -- --- ------- --<br>------- ---------- ------ -- ----- -- ----- -- ---- ------<br>--- ----- --- --- ------ -------- ----- --- ------ ----- --<br>----- bonds ---------- --- --- ------ ------ ---- -- ------<br>------- --- ------ ----- --- ---- ------- -- ---- --- --<br>------- ------,290982.40000000596,290982.09999999404,290432.764,290438.5,290439.735,290988.315,,34,bonds
screen,html.Screen,2_1_1_1_35,2022-05-12T17:05:16.710Z,,,,,,,,,,,,,,,,,54,,,,,,,,,,,,,,617.7849999940372,,response,,,,100,,,,,,,Space,keypress(Space),,,,,,,,"-- --- ---- --- ------ ----- ------- ---- -- --- ------- --<br>------- ---------- ------ -- ----- -- ----- -- ---- ------<br>--- ----- --- --- ------ -------- ----- --- ------ ----- --<br>----- ----- plummeted, --- --- ------ ------ ---- -- ------<br>------- --- ------ ----- --- ---- ------- -- ---- --- --<br>------- ------",291606.5,291606.09999999404,290981.345,290982.5,290988.315,291613.286,,35,"plummeted,"
screen,html.Screen,2_1_1_1_36,2022-05-12T17:05:17.295Z,,,,,,,,,,,,,,,,,54,,,,,,,,,,,,,,577.3139999940176,,response,,,,100,,,,,,,Space,keypress(Space),,,,,,,,-- --- ---- --- ------ ----- ------- ---- -- --- ------- --<br>------- ---------- ------ -- ----- -- ----- -- ---- ------<br>--- ----- --- --- ------ -------- ----- --- ------ ----- --<br>----- ----- ---------- and --- ------ ------ ---- -- ------<br>------- --- ------ ----- --- ---- ------- -- ---- --- --<br>------- ------,292191.09999999404,292190.59999999404,291606.36,291606.59999999404,291613.286,292196.611,,36,and
screen,html.Screen,2_1_1_1_37,2022-05-12T17:05:17.758Z,,,,,,,,,,,,,,,,,54,,,,,,,,,,,,,,457.5890000179061,,response,,,,100,,,,,,,Space,keypress(Space),,,,,,,,-- --- ---- --- ------ ----- ------- ---- -- --- ------- --<br>------- ---------- ------ -- ----- -- ----- -- ---- ------<br>--- ----- --- --- ------ -------- ----- --- ------ ----- --<br>----- ----- ---------- --- the ------ ------ ---- -- ------<br>------- --- ------ ----- --- ---- ------- -- ---- --- --<br>------- ------,292654.59999999404,292654.2000000179,292189.698,292191.2000000179,292196.611,292661.876,,37,the
screen,html.Screen,2_1_1_1_38,2022-05-12T17:05:18.279Z,,,,,,,,,,,,,,,,,54,,,,,,,,,,,,,,512.7239999940502,,response,,,,100,,,,,,,Space,keypress(Space),,,,,,,,-- --- ---- --- ------ ----- ------- ---- -- --- ------- --<br>------- ---------- ------ -- ----- -- ----- -- ---- ------<br>--- ----- --- --- ------ -------- ----- --- ------ ----- --<br>----- ----- ---------- --- --- market ------ ---- -- ------<br>------- --- ------ ----- --- ---- ------- -- ---- --- --<br>------- ------,293175.09999999404,293174.59999999404,292654.968,292654.7000000179,292661.876,293175.783,,38,market
screen,html.Screen,2_1_1_1_39,2022-05-12T17:05:18.799Z,,,,,,,,,,,,,,,,,54,,,,,,,,,,,,,,518.6170000059647,,response,,,,100,,,,,,,Space,keypress(Space),,,,,,,,-- --- ---- --- ------ ----- ------- ---- -- --- ------- --<br>------- ---------- ------ -- ----- -- ----- -- ---- ------<br>--- ----- --- --- ------ -------- ----- --- ------ ----- --<br>----- ----- ---------- --- --- ------ became ---- -- ------<br>------- --- ------ ----- --- ---- ------- -- ---- --- --<br>------- ------,293695.09999999404,293694.40000000596,293168.858,293175.3000000119,293175.783,293696.614,,39,became
screen,html.Screen,2_1_1_1_40,2022-05-12T17:05:19.246Z,,,,,,,,,,,,,,,,,54,,,,,,,,,,,,,,445.68600001191953,,response,,,,100,,,,,,,Space,keypress(Space),,,,,,,,-- --- ---- --- ------ ----- ------- ---- -- --- ------- --<br>------- ---------- ------ -- ----- -- ----- -- ---- ------<br>--- ----- --- --- ------ -------- ----- --- ------ ----- --<br>----- ----- ---------- --- --- ------ ------ wary -- ------<br>------- --- ------ ----- --- ---- ------- -- ---- --- --<br>------- ------,294142.7000000179,294142.3000000119,293689.69,293695.09999999404,293696.614,294147.963,,40,wary
screen,html.Screen,2_1_1_1_41,2022-05-12T17:05:19.710Z,,,,,,,,,,,,,,,,,54,,,,,,,,,,,,,,458.1369999940507,,response,,,,100,,,,,,,Space,keypress(Space),,,,,,,,-- --- ---- --- ------ ----- ------- ---- -- --- ------- --<br>------- ---------- ------ -- ----- -- ----- -- ---- ------<br>--- ----- --- --- ------ -------- ----- --- ------ ----- --<br>----- ----- ---------- --- --- ------ ------ ---- of ------<br>------- --- ------ ----- --- ---- ------- -- ---- --- --<br>------- ------,294606.59999999404,294606.09999999404,294141.002,294142.8000000119,294147.963,294613.232,,41,of
screen,html.Screen,2_1_1_1_42,2022-05-12T17:05:20.158Z,,,,,,,,,,,,,,,,,54,,,,,,,,,,,,,,440.96800001786323,,response,,,,100,,,,,,,Space,keypress(Space),,,,,,,,-- --- ---- --- ------ ----- ------- ---- -- --- ------- --<br>------- ---------- ------ -- ----- -- ----- -- ---- ------<br>--- ----- --- --- ------ -------- ----- --- ------ ----- --<br>----- ----- ---------- --- --- ------ ------ ---- -- French<br>------- --- ------ ----- --- ---- ------- -- ---- --- --<br>------- ------,295054.59999999404,295054.2000000179,294606.311,294606.8000000119,294613.232,295057.664,,42,French
screen,html.Screen,2_1_1_1_43,2022-05-12T17:05:20.574Z,,,,,,,,,,,,,,,,,54,,,,,,,,,,,,,,412.53600001789164,,response,,,,100,,,,,,,Space,keypress(Space),,,,,,,,-- --- ---- --- ------ ----- ------- ---- -- --- ------- --<br>------- ---------- ------ -- ----- -- ----- -- ---- ------<br>--- ----- --- --- ------ -------- ----- --- ------ ----- --<br>----- ----- ---------- --- --- ------ ------ ---- -- ------<br>credit. --- ------ ----- --- ---- ------- -- ---- --- --<br>------- ------,295470.59999999404,295470.2000000179,295050.744,295054.59999999404,295057.664,295474.327,,43,credit.
screen,html.Screen,2_1_1_1_44,2022-05-12T17:05:21.126Z,,,,,,,,,,,,,,,,,54,,,,,,,,,,,,,,547.9730000119307,,response,,,,100,,,,,,,Space,keypress(Space),,,,,,,,-- --- ---- --- ------ ----- ------- ---- -- --- ------- --<br>------- ---------- ------ -- ----- -- ----- -- ---- ------<br>--- ----- --- --- ------ -------- ----- --- ------ ----- --<br>----- ----- ---------- --- --- ------ ------ ---- -- ------<br>------- The ------ ----- --- ---- ------- -- ---- --- --<br>------- ------,296022.8000000119,296022.3000000119,295467.398,295470.7000000179,295474.327,296029.907,,44,The
screen,html.Screen,2_1_1_1_45,2022-05-12T17:05:21.622Z,,,,,,,,,,,,,,,,,54,,,,,,,,,,,,,,488.192999994033,,response,,,,100,,,,,,,Space,keypress(Space),,,,,,,,-- --- ---- --- ------ ----- ------- ---- -- --- ------- --<br>------- ---------- ------ -- ----- -- ----- -- ---- ------<br>--- ----- --- --- ------ -------- ----- --- ------ ----- --<br>----- ----- ---------- --- --- ------ ------ ---- -- ------<br>------- --- French ----- --- ---- ------- -- ---- --- --<br>------- ------,296518.5,296518.09999999404,296022.954,296022.8000000119,296029.907,296522.926,,45,French
screen,html.Screen,2_1_1_1_46,2022-05-12T17:05:22.135Z,,,,,,,,,,,,,,,,,54,,,,,,,,,,,,,,507.4740000059828,,response,,,,100,,,,,,,Space,keypress(Space),,,,,,,,-- --- ---- --- ------ ----- ------- ---- -- --- ------- --<br>------- ---------- ------ -- ----- -- ----- -- ---- ------<br>--- ----- --- --- ------ -------- ----- --- ------ ----- --<br>----- ----- ---------- --- --- ------ ------ ---- -- ------<br>------- --- ------ state --- ---- ------- -- ---- --- --<br>------- ------,297031,297030.40000000596,296515.992,296518.7000000179,296522.926,297036.796,,46,state
screen,html.Screen,2_1_1_1_47,2022-05-12T17:05:22.654Z,,,,,,,,,,,,,,,,,54,,,,,,,,,,,,,,513.5040000119479,,response,,,,100,,,,,,,Space,keypress(Space),,,,,,,,-- --- ---- --- ------ ----- ------- ---- -- --- ------- --<br>------- ---------- ------ -- ----- -- ----- -- ---- ------<br>--- ----- --- --- ------ -------- ----- --- ------ ----- --<br>----- ----- ---------- --- --- ------ ------ ---- -- ------<br>------- --- ------ ----- was ---- ------- -- ---- --- --<br>------- ------,297550.59999999404,297550.3000000119,297029.942,297031.2000000179,297036.796,297557.612,,47,was
screen,html.Screen,2_1_1_1_48,2022-05-12T17:05:23.086Z,,,,,,,,,,,,,,,,,54,,,,,,,,,,,,,,424.5880000178586,,response,,,,100,,,,,,,Space,keypress(Space),,,,,,,,-- --- ---- --- ------ ----- ------- ---- -- --- ------- --<br>------- ---------- ------ -- ----- -- ----- -- ---- ------<br>--- ----- --- --- ------ -------- ----- --- ------ ----- --<br>----- ----- ---------- --- --- ------ ------ ---- -- ------<br>------- --- ------ ----- --- left ------- -- ---- --- --<br>------- ------,297982.59999999404,297982.2000000179,297550.687,297550.7000000179,297557.612,297988.182,,48,left
screen,html.Screen,2_1_1_1_49,2022-05-12T17:05:23.542Z,,,,,,,,,,,,,,,,,54,,,,,,,,,,,,,,450.0180000179098,,response,,,,100,,,,,,,Space,keypress(Space),,,,,,,,-- --- ---- --- ------ ----- ------- ---- -- --- ------- --<br>------- ---------- ------ -- ----- -- ----- -- ---- ------<br>--- ----- --- --- ------ -------- ----- --- ------ ----- --<br>----- ----- ---------- --- --- ------ ------ ---- -- ------<br>------- --- ------ ----- --- ---- without -- ---- --- --<br>------- ------,298438.7000000179,298438.2000000179,297981.223,297982.8000000119,297988.182,298439.569,,49,without
screen,html.Screen,2_1_1_1_50,2022-05-12T17:05:23.990Z,,,,,,,,,,,,,,,,,54,,,,,,,,,,,,,,446.83100000594277,,response,,,,100,,,,,,,Space,keypress(Space),,,,,,,,-- --- ---- --- ------ ----- ------- ---- -- --- ------- --<br>------- ---------- ------ -- ----- -- ----- -- ---- ------<br>--- ----- --- --- ------ -------- ----- --- ------ ----- --<br>----- ----- ---------- --- --- ------ ------ ---- -- ------<br>------- --- ------ ----- --- ---- ------- an ---- --- --<br>------- ------,298886.8000000119,298886.40000000596,298432.622,298438.7000000179,298439.569,298890.918,,50,an
screen,html.Screen,2_1_1_1_51,2022-05-12T17:05:24.430Z,,,,,,,,,,,,,,,,,54,,,,,,,,,,,,,,435.5819999999949,,response,,,,100,,,,,,,Space,keypress(Space),,,,,,,,-- --- ---- --- ------ ----- ------- ---- -- --- ------- --<br>------- ---------- ------ -- ----- -- ----- -- ---- ------<br>--- ----- --- --- ------ -------- ----- --- ------ ----- --<br>----- ----- ---------- --- --- ------ ------ ---- -- ------<br>------- --- ------ ----- --- ---- ------- -- easy --- --<br>------- ------,299326.8000000119,299326.5,298883.977,298886.90000000596,298890.918,299328.445,,51,easy
screen,html.Screen,2_1_1_1_52,2022-05-12T17:05:24.926Z,,,,,,,,,,,,,,,,,54,,,,,,,,,,,,,,494.054999999993,,response,,,,100,,,,,,,Space,keypress(Space),,,,,,,,-- --- ---- --- ------ ----- ------- ---- -- --- ------- --<br>------- ---------- ------ -- ----- -- ----- -- ---- ------<br>--- ----- --- --- ------ -------- ----- --- ------ ----- --<br>----- ----- ---------- --- --- ------ ------ ---- -- ------<br>------- --- ------ ----- --- ---- ------- -- ---- way --<br>------- ------,299822.90000000596,299822.5,299321.468,299327,299328.445,299828.398,,52,way
screen,html.Screen,2_1_1_1_53,2022-05-12T17:05:25.366Z,,,,,,,,,,,,,,,,,54,,,,,,,,,,,,,,433.8020000178949,,response,,,,100,,,,,,,Space,keypress(Space),,,,,,,,-- --- ---- --- ------ ----- ------- ---- -- --- ------- --<br>------- ---------- ------ -- ----- -- ----- -- ---- ------<br>--- ----- --- --- ------ -------- ----- --- ------ ----- --<br>----- ----- ---------- --- --- ------ ------ ---- -- ------<br>------- --- ------ ----- --- ---- ------- -- ---- --- of<br>------- ------,300262.7000000179,300262.2000000179,299821.509,299823,299828.398,300265.89,,53,of
screen,html.Screen,2_1_1_1_54,2022-05-12T17:05:25.895Z,,,,,,,,,,,,,,,,,54,,,,,,,,,,,,,,524.5100000059465,,response,,,,100,,,,,,,Space,keypress(Space),,,,,,,,-- --- ---- --- ------ ----- ------- ---- -- --- ------- --<br>------- ---------- ------ -- ----- -- ----- -- ---- ------<br>--- ----- --- --- ------ -------- ----- --- ------ ----- --<br>----- ----- ---------- --- --- ------ ------ ---- -- ------<br>------- --- ------ ----- --- ---- ------- -- ---- --- --<br>raising ------,300791.3000000119,300790.40000000596,300259.04,300262.8000000119,300265.89,300793.713,,54,raising
screen,html.Screen,2_1_1_1_55,2022-05-12T17:05:26.534Z,,,,,,,,,,,,,,,,,54,,,,,,,,,,,,,,636.4870000178926,,response,,,,100,,,,,,,Space,keypress(Space),,,,,,,,-- --- ---- --- ------ ----- ------- ---- -- --- ------- --<br>------- ---------- ------ -- ----- -- ----- -- ---- ------<br>--- ----- --- --- ------ -------- ----- --- ------ ----- --<br>----- ----- ---------- --- --- ------ ------ ---- -- ------<br>------- --- ------ ----- --- ---- ------- -- ---- --- --<br>------- money.,301430.59999999404,301430.2000000179,300786.723,300791.40000000596,300793.713,301432.563,,55,money.
Item 100,flow.Loop,2_1_1_1,2022-05-12T17:05:26.534Z,,,,,,,,,,,,,,,,,,,,,,,,,,,,,,,39087.10800001788,,completion,,,,,G,,,,,,,,,,,silence,,,,,301430.8000000119,301430.2000000179,262336.091,262336.59999999404,262343.092,301432.563,,,
Question 1,html.Screen,2_1_1_2,2022-05-12T17:05:30.697Z,,,,,,,,,,,,,,,,,,,,,,,,,,,,true,TRUE,,4160.536999994016,,response,,,,100,G,,,,,,TRUE,click #choice-1,,,,silence,,,,,305593.8000000119,305593.09999999404,301425.615,301430.90000000596,301432.563,305599.14,,,
Question 2,html.Screen,2_1_1_3,2022-05-12T17:05:35.153Z,,,,,,,,,,,,,,,,,,,,,,,,,,,,true,FALSE,,4449.660000011907,,response,,,,100,G,,,,,,FALSE,click #choice-2,,,,silence,,,,,310049.59999999404,310048.8000000119,305592.191,305593.90000000596,305599.14,310050.505,,,
Item 100,flow.Sequence,2_1_1,2022-05-12T17:05:35.153Z,,,,,,,,,,,,,,,,,,,,,,,,,,,,,,,57705.44700001192,,completion,,,,,,,,,,,,,,,,,,,,,310049.8000000119,310048.8000000119,252336.321,252337.70000001788,252343.353,310050.505,,,
End of Practice,html.Page,2_1_2,2022-05-12T17:05:39.185Z,,,,,,,,,,,,,,,,,,,,,,,,,,,,,,,4030.9949999999953,,form submission,,,,,,,,,,,,,,,,,,,,,314081.8000000119,314081.5,310043.535,310049.90000000596,310050.505,314085.087,,,
Practice,flow.Sequence,2_1,2022-05-12T17:05:39.186Z,,,,,,,,,,,,,,,,,,,,,,,,,,,,,,,121591.15599999999,,completion,,,,,,,,,,,,,,,,,,,,,314082,314081.5,192483.363,192490.09999999404,192490.344,314085.087,,,
Trap_instruction,html.Page,2_2_0,2022-05-12T17:05:45.362Z,,,,,,,,,,,,,,,,,,,,,,,,,,,,,,,6172.613000017882,,form submission,,,,,,,,,,,,,,,,,,,,,320257.90000000596,320257.7000000179,314078.123,314082.09999999404,314085.087,320272.452,,,
trap_trial,html.Screen,2_2_1,2022-05-12T17:05:48.601Z,,,,,,,,,,,,,,,,,,,,,,,,,,,,true,1,,3224.248000017891,,response,,,,,,,,,,,1,click #choice-1,,,,,,,,,323497.40000000596,323496.7000000179,320251.632,320258,320272.452,323501.539,,,
end of trap trial,html.Page,2_2_2,2022-05-12T17:05:51.010Z,,,,,,,,,,,,,,,,,,,,,,,,,,,,,,,2404.06099999405,,form submission,,,,,,,,,,,,,,,,,,,,,325905.90000000596,325905.59999999404,323494.57,323497.59999999404,323501.539,325911.204,,,
Trap 1,flow.Sequence,2_2,2022-05-12T17:05:51.010Z,,,,,,,,,,,,,,,,,,,,,,,,,,,,,,,11820.51299999404,,completion,,,,,,,,,,,,,,,,,,,,,325906,325905.59999999404,314078.123,314082,314085.087,325911.204,,,
Standby,html.Page,2_3_0,2022-05-12T17:05:59.008Z,,,,,,,,,,,,,,,,,,,,,,,,,,,,,,,7999.847999999998,,timeout,,,,,,,,,,,,,,,,,,,,,333904.59999999404,333904.161,325904.262,325906.09999999404,325911.204,333911.052,,,
Holding screen,html.Screen,2_3_1_0_0,2022-05-12T17:06:06.008Z,,,,,,,,,,,,,,,,,,,,,,,,,,,,,,,6999.850999999966,,timeout,,,,,,,,,,,,,,,,,,,,,340904.3000000119,340903.953,333904.161,333904.7000000179,333911.052,340910.903,,,
screen,html.Screen,2_3_1_0_1_0,2022-05-12T17:06:07.224Z,,,,,,,,,,,,,,,,,51,,,,,,,,,,,,,,1208.4970000059693,,response,,,,13,G,,,,,,Space,keypress(Space),,,,instrumental,,,,American -------- --- --- ---- --- --- ------ -- --------<br>---- --------- --- ------- ------------ ---------- ---------<br>--- ---------- ------- ---------- ------- -- -------- ----<br>---- --- ------ ----- ------ -- ---- --- ----- -- - -------<br>-------- -- --- --- -- ----- ----------- ----- -----------<br>---- --- ---------- --- ---- --- -- ----------,342120.2000000179,342119.40000000596,340903.953,340904.5,340910.903,342126.159,,0,American
screen,html.Screen,2_3_1_0_1_1,2022-05-12T17:06:08.095Z,,,,,,,,,,,,,,,,,51,,,,,,,,,,,,,,864.7410000059754,,response,,,,13,G,,,,,,Space,keypress(Space),,,,instrumental,,,,-------- industry --- --- ---- --- --- ------ -- --------<br>---- --------- --- ------- ------------ ---------- ---------<br>--- ---------- ------- ---------- ------- -- -------- ----<br>---- --- ------ ----- ------ -- ---- --- ----- -- - -------<br>-------- -- --- --- -- ----- ----------- ----- -----------<br>---- --- ---------- --- ---- --- -- ----------,342991.3000000119,342990.90000000596,342119.267,342120.3000000119,342126.159,342994.244,,1,industry
screen,html.Screen,2_3_1_0_1_2,2022-05-12T17:06:08.607Z,,,,,,,,,,,,,,,,,51,,,,,,,,,,,,,,508.5560000119149,,response,,,,13,G,,,,,,Space,keypress(Space),,,,instrumental,,,,-------- -------- may --- ---- --- --- ------ -- --------<br>---- --------- --- ------- ------------ ---------- ---------<br>--- ---------- ------- ---------- ------- -- -------- ----<br>---- --- ------ ----- ------ -- ---- --- ----- -- - -------<br>-------- -- --- --- -- ----- ----------- ----- -----------<br>---- --- ---------- --- ---- --- -- ----------,343503.2000000179,343502.8000000119,342987.262,342991.40000000596,342994.244,343508.055,,2,may
screen,html.Screen,2_3_1_0_1_3,2022-05-12T17:06:09.407Z,,,,,,,,,,,,,,,,,51,,,,,,,,,,,,,,794.945000000007,,response,,,,13,G,,,,,,Space,keypress(Space),,,,instrumental,,,,-------- -------- --- not ---- --- --- ------ -- --------<br>---- --------- --- ------- ------------ ---------- ---------<br>--- ---------- ------- ---------- ------- -- -------- ----<br>---- --- ------ ----- ------ -- ---- --- ----- -- - -------<br>-------- -- --- --- -- ----- ----------- ----- -----------<br>---- --- ---------- --- ---- --- -- ----------,344303.5,344303,343501.15,343503.3000000119,343508.055,344306.67,,3,not
screen,html.Screen,2_3_1_0_1_4,2022-05-12T17:06:09.959Z,,,,,,,,,,,,,,,,,51,,,,,,,,,,,,,,548.4299999940558,,response,,,,13,G,,,,,,Space,keypress(Space),,,,instrumental,,,,-------- -------- --- --- know --- --- ------ -- --------<br>---- --------- --- ------- ------------ ---------- ---------<br>--- ---------- ------- ---------- ------- -- -------- ----<br>---- --- ------ ----- ------ -- ---- --- ----- -- - -------<br>-------- -- --- --- -- ----- ----------- ----- -----------<br>---- --- ---------- --- ---- --- -- ----------,344855.59999999404,344855.09999999404,344299.739,344303.59999999404,344306.67,344862.204,,4,know
screen,html.Screen,2_3_1_0_1_5,2022-05-12T17:06:10.591Z,,,,,,,,,,,,,,,,,51,,,,,,,,,,,,,,624.6960000059335,,response,,,,13,G,,,,,,Space,keypress(Space),,,,instrumental,,,,"-------- -------- --- --- ---- it, --- ------ -- --------<br>---- --------- --- ------- ------------ ---------- ---------<br>--- ---------- ------- ---------- ------- -- -------- ----<br>---- --- ------ ----- ------ -- ---- --- ----- -- - -------<br>-------- -- --- --- -- ----- ----------- ----- -----------<br>---- --- ---------- --- ---- --- -- ----------",345487.3000000119,345486.90000000596,344855.314,344855.7000000179,344862.204,345494.167,,5,"it,"
screen,html.Screen,2_3_1_0_1_6,2022-05-12T17:06:11.151Z,,,,,,,,,,,,,,,,,51,,,,,,,,,,,,,,552.7330000059446,,response,,,,13,G,,,,,,Space,keypress(Space),,,,instrumental,,,,-------- -------- --- --- ---- --- but ------ -- --------<br>---- --------- --- ------- ------------ ---------- ---------<br>--- ---------- ------- ---------- ------- -- -------- ----<br>---- --- ------ ----- ------ -- ---- --- ----- -- - -------<br>-------- -- --- --- -- ----- ----------- ----- -----------<br>---- --- ---------- --- ---- --- -- ----------,346047.40000000596,346046.90000000596,345487.2,345487.40000000596,345494.167,346049.744,,6,but
screen,html.Screen,2_3_1_0_1_7,2022-05-12T17:06:11.831Z,,,,,,,,,,,,,,,,,51,,,,,,,,,,,,,,677.0560000119149,,response,,,,13,G,,,,,,Space,keypress(Space),,,,instrumental,,,,-------- -------- --- --- ---- --- --- debate -- --------<br>---- --------- --- ------- ------------ ---------- ---------<br>--- ---------- ------- ---------- ------- -- -------- ----<br>---- --- ------ ----- ------ -- ---- --- ----- -- - -------<br>-------- -- --- --- -- ----- ----------- ----- -----------<br>---- --- ---------- --- ---- --- -- ----------,346727.3000000119,346726.8000000119,346042.759,346047.5,346049.744,346730.235,,7,debate
screen,html.Screen,2_3_1_0_1_8,2022-05-12T17:06:12.551Z,,,,,,,,,,,,,,,,,51,,,,,,,,,,,,,,716.6650000059744,,response,,,,13,G,,,,,,Space,keypress(Space),,,,instrumental,,,,-------- -------- --- --- ---- --- --- ------ in --------<br>---- --------- --- ------- ------------ ---------- ---------<br>--- ---------- ------- ---------- ------- -- -------- ----<br>---- --- ------ ----- ------ -- ---- --- ----- -- - -------<br>-------- -- --- --- -- ----- ----------- ----- -----------<br>---- --- ---------- --- ---- --- -- ----------,347447.3000000119,347446.90000000596,346723.296,346727.3000000119,346730.235,347452.408,,8,in
screen,html.Screen,2_3_1_0_1_9,2022-05-12T17:06:13.264Z,,,,,,,,,,,,,,,,,51,,,,,,,,,,,,,,706.9920000059647,,response,,,,13,G,,,,,,Space,keypress(Space),,,,instrumental,,,,-------- -------- --- --- ---- --- --- ------ -- Congress<br>---- --------- --- ------- ------------ ---------- ---------<br>--- ---------- ------- ---------- ------- -- -------- ----<br>---- --- ------ ----- ------ -- ---- --- ----- -- - -------<br>-------- -- --- --- -- ----- ----------- ----- -----------<br>---- --- ---------- --- ---- --- -- ----------,348160.09999999404,348159.40000000596,347445.475,347447.40000000596,347452.408,348167.707,,9,Congress
screen,html.Screen,2_3_1_0_1_10,2022-05-12T17:06:14.015Z,,,,,,,,,,,,,,,,,51,,,,,,,,,,,,,,743.4930000178865,,response,,,,13,G,,,,,,Space,keypress(Space),,,,instrumental,,,,-------- -------- --- --- ---- --- --- ------ -- --------<br>over --------- --- ------- ------------ ---------- ---------<br>--- ---------- ------- ---------- ------- -- -------- ----<br>---- --- ------ ----- ------ -- ---- --- ----- -- - -------<br>-------- -- --- --- -- ----- ----------- ----- -----------<br>---- --- ---------- --- ---- --- -- ----------,348911.59999999404,348911.2000000179,348160.828,348160.3000000119,348167.707,348917.918,,10,over
screen,html.Screen,2_3_1_0_1_11,2022-05-12T17:06:14.919Z,,,,,,,,,,,,,,,,,51,,,,,,,,,,,,,,896.9820000059553,,response,,,,13,G,,,,,,Space,keypress(Space),,,,instrumental,,,,-------- -------- --- --- ---- --- --- ------ -- --------<br>---- reforming --- ------- ------------ ---------- ---------<br>--- ---------- ------- ---------- ------- -- -------- ----<br>---- --- ------ ----- ------ -- ---- --- ----- -- - -------<br>-------- -- --- --- -- ----- ----------- ----- -----------<br>---- --- ---------- --- ---- --- -- ----------,349815.40000000596,349814.90000000596,348910.737,348911.59999999404,348917.918,349820.447,,11,reforming
screen,html.Screen,2_3_1_0_1_12,2022-05-12T17:06:15.455Z,,,,,,,,,,,,,,,,,51,,,,,,,,,,,,,,530.5530000000144,,response,,,,13,G,,,,,,Space,keypress(Space),,,,instrumental,,,,-------- -------- --- --- ---- --- --- ------ -- --------<br>---- --------- the ------- ------------ ---------- ---------<br>--- ---------- ------- ---------- ------- -- -------- ----<br>---- --- ------ ----- ------ -- ---- --- ----- -- - -------<br>-------- -- --- --- -- ----- ----------- ----- -----------<br>---- --- ---------- --- ---- --- -- ----------,350351.40000000596,350351,349813.504,349815.5,349820.447,350355.16,,12,the
screen,html.Screen,2_3_1_0_1_13,2022-05-12T17:06:15.983Z,,,,,,,,,,,,,,,,,51,,,,,,,,,,,,,,524.040000017907,,response,,,,13,G,,,,,,Space,keypress(Space),,,,instrumental,,,,-------- -------- --- --- ---- --- --- ------ -- --------<br>---- --------- --- federal ------------ ---------- ---------<br>--- ---------- ------- ---------- ------- -- -------- ----<br>---- --- ------ ----- ------ -- ---- --- ----- -- - -------<br>-------- -- --- --- -- ----- ----------- ----- -----------<br>---- --- ---------- --- ---- --- -- ----------,350879.7000000179,350879.2000000179,350348.66,350351.5,350355.16,350882.941,,13,federal
screen,html.Screen,2_3_1_0_1_14,2022-05-12T17:06:16.647Z,,,,,,,,,,,,,,,,,51,,,,,,,,,,,,,,660.0590000000084,,response,,,,13,G,,,,,,Space,keypress(Space),,,,instrumental,,,,-------- -------- --- --- ---- --- --- ------ -- --------<br>---- --------- --- ------- government's ---------- ---------<br>--- ---------- ------- ---------- ------- -- -------- ----<br>---- --- ------ ----- ------ -- ---- --- ----- -- - -------<br>-------- -- --- --- -- ----- ----------- ----- -----------<br>---- --- ---------- --- ---- --- -- ----------,351543.5,351543,350875.975,350879.90000000596,350882.941,351549.563,,14,government's
screen,html.Screen,2_3_1_0_1_15,2022-05-12T17:06:17.104Z,,,,,,,,,,,,,,,,,51,,,,,,,,,,,,,,449.8370000059367,,response,,,,13,G,,,,,,Space,keypress(Space),,,,instrumental,,,,-------- -------- --- --- ---- --- --- ------ -- --------<br>---- --------- --- ------- ------------ regulatory ---------<br>--- ---------- ------- ---------- ------- -- -------- ----<br>---- --- ------ ----- ------ -- ---- --- ----- -- - -------<br>-------- -- --- --- -- ----- ----------- ----- -----------<br>---- --- ---------- --- ---- --- -- ----------,351999.90000000596,351999.40000000596,351542.669,351543.5,351549.563,352000.975,,15,regulatory
screen,html.Screen,2_3_1_0_1_16,2022-05-12T17:06:17.711Z,,,,,,,,,,,,,,,,,51,,,,,,,,,,,,,,606.1249999940628,,response,,,,13,G,,,,,,Space,keypress(Space),,,,instrumental,,,,-------- -------- --- --- ---- --- --- ------ -- --------<br>---- --------- --- ------- ------------ ---------- apparatus<br>--- ---------- ------- ---------- ------- -- -------- ----<br>---- --- ------ ----- ------ -- ---- --- ----- -- - -------<br>-------- -- --- --- -- ----- ----------- ----- -----------<br>---- --- ---------- --- ---- --- -- ----------,352607.59999999404,352607.09999999404,351994.03,352000,352000.975,352612.042,,16,apparatus
screen,html.Screen,2_3_1_0_1_17,2022-05-12T17:06:18.359Z,,,,,,,,,,,,,,,,,51,,,,,,,,,,,,,,642.9579999999842,,response,,,,13,G,,,,,,Space,keypress(Space),,,,instrumental,,,,-------- -------- --- --- ---- --- --- ------ -- --------<br>---- --------- --- ------- ------------ ---------- ---------<br>may ---------- ------- ---------- ------- -- -------- ----<br>---- --- ------ ----- ------ -- ---- --- ----- -- - -------<br>-------- -- --- --- -- ----- ----------- ----- -----------<br>---- --- ---------- --- ---- --- -- ----------,353255.3000000119,353255,352605.089,352607.7000000179,352612.042,353257.896,,17,may
screen,html.Screen,2_3_1_0_1_18,2022-05-12T17:06:18.991Z,,,,,,,,,,,,,,,,,51,,,,,,,,,,,,,,629.1039999999921,,response,,,,13,G,,,,,,Space,keypress(Space),,,,instrumental,,,,-------- -------- --- --- ---- --- --- ------ -- --------<br>---- --------- --- ------- ------------ ---------- ---------<br>--- profoundly ------- ---------- ------- -- -------- ----<br>---- --- ------ ----- ------ -- ---- --- ----- -- - -------<br>-------- -- --- --- -- ----- ----------- ----- -----------<br>---- --- ---------- --- ---- --- -- ----------,353887.5,353887,353250.946,353255.40000000596,353257.896,353889.819,,18,profoundly
screen,html.Screen,2_3_1_0_1_19,2022-05-12T17:06:19.631Z,,,,,,,,,,,,,,,,,51,,,,,,,,,,,,,,637.1809999999823,,response,,,,13,G,,,,,,Space,keypress(Space),,,,instrumental,,,,-------- -------- --- --- ---- --- --- ------ -- --------<br>---- --------- --- ------- ------------ ---------- ---------<br>--- ---------- improve ---------- ------- -- -------- ----<br>---- --- ------ ----- ------ -- ---- --- ----- -- - -------<br>-------- -- --- --- -- ----- ----------- ----- -----------<br>---- --- ---------- --- ---- --- -- ----------,354527.40000000596,354527,353882.836,353887.5,353889.819,354528.689,,19,improve
screen,html.Screen,2_3_1_0_1_20,2022-05-12T17:06:20.247Z,,,,,,,,,,,,,,,,,51,,,,,,,,,,,,,,614.310999999987,,response,,,,13,G,,,,,,Space,keypress(Space),,,,instrumental,,,,-------- -------- --- --- ---- --- --- ------ -- --------<br>---- --------- --- ------- ------------ ---------- ---------<br>--- ---------- ------- companies' ------- -- -------- ----<br>---- --- ------ ----- ------ -- ---- --- ----- -- - -------<br>-------- -- --- --- -- ----- ----------- ----- -----------<br>---- --- ---------- --- ---- --- -- ----------,355143.40000000596,355143,354521.734,354527.40000000596,354528.689,355146.706,,20,companies'
screen,html.Screen,2_3_1_0_1_21,2022-05-12T17:06:20.823Z,,,,,,,,,,,,,,,,,51,,,,,,,,,,,,,,572.2939999999944,,response,,,,13,G,,,,,,Space,keypress(Space),,,,instrumental,,,,-------- -------- --- --- ---- --- --- ------ -- --------<br>---- --------- --- ------- ------------ ---------- ---------<br>--- ---------- ------- ---------- ability -- -------- ----<br>---- --- ------ ----- ------ -- ---- --- ----- -- - -------<br>-------- -- --- --- -- ----- ----------- ----- -----------<br>---- --- ---------- --- ---- --- -- ----------,355719.40000000596,355719,355139.762,355143.5,355146.706,355723.1,,21,ability
screen,html.Screen,2_3_1_0_1_22,2022-05-12T17:06:21.439Z,,,,,,,,,,,,,,,,,51,,,,,,,,,,,,,,611.9000000000233,,response,,,,13,G,,,,,,Space,keypress(Space),,,,instrumental,,,,-------- -------- --- --- ---- --- --- ------ -- --------<br>---- --------- --- ------- ------------ ---------- ---------<br>--- ---------- ------- ---------- ------- to -------- ----<br>---- --- ------ ----- ------ -- ---- --- ----- -- - -------<br>-------- -- --- --- -- ----- ----------- ----- -----------<br>---- --- ---------- --- ---- --- -- ----------,356335.5,356335,355716.162,355719.59999999404,355723.1,356341.133,,22,to
screen,html.Screen,2_3_1_0_1_23,2022-05-12T17:06:21.943Z,,,,,,,,,,,,,,,,,51,,,,,,,,,,,,,,498.1670000119484,,response,,,,13,G,,,,,,Space,keypress(Space),,,,instrumental,,,,-------- -------- --- --- ---- --- --- ------ -- --------<br>---- --------- --- ------- ------------ ---------- ---------<br>--- ---------- ------- ---------- ------- -- survive. ----<br>---- --- ------ ----- ------ -- ---- --- ----- -- - -------<br>-------- -- --- --- -- ----- ----------- ----- -----------<br>---- --- ---------- --- ---- --- -- ----------,356839.7000000179,356839.3000000119,356334.208,356335.5,356341.133,356841.154,,23,survive.
screen,html.Screen,2_3_1_0_1_24,2022-05-12T17:06:22.647Z,,,,,,,,,,,,,,,,,51,,,,,,,,,,,,,,701.8460000000196,,response,,,,13,G,,,,,,Space,keypress(Space),,,,instrumental,,,,-------- -------- --- --- ---- --- --- ------ -- --------<br>---- --------- --- ------- ------------ ---------- ---------<br>--- ---------- ------- ---------- ------- -- -------- This<br>---- --- ------ ----- ------ -- ---- --- ----- -- - -------<br>-------- -- --- --- -- ----- ----------- ----- -----------<br>---- --- ---------- --- ---- --- -- ----------,357543.40000000596,357543,356834.24,356839.8000000119,356841.154,357549.443,,24,This
screen,html.Screen,2_3_1_0_1_25,2022-05-12T17:06:23.271Z,,,,,,,,,,,,,,,,,51,,,,,,,,,,,,,,617.5569999999716,,response,,,,13,G,,,,,,Space,keypress(Space),,,,instrumental,,,,-------- -------- --- --- ---- --- --- ------ -- --------<br>---- --------- --- ------- ------------ ---------- ---------<br>--- ---------- ------- ---------- ------- -- -------- ----<br>week --- ------ ----- ------ -- ---- --- ----- -- - -------<br>-------- -- --- --- -- ----- ----------- ----- -----------<br>---- --- ---------- --- ---- --- -- ----------,358167.40000000596,358167,357542.485,357543.5,357549.443,358174.448,,25,week
screen,html.Screen,2_3_1_0_1_26,2022-05-12T17:06:23.831Z,,,,,,,,,,,,,,,,,51,,,,,,,,,,,,,,552.6519999940647,,response,,,,13,G,,,,,,Space,keypress(Space),,,,instrumental,,,,-------- -------- --- --- ---- --- --- ------ -- --------<br>---- --------- --- ------- ------------ ---------- ---------<br>--- ---------- ------- ---------- ------- -- -------- ----<br>---- the ------ ----- ------ -- ---- --- ----- -- - -------<br>-------- -- --- --- -- ----- ----------- ----- -----------<br>---- --- ---------- --- ---- --- -- ----------,358727.5,358727.09999999404,358167.517,358167.5,358174.448,358730.008,,26,the
screen,html.Screen,2_3_1_0_1_27,2022-05-12T17:06:24.359Z,,,,,,,,,,,,,,,,,51,,,,,,,,,,,,,,524.9920000000275,,response,,,,13,G,,,,,,Space,keypress(Space),,,,instrumental,,,,-------- -------- --- --- ---- --- --- ------ -- --------<br>---- --------- --- ------- ------------ ---------- ---------<br>--- ---------- ------- ---------- ------- -- -------- ----<br>---- --- Senate ----- ------ -- ---- --- ----- -- - -------<br>-------- -- --- --- -- ----- ----------- ----- -----------<br>---- --- ---------- --- ---- --- -- ----------,359255.5,359255,358723.085,358728.2000000179,358730.008,359257.759,,27,Senate
screen,html.Screen,2_3_1_0_1_28,2022-05-12T17:06:24.967Z,,,,,,,,,,,,,,,,,51,,,,,,,,,,,,,,605.3409999940195,,response,,,,13,G,,,,,,Space,keypress(Space),,,,instrumental,,,,-------- -------- --- --- ---- --- --- ------ -- --------<br>---- --------- --- ------- ------------ ---------- ---------<br>--- ---------- ------- ---------- ------- -- -------- ----<br>---- --- ------ seems ------ -- ---- --- ----- -- - -------<br>-------- -- --- --- -- ----- ----------- ----- -----------<br>---- --- ---------- --- ---- --- -- ----------,359863.59999999404,359863.09999999404,359250.838,359255.59999999404,359257.759,359868.843,,28,seems
screen,html.Screen,2_3_1_0_1_29,2022-05-12T17:06:25.535Z,,,,,,,,,,,,,,,,,51,,,,,,,,,,,,,,562.256999994046,,response,,,,13,G,,,,,,Space,keypress(Space),,,,instrumental,,,,-------- -------- --- --- ---- --- --- ------ -- --------<br>---- --------- --- ------- ------------ ---------- ---------<br>--- ---------- ------- ---------- ------- -- -------- ----<br>---- --- ------ ----- poised -- ---- --- ----- -- - -------<br>-------- -- --- --- -- ----- ----------- ----- -----------<br>---- --- ---------- --- ---- --- -- ----------,360431.59999999404,360431.09999999404,359861.87,359863.7000000179,359868.843,360438.264,,29,poised
screen,html.Screen,2_3_1_0_1_30,2022-05-12T17:06:26.159Z,,,,,,,,,,,,,,,,,51,,,,,,,,,,,,,,616.8359999940149,,response,,,,13,G,,,,,,Space,keypress(Space),,,,instrumental,,,,-------- -------- --- --- ---- --- --- ------ -- --------<br>---- --------- --- ------- ------------ ---------- ---------<br>--- ---------- ------- ---------- ------- -- -------- ----<br>---- --- ------ ----- ------ to ---- --- ----- -- - -------<br>-------- -- --- --- -- ----- ----------- ----- -----------<br>---- --- ---------- --- ---- --- -- ----------,361055.59999999404,361055.09999999404,360431.337,360431.59999999404,360438.264,361056.336,,30,to
screen,html.Screen,2_3_1_0_1_31,2022-05-12T17:06:26.871Z,,,,,,,,,,,,,,,,,51,,,,,,,,,,,,,,710.7639999940293,,response,,,,13,G,,,,,,Space,keypress(Space),,,,instrumental,,,,-------- -------- --- --- ---- --- --- ------ -- --------<br>---- --------- --- ------- ------------ ---------- ---------<br>--- ---------- ------- ---------- ------- -- -------- ----<br>---- --- ------ ----- ------ -- join --- ----- -- - -------<br>-------- -- --- --- -- ----- ----------- ----- -----------<br>---- --- ---------- --- ---- --- -- ----------,361767.5,361767.09999999404,361049.391,361055.7000000179,361056.336,361771.576,,31,join
screen,html.Screen,2_3_1_0_1_32,2022-05-12T17:06:27.527Z,,,,,,,,,,,,,,,,,51,,,,,,,,,,,,,,651.8240000059595,,response,,,,13,G,,,,,,Space,keypress(Space),,,,instrumental,,,,-------- -------- --- --- ---- --- --- ------ -- --------<br>---- --------- --- ------- ------------ ---------- ---------<br>--- ---------- ------- ---------- ------- -- -------- ----<br>---- --- ------ ----- ------ -- ---- the ----- -- - -------<br>-------- -- --- --- -- ----- ----------- ----- -----------<br>---- --- ---------- --- ---- --- -- ----------,362423.7000000179,362423.40000000596,361764.622,361767.59999999404,361771.576,362431.282,,32,the
screen,html.Screen,2_3_1_0_1_33,2022-05-12T17:06:28.271Z,,,,,,,,,,,,,,,,,51,,,,,,,,,,,,,,736.0180000119144,,response,,,,13,G,,,,,,Space,keypress(Space),,,,instrumental,,,,-------- -------- --- --- ---- --- --- ------ -- --------<br>---- --------- --- ------- ------------ ---------- ---------<br>--- ---------- ------- ---------- ------- -- -------- ----<br>---- --- ------ ----- ------ -- ---- --- House -- - -------<br>-------- -- --- --- -- ----- ----------- ----- -----------<br>---- --- ---------- --- ---- --- -- ----------,363167.7000000179,363167.3000000119,362424.363,362423.8000000119,362431.282,363174.332,,33,House
screen,html.Screen,2_3_1_0_1_34,2022-05-12T17:06:28.992Z,,,,,,,,,,,,,,,,,51,,,,,,,,,,,,,,713.0680000059656,,response,,,,13,G,,,,,,Space,keypress(Space),,,,instrumental,,,,-------- -------- --- --- ---- --- --- ------ -- --------<br>---- --------- --- ------- ------------ ---------- ---------<br>--- ---------- ------- ---------- ------- -- -------- ----<br>---- --- ------ ----- ------ -- ---- --- ----- in - -------<br>-------- -- --- --- -- ----- ----------- ----- -----------<br>---- --- ---------- --- ---- --- -- ----------,363887.90000000596,363887.40000000596,363167.404,363167.8000000119,363174.332,363889.635,,34,in
screen,html.Screen,2_3_1_0_1_35,2022-05-12T17:06:29.551Z,,,,,,,,,,,,,,,,,51,,,,,,,,,,,,,,557.5650000178721,,response,,,,13,G,,,,,,Space,keypress(Space),,,,instrumental,,,,-------- -------- --- --- ---- --- --- ------ -- --------<br>---- --------- --- ------- ------------ ---------- ---------<br>--- ---------- ------- ---------- ------- -- -------- ----<br>---- --- ------ ----- ------ -- ---- --- ----- -- a -------<br>-------- -- --- --- -- ----- ----------- ----- -----------<br>---- --- ---------- --- ---- --- -- ----------,364447.5,364447.2000000179,363882.663,363888,363889.635,364452.069,,35,a
screen,html.Screen,2_3_1_0_1_36,2022-05-12T17:06:30.127Z,,,,,,,,,,,,,,,,,51,,,,,,,,,,,,,,571.1310000178637,,response,,,,13,G,,,,,,Space,keypress(Space),,,,instrumental,,,,-------- -------- --- --- ---- --- --- ------ -- --------<br>---- --------- --- ------- ------------ ---------- ---------<br>--- ---------- ------- ---------- ------- -- -------- ----<br>---- --- ------ ----- ------ -- ---- --- ----- -- - massive<br>-------- -- --- --- -- ----- ----------- ----- -----------<br>---- --- ---------- --- ---- --- -- ----------,365023.59999999404,365023.2000000179,364445.159,364447.59999999404,364452.069,365028.452,,36,massive
screen,html.Screen,2_3_1_0_1_37,2022-05-12T17:06:31.008Z,,,,,,,,,,,,,,,,,51,,,,,,,,,,,,,,875.0480000000098,,response,,,,13,G,,,,,,Space,keypress(Space),,,,instrumental,,,,-------- -------- --- --- ---- --- --- ------ -- --------<br>---- --------- --- ------- ------------ ---------- ---------<br>--- ---------- ------- ---------- ------- -- -------- ----<br>---- --- ------ ----- ------ -- ---- --- ----- -- - -------<br>overhaul -- --- --- -- ----- ----------- ----- -----------<br>---- --- ---------- --- ---- --- -- ----------,365904.40000000596,365903.5,365021.518,365023.7000000179,365028.452,365910.391,,37,overhaul
screen,html.Screen,2_3_1_0_1_38,2022-05-12T17:06:31.623Z,,,,,,,,,,,,,,,,,51,,,,,,,,,,,,,,609.0090000059572,,response,,,,13,G,,,,,,Space,keypress(Space),,,,instrumental,,,,-------- -------- --- --- ---- --- --- ------ -- --------<br>---- --------- --- ------- ------------ ---------- ---------<br>--- ---------- ------- ---------- ------- -- -------- ----<br>---- --- ------ ----- ------ -- ---- --- ----- -- - -------<br>-------- of --- --- -- ----- ----------- ----- -----------<br>---- --- ---------- --- ---- --- -- ----------,366519.7000000179,366519.40000000596,365903.506,365904.59999999404,365910.391,366521.507,,38,of
