sender,sender_type,sender_id,timestamp,meta,,Blues,Classical,Country,Dance,Electronic,Folk,Gospel,Hip-Hop,Jazz,Latin,Musical/Film,New-age,Pop,Prolific_id,Provo_ID,R&B,Rap,Reggae,Religious,Rock,Soul,Swing,Traditional,age,artist_name,correct,correctResponse,distraction,duration,education,ended_on,familiarity,gender,headphone_check_performance,item,list,music_frequency,offensiveness,pleasantness,position_correct,preference,response,response_action,snippet_file,song_name,song_rating,sound,stimulus_1,stimulus_2,stimulus_3,text,time_commit,time_end,time_render,time_run,time_show,time_switch,url,word,word_ID
Prolific ID,html.Form,0,2022-05-12T21:34:48.006Z,"{""labjs_version"":""20.2.2"",""labjs_build"":{""flavor"":""production"",""commit"":""a25486e0c714a0ae2ce03ff94b7bb6896854dcfa""},""location"":""https://run.pavlovia.org/mvasilev/prolific3_music_e/"",""userAgent"":""Mozilla/5.0 (Windows NT 6.1; Win64; x64) AppleWebKit/537.36 (KHTML, like Gecko) Chrome/101.0.4951.54 Safari/537.36"",""platform"":""Win32"",""language"":""en-US"",""locale"":""en-US"",""timeZone"":""Europe/London"",""timezoneOffset"":-60,""screen_width"":1920,""screen_height"":1080,""scroll_width"":1920,""scroll_height"":921,""window_innerWidth"":1920,""window_innerHeight"":969,""devicePixelRatio"":1}",,,,,,,,,,,,,,,5f6fb649d4da20577e29c9fa,,,,,,,,,,,,,,,18337.002,,form submission,,,,,,,,,,,,,,,,,,,,,49955,49954,29731.819,31413,31616.998,51169.474,{},,
Introduction,html.Screen,1_0,2022-05-12T21:34:58.818Z,,,,,,,,,,,,,,,,,,,,,,,,,,,,,,,9594.525999999998,,response,,,,,,,,,,,continue,click button,,,,,,,,,60767,60764,49668.004,49955,51169.474,60962.395,,,
Volume calibration,html.Screen,1_1,2022-05-12T21:35:52.191Z,,,,,,,,,,,,,,,,,,,,,,,,,,,,,,,53169.605,,response,,,,,,,,,,,continue,click button,,,,,,,,,114139,114132,60762.199,60768,60962.395,114197.848,,,
Task instructions,html.Screen,1_2,2022-05-12T21:36:01.329Z,,,,,,,,,,,,,,,,,,,,,,,,,,,,,,,9078.152000000002,,response,,,,,,,,,,,continue,click button,,,,,,,,,123277,123276,114131.116,114139,114197.848,123373.498,,,
Sounds,html.Screen,1_3_0_0,2022-05-12T21:36:05.785Z,,,,,,,,,,,,,,,,,,,,,,,,,,,,,,,4354.262999999992,,timeout,,,,,,,,,2,,,,,,,,I,S,O,,127733,127610.98,123273.4,123277,123373.498,127727.761,,,
Judgement,html.Screen,1_3_0_1,2022-05-12T21:36:08.065Z,,,,,,,,,,,,,,,,,,,,,,,,,,,,true,2,,2284.2390000000014,,response,,,,,,,,,2,,2,click #choice-2,,,,,I,S,O,,130013,130012,127610.98,127733,127727.761,130013.332,,,
Trial,flow.Sequence,1_3_0,2022-05-12T21:36:08.065Z,,,,,,,,,,,,,,,,,,,,,,,,,,,,,,,6638.501999999993,,completion,,,,,,,,,2,,,,,,,,I,S,O,,130013,130012,123273.4,123277,123373.498,130013.332,,,
Sounds,html.Screen,1_3_1_0,2022-05-12T21:36:12.306Z,,,,,,,,,,,,,,,,,,,,,,,,,,,,,,,4254.165000000008,,timeout,,,,,,,,,3,,,,,,,,O,I,S,,134254,134250.814,129996.649,130014,130013.332,134267.497,,,
Judgement,html.Screen,1_3_1_1,2022-05-12T21:36:13.857Z,,,,,,,,,,,,,,,,,,,,,,,,,,,,true,3,,1535.502999999997,,response,,,,,,,,,3,,3,click #choice-3,,,,,O,I,S,,135805,135803,134250.814,134254,134267.497,135819.016,,,
Trial,flow.Sequence,1_3_1,2022-05-12T21:36:13.857Z,,,,,,,,,,,,,,,,,,,,,,,,,,,,,,,5789.668000000005,,completion,,,,,,,,,3,,,,,,,,O,I,S,,135805,135803,129996.649,130014,130013.332,135819.016,,,
Sounds,html.Screen,1_3_2_0,2022-05-12T21:36:18.113Z,,,,,,,,,,,,,,,,,,,,,,,,,,,,,,,4254.165000000008,,timeout,,,,,,,,,1,,,,,,,,S,O,I,,140061,140056.498,135802.333,135805,135819.016,140073.181,,,
Judgement,html.Screen,1_3_2_1,2022-05-12T21:36:19.065Z,,,,,,,,,,,,,,,,,,,,,,,,,,,,true,1,,938.8189999999886,,response,,,,,,,,,1,,1,click #choice-1,,,,,S,O,I,,141013,141012,140056.498,140061,140073.181,141024.112,,,
Trial,flow.Sequence,1_3_2,2022-05-12T21:36:19.066Z,,,,,,,,,,,,,,,,,,,,,,,,,,,,,,,5192.983999999997,,completion,,,,,,,,,1,,,,,,,,S,O,I,,141014,141012,135802.333,135805,135819.016,141024.112,,,
Sounds,html.Screen,1_3_3_0,2022-05-12T21:36:23.318Z,,,,,,,,,,,,,,,,,,,,,,,,,,,,,,,4254.165000000008,,timeout,,,,,,,,,3,,,,,,,,I,O,S,,145266,145261.594,141007.429,141014,141024.112,145278.277,,,
Judgement,html.Screen,1_3_3_1,2022-05-12T21:36:24.497Z,,,,,,,,,,,,,,,,,,,,,,,,,,,,true,3,,1165.7229999999981,,response,,,,,,,,,3,,3,click #choice-3,,,,,I,O,S,,146445,146444,145261.594,145267,145278.277,146446.087,,,
Trial,flow.Sequence,1_3_3,2022-05-12T21:36:24.497Z,,,,,,,,,,,,,,,,,,,,,,,,,,,,,,,5419.888000000006,,completion,,,,,,,,,3,,,,,,,,I,O,S,,146445,146444,141007.429,141014,141024.112,146446.087,,,
Sounds,html.Screen,1_3_4_0,2022-05-12T21:36:28.740Z,,,,,,,,,,,,,,,,,,,,,,,,,,,,,,,4254.165000000008,,timeout,,,,,,,,,2,,,,,,,,O,S,I,,150688,150683.569,146429.404,146445,146446.087,150700.252,,,
Judgement,html.Screen,1_3_4_1,2022-05-12T21:36:30.241Z,,,,,,,,,,,,,,,,,,,,,,,,,,,,true,2,,1487.7479999999923,,response,,,,,,,,,2,,2,click #choice-2,,,,,O,S,I,,152189,152188,150683.569,150688,150700.252,152201.722,,,
Trial,flow.Sequence,1_3_4,2022-05-12T21:36:30.241Z,,,,,,,,,,,,,,,,,,,,,,,,,,,,,,,5741.9130000000005,,completion,,,,,,,,,2,,,,,,,,O,S,I,,152189,152188,146429.404,146445,146446.087,152201.722,,,
Sounds,html.Screen,1_3_5_0,2022-05-12T21:36:34.495Z,,,,,,,,,,,,,,,,,,,,,,,,,,,,,,,4254.164999999979,,timeout,,,,,,,,,1,,,,,,,,S,I,O,,156443,156439.204,152185.039,152189,152201.722,156455.887,,,
Judgement,html.Screen,1_3_5_1,2022-05-12T21:36:35.767Z,,,,,,,,,,,,,,,,,,,,,,,,,,,,true,1,,1256.113000000012,,response,,,,,,,,,1,,1,click #choice-1,,,,,S,I,O,,157715,157712,156439.204,156443,156455.887,157723.795,,,
Trial,flow.Sequence,1_3_5,2022-05-12T21:36:35.767Z,,,,,,,,,,,,,,,,,,,,,,,,,,,,,,,5510.277999999991,,completion,,,,,,,,,1,,,,,,,,S,I,O,,157715,157712,152185.039,152189,152201.722,157723.795,,,
Task,flow.Loop,1_3,2022-05-12T21:36:35.778Z,,,,,,,,,,,,,,,,,,,,,,,,,,,,,,,34338.50199999999,,completion,,,1,,,,,,,,,,,,,,,,,,157726,157712,123273.4,123277,123373.498,157723.795,,,
Trap,html.Screen,1_4,2022-05-12T21:36:35.780Z,,,,,,,,,,,,,,,,,,,,,,,,,,,,,,,NaN,,skipped,,,,,,,,,,,,,,,,,,,,,157728,157712,,157728,,157723.795,,,
Thanks,html.Screen,1_5,2022-05-12T21:36:41.849Z,,,,,,,,,,,,,,,,,,,,,,,,,,,,,,,6072.204999999987,,response,,,,,,,,,,,continue,click button,,,,,,,,,163797,163796,157707.112,157728,157723.795,171287.074,,,
Headphone screening,flow.Sequence,1,2022-05-12T21:36:41.849Z,,,,,,,,,,,,,,,,,,,,,,,,,,,,,,,112626.526,,completion,,,,,,,,,,,,,,,,,,,,,163797,163796,49668.004,49955,51169.474,171287.074,,,
Instructions,html.Page,2_0,2022-05-12T21:37:08.470Z,,,,,,,,,,,,,,,,,,,,,,,,,,,,,,,19129.926000000007,,form submission,,,,,,,,,,,,,,,,,,,,,190418,190417,170336.143,171203,171287.074,190422.475,,,
Holding screen,html.Screen,2_1_0_0,2022-05-12T21:37:18.455Z,,,,,,,,,,,,,,,,,,,,,,,,,,,,,,,10910.682,,timeout,,,,,,,,,,,,,,,,,,,,,200403,200398.909,190372.426,190418,190422.475,201333.157,,,
screen,html.Screen,2_1_0_1_0,2022-05-12T21:37:19.406Z,,,,,,,,,,,,,,,,,53,,,,,,,,,,,,,,160.0909999999858,,response,,,,99,,,,,,,Space,keypress(Space),,,,,,,,When -- ----- -- ------ - ------- --- ----------<br>------------- ------ ------ ---- ---- ------- ----- -- ----<br>-------- ------- -- ---------- --- - --- ----- ----- ----<br>---- --- --- ----- --- ---- ---- ------- ----- ---- -------<br>--- --- -- ----- -- --- ---- -- --- ---- -- ------ ------<br>--- ----- -- ----,201354,200559,200398.909,200404,,201516.67,,0,When
screen,html.Screen,2_1_0_1_1,2022-05-12T21:37:21.675Z,,,,,,,,,,,,,,,,,53,,,,,,,,,,,,,,2105.329999999987,,response,,,,99,,,,,,,Space,keypress(Space),,,,,,,,---- it ----- -- ------ - ------- --- ----------<br>------------- ------ ------ ---- ---- ------- ----- -- ----<br>-------- ------- -- ---------- --- - --- ----- ----- ----<br>---- --- --- ----- --- ---- ---- ------- ----- ---- -------<br>--- --- -- ----- -- --- ---- -- --- ---- -- ------ ------<br>--- ----- -- ----,203623,203622,201333.157,201354,201516.67,203635.411,,1,it
screen,html.Screen,2_1_0_1_2,2022-05-12T21:37:22.627Z,,,,,,,,,,,,,,,,,53,,,,,,,,,,,,,,938.5890000000072,,response,,,,99,,,,,,,Space,keypress(Space),,,,,,,,---- -- comes -- ------ - ------- --- ----------<br>------------- ------ ------ ---- ---- ------- ----- -- ----<br>-------- ------- -- ---------- --- - --- ----- ----- ----<br>---- --- --- ----- --- ---- ---- ------- ----- ---- -------<br>--- --- -- ----- -- --- ---- -- --- ---- -- ------ ------<br>--- ----- -- ----,204575,204574,203618.728,203623,203635.411,204586.342,,2,comes
screen,html.Screen,2_1_0_1_3,2022-05-12T21:37:23.523Z,,,,,,,,,,,,,,,,,53,,,,,,,,,,,,,,883.6579999999958,,response,,,,99,,,,,,,Space,keypress(Space),,,,,,,,---- -- ----- to ------ - ------- --- ----------<br>------------- ------ ------ ---- ---- ------- ----- -- ----<br>-------- ------- -- ---------- --- - --- ----- ----- ----<br>---- --- --- ----- --- ---- ---- ------- ----- ---- -------<br>--- --- -- ----- -- --- ---- -- --- ---- -- ------ ------<br>--- ----- -- ----,205471,205470,204569.659,204575,204586.342,205487.224,,3,to
screen,html.Screen,2_1_0_1_4,2022-05-12T21:37:24.427Z,,,,,,,,,,,,,,,,,53,,,,,,,,,,,,,,886.7760000000126,,response,,,,99,,,,,,,Space,keypress(Space),,,,,,,,---- -- ----- -- having - ------- --- ----------<br>------------- ------ ------ ---- ---- ------- ----- -- ----<br>-------- ------- -- ---------- --- - --- ----- ----- ----<br>---- --- --- ----- --- ---- ---- ------- ----- ---- -------<br>--- --- -- ----- -- --- ---- -- --- ---- -- ------ ------<br>--- ----- -- ----,206375,206374,205470.541,205471,205487.224,206388.106,,4,having
screen,html.Screen,2_1_0_1_5,2022-05-12T21:37:25.499Z,,,,,,,,,,,,,,,,,53,,,,,,,,,,,,,,1057.8940000000002,,response,,,,99,,,,,,,Space,keypress(Space),,,,,,,,---- -- ----- -- ------ a ------- --- ----------<br>------------- ------ ------ ---- ---- ------- ----- -- ----<br>-------- ------- -- ---------- --- - --- ----- ----- ----<br>---- --- --- ----- --- ---- ---- ------- ----- ---- -------<br>--- --- -- ----- -- --- ---- -- --- ---- -- ------ ------<br>--- ----- -- ----,207447,207446,206371.423,206375,206388.106,207455.818,,5,a
screen,html.Screen,2_1_0_1_6,2022-05-12T21:37:26.139Z,,,,,,,,,,,,,,,,,53,,,,,,,,,,,,,,630.1820000000007,,response,,,,99,,,,,,,Space,keypress(Space),,,,,,,,---- -- ----- -- ------ - lasting --- ----------<br>------------- ------ ------ ---- ---- ------- ----- -- ----<br>-------- ------- -- ---------- --- - --- ----- ----- ----<br>---- --- --- ----- --- ---- ---- ------- ----- ---- -------<br>--- --- -- ----- -- --- ---- -- --- ---- -- ------ ------<br>--- ----- -- ----,208087,208086,207439.135,207447,207455.818,208089.772,,6,lasting
screen,html.Screen,2_1_0_1_7,2022-05-12T21:37:26.779Z,,,,,,,,,,,,,,,,,53,,,,,,,,,,,,,,636.2280000000028,,response,,,,99,,,,,,,Space,keypress(Space),,,,,,,,---- -- ----- -- ------ - ------- and ----------<br>------------- ------ ------ ---- ---- ------- ----- -- ----<br>-------- ------- -- ---------- --- - --- ----- ----- ----<br>---- --- --- ----- --- ---- ---- ------- ----- ---- -------<br>--- --- -- ----- -- --- ---- -- --- ---- -- ------ ------<br>--- ----- -- ----,208727,208726,208073.089,208087,208089.772,208740.409,,7,and
screen,html.Screen,2_1_0_1_8,2022-05-12T21:37:27.378Z,,,,,,,,,,,,,,,,,53,,,,,,,,,,,,,,585.5909999999858,,response,,,,99,,,,,,,Space,keypress(Space),,,,,,,,---- -- ----- -- ------ - ------- --- fulfilling<br>------------- ------ ------ ---- ---- ------- ----- -- ----<br>-------- ------- -- ---------- --- - --- ----- ----- ----<br>---- --- --- ----- --- ---- ---- ------- ----- ---- -------<br>--- --- -- ----- -- --- ---- -- --- ---- -- ------ ------<br>--- ----- -- ----,209326,209326,208723.726,208727,208740.409,209340.997,,8,fulfilling
screen,html.Screen,2_1_0_1_9,2022-05-12T21:37:27.931Z,,,,,,,,,,,,,,,,,53,,,,,,,,,,,,,,537.002999999997,,response,,,,99,,,,,,,Space,keypress(Space),,,,,,,,"---- -- ----- -- ------ - ------- --- ----------<br>relationship, ------ ------ ---- ---- ------- ----- -- ----<br>-------- ------- -- ---------- --- - --- ----- ----- ----<br>---- --- --- ----- --- ---- ---- ------- ----- ---- -------<br>--- --- -- ----- -- --- ---- -- --- ---- -- ------ ------<br>--- ----- -- ----",209879,209878,209324.314,209327,209340.997,209891.536,,9,"relationship,"
screen,html.Screen,2_1_0_1_10,2022-05-12T21:37:28.524Z,,,,,,,,,,,,,,,,,53,,,,,,,,,,,,,,579.4640000000072,,response,,,,99,,,,,,,Space,keypress(Space),,,,,,,,---- -- ----- -- ------ - ------- --- ----------<br>------------- common ------ ---- ---- ------- ----- -- ----<br>-------- ------- -- ---------- --- - --- ----- ----- ----<br>---- --- --- ----- --- ---- ---- ------- ----- ---- -------<br>--- --- -- ----- -- --- ---- -- --- ---- -- ------ ------<br>--- ----- -- ----,210472,210471,209874.853,209879,209891.536,210475.441,,10,common
screen,html.Screen,2_1_0_1_11,2022-05-12T21:37:29.196Z,,,,,,,,,,,,,,,,,53,,,,,,,,,,,,,,667.5590000000084,,response,,,,99,,,,,,,Space,keypress(Space),,,,,,,,---- -- ----- -- ------ - ------- --- ----------<br>------------- ------ wisdom ---- ---- ------- ----- -- ----<br>-------- ------- -- ---------- --- - --- ----- ----- ----<br>---- --- --- ----- --- ---- ---- ------- ----- ---- -------<br>--- --- -- ----- -- --- ---- -- --- ---- -- ------ ------<br>--- ----- -- ----,211144,211143,210458.758,210472,210475.441,211159.444,,11,wisdom
screen,html.Screen,2_1_0_1_12,2022-05-12T21:37:30.371Z,,,,,,,,,,,,,,,,,53,,,,,,,,,,,,,,1159.5560000000114,,response,,,,99,,,,,,,Space,keypress(Space),,,,,,,,---- -- ----- -- ------ - ------- --- ----------<br>------------- ------ ------ says ---- ------- ----- -- ----<br>-------- ------- -- ---------- --- - --- ----- ----- ----<br>---- --- --- ----- --- ---- ---- ------- ----- ---- -------<br>--- --- -- ----- -- --- ---- -- --- ---- -- ------ ------<br>--- ----- -- ----,212319,212319,211142.761,211144,211159.444,212327.254,,12,says
screen,html.Screen,2_1_0_1_13,2022-05-12T21:37:30.932Z,,,,,,,,,,,,,,,,,53,,,,,,,,,,,,,,551.7460000000137,,response,,,,99,,,,,,,Space,keypress(Space),,,,,,,,---- -- ----- -- ------ - ------- --- ----------<br>------------- ------ ------ ---- that ------- ----- -- ----<br>-------- ------- -- ---------- --- - --- ----- ----- ----<br>---- --- --- ----- --- ---- ---- ------- ----- ---- -------<br>--- --- -- ----- -- --- ---- -- --- ---- -- ------ ------<br>--- ----- -- ----,212880,212879,212310.571,212320,212327.254,212894.476,,13,that
screen,html.Screen,2_1_0_1_14,2022-05-12T21:37:31.564Z,,,,,,,,,,,,,,,,,53,,,,,,,,,,,,,,616.5240000000049,,response,,,,99,,,,,,,Space,keypress(Space),,,,,,,,---- -- ----- -- ------ - ------- --- ----------<br>------------- ------ ------ ---- ---- feeling ----- -- ----<br>-------- ------- -- ---------- --- - --- ----- ----- ----<br>---- --- --- ----- --- ---- ---- ------- ----- ---- -------<br>--- --- -- ----- -- --- ---- -- --- ---- -- ------ ------<br>--- ----- -- ----,213512,213511,212877.793,212880,212894.476,213528.43,,14,feeling
screen,html.Screen,2_1_0_1_15,2022-05-12T21:37:32.075Z,,,,,,,,,,,,,,,,,53,,,,,,,,,,,,,,494.570000000007,,response,,,,99,,,,,,,Space,keypress(Space),,,,,,,,---- -- ----- -- ------ - ------- --- ----------<br>------------- ------ ------ ---- ---- ------- close -- ----<br>-------- ------- -- ---------- --- - --- ----- ----- ----<br>---- --- --- ----- --- ---- ---- ------- ----- ---- -------<br>--- --- -- ----- -- --- ---- -- --- ---- -- ------ ------<br>--- ----- -- ----,214023,214023,213511.747,213512,213528.43,214028.92,,15,close
screen,html.Screen,2_1_0_1_16,2022-05-12T21:37:32.507Z,,,,,,,,,,,,,,,,,53,,,,,,,,,,,,,,426.0799999999872,,response,,,,99,,,,,,,Space,keypress(Space),,,,,,,,---- -- ----- -- ------ - ------- --- ----------<br>------------- ------ ------ ---- ---- ------- ----- to ----<br>-------- ------- -- ---------- --- - --- ----- ----- ----<br>---- --- --- ----- --- ---- ---- ------- ----- ---- -------<br>--- --- -- ----- -- --- ---- -- --- ---- -- ------ ------<br>--- ----- -- ----,214455,214455,214012.237,214023,214028.92,214462.678,,16,to
screen,html.Screen,2_1_0_1_17,2022-05-12T21:37:32.988Z,,,,,,,,,,,,,,,,,53,,,,,,,,,,,,,,472.32199999998556,,response,,,,99,,,,,,,Space,keypress(Space),,,,,,,,---- -- ----- -- ------ - ------- --- ----------<br>------------- ------ ------ ---- ---- ------- ----- -- your<br>-------- ------- -- ---------- --- - --- ----- ----- ----<br>---- --- --- ----- --- ---- ---- ------- ----- ---- -------<br>--- --- -- ----- -- --- ---- -- --- ---- -- ------ ------<br>--- ----- -- ----,214936,214935,214445.995,214455,214462.678,214946.485,,17,your
screen,html.Screen,2_1_0_1_18,2022-05-12T21:37:33.899Z,,,,,,,,,,,,,,,,,53,,,,,,,,,,,,,,900.515000000014,,response,,,,99,,,,,,,Space,keypress(Space),,,,,,,,---- -- ----- -- ------ - ------- --- ----------<br>------------- ------ ------ ---- ---- ------- ----- -- ----<br>romantic ------- -- ---------- --- - --- ----- ----- ----<br>---- --- --- ----- --- ---- ---- ------- ----- ---- -------<br>--- --- -- ----- -- --- ---- -- --- ---- -- ------ ------<br>--- ----- -- ----,215847,215847,214929.802,214936,214946.485,215864.05,,18,romantic
screen,html.Screen,2_1_0_1_19,2022-05-12T21:37:34.411Z,,,,,,,,,,,,,,,,,53,,,,,,,,,,,,,,494.95000000001164,,response,,,,99,,,,,,,Space,keypress(Space),,,,,,,,---- -- ----- -- ------ - ------- --- ----------<br>------------- ------ ------ ---- ---- ------- ----- -- ----<br>-------- partner -- ---------- --- - --- ----- ----- ----<br>---- --- --- ----- --- ---- ---- ------- ----- ---- -------<br>--- --- -- ----- -- --- ---- -- --- ---- -- ------ ------<br>--- ----- -- ----,216359,216359,215847.367,215848,215864.05,216364.54,,19,partner
screen,html.Screen,2_1_0_1_20,2022-05-12T21:37:34.852Z,,,,,,,,,,,,,,,,,53,,,,,,,,,,,,,,434.45999999999185,,response,,,,99,,,,,,,Space,keypress(Space),,,,,,,,---- -- ----- -- ------ - ------- --- ----------<br>------------- ------ ------ ---- ---- ------- ----- -- ----<br>-------- ------- is ---------- --- - --- ----- ----- ----<br>---- --- --- ----- --- ---- ---- ------- ----- ---- -------<br>--- --- -- ----- -- --- ---- -- --- ---- -- ------ ------<br>--- ----- -- ----,216800,216799,216347.857,216360,216364.54,216814.981,,20,is
screen,html.Screen,2_1_0_1_21,2022-05-12T21:37:35.315Z,,,,,,,,,,,,,,,,,53,,,,,,,,,,,,,,447.01900000000023,,response,,,,99,,,,,,,Space,keypress(Space),,,,,,,,---- -- ----- -- ------ - ------- --- ----------<br>------------- ------ ------ ---- ---- ------- ----- -- ----<br>-------- ------- -- paramount. --- - --- ----- ----- ----<br>---- --- --- ----- --- ---- ---- ------- ----- ---- -------<br>--- --- -- ----- -- --- ---- -- --- ---- -- ------ ------<br>--- ----- -- ----,217263,217262,216798.298,216800,216814.981,217265.422,,21,paramount.
screen,html.Screen,2_1_0_1_22,2022-05-12T21:37:35.852Z,,,,,,,,,,,,,,,,,53,,,,,,,,,,,,,,533.5780000000086,,response,,,,99,,,,,,,Space,keypress(Space),,,,,,,,---- -- ----- -- ------ - ------- --- ----------<br>------------- ------ ------ ---- ---- ------- ----- -- ----<br>-------- ------- -- ---------- But - --- ----- ----- ----<br>---- --- --- ----- --- ---- ---- ------- ----- ---- -------<br>--- --- -- ----- -- --- ---- -- --- ---- -- ------ ------<br>--- ----- -- ----,217800,217799,217248.739,217263,217265.422,217815.961,,22,But
screen,html.Screen,2_1_0_1_23,2022-05-12T21:37:36.355Z,,,,,,,,,,,,,,,,,53,,,,,,,,,,,,,,486.03899999998976,,response,,,,99,,,,,,,Space,keypress(Space),,,,,,,,---- -- ----- -- ------ - ------- --- ----------<br>------------- ------ ------ ---- ---- ------- ----- -- ----<br>-------- ------- -- ---------- --- a --- ----- ----- ----<br>---- --- --- ----- --- ---- ---- ------- ----- ---- -------<br>--- --- -- ----- -- --- ---- -- --- ---- -- ------ ------<br>--- ----- -- ----,218303,218302,217799.278,217800,217815.961,218316.451,,23,a
screen,html.Screen,2_1_0_1_24,2022-05-12T21:37:36.852Z,,,,,,,,,,,,,,,,,53,,,,,,,,,,,,,,482.54899999999907,,response,,,,99,,,,,,,Space,keypress(Space),,,,,,,,---- -- ----- -- ------ - ------- --- ----------<br>------------- ------ ------ ---- ---- ------- ----- -- ----<br>-------- ------- -- ---------- --- - new ----- ----- ----<br>---- --- --- ----- --- ---- ---- ------- ----- ---- -------<br>--- --- -- ----- -- --- ---- -- --- ---- -- ------ ------<br>--- ----- -- ----,218800,218799,218299.768,218303,218316.451,218816.941,,24,new
screen,html.Screen,2_1_0_1_25,2022-05-12T21:37:37.363Z,,,,,,,,,,,,,,,,,53,,,,,,,,,,,,,,494.0590000000084,,response,,,,99,,,,,,,Space,keypress(Space),,,,,,,,---- -- ----- -- ------ - ------- --- ----------<br>------------- ------ ------ ---- ---- ------- ----- -- ----<br>-------- ------- -- ---------- --- - --- study ----- ----<br>---- --- --- ----- --- ---- ---- ------- ----- ---- -------<br>--- --- -- ----- -- --- ---- -- --- ---- -- ------ ------<br>--- ----- -- ----,219311,219311,218800.258,218800,218816.941,219317.431,,25,study
screen,html.Screen,2_1_0_1_26,2022-05-12T21:37:37.875Z,,,,,,,,,,,,,,,,,53,,,,,,,,,,,,,,504.5689999999886,,response,,,,99,,,,,,,Space,keypress(Space),,,,,,,,---- -- ----- -- ------ - ------- --- ----------<br>------------- ------ ------ ---- ---- ------- ----- -- ----<br>-------- ------- -- ---------- --- - --- ----- finds ----<br>---- --- --- ----- --- ---- ---- ------- ----- ---- -------<br>--- --- -- ----- -- --- ---- -- --- ---- -- ------ ------<br>--- ----- -- ----,219823,219822,219300.748,219311,219317.431,219834.604,,26,finds
screen,html.Screen,2_1_0_1_27,2022-05-12T21:37:38.700Z,,,,,,,,,,,,,,,,,53,,,,,,,,,,,,,,812.3960000000079,,response,,,,99,,,,,,,Space,keypress(Space),,,,,,,,---- -- ----- -- ------ - ------- --- ----------<br>------------- ------ ------ ---- ---- ------- ----- -- ----<br>-------- ------- -- ---------- --- - --- ----- ----- that<br>---- --- --- ----- --- ---- ---- ------- ----- ---- -------<br>--- --- -- ----- -- --- ---- -- --- ---- -- ------ ------<br>--- ----- -- ----,220648,220647,219817.921,219823,219834.604,220652.071,,27,that
screen,html.Screen,2_1_0_1_28,2022-05-12T21:37:39.211Z,,,,,,,,,,,,,,,,,53,,,,,,,,,,,,,,506.9290000000037,,response,,,,99,,,,,,,Space,keypress(Space),,,,,,,,---- -- ----- -- ------ - ------- --- ----------<br>------------- ------ ------ ---- ---- ------- ----- -- ----<br>-------- ------- -- ---------- --- - --- ----- ----- ----<br>it's --- --- ----- --- ---- ---- ------- ----- ---- -------<br>--- --- -- ----- -- --- ---- -- --- ---- -- ------ ------<br>--- ----- -- ----,221159,221159,220635.388,220648,220652.071,221169.244,,28,it's
screen,html.Screen,2_1_0_1_29,2022-05-12T21:37:39.683Z,,,,,,,,,,,,,,,,,53,,,,,,,,,,,,,,461.75599999999395,,response,,,,99,,,,,,,Space,keypress(Space),,,,,,,,---- -- ----- -- ------ - ------- --- ----------<br>------------- ------ ------ ---- ---- ------- ----- -- ----<br>-------- ------- -- ---------- --- - --- ----- ----- ----<br>---- not --- ----- --- ---- ---- ------- ----- ---- -------<br>--- --- -- ----- -- --- ---- -- --- ---- -- ------ ------<br>--- ----- -- ----,221631,221631,221152.561,221159,221169.244,221636.368,,29,not
screen,html.Screen,2_1_0_1_30,2022-05-12T21:37:40.131Z,,,,,,,,,,,,,,,,,53,,,,,,,,,,,,,,441.63200000001234,,response,,,,99,,,,,,,Space,keypress(Space),,,,,,,,---- -- ----- -- ------ - ------- --- ----------<br>------------- ------ ------ ---- ---- ------- ----- -- ----<br>-------- ------- -- ---------- --- - --- ----- ----- ----<br>---- --- how ----- --- ---- ---- ------- ----- ---- -------<br>--- --- -- ----- -- --- ---- -- --- ---- -- ------ ------<br>--- ----- -- ----,222079,222078,221619.685,221631,221636.368,222086.809,,30,how
screen,html.Screen,2_1_0_1_31,2022-05-12T21:37:40.963Z,,,,,,,,,,,,,,,,,53,,,,,,,,,,,,,,823.1909999999916,,response,,,,99,,,,,,,Space,keypress(Space),,,,,,,,---- -- ----- -- ------ - ------- --- ----------<br>------------- ------ ------ ---- ---- ------- ----- -- ----<br>-------- ------- -- ---------- --- - --- ----- ----- ----<br>---- --- --- close --- ---- ---- ------- ----- ---- -------<br>--- --- -- ----- -- --- ---- -- --- ---- -- ------ ------<br>--- ----- -- ----,222911,222910,222070.126,222079,222086.809,222920.959,,31,close
screen,html.Screen,2_1_0_1_32,2022-05-12T21:37:41.371Z,,,,,,,,,,,,,,,,,53,,,,,,,,,,,,,,397.04099999999744,,response,,,,99,,,,,,,Space,keypress(Space),,,,,,,,---- -- ----- -- ------ - ------- --- ----------<br>------------- ------ ------ ---- ---- ------- ----- -- ----<br>-------- ------- -- ---------- --- - --- ----- ----- ----<br>---- --- --- ----- you ---- ---- ------- ----- ---- -------<br>--- --- -- ----- -- --- ---- -- --- ---- -- ------ ------<br>--- ----- -- ----,223319,223318,222904.276,222911,222920.959,223321.351,,32,you
screen,html.Screen,2_1_0_1_33,2022-05-12T21:37:41.803Z,,,,,,,,,,,,,,,,,53,,,,,,,,,,,,,,428.6490000000049,,response,,,,99,,,,,,,Space,keypress(Space),,,,,,,,---- -- ----- -- ------ - ------- --- ----------<br>------------- ------ ------ ---- ---- ------- ----- -- ----<br>-------- ------- -- ---------- --- - --- ----- ----- ----<br>---- --- --- ----- --- feel ---- ------- ----- ---- -------<br>--- --- -- ----- -- --- ---- -- --- ---- -- ------ ------<br>--- ----- -- ----,223751,223750,223304.668,223319,223321.351,223755.109,,33,feel
screen,html.Screen,2_1_0_1_34,2022-05-12T21:37:42.328Z,,,,,,,,,,,,,,,,,53,,,,,,,,,,,,,,519.8910000000033,,response,,,,99,,,,,,,Space,keypress(Space),,,,,,,,---- -- ----- -- ------ - ------- --- ----------<br>------------- ------ ------ ---- ---- ------- ----- -- ----<br>-------- ------- -- ---------- --- - --- ----- ----- ----<br>---- --- --- ----- --- ---- that ------- ----- ---- -------<br>--- --- -- ----- -- --- ---- -- --- ---- -- ------ ------<br>--- ----- -- ----,224276,224275,223738.426,223751,223755.109,224288.965,,34,that
screen,html.Screen,2_1_0_1_35,2022-05-12T21:37:42.843Z,,,,,,,,,,,,,,,,,53,,,,,,,,,,,,,,501.0350000000035,,response,,,,99,,,,,,,Space,keypress(Space),,,,,,,,---- -- ----- -- ------ - ------- --- ----------<br>------------- ------ ------ ---- ---- ------- ----- -- ----<br>-------- ------- -- ---------- --- - --- ----- ----- ----<br>---- --- --- ----- --- ---- ---- matters ----- ---- -------<br>--- --- -- ----- -- --- ---- -- --- ---- -- ------ ------<br>--- ----- -- ----,224791,224790,224272.282,224276,224288.965,224806.138,,35,matters
screen,html.Screen,2_1_0_1_36,2022-05-12T21:37:43.371Z,,,,,,,,,,,,,,,,,53,,,,,,,,,,,,,,511.8619999999937,,response,,,,99,,,,,,,Space,keypress(Space),,,,,,,,"---- -- ----- -- ------ - ------- --- ----------<br>------------- ------ ------ ---- ---- ------- ----- -- ----<br>-------- ------- -- ---------- --- - --- ----- ----- ----<br>---- --- --- ----- --- ---- ---- ------- most, ---- -------<br>--- --- -- ----- -- --- ---- -- --- ---- -- ------ ------<br>--- ----- -- ----",225319,225318,224789.455,224791,224806.138,225323.311,,36,"most,"
screen,html.Screen,2_1_0_1_37,2022-05-12T21:37:43.891Z,,,,,,,,,,,,,,,,,53,,,,,,,,,,,,,,514.689000000013,,response,,,,99,,,,,,,Space,keypress(Space),,,,,,,,---- -- ----- -- ------ - ------- --- ----------<br>------------- ------ ------ ---- ---- ------- ----- -- ----<br>-------- ------- -- ---------- --- - --- ----- ----- ----<br>---- --- --- ----- --- ---- ---- ------- ----- it's -------<br>--- --- -- ----- -- --- ---- -- --- ---- -- ------ ------<br>--- ----- -- ----,225839,225838,225306.628,225319,225323.311,225857.167,,37,it's
screen,html.Screen,2_1_0_1_38,2022-05-12T21:37:44.411Z,,,,,,,,,,,,,,,,,53,,,,,,,,,,,,,,500.83300000001327,,response,,,,99,,,,,,,Space,keypress(Space),,,,,,,,---- -- ----- -- ------ - ------- --- ----------<br>------------- ------ ------ ---- ---- ------- ----- -- ----<br>-------- ------- -- ---------- --- - --- ----- ----- ----<br>---- --- --- ----- --- ---- ---- ------- ----- ---- whether<br>--- --- -- ----- -- --- ---- -- --- ---- -- ------ ------<br>--- ----- -- ----,226359,226358,225840.484,225839,225857.167,226374.34,,38,whether
screen,html.Screen,2_1_0_1_39,2022-05-12T21:37:45.107Z,,,,,,,,,,,,,,,,,53,,,,,,,,,,,,,,679.6600000000035,,response,,,,99,,,,,,,Space,keypress(Space),,,,,,,,---- -- ----- -- ------ - ------- --- ----------<br>------------- ------ ------ ---- ---- ------- ----- -- ----<br>-------- ------- -- ---------- --- - --- ----- ----- ----<br>---- --- --- ----- --- ---- ---- ------- ----- ---- -------<br>you --- -- ----- -- --- ---- -- --- ---- -- ------ ------<br>--- ----- -- ----,227055,227054,226357.657,226359,226374.34,227058.343,,39,you
screen,html.Screen,2_1_0_1_40,2022-05-12T21:37:45.564Z,,,,,,,,,,,,,,,,,53,,,,,,,,,,,,,,452.6570000000065,,response,,,,99,,,,,,,Space,keypress(Space),,,,,,,,---- -- ----- -- ------ - ------- --- ----------<br>------------- ------ ------ ---- ---- ------- ----- -- ----<br>-------- ------- -- ---------- --- - --- ----- ----- ----<br>---- --- --- ----- --- ---- ---- ------- ----- ---- -------<br>--- are -- ----- -- --- ---- -- --- ---- -- ------ ------<br>--- ----- -- ----,227512,227511,227041.66,227055,227058.343,227525.467,,40,are
screen,html.Screen,2_1_0_1_41,2022-05-12T21:37:45.996Z,,,,,,,,,,,,,,,,,53,,,,,,,,,,,,,,417.5329999999958,,response,,,,99,,,,,,,Space,keypress(Space),,,,,,,,---- -- ----- -- ------ - ------- --- ----------<br>------------- ------ ------ ---- ---- ------- ----- -- ----<br>-------- ------- -- ---------- --- - --- ----- ----- ----<br>---- --- --- ----- --- ---- ---- ------- ----- ---- -------<br>--- --- as ----- -- --- ---- -- --- ---- -- ------ ------<br>--- ----- -- ----,227944,227943,227508.784,227512,227525.467,227959.225,,41,as
screen,html.Screen,2_1_0_1_42,2022-05-12T21:37:46.475Z,,,,,,,,,,,,,,,,,53,,,,,,,,,,,,,,463.7749999999942,,response,,,,99,,,,,,,Space,keypress(Space),,,,,,,,---- -- ----- -- ------ - ------- --- ----------<br>------------- ------ ------ ---- ---- ------- ----- -- ----<br>-------- ------- -- ---------- --- - --- ----- ----- ----<br>---- --- --- ----- --- ---- ---- ------- ----- ---- -------<br>--- --- -- close -- --- ---- -- --- ---- -- ------ ------<br>--- ----- -- ----,228423,228423,227942.542,227944,227959.225,228426.349,,42,close
screen,html.Screen,2_1_0_1_43,2022-05-12T21:37:47.203Z,,,,,,,,,,,,,,,,,53,,,,,,,,,,,,,,724.6510000000126,,response,,,,99,,,,,,,Space,keypress(Space),,,,,,,,---- -- ----- -- ------ - ------- --- ----------<br>------------- ------ ------ ---- ---- ------- ----- -- ----<br>-------- ------- -- ---------- --- - --- ----- ----- ----<br>---- --- --- ----- --- ---- ---- ------- ----- ---- -------<br>--- --- -- ----- as --- ---- -- --- ---- -- ------ ------<br>--- ----- -- ----,229151,229151,228409.666,228424,228426.349,229160.401,,43,as
screen,html.Screen,2_1_0_1_44,2022-05-12T21:37:47.716Z,,,,,,,,,,,,,,,,,53,,,,,,,,,,,,,,503.5989999999874,,response,,,,99,,,,,,,Space,keypress(Space),,,,,,,,---- -- ----- -- ------ - ------- --- ----------<br>------------- ------ ------ ---- ---- ------- ----- -- ----<br>-------- ------- -- ---------- --- - --- ----- ----- ----<br>---- --- --- ----- --- ---- ---- ------- ----- ---- -------<br>--- --- -- ----- -- you ---- -- --- ---- -- ------ ------<br>--- ----- -- ----,229664,229664,229143.718,229151,229160.401,229677.574,,44,you
screen,html.Screen,2_1_0_1_45,2022-05-12T21:37:48.139Z,,,,,,,,,,,,,,,,,53,,,,,,,,,,,,,,409.42600000000675,,response,,,,99,,,,,,,Space,keypress(Space),,,,,,,,---- -- ----- -- ------ - ------- --- ----------<br>------------- ------ ------ ---- ---- ------- ----- -- ----<br>-------- ------- -- ---------- --- - --- ----- ----- ----<br>---- --- --- ----- --- ---- ---- ------- ----- ---- -------<br>--- --- -- ----- -- --- want -- --- ---- -- ------ ------<br>--- ----- -- ----,230087,230087,229660.891,229664,229677.574,230094.649,,45,want
screen,html.Screen,2_1_0_1_46,2022-05-12T21:37:48.595Z,,,,,,,,,,,,,,,,,53,,,,,,,,,,,,,,448.3509999999951,,response,,,,99,,,,,,,Space,keypress(Space),,,,,,,,---- -- ----- -- ------ - ------- --- ----------<br>------------- ------ ------ ---- ---- ------- ----- -- ----<br>-------- ------- -- ---------- --- - --- ----- ----- ----<br>---- --- --- ----- --- ---- ---- ------- ----- ---- -------<br>--- --- -- ----- -- --- ---- to --- ---- -- ------ ------<br>--- ----- -- ----,230543,230543,230077.966,230087,230094.649,230545.09,,46,to
screen,html.Screen,2_1_0_1_47,2022-05-12T21:37:49.056Z,,,,,,,,,,,,,,,,,53,,,,,,,,,,,,,,457.9100000000035,,response,,,,99,,,,,,,Space,keypress(Space),,,,,,,,"---- -- ----- -- ------ - ------- --- ----------<br>------------- ------ ------ ---- ---- ------- ----- -- ----<br>-------- ------- -- ---------- --- - --- ----- ----- ----<br>---- --- --- ----- --- ---- ---- ------- ----- ---- -------<br>--- --- -- ----- -- --- ---- -- be, ---- -- ------ ------<br>--- ----- -- ----",231004,231003,230528.407,230543,230545.09,231012.214,,47,"be,"
screen,html.Screen,2_1_0_1_48,2022-05-12T21:37:49.484Z,,,,,,,,,,,,,,,,,53,,,,,,,,,,,,,,419.7859999999928,,response,,,,99,,,,,,,Space,keypress(Space),,,,,,,,---- -- ----- -- ------ - ------- --- ----------<br>------------- ------ ------ ---- ---- ------- ----- -- ----<br>-------- ------- -- ---------- --- - --- ----- ----- ----<br>---- --- --- ----- --- ---- ---- ------- ----- ---- -------<br>--- --- -- ----- -- --- ---- -- --- even -- ------ ------<br>--- ----- -- ----,231432,231432,230995.531,231004,231012.214,231445.972,,48,even
screen,html.Screen,2_1_0_1_49,2022-05-12T21:37:49.947Z,,,,,,,,,,,,,,,,,53,,,,,,,,,,,,,,449.02799999999115,,response,,,,99,,,,,,,Space,keypress(Space),,,,,,,,---- -- ----- -- ------ - ------- --- ----------<br>------------- ------ ------ ---- ---- ------- ----- -- ----<br>-------- ------- -- ---------- --- - --- ----- ----- ----<br>---- --- --- ----- --- ---- ---- ------- ----- ---- -------<br>--- --- -- ----- -- --- ---- -- --- ---- if ------ ------<br>--- ----- -- ----,231895,231895,231429.289,231432,231445.972,231896.413,,49,if
screen,html.Screen,2_1_0_1_50,2022-05-12T21:37:50.456Z,,,,,,,,,,,,,,,,,53,,,,,,,,,,,,,,506.58699999999953,,response,,,,99,,,,,,,Space,keypress(Space),,,,,,,,---- -- ----- -- ------ - ------- --- ----------<br>------------- ------ ------ ---- ---- ------- ----- -- ----<br>-------- ------- -- ---------- --- - --- ----- ----- ----<br>---- --- --- ----- --- ---- ---- ------- ----- ---- -------<br>--- --- -- ----- -- --- ---- -- --- ---- -- that's ------<br>--- ----- -- ----,232404,232403,231879.73,231895,231896.413,232413.586,,50,that's
screen,html.Screen,2_1_0_1_51,2022-05-12T21:37:50.939Z,,,,,,,,,,,,,,,,,53,,,,,,,,,,,,,,473.41399999998976,,response,,,,99,,,,,,,Space,keypress(Space),,,,,,,,---- -- ----- -- ------ - ------- --- ----------<br>------------- ------ ------ ---- ---- ------- ----- -- ----<br>-------- ------- -- ---------- --- - --- ----- ----- ----<br>---- --- --- ----- --- ---- ---- ------- ----- ---- -------<br>--- --- -- ----- -- --- ---- -- --- ---- -- ------ really<br>--- ----- -- ----,232887,232887,232396.903,232404,232413.586,232897.393,,51,really
screen,html.Screen,2_1_0_1_52,2022-05-12T21:37:51.435Z,,,,,,,,,,,,,,,,,53,,,,,,,,,,,,,,485.60699999998906,,response,,,,99,,,,,,,Space,keypress(Space),,,,,,,,---- -- ----- -- ------ - ------- --- ----------<br>------------- ------ ------ ---- ---- ------- ----- -- ----<br>-------- ------- -- ---------- --- - --- ----- ----- ----<br>---- --- --- ----- --- ---- ---- ------- ----- ---- -------<br>--- --- -- ----- -- --- ---- -- --- ---- -- ------ ------<br>not ----- -- ----,233383,233383,232880.71,232887,232897.393,233397.883,,52,not
screen,html.Screen,2_1_0_1_53,2022-05-12T21:37:51.907Z,,,,,,,,,,,,,,,,,53,,,,,,,,,,,,,,457.11699999999837,,response,,,,99,,,,,,,Space,keypress(Space),,,,,,,,---- -- ----- -- ------ - ------- --- ----------<br>------------- ------ ------ ---- ---- ------- ----- -- ----<br>-------- ------- -- ---------- --- - --- ----- ----- ----<br>---- --- --- ----- --- ---- ---- ------- ----- ---- -------<br>--- --- -- ----- -- --- ---- -- --- ---- -- ------ ------<br>--- close -- ----,233855,233855,233381.2,233383,233397.883,233865.007,,53,close
screen,html.Screen,2_1_0_1_54,2022-05-12T21:37:52.379Z,,,,,,,,,,,,,,,,,53,,,,,,,,,,,,,,461.99299999998766,,response,,,,99,,,,,,,Space,keypress(Space),,,,,,,,---- -- ----- -- ------ - ------- --- ----------<br>------------- ------ ------ ---- ---- ------- ----- -- ----<br>-------- ------- -- ---------- --- - --- ----- ----- ----<br>---- --- --- ----- --- ---- ---- ------- ----- ---- -------<br>--- --- -- ----- -- --- ---- -- --- ---- -- ------ ------<br>--- ----- at ----,234327,234327,233848.324,233856,233865.007,234332.131,,54,at
screen,html.Screen,2_1_0_1_55,2022-05-12T21:37:54.107Z,,,,,,,,,,,,,,,,,53,,,,,,,,,,,,,,1721.869000000006,,response,,,,99,,,,,,,Space,keypress(Space),,,,,,,,---- -- ----- -- ------ - ------- --- ----------<br>------------- ------ ------ ---- ---- ------- ----- -- ----<br>-------- ------- -- ---------- --- - --- ----- ----- ----<br>---- --- --- ----- --- ---- ---- ------- ----- ---- -------<br>--- --- -- ----- -- --- ---- -- --- ---- -- ------ ------<br>--- ----- -- all.,236055,236054,234315.448,234327,234332.131,236067.163,,55,all.
Item 99,flow.Loop,2_1_0_1,2022-05-12T21:37:54.107Z,,,,,,,,,,,,,,,,,,,,,,,,,,,,,,,34720.84299999999,,completion,,,,,E,,,,,,,,,,,silence,,,,,236055,236054,200398.909,200404,201333.157,236067.163,,,
Question 1,html.Screen,2_1_0_2,2022-05-12T21:38:00.584Z,,,,,,,,,,,,,,,,,,,,,,,,,,,,true,FALSE,,6463.8369999999995,,response,,,,99,E,,,,,,FALSE,click #choice-2,,,,silence,,,,,242532,242531,236050.48,236055,236067.163,242540.167,,,
Question 2,html.Screen,2_1_0_3,2022-05-12T21:38:07.602Z,,,,,,,,,,,,,,,,,,,,,,,,,,,,true,TRUE,,7008.833000000013,,response,,,,99,E,,,,,,TRUE,click #choice-1,,,,silence,,,,,249551,249549,242523.484,242532,242540.167,249563.71,,,
Item 99,flow.Sequence,2_1_0,2022-05-12T21:38:07.602Z,,,,,,,,,,,,,,,,,,,,,,,,,,,,,,,59126.524999999994,,completion,,,,,,,,,,,,,,,,,,,,,249551,249549,190372.426,190418,190422.475,249563.71,,,
Holding screen,html.Screen,2_1_1_0,2022-05-12T21:38:17.595Z,,,,,,,,,,,,,,,,,,,,,,,,,,,,,,,9993.116999999998,,timeout,,,,,,,,,,,,,,,,,,,,,259544,259540.144,249547.027,249551,249563.71,259556.827,,,
screen,html.Screen,2_1_1_1_0,2022-05-12T21:38:18.570Z,,,,,,,,,,,,,,,,,54,,,,,,,,,,,,,,961.1730000000098,,response,,,,100,,,,,,,Space,keypress(Space),,,,,,,,At --- ---- --- ------ ----- ------- ---- -- --- ------- --<br>------- ---------- ------ -- ----- -- ----- -- ---- ------<br>--- ----- --- --- ------ -------- ----- --- ------ ----- --<br>----- ----- ---------- --- --- ------ ------ ---- -- ------<br>------- --- ------ ----- --- ---- ------- -- ---- --- --<br>------- ------,260519,260518,259540.144,259545,259556.827,260524.441,,0,At
screen,html.Screen,2_1_1_1_1,2022-05-12T21:38:19.074Z,,,,,,,,,,,,,,,,,54,,,,,,,,,,,,,,497.5590000000084,,response,,,,100,,,,,,,Space,keypress(Space),,,,,,,,-- the ---- --- ------ ----- ------- ---- -- --- ------- --<br>------- ---------- ------ -- ----- -- ----- -- ---- ------<br>--- ----- --- --- ------ -------- ----- --- ------ ----- --<br>----- ----- ---------- --- --- ------ ------ ---- -- ------<br>------- --- ------ ----- --- ---- ------- -- ---- --- --<br>------- ------,261023,261022,260507.758,260519,260524.441,261024.931,,1,the
screen,html.Screen,2_1_1_1_2,2022-05-12T21:38:19.921Z,,,,,,,,,,,,,,,,,54,,,,,,,,,,,,,,845.0689999999886,,response,,,,100,,,,,,,Space,keypress(Space),,,,,,,,-- --- time --- ------ ----- ------- ---- -- --- ------- --<br>------- ---------- ------ -- ----- -- ----- -- ---- ------<br>--- ----- --- --- ------ -------- ----- --- ------ ----- --<br>----- ----- ---------- --- --- ------ ------ ---- -- ------<br>------- --- ------ ----- --- ---- ------- -- ---- --- --<br>------- ------,261870,261870,261008.248,261023,261024.931,261875.764,,2,time
screen,html.Screen,2_1_1_1_3,2022-05-12T21:38:20.402Z,,,,,,,,,,,,,,,,,54,,,,,,,,,,,,,,474.2360000000044,,response,,,,100,,,,,,,Space,keypress(Space),,,,,,,,-- --- ---- the ------ ----- ------- ---- -- --- ------- --<br>------- ---------- ------ -- ----- -- ----- -- ---- ------<br>--- ----- --- --- ------ -------- ----- --- ------ ----- --<br>----- ----- ---------- --- --- ------ ------ ---- -- ------<br>------- --- ------ ----- --- ---- ------- -- ---- --- --<br>------- ------,262351,262350,261859.081,261871,261875.764,262359.571,,3,the
screen,html.Screen,2_1_1_1_4,2022-05-12T21:38:20.971Z,,,,,,,,,,,,,,,,,54,,,,,,,,,,,,,,559.4290000000037,,response,,,,100,,,,,,,Space,keypress(Space),,,,,,,,-- --- ---- --- French ----- ------- ---- -- --- ------- --<br>------- ---------- ------ -- ----- -- ----- -- ---- ------<br>--- ----- --- --- ------ -------- ----- --- ------ ----- --<br>----- ----- ---------- --- --- ------ ------ ---- -- ------<br>------- --- ------ ----- --- ---- ------- -- ---- --- --<br>------- ------,262920,262919,262342.888,262351,262359.571,262926.793,,4,French
screen,html.Screen,2_1_1_1_5,2022-05-12T21:38:21.571Z,,,,,,,,,,,,,,,,,54,,,,,,,,,,,,,,592.2069999999949,,response,,,,100,,,,,,,Space,keypress(Space),,,,,,,,-- --- ---- --- ------ crown ------- ---- -- --- ------- --<br>------- ---------- ------ -- ----- -- ----- -- ---- ------<br>--- ----- --- --- ------ -------- ----- --- ------ ----- --<br>----- ----- ---------- --- --- ------ ------ ---- -- ------<br>------- --- ------ ----- --- ---- ------- -- ---- --- --<br>------- ------,263520,263519,262910.11,262920,262926.793,263527.381,,5,crown
screen,html.Screen,2_1_1_1_6,2022-05-12T21:38:22.107Z,,,,,,,,,,,,,,,,,54,,,,,,,,,,,,,,527.619000000006,,response,,,,100,,,,,,,Space,keypress(Space),,,,,,,,-- --- ---- --- ------ ----- secured ---- -- --- ------- --<br>------- ---------- ------ -- ----- -- ----- -- ---- ------<br>--- ----- --- --- ------ -------- ----- --- ------ ----- --<br>----- ----- ---------- --- --- ------ ------ ---- -- ------<br>------- --- ------ ----- --- ---- ------- -- ---- --- --<br>------- ------,264056,264055,263510.698,263520,263527.381,264061.237,,6,secured
screen,html.Screen,2_1_1_1_7,2022-05-12T21:38:22.546Z,,,,,,,,,,,,,,,,,54,,,,,,,,,,,,,,433.7629999999772,,response,,,,100,,,,,,,Space,keypress(Space),,,,,,,,-- --- ---- --- ------ ----- ------- much -- --- ------- --<br>------- ---------- ------ -- ----- -- ----- -- ---- ------<br>--- ----- --- --- ------ -------- ----- --- ------ ----- --<br>----- ----- ---------- --- --- ------ ------ ---- -- ------<br>------- --- ------ ----- --- ---- ------- -- ---- --- --<br>------- ------,264495,264495,264044.554,264056,264061.237,264511.678,,7,much
screen,html.Screen,2_1_1_1_8,2022-05-12T21:38:22.970Z,,,,,,,,,,,,,,,,,54,,,,,,,,,,,,,,407.32199999998556,,response,,,,100,,,,,,,Space,keypress(Space),,,,,,,,-- --- ---- --- ------ ----- ------- ---- of --- ------- --<br>------- ---------- ------ -- ----- -- ----- -- ---- ------<br>--- ----- --- --- ------ -------- ----- --- ------ ----- --<br>----- ----- ---------- --- --- ------ ------ ---- -- ------<br>------- --- ------ ----- --- ---- ------- -- ---- --- --<br>------- ------,264919,264919,264494.995,264496,264511.678,264928.753,,8,of
screen,html.Screen,2_1_1_1_9,2022-05-12T21:38:23.354Z,,,,,,,,,,,,,,,,,54,,,,,,,,,,,,,,374.2469999999739,,response,,,,100,,,,,,,Space,keypress(Space),,,,,,,,-- --- ---- --- ------ ----- ------- ---- -- its ------- --<br>------- ---------- ------ -- ----- -- ----- -- ---- ------<br>--- ----- --- --- ------ -------- ----- --- ------ ----- --<br>----- ----- ---------- --- --- ------ ------ ---- -- ------<br>------- --- ------ ----- --- ---- ------- -- ---- --- --<br>------- ------,265303,265303,264912.07,264920,264928.753,265312.462,,9,its
screen,html.Screen,2_1_1_1_10,2022-05-12T21:38:23.778Z,,,,,,,,,,,,,,,,,54,,,,,,,,,,,,,,414.53800000000047,,response,,,,100,,,,,,,Space,keypress(Space),,,,,,,,-- --- ---- --- ------ ----- ------- ---- -- --- revenue --<br>------- ---------- ------ -- ----- -- ----- -- ---- ------<br>--- ----- --- --- ------ -------- ----- --- ------ ----- --<br>----- ----- ---------- --- --- ------ ------ ---- -- ------<br>------- --- ------ ----- --- ---- ------- -- ---- --- --<br>------- ------,265727,265727,265295.779,265307,265312.462,265729.537,,10,revenue
screen,html.Screen,2_1_1_1_11,2022-05-12T21:38:24.194Z,,,,,,,,,,,,,,,,,54,,,,,,,,,,,,,,413.4629999999888,,response,,,,100,,,,,,,Space,keypress(Space),,,,,,,,-- --- ---- --- ------ ----- ------- ---- -- --- ------- by<br>------- ---------- ------ -- ----- -- ----- -- ---- ------<br>--- ----- --- --- ------ -------- ----- --- ------ ----- --<br>----- ----- ---------- --- --- ------ ------ ---- -- ------<br>------- --- ------ ----- --- ---- ------- -- ---- --- --<br>------- ------,266143,266143,265712.854,265728,265729.537,266146.612,,11,by
screen,html.Screen,2_1_1_1_12,2022-05-12T21:38:24.786Z,,,,,,,,,,,,,,,,,54,,,,,,,,,,,,,,588.3879999999772,,response,,,,100,,,,,,,Space,keypress(Space),,,,,,,,-- --- ---- --- ------ ----- ------- ---- -- --- ------- --<br>issuing ---------- ------ -- ----- -- ----- -- ---- ------<br>--- ----- --- --- ------ -------- ----- --- ------ ----- --<br>----- ----- ---------- --- --- ------ ------ ---- -- ------<br>------- --- ------ ----- --- ---- ------- -- ---- --- --<br>------- ------,266735,266735,266129.929,266143,266146.612,266747.2,,12,issuing
screen,html.Screen,2_1_1_1_13,2022-05-12T21:38:25.210Z,,,,,,,,,,,,,,,,,54,,,,,,,,,,,,,,411.79999999998836,,response,,,,100,,,,,,,Space,keypress(Space),,,,,,,,-- --- ---- --- ------ ----- ------- ---- -- --- ------- --<br>------- government ------ -- ----- -- ----- -- ---- ------<br>--- ----- --- --- ------ -------- ----- --- ------ ----- --<br>----- ----- ---------- --- --- ------ ------ ---- -- ------<br>------- --- ------ ----- --- ---- ------- -- ---- --- --<br>------- ------,267159,267159,266730.517,266735,266747.2,267164.275,,13,government
screen,html.Screen,2_1_1_1_14,2022-05-12T21:38:25.658Z,,,,,,,,,,,,,,,,,54,,,,,,,,,,,,,,442.7249999999767,,response,,,,100,,,,,,,Space,keypress(Space),,,,,,,,-- --- ---- --- ------ ----- ------- ---- -- --- ------- --<br>------- ---------- bonds. -- ----- -- ----- -- ---- ------<br>--- ----- --- --- ------ -------- ----- --- ------ ----- --<br>----- ----- ---------- --- --- ------ ------ ---- -- ------<br>------- --- ------ ----- --- ---- ------- -- ---- --- --<br>------- ------,267607,267607,267147.592,267160,267164.275,267614.716,,14,bonds.
screen,html.Screen,2_1_1_1_15,2022-05-12T21:38:26.138Z,,,,,,,,,,,,,,,,,54,,,,,,,,,,,,,,472.2839999999851,,response,,,,100,,,,,,,Space,keypress(Space),,,,,,,,-- --- ---- --- ------ ----- ------- ---- -- --- ------- --<br>------- ---------- ------ In ----- -- ----- -- ---- ------<br>--- ----- --- --- ------ -------- ----- --- ------ ----- --<br>----- ----- ---------- --- --- ------ ------ ---- -- ------<br>------- --- ------ ----- --- ---- ------- -- ---- --- --<br>------- ------,268087,268087,267598.033,267607,267614.716,268098.523,,15,In
screen,html.Screen,2_1_1_1_16,2022-05-12T21:38:26.530Z,,,,,,,,,,,,,,,,,54,,,,,,,,,,,,,,380.4770000000135,,response,,,,100,,,,,,,Space,keypress(Space),,,,,,,,"-- --- ---- --- ------ ----- ------- ---- -- --- ------- --<br>------- ---------- ------ -- 1727, -- ----- -- ---- ------<br>--- ----- --- --- ------ -------- ----- --- ------ ----- --<br>----- ----- ---------- --- --- ------ ------ ---- -- ------<br>------- --- ------ ----- --- ---- ------- -- ---- --- --<br>------- ------",268479,268479,268081.84,268087,268098.523,268482.232,,16,"1727,"
screen,html.Screen,2_1_1_1_17,2022-05-12T21:38:27.034Z,,,,,,,,,,,,,,,,,54,,,,,,,,,,,,,,499.76799999998184,,response,,,,100,,,,,,,Space,keypress(Space),,,,,,,,-- --- ---- --- ------ ----- ------- ---- -- --- ------- --<br>------- ---------- ------ -- ----- in ----- -- ---- ------<br>--- ----- --- --- ------ -------- ----- --- ------ ----- --<br>----- ----- ---------- --- --- ------ ------ ---- -- ------<br>------- --- ------ ----- --- ---- ------- -- ---- --- --<br>------- ------,268983,268982,268465.549,268479,268482.232,268999.405,,17,in
screen,html.Screen,2_1_1_1_18,2022-05-12T21:38:27.562Z,,,,,,,,,,,,,,,,,54,,,,,,,,,,,,,,511.59499999997206,,response,,,,100,,,,,,,Space,keypress(Space),,,,,,,,-- --- ---- --- ------ ----- ------- ---- -- --- ------- --<br>------- ---------- ------ -- ----- -- order -- ---- ------<br>--- ----- --- --- ------ -------- ----- --- ------ ----- --<br>----- ----- ---------- --- --- ------ ------ ---- -- ------<br>------- --- ------ ----- --- ---- ------- -- ---- --- --<br>------- ------,269511,269511,268982.722,268983,268999.405,269516.578,,18,order
screen,html.Screen,2_1_1_1_19,2022-05-12T21:38:27.955Z,,,,,,,,,,,,,,,,,54,,,,,,,,,,,,,,386.4220000000205,,response,,,,100,,,,,,,Space,keypress(Space),,,,,,,,-- --- ---- --- ------ ----- ------- ---- -- --- ------- --<br>------- ---------- ------ -- ----- -- ----- to ---- ------<br>--- ----- --- --- ------ -------- ----- --- ------ ----- --<br>----- ----- ---------- --- --- ------ ------ ---- -- ------<br>------- --- ------ ----- --- ---- ------- -- ---- --- --<br>------- ------,269904,269903,269499.895,269511,269516.578,269916.97,,19,to
screen,html.Screen,2_1_1_1_20,2022-05-12T21:38:28.330Z,,,,,,,,,,,,,,,,,54,,,,,,,,,,,,,,362.03000000002794,,response,,,,100,,,,,,,Space,keypress(Space),,,,,,,,-- --- ---- --- ------ ----- ------- ---- -- --- ------- --<br>------- ---------- ------ -- ----- -- ----- -- save ------<br>--- ----- --- --- ------ -------- ----- --- ------ ----- --<br>----- ----- ---------- --- --- ------ ------ ---- -- ------<br>------- --- ------ ----- --- ---- ------- -- ---- --- --<br>------- ------,270279,270279,269900.287,269904,269916.97,270283.996,,20,save
screen,html.Screen,2_1_1_1_21,2022-05-12T21:38:28.714Z,,,,,,,,,,,,,,,,,54,,,,,,,,,,,,,,379.00400000001537,,response,,,,100,,,,,,,Space,keypress(Space),,,,,,,,"-- --- ---- --- ------ ----- ------- ---- -- --- ------- --<br>------- ---------- ------ -- ----- -- ----- -- ---- money,<br>--- ----- --- --- ------ -------- ----- --- ------ ----- --<br>----- ----- ---------- --- --- ------ ------ ---- -- ------<br>------- --- ------ ----- --- ---- ------- -- ---- --- --<br>------- ------",270663,270663,270267.313,270280,270283.996,270667.705,,21,"money,"
screen,html.Screen,2_1_1_1_22,2022-05-12T21:38:29.090Z,,,,,,,,,,,,,,,,,54,,,,,,,,,,,,,,370.2949999999837,,response,,,,100,,,,,,,Space,keypress(Space),,,,,,,,-- --- ---- --- ------ ----- ------- ---- -- --- ------- --<br>------- ---------- ------ -- ----- -- ----- -- ---- ------<br>the ----- --- --- ------ -------- ----- --- ------ ----- --<br>----- ----- ---------- --- --- ------ ------ ---- -- ------<br>------- --- ------ ----- --- ---- ------- -- ---- --- --<br>------- ------,271039,271038,270651.022,270663,270667.705,271051.414,,22,the
screen,html.Screen,2_1_1_1_23,2022-05-12T21:38:29.442Z,,,,,,,,,,,,,,,,,54,,,,,,,,,,,,,,338.58600000001024,,response,,,,100,,,,,,,Space,keypress(Space),,,,,,,,-- --- ---- --- ------ ----- ------- ---- -- --- ------- --<br>------- ---------- ------ -- ----- -- ----- -- ---- ------<br>--- state --- --- ------ -------- ----- --- ------ ----- --<br>----- ----- ---------- --- --- ------ ------ ---- -- ------<br>------- --- ------ ----- --- ---- ------- -- ---- --- --<br>------- ------,271391,271390,271034.731,271039,271051.414,271401.757,,23,state
screen,html.Screen,2_1_1_1_24,2022-05-12T21:38:29.930Z,,,,,,,,,,,,,,,,,54,,,,,,,,,,,,,,477.24300000001676,,response,,,,100,,,,,,,Space,keypress(Space),,,,,,,,-- --- ---- --- ------ ----- ------- ---- -- --- ------- --<br>------- ---------- ------ -- ----- -- ----- -- ---- ------<br>--- ----- cut --- ------ -------- ----- --- ------ ----- --<br>----- ----- ---------- --- --- ------ ------ ---- -- ------<br>------- --- ------ ----- --- ---- ------- -- ---- --- --<br>------- ------,271879,271879,271385.074,271391,271401.757,271885.564,,24,cut
screen,html.Screen,2_1_1_1_25,2022-05-12T21:38:30.426Z,,,,,,,,,,,,,,,,,54,,,,,,,,,,,,,,488.43599999998696,,response,,,,100,,,,,,,Space,keypress(Space),,,,,,,,-- --- ---- --- ------ ----- ------- ---- -- --- ------- --<br>------- ---------- ------ -- ----- -- ----- -- ---- ------<br>--- ----- --- the ------ -------- ----- --- ------ ----- --<br>----- ----- ---------- --- --- ------ ------ ---- -- ------<br>------- --- ------ ----- --- ---- ------- -- ---- --- --<br>------- ------,272375,272374,271868.881,271879,271885.564,272386.054,,25,the
screen,html.Screen,2_1_1_1_26,2022-05-12T21:38:30.938Z,,,,,,,,,,,,,,,,,54,,,,,,,,,,,,,,500.9459999999963,,response,,,,100,,,,,,,Space,keypress(Space),,,,,,,,-- --- ---- --- ------ ----- ------- ---- -- --- ------- --<br>------- ---------- ------ -- ----- -- ----- -- ---- ------<br>--- ----- --- --- bonds' -------- ----- --- ------ ----- --<br>----- ----- ---------- --- --- ------ ------ ---- -- ------<br>------- --- ------ ----- --- ---- ------- -- ---- --- --<br>------- ------,272887,272887,272369.371,272375,272386.054,272903.227,,26,bonds'
screen,html.Screen,2_1_1_1_27,2022-05-12T21:38:31.370Z,,,,,,,,,,,,,,,,,54,,,,,,,,,,,,,,414.7729999999865,,response,,,,100,,,,,,,Space,keypress(Space),,,,,,,,-- --- ---- --- ------ ----- ------- ---- -- --- ------- --<br>------- ---------- ------ -- ----- -- ----- -- ---- ------<br>--- ----- --- --- ------ interest ----- --- ------ ----- --<br>----- ----- ---------- --- --- ------ ------ ---- -- ------<br>------- --- ------ ----- --- ---- ------- -- ---- --- --<br>------- ------,273319,273318,272886.544,272887,272903.227,273320.302,,27,interest
screen,html.Screen,2_1_1_1_28,2022-05-12T21:38:32.034Z,,,,,,,,,,,,,,,,,54,,,,,,,,,,,,,,661.6979999999749,,response,,,,100,,,,,,,Space,keypress(Space),,,,,,,,-- --- ---- --- ------ ----- ------- ---- -- --- ------- --<br>------- ---------- ------ -- ----- -- ----- -- ---- ------<br>--- ----- --- --- ------ -------- rate. --- ------ ----- --<br>----- ----- ---------- --- --- ------ ------ ---- -- ------<br>------- --- ------ ----- --- ---- ------- -- ---- --- --<br>------- ------,273983,273982,273303.619,273319,273320.302,273987.622,,28,rate.
screen,html.Screen,2_1_1_1_29,2022-05-12T21:38:32.571Z,,,,,,,,,,,,,,,,,54,,,,,,,,,,,,,,531.3780000000261,,response,,,,100,,,,,,,Space,keypress(Space),,,,,,,,-- --- ---- --- ------ ----- ------- ---- -- --- ------- --<br>------- ---------- ------ -- ----- -- ----- -- ---- ------<br>--- ----- --- --- ------ -------- ----- The ------ ----- --<br>----- ----- ---------- --- --- ------ ------ ---- -- ------<br>------- --- ------ ----- --- ---- ------- -- ---- --- --<br>------- ------,274520,274519,273970.939,273983,273987.622,274521.478,,29,The
screen,html.Screen,2_1_1_1_30,2022-05-12T21:38:33.042Z,,,,,,,,,,,,,,,,,54,,,,,,,,,,,,,,468.5219999999972,,response,,,,100,,,,,,,Space,keypress(Space),,,,,,,,-- --- ---- --- ------ ----- ------- ---- -- --- ------- --<br>------- ---------- ------ -- ----- -- ----- -- ---- ------<br>--- ----- --- --- ------ -------- ----- --- market ----- --<br>----- ----- ---------- --- --- ------ ------ ---- -- ------<br>------- --- ------ ----- --- ---- ------- -- ---- --- --<br>------- ------,274991,274990,274504.795,274520,274521.478,275005.285,,30,market
screen,html.Screen,2_1_1_1_31,2022-05-12T21:38:33.458Z,,,,,,,,,,,,,,,,,54,,,,,,,,,,,,,,400.7150000000256,,response,,,,100,,,,,,,Space,keypress(Space),,,,,,,,-- --- ---- --- ------ ----- ------- ---- -- --- ------- --<br>------- ---------- ------ -- ----- -- ----- -- ---- ------<br>--- ----- --- --- ------ -------- ----- --- ------ value --<br>----- ----- ---------- --- --- ------ ------ ---- -- ------<br>------- --- ------ ----- --- ---- ------- -- ---- --- --<br>------- ------,275407,275406,274988.602,274991,275005.285,275422.36,,31,value
screen,html.Screen,2_1_1_1_32,2022-05-12T21:38:33.890Z,,,,,,,,,,,,,,,,,54,,,,,,,,,,,,,,415.64000000001397,,response,,,,100,,,,,,,Space,keypress(Space),,,,,,,,-- --- ---- --- ------ ----- ------- ---- -- --- ------- --<br>------- ---------- ------ -- ----- -- ----- -- ---- ------<br>--- ----- --- --- ------ -------- ----- --- ------ ----- of<br>----- ----- ---------- --- --- ------ ------ ---- -- ------<br>------- --- ------ ----- --- ---- ------- -- ---- --- --<br>------- ------,275839,275838,275405.677,275407,275422.36,275856.118,,32,of
screen,html.Screen,2_1_1_1_33,2022-05-12T21:38:34.290Z,,,,,,,,,,,,,,,,,54,,,,,,,,,,,,,,381.88199999998324,,response,,,,100,,,,,,,Space,keypress(Space),,,,,,,,-- --- ---- --- ------ ----- ------- ---- -- --- ------- --<br>------- ---------- ------ -- ----- -- ----- -- ---- ------<br>--- ----- --- --- ------ -------- ----- --- ------ ----- --<br>these ----- ---------- --- --- ------ ------ ---- -- ------<br>------- --- ------ ----- --- ---- ------- -- ---- --- --<br>------- ------,276239,276238,275839.435,275839,275856.118,276256.51,,33,these
screen,html.Screen,2_1_1_1_34,2022-05-12T21:38:34.698Z,,,,,,,,,,,,,,,,,54,,,,,,,,,,,,,,389.4899999999907,,response,,,,100,,,,,,,Space,keypress(Space),,,,,,,,-- --- ---- --- ------ ----- ------- ---- -- --- ------- --<br>------- ---------- ------ -- ----- -- ----- -- ---- ------<br>--- ----- --- --- ------ -------- ----- --- ------ ----- --<br>----- bonds ---------- --- --- ------ ------ ---- -- ------<br>------- --- ------ ----- --- ---- ------- -- ---- --- --<br>------- ------,276647,276646,276239.827,276239,276256.51,276656.902,,34,bonds
screen,html.Screen,2_1_1_1_35,2022-05-12T21:38:35.138Z,,,,,,,,,,,,,,,,,54,,,,,,,,,,,,,,429.09799999999814,,response,,,,100,,,,,,,Space,keypress(Space),,,,,,,,"-- --- ---- --- ------ ----- ------- ---- -- --- ------- --<br>------- ---------- ------ -- ----- -- ----- -- ---- ------<br>--- ----- --- --- ------ -------- ----- --- ------ ----- --<br>----- ----- plummeted, --- --- ------ ------ ---- -- ------<br>------- --- ------ ----- --- ---- ------- -- ---- --- --<br>------- ------",277087,277086,276640.219,276647,276656.902,277090.66,,35,"plummeted,"
screen,html.Screen,2_1_1_1_36,2022-05-12T21:38:35.562Z,,,,,,,,,,,,,,,,,54,,,,,,,,,,,,,,419.3400000000256,,response,,,,100,,,,,,,Space,keypress(Space),,,,,,,,-- --- ---- --- ------ ----- ------- ---- -- --- ------- --<br>------- ---------- ------ -- ----- -- ----- -- ---- ------<br>--- ----- --- --- ------ -------- ----- --- ------ ----- --<br>----- ----- ---------- and --- ------ ------ ---- -- ------<br>------- --- ------ ----- --- ---- ------- -- ---- --- --<br>------- ------,277511,277510,277073.977,277087,277090.66,277524.418,,36,and
screen,html.Screen,2_1_1_1_37,2022-05-12T21:38:35.946Z,,,,,,,,,,,,,,,,,54,,,,,,,,,,,,,,370.5819999999949,,response,,,,100,,,,,,,Space,keypress(Space),,,,,,,,-- --- ---- --- ------ ----- ------- ---- -- --- ------- --<br>------- ---------- ------ -- ----- -- ----- -- ---- ------<br>--- ----- --- --- ------ -------- ----- --- ------ ----- --<br>----- ----- ---------- --- the ------ ------ ---- -- ------<br>------- --- ------ ----- --- ---- ------- -- ---- --- --<br>------- ------,277895,277895,277507.735,277511,277524.418,277908.127,,37,the
screen,html.Screen,2_1_1_1_38,2022-05-12T21:38:36.362Z,,,,,,,,,,,,,,,,,54,,,,,,,,,,,,,,401.8730000000214,,response,,,,100,,,,,,,Space,keypress(Space),,,,,,,,-- --- ---- --- ------ ----- ------- ---- -- --- ------- --<br>------- ---------- ------ -- ----- -- ----- -- ---- ------<br>--- ----- --- --- ------ -------- ----- --- ------ ----- --<br>----- ----- ---------- --- --- market ------ ---- -- ------<br>------- --- ------ ----- --- ---- ------- -- ---- --- --<br>------- ------,278311,278310,277891.444,277895,277908.127,278325.202,,38,market
screen,html.Screen,2_1_1_1_39,2022-05-12T21:38:36.793Z,,,,,,,,,,,,,,,,,54,,,,,,,,,,,,,,416.7980000000098,,response,,,,100,,,,,,,Space,keypress(Space),,,,,,,,-- --- ---- --- ------ ----- ------- ---- -- --- ------- --<br>------- ---------- ------ -- ----- -- ----- -- ---- ------<br>--- ----- --- --- ------ -------- ----- --- ------ ----- --<br>----- ----- ---------- --- --- ------ became ---- -- ------<br>------- --- ------ ----- --- ---- ------- -- ---- --- --<br>------- ------,278742,278742,278308.519,278311,278325.202,278758.96,,39,became
screen,html.Screen,2_1_1_1_40,2022-05-12T21:38:37.186Z,,,,,,,,,,,,,,,,,54,,,,,,,,,,,,,,375.03999999997905,,response,,,,100,,,,,,,Space,keypress(Space),,,,,,,,-- --- ---- --- ------ ----- ------- ---- -- --- ------- --<br>------- ---------- ------ -- ----- -- ----- -- ---- ------<br>--- ----- --- --- ------ -------- ----- --- ------ ----- --<br>----- ----- ---------- --- --- ------ ------ wary -- ------<br>------- --- ------ ----- --- ---- ------- -- ---- --- --<br>------- ------,279135,279134,278742.277,278743,278758.96,279142.669,,40,wary
screen,html.Screen,2_1_1_1_41,2022-05-12T21:38:37.586Z,,,,,,,,,,,,,,,,,54,,,,,,,,,,,,,,391.3310000000056,,response,,,,100,,,,,,,Space,keypress(Space),,,,,,,,-- --- ---- --- ------ ----- ------- ---- -- --- ------- --<br>------- ---------- ------ -- ----- -- ----- -- ---- ------<br>--- ----- --- --- ------ -------- ----- --- ------ ----- --<br>----- ----- ---------- --- --- ------ ------ ---- of ------<br>------- --- ------ ----- --- ---- ------- -- ---- --- --<br>------- ------,279535,279534,279125.986,279135,279142.669,279543.061,,41,of
screen,html.Screen,2_1_1_1_42,2022-05-12T21:38:37.987Z,,,,,,,,,,,,,,,,,54,,,,,,,,,,,,,,391.93900000001304,,response,,,,100,,,,,,,Space,keypress(Space),,,,,,,,-- --- ---- --- ------ ----- ------- ---- -- --- ------- --<br>------- ---------- ------ -- ----- -- ----- -- ---- ------<br>--- ----- --- --- ------ -------- ----- --- ------ ----- --<br>----- ----- ---------- --- --- ------ ------ ---- -- French<br>------- --- ------ ----- --- ---- ------- -- ---- --- --<br>------- ------,279936,279935,279526.378,279535,279543.061,279943.453,,42,French
screen,html.Screen,2_1_1_1_43,2022-05-12T21:38:38.411Z,,,,,,,,,,,,,,,,,54,,,,,,,,,,,,,,415.5470000000205,,response,,,,100,,,,,,,Space,keypress(Space),,,,,,,,-- --- ---- --- ------ ----- ------- ---- -- --- ------- --<br>------- ---------- ------ -- ----- -- ----- -- ---- ------<br>--- ----- --- --- ------ -------- ----- --- ------ ----- --<br>----- ----- ---------- --- --- ------ ------ ---- -- ------<br>credit. --- ------ ----- --- ---- ------- -- ---- --- --<br>------- ------,280360,280359,279926.77,279936,279943.453,280360.528,,43,credit.
screen,html.Screen,2_1_1_1_44,2022-05-12T21:38:38.858Z,,,,,,,,,,,,,,,,,54,,,,,,,,,,,,,,446.47200000000885,,response,,,,100,,,,,,,Space,keypress(Space),,,,,,,,-- --- ---- --- ------ ----- ------- ---- -- --- ------- --<br>------- ---------- ------ -- ----- -- ----- -- ---- ------<br>--- ----- --- --- ------ -------- ----- --- ------ ----- --<br>----- ----- ---------- --- --- ------ ------ ---- -- ------<br>------- The ------ ----- --- ---- ------- -- ---- --- --<br>------- ------,280807,280807,280343.845,280360,280360.528,280810.969,,44,The
screen,html.Screen,2_1_1_1_45,2022-05-12T21:38:39.243Z,,,,,,,,,,,,,,,,,54,,,,,,,,,,,,,,380.03100000001723,,response,,,,100,,,,,,,Space,keypress(Space),,,,,,,,-- --- ---- --- ------ ----- ------- ---- -- --- ------- --<br>------- ---------- ------ -- ----- -- ----- -- ---- ------<br>--- ----- --- --- ------ -------- ----- --- ------ ----- --<br>----- ----- ---------- --- --- ------ ------ ---- -- ------<br>------- --- French ----- --- ---- ------- -- ---- --- --<br>------- ------,281192,281191,280794.286,280807,280810.969,281194.678,,45,French
screen,html.Screen,2_1_1_1_46,2022-05-12T21:38:39.666Z,,,,,,,,,,,,,,,,,54,,,,,,,,,,,,,,420.32199999998556,,response,,,,100,,,,,,,Space,keypress(Space),,,,,,,,-- --- ---- --- ------ ----- ------- ---- -- --- ------- --<br>------- ---------- ------ -- ----- -- ----- -- ---- ------<br>--- ----- --- --- ------ -------- ----- --- ------ ----- --<br>----- ----- ---------- --- --- ------ ------ ---- -- ------<br>------- --- ------ state --- ---- ------- -- ---- --- --<br>------- ------,281615,281615,281177.995,281192,281194.678,281628.436,,46,state
screen,html.Screen,2_1_1_1_47,2022-05-12T21:38:40.058Z,,,,,,,,,,,,,,,,,54,,,,,,,,,,,,,,378.56400000001304,,response,,,,100,,,,,,,Space,keypress(Space),,,,,,,,-- --- ---- --- ------ ----- ------- ---- -- --- ------- --<br>------- ---------- ------ -- ----- -- ----- -- ---- ------<br>--- ----- --- --- ------ -------- ----- --- ------ ----- --<br>----- ----- ---------- --- --- ------ ------ ---- -- ------<br>------- --- ------ ----- was ---- ------- -- ---- --- --<br>------- ------,282007,282007,281611.753,281615,281628.436,282012.145,,47,was
screen,html.Screen,2_1_1_1_48,2022-05-12T21:38:40.443Z,,,,,,,,,,,,,,,,,54,,,,,,,,,,,,,,378.8549999999814,,response,,,,100,,,,,,,Space,keypress(Space),,,,,,,,-- --- ---- --- ------ ----- ------- ---- -- --- ------- --<br>------- ---------- ------ -- ----- -- ----- -- ---- ------<br>--- ----- --- --- ------ -------- ----- --- ------ ----- --<br>----- ----- ---------- --- --- ------ ------ ---- -- ------<br>------- --- ------ ----- --- left ------- -- ---- --- --<br>------- ------,282392,282391,281995.462,282007,282012.145,282395.854,,48,left
screen,html.Screen,2_1_1_1_49,2022-05-12T21:38:40.826Z,,,,,,,,,,,,,,,,,54,,,,,,,,,,,,,,379.1460000000079,,response,,,,100,,,,,,,Space,keypress(Space),,,,,,,,-- --- ---- --- ------ ----- ------- ---- -- --- ------- --<br>------- ---------- ------ -- ----- -- ----- -- ---- ------<br>--- ----- --- --- ------ -------- ----- --- ------ ----- --<br>----- ----- ---------- --- --- ------ ------ ---- -- ------<br>------- --- ------ ----- --- ---- without -- ---- --- --<br>------- ------,282775,282775,282379.171,282392,282395.854,282779.563,,49,without
screen,html.Screen,2_1_1_1_50,2022-05-12T21:38:41.218Z,,,,,,,,,,,,,,,,,54,,,,,,,,,,,,,,387.43699999997625,,response,,,,100,,,,,,,Space,keypress(Space),,,,,,,,-- --- ---- --- ------ ----- ------- ---- -- --- ------- --<br>------- ---------- ------ -- ----- -- ----- -- ---- ------<br>--- ----- --- --- ------ -------- ----- --- ------ ----- --<br>----- ----- ---------- --- --- ------ ------ ---- -- ------<br>------- --- ------ ----- --- ---- ------- an ---- --- --<br>------- ------,283167,283167,282762.88,282775,282779.563,283179.955,,50,an
screen,html.Screen,2_1_1_1_51,2022-05-12T21:38:41.611Z,,,,,,,,,,,,,,,,,54,,,,,,,,,,,,,,379.0449999999837,,response,,,,100,,,,,,,Space,keypress(Space),,,,,,,,-- --- ---- --- ------ ----- ------- ---- -- --- ------- --<br>------- ---------- ------ -- ----- -- ----- -- ---- ------<br>--- ----- --- --- ------ -------- ----- --- ------ ----- --<br>----- ----- ---------- --- --- ------ ------ ---- -- ------<br>------- --- ------ ----- --- ---- ------- -- easy --- --<br>------- ------,283560,283559,283163.272,283168,283179.955,283563.664,,51,easy
screen,html.Screen,2_1_1_1_52,2022-05-12T21:38:41.970Z,,,,,,,,,,,,,,,,,54,,,,,,,,,,,,,,355.33600000001024,,response,,,,100,,,,,,,Space,keypress(Space),,,,,,,,-- --- ---- --- ------ ----- ------- ---- -- --- ------- --<br>------- ---------- ------ -- ----- -- ----- -- ---- ------<br>--- ----- --- --- ------ -------- ----- --- ------ ----- --<br>----- ----- ---------- --- --- ------ ------ ---- -- ------<br>------- --- ------ ----- --- ---- ------- -- ---- way --<br>------- ------,283919,283919,283546.981,283560,283563.664,283930.69,,52,way
screen,html.Screen,2_1_1_1_53,2022-05-12T21:38:42.346Z,,,,,,,,,,,,,,,,,54,,,,,,,,,,,,,,364.3099999999977,,response,,,,100,,,,,,,Space,keypress(Space),,,,,,,,-- --- ---- --- ------ ----- ------- ---- -- --- ------- --<br>------- ---------- ------ -- ----- -- ----- -- ---- ------<br>--- ----- --- --- ------ -------- ----- --- ------ ----- --<br>----- ----- ---------- --- --- ------ ------ ---- -- ------<br>------- --- ------ ----- --- ---- ------- -- ---- --- of<br>------- ------,284295,284295,283914.007,283919,283930.69,284297.716,,53,of
screen,html.Screen,2_1_1_1_54,2022-05-12T21:38:42.771Z,,,,,,,,,,,,,,,,,54,,,,,,,,,,,,,,421.2839999999851,,response,,,,100,,,,,,,Space,keypress(Space),,,,,,,,-- --- ---- --- ------ ----- ------- ---- -- --- ------- --<br>------- ---------- ------ -- ----- -- ----- -- ---- ------<br>--- ----- --- --- ------ -------- ----- --- ------ ----- --<br>----- ----- ---------- --- --- ------ ------ ---- -- ------<br>------- --- ------ ----- --- ---- ------- -- ---- --- --<br>raising ------,284720,284719,284281.033,284295,284297.716,284731.474,,54,raising
screen,html.Screen,2_1_1_1_55,2022-05-12T21:38:43.674Z,,,,,,,,,,,,,,,,,54,,,,,,,,,,,,,,891.5260000000126,,response,,,,100,,,,,,,Space,keypress(Space),,,,,,,,-- --- ---- --- ------ ----- ------- ---- -- --- ------- --<br>------- ---------- ------ -- ----- -- ----- -- ---- ------<br>--- ----- --- --- ------ -------- ----- --- ------ ----- --<br>----- ----- ---------- --- --- ------ ------ ---- -- ------<br>------- --- ------ ----- --- ---- ------- -- ---- --- --<br>------- money.,285623,285623,284714.791,284720,284731.474,285632.356,,55,money.
Item 100,flow.Loop,2_1_1_1,2022-05-12T21:38:43.674Z,,,,,,,,,,,,,,,,,,,,,,,,,,,,,,,26066.17300000001,,completion,,,,,E,,,,,,,,,,,silence,,,,,285623,285623,259540.144,259544,259556.827,285632.356,,,
Question 1,html.Screen,2_1_1_2,2022-05-12T21:38:46.384Z,,,,,,,,,,,,,,,,,,,,,,,,,,,,true,TRUE,,2699.643999999971,,response,,,,100,E,,,,,,TRUE,click #choice-1,,,,silence,,,,,288333,288332,285615.673,285623,285632.356,288335.002,,,
Question 2,html.Screen,2_1_1_3,2022-05-12T21:38:49.320Z,,,,,,,,,,,,,,,,,,,,,,,,,,,,true,FALSE,,2932.9980000000214,,response,,,,100,E,,,,,,FALSE,click #choice-2,,,,silence,,,,,291269,291268,288318.319,288333,288335.002,291271.21,,,
Item 100,flow.Sequence,2_1_1,2022-05-12T21:38:49.320Z,,,,,,,,,,,,,,,,,,,,,,,,,,,,,,,41704.29000000001,,completion,,,,,,,,,,,,,,,,,,,,,291269,291268,249547.027,249551,249563.71,291271.21,,,
End of Practice,html.Page,2_1_2,2022-05-12T21:38:55.562Z,,,,,,,,,,,,,,,,,,,,,,,,,,,,,,,6238.789999999979,,form submission,,,,,,,,,,,,,,,,,,,,,297511,297510,291254.527,291269,291271.21,297510.652,,,
Practice,flow.Sequence,2_1,2022-05-12T21:38:55.562Z,,,,,,,,,,,,,,,,,,,,,,,,,,,,,,,107087.525,,completion,,,,,,,,,,,,,,,,,,,,,297511,297510,190372.426,190418,190422.475,297510.652,,,
Trap_instruction,html.Page,2_2_0,2022-05-12T21:39:01.658Z,,,,,,,,,,,,,,,,,,,,,,,,,,,,,,,6095.347999999998,,form submission,,,,,,,,,,,,,,,,,,,,,303607,303606,297493.969,297511,297510.652,303950.29,,,
trap_trial,html.Screen,2_2_1,2022-05-12T21:39:06.264Z,,,,,,,,,,,,,,,,,,,,,,,,,,,,true,1,,4261.710000000021,,response,,,,,,,,,,,1,click #choice-1,,,,,,,,,308213,308212,303599.947,303607,303950.29,308237.821,,,
end of trap trial,html.Page,2_2_2,2022-05-12T21:39:08.746Z,,,,,,,,,,,,,,,,,,,,,,,,,,,,,,,2455.1790000000037,,form submission,,,,,,,,,,,,,,,,,,,,,310694,310693,308204.455,308213,308237.821,310706.905,,,
Trap 1,flow.Sequence,2_2,2022-05-12T21:39:08.746Z,,,,,,,,,,,,,,,,,,,,,,,,,,,,,,,13182.347999999998,,completion,,,,,,,,,,,,,,,,,,,,,310694,310693,297493.969,297511,297510.652,310706.905,,,
Standby,html.Page,2_3_0,2022-05-12T21:39:16.755Z,,,,,,,,,,,,,,,,,,,,,,,,,,,,,,,8007.839999999967,,timeout,,,,,,,,,,,,,,,,,,,,,318703,318698.062,310690.222,310694,310706.905,318714.745,,,
Holding screen,html.Screen,2_3_1_0_0,2022-05-12T21:39:23.761Z,,,,,,,,,,,,,,,,,,,,,,,,,,,,,,,7006.859999999986,,timeout,,,,,,,,,,,,,,,,,,,,,325709,325704.922,318698.062,318704,318714.745,325721.605,,,
screen,html.Screen,2_3_1_0_1_0,2022-05-12T21:39:25.700Z,,,,,,,,,,,,,,,,,40,,,,,,,,,,,,,,1925.3950000000186,,response,,,,9,E,,,,,,Space,keypress(Space),,,,silence,,,,Police -- ------- ---- ---- ---- - -------- ----- --- --<br>----- ----- ------ -- ---- -- --- - ---- -- - ----- -----<br>------ ---- ------ ---- - -------- ------- -- --- --------<br>-------- ----------- ---- ------ ---- ------ ---- --- ---<br>-------- --- -----,327648,327647,325704.922,325709,325721.605,327656.833,,0,Police
screen,html.Screen,2_3_1_0_1_1,2022-05-12T21:39:26.123Z,,,,,,,,,,,,,,,,,40,,,,,,,,,,,,,,413.16700000001583,,response,,,,9,E,,,,,,Space,keypress(Space),,,,silence,,,,------ in ------- ---- ---- ---- - -------- ----- --- --<br>----- ----- ------ -- ---- -- --- - ---- -- - ----- -----<br>------ ---- ------ ---- - -------- ------- -- --- --------<br>-------- ----------- ---- ------ ---- ------ ---- --- ---<br>-------- --- -----,328071,328070,327640.15,327648,327656.833,328073.908,,1,in
screen,html.Screen,2_3_1_0_1_2,2022-05-12T21:39:26.563Z,,,,,,,,,,,,,,,,,40,,,,,,,,,,,,,,436.0920000000042,,response,,,,9,E,,,,,,Space,keypress(Space),,,,silence,,,,------ -- Georgia ---- ---- ---- - -------- ----- --- --<br>----- ----- ------ -- ---- -- --- - ---- -- - ----- -----<br>------ ---- ------ ---- - -------- ------- -- --- --------<br>-------- ----------- ---- ------ ---- ------ ---- --- ---<br>-------- --- -----,328511,328510,328057.225,328071,328073.908,328524.349,,2,Georgia
screen,html.Screen,2_3_1_0_1_3,2022-05-12T21:39:30.067Z,,,,,,,,,,,,,,,,,40,,,,,,,,,,,,,,3489.6510000000126,,response,,,,9,E,,,,,,Space,keypress(Space),,,,silence,,,,------ -- ------- have ---- ---- - -------- ----- --- --<br>----- ----- ------ -- ---- -- --- - ---- -- - ----- -----<br>------ ---- ------ ---- - -------- ------- -- --- --------<br>-------- ----------- ---- ------ ---- ------ ---- --- ---<br>-------- --- -----,332015,332014,328507.666,328511,328524.349,332027.779,,3,have
screen,html.Screen,2_3_1_0_1_4,2022-05-12T21:39:30.540Z,,,,,,,,,,,,,,,,,40,,,,,,,,,,,,,,459.22100000001956,,response,,,,9,E,,,,,,Space,keypress(Space),,,,silence,,,,------ -- ------- ---- shut ---- - -------- ----- --- --<br>----- ----- ------ -- ---- -- --- - ---- -- - ----- -----<br>------ ---- ------ ---- - -------- ------- -- --- --------<br>-------- ----------- ---- ------ ---- ------ ---- --- ---<br>-------- --- -----,332488,332487,332011.096,332015,332027.779,332494.903,,4,shut
screen,html.Screen,2_3_1_0_1_5,2022-05-12T21:39:31.036Z,,,,,,,,,,,,,,,,,40,,,,,,,,,,,,,,488.09700000000885,,response,,,,9,E,,,,,,Space,keypress(Space),,,,silence,,,,------ -- ------- ---- ---- down - -------- ----- --- --<br>----- ----- ------ -- ---- -- --- - ---- -- - ----- -----<br>------ ---- ------ ---- - -------- ------- -- --- --------<br>-------- ----------- ---- ------ ---- ------ ---- --- ---<br>-------- --- -----,332984,332983,332478.22,332488,332494.903,332995.393,,5,down
screen,html.Screen,2_3_1_0_1_6,2022-05-12T21:39:31.355Z,,,,,,,,,,,,,,,,,40,,,,,,,,,,,,,,307.60700000001816,,response,,,,9,E,,,,,,Space,keypress(Space),,,,silence,,,,------ -- ------- ---- ---- ---- a -------- ----- --- --<br>----- ----- ------ -- ---- -- --- - ---- -- - ----- -----<br>------ ---- ------ ---- - -------- ------- -- --- --------<br>-------- ----------- ---- ------ ---- ------ ---- --- ---<br>-------- --- -----,333303,333303,332978.71,332984,332995.393,333312.37,,6,a
screen,html.Screen,2_3_1_0_1_7,2022-05-12T21:39:31.652Z,,,,,,,,,,,,,,,,,40,,,,,,,,,,,,,,286.63000000000466,,response,,,,9,E,,,,,,Space,keypress(Space),,,,silence,,,,------ -- ------- ---- ---- ---- - lemonade ----- --- --<br>----- ----- ------ -- ---- -- --- - ---- -- - ----- -----<br>------ ---- ------ ---- - -------- ------- -- --- --------<br>-------- ----------- ---- ------ ---- ------ ---- --- ---<br>-------- --- -----,333600,333599,333295.687,333303,333312.37,333612.664,,7,lemonade
screen,html.Screen,2_3_1_0_1_8,2022-05-12T21:39:32.036Z,,,,,,,,,,,,,,,,,40,,,,,,,,,,,,,,370.33600000001024,,response,,,,9,E,,,,,,Space,keypress(Space),,,,silence,,,,------ -- ------- ---- ---- ---- - -------- stand --- --<br>----- ----- ------ -- ---- -- --- - ---- -- - ----- -----<br>------ ---- ------ ---- - -------- ------- -- --- --------<br>-------- ----------- ---- ------ ---- ------ ---- --- ---<br>-------- --- -----,333984,333983,333595.981,333600,333612.664,333996.373,,8,stand
screen,html.Screen,2_3_1_0_1_9,2022-05-12T21:39:32.372Z,,,,,,,,,,,,,,,,,40,,,,,,,,,,,,,,322.6269999999786,,response,,,,9,E,,,,,,Space,keypress(Space),,,,silence,,,,------ -- ------- ---- ---- ---- - -------- ----- run --<br>----- ----- ------ -- ---- -- --- - ---- -- - ----- -----<br>------ ---- ------ ---- - -------- ------- -- --- --------<br>-------- ----------- ---- ------ ---- ------ ---- --- ---<br>-------- --- -----,334320,334319,333979.69,333984,333996.373,334330.033,,9,run
screen,html.Screen,2_3_1_0_1_10,2022-05-12T21:39:32.907Z,,,,,,,,,,,,,,,,,40,,,,,,,,,,,,,,524.9670000000042,,response,,,,9,E,,,,,,Space,keypress(Space),,,,silence,,,,------ -- ------- ---- ---- ---- - -------- ----- --- by<br>----- ----- ------ -- ---- -- --- - ---- -- - ----- -----<br>------ ---- ------ ---- - -------- ------- -- --- --------<br>-------- ----------- ---- ------ ---- ------ ---- --- ---<br>-------- --- -----,334855,334855,334313.35,334320,334330.033,334863.889,,10,by
screen,html.Screen,2_3_1_0_1_11,2022-05-12T21:39:33.515Z,,,,,,,,,,,,,,,,,40,,,,,,,,,,,,,,599.1109999999753,,response,,,,9,E,,,,,,Space,keypress(Space),,,,silence,,,,------ -- ------- ---- ---- ---- - -------- ----- --- --<br>three ----- ------ -- ---- -- --- - ---- -- - ----- -----<br>------ ---- ------ ---- - -------- ------- -- --- --------<br>-------- ----------- ---- ------ ---- ------ ---- --- ---<br>-------- --- -----,335463,335463,334847.206,334855,334863.889,335464.477,,11,three
screen,html.Screen,2_3_1_0_1_12,2022-05-12T21:39:33.883Z,,,,,,,,,,,,,,,,,40,,,,,,,,,,,,,,366.5229999999865,,response,,,,9,E,,,,,,Space,keypress(Space),,,,silence,,,,------ -- ------- ---- ---- ---- - -------- ----- --- --<br>----- girls ------ -- ---- -- --- - ---- -- - ----- -----<br>------ ---- ------ ---- - -------- ------- -- --- --------<br>-------- ----------- ---- ------ ---- ------ ---- --- ---<br>-------- --- -----,335831,335831,335447.794,335463,335464.477,335848.186,,12,girls
screen,html.Screen,2_3_1_0_1_13,2022-05-12T21:39:34.331Z,,,,,,,,,,,,,,,,,40,,,,,,,,,,,,,,430.81400000001304,,response,,,,9,E,,,,,,Space,keypress(Space),,,,silence,,,,------ -- ------- ---- ---- ---- - -------- ----- --- --<br>----- ----- trying -- ---- -- --- - ---- -- - ----- -----<br>------ ---- ------ ---- - -------- ------- -- --- --------<br>-------- ----------- ---- ------ ---- ------ ---- --- ---<br>-------- --- -----,336279,336279,335831.503,335832,335848.186,336281.944,,13,trying
screen,html.Screen,2_3_1_0_1_14,2022-05-12T21:39:34.684Z,,,,,,,,,,,,,,,,,40,,,,,,,,,,,,,,349.0559999999823,,response,,,,9,E,,,,,,Space,keypress(Space),,,,silence,,,,------ -- ------- ---- ---- ---- - -------- ----- --- --<br>----- ----- ------ to ---- -- --- - ---- -- - ----- -----<br>------ ---- ------ ---- - -------- ------- -- --- --------<br>-------- ----------- ---- ------ ---- ------ ---- --- ---<br>-------- --- -----,336632,336631,336265.261,336279,336281.944,336632.287,,14,to
screen,html.Screen,2_3_1_0_1_15,2022-05-12T21:39:35.027Z,,,,,,,,,,,,,,,,,40,,,,,,,,,,,,,,342.7129999999888,,response,,,,9,E,,,,,,Space,keypress(Space),,,,silence,,,,------ -- ------- ---- ---- ---- - -------- ----- --- --<br>----- ----- ------ -- save -- --- - ---- -- - ----- -----<br>------ ---- ------ ---- - -------- ------- -- --- --------<br>-------- ----------- ---- ------ ---- ------ ---- --- ---<br>-------- --- -----,336975,336975,336615.604,336632,336632.287,336982.63,,15,save
screen,html.Screen,2_3_1_0_1_16,2022-05-12T21:39:35.372Z,,,,,,,,,,,,,,,,,40,,,,,,,,,,,,,,336.36999999999534,,response,,,,9,E,,,,,,Space,keypress(Space),,,,silence,,,,------ -- ------- ---- ---- ---- - -------- ----- --- --<br>----- ----- ------ -- ---- up --- - ---- -- - ----- -----<br>------ ---- ------ ---- - -------- ------- -- --- --------<br>-------- ----------- ---- ------ ---- ------ ---- --- ---<br>-------- --- -----,337320,337319,336965.947,336975,336982.63,337332.973,,16,up
screen,html.Screen,2_3_1_0_1_17,2022-05-12T21:39:35.684Z,,,,,,,,,,,,,,,,,40,,,,,,,,,,,,,,299.02700000000186,,response,,,,9,E,,,,,,Space,keypress(Space),,,,silence,,,,------ -- ------- ---- ---- ---- - -------- ----- --- --<br>----- ----- ------ -- ---- -- for - ---- -- - ----- -----<br>------ ---- ------ ---- - -------- ------- -- --- --------<br>-------- ----------- ---- ------ ---- ------ ---- --- ---<br>-------- --- -----,337632,337632,337316.29,337320,337332.973,337633.267,,17,for
screen,html.Screen,2_3_1_0_1_18,2022-05-12T21:39:36.020Z,,,,,,,,,,,,,,,,,40,,,,,,,,,,,,,,334.73300000000745,,response,,,,9,E,,,,,,Space,keypress(Space),,,,silence,,,,------ -- ------- ---- ---- ---- - -------- ----- --- --<br>----- ----- ------ -- ---- -- --- a ---- -- - ----- -----<br>------ ---- ------ ---- - -------- ------- -- --- --------<br>-------- ----------- ---- ------ ---- ------ ---- --- ---<br>-------- --- -----,337968,337968,337616.584,337632,337633.267,337983.61,,18,a
screen,html.Screen,2_3_1_0_1_19,2022-05-12T21:39:36.507Z,,,,,,,,,,,,,,,,,40,,,,,,,,,,,,,,471.39000000001397,,response,,,,9,E,,,,,,Space,keypress(Space),,,,silence,,,,------ -- ------- ---- ---- ---- - -------- ----- --- --<br>----- ----- ------ -- ---- -- --- - trip -- - ----- -----<br>------ ---- ------ ---- - -------- ------- -- --- --------<br>-------- ----------- ---- ------ ---- ------ ---- --- ---<br>-------- --- -----,338455,338455,337966.927,337968,337983.61,338467.417,,19,trip
screen,html.Screen,2_3_1_0_1_20,2022-05-12T21:39:36.835Z,,,,,,,,,,,,,,,,,40,,,,,,,,,,,,,,315.58299999998417,,response,,,,9,E,,,,,,Space,keypress(Space),,,,silence,,,,------ -- ------- ---- ---- ---- - -------- ----- --- --<br>----- ----- ------ -- ---- -- --- - ---- to - ----- -----<br>------ ---- ------ ---- - -------- ------- -- --- --------<br>-------- ----------- ---- ------ ---- ------ ---- --- ---<br>-------- --- -----,338783,338783,338450.734,338455,338467.417,338784.394,,20,to
screen,html.Screen,2_3_1_0_1_21,2022-05-12T21:39:37.163Z,,,,,,,,,,,,,,,,,40,,,,,,,,,,,,,,325.60600000002887,,response,,,,9,E,,,,,,Space,keypress(Space),,,,silence,,,,------ -- ------- ---- ---- ---- - -------- ----- --- --<br>----- ----- ------ -- ---- -- --- - ---- -- a ----- -----<br>------ ---- ------ ---- - -------- ------- -- --- --------<br>-------- ----------- ---- ------ ---- ------ ---- --- ---<br>-------- --- -----,339111,339110,338767.711,338783,338784.394,339118.054,,21,a
screen,html.Screen,2_3_1_0_1_22,2022-05-12T21:39:37.507Z,,,,,,,,,,,,,,,,,40,,,,,,,,,,,,,,336.9459999999963,,response,,,,9,E,,,,,,Space,keypress(Space),,,,silence,,,,------ -- ------- ---- ---- ---- - -------- ----- --- --<br>----- ----- ------ -- ---- -- --- - ---- -- - water -----<br>------ ---- ------ ---- - -------- ------- -- --- --------<br>-------- ----------- ---- ------ ---- ------ ---- --- ---<br>-------- --- -----,339455,339455,339101.371,339111,339118.054,339468.397,,22,water
screen,html.Screen,2_3_1_0_1_23,2022-05-12T21:39:38.195Z,,,,,,,,,,,,,,,,,40,,,,,,,,,,,,,,673.6030000000028,,response,,,,9,E,,,,,,Space,keypress(Space),,,,silence,,,,"------ -- ------- ---- ---- ---- - -------- ----- --- --<br>----- ----- ------ -- ---- -- --- - ---- -- - ----- park,<br>------ ---- ------ ---- - -------- ------- -- --- --------<br>-------- ----------- ---- ------ ---- ------ ---- --- ---<br>-------- --- -----",340143,340142,339451.714,339455,339468.397,340152.4,,23,"park,"
screen,html.Screen,2_3_1_0_1_24,2022-05-12T21:39:38.724Z,,,,,,,,,,,,,,,,,40,,,,,,,,,,,,,,518.5999999999767,,response,,,,9,E,,,,,,Space,keypress(Space),,,,silence,,,,------ -- ------- ---- ---- ---- - -------- ----- --- --<br>----- ----- ------ -- ---- -- --- - ---- -- - ----- -----<br>saying ---- ------ ---- - -------- ------- -- --- --------<br>-------- ----------- ---- ------ ---- ------ ---- --- ---<br>-------- --- -----,340672,340671,340135.717,340143,340152.4,340686.256,,24,saying
screen,html.Screen,2_3_1_0_1_25,2022-05-12T21:39:39.307Z,,,,,,,,,,,,,,,,,40,,,,,,,,,,,,,,568.744000000006,,response,,,,9,E,,,,,,Space,keypress(Space),,,,silence,,,,------ -- ------- ---- ---- ---- - -------- ----- --- --<br>----- ----- ------ -- ---- -- --- - ---- -- - ----- -----<br>------ they ------ ---- - -------- ------- -- --- --------<br>-------- ----------- ---- ------ ---- ------ ---- --- ---<br>-------- --- -----,341255,341255,340669.573,340672,340686.256,341270.161,,25,they
screen,html.Screen,2_3_1_0_1_26,2022-05-12T21:39:39.827Z,,,,,,,,,,,,,,,,,40,,,,,,,,,,,,,,503.8389999999781,,response,,,,9,E,,,,,,Space,keypress(Space),,,,silence,,,,------ -- ------- ---- ---- ---- - -------- ----- --- --<br>----- ----- ------ -- ---- -- --- - ---- -- - ----- -----<br>------ ---- didn't ---- - -------- ------- -- --- --------<br>-------- ----------- ---- ------ ---- ------ ---- --- ---<br>-------- --- -----,341775,341774,341253.478,341255,341270.161,341787.334,,26,didn't
screen,html.Screen,2_3_1_0_1_27,2022-05-12T21:39:40.355Z,,,,,,,,,,,,,,,,,40,,,,,,,,,,,,,,514.6660000000265,,response,,,,9,E,,,,,,Space,keypress(Space),,,,silence,,,,------ -- ------- ---- ---- ---- - -------- ----- --- --<br>----- ----- ------ -- ---- -- --- - ---- -- - ----- -----<br>------ ---- ------ have - -------- ------- -- --- --------<br>-------- ----------- ---- ------ ---- ------ ---- --- ---<br>-------- --- -----,342303,342302,341770.651,341775,341787.334,342304.507,,27,have
screen,html.Screen,2_3_1_0_1_28,2022-05-12T21:39:40.699Z,,,,,,,,,,,,,,,,,40,,,,,,,,,,,,,,341.49300000001676,,response,,,,9,E,,,,,,Space,keypress(Space),,,,silence,,,,------ -- ------- ---- ---- ---- - -------- ----- --- --<br>----- ----- ------ -- ---- -- --- - ---- -- - ----- -----<br>------ ---- ------ ---- a -------- ------- -- --- --------<br>-------- ----------- ---- ------ ---- ------ ---- --- ---<br>-------- --- -----,342647,342646,342287.824,342303,342304.507,342654.85,,28,a
screen,html.Screen,2_3_1_0_1_29,2022-05-12T21:39:41.227Z,,,,,,,,,,,,,,,,,40,,,,,,,,,,,,,,519.1500000000233,,response,,,,9,E,,,,,,Space,keypress(Space),,,,silence,,,,------ -- ------- ---- ---- ---- - -------- ----- --- --<br>----- ----- ------ -- ---- -- --- - ---- -- - ----- -----<br>------ ---- ------ ---- - business ------- -- --- --------<br>-------- ----------- ---- ------ ---- ------ ---- --- ---<br>-------- --- -----,343175,343174,342638.167,342647,342654.85,343188.706,,29,business
screen,html.Screen,2_3_1_0_1_30,2022-05-12T21:39:41.595Z,,,,,,,,,,,,,,,,,40,,,,,,,,,,,,,,353.2939999999944,,response,,,,9,E,,,,,,Space,keypress(Space),,,,silence,,,,------ -- ------- ---- ---- ---- - -------- ----- --- --<br>----- ----- ------ -- ---- -- --- - ---- -- - ----- -----<br>------ ---- ------ ---- - -------- license -- --- --------<br>-------- ----------- ---- ------ ---- ------ ---- --- ---<br>-------- --- -----,343543,343542,343172.023,343175,343188.706,343555.732,,30,license
screen,html.Screen,2_3_1_0_1_31,2022-05-12T21:39:41.987Z,,,,,,,,,,,,,,,,,40,,,,,,,,,,,,,,378.26799999998184,,response,,,,9,E,,,,,,Space,keypress(Space),,,,silence,,,,------ -- ------- ---- ---- ---- - -------- ----- --- --<br>----- ----- ------ -- ---- -- --- - ---- -- - ----- -----<br>------ ---- ------ ---- - -------- ------- or --- --------<br>-------- ----------- ---- ------ ---- ------ ---- --- ---<br>-------- --- -----,343935,343934,343539.049,343543,343555.732,343939.441,,31,or
screen,html.Screen,2_3_1_0_1_32,2022-05-12T21:39:42.371Z,,,,,,,,,,,,,,,,,40,,,,,,,,,,,,,,378.5590000000084,,response,,,,9,E,,,,,,Space,keypress(Space),,,,silence,,,,------ -- ------- ---- ---- ---- - -------- ----- --- --<br>----- ----- ------ -- ---- -- --- - ---- -- - ----- -----<br>------ ---- ------ ---- - -------- ------- -- the --------<br>-------- ----------- ---- ------ ---- ------ ---- --- ---<br>-------- --- -----,344319,344318,343922.758,343935,343939.441,344323.15,,32,the
screen,html.Screen,2_3_1_0_1_33,2022-05-12T21:39:42.795Z,,,,,,,,,,,,,,,,,40,,,,,,,,,,,,,,418.8499999999767,,response,,,,9,E,,,,,,Space,keypress(Space),,,,silence,,,,------ -- ------- ---- ---- ---- - -------- ----- --- --<br>----- ----- ------ -- ---- -- --- - ---- -- - ----- -----<br>------ ---- ------ ---- - -------- ------- -- --- required<br>-------- ----------- ---- ------ ---- ------ ---- --- ---<br>-------- --- -----,344743,344742,344306.467,344319,344323.15,344756.908,,33,required
screen,html.Screen,2_3_1_0_1_34,2022-05-12T21:39:43.171Z,,,,,,,,,,,,,,,,,40,,,,,,,,,,,,,,361.0920000000042,,response,,,,9,E,,,,,,Space,keypress(Space),,,,silence,,,,------ -- ------- ---- ---- ---- - -------- ----- --- --<br>----- ----- ------ -- ---- -- --- - ---- -- - ----- -----<br>------ ---- ------ ---- - -------- ------- -- --- --------<br>permits. ----------- ---- ------ ---- ------ ---- --- ---<br>-------- --- -----,345119,345118,344740.225,344743,344756.908,345123.934,,34,permits.
screen,html.Screen,2_3_1_0_1_35,2022-05-12T21:39:43.667Z,,,,,,,,,,,,,,,,,40,,,,,,,,,,,,,,490.0659999999916,,response,,,,9,E,,,,,,Space,keypress(Space),,,,silence,,,,------ -- ------- ---- ---- ---- - -------- ----- --- --<br>----- ----- ------ -- ---- -- --- - ---- -- - ----- -----<br>------ ---- ------ ---- - -------- ------- -- --- --------<br>-------- Morningstar ---- ------ ---- ------ ---- --- ---<br>-------- --- -----,345615,345614,345107.251,345119,345123.934,345624.424,,35,Morningstar
screen,html.Screen,2_3_1_0_1_36,2022-05-12T21:39:44.091Z,,,,,,,,,,,,,,,,,40,,,,,,,,,,,,,,413.57600000000093,,response,,,,9,E,,,,,,Space,keypress(Space),,,,silence,,,,------ -- ------- ---- ---- ---- - -------- ----- --- --<br>----- ----- ------ -- ---- -- --- - ---- -- - ----- -----<br>------ ---- ------ ---- - -------- ------- -- --- --------<br>-------- ----------- says ------ ---- ------ ---- --- ---<br>-------- --- -----,346039,346038,345607.741,345615,345624.424,346041.499,,36,says
screen,html.Screen,2_3_1_0_1_37,2022-05-12T21:39:44.491Z,,,,,,,,,,,,,,,,,40,,,,,,,,,,,,,,396.5009999999893,,response,,,,9,E,,,,,,Space,keypress(Space),,,,silence,,,,------ -- ------- ---- ---- ---- - -------- ----- --- --<br>----- ----- ------ -- ---- -- --- - ---- -- - ----- -----<br>------ ---- ------ ---- - -------- ------- -- --- --------<br>-------- ----------- ---- police ---- ------ ---- --- ---<br>-------- --- -----,346439,346438,346024.816,346039,346041.499,346441.891,,37,police
screen,html.Screen,2_3_1_0_1_38,2022-05-12T21:39:44.843Z,,,,,,,,,,,,,,,,,40,,,,,,,,,,,,,,348.10899999999674,,response,,,,9,E,,,,,,Space,keypress(Space),,,,silence,,,,------ -- ------- ---- ---- ---- - -------- ----- --- --<br>----- ----- ------ -- ---- -- --- - ---- -- - ----- -----<br>------ ---- ------ ---- - -------- ------- -- --- --------<br>-------- ----------- ---- ------ also ------ ---- --- ---<br>-------- --- -----,346791,346790,346425.208,346439,346441.891,346792.234,,38,also
screen,html.Screen,2_3_1_0_1_39,2022-05-12T21:39:45.195Z,,,,,,,,,,,,,,,,,40,,,,,,,,,,,,,,349.76600000000326,,response,,,,9,E,,,,,,Space,keypress(Space),,,,silence,,,,------ -- ------- ---- ---- ---- - -------- ----- --- --<br>----- ----- ------ -- ---- -- --- - ---- -- - ----- -----<br>------ ---- ------ ---- - -------- ------- -- --- --------<br>-------- ----------- ---- ------ ---- didn't ---- --- ---<br>-------- --- -----,347143,347142,346775.551,346791,346792.234,347159.26,,39,didn't
screen,html.Screen,2_3_1_0_1_40,2022-05-12T21:39:45.531Z,,,,,,,,,,,,,,,,,40,,,,,,,,,,,,,,318.7399999999907,,response,,,,9,E,,,,,,Space,keypress(Space),,,,silence,,,,------ -- ------- ---- ---- ---- - -------- ----- --- --<br>----- ----- ------ -- ---- -- --- - ---- -- - ----- -----<br>------ ---- ------ ---- - -------- ------- -- --- --------<br>-------- ----------- ---- ------ ---- ------ know --- ---<br>-------- --- -----,347479,347478,347142.577,347143,347159.26,347492.92,,40,know
screen,html.Screen,2_3_1_0_1_41,2022-05-12T21:39:45.859Z,,,,,,,,,,,,,,,,,40,,,,,,,,,,,,,,313.0800000000163,,response,,,,9,E,,,,,,Space,keypress(Space),,,,silence,,,,------ -- ------- ---- ---- ---- - -------- ----- --- --<br>----- ----- ------ -- ---- -- --- - ---- -- - ----- -----<br>------ ---- ------ ---- - -------- ------- -- --- --------<br>-------- ----------- ---- ------ ---- ------ ---- how ---<br>-------- --- -----,347807,347806,347476.237,347479,347492.92,347809.897,,41,how
screen,html.Screen,2_3_1_0_1_42,2022-05-12T21:39:46.211Z,,,,,,,,,,,,,,,,,40,,,,,,,,,,,,,,349.1030000000028,,response,,,,9,E,,,,,,Space,keypress(Space),,,,silence,,,,------ -- ------- ---- ---- ---- - -------- ----- --- --<br>----- ----- ------ -- ---- -- --- - ---- -- - ----- -----<br>------ ---- ------ ---- - -------- ------- -- --- --------<br>-------- ----------- ---- ------ ---- ------ ---- --- the<br>-------- --- -----,348159,348159,347793.214,347807,347809.897,348160.24,,42,the
screen,html.Screen,2_3_1_0_1_43,2022-05-12T21:39:46.643Z,,,,,,,,,,,,,,,,,40,,,,,,,,,,,,,,429.7600000000093,,response,,,,9,E,,,,,,Space,keypress(Space),,,,silence,,,,------ -- ------- ---- ---- ---- - -------- ----- --- --<br>----- ----- ------ -- ---- -- --- - ---- -- - ----- -----<br>------ ---- ------ ---- - -------- ------- -- --- --------<br>-------- ----------- ---- ------ ---- ------ ---- --- ---<br>lemonade --- -----,348591,348590,348143.557,348159,348160.24,348593.998,,43,lemonade
screen,html.Screen,2_3_1_0_1_44,2022-05-12T21:39:47.003Z,,,,,,,,,,,,,,,,,40,,,,,,,,,,,,,,356.0019999999786,,response,,,,9,E,,,,,,Space,keypress(Space),,,,silence,,,,------ -- ------- ---- ---- ---- - -------- ----- --- --<br>----- ----- ------ -- ---- -- --- - ---- -- - ----- -----<br>------ ---- ------ ---- - -------- ------- -- --- --------<br>-------- ----------- ---- ------ ---- ------ ---- --- ---<br>-------- was -----,348951,348950,348577.315,348591,348593.998,348961.024,,44,was
screen,html.Screen,2_3_1_0_1_45,2022-05-12T21:39:47.651Z,,,,,,,,,,,,,,,,,40,,,,,,,,,,,,,,636.9760000000242,,response,,,,9,E,,,,,,Space,keypress(Space),,,,silence,,,,------ -- ------- ---- ---- ---- - -------- ----- --- --<br>----- ----- ------ -- ---- -- --- - ---- -- - ----- -----<br>------ ---- ------ ---- - -------- ------- -- --- --------<br>-------- ----------- ---- ------ ---- ------ ---- --- ---<br>-------- --- made.,349599,349598,348944.341,348951,348961.024,349611.661,,45,made.
Item 9,flow.Loop,2_3_1_0_1,2022-05-12T21:39:47.651Z,,,,,,,,,,,,,,,,,,,,,,,,,,,,,,,23876.39500000002,,completion,,,,,,,,,,,,,,,,,,,,,349599,349598,325704.922,325709,325721.605,349611.661,,,
Question 1,html.Screen,2_3_1_0_2,2022-05-12T21:39:50.713Z,,,,,,,,,,,,,,,,,,,,,,,,,,,,true,FALSE,,3048.338999999978,,response,,,,9,E,,,,,,FALSE,click #choice-2,,,,silence,,,,,352661,352660,349594.978,349601,349611.661,352664.65,,,
Question 2,html.Screen,2_3_1_0_3,2022-05-12T21:39:54.705Z,,,,,,,,,,,,,,,,,,,,,,,,,,,,true,FALSE,,3987.3499999999767,,response,,,,9,E,,,,,,FALSE,click #choice-2,,,,silence,,,,,356653,356652,352647.967,352661,352664.65,356668.57,,,
Item 9,flow.Sequence,2_3_1_0,2022-05-12T21:39:54.705Z,,,,,,,,,,,,,,,,,,,,,,,,,,,,,,,37937.255000000005,,completion,,,,,,,,,,,,,,,,,,,,,356653,356652,318698.062,318703,318714.745,356668.57,,,
Holding screen,html.Screen,2_3_1_1_0,2022-05-12T21:40:01.715Z,,,,,,,,,,,,,,,,,,,,,,,,,,,,,,,7006.859999999986,,timeout,,,,,,,,,,,,,,,,,,,,,363663,363658.747,356651.887,356653,356668.57,363675.43,,,
screen,html.Screen,2_3_1_1_1_0,2022-05-12T21:40:03.019Z,,,,,,,,,,,,,,,,,51,,,,,,,,,,,,,,1291.570000000007,,response,,,,13,E,,,,,,Space,keypress(Space),,,,silence,,,,American -------- --- --- ---- --- --- ------ -- --------<br>---- --------- --- ------- ------------ ---------- ---------<br>--- ---------- ------- ---------- ------- -- -------- ----<br>---- --- ------ ----- ------ -- ---- --- ----- -- - -------<br>-------- -- --- --- -- ----- ----------- ----- -----------<br>---- --- ---------- --- ---- --- -- ----------,364967,364967,363658.747,363663,363675.43,364976.704,,0,American
screen,html.Screen,2_3_1_1_1_1,2022-05-12T21:40:03.644Z,,,,,,,,,,,,,,,,,51,,,,,,,,,,,,,,614.295999999973,,response,,,,13,E,,,,,,Space,keypress(Space),,,,silence,,,,-------- industry --- --- ---- --- --- ------ -- --------<br>---- --------- --- ------- ------------ ---------- ---------<br>--- ---------- ------- ---------- ------- -- -------- ----<br>---- --- ------ ----- ------ -- ---- --- ----- -- - -------<br>-------- -- --- --- -- ----- ----------- ----- -----------<br>---- --- ---------- --- ---- --- -- ----------,365592,365591,364960.021,364967,364976.704,365593.975,,1,industry
screen,html.Screen,2_3_1_1_1_2,2022-05-12T21:40:04.099Z,,,,,,,,,,,,,,,,,51,,,,,,,,,,,,,,452.0250000000233,,response,,,,13,E,,,,,,Space,keypress(Space),,,,silence,,,,-------- -------- may --- ---- --- --- ------ -- --------<br>---- --------- --- ------- ------------ ---------- ---------<br>--- ---------- ------- ---------- ------- -- -------- ----<br>---- --- ------ ----- ------ -- ---- --- ----- -- - -------<br>-------- -- --- --- -- ----- ----------- ----- -----------<br>---- --- ---------- --- ---- --- -- ----------,366047,366046,365577.292,365592,365593.975,366061.099,,2,may
screen,html.Screen,2_3_1_1_1_3,2022-05-12T21:40:05.179Z,,,,,,,,,,,,,,,,,51,,,,,,,,,,,,,,1064.9010000000126,,response,,,,13,E,,,,,,Space,keypress(Space),,,,silence,,,,-------- -------- --- not ---- --- --- ------ -- --------<br>---- --------- --- ------- ------------ ---------- ---------<br>--- ---------- ------- ---------- ------- -- -------- ----<br>---- --- ------ ----- ------ -- ---- --- ----- -- - -------<br>-------- -- --- --- -- ----- ----------- ----- -----------<br>---- --- ---------- --- ---- --- -- ----------,367127,367126,366044.416,366047,366061.099,367128.811,,3,not
screen,html.Screen,2_3_1_1_1_4,2022-05-12T21:40:05.755Z,,,,,,,,,,,,,,,,,51,,,,,,,,,,,,,,574.189000000013,,response,,,,13,E,,,,,,Space,keypress(Space),,,,silence,,,,-------- -------- --- --- know --- --- ------ -- --------<br>---- --------- --- ------- ------------ ---------- ---------<br>--- ---------- ------- ---------- ------- -- -------- ----<br>---- --- ------ ----- ------ -- ---- --- ----- -- - -------<br>-------- -- --- --- -- ----- ----------- ----- -----------<br>---- --- ---------- --- ---- --- -- ----------,367703,367703,367112.128,367127,367128.811,367712.716,,4,know
screen,html.Screen,2_3_1_1_1_5,2022-05-12T21:40:06.867Z,,,,,,,,,,,,,,,,,51,,,,,,,,,,,,,,1102.283999999985,,response,,,,13,E,,,,,,Space,keypress(Space),,,,silence,,,,"-------- -------- --- --- ---- it, --- ------ -- --------<br>---- --------- --- ------- ------------ ---------- ---------<br>--- ---------- ------- ---------- ------- -- -------- ----<br>---- --- ------ ----- ------ -- ---- --- ----- -- - -------<br>-------- -- --- --- -- ----- ----------- ----- -----------<br>---- --- ---------- --- ---- --- -- ----------",368815,368815,367696.033,367703,367712.716,368830.477,,5,"it,"
screen,html.Screen,2_3_1_1_1_6,2022-05-12T21:40:07.306Z,,,,,,,,,,,,,,,,,51,,,,,,,,,,,,,,424.5229999999865,,response,,,,13,E,,,,,,Space,keypress(Space),,,,silence,,,,-------- -------- --- --- ---- --- but ------ -- --------<br>---- --------- --- ------- ------------ ---------- ---------<br>--- ---------- ------- ---------- ------- -- -------- ----<br>---- --- ------ ----- ------ -- ---- --- ----- -- - -------<br>-------- -- --- --- -- ----- ----------- ----- -----------<br>---- --- ---------- --- ---- --- -- ----------,369255,369255,368813.794,368816,368830.477,369264.235,,6,but
screen,html.Screen,2_3_1_1_1_7,2022-05-12T21:40:07.890Z,,,,,,,,,,,,,,,,,51,,,,,,,,,,,,,,574.765000000014,,response,,,,13,E,,,,,,Space,keypress(Space),,,,silence,,,,-------- -------- --- --- ---- --- --- debate -- --------<br>---- --------- --- ------- ------------ ---------- ---------<br>--- ---------- ------- ---------- ------- -- -------- ----<br>---- --- ------ ----- ------ -- ---- --- ----- -- - -------<br>-------- -- --- --- -- ----- ----------- ----- -----------<br>---- --- ---------- --- ---- --- -- ----------,369839,369839,369247.552,369255,369264.235,369848.14,,7,debate
screen,html.Screen,2_3_1_1_1_8,2022-05-12T21:40:08.266Z,,,,,,,,,,,,,,,,,51,,,,,,,,,,,,,,366.85999999998603,,response,,,,13,E,,,,,,Space,keypress(Space),,,,silence,,,,-------- -------- --- --- ---- --- --- ------ in --------<br>---- --------- --- ------- ------------ ---------- ---------<br>--- ---------- ------- ---------- ------- -- -------- ----<br>---- --- ------ ----- ------ -- ---- --- ----- -- - -------<br>-------- -- --- --- -- ----- ----------- ----- -----------<br>---- --- ---------- --- ---- --- -- ----------,370215,370215,369831.457,369840,369848.14,370231.849,,8,in
