sender,sender_type,sender_id,timestamp,meta,,Blues,Classical,Country,Dance,Electronic,Folk,Gospel,Hip-Hop,Jazz,Latin,Musical/Film,New-age,Pop,Prolific_id,Provo_ID,R&B,Rap,Reggae,Religious,Rock,Soul,Swing,Traditional,age,artist_name,correct,correctResponse,distraction,duration,education,ended_on,familiarity,gender,headphone_check_performance,item,list,music_frequency,offensiveness,pleasantness,position_correct,preference,response,response_action,snippet_file,song_name,song_rating,sound,stimulus_1,stimulus_2,stimulus_3,text,time_commit,time_end,time_render,time_run,time_show,time_switch,url,word,word_ID
Prolific ID,html.Form,0,2022-05-09T11:53:03.710Z,"{""labjs_version"":""20.2.2"",""labjs_build"":{""flavor"":""production"",""commit"":""a25486e0c714a0ae2ce03ff94b7bb6896854dcfa""},""location"":""https://run.pavlovia.org/mvasilev/prolific3_music_d/"",""userAgent"":""Mozilla/5.0 (Windows NT 10.0; Win64; x64) AppleWebKit/537.36 (KHTML, like Gecko) Chrome/101.0.4951.54 Safari/537.36"",""platform"":""Win32"",""language"":""en-US"",""locale"":""en-US"",""timeZone"":""Europe/London"",""timezoneOffset"":-60,""screen_width"":1280,""screen_height"":720,""scroll_width"":1280,""scroll_height"":561,""window_innerWidth"":1280,""window_innerHeight"":609,""devicePixelRatio"":1.5}",,,,,,,,,,,,,,,5d6f6ea5b7adb8001568fac4,,,,,,,,,,,,,,,5269.644000095366,,form submission,,,,,,,,,,,,,,,,,,,,,21922.599999904633,21921.400000095367,16569.11,16570.299999713898,16651.756,21942.955,{},,
Introduction,html.Screen,1_0,2022-05-09T11:53:08.759Z,,,,,,,,,,,,,,,,,,,,,,,,,,,,,,,5023.144999904631,,response,,,,,,,,,,,continue,click button,,,,,,,,,26971.799999713898,26966.099999904633,21909.796,21923.699999809265,21942.955,26993.23,,,
Volume calibration,html.Screen,1_1,2022-05-09T11:53:27.798Z,,,,,,,,,,,,,,,,,,,,,,,,,,,,,,,19009.170000095368,,response,,,,,,,,,,,continue,click button,,,,,,,,,46010.2999997139,46002.40000009537,26960.067,26972.199999809265,26993.23,46011.744,,,
Task instructions,html.Screen,1_2,2022-05-09T11:53:36.450Z,,,,,,,,,,,,,,,,,,,,,,,,,,,,,,,8649.756000000001,,response,,,,,,,,,,,continue,click button,,,,,,,,,54663,54661.5,45995.114,46010.59999990463,46011.744,54666.766,,,
Sounds,html.Screen,1_3_0_0,2022-05-09T11:53:40.697Z,,,,,,,,,,,,,,,,,,,,,,,,,,,,,,,4253.207999999999,,timeout,,,,,,,,,3,,,,,,,,I,O,S,,58909.2999997139,58903.503,54650.336,54663.40000009537,54666.766,58919.974,,,
Judgement,html.Screen,1_3_0_1,2022-05-09T11:53:41.352Z,,,,,,,,,,,,,,,,,,,,,,,,,,,,true,3,,643.025999999998,,response,,,,,,,,,3,,3,click #choice-3,,,,,I,O,S,,59564.699999809265,59563,58903.503,58909.59999990463,58919.974,59572.105,,,
Trial,flow.Sequence,1_3_0,2022-05-09T11:53:41.353Z,,,,,,,,,,,,,,,,,,,,,,,,,,,,,,,4896.233999999997,,completion,,,,,,,,,3,,,,,,,,I,O,S,,59565.2999997139,59563,54650.336,54663.40000009537,54666.766,59572.105,,,
Sounds,html.Screen,1_3_1_0,2022-05-09T11:53:45.592Z,,,,,,,,,,,,,,,,,,,,,,,,,,,,,,,4247.784999999996,,timeout,,,,,,,,,1,,,,,,,,S,I,O,,63804.59999990463,63803.251,59555.467,59565.699999809265,59572.105,63819.89,,,
Judgement,html.Screen,1_3_1_1,2022-05-09T11:53:46.349Z,,,,,,,,,,,,,,,,,,,,,,,,,,,,true,1,,740.3099998092657,,response,,,,,,,,,1,,1,click #choice-1,,,,,S,I,O,,64561.699999809265,64560.199999809265,63803.251,63804.90000009537,63819.89,64574.929,,,
Trial,flow.Sequence,1_3_1,2022-05-09T11:53:46.352Z,,,,,,,,,,,,,,,,,,,,,,,,,,,,,,,4988.094999809262,,completion,,,,,,,,,1,,,,,,,,S,I,O,,64564.199999809265,64560.199999809265,59555.467,59565.59999990463,59572.105,64574.929,,,
Sounds,html.Screen,1_3_2_0,2022-05-09T11:53:50.590Z,,,,,,,,,,,,,,,,,,,,,,,,,,,,,,,4242.363000000005,,timeout,,,,,,,,,1,,,,,,,,S,O,I,,68802.2999997139,68800.712,64558.435,64564.7999997139,64574.929,68817.292,,,
Judgement,html.Screen,1_3_2_1,2022-05-09T11:53:51.137Z,,,,,,,,,,,,,,,,,,,,,,,,,,,,true,1,,530.8079999046313,,response,,,,,,,,,1,,1,click #choice-1,,,,,S,O,I,,69349.5,69348.09999990463,68800.712,68802.90000009537,68817.292,69366.963,,,
Trial,flow.Sequence,1_3_2,2022-05-09T11:53:51.138Z,,,,,,,,,,,,,,,,,,,,,,,,,,,,,,,4773.170999904636,,completion,,,,,,,,,1,,,,,,,,S,O,I,,69350,69348.09999990463,64558.435,64564.699999809265,64574.929,69366.963,,,
Sounds,html.Screen,1_3_3_0,2022-05-09T11:53:55.387Z,,,,,,,,,,,,,,,,,,,,,,,,,,,,,,,4247.426999999996,,timeout,,,,,,,,,3,,,,,,,,O,I,S,,73599.5,73597.972,69350.351,69350.19999980927,69366.963,73614.39,,,
Judgement,html.Screen,1_3_3_1,2022-05-09T11:53:55.813Z,,,,,,,,,,,,,,,,,,,,,,,,,,,,true,3,,409.3099998092657,,response,,,,,,,,,3,,3,click #choice-3,,,,,O,I,S,,74025.2999997139,74023.69999980927,73597.972,73599.7999997139,73614.39,74030.873,,,
Trial,flow.Sequence,1_3_3,2022-05-09T11:53:55.814Z,,,,,,,,,,,,,,,,,,,,,,,,,,,,,,,4656.736999809262,,completion,,,,,,,,,3,,,,,,,,O,I,S,,74025.69999980927,74023.69999980927,69350.351,69350.09999990463,69366.963,74030.873,,,
Sounds,html.Screen,1_3_4_0,2022-05-09T11:54:00.046Z,,,,,,,,,,,,,,,,,,,,,,,,,,,,,,,4242.208999999988,,timeout,,,,,,,,,2,,,,,,,,O,S,I,,78257.7999997139,78256.46,74014.241,74026,74030.873,78273.082,,,
Judgement,html.Screen,1_3_4_1,2022-05-09T11:54:00.449Z,,,,,,,,,,,,,,,,,,,,,,,,,,,,true,2,,386.7179997139028,,response,,,,,,,,,2,,2,click #choice-2,,,,,O,S,I,,78661.09999990463,78659.7999997139,78256.46,78258,78273.082,78672.974,,,
Trial,flow.Sequence,1_3_4,2022-05-09T11:54:00.449Z,,,,,,,,,,,,,,,,,,,,,,,,,,,,,,,4628.926999713891,,completion,,,,,,,,,2,,,,,,,,O,S,I,,78661.5,78659.7999997139,74014.241,74026,74030.873,78672.974,,,
Sounds,html.Screen,1_3_5_0,2022-05-09T11:54:04.690Z,,,,,,,,,,,,,,,,,,,,,,,,,,,,,,,4245.019,,timeout,,,,,,,,,2,,,,,,,,I,S,O,,82902.40000009537,82901.364,78656.341,78661.7999997139,78672.974,82917.993,,,
Judgement,html.Screen,1_3_5_1,2022-05-09T11:54:05.111Z,,,,,,,,,,,,,,,,,,,,,,,,,,,,true,2,,403.5069999999978,,response,,,,,,,,,2,,2,click #choice-2,,,,,I,S,O,,83323.2999997139,83321.5,82901.364,82902.69999980927,82917.993,83334.469,,,
Trial,flow.Sequence,1_3_5,2022-05-09T11:54:05.112Z,,,,,,,,,,,,,,,,,,,,,,,,,,,,,,,4648.525999999998,,completion,,,,,,,,,2,,,,,,,,I,S,O,,83323.7999997139,83321.5,78656.341,78661.69999980927,78672.974,83334.469,,,
Task,flow.Loop,1_3,2022-05-09T11:54:05.123Z,,,,,,,,,,,,,,,,,,,,,,,,,,,,,,,28654.733999999997,,completion,,,1,,,,,,,,,,,,,,,,,,83334.90000009537,83321.5,54650.336,54663.2999997139,54666.766,83334.469,,,
Trap,html.Screen,1_4,2022-05-09T11:54:05.126Z,,,,,,,,,,,,,,,,,,,,,,,,,,,,,,,NaN,,skipped,,,,,,,,,,,,,,,,,,,,,83337.90000009537,83321.5,,83337.59999990463,,83334.469,,,
Thanks,html.Screen,1_5,2022-05-09T11:54:07.906Z,,,,,,,,,,,,,,,,,,,,,,,,,,,,,,,2781.730999809268,,response,,,,,,,,,,,continue,click button,,,,,,,,,86117.7999997139,86116.19999980927,83317.987,83338.09999990463,83334.469,88910.753,,,
Headphone screening,flow.Sequence,1,2022-05-09T11:54:07.906Z,,,,,,,,,,,,,,,,,,,,,,,,,,,,,,,64173.24499980926,,completion,,,,,,,,,,,,,,,,,,,,,86118.09999990463,86116.19999980927,21909.796,21923.599999904633,21942.955,88910.753,,,
Instructions,html.Page,2_0,2022-05-09T11:54:29.507Z,,,,,,,,,,,,,,,,,,,,,,,,,,,,,,,18807.64700009537,,form submission,,,,,,,,,,,,,,,,,,,,,107719,107718.40000009537,88877.542,88899.40000009537,88910.753,107727.659,,,
Holding screen,html.Screen,2_1_0_0,2022-05-09T11:54:39.496Z,,,,,,,,,,,,,,,,,,,,,,,,,,,,,,,10029.332999999999,,timeout,,,,,,,,,,,,,,,,,,,,,117708.19999980927,117707.072,107711.002,107719.40000009537,107727.659,117756.992,,,
screen,html.Screen,2_1_0_1_0,2022-05-09T11:54:40.898Z,,,,,,,,,,,,,,,,,53,,,,,,,,,,,,,,1347.7079998092668,,response,,,,99,,,,,,,Space,keypress(Space),,,,,,,,When -- ----- -- ------ - ------- --- ----------<br>------------- ------ ------ ---- ---- ------- ----- -- ----<br>-------- ------- -- ---------- --- - --- ----- ----- ----<br>---- --- --- ----- --- ---- ---- ------- ----- ---- -------<br>--- --- -- ----- -- --- ---- -- --- ---- -- ------ ------<br>--- ----- -- ----,119110.19999980927,119104.69999980927,117707.072,117708.5,117756.992,119133.785,,0,When
screen,html.Screen,2_1_0_1_1,2022-05-09T11:54:41.503Z,,,,,,,,,,,,,,,,,53,,,,,,,,,,,,,,580.9149998092616,,response,,,,99,,,,,,,Space,keypress(Space),,,,,,,,---- it ----- -- ------ - ------- --- ----------<br>------------- ------ ------ ---- ---- ------- ----- -- ----<br>-------- ------- -- ---------- --- - --- ----- ----- ----<br>---- --- --- ----- --- ---- ---- ------- ----- ---- -------<br>--- --- -- ----- -- --- ---- -- --- ---- -- ------ ------<br>--- ----- -- ----,119715.59999990463,119714.69999980927,119106.458,119110.40000009537,119133.785,119739.186,,1,it
screen,html.Screen,2_1_0_1_2,2022-05-09T11:54:42.551Z,,,,,,,,,,,,,,,,,53,,,,,,,,,,,,,,1023.1139997138962,,response,,,,99,,,,,,,Space,keypress(Space),,,,,,,,---- -- comes -- ------ - ------- --- ----------<br>------------- ------ ------ ---- ---- ------- ----- -- ----<br>-------- ------- -- ---------- --- - --- ----- ----- ----<br>---- --- --- ----- --- ---- ---- ------- ----- ---- -------<br>--- --- -- ----- -- --- ---- -- --- ---- -- ------ ------<br>--- ----- -- ----,120763.09999990463,120762.2999997139,119700.142,119715.7999997139,119739.186,120787.993,,2,comes
screen,html.Screen,2_1_0_1_3,2022-05-09T11:54:43.528Z,,,,,,,,,,,,,,,,,53,,,,,,,,,,,,,,951.4070000953652,,response,,,,99,,,,,,,Space,keypress(Space),,,,,,,,---- -- ----- to ------ - ------- --- ----------<br>------------- ------ ------ ---- ---- ------- ----- -- ----<br>-------- ------- -- ---------- --- - --- ----- ----- ----<br>---- --- --- ----- --- ---- ---- ------- ----- ---- -------<br>--- --- -- ----- -- --- ---- -- --- ---- -- ------ ------<br>--- ----- -- ----,121740.2999997139,121739.40000009537,120755.215,120764.7999997139,120787.993,121763.719,,3,to
screen,html.Screen,2_1_0_1_4,2022-05-09T11:54:44.376Z,,,,,,,,,,,,,,,,,53,,,,,,,,,,,,,,823.2810000000027,,response,,,,99,,,,,,,Space,keypress(Space),,,,,,,,---- -- ----- -- having - ------- --- ----------<br>------------- ------ ------ ---- ---- ------- ----- -- ----<br>-------- ------- -- ---------- --- - --- ----- ----- ----<br>---- --- --- ----- --- ---- ---- ------- ----- ---- -------<br>--- --- -- ----- -- --- ---- -- --- ---- -- ------ ------<br>--- ----- -- ----,122587.90000009537,122587,121737.537,121740.59999990463,121763.719,122611.554,,4,having
screen,html.Screen,2_1_0_1_5,2022-05-09T11:54:45.046Z,,,,,,,,,,,,,,,,,53,,,,,,,,,,,,,,645.3460000953637,,response,,,,99,,,,,,,Space,keypress(Space),,,,,,,,---- -- ----- -- ------ a ------- --- ----------<br>------------- ------ ------ ---- ---- ------- ----- -- ----<br>-------- ------- -- ---------- --- - --- ----- ----- ----<br>---- --- --- ----- --- ---- ---- ------- ----- ---- -------<br>--- --- -- ----- -- --- ---- -- --- ---- -- ------ ------<br>--- ----- -- ----,123257.7999997139,123256.90000009537,122580.081,122588.09999990463,122611.554,123281.502,,5,a
screen,html.Screen,2_1_0_1_6,2022-05-09T11:54:45.948Z,,,,,,,,,,,,,,,,,53,,,,,,,,,,,,,,878.4980000000069,,response,,,,99,,,,,,,Space,keypress(Space),,,,,,,,---- -- ----- -- ------ - lasting --- ----------<br>------------- ------ ------ ---- ---- ------- ----- -- ----<br>-------- ------- -- ---------- --- - --- ----- ----- ----<br>---- --- --- ----- --- ---- ---- ------- ----- ---- -------<br>--- --- -- ----- -- --- ---- -- --- ---- -- ------ ------<br>--- ----- -- ----,124160.7999997139,124160,123244.503,123258.09999990463,123281.502,124184.405,,6,lasting
screen,html.Screen,2_1_0_1_7,2022-05-09T11:54:46.802Z,,,,,,,,,,,,,,,,,53,,,,,,,,,,,,,,829.7949998092663,,response,,,,99,,,,,,,Space,keypress(Space),,,,,,,,---- -- ----- -- ------ - ------- and ----------<br>------------- ------ ------ ---- ---- ------- ----- -- ----<br>-------- ------- -- ---------- --- - --- ----- ----- ----<br>---- --- --- ----- --- ---- ---- ------- ----- ---- -------<br>--- --- -- ----- -- --- ---- -- --- ---- -- ------ ------<br>--- ----- -- ----,125015.09999990463,125014.19999980927,124147.702,124161.09999990463,124184.405,125038.75,,7,and
screen,html.Screen,2_1_0_1_8,2022-05-09T11:54:47.525Z,,,,,,,,,,,,,,,,,53,,,,,,,,,,,,,,698.25,,response,,,,99,,,,,,,Space,keypress(Space),,,,,,,,---- -- ----- -- ------ - ------- --- fulfilling<br>------------- ------ ------ ---- ---- ------- ----- -- ----<br>-------- ------- -- ---------- --- - --- ----- ----- ----<br>---- --- --- ----- --- ---- ---- ------- ----- ---- -------<br>--- --- -- ----- -- --- ---- -- --- ---- -- ------ ------<br>--- ----- -- ----,125737.90000009537,125737,125000.585,125015.19999980927,125038.75,125761.355,,8,fulfilling
screen,html.Screen,2_1_0_1_9,2022-05-09T11:54:48.824Z,,,,,,,,,,,,,,,,,53,,,,,,,,,,,,,,1274.7449999046366,,response,,,,99,,,,,,,Space,keypress(Space),,,,,,,,"---- -- ----- -- ------ - ------- --- ----------<br>relationship, ------ ------ ---- ---- ------- ----- -- ----<br>-------- ------- -- ---------- --- - --- ----- ----- ----<br>---- --- --- ----- --- ---- ---- ------- ----- ---- -------<br>--- --- -- ----- -- --- ---- -- --- ---- -- ------ ------<br>--- ----- -- ----",127037.09999990463,127036.09999990463,125738.23,125738.09999990463,125761.355,127060.502,,9,"relationship,"
screen,html.Screen,2_1_0_1_10,2022-05-09T11:54:49.782Z,,,,,,,,,,,,,,,,,53,,,,,,,,,,,,,,932.697999809272,,response,,,,99,,,,,,,Space,keypress(Space),,,,,,,,---- -- ----- -- ------ - ------- --- ----------<br>------------- common ------ ---- ---- ------- ----- -- ----<br>-------- ------- -- ---------- --- - --- ----- ----- ----<br>---- --- --- ----- --- ---- ---- ------- ----- ---- -------<br>--- --- -- ----- -- --- ---- -- --- ---- -- ------ ------<br>--- ----- -- ----,127994.40000009537,127993.19999980927,127027.304,127037.2999997139,127060.502,128017.819,,10,common
screen,html.Screen,2_1_0_1_11,2022-05-09T11:54:50.610Z,,,,,,,,,,,,,,,,,53,,,,,,,,,,,,,,804.0810000953643,,response,,,,99,,,,,,,Space,keypress(Space),,,,,,,,---- -- ----- -- ------ - ------- --- ----------<br>------------- ------ wisdom ---- ---- ------- ----- -- ----<br>-------- ------- -- ---------- --- - --- ----- ----- ----<br>---- --- --- ----- --- ---- ---- ------- ----- ---- -------<br>--- --- -- ----- -- --- ---- -- --- ---- -- ------ ------<br>--- ----- -- ----,128823.19999980927,128821.90000009537,127993.527,127994.59999990463,128017.819,128846.781,,11,wisdom
screen,html.Screen,2_1_0_1_12,2022-05-09T11:54:51.448Z,,,,,,,,,,,,,,,,,53,,,,,,,,,,,,,,813.4189998092625,,response,,,,99,,,,,,,Space,keypress(Space),,,,,,,,---- -- ----- -- ------ - ------- --- ----------<br>------------- ------ ------ says ---- ------- ----- -- ----<br>-------- ------- -- ---------- --- - --- ----- ----- ----<br>---- --- --- ----- --- ---- ---- ------- ----- ---- -------<br>--- --- -- ----- -- --- ---- -- --- ---- -- ------ ------<br>--- ----- -- ----,129661,129660.19999980927,128817.368,128823.40000009537,128846.781,129689.529,,12,says
screen,html.Screen,2_1_0_1_13,2022-05-09T11:54:52.142Z,,,,,,,,,,,,,,,,,53,,,,,,,,,,,,,,663.8710000953724,,response,,,,99,,,,,,,Space,keypress(Space),,,,,,,,---- -- ----- -- ------ - ------- --- ----------<br>------------- ------ ------ ---- that ------- ----- -- ----<br>-------- ------- -- ---------- --- - --- ----- ----- ----<br>---- --- --- ----- --- ---- ---- ------- ----- ---- -------<br>--- --- -- ----- -- --- ---- -- --- ---- -- ------ ------<br>--- ----- -- ----,130354.2999997139,130353.40000009537,129646.092,129661.19999980927,129689.529,130377.928,,13,that
screen,html.Screen,2_1_0_1_14,2022-05-09T11:54:52.906Z,,,,,,,,,,,,,,,,,53,,,,,,,,,,,,,,740.3719997138978,,response,,,,99,,,,,,,Space,keypress(Space),,,,,,,,---- -- ----- -- ------ - ------- --- ----------<br>------------- ------ ------ ---- ---- feeling ----- -- ----<br>-------- ------- -- ---------- --- - --- ----- ----- ----<br>---- --- --- ----- --- ---- ---- ------- ----- ---- -------<br>--- --- -- ----- -- --- ---- -- --- ---- -- ------ ------<br>--- ----- -- ----,131119.19999980927,131118.2999997139,130350.836,130354.59999990463,130377.928,131152.343,,14,feeling
screen,html.Screen,2_1_0_1_15,2022-05-09T11:54:53.421Z,,,,,,,,,,,,,,,,,53,,,,,,,,,,,,,,480.55700009537395,,response,,,,99,,,,,,,Space,keypress(Space),,,,,,,,---- -- ----- -- ------ - ------- --- ----------<br>------------- ------ ------ ---- ---- ------- close -- ----<br>-------- ------- -- ---------- --- - --- ----- ----- ----<br>---- --- --- ----- --- ---- ---- ------- ----- ---- -------<br>--- --- -- ----- -- --- ---- -- --- ---- -- ------ ------<br>--- ----- -- ----,131633.69999980927,131632.90000009537,131110.85,131119.40000009537,131152.343,131652.808,,15,close
screen,html.Screen,2_1_0_1_16,2022-05-09T11:54:53.828Z,,,,,,,,,,,,,,,,,53,,,,,,,,,,,,,,387.09200009537744,,response,,,,99,,,,,,,Space,keypress(Space),,,,,,,,---- -- ----- -- ------ - ------- --- ----------<br>------------- ------ ------ ---- ---- ------- ----- to ----<br>-------- ------- -- ---------- --- - --- ----- ----- ----<br>---- --- --- ----- --- ---- ---- ------- ----- ---- -------<br>--- --- -- ----- -- --- ---- -- --- ---- -- ------ ------<br>--- ----- -- ----,132040.69999980927,132039.90000009537,131625.657,131634,131652.808,132072.699,,16,to
screen,html.Screen,2_1_0_1_17,2022-05-09T11:54:54.426Z,,,,,,,,,,,,,,,,,53,,,,,,,,,,,,,,565.1009997139045,,response,,,,99,,,,,,,Space,keypress(Space),,,,,,,,---- -- ----- -- ------ - ------- --- ----------<br>------------- ------ ------ ---- ---- ------- ----- -- your<br>-------- ------- -- ---------- --- - --- ----- ----- ----<br>---- --- --- ----- --- ---- ---- ------- ----- ---- -------<br>--- --- -- ----- -- --- ---- -- --- ---- -- ------ ------<br>--- ----- -- ----,132638.59999990463,132637.7999997139,132040.471,132040.90000009537,132072.699,132665.341,,17,your
screen,html.Screen,2_1_0_1_18,2022-05-09T11:54:55.071Z,,,,,,,,,,,,,,,,,53,,,,,,,,,,,,,,617.9589997139119,,response,,,,99,,,,,,,Space,keypress(Space),,,,,,,,---- -- ----- -- ------ - ------- --- ----------<br>------------- ------ ------ ---- ---- ------- ----- -- ----<br>romantic ------- -- ---------- --- - --- ----- ----- ----<br>---- --- --- ----- --- ---- ---- ------- ----- ---- -------<br>--- --- -- ----- -- --- ---- -- --- ---- -- ------ ------<br>--- ----- -- ----,133284.19999980927,133283.2999997139,132630.603,132638.90000009537,132665.341,133303.458,,18,romantic
screen,html.Screen,2_1_0_1_19,2022-05-09T11:54:55.763Z,,,,,,,,,,,,,,,,,53,,,,,,,,,,,,,,671.1419999046193,,response,,,,99,,,,,,,Space,keypress(Space),,,,,,,,---- -- ----- -- ------ - ------- --- ----------<br>------------- ------ ------ ---- ---- ------- ----- -- ----<br>-------- partner -- ---------- --- - --- ----- ----- ----<br>---- --- --- ----- --- ---- ---- ------- ----- ---- -------<br>--- --- -- ----- -- --- ---- -- --- ---- -- ------ ------<br>--- ----- -- ----,133975.5,133974.59999990463,133278.656,133284.40000009537,133303.458,134007.394,,19,partner
screen,html.Screen,2_1_0_1_20,2022-05-09T11:54:56.231Z,,,,,,,,,,,,,,,,,53,,,,,,,,,,,,,,435.9059997138975,,response,,,,99,,,,,,,Space,keypress(Space),,,,,,,,---- -- ----- -- ------ - ------- --- ----------<br>------------- ------ ------ ---- ---- ------- ----- -- ----<br>-------- ------- is ---------- --- - --- ----- ----- ----<br>---- --- --- ----- --- ---- ---- ------- ----- ---- -------<br>--- --- -- ----- -- --- ---- -- --- ---- -- ------ ------<br>--- ----- -- ----,134444.2999997139,134443.2999997139,133973.942,133975.59999990463,134007.394,134467.84,,20,is
screen,html.Screen,2_1_0_1_21,2022-05-09T11:54:57.830Z,,,,,,,,,,,,,,,,,53,,,,,,,,,,,,,,1573.8599998092686,,response,,,,99,,,,,,,Space,keypress(Space),,,,,,,,---- -- ----- -- ------ - ------- --- ----------<br>------------- ------ ------ ---- ---- ------- ----- -- ----<br>-------- ------- -- paramount. --- - --- ----- ----- ----<br>---- --- --- ----- --- ---- ---- ------- ----- ---- -------<br>--- --- -- ----- -- --- ---- -- --- ---- -- ------ ------<br>--- ----- -- ----,136042.5,136041.69999980927,134432.199,134444.40000009537,134467.84,136066.001,,21,paramount.
screen,html.Screen,2_1_0_1_22,2022-05-09T11:54:58.223Z,,,,,,,,,,,,,,,,,53,,,,,,,,,,,,,,368.9990000000107,,response,,,,99,,,,,,,Space,keypress(Space),,,,,,,,---- -- ----- -- ------ - ------- --- ----------<br>------------- ------ ------ ---- ---- ------- ----- -- ----<br>-------- ------- -- ---------- But - --- ----- ----- ----<br>---- --- --- ----- --- ---- ---- ------- ----- ---- -------<br>--- --- -- ----- -- --- ---- -- --- ---- -- ------ ------<br>--- ----- -- ----,136435.90000009537,136435,136034.582,136042.7999997139,136066.001,136454.647,,22,But
screen,html.Screen,2_1_0_1_23,2022-05-09T11:54:58.563Z,,,,,,,,,,,,,,,,,53,,,,,,,,,,,,,,319.95299990463536,,response,,,,99,,,,,,,Space,keypress(Space),,,,,,,,---- -- ----- -- ------ - ------- --- ----------<br>------------- ------ ------ ---- ---- ------- ----- -- ----<br>-------- ------- -- ---------- --- a --- ----- ----- ----<br>---- --- --- ----- --- ---- ---- ------- ----- ---- -------<br>--- --- -- ----- -- --- ---- -- --- ---- -- ------ ------<br>--- ----- -- ----,136775.5,136774.59999990463,136432.642,136436.09999990463,136454.647,136798.335,,23,a
screen,html.Screen,2_1_0_1_24,2022-05-09T11:54:58.900Z,,,,,,,,,,,,,,,,,53,,,,,,,,,,,,,,313.3649998092733,,response,,,,99,,,,,,,Space,keypress(Space),,,,,,,,---- -- ----- -- ------ - ------- --- ----------<br>------------- ------ ------ ---- ---- ------- ----- -- ----<br>-------- ------- -- ---------- --- - new ----- ----- ----<br>---- --- --- ----- --- ---- ---- ------- ----- ---- -------<br>--- --- -- ----- -- --- ---- -- --- ---- -- ------ ------<br>--- ----- -- ----,137112.5,137111.69999980927,136775.99,136775.69999980927,136798.335,137135.953,,24,new
screen,html.Screen,2_1_0_1_25,2022-05-09T11:54:59.303Z,,,,,,,,,,,,,,,,,53,,,,,,,,,,,,,,378.5469999999914,,response,,,,99,,,,,,,Space,keypress(Space),,,,,,,,---- -- ----- -- ------ - ------- --- ----------<br>------------- ------ ------ ---- ---- ------- ----- -- ----<br>-------- ------- -- ---------- --- - --- study ----- ----<br>---- --- --- ----- --- ---- ---- ------- ----- ---- -------<br>--- --- -- ----- -- --- ---- -- --- ---- -- ------ ------<br>--- ----- -- ----,137515.40000009537,137514.5,137098.929,137112.7999997139,137135.953,137538.902,,25,study
screen,html.Screen,2_1_0_1_26,2022-05-09T11:54:59.638Z,,,,,,,,,,,,,,,,,53,,,,,,,,,,,,,,310.7979998092633,,response,,,,99,,,,,,,Space,keypress(Space),,,,,,,,---- -- ----- -- ------ - ------- --- ----------<br>------------- ------ ------ ---- ---- ------- ----- -- ----<br>-------- ------- -- ---------- --- - --- ----- finds ----<br>---- --- --- ----- --- ---- ---- ------- ----- ---- -------<br>--- --- -- ----- -- --- ---- -- --- ---- -- ------ ------<br>--- ----- -- ----,137850.59999990463,137849.69999980927,137502.563,137515.59999990463,137538.902,137877.08,,26,finds
screen,html.Screen,2_1_0_1_27,2022-05-09T11:55:00.050Z,,,,,,,,,,,,,,,,,53,,,,,,,,,,,,,,384.4200000000128,,response,,,,99,,,,,,,Space,keypress(Space),,,,,,,,---- -- ----- -- ------ - ------- --- ----------<br>------------- ------ ------ ---- ---- ------- ----- -- ----<br>-------- ------- -- ---------- --- - --- ----- ----- that<br>---- --- --- ----- --- ---- ---- ------- ----- ---- -------<br>--- --- -- ----- -- --- ---- -- --- ---- -- ------ ------<br>--- ----- -- ----,138262.5,138261.5,137838.783,137850.69999980927,137877.08,138285.845,,27,that
screen,html.Screen,2_1_0_1_28,2022-05-09T11:55:00.480Z,,,,,,,,,,,,,,,,,53,,,,,,,,,,,,,,406.05500009536627,,response,,,,99,,,,,,,Space,keypress(Space),,,,,,,,---- -- ----- -- ------ - ------- --- ----------<br>------------- ------ ------ ---- ---- ------- ----- -- ----<br>-------- ------- -- ---------- --- - --- ----- ----- ----<br>it's --- --- ----- --- ---- ---- ------- ----- ---- -------<br>--- --- -- ----- -- --- ---- -- --- ---- -- ------ ------<br>--- ----- -- ----,138692.69999980927,138691.90000009537,138257.177,138262.7999997139,138285.845,138716.144,,28,it's
screen,html.Screen,2_1_0_1_29,2022-05-09T11:55:00.795Z,,,,,,,,,,,,,,,,,53,,,,,,,,,,,,,,290.45599990463234,,response,,,,99,,,,,,,Space,keypress(Space),,,,,,,,---- -- ----- -- ------ - ------- --- ----------<br>------------- ------ ------ ---- ---- ------- ----- -- ----<br>-------- ------- -- ---------- --- - --- ----- ----- ----<br>---- not --- ----- --- ---- ---- ------- ----- ---- -------<br>--- --- -- ----- -- --- ---- -- --- ---- -- ------ ------<br>--- ----- -- ----,139007.5,139006.59999990463,138685.589,138693,138716.144,139031.048,,29,not
screen,html.Screen,2_1_0_1_30,2022-05-09T11:55:01.198Z,,,,,,,,,,,,,,,,,53,,,,,,,,,,,,,,379.0519999046228,,response,,,,99,,,,,,,Space,keypress(Space),,,,,,,,---- -- ----- -- ------ - ------- --- ----------<br>------------- ------ ------ ---- ---- ------- ----- -- ----<br>-------- ------- -- ---------- --- - --- ----- ----- ----<br>---- --- how ----- --- ---- ---- ------- ----- ---- -------<br>--- --- -- ----- -- --- ---- -- --- ---- -- ------ ------<br>--- ----- -- ----,139411,139410.09999990463,138999.431,139007.69999980927,139031.048,139439.286,,30,how
screen,html.Screen,2_1_0_1_31,2022-05-09T11:55:01.732Z,,,,,,,,,,,,,,,,,53,,,,,,,,,,,,,,504.3139999046398,,response,,,,99,,,,,,,Space,keypress(Space),,,,,,,,---- -- ----- -- ------ - ------- --- ----------<br>------------- ------ ------ ---- ---- ------- ----- -- ----<br>-------- ------- -- ---------- --- - --- ----- ----- ----<br>---- --- --- close --- ---- ---- ------- ----- ---- -------<br>--- --- -- ----- -- --- ---- -- --- ---- -- ------ ------<br>--- ----- -- ----,139944.40000009537,139943.59999990463,139397.33,139411.19999980927,139439.286,139967.863,,31,close
screen,html.Screen,2_1_0_1_32,2022-05-09T11:55:02.054Z,,,,,,,,,,,,,,,,,53,,,,,,,,,,,,,,297.23699990462046,,response,,,,99,,,,,,,Space,keypress(Space),,,,,,,,---- -- ----- -- ------ - ------- --- ----------<br>------------- ------ ------ ---- ---- ------- ----- -- ----<br>-------- ------- -- ---------- --- - --- ----- ----- ----<br>---- --- --- ----- you ---- ---- ------- ----- ---- -------<br>--- --- -- ----- -- --- ---- -- --- ---- -- ------ ------<br>--- ----- -- ----,140266.2999997139,140265.09999990463,139934.044,139944.69999980927,139967.863,140289.742,,32,you
screen,html.Screen,2_1_0_1_33,2022-05-09T11:55:02.789Z,,,,,,,,,,,,,,,,,53,,,,,,,,,,,,,,711.8579999046342,,response,,,,99,,,,,,,Space,keypress(Space),,,,,,,,---- -- ----- -- ------ - ------- --- ----------<br>------------- ------ ------ ---- ---- ------- ----- -- ----<br>-------- ------- -- ---------- --- - --- ----- ----- ----<br>---- --- --- ----- --- feel ---- ------- ----- ---- -------<br>--- --- -- ----- -- --- ---- -- --- ---- -- ------ ------<br>--- ----- -- ----,141002.19999980927,141001.59999990463,140251.089,140266.59999990463,140289.742,141024.834,,33,feel
screen,html.Screen,2_1_0_1_34,2022-05-09T11:55:03.189Z,,,,,,,,,,,,,,,,,53,,,,,,,,,,,,,,375.8659998092626,,response,,,,99,,,,,,,Space,keypress(Space),,,,,,,,---- -- ----- -- ------ - ------- --- ----------<br>------------- ------ ------ ---- ---- ------- ----- -- ----<br>-------- ------- -- ---------- --- - --- ----- ----- ----<br>---- --- --- ----- --- ---- that ------- ----- ---- -------<br>--- --- -- ----- -- --- ---- -- --- ---- -- ------ ------<br>--- ----- -- ----,141401.5,141400.69999980927,140989.375,141002.2999997139,141024.834,141424.715,,34,that
screen,html.Screen,2_1_0_1_35,2022-05-09T11:55:03.600Z,,,,,,,,,,,,,,,,,53,,,,,,,,,,,,,,387.2850000000035,,response,,,,99,,,,,,,Space,keypress(Space),,,,,,,,---- -- ----- -- ------ - ------- --- ----------<br>------------- ------ ------ ---- ---- ------- ----- -- ----<br>-------- ------- -- ---------- --- - --- ----- ----- ----<br>---- --- --- ----- --- ---- ---- matters ----- ---- -------<br>--- --- -- ----- -- --- ---- -- --- ---- -- ------ ------<br>--- ----- -- ----,141812.90000009537,141812,141391.26,141401.7999997139,141424.715,141837.588,,35,matters
screen,html.Screen,2_1_0_1_36,2022-05-09T11:55:04.719Z,,,,,,,,,,,,,,,,,53,,,,,,,,,,,,,,1093.3120000953786,,response,,,,99,,,,,,,Space,keypress(Space),,,,,,,,"---- -- ----- -- ------ - ------- --- ----------<br>------------- ------ ------ ---- ---- ------- ----- -- ----<br>-------- ------- -- ---------- --- - --- ----- ----- ----<br>---- --- --- ----- --- ---- ---- ------- most, ---- -------<br>--- --- -- ----- -- --- ---- -- --- ---- -- ------ ------<br>--- ----- -- ----",142932,142930.90000009537,141807.634,141813.09999990463,141837.588,142955.187,,36,"most,"
screen,html.Screen,2_1_0_1_37,2022-05-09T11:55:05.714Z,,,,,,,,,,,,,,,,,53,,,,,,,,,,,,,,971.2130000953621,,response,,,,99,,,,,,,Space,keypress(Space),,,,,,,,---- -- ----- -- ------ - ------- --- ----------<br>------------- ------ ------ ---- ---- ------- ----- -- ----<br>-------- ------- -- ---------- --- - --- ----- ----- ----<br>---- --- --- ----- --- ---- ---- ------- ----- it's -------<br>--- --- -- ----- -- --- ---- -- --- ---- -- ------ ------<br>--- ----- -- ----,143927.19999980927,143926.40000009537,142918.673,142932.09999990463,142955.187,143950.345,,37,it's
screen,html.Screen,2_1_0_1_38,2022-05-09T11:55:06.177Z,,,,,,,,,,,,,,,,,53,,,,,,,,,,,,,,439.15499999999884,,response,,,,99,,,,,,,Space,keypress(Space),,,,,,,,---- -- ----- -- ------ - ------- --- ----------<br>------------- ------ ------ ---- ---- ------- ----- -- ----<br>-------- ------- -- ---------- --- - --- ----- ----- ----<br>---- --- --- ----- --- ---- ---- ------- ----- ---- whether<br>--- --- -- ----- -- --- ---- -- --- ---- -- ------ ------<br>--- ----- -- ----,144390.2999997139,144389.5,143921.198,143927.5,143950.345,144424.21,,38,whether
screen,html.Screen,2_1_0_1_39,2022-05-09T11:55:06.562Z,,,,,,,,,,,,,,,,,53,,,,,,,,,,,,,,349.4899998092733,,response,,,,99,,,,,,,Space,keypress(Space),,,,,,,,---- -- ----- -- ------ - ------- --- ----------<br>------------- ------ ------ ---- ---- ------- ----- -- ----<br>-------- ------- -- ---------- --- - --- ----- ----- ----<br>---- --- --- ----- --- ---- ---- ------- ----- ---- -------<br>you --- -- ----- -- --- ---- -- --- ---- -- ------ ------<br>--- ----- -- ----,144774.59999990463,144773.69999980927,144383.517,144390.5,144424.21,144797.629,,39,you
screen,html.Screen,2_1_0_1_40,2022-05-09T11:55:06.868Z,,,,,,,,,,,,,,,,,53,,,,,,,,,,,,,,282.27100009538117,,response,,,,99,,,,,,,Space,keypress(Space),,,,,,,,---- -- ----- -- ------ - ------- --- ----------<br>------------- ------ ------ ---- ---- ------- ----- -- ----<br>-------- ------- -- ---------- --- - --- ----- ----- ----<br>---- --- --- ----- --- ---- ---- ------- ----- ---- -------<br>--- are -- ----- -- --- ---- -- --- ---- -- ------ ------<br>--- ----- -- ----,145080.69999980927,145079.90000009537,144763.321,144774.69999980927,144797.629,145103.979,,40,are
screen,html.Screen,2_1_0_1_41,2022-05-09T11:55:07.093Z,,,,,,,,,,,,,,,,,53,,,,,,,,,,,,,,200.52100000000792,,response,,,,99,,,,,,,Space,keypress(Space),,,,,,,,---- -- ----- -- ------ - ------- --- ----------<br>------------- ------ ------ ---- ---- ------- ----- -- ----<br>-------- ------- -- ---------- --- - --- ----- ----- ----<br>---- --- --- ----- --- ---- ---- ------- ----- ---- -------<br>--- --- as ----- -- --- ---- -- --- ---- -- ------ ------<br>--- ----- -- ----,145305.5,145304.5,145080.954,145081,145103.979,145328.599,,41,as
screen,html.Screen,2_1_0_1_42,2022-05-09T11:55:07.590Z,,,,,,,,,,,,,,,,,53,,,,,,,,,,,,,,473.6009998092777,,response,,,,99,,,,,,,Space,keypress(Space),,,,,,,,---- -- ----- -- ------ - ------- --- ----------<br>------------- ------ ------ ---- ---- ------- ----- -- ----<br>-------- ------- -- ---------- --- - --- ----- ----- ----<br>---- --- --- ----- --- ---- ---- ------- ----- ---- -------<br>--- --- -- close -- --- ---- -- --- ---- -- ------ ------<br>--- ----- -- ----,145802.90000009537,145802.19999980927,145303.736,145305.69999980927,145328.599,145826.168,,42,close
screen,html.Screen,2_1_0_1_43,2022-05-09T11:55:07.880Z,,,,,,,,,,,,,,,,,53,,,,,,,,,,,,,,265.3319999999949,,response,,,,99,,,,,,,Space,keypress(Space),,,,,,,,---- -- ----- -- ------ - ------- --- ----------<br>------------- ------ ------ ---- ---- ------- ----- -- ----<br>-------- ------- -- ---------- --- - --- ----- ----- ----<br>---- --- --- ----- --- ---- ---- ------- ----- ---- -------<br>--- --- -- ----- as --- ---- -- --- ---- -- ------ ------<br>--- ----- -- ----,146092.40000009537,146091.5,145794.833,145803.09999990463,145826.168,146115.618,,43,as
screen,html.Screen,2_1_0_1_44,2022-05-09T11:55:08.273Z,,,,,,,,,,,,,,,,,53,,,,,,,,,,,,,,369.68199971391005,,response,,,,99,,,,,,,Space,keypress(Space),,,,,,,,---- -- ----- -- ------ - ------- --- ----------<br>------------- ------ ------ ---- ---- ------- ----- -- ----<br>-------- ------- -- ---------- --- - --- ----- ----- ----<br>---- --- --- ----- --- ---- ---- ------- ----- ---- -------<br>--- --- -- ----- -- you ---- -- --- ---- -- ------ ------<br>--- ----- -- ----,146486.19999980927,146485.2999997139,146092.731,146092.5,146115.618,146509.436,,44,you
screen,html.Screen,2_1_0_1_45,2022-05-09T11:55:08.690Z,,,,,,,,,,,,,,,,,53,,,,,,,,,,,,,,392.96400009538047,,response,,,,99,,,,,,,Space,keypress(Space),,,,,,,,---- -- ----- -- ------ - ------- --- ----------<br>------------- ------ ------ ---- ---- ------- ----- -- ----<br>-------- ------- -- ---------- --- - --- ----- ----- ----<br>---- --- --- ----- --- ---- ---- ------- ----- ---- -------<br>--- --- -- ----- -- --- want -- --- ---- -- ------ ------<br>--- ----- -- ----,146903.19999980927,146902.40000009537,146481.817,146486.5,146509.436,146926.261,,45,want
screen,html.Screen,2_1_0_1_46,2022-05-09T11:55:09.026Z,,,,,,,,,,,,,,,,,53,,,,,,,,,,,,,,311.33899990463397,,response,,,,99,,,,,,,Space,keypress(Space),,,,,,,,---- -- ----- -- ------ - ------- --- ----------<br>------------- ------ ------ ---- ---- ------- ----- -- ----<br>-------- ------- -- ---------- --- - --- ----- ----- ----<br>---- --- --- ----- --- ---- ---- ------- ----- ---- -------<br>--- --- -- ----- -- --- ---- to --- ---- -- ------ ------<br>--- ----- -- ----,147238.59999990463,147237.59999990463,146892.572,146903.5,146926.261,147261.935,,46,to
screen,html.Screen,2_1_0_1_47,2022-05-09T11:55:09.282Z,,,,,,,,,,,,,,,,,53,,,,,,,,,,,,,,232.26499980926747,,response,,,,99,,,,,,,Space,keypress(Space),,,,,,,,"---- -- ----- -- ------ - ------- --- ----------<br>------------- ------ ------ ---- ---- ------- ----- -- ----<br>-------- ------- -- ---------- --- - --- ----- ----- ----<br>---- --- --- ----- --- ---- ---- ------- ----- ---- -------<br>--- --- -- ----- -- --- ---- -- be, ---- -- ------ ------<br>--- ----- -- ----",147495.09999990463,147494.19999980927,147226.237,147238.7999997139,147261.935,147514.189,,47,"be,"
screen,html.Screen,2_1_0_1_48,2022-05-09T11:55:09.887Z,,,,,,,,,,,,,,,,,53,,,,,,,,,,,,,,584.0109998092521,,response,,,,99,,,,,,,Space,keypress(Space),,,,,,,,---- -- ----- -- ------ - ------- --- ----------<br>------------- ------ ------ ---- ---- ------- ----- -- ----<br>-------- ------- -- ---------- --- - --- ----- ----- ----<br>---- --- --- ----- --- ---- ---- ------- ----- ---- -------<br>--- --- -- ----- -- --- ---- -- --- even -- ------ ------<br>--- ----- -- ----,148099.2999997139,148098.19999980927,147495.181,147495.2999997139,147514.189,148122.589,,48,even
screen,html.Screen,2_1_0_1_49,2022-05-09T11:55:10.124Z,,,,,,,,,,,,,,,,,53,,,,,,,,,,,,,,213.3110000953602,,response,,,,99,,,,,,,Space,keypress(Space),,,,,,,,---- -- ----- -- ------ - ------- --- ----------<br>------------- ------ ------ ---- ---- ------- ----- -- ----<br>-------- ------- -- ---------- --- - --- ----- ----- ----<br>---- --- --- ----- --- ---- ---- ------- ----- ---- -------<br>--- --- -- ----- -- --- ---- -- --- ---- if ------ ------<br>--- ----- -- ----,148336.7999997139,148335.90000009537,148084.451,148099.5,148122.589,148360.107,,49,if
screen,html.Screen,2_1_0_1_50,2022-05-09T11:55:11.717Z,,,,,,,,,,,,,,,,,53,,,,,,,,,,,,,,1568.6929997139086,,response,,,,99,,,,,,,Space,keypress(Space),,,,,,,,---- -- ----- -- ------ - ------- --- ----------<br>------------- ------ ------ ---- ---- ------- ----- -- ----<br>-------- ------- -- ---------- --- - --- ----- ----- ----<br>---- --- --- ----- --- ---- ---- ------- ----- ---- -------<br>--- --- -- ----- -- --- ---- -- --- ---- -- that's ------<br>--- ----- -- ----,149929.7999997139,149928.7999997139,148322.251,148337.09999990463,148360.107,149952.829,,50,that's
screen,html.Screen,2_1_0_1_51,2022-05-09T11:55:12.207Z,,,,,,,,,,,,,,,,,53,,,,,,,,,,,,,,465.77099990463466,,response,,,,99,,,,,,,Space,keypress(Space),,,,,,,,---- -- ----- -- ------ - ------- --- ----------<br>------------- ------ ------ ---- ---- ------- ----- -- ----<br>-------- ------- -- ---------- --- - --- ----- ----- ----<br>---- --- --- ----- --- ---- ---- ------- ----- ---- -------<br>--- --- -- ----- -- --- ---- -- --- ---- -- ------ really<br>--- ----- -- ----,150419.5,150418.59999990463,149925.982,149930,149952.829,150442.646,,51,really
screen,html.Screen,2_1_0_1_52,2022-05-09T11:55:12.591Z,,,,,,,,,,,,,,,,,53,,,,,,,,,,,,,,360.45399990462465,,response,,,,99,,,,,,,Space,keypress(Space),,,,,,,,---- -- ----- -- ------ - ------- --- ----------<br>------------- ------ ------ ---- ---- ------- ----- -- ----<br>-------- ------- -- ---------- --- - --- ----- ----- ----<br>---- --- --- ----- --- ---- ---- ------- ----- ---- -------<br>--- --- -- ----- -- --- ---- -- --- ---- -- ------ ------<br>not ----- -- ----,150804.09999990463,150803.09999990463,150419.4,150419.69999980927,150442.646,150827.052,,52,not
screen,html.Screen,2_1_0_1_53,2022-05-09T11:55:12.966Z,,,,,,,,,,,,,,,,,53,,,,,,,,,,,,,,351.24799971390166,,response,,,,99,,,,,,,Space,keypress(Space),,,,,,,,---- -- ----- -- ------ - ------- --- ----------<br>------------- ------ ------ ---- ---- ------- ----- -- ----<br>-------- ------- -- ---------- --- - --- ----- ----- ----<br>---- --- --- ----- --- ---- ---- ------- ----- ---- -------<br>--- --- -- ----- -- --- ---- -- --- ---- -- ------ ------<br>--- close -- ----,151179.09999990463,151178.2999997139,150792.493,150804.2999997139,150827.052,151202.323,,53,close
screen,html.Screen,2_1_0_1_54,2022-05-09T11:55:13.320Z,,,,,,,,,,,,,,,,,53,,,,,,,,,,,,,,329.97699971389375,,response,,,,99,,,,,,,Space,keypress(Space),,,,,,,,---- -- ----- -- ------ - ------- --- ----------<br>------------- ------ ------ ---- ---- ------- ----- -- ----<br>-------- ------- -- ---------- --- - --- ----- ----- ----<br>---- --- --- ----- --- ---- ---- ------- ----- ---- -------<br>--- --- -- ----- -- --- ---- -- --- ---- -- ------ ------<br>--- ----- at ----,151533.19999980927,151532.2999997139,151177.118,151179.40000009537,151202.323,151561.236,,54,at
screen,html.Screen,2_1_0_1_55,2022-05-09T11:55:13.581Z,,,,,,,,,,,,,,,,,53,,,,,,,,,,,,,,232.06399971389328,,response,,,,99,,,,,,,Space,keypress(Space),,,,,,,,---- -- ----- -- ------ - ------- --- ----------<br>------------- ------ ------ ---- ---- ------- ----- -- ----<br>-------- ------- -- ---------- --- - --- ----- ----- ----<br>---- --- --- ----- --- ---- ---- ------- ----- ---- -------<br>--- --- -- ----- -- --- ---- -- --- ---- -- ------ ------<br>--- ----- -- all.,151794.09999990463,151793.2999997139,151518.784,151533.40000009537,151561.236,151813.29,,55,all.
Item 99,flow.Loop,2_1_0_1,2022-05-09T11:55:13.582Z,,,,,,,,,,,,,,,,,,,,,,,,,,,,,,,34036.3079997139,,completion,,,,,D,,,,,,,,,,,silence,,,,,151794.59999990463,151793.2999997139,117707.072,117708.40000009537,117756.992,151813.29,,,
Question 1,html.Screen,2_1_0_2,2022-05-09T11:55:17.376Z,,,,,,,,,,,,,,,,,,,,,,,,,,,,true,FALSE,,3773.409999809257,,response,,,,99,D,,,,,,FALSE,click #choice-2,,,,silence,,,,,155588.2999997139,155586.69999980927,151789.381,151794.7999997139,151813.29,155591.546,,,
Question 2,html.Screen,2_1_0_3,2022-05-09T11:55:22.806Z,,,,,,,,,,,,,,,,,,,,,,,,,,,,true,TRUE,,5425.653999809263,,response,,,,99,D,,,,,,TRUE,click #choice-1,,,,silence,,,,,161018.5,161017.19999980927,155575.024,155588.59999990463,155591.546,161029.721,,,
Item 99,flow.Sequence,2_1_0,2022-05-09T11:55:22.806Z,,,,,,,,,,,,,,,,,,,,,,,,,,,,,,,53289.540999809265,,completion,,,,,,,,,,,,,,,,,,,,,161018.90000009537,161017.19999980927,107711.002,107719.2999997139,107727.659,161029.721,,,
Holding screen,html.Screen,2_1_1_0,2022-05-09T11:55:32.798Z,,,,,,,,,,,,,,,,,,,,,,,,,,,,,,,9996.950000000012,,timeout,,,,,,,,,,,,,,,,,,,,,171010.90000009537,171010.079,161013.068,161019.19999980927,161029.721,171026.671,,,
screen,html.Screen,2_1_1_1_0,2022-05-09T11:55:33.809Z,,,,,,,,,,,,,,,,,54,,,,,,,,,,,,,,994.4289999046305,,response,,,,100,,,,,,,Space,keypress(Space),,,,,,,,At --- ---- --- ------ ----- ------- ---- -- --- ------- --<br>------- ---------- ------ -- ----- -- ----- -- ---- ------<br>--- ----- --- --- ------ -------- ----- --- ------ ----- --<br>----- ----- ---------- --- --- ------ ------ ---- -- ------<br>------- --- ------ ----- --- ---- ------- -- ---- --- --<br>------- ------,172022,172021.09999990463,171010.079,171011.19999980927,171026.671,172044.231,,0,At
screen,html.Screen,2_1_1_1_1,2022-05-09T11:55:34.474Z,,,,,,,,,,,,,,,,,54,,,,,,,,,,,,,,641.7690000000002,,response,,,,100,,,,,,,Space,keypress(Space),,,,,,,,-- the ---- --- ------ ----- ------- ---- -- --- ------- --<br>------- ---------- ------ -- ----- -- ----- -- ---- ------<br>--- ----- --- --- ------ -------- ----- --- ------ ----- --<br>----- ----- ---------- --- --- ------ ------ ---- -- ------<br>------- --- ------ ----- --- ---- ------- -- ---- --- --<br>------- ------,172686.7999997139,172686,172009.597,172022.2999997139,172044.231,172710.039,,1,the
screen,html.Screen,2_1_1_1_2,2022-05-09T11:55:34.757Z,,,,,,,,,,,,,,,,,54,,,,,,,,,,,,,,259.26099971390795,,response,,,,100,,,,,,,Space,keypress(Space),,,,,,,,-- --- time --- ------ ----- ------- ---- -- --- ------- --<br>------- ---------- ------ -- ----- -- ----- -- ---- ------<br>--- ----- --- --- ------ -------- ----- --- ------ ----- --<br>----- ----- ---------- --- --- ------ ------ ---- -- ------<br>------- --- ------ ----- --- ---- ------- -- ---- --- --<br>------- ------,172970.2999997139,172969.2999997139,172677.168,172687.09999990463,172710.039,172993.687,,2,time
screen,html.Screen,2_1_1_1_3,2022-05-09T11:55:35.103Z,,,,,,,,,,,,,,,,,54,,,,,,,,,,,,,,321.2130000953621,,response,,,,100,,,,,,,Space,keypress(Space),,,,,,,,-- --- ---- the ------ ----- ------- ---- -- --- ------- --<br>------- ---------- ------ -- ----- -- ----- -- ---- ------<br>--- ----- --- --- ------ -------- ----- --- ------ ----- --<br>----- ----- ---------- --- --- ------ ------ ---- -- ------<br>------- --- ------ ----- --- ---- ------- -- ---- --- --<br>------- ------,173315.69999980927,173314.90000009537,172960.002,172970.5,172993.687,173339.024,,3,the
screen,html.Screen,2_1_1_1_4,2022-05-09T11:55:35.423Z,,,,,,,,,,,,,,,,,54,,,,,,,,,,,,,,296.37600009536254,,response,,,,100,,,,,,,Space,keypress(Space),,,,,,,,-- --- ---- --- French ----- ------- ---- -- --- ------- --<br>------- ---------- ------ -- ----- -- ----- -- ---- ------<br>--- ----- --- --- ------ -------- ----- --- ------ ----- --<br>----- ----- ---------- --- --- ------ ------ ---- -- ------<br>------- --- ------ ----- --- ---- ------- -- ---- --- --<br>------- ------,173636.19999980927,173635.40000009537,173310.123,173315.90000009537,173339.024,173659.527,,4,French
screen,html.Screen,2_1_1_1_5,2022-05-09T11:55:35.834Z,,,,,,,,,,,,,,,,,54,,,,,,,,,,,,,,386.47299999999814,,response,,,,100,,,,,,,Space,keypress(Space),,,,,,,,-- --- ---- --- ------ crown ------- ---- -- --- ------- --<br>------- ---------- ------ -- ----- -- ----- -- ---- ------<br>--- ----- --- --- ------ -------- ----- --- ------ ----- --<br>----- ----- ---------- --- --- ------ ------ ---- -- ------<br>------- --- ------ ----- --- ---- ------- -- ---- --- --<br>------- ------,174046.90000009537,174046,173622.09,173636.40000009537,173659.527,174070.366,,5,crown
screen,html.Screen,2_1_1_1_6,2022-05-09T11:55:36.289Z,,,,,,,,,,,,,,,,,54,,,,,,,,,,,,,,430.53400009535835,,response,,,,100,,,,,,,Space,keypress(Space),,,,,,,,-- --- ---- --- ------ ----- secured ---- -- --- ------- --<br>------- ---------- ------ -- ----- -- ----- -- ---- ------<br>--- ----- --- --- ------ -------- ----- --- ------ ----- --<br>----- ----- ---------- --- --- ------ ------ ---- -- ------<br>------- --- ------ ----- --- ---- ------- -- ---- --- --<br>------- ------,174502,174500.90000009537,174042.756,174047.09999990463,174070.366,174525.188,,6,secured
screen,html.Screen,2_1_1_1_7,2022-05-09T11:55:36.814Z,,,,,,,,,,,,,,,,,54,,,,,,,,,,,,,,500.61199971390306,,response,,,,100,,,,,,,Space,keypress(Space),,,,,,,,-- --- ---- --- ------ ----- ------- much -- --- ------- --<br>------- ---------- ------ -- ----- -- ----- -- ---- ------<br>--- ----- --- --- ------ -------- ----- --- ------ ----- --<br>----- ----- ---------- --- --- ------ ------ ---- -- ------<br>------- --- ------ ----- --- ---- ------- -- ---- --- --<br>------- ------,175026.59999990463,175025.7999997139,174486.63,174502.19999980927,174525.188,175049.97,,7,much
screen,html.Screen,2_1_1_1_8,2022-05-09T11:55:37.370Z,,,,,,,,,,,,,,,,,54,,,,,,,,,,,,,,532.0299999999988,,response,,,,100,,,,,,,Space,keypress(Space),,,,,,,,-- --- ---- --- ------ ----- ------- ---- of --- ------- --<br>------- ---------- ------ -- ----- -- ----- -- ---- ------<br>--- ----- --- --- ------ -------- ----- --- ------ ----- --<br>----- ----- ---------- --- --- ------ ------ ---- -- ------<br>------- --- ------ ----- --- ---- ------- -- ---- --- --<br>------- ------,175582.90000009537,175582,175024.856,175026.7999997139,175049.97,175607.165,,8,of
screen,html.Screen,2_1_1_1_9,2022-05-09T11:55:37.791Z,,,,,,,,,,,,,,,,,54,,,,,,,,,,,,,,395.7350000953593,,response,,,,100,,,,,,,Space,keypress(Space),,,,,,,,-- --- ---- --- ------ ----- ------- ---- -- its ------- --<br>------- ---------- ------ -- ----- -- ----- -- ---- ------<br>--- ----- --- --- ------ -------- ----- --- ------ ----- --<br>----- ----- ---------- --- --- ------ ------ ---- -- ------<br>------- --- ------ ----- --- ---- ------- -- ---- --- --<br>------- ------,176003.7999997139,176002.90000009537,175583.011,175584.09999990463,175607.165,176027.099,,9,its
screen,html.Screen,2_1_1_1_10,2022-05-09T11:55:38.160Z,,,,,,,,,,,,,,,,,54,,,,,,,,,,,,,,344.50099990464514,,response,,,,100,,,,,,,Space,keypress(Space),,,,,,,,-- --- ---- --- ------ ----- ------- ---- -- --- revenue --<br>------- ---------- ------ -- ----- -- ----- -- ---- ------<br>--- ----- --- --- ------ -------- ----- --- ------ ----- --<br>----- ----- ---------- --- --- ------ ------ ---- -- ------<br>------- --- ------ ----- --- ---- ------- -- ---- --- --<br>------- ------,176372.59999990463,176371.59999990463,175990.413,176004,176027.099,176395.888,,10,revenue
screen,html.Screen,2_1_1_1_11,2022-05-09T11:55:38.647Z,,,,,,,,,,,,,,,,,54,,,,,,,,,,,,,,462.9119997138914,,response,,,,100,,,,,,,Space,keypress(Space),,,,,,,,-- --- ---- --- ------ ----- ------- ---- -- --- ------- by<br>------- ---------- ------ -- ----- -- ----- -- ---- ------<br>--- ----- --- --- ------ -------- ----- --- ------ ----- --<br>----- ----- ---------- --- --- ------ ------ ---- -- ------<br>------- --- ------ ----- --- ---- ------- -- ---- --- --<br>------- ------,176859.59999990463,176858.7999997139,176360.105,176372.90000009537,176395.888,176882.257,,11,by
screen,html.Screen,2_1_1_1_12,2022-05-09T11:55:39.030Z,,,,,,,,,,,,,,,,,54,,,,,,,,,,,,,,359.6430000953551,,response,,,,100,,,,,,,Space,keypress(Space),,,,,,,,-- --- ---- --- ------ ----- ------- ---- -- --- ------- --<br>issuing ---------- ------ -- ----- -- ----- -- ---- ------<br>--- ----- --- --- ------ -------- ----- --- ------ ----- --<br>----- ----- ---------- --- --- ------ ------ ---- -- ------<br>------- --- ------ ----- --- ---- ------- -- ---- --- --<br>------- ------,177242.7999997139,177241.90000009537,176845.877,176859.7999997139,176882.257,177266.185,,12,issuing
screen,html.Screen,2_1_1_1_13,2022-05-09T11:55:39.435Z,,,,,,,,,,,,,,,,,54,,,,,,,,,,,,,,380.4149999046349,,response,,,,100,,,,,,,Space,keypress(Space),,,,,,,,-- --- ---- --- ------ ----- ------- ---- -- --- ------- --<br>------- government ------ -- ----- -- ----- -- ---- ------<br>--- ----- --- --- ------ -------- ----- --- ------ ----- --<br>----- ----- ---------- --- --- ------ ------ ---- -- ------<br>------- --- ------ ----- --- ---- ------- -- ---- --- --<br>------- ------,177647.5,177646.59999990463,177232.705,177243,177266.185,177670.796,,13,government
screen,html.Screen,2_1_1_1_14,2022-05-09T11:55:39.811Z,,,,,,,,,,,,,,,,,54,,,,,,,,,,,,,,352.10400009536534,,response,,,,100,,,,,,,Space,keypress(Space),,,,,,,,-- --- ---- --- ------ ----- ------- ---- -- --- ------- --<br>------- ---------- bonds. -- ----- -- ----- -- ---- ------<br>--- ----- --- --- ------ -------- ----- --- ------ ----- --<br>----- ----- ---------- --- --- ------ ------ ---- -- ------<br>------- --- ------ ----- --- ---- ------- -- ---- --- --<br>------- ------,178023.7999997139,178022.90000009537,177632.59,177647.69999980927,177670.796,178052.508,,14,bonds.
screen,html.Screen,2_1_1_1_15,2022-05-09T11:55:40.907Z,,,,,,,,,,,,,,,,,54,,,,,,,,,,,,,,1065.791999713896,,response,,,,100,,,,,,,Space,keypress(Space),,,,,,,,-- --- ---- --- ------ ----- ------- ---- -- --- ------- --<br>------- ---------- ------ In ----- -- ----- -- ---- ------<br>--- ----- --- --- ------ -------- ----- --- ------ ----- --<br>----- ----- ---------- --- --- ------ ------ ---- -- ------<br>------- --- ------ ----- --- ---- ------- -- ---- --- --<br>------- ------,179119.5,179118.2999997139,178020.599,178024,178052.508,179142.937,,15,In
screen,html.Screen,2_1_1_1_16,2022-05-09T11:55:41.283Z,,,,,,,,,,,,,,,,,54,,,,,,,,,,,,,,351.56299999999464,,response,,,,100,,,,,,,Space,keypress(Space),,,,,,,,"-- --- ---- --- ------ ----- ------- ---- -- --- ------- --<br>------- ---------- ------ -- 1727, -- ----- -- ---- ------<br>--- ----- --- --- ------ -------- ----- --- ------ ----- --<br>----- ----- ---------- --- --- ------ ------ ---- -- ------<br>------- --- ------ ----- --- ---- ------- -- ---- --- --<br>------- ------",179495.5,179494.5,179113.189,179119.69999980927,179142.937,179518.858,,16,"1727,"
screen,html.Screen,2_1_1_1_17,2022-05-09T11:55:42.706Z,,,,,,,,,,,,,,,,,54,,,,,,,,,,,,,,1399.4419997138903,,response,,,,100,,,,,,,Space,keypress(Space),,,,,,,,-- --- ---- --- ------ ----- ------- ---- -- --- ------- --<br>------- ---------- ------ -- ----- in ----- -- ---- ------<br>--- ----- --- --- ------ -------- ----- --- ------ ----- --<br>----- ----- ---------- --- --- ------ ------ ---- -- ------<br>------- --- ------ ----- --- ---- ------- -- ---- --- --<br>------- ------,180919.09999990463,180918.2999997139,179492.625,179495.69999980927,179518.858,180942.321,,17,in
screen,html.Screen,2_1_1_1_18,2022-05-09T11:55:43.119Z,,,,,,,,,,,,,,,,,54,,,,,,,,,,,,,,388.2789999046363,,response,,,,100,,,,,,,Space,keypress(Space),,,,,,,,-- --- ---- --- ------ ----- ------- ---- -- --- ------- --<br>------- ---------- ------ -- ----- -- order -- ---- ------<br>--- ----- --- --- ------ -------- ----- --- ------ ----- --<br>----- ----- ---------- --- --- ------ ------ ---- -- ------<br>------- --- ------ ----- --- ---- ------- -- ---- --- --<br>------- ------,181331.5,181330.59999990463,180917.892,180919.40000009537,180942.321,181355.013,,18,order
screen,html.Screen,2_1_1_1_19,2022-05-09T11:55:43.405Z,,,,,,,,,,,,,,,,,54,,,,,,,,,,,,,,261.4869999999937,,response,,,,100,,,,,,,Space,keypress(Space),,,,,,,,-- --- ---- --- ------ ----- ------- ---- -- --- ------- --<br>------- ---------- ------ -- ----- -- ----- to ---- ------<br>--- ----- --- --- ------ -------- ----- --- ------ ----- --<br>----- ----- ---------- --- --- ------ ------ ---- -- ------<br>------- --- ------ ----- --- ---- ------- -- ---- --- --<br>------- ------,181617.40000009537,181616.5,181325.473,181331.7999997139,181355.013,181640.732,,19,to
screen,html.Screen,2_1_1_1_20,2022-05-09T11:55:43.616Z,,,,,,,,,,,,,,,,,54,,,,,,,,,,,,,,186.76800000001094,,response,,,,100,,,,,,,Space,keypress(Space),,,,,,,,-- --- ---- --- ------ ----- ------- ---- -- --- ------- --<br>------- ---------- ------ -- ----- -- ----- -- save ------<br>--- ----- --- --- ------ -------- ----- --- ------ ----- --<br>----- ----- ---------- --- --- ------ ------ ---- -- ------<br>------- --- ------ ----- --- ---- ------- -- ---- --- --<br>------- ------,181828.2999997139,181827.5,181604.648,181617.59999990463,181640.732,181851.395,,20,save
screen,html.Screen,2_1_1_1_21,2022-05-09T11:55:44.420Z,,,,,,,,,,,,,,,,,54,,,,,,,,,,,,,,780.1050000000105,,response,,,,100,,,,,,,Space,keypress(Space),,,,,,,,"-- --- ---- --- ------ ----- ------- ---- -- --- ------- --<br>------- ---------- ------ -- ----- -- ----- -- ---- money,<br>--- ----- --- --- ------ -------- ----- --- ------ ----- --<br>----- ----- ---------- --- --- ------ ------ ---- -- ------<br>------- --- ------ ----- --- ---- ------- -- ---- --- --<br>------- ------",182632.2999997139,182631.5,181823.798,181828.59999990463,181851.395,182655.524,,21,"money,"
screen,html.Screen,2_1_1_1_22,2022-05-09T11:55:44.757Z,,,,,,,,,,,,,,,,,54,,,,,,,,,,,,,,312.67599980926025,,response,,,,100,,,,,,,Space,keypress(Space),,,,,,,,-- --- ---- --- ------ ----- ------- ---- -- --- ------- --<br>------- ---------- ------ -- ----- -- ----- -- ---- ------<br>the ----- --- --- ------ -------- ----- --- ------ ----- --<br>----- ----- ---------- --- --- ------ ------ ---- -- ------<br>------- --- ------ ----- --- ---- ------- -- ---- --- --<br>------- ------,182969.2999997139,182968.19999980927,182617.847,182632.5,182655.524,182992.801,,22,the
screen,html.Screen,2_1_1_1_23,2022-05-09T11:55:45.163Z,,,,,,,,,,,,,,,,,54,,,,,,,,,,,,,,382.0990000953607,,response,,,,100,,,,,,,Space,keypress(Space),,,,,,,,-- --- ---- --- ------ ----- ------- ---- -- --- ------- --<br>------- ---------- ------ -- ----- -- ----- -- ---- ------<br>--- state --- --- ------ -------- ----- --- ------ ----- --<br>----- ----- ---------- --- --- ------ ------ ---- -- ------<br>------- --- ------ ----- --- ---- ------- -- ---- --- --<br>------- ------,183375.69999980927,183374.90000009537,182955.251,182969.59999990463,182992.801,183399.123,,23,state
screen,html.Screen,2_1_1_1_24,2022-05-09T11:55:45.510Z,,,,,,,,,,,,,,,,,54,,,,,,,,,,,,,,323.1769997139054,,response,,,,100,,,,,,,Space,keypress(Space),,,,,,,,-- --- ---- --- ------ ----- ------- ---- -- --- ------- --<br>------- ---------- ------ -- ----- -- ----- -- ---- ------<br>--- ----- cut --- ------ -------- ----- --- ------ ----- --<br>----- ----- ---------- --- --- ------ ------ ---- -- ------<br>------- --- ------ ----- --- ---- ------- -- ---- --- --<br>------- ------,183723.09999990463,183722.2999997139,183375.958,183376,183399.123,183746.45,,24,cut
screen,html.Screen,2_1_1_1_25,2022-05-09T11:55:45.864Z,,,,,,,,,,,,,,,,,54,,,,,,,,,,,,,,329.6499999046209,,response,,,,100,,,,,,,Space,keypress(Space),,,,,,,,-- --- ---- --- ------ ----- ------- ---- -- --- ------- --<br>------- ---------- ------ -- ----- -- ----- -- ---- ------<br>--- ----- --- the ------ -------- ----- --- ------ ----- --<br>----- ----- ---------- --- --- ------ ------ ---- -- ------<br>------- --- ------ ----- --- ---- ------- -- ---- --- --<br>------- ------,184077,184076.09999990463,183715.631,183723.40000009537,183746.45,184100.281,,25,the
screen,html.Screen,2_1_1_1_26,2022-05-09T11:55:46.412Z,,,,,,,,,,,,,,,,,54,,,,,,,,,,,,,,524.0189997139096,,response,,,,100,,,,,,,Space,keypress(Space),,,,,,,,-- --- ---- --- ------ ----- ------- ---- -- --- ------- --<br>------- ---------- ------ -- ----- -- ----- -- ---- ------<br>--- ----- --- --- bonds' -------- ----- --- ------ ----- --<br>----- ----- ---------- --- --- ------ ------ ---- -- ------<br>------- --- ------ ----- --- ---- ------- -- ---- --- --<br>------- ------,184625.19999980927,184624.2999997139,184062.892,184077.19999980927,184100.281,184648.528,,26,bonds'
screen,html.Screen,2_1_1_1_27,2022-05-09T11:55:47.161Z,,,,,,,,,,,,,,,,,54,,,,,,,,,,,,,,724.3720000953763,,response,,,,100,,,,,,,Space,keypress(Space),,,,,,,,-- --- ---- --- ------ ----- ------- ---- -- --- ------- --<br>------- ---------- ------ -- ----- -- ----- -- ---- ------<br>--- ----- --- --- ------ interest ----- --- ------ ----- --<br>----- ----- ---------- --- --- ------ ------ ---- -- ------<br>------- --- ------ ----- --- ---- ------- -- ---- --- --<br>------- ------,185373.7999997139,185372.90000009537,184616.468,184625.40000009537,184648.528,185397.236,,27,interest
screen,html.Screen,2_1_1_1_28,2022-05-09T11:55:47.610Z,,,,,,,,,,,,,,,,,54,,,,,,,,,,,,,,425.164000095363,,response,,,,100,,,,,,,Space,keypress(Space),,,,,,,,-- --- ---- --- ------ ----- ------- ---- -- --- ------- --<br>------- ---------- ------ -- ----- -- ----- -- ---- ------<br>--- ----- --- --- ------ -------- rate. --- ------ ----- --<br>----- ----- ---------- --- --- ------ ------ ---- -- ------<br>------- --- ------ ----- --- ---- ------- -- ---- --- --<br>------- ------,185823.19999980927,185822.40000009537,185364.639,185374,185397.236,185846.584,,28,rate.
screen,html.Screen,2_1_1_1_29,2022-05-09T11:55:48.570Z,,,,,,,,,,,,,,,,,54,,,,,,,,,,,,,,935.1159998092626,,response,,,,100,,,,,,,Space,keypress(Space),,,,,,,,-- --- ---- --- ------ ----- ------- ---- -- --- ------- --<br>------- ---------- ------ -- ----- -- ----- -- ---- ------<br>--- ----- --- --- ------ -------- ----- The ------ ----- --<br>----- ----- ---------- --- --- ------ ------ ---- -- ------<br>------- --- ------ ----- --- ---- ------- -- ---- --- --<br>------- ------,186782.59999990463,186781.69999980927,185813.488,185823.5,185846.584,186805.868,,29,The
screen,html.Screen,2_1_1_1_30,2022-05-09T11:55:48.973Z,,,,,,,,,,,,,,,,,54,,,,,,,,,,,,,,379.3319998092775,,response,,,,100,,,,,,,Space,keypress(Space),,,,,,,,-- --- ---- --- ------ ----- ------- ---- -- --- ------- --<br>------- ---------- ------ -- ----- -- ----- -- ---- ------<br>--- ----- --- --- ------ -------- ----- --- market ----- --<br>----- ----- ---------- --- --- ------ ------ ---- -- ------<br>------- --- ------ ----- --- ---- ------- -- ---- --- --<br>------- ------,187186.2999997139,187185.19999980927,186779.402,186782.90000009537,186805.868,187209.63,,30,market
screen,html.Screen,2_1_1_1_31,2022-05-09T11:55:49.303Z,,,,,,,,,,,,,,,,,54,,,,,,,,,,,,,,305.9699999046279,,response,,,,100,,,,,,,Space,keypress(Space),,,,,,,,-- --- ---- --- ------ ----- ------- ---- -- --- ------- --<br>------- ---------- ------ -- ----- -- ----- -- ---- ------<br>--- ----- --- --- ------ -------- ----- --- ------ value --<br>----- ----- ---------- --- --- ------ ------ ---- -- ------<br>------- --- ------ ----- --- ---- ------- -- ---- --- --<br>------- ------,187516.5,187515.59999990463,187172.483,187186.59999990463,187209.63,187539.577,,31,value
screen,html.Screen,2_1_1_1_32,2022-05-09T11:55:49.787Z,,,,,,,,,,,,,,,,,54,,,,,,,,,,,,,,459.1229998092749,,response,,,,100,,,,,,,Space,keypress(Space),,,,,,,,-- --- ---- --- ------ ----- ------- ---- -- --- ------- --<br>------- ---------- ------ -- ----- -- ----- -- ---- ------<br>--- ----- --- --- ------ -------- ----- --- ------ ----- of<br>----- ----- ---------- --- --- ------ ------ ---- -- ------<br>------- --- ------ ----- --- ---- ------- -- ---- --- --<br>------- ------,187999.59999990463,187998.69999980927,187509.595,187516.69999980927,187539.577,188022.781,,32,of
screen,html.Screen,2_1_1_1_33,2022-05-09T11:55:50.182Z,,,,,,,,,,,,,,,,,54,,,,,,,,,,,,,,371.418999809277,,response,,,,100,,,,,,,Space,keypress(Space),,,,,,,,-- --- ---- --- ------ ----- ------- ---- -- --- ------- --<br>------- ---------- ------ -- ----- -- ----- -- ---- ------<br>--- ----- --- --- ------ -------- ----- --- ------ ----- --<br>these ----- ---------- --- --- ------ ------ ---- -- ------<br>------- --- ------ ----- --- ---- ------- -- ---- --- --<br>------- ------,188395,188394.19999980927,187989.523,187999.69999980927,188022.781,188418.251,,33,these
screen,html.Screen,2_1_1_1_34,2022-05-09T11:55:50.399Z,,,,,,,,,,,,,,,,,54,,,,,,,,,,,,,,192.94899980927585,,response,,,,100,,,,,,,Space,keypress(Space),,,,,,,,-- --- ---- --- ------ ----- ------- ---- -- --- ------- --<br>------- ---------- ------ -- ----- -- ----- -- ---- ------<br>--- ----- --- --- ------ -------- ----- --- ------ ----- --<br>----- bonds ---------- --- --- ------ ------ ---- -- ------<br>------- --- ------ ----- --- ---- ------- -- ---- --- --<br>------- ------,188612.19999980927,188611.19999980927,188389.102,188395.2999997139,188418.251,188632.06,,34,bonds
screen,html.Screen,2_1_1_1_35,2022-05-09T11:55:50.600Z,,,,,,,,,,,,,,,,,54,,,,,,,,,,,,,,179.63999980926747,,response,,,,100,,,,,,,Space,keypress(Space),,,,,,,,"-- --- ---- --- ------ ----- ------- ---- -- --- ------- --<br>------- ---------- ------ -- ----- -- ----- -- ---- ------<br>--- ----- --- --- ------ -------- ----- --- ------ ----- --<br>----- ----- plummeted, --- --- ------ ------ ---- -- ------<br>------- --- ------ ----- --- ---- ------- -- ---- --- --<br>------- ------",188812.59999990463,188811.69999980927,188601.705,188612.40000009537,188632.06,188833.772,,35,"plummeted,"
screen,html.Screen,2_1_1_1_36,2022-05-09T11:55:51.508Z,,,,,,,,,,,,,,,,,54,,,,,,,,,,,,,,886.3279999046354,,response,,,,100,,,,,,,Space,keypress(Space),,,,,,,,-- --- ---- --- ------ ----- ------- ---- -- --- ------- --<br>------- ---------- ------ -- ----- -- ----- -- ---- ------<br>--- ----- --- --- ------ -------- ----- --- ------ ----- --<br>----- ----- ---------- and --- ------ ------ ---- -- ------<br>------- --- ------ ----- --- ---- ------- -- ---- --- --<br>------- ------,189721,189720.09999990463,188801.913,188812.90000009537,188833.772,189744.278,,36,and
screen,html.Screen,2_1_1_1_37,2022-05-09T11:55:51.891Z,,,,,,,,,,,,,,,,,54,,,,,,,,,,,,,,359.02199971390655,,response,,,,100,,,,,,,Space,keypress(Space),,,,,,,,-- --- ---- --- ------ ----- ------- ---- -- --- ------- --<br>------- ---------- ------ -- ----- -- ----- -- ---- ------<br>--- ----- --- --- ------ -------- ----- --- ------ ----- --<br>----- ----- ---------- --- the ------ ------ ---- -- ------<br>------- --- ------ ----- --- ---- ------- -- ---- --- --<br>------- ------,190104,190103.2999997139,189718.862,189721.09999990463,189744.278,190127.259,,37,the
screen,html.Screen,2_1_1_1_38,2022-05-09T11:55:52.320Z,,,,,,,,,,,,,,,,,54,,,,,,,,,,,,,,404.7410000000091,,response,,,,100,,,,,,,Space,keypress(Space),,,,,,,,-- --- ---- --- ------ ----- ------- ---- -- --- ------- --<br>------- ---------- ------ -- ----- -- ----- -- ---- ------<br>--- ----- --- --- ------ -------- ----- --- ------ ----- --<br>----- ----- ---------- --- --- market ------ ---- -- ------<br>------- --- ------ ----- --- ---- ------- -- ---- --- --<br>------- ------,190532.7999997139,190532,190093.955,190104.2999997139,190127.259,190556.032,,38,market
screen,html.Screen,2_1_1_1_39,2022-05-09T11:55:52.738Z,,,,,,,,,,,,,,,,,54,,,,,,,,,,,,,,393.7679997138912,,response,,,,100,,,,,,,Space,keypress(Space),,,,,,,,-- --- ---- --- ------ ----- ------- ---- -- --- ------- --<br>------- ---------- ------ -- ----- -- ----- -- ---- ------<br>--- ----- --- --- ------ -------- ----- --- ------ ----- --<br>----- ----- ---------- --- --- ------ became ---- -- ------<br>------- --- ------ ----- --- ---- ------- -- ---- --- --<br>------- ------,190950.69999980927,190949.7999997139,190527.183,190533.09999990463,190556.032,190976.054,,39,became
screen,html.Screen,2_1_1_1_40,2022-05-09T11:55:53.113Z,,,,,,,,,,,,,,,,,54,,,,,,,,,,,,,,349.1459998092614,,response,,,,100,,,,,,,Space,keypress(Space),,,,,,,,-- --- ---- --- ------ ----- ------- ---- -- --- ------- --<br>------- ---------- ------ -- ----- -- ----- -- ---- ------<br>--- ----- --- --- ------ -------- ----- --- ------ ----- --<br>----- ----- ---------- --- --- ------ ------ wary -- ------<br>------- --- ------ ----- --- ---- ------- -- ---- --- --<br>------- ------,191326.09999990463,191325.19999980927,190939.352,190951,190976.054,191349.658,,40,wary
screen,html.Screen,2_1_1_1_41,2022-05-09T11:55:53.473Z,,,,,,,,,,,,,,,,,54,,,,,,,,,,,,,,335.2420000953716,,response,,,,100,,,,,,,Space,keypress(Space),,,,,,,,-- --- ---- --- ------ ----- ------- ---- -- --- ------- --<br>------- ---------- ------ -- ----- -- ----- -- ---- ------<br>--- ----- --- --- ------ -------- ----- --- ------ ----- --<br>----- ----- ---------- --- --- ------ ------ ---- of ------<br>------- --- ------ ----- --- ---- ------- -- ---- --- --<br>------- ------,191685.7999997139,191684.90000009537,191323.896,191326.40000009537,191349.658,191708.916,,41,of
screen,html.Screen,2_1_1_1_42,2022-05-09T11:55:53.978Z,,,,,,,,,,,,,,,,,54,,,,,,,,,,,,,,480.7839998092677,,response,,,,100,,,,,,,Space,keypress(Space),,,,,,,,-- --- ---- --- ------ ----- ------- ---- -- --- ------- --<br>------- ---------- ------ -- ----- -- ----- -- ---- ------<br>--- ----- --- --- ------ -------- ----- --- ------ ----- --<br>----- ----- ---------- --- --- ------ ------ ---- -- French<br>------- --- ------ ----- --- ---- ------- -- ---- --- --<br>------- ------,192190.59999990463,192189.69999980927,191682.68,191686,191708.916,192213.943,,42,French
screen,html.Screen,2_1_1_1_43,2022-05-09T11:55:54.916Z,,,,,,,,,,,,,,,,,54,,,,,,,,,,,,,,914.0570000000007,,response,,,,100,,,,,,,Space,keypress(Space),,,,,,,,-- --- ---- --- ------ ----- ------- ---- -- --- ------- --<br>------- ---------- ------ -- ----- -- ----- -- ---- ------<br>--- ----- --- --- ------ -------- ----- --- ------ ----- --<br>----- ----- ---------- --- --- ------ ------ ---- -- ------<br>credit. --- ------ ----- --- ---- ------- -- ---- --- --<br>------- ------,193128.69999980927,193128,192175.373,192190.90000009537,192213.943,193151.777,,43,credit.
screen,html.Screen,2_1_1_1_44,2022-05-09T11:55:55.618Z,,,,,,,,,,,,,,,,,54,,,,,,,,,,,,,,678.1230000953656,,response,,,,100,,,,,,,Space,keypress(Space),,,,,,,,-- --- ---- --- ------ ----- ------- ---- -- --- ------- --<br>------- ---------- ------ -- ----- -- ----- -- ---- ------<br>--- ----- --- --- ------ -------- ----- --- ------ ----- --<br>----- ----- ---------- --- --- ------ ------ ---- -- ------<br>------- The ------ ----- --- ---- ------- -- ---- --- --<br>------- ------,193830.59999990463,193829.90000009537,193113.48,193128.90000009537,193151.777,193853.946,,44,The
screen,html.Screen,2_1_1_1_45,2022-05-09T11:55:56.053Z,,,,,,,,,,,,,,,,,54,,,,,,,,,,,,,,411.25399980926886,,response,,,,100,,,,,,,Space,keypress(Space),,,,,,,,-- --- ---- --- ------ ----- ------- ---- -- --- ------- --<br>------- ---------- ------ -- ----- -- ----- -- ---- ------<br>--- ----- --- --- ------ -------- ----- --- ------ ----- --<br>----- ----- ---------- --- --- ------ ------ ---- -- ------<br>------- --- French ----- --- ---- ------- -- ---- --- --<br>------- ------,194266,194265.19999980927,193818.073,193830.7999997139,193853.946,194271.474,,45,French
screen,html.Screen,2_1_1_1_46,2022-05-09T11:55:56.536Z,,,,,,,,,,,,,,,,,54,,,,,,,,,,,,,,476.62599990464514,,response,,,,100,,,,,,,Space,keypress(Space),,,,,,,,-- --- ---- --- ------ ----- ------- ---- -- --- ------- --<br>------- ---------- ------ -- ----- -- ----- -- ---- ------<br>--- ----- --- --- ------ -------- ----- --- ------ ----- --<br>----- ----- ---------- --- --- ------ ------ ---- -- ------<br>------- --- ------ state --- ---- ------- -- ---- --- --<br>------- ------,194749.19999980927,194748.09999990463,194253.703,194266.2999997139,194271.474,194772.294,,46,state
screen,html.Screen,2_1_1_1_47,2022-05-09T11:55:56.926Z,,,,,,,,,,,,,,,,,54,,,,,,,,,,,,,,365.9059998092707,,response,,,,100,,,,,,,Space,keypress(Space),,,,,,,,-- --- ---- --- ------ ----- ------- ---- -- --- ------- --<br>------- ---------- ------ -- ----- -- ----- -- ---- ------<br>--- ----- --- --- ------ -------- ----- --- ------ ----- --<br>----- ----- ---------- --- --- ------ ------ ---- -- ------<br>------- --- ------ ----- was ---- ------- -- ---- --- --<br>------- ------,195139.09999990463,195138.19999980927,194738.054,194749.2999997139,194772.294,195157.814,,47,was
screen,html.Screen,2_1_1_1_48,2022-05-09T11:55:57.282Z,,,,,,,,,,,,,,,,,54,,,,,,,,,,,,,,335.8859998092521,,response,,,,100,,,,,,,Space,keypress(Space),,,,,,,,-- --- ---- --- ------ ----- ------- ---- -- --- ------- --<br>------- ---------- ------ -- ----- -- ----- -- ---- ------<br>--- ----- --- --- ------ -------- ----- --- ------ ----- --<br>----- ----- ---------- --- --- ------ ------ ---- -- ------<br>------- --- ------ ----- --- left ------- -- ---- --- --<br>------- ------,195494.69999980927,195493.69999980927,195138.969,195139.40000009537,195157.814,195518.033,,48,left
screen,html.Screen,2_1_1_1_49,2022-05-09T11:55:58.153Z,,,,,,,,,,,,,,,,,54,,,,,,,,,,,,,,847.5669999046368,,response,,,,100,,,,,,,Space,keypress(Space),,,,,,,,-- --- ---- --- ------ ----- ------- ---- -- --- ------- --<br>------- ---------- ------ -- ----- -- ----- -- ---- ------<br>--- ----- --- --- ------ -------- ----- --- ------ ----- --<br>----- ----- ---------- --- --- ------ ------ ---- -- ------<br>------- --- ------ ----- --- ---- without -- ---- --- --<br>------- ------,196366.40000009537,196365.59999990463,195495.567,195495,195518.033,196389.793,,49,without
screen,html.Screen,2_1_1_1_50,2022-05-09T11:55:58.633Z,,,,,,,,,,,,,,,,,54,,,,,,,,,,,,,,455.90699980926,,response,,,,100,,,,,,,Space,keypress(Space),,,,,,,,-- --- ---- --- ------ ----- ------- ---- -- --- ------- --<br>------- ---------- ------ -- ----- -- ----- -- ---- ------<br>--- ----- --- --- ------ -------- ----- --- ------ ----- --<br>----- ----- ---------- --- --- ------ ------ ---- -- ------<br>------- --- ------ ----- --- ---- ------- an ---- --- --<br>------- ------,196846.5,196845.69999980927,196350.923,196366.59999990463,196389.793,196869.85,,50,an
screen,html.Screen,2_1_1_1_51,2022-05-09T11:55:59.115Z,,,,,,,,,,,,,,,,,54,,,,,,,,,,,,,,457.4499997138919,,response,,,,100,,,,,,,Space,keypress(Space),,,,,,,,-- --- ---- --- ------ ----- ------- ---- -- --- ------- --<br>------- ---------- ------ -- ----- -- ----- -- ---- ------<br>--- ----- --- --- ------ -------- ----- --- ------ ----- --<br>----- ----- ---------- --- --- ------ ------ ---- -- ------<br>------- --- ------ ----- --- ---- ------- -- easy --- --<br>------- ------,197328.09999990463,197327.2999997139,196839.372,196846.7999997139,196869.85,197351.474,,51,easy
screen,html.Screen,2_1_1_1_52,2022-05-09T11:55:59.471Z,,,,,,,,,,,,,,,,,54,,,,,,,,,,,,,,331.92600009538,,response,,,,100,,,,,,,Space,keypress(Space),,,,,,,,-- --- ---- --- ------ ----- ------- ---- -- --- ------- --<br>------- ---------- ------ -- ----- -- ----- -- ---- ------<br>--- ----- --- --- ------ -------- ----- --- ------ ----- --<br>----- ----- ---------- --- --- ------ ------ ---- -- ------<br>------- --- ------ ----- --- ---- ------- -- ---- way --<br>------- ------,197684.19999980927,197683.40000009537,197319.571,197328.2999997139,197351.474,197715.615,,52,way
screen,html.Screen,2_1_1_1_53,2022-05-09T11:55:59.840Z,,,,,,,,,,,,,,,,,54,,,,,,,,,,,,,,336.9849999046419,,response,,,,100,,,,,,,Space,keypress(Space),,,,,,,,-- --- ---- --- ------ ----- ------- ---- -- --- ------- --<br>------- ---------- ------ -- ----- -- ----- -- ---- ------<br>--- ----- --- --- ------ -------- ----- --- ------ ----- --<br>----- ----- ---------- --- --- ------ ------ ---- -- ------<br>------- --- ------ ----- --- ---- ------- -- ---- --- of<br>------- ------,198053.2999997139,198052.59999990463,197684.569,197684.5,197715.615,198076.772,,53,of
screen,html.Screen,2_1_1_1_54,2022-05-09T11:56:00.289Z,,,,,,,,,,,,,,,,,54,,,,,,,,,,,,,,423.92799980926793,,response,,,,100,,,,,,,Space,keypress(Space),,,,,,,,-- --- ---- --- ------ ----- ------- ---- -- --- ------- --<br>------- ---------- ------ -- ----- -- ----- -- ---- ------<br>--- ----- --- --- ------ -------- ----- --- ------ ----- --<br>----- ----- ---------- --- --- ------ ------ ---- -- ------<br>------- --- ------ ----- --- ---- ------- -- ---- --- --<br>raising ------,198501.59999990463,198500.69999980927,198040.731,198053.59999990463,198076.772,198525.043,,54,raising
screen,html.Screen,2_1_1_1_55,2022-05-09T11:56:01.081Z,,,,,,,,,,,,,,,,,54,,,,,,,,,,,,,,768.65699980926,,response,,,,100,,,,,,,Space,keypress(Space),,,,,,,,-- --- ---- --- ------ ----- ------- ---- -- --- ------- --<br>------- ---------- ------ -- ----- -- ----- -- ---- ------<br>--- ----- --- --- ------ -------- ----- --- ------ ----- --<br>----- ----- ---------- --- --- ------ ------ ---- -- ------<br>------- --- ------ ----- --- ---- ------- -- ---- --- --<br>------- money.,199294.5,199293.69999980927,198493.194,198501.90000009537,198525.043,199314.419,,55,money.
Item 100,flow.Loop,2_1_1_1,2022-05-09T11:56:01.082Z,,,,,,,,,,,,,,,,,,,,,,,,,,,,,,,28267.028999809263,,completion,,,,,D,,,,,,,,,,,silence,,,,,199294.90000009537,199293.69999980927,171010.079,171011.09999990463,171026.671,199314.419,,,
Question 1,html.Screen,2_1_1_2,2022-05-09T11:56:03.518Z,,,,,,,,,,,,,,,,,,,,,,,,,,,,true,TRUE,,2415.5810000000056,,response,,,,100,D,,,,,,TRUE,click #choice-1,,,,silence,,,,,201731.2999997139,201730,199291.112,199295.09999990463,199314.419,201752.66,,,
Question 2,html.Screen,2_1_1_3,2022-05-09T11:56:05.944Z,,,,,,,,,,,,,,,,,,,,,,,,,,,,true,FALSE,,2403.439999904629,,response,,,,100,D,,,,,,FALSE,click #choice-2,,,,silence,,,,,204157.40000009537,204156.09999990463,201736.036,201731.59999990463,201752.66,204165.269,,,
Item 100,flow.Sequence,2_1_1,2022-05-09T11:56:05.945Z,,,,,,,,,,,,,,,,,,,,,,,,,,,,,,,43126.37899990464,,completion,,,,,,,,,,,,,,,,,,,,,204157.69999980927,204156.09999990463,161013.068,161019.09999990463,161029.721,204165.269,,,
End of Practice,html.Page,2_1_2,2022-05-09T11:56:10.416Z,,,,,,,,,,,,,,,,,,,,,,,,,,,,,,,4462.930999809265,,form submission,,,,,,,,,,,,,,,,,,,,,208628.7999997139,208628.19999980927,204148.578,204157.7999997139,204165.269,208639.663,,,
Practice,flow.Sequence,2_1,2022-05-09T11:56:10.416Z,,,,,,,,,,,,,,,,,,,,,,,,,,,,,,,100900.54099980927,,completion,,,,,,,,,,,,,,,,,,,,,208629.09999990463,208628.19999980927,107711.002,107719.19999980927,107727.659,208639.663,,,
Trap_instruction,html.Page,2_2_0,2022-05-09T11:56:22.481Z,,,,,,,,,,,,,,,,,,,,,,,,,,,,,,,12053.636999713897,,form submission,,,,,,,,,,,,,,,,,,,,,220693.59999990463,220693.2999997139,208623.032,208629.40000009537,208639.663,220734.137,,,
trap_trial,html.Screen,2_2_1,2022-05-09T11:56:25.855Z,,,,,,,,,,,,,,,,,,,,,,,,,,,,true,1,,3332.2630000953795,,response,,,,,,,,,,,1,click #choice-1,,,,,,,,,224067.7999997139,224066.40000009537,220700.813,220693.90000009537,220734.137,224082.972,,,
end of trap trial,html.Page,2_2_2,2022-05-09T11:56:27.896Z,,,,,,,,,,,,,,,,,,,,,,,,,,,,,,,2025.1279999046237,,form submission,,,,,,,,,,,,,,,,,,,,,226108.69999980927,226108.09999990463,224066.31,224068.09999990463,224082.972,226118.459,,,
Trap 1,flow.Sequence,2_2,2022-05-09T11:56:27.896Z,,,,,,,,,,,,,,,,,,,,,,,,,,,,,,,17468.436999904632,,completion,,,,,,,,,,,,,,,,,,,,,226109.09999990463,226108.09999990463,208623.032,208629.2999997139,208639.663,226118.459,,,
Standby,html.Page,2_3_0,2022-05-09T11:56:35.883Z,,,,,,,,,,,,,,,,,,,,,,,,,,,,,,,7993.005000000005,,timeout,,,,,,,,,,,,,,,,,,,,,234095.7999997139,234094.841,226101.892,226109.2999997139,226118.459,234111.464,,,
Holding screen,html.Screen,2_3_1_0_0,2022-05-09T11:56:42.885Z,,,,,,,,,,,,,,,,,,,,,,,,,,,,,,,7001.926000000007,,timeout,,,,,,,,,,,,,,,,,,,,,241097.90000009537,241096.878,234094.841,234096.19999980927,234111.464,241113.39,,,
screen,html.Screen,2_3_1_0_1_0,2022-05-09T11:56:45.688Z,,,,,,,,,,,,,,,,,12,,,,,,,,,,,,,,2787.309999809251,,response,,,,5,D,,,,,,Space,keypress(Space),,,,speech,,,,Some ------ ------ ------- ------ --- ------- -----------<br>-- ----- --- ---- -- --- ------ ---- - ---- -- ----------<br>-- ------ ---- --- ---- --- --- --- ----- -- -------- ---<br>------ ------- -------- --- ---- -- ------- ------------ --<br>------ -- ---- -- --- ---- -- -------- -- --- ------ ------,243901.40000009537,243900.69999980927,241096.878,241098.2999997139,241113.39,243923.319,,0,Some
screen,html.Screen,2_3_1_0_1_1,2022-05-09T11:56:46.221Z,,,,,,,,,,,,,,,,,12,,,,,,,,,,,,,,509.4809997139091,,response,,,,5,D,,,,,,Space,keypress(Space),,,,speech,,,,---- months ------ ------- ------ --- ------- -----------<br>-- ----- --- ---- -- --- ------ ---- - ---- -- ----------<br>-- ------ ---- --- ---- --- --- --- ----- -- -------- ---<br>------ ------- -------- --- ---- -- ------- ------------ --<br>------ -- ---- -- --- ---- -- -------- -- --- ------ ------,244433.69999980927,244432.7999997139,243895.206,243901.59999990463,243923.319,244457.014,,1,months
screen,html.Screen,2_3_1_0_1_2,2022-05-09T11:56:46.562Z,,,,,,,,,,,,,,,,,12,,,,,,,,,,,,,,316.88600009537186,,response,,,,5,D,,,,,,Space,keypress(Space),,,,speech,,,,"---- ------ later, ------- ------ --- ------- -----------<br>-- ----- --- ---- -- --- ------ ---- - ---- -- ----------<br>-- ------ ---- --- ---- --- --- --- ----- -- -------- ---<br>------ ------- -------- --- ---- -- ------- ------------ --<br>------ -- ---- -- --- ---- -- -------- -- --- ------ ------",244774.69999980927,244773.90000009537,244423.034,244434,244457.014,244778.847,,2,"later,"
screen,html.Screen,2_3_1_0_1_3,2022-05-09T11:56:46.956Z,,,,,,,,,,,,,,,,,12,,,,,,,,,,,,,,388.45299971388886,,response,,,,5,D,,,,,,Space,keypress(Space),,,,speech,,,,---- ------ ------ Michael ------ --- ------- -----------<br>-- ----- --- ---- -- --- ------ ---- - ---- -- ----------<br>-- ------ ---- --- ---- --- --- --- ----- -- -------- ---<br>------ ------- -------- --- ---- -- ------- ------------ --<br>------ -- ---- -- --- ---- -- -------- -- --- ------ ------,245168.09999990463,245167.2999997139,244773.51,244774.90000009537,244778.847,245191.571,,3,Michael
screen,html.Screen,2_3_1_0_1_4,2022-05-09T11:56:47.473Z,,,,,,,,,,,,,,,,,12,,,,,,,,,,,,,,492.4290000000037,,response,,,,5,D,,,,,,Space,keypress(Space),,,,speech,,,,---- ------ ------ ------- Larson --- ------- -----------<br>-- ----- --- ---- -- --- ------ ---- - ---- -- ----------<br>-- ------ ---- --- ---- --- --- --- ----- -- -------- ---<br>------ ------- -------- --- ---- -- ------- ------------ --<br>------ -- ---- -- --- ---- -- -------- -- --- ------ ------,245684.90000009537,245684,245162.043,245168.40000009537,245191.571,245708.238,,4,Larson
screen,html.Screen,2_3_1_0_1_5,2022-05-09T11:56:47.921Z,,,,,,,,,,,,,,,,,12,,,,,,,,,,,,,,424.36199990462046,,response,,,,5,D,,,,,,Space,keypress(Space),,,,speech,,,,---- ------ ------ ------- ------ saw ------- -----------<br>-- ----- --- ---- -- --- ------ ---- - ---- -- ----------<br>-- ------ ---- --- ---- --- --- --- ----- -- -------- ---<br>------ ------- -------- --- ---- -- ------- ------------ --<br>------ -- ---- -- --- ---- -- -------- -- --- ------ ------,246133.59999990463,246132.59999990463,245674.569,245685.19999980927,245708.238,246156.937,,5,saw
screen,html.Screen,2_3_1_0_1_6,2022-05-09T11:56:48.466Z,,,,,,,,,,,,,,,,,12,,,,,,,,,,,,,,519.9630000953621,,response,,,,5,D,,,,,,Space,keypress(Space),,,,speech,,,,---- ------ ------ ------- ------ --- another -----------<br>-- ----- --- ---- -- --- ------ ---- - ---- -- ----------<br>-- ------ ---- --- ---- --- --- --- ----- -- -------- ---<br>------ ------- -------- --- ---- -- ------- ------------ --<br>------ -- ---- -- --- ---- -- -------- -- --- ------ ------,246677.7999997139,246676.90000009537,246124.73,246133.90000009537,246156.937,246707.874,,6,another
screen,html.Screen,2_3_1_0_1_7,2022-05-09T11:56:48.843Z,,,,,,,,,,,,,,,,,12,,,,,,,,,,,,,,346.3259998092544,,response,,,,5,D,,,,,,Space,keypress(Space),,,,speech,,,,---- ------ ------ ------- ------ --- ------- opportunity<br>-- ----- --- ---- -- --- ------ ---- - ---- -- ----------<br>-- ------ ---- --- ---- --- --- --- ----- -- -------- ---<br>------ ------- -------- --- ---- -- ------- ------------ --<br>------ -- ---- -- --- ---- -- -------- -- --- ------ ------,247055.2999997139,247054.19999980927,246673.308,246678.09999990463,246707.874,247081.807,,7,opportunity
screen,html.Screen,2_3_1_0_1_8,2022-05-09T11:56:49.128Z,,,,,,,,,,,,,,,,,12,,,,,,,,,,,,,,257.79299990463187,,response,,,,5,D,,,,,,Space,keypress(Space),,,,speech,,,,---- ------ ------ ------- ------ --- ------- -----------<br>to ----- --- ---- -- --- ------ ---- - ---- -- ----------<br>-- ------ ---- --- ---- --- --- --- ----- -- -------- ---<br>------ ------- -------- --- ---- -- ------- ------------ --<br>------ -- ---- -- --- ---- -- -------- -- --- ------ ------,247340.59999990463,247339.59999990463,247050.963,247055.59999990463,247081.807,247363.699,,8,to
screen,html.Screen,2_3_1_0_1_9,2022-05-09T11:56:49.307Z,,,,,,,,,,,,,,,,,12,,,,,,,,,,,,,,154.70100009537418,,response,,,,5,D,,,,,,Space,keypress(Space),,,,speech,,,,---- ------ ------ ------- ------ --- ------- -----------<br>-- stack --- ---- -- --- ------ ---- - ---- -- ----------<br>-- ------ ---- --- ---- --- --- --- ----- -- -------- ---<br>------ ------- -------- --- ---- -- ------- ------------ --<br>------ -- ---- -- --- ---- -- -------- -- --- ------ ------,247519.2999997139,247518.40000009537,247328.563,247340.7999997139,247363.699,247530.254,,9,stack
screen,html.Screen,2_3_1_0_1_10,2022-05-09T11:56:49.800Z,,,,,,,,,,,,,,,,,12,,,,,,,,,,,,,,481.3459999046463,,response,,,,5,D,,,,,,Space,keypress(Space),,,,speech,,,,---- ------ ------ ------- ------ --- ------- -----------<br>-- ----- the ---- -- --- ------ ---- - ---- -- ----------<br>-- ------ ---- --- ---- --- --- --- ----- -- -------- ---<br>------ ------- -------- --- ---- -- ------- ------------ --<br>------ -- ---- -- --- ---- -- -------- -- --- ------ ------,248012.40000009537,248011.59999990463,247513.634,247519.59999990463,247530.254,248035.33,,10,the
screen,html.Screen,2_3_1_0_1_11,2022-05-09T11:56:50.164Z,,,,,,,,,,,,,,,,,12,,,,,,,,,,,,,,339.86999980927794,,response,,,,5,D,,,,,,Space,keypress(Space),,,,speech,,,,---- ------ ------ ------- ------ --- ------- -----------<br>-- ----- --- odds -- --- ------ ---- - ---- -- ----------<br>-- ------ ---- --- ---- --- --- --- ----- -- -------- ---<br>------ ------- -------- --- ---- -- ------- ------------ --<br>------ -- ---- -- --- ---- -- -------- -- --- ------ ------,248376,248375.19999980927,247996.68,248012.69999980927,248035.33,248398.837,,11,odds
screen,html.Screen,2_3_1_0_1_12,2022-05-09T11:56:50.504Z,,,,,,,,,,,,,,,,,12,,,,,,,,,,,,,,316.66300000000047,,response,,,,5,D,,,,,,Space,keypress(Space),,,,speech,,,,---- ------ ------ ------- ------ --- ------- -----------<br>-- ----- --- ---- in --- ------ ---- - ---- -- ----------<br>-- ------ ---- --- ---- --- --- --- ----- -- -------- ---<br>------ ------- -------- --- ---- -- ------- ------------ --<br>------ -- ---- -- --- ---- -- -------- -- --- ------ ------,248716.40000009537,248715.5,248368.485,248376.09999990463,248398.837,248743.439,,12,in
screen,html.Screen,2_3_1_0_1_13,2022-05-09T11:56:50.704Z,,,,,,,,,,,,,,,,,12,,,,,,,,,,,,,,171.4610000953544,,response,,,,5,D,,,,,,Space,keypress(Space),,,,speech,,,,---- ------ ------ ------- ------ --- ------- -----------<br>-- ----- --- ---- -- his ------ ---- - ---- -- ----------<br>-- ------ ---- --- ---- --- --- --- ----- -- -------- ---<br>------ ------- -------- --- ---- -- ------- ------------ --<br>------ -- ---- -- --- ---- -- -------- -- --- ------ ------,248915.90000009537,248914.90000009537,248715.267,248716.59999990463,248743.439,248939.122,,13,his
screen,html.Screen,2_3_1_0_1_14,2022-05-09T11:56:51.498Z,,,,,,,,,,,,,,,,,12,,,,,,,,,,,,,,770.2780000953644,,response,,,,5,D,,,,,,Space,keypress(Space),,,,speech,,,,---- ------ ------ ------- ------ --- ------- -----------<br>-- ----- --- ---- -- --- favour ---- - ---- -- ----------<br>-- ------ ---- --- ---- --- --- --- ----- -- -------- ---<br>------ ------- -------- --- ---- -- ------- ------------ --<br>------ -- ---- -- --- ---- -- -------- -- --- ------ ------,249710.2999997139,249709.40000009537,248906.178,248916.19999980927,248939.122,249733.518,,14,favour
screen,html.Screen,2_3_1_0_1_15,2022-05-09T11:56:51.965Z,,,,,,,,,,,,,,,,,12,,,,,,,,,,,,,,442.3820000953565,,response,,,,5,D,,,,,,Space,keypress(Space),,,,speech,,,,---- ------ ------ ------- ------ --- ------- -----------<br>-- ----- --- ---- -- --- ------ with - ---- -- ----------<br>-- ------ ---- --- ---- --- --- --- ----- -- -------- ---<br>------ ------- -------- --- ---- -- ------- ------------ --<br>------ -- ---- -- --- ---- -- -------- -- --- ------ ------,250177,250175.90000009537,249705.169,249710.5,249733.518,250200.184,,15,with
screen,html.Screen,2_3_1_0_1_16,2022-05-09T11:56:52.148Z,,,,,,,,,,,,,,,,,12,,,,,,,,,,,,,,158.71600009535905,,response,,,,5,D,,,,,,Space,keypress(Space),,,,speech,,,,---- ------ ------ ------- ------ --- ------- -----------<br>-- ----- --- ---- -- --- ------ ---- a ---- -- ----------<br>-- ------ ---- --- ---- --- --- --- ----- -- -------- ---<br>------ ------- -------- --- ---- -- ------- ------------ --<br>------ -- ---- -- --- ---- -- -------- -- --- ------ ------,250359.90000009537,250358.90000009537,250166.64,250177.09999990463,250200.184,250383.313,,16,a
screen,html.Screen,2_3_1_0_1_17,2022-05-09T11:56:52.316Z,,,,,,,,,,,,,,,,,12,,,,,,,,,,,,,,143.78699990463792,,response,,,,5,D,,,,,,Space,keypress(Space),,,,speech,,,,---- ------ ------ ------- ------ --- ------- -----------<br>-- ----- --- ---- -- --- ------ ---- - dash -- ----------<br>-- ------ ---- --- ---- --- --- --- ----- -- -------- ---<br>------ ------- -------- --- ---- -- ------- ------------ --<br>------ -- ---- -- --- ---- -- -------- -- --- ------ ------,250527.90000009537,250527.09999990463,250349.939,250360.19999980927,250383.313,250532.944,,17,dash
screen,html.Screen,2_3_1_0_1_18,2022-05-09T11:56:52.781Z,,,,,,,,,,,,,,,,,12,,,,,,,,,,,,,,459.25599980927655,,response,,,,5,D,,,,,,Space,keypress(Space),,,,speech,,,,---- ------ ------ ------- ------ --- ------- -----------<br>-- ----- --- ---- -- --- ------ ---- - ---- of ----------<br>-- ------ ---- --- ---- --- --- --- ----- -- -------- ---<br>------ ------- -------- --- ---- -- ------- ------------ --<br>------ -- ---- -- --- ---- -- -------- -- --- ------ ------,250993.40000009537,250992.19999980927,250516.339,250528.09999990463,250532.944,251016.754,,18,of
screen,html.Screen,2_3_1_0_1_19,2022-05-09T11:56:53.447Z,,,,,,,,,,,,,,,,,12,,,,,,,,,,,,,,641.4459998092789,,response,,,,5,D,,,,,,Space,keypress(Space),,,,speech,,,,---- ------ ------ ------- ------ --- ------- -----------<br>-- ----- --- ---- -- --- ------ ---- - ---- -- ingenuity.<br>-- ------ ---- --- ---- --- --- --- ----- -- -------- ---<br>------ ------- -------- --- ---- -- ------- ------------ --<br>------ -- ---- -- --- ---- -- -------- -- --- ------ ------,251659,251658.19999980927,250988.371,250993.7999997139,251016.754,251682.157,,19,ingenuity.
screen,html.Screen,2_3_1_0_1_20,2022-05-09T11:56:53.958Z,,,,,,,,,,,,,,,,,12,,,,,,,,,,,,,,487.7430000953609,,response,,,,5,D,,,,,,Space,keypress(Space),,,,speech,,,,---- ------ ------ ------- ------ --- ------- -----------<br>-- ----- --- ---- -- --- ------ ---- - ---- -- ----------<br>He ------ ---- --- ---- --- --- --- ----- -- -------- ---<br>------ ------- -------- --- ---- -- ------- ------------ --<br>------ -- ---- -- --- ---- -- -------- -- --- ------ ------,252170.5,252169.90000009537,251649.543,251659.2999997139,251682.157,252193.148,,20,He
screen,html.Screen,2_3_1_0_1_21,2022-05-09T11:56:54.205Z,,,,,,,,,,,,,,,,,12,,,,,,,,,,,,,,223.55199980927864,,response,,,,5,D,,,,,,Space,keypress(Space),,,,speech,,,,---- ------ ------ ------- ------ --- ------- -----------<br>-- ----- --- ---- -- --- ------ ---- - ---- -- ----------<br>-- walked ---- --- ---- --- --- --- ----- -- -------- ---<br>------ ------- -------- --- ---- -- ------- ------------ --<br>------ -- ---- -- --- ---- -- -------- -- --- ------ ------,252417.5,252416.69999980927,252165.107,252170.59999990463,252193.148,252440.701,,21,walked
screen,html.Screen,2_3_1_0_1_22,2022-05-09T11:56:55.044Z,,,,,,,,,,,,,,,,,12,,,,,,,,,,,,,,815.0989997138968,,response,,,,5,D,,,,,,Space,keypress(Space),,,,speech,,,,---- ------ ------ ------- ------ --- ------- -----------<br>-- ----- --- ---- -- --- ------ ---- - ---- -- ----------<br>-- ------ into --- ---- --- --- --- ----- -- -------- ---<br>------ ------- -------- --- ---- -- ------- ------------ --<br>------ -- ---- -- --- ---- -- -------- -- --- ------ ------,253256.7999997139,253255.7999997139,252409.682,252417.69999980927,252440.701,253280.029,,22,into
screen,html.Screen,2_3_1_0_1_23,2022-05-09T11:56:55.224Z,,,,,,,,,,,,,,,,,12,,,,,,,,,,,,,,155.57099990462302,,response,,,,5,D,,,,,,Space,keypress(Space),,,,speech,,,,---- ------ ------ ------- ------ --- ------- -----------<br>-- ----- --- ---- -- --- ------ ---- - ---- -- ----------<br>-- ------ ---- his ---- --- --- --- ----- -- -------- ---<br>------ ------- -------- --- ---- -- ------- ------------ --<br>------ -- ---- -- --- ---- -- -------- -- --- ------ ------,253436.59999990463,253435.59999990463,253256.846,253256.90000009537,253280.029,253460.176,,23,his
screen,html.Screen,2_3_1_0_1_24,2022-05-09T11:56:55.387Z,,,,,,,,,,,,,,,,,12,,,,,,,,,,,,,,138.72400009536068,,response,,,,5,D,,,,,,Space,keypress(Space),,,,speech,,,,---- ------ ------ ------- ------ --- ------- -----------<br>-- ----- --- ---- -- --- ------ ---- - ---- -- ----------<br>-- ------ ---- --- bank --- --- --- ----- -- -------- ---<br>------ ------- -------- --- ---- -- ------- ------------ --<br>------ -- ---- -- --- ---- -- -------- -- --- ------ ------,253599.69999980927,253598.90000009537,253429.713,253436.7999997139,253460.176,253609.852,,24,bank
screen,html.Screen,2_3_1_0_1_25,2022-05-09T11:56:55.953Z,,,,,,,,,,,,,,,,,12,,,,,,,,,,,,,,554.7479999046191,,response,,,,5,D,,,,,,Space,keypress(Space),,,,speech,,,,---- ------ ------ ------- ------ --- ------- -----------<br>-- ----- --- ---- -- --- ------ ---- - ---- -- ----------<br>-- ------ ---- --- ---- one --- --- ----- -- -------- ---<br>------ ------- -------- --- ---- -- ------- ------------ --<br>------ -- ---- -- --- ---- -- -------- -- --- ------ ------,254165.59999990463,254164.59999990463,253593.209,253599.90000009537,253609.852,254188.423,,25,one
screen,html.Screen,2_3_1_0_1_26,2022-05-09T11:56:56.261Z,,,,,,,,,,,,,,,,,12,,,,,,,,,,,,,,283.8769997138879,,response,,,,5,D,,,,,,Space,keypress(Space),,,,speech,,,,---- ------ ------ ------- ------ --- ------- -----------<br>-- ----- --- ---- -- --- ------ ---- - ---- -- ----------<br>-- ------ ---- --- ---- --- day --- ----- -- -------- ---<br>------ ------- -------- --- ---- -- ------- ------------ --<br>------ -- ---- -- --- ---- -- -------- -- --- ------ ------,254473.09999990463,254472.2999997139,254164.914,254165.7999997139,254188.423,254496.069,,26,day
screen,html.Screen,2_3_1_0_1_27,2022-05-09T11:56:56.620Z,,,,,,,,,,,,,,,,,12,,,,,,,,,,,,,,335.530999904644,,response,,,,5,D,,,,,,Space,keypress(Space),,,,speech,,,,---- ------ ------ ------- ------ --- ------- -----------<br>-- ----- --- ---- -- --- ------ ---- - ---- -- ----------<br>-- ------ ---- --- ---- --- --- and ----- -- -------- ---<br>------ ------- -------- --- ---- -- ------- ------------ --<br>------ -- ---- -- --- ---- -- -------- -- --- ------ ------,254832.2999997139,254831.59999990463,254471.655,254473.2999997139,254496.069,254854.918,,27,and
screen,html.Screen,2_3_1_0_1_28,2022-05-09T11:56:56.975Z,,,,,,,,,,,,,,,,,12,,,,,,,,,,,,,,331.9820000953623,,response,,,,5,D,,,,,,Space,keypress(Space),,,,speech,,,,---- ------ ------ ------- ------ --- ------- -----------<br>-- ----- --- ---- -- --- ------ ---- - ---- -- ----------<br>-- ------ ---- --- ---- --- --- --- asked -- -------- ---<br>------ ------- -------- --- ---- -- ------- ------------ --<br>------ -- ---- -- --- ---- -- -------- -- --- ------ ------,255187.40000009537,255186.90000009537,254829.141,254832.40000009537,254854.918,255210.122,,28,asked
screen,html.Screen,2_3_1_0_1_29,2022-05-09T11:56:57.320Z,,,,,,,,,,,,,,,,,12,,,,,,,,,,,,,,321.377999999997,,response,,,,5,D,,,,,,Space,keypress(Space),,,,speech,,,,---- ------ ------ ------- ------ --- ------- -----------<br>-- ----- --- ---- -- --- ------ ---- - ---- -- ----------<br>-- ------ ---- --- ---- --- --- --- ----- to -------- ---<br>------ ------- -------- --- ---- -- ------- ------------ --<br>------ -- ---- -- --- ---- -- -------- -- --- ------ ------,255532.19999980927,255531.5,255171.405,255187.59999990463,255210.122,255537.534,,29,to
screen,html.Screen,2_3_1_0_1_30,2022-05-09T11:56:57.690Z,,,,,,,,,,,,,,,,,12,,,,,,,,,,,,,,363.86600009535323,,response,,,,5,D,,,,,,Space,keypress(Space),,,,speech,,,,---- ------ ------ ------- ------ --- ------- -----------<br>-- ----- --- ---- -- --- ------ ---- - ---- -- ----------<br>-- ------ ---- --- ---- --- --- --- ----- -- withdraw ---<br>------ ------- -------- --- ---- -- ------- ------------ --<br>------ -- ---- -- --- ---- -- -------- -- --- ------ ------,255901.90000009537,255901.40000009537,255526.591,255532.40000009537,255537.534,255924.418,,30,withdraw
screen,html.Screen,2_3_1_0_1_31,2022-05-09T11:56:57.963Z,,,,,,,,,,,,,,,,,12,,,,,,,,,,,,,,250.4820000953623,,response,,,,5,D,,,,,,Space,keypress(Space),,,,speech,,,,---- ------ ------ ------- ------ --- ------- -----------<br>-- ----- --- ---- -- --- ------ ---- - ---- -- ----------<br>-- ------ ---- --- ---- --- --- --- ----- -- -------- his<br>------ ------- -------- --- ---- -- ------- ------------ --<br>------ -- ---- -- --- ---- -- -------- -- --- ------ ------,256175.7999997139,256174.90000009537,255887.282,255902,255924.418,256198.455,,31,his
screen,html.Screen,2_3_1_0_1_32,2022-05-09T11:56:58.321Z,,,,,,,,,,,,,,,,,12,,,,,,,,,,,,,,334.0450000000128,,response,,,,5,D,,,,,,Space,keypress(Space),,,,speech,,,,---- ------ ------ ------- ------ --- ------- -----------<br>-- ----- --- ---- -- --- ------ ---- - ---- -- ----------<br>-- ------ ---- --- ---- --- --- --- ----- -- -------- ---<br>entire ------- -------- --- ---- -- ------- ------------ --<br>------ -- ---- -- --- ---- -- -------- -- --- ------ ------,256533.09999990463,256532.5,256174.291,256175.90000009537,256198.455,256555.82,,32,entire
screen,html.Screen,2_3_1_0_1_33,2022-05-09T11:56:58.654Z,,,,,,,,,,,,,,,,,12,,,,,,,,,,,,,,309.58000009536045,,response,,,,5,D,,,,,,Space,keypress(Space),,,,speech,,,,---- ------ ------ ------- ------ --- ------- -----------<br>-- ----- --- ---- -- --- ------ ---- - ---- -- ----------<br>-- ------ ---- --- ---- --- --- --- ----- -- -------- ---<br>------ account -------- --- ---- -- ------- ------------ --<br>------ -- ---- -- --- ---- -- -------- -- --- ------ ------,256866.2999997139,256865.40000009537,256531.529,256533.19999980927,256555.82,256889.584,,33,account
screen,html.Screen,2_3_1_0_1_34,2022-05-09T11:56:58.946Z,,,,,,,,,,,,,,,,,12,,,,,,,,,,,,,,268.21599971389514,,response,,,,5,D,,,,,,Space,keypress(Space),,,,speech,,,,"---- ------ ------ ------- ------ --- ------- -----------<br>-- ----- --- ---- -- --- ------ ---- - ---- -- ----------<br>-- ------ ---- --- ---- --- --- --- ----- -- -------- ---<br>------ ------- balance, --- ---- -- ------- ------------ --<br>------ -- ---- -- --- ---- -- -------- -- --- ------ ------",257158.69999980927,257157.7999997139,256855.764,256866.5,256889.584,257181.718,,34,"balance,"
screen,html.Screen,2_3_1_0_1_35,2022-05-09T11:56:59.354Z,,,,,,,,,,,,,,,,,12,,,,,,,,,,,,,,383.18200009537395,,response,,,,5,D,,,,,,Space,keypress(Space),,,,speech,,,,---- ------ ------ ------- ------ --- ------- -----------<br>-- ----- --- ---- -- --- ------ ---- - ---- -- ----------<br>-- ------ ---- --- ---- --- --- --- ----- -- -------- ---<br>------ ------- -------- but ---- -- ------- ------------ --<br>------ -- ---- -- --- ---- -- -------- -- --- ------ ------,257565.90000009537,257564.90000009537,257156.061,257158.90000009537,257181.718,257589.187,,35,but
screen,html.Screen,2_3_1_0_1_36,2022-05-09T11:56:59.582Z,,,,,,,,,,,,,,,,,12,,,,,,,,,,,,,,203.9129999046272,,response,,,,5,D,,,,,,Space,keypress(Space),,,,speech,,,,---- ------ ------ ------- ------ --- ------- -----------<br>-- ----- --- ---- -- --- ------ ---- - ---- -- ----------<br>-- ------ ---- --- ---- --- --- --- ----- -- -------- ---<br>------ ------- -------- --- with -- ------- ------------ --<br>------ -- ---- -- --- ---- -- -------- -- --- ------ ------,257793.90000009537,257793.09999990463,257564.853,257566.19999980927,257589.187,257816.991,,36,with
screen,html.Screen,2_3_1_0_1_37,2022-05-09T11:56:59.762Z,,,,,,,,,,,,,,,,,12,,,,,,,,,,,,,,156.20899980925606,,response,,,,5,D,,,,,,Space,keypress(Space),,,,speech,,,,---- ------ ------ ------- ------ --- ------- -----------<br>-- ----- --- ---- -- --- ------ ---- - ---- -- ----------<br>-- ------ ---- --- ---- --- --- --- ----- -- -------- ---<br>------ ------- -------- --- ---- an ------- ------------ --<br>------ -- ---- -- --- ---- -- -------- -- --- ------ ------,257974.2999997139,257973.19999980927,257789.126,257794.19999980927,257816.991,257997.539,,37,an
screen,html.Screen,2_3_1_0_1_38,2022-05-09T11:57:00.181Z,,,,,,,,,,,,,,,,,12,,,,,,,,,,,,,,394.96100000001024,,response,,,,5,D,,,,,,Space,keypress(Space),,,,speech,,,,---- ------ ------ ------- ------ --- ------- -----------<br>-- ----- --- ---- -- --- ------ ---- - ---- -- ----------<br>-- ------ ---- --- ---- --- --- --- ----- -- -------- ---<br>------ ------- -------- --- ---- -- unusual ------------ --<br>------ -- ---- -- --- ---- -- -------- -- --- ------ ------,258393.09999990463,258392.5,257966.894,257974.59999990463,257997.539,258416.027,,38,unusual
screen,html.Screen,2_3_1_0_1_39,2022-05-09T11:57:00.619Z,,,,,,,,,,,,,,,,,12,,,,,,,,,,,,,,414.47299999999814,,response,,,,5,D,,,,,,Space,keypress(Space),,,,speech,,,,---- ------ ------ ------- ------ --- ------- -----------<br>-- ----- --- ---- -- --- ------ ---- - ---- -- ----------<br>-- ------ ---- --- ---- --- --- --- ----- -- -------- ---<br>------ ------- -------- --- ---- -- ------- stipulation: --<br>------ -- ---- -- --- ---- -- -------- -- --- ------ ------,258831,258830.5,258380.443,258393.40000009537,258416.027,258843.113,,39,stipulation:
screen,html.Screen,2_3_1_0_1_40,2022-05-09T11:57:01.070Z,,,,,,,,,,,,,,,,,12,,,,,,,,,,,,,,438.7870000953553,,response,,,,5,D,,,,,,Space,keypress(Space),,,,speech,,,,---- ------ ------ ------- ------ --- ------- -----------<br>-- ----- --- ---- -- --- ------ ---- - ---- -- ----------<br>-- ------ ---- --- ---- --- --- --- ----- -- -------- ---<br>------ ------- -------- --- ---- -- ------- ------------ He<br>------ -- ---- -- --- ---- -- -------- -- --- ------ ------,259282.2999997139,259281.90000009537,258815.782,258831,258843.113,259304.91,,40,He
screen,html.Screen,2_3_1_0_1_41,2022-05-09T11:57:01.407Z,,,,,,,,,,,,,,,,,12,,,,,,,,,,,,,,313.8899997138942,,response,,,,5,D,,,,,,Space,keypress(Space),,,,speech,,,,---- ------ ------ ------- ------ --- ------- -----------<br>-- ----- --- ---- -- --- ------ ---- - ---- -- ----------<br>-- ------ ---- --- ---- --- --- --- ----- -- -------- ---<br>------ ------- -------- --- ---- -- ------- ------------ --<br>wanted -- ---- -- --- ---- -- -------- -- --- ------ ------,259619.59999990463,259618.7999997139,259276.188,259282.5,259304.91,259642.593,,41,wanted
screen,html.Screen,2_3_1_0_1_42,2022-05-09T11:57:01.635Z,,,,,,,,,,,,,,,,,12,,,,,,,,,,,,,,204.10699980927166,,response,,,,5,D,,,,,,Space,keypress(Space),,,,speech,,,,---- ------ ------ ------- ------ --- ------- -----------<br>-- ----- --- ---- -- --- ------ ---- - ---- -- ----------<br>-- ------ ---- --- ---- --- --- --- ----- -- -------- ---<br>------ ------- -------- --- ---- -- ------- ------------ --<br>------ as ---- -- --- ---- -- -------- -- --- ------ ------,259847.09999990463,259846.69999980927,259604.74,259619.7999997139,259642.593,259869.568,,42,as
