sender,sender_type,sender_id,timestamp,meta,,Blues,Classical,Country,Dance,Electronic,Folk,Gospel,Hip-Hop,Jazz,Latin,Musical/Film,New-age,Pop,Prolific_id,Provo_ID,R&B,Rap,Reggae,Religious,Rock,Soul,Swing,Traditional,age,artist_name,correct,correctResponse,distraction,duration,education,ended_on,familiarity,gender,headphone_check_performance,item,list,music_frequency,offensiveness,pleasantness,position_correct,preference,response,response_action,snippet_file,song_name,song_rating,sound,stimulus_1,stimulus_2,stimulus_3,text,time_commit,time_end,time_render,time_run,time_show,time_switch,url,word,word_ID
Prolific ID,html.Form,0,2022-04-27T20:32:01.727Z,"{""labjs_version"":""20.2.2"",""labjs_build"":{""flavor"":""production"",""commit"":""a25486e0c714a0ae2ce03ff94b7bb6896854dcfa""},""location"":""https://run.pavlovia.org/mvasilev/prolific3_music_c/"",""userAgent"":""Mozilla/5.0 (Windows NT 10.0; Win64; x64) AppleWebKit/537.36 (KHTML, like Gecko) Chrome/100.0.4896.127 Safari/537.36"",""platform"":""Win32"",""language"":""en-GB"",""locale"":""en-GB"",""timeZone"":""Europe/London"",""timezoneOffset"":-60,""screen_width"":1920,""screen_height"":1080,""scroll_width"":1920,""scroll_height"":921,""window_innerWidth"":1920,""window_innerHeight"":969,""devicePixelRatio"":1}",,,,,,,,,,,,,,,5ea40ba76e05883a3353452d,,,,,,,,,,,,,,,3532.688000047683,,form submission,,,,,,,,,,,,,,,,,,,,,12945,12944.700000047684,9398.166,9398.399999976158,9412.012,12946.683,{},,
Introduction,html.Screen,1_0,2022-04-27T20:32:06.582Z,,,,,,,,,,,,,,,,,,,,,,,,,,,,,,,4852.216999976157,,response,,,,,,,,,,,continue,click button,,,,,,,,,17800.200000047684,17798.899999976158,12939.713,12945.100000023842,12946.683,17800.829,,,
Volume calibration,html.Screen,1_1,2022-04-27T20:32:10.120Z,,,,,,,,,,,,,,,,,,,,,,,,,,,,,,,3535.0709999761566,,response,,,,,,,,,,,continue,click button,,,,,,,,,21337.700000047684,21335.899999976158,17793.833,17800.299999952316,17800.829,21342.427,,,
Task instructions,html.Screen,1_2,2022-04-27T20:32:15.308Z,,,,,,,,,,,,,,,,,,,,,,,,,,,,,,,5183.4729999761585,,response,,,,,,,,,,,continue,click button,,,,,,,,,26526.200000047684,26525.899999976158,21335.463,21337.799999952316,21342.427,26529.859,,,
Sounds,html.Screen,1_3_0_0,2022-04-27T20:32:19.556Z,,,,,,,,,,,,,,,,,,,,,,,,,,,,,,,4250.2119999999995,,timeout,,,,,,,,,2,,,,,,,,I,S,O,,30774,30772.861,26522.963,26526.399999976158,26529.859,30780.071,,,
Judgement,html.Screen,1_3_0_1,2022-04-27T20:32:21.425Z,,,,,,,,,,,,,,,,,,,,,,,,,,,,true,2,,1862.8289999761582,,response,,,,,,,,,2,,2,click #choice-2,,,,,I,S,O,,32643.399999976158,32642.899999976158,30772.861,30774.100000023842,30780.071,32647.876,,,
Trial,flow.Sequence,1_3_0,2022-04-27T20:32:21.425Z,,,,,,,,,,,,,,,,,,,,,,,,,,,,,,,6113.040999976158,,completion,,,,,,,,,2,,,,,,,,I,S,O,,32643.600000023842,32642.899999976158,26522.963,26526.399999976158,26529.859,32647.876,,,
Sounds,html.Screen,1_3_1_0,2022-04-27T20:32:25.673Z,,,,,,,,,,,,,,,,,,,,,,,,,,,,,,,4250.115999999998,,timeout,,,,,,,,,3,,,,,,,,I,O,S,,36891.299999952316,36890.87,32640.908,32643.700000047684,32647.876,36897.992,,,
Judgement,html.Screen,1_3_1_1,2022-04-27T20:32:26.568Z,,,,,,,,,,,,,,,,,,,,,,,,,,,,true,3,,887.8079999523179,,response,,,,,,,,,3,,3,click #choice-3,,,,,I,O,S,,37786.39999997616,37785.799999952316,36890.87,36891.39999997616,36897.992,37806.604,,,
Trial,flow.Sequence,1_3_1,2022-04-27T20:32:26.568Z,,,,,,,,,,,,,,,,,,,,,,,,,,,,,,,5137.923999952316,,completion,,,,,,,,,3,,,,,,,,I,O,S,,37786.5,37785.799999952316,32640.908,32643.600000023842,32647.876,37806.604,,,
Sounds,html.Screen,1_3_2_0,2022-04-27T20:32:30.832Z,,,,,,,,,,,,,,,,,,,,,,,,,,,,,,,4250.870000000003,,timeout,,,,,,,,,1,,,,,,,,S,O,I,,42050.89999997616,42050.541,37779.734,37786.60000002384,37806.604,42057.474,,,
Judgement,html.Screen,1_3_2_1,2022-04-27T20:32:31.562Z,,,,,,,,,,,,,,,,,,,,,,,,,,,,true,1,,722.3259999523143,,response,,,,,,,,,1,,1,click #choice-1,,,,,S,O,I,,42780.39999997616,42779.799999952316,42050.541,42051,42057.474,42786.658,,,
Trial,flow.Sequence,1_3_2,2022-04-27T20:32:31.562Z,,,,,,,,,,,,,,,,,,,,,,,,,,,,,,,4973.195999952317,,completion,,,,,,,,,1,,,,,,,,S,O,I,,42780.5,42779.799999952316,37779.734,37786.60000002384,37806.604,42786.658,,,
Sounds,html.Screen,1_3_3_0,2022-04-27T20:32:35.811Z,,,,,,,,,,,,,,,,,,,,,,,,,,,,,,,4249.936999999998,,timeout,,,,,,,,,3,,,,,,,,O,I,S,,47030,47029.649,42779.727,42780.5,42786.658,47036.595,,,
Judgement,html.Screen,1_3_3_1,2022-04-27T20:32:36.587Z,,,,,,,,,,,,,,,,,,,,,,,,,,,,true,3,,768.304999976157,,response,,,,,,,,,3,,3,click #choice-3,,,,,O,I,S,,47805.39999997616,47804.89999997616,47029.649,47030,47036.595,47807.425,,,
Trial,flow.Sequence,1_3_3,2022-04-27T20:32:36.587Z,,,,,,,,,,,,,,,,,,,,,,,,,,,,,,,5018.241999976155,,completion,,,,,,,,,3,,,,,,,,O,I,S,,47805.5,47804.89999997616,42779.727,42780.5,42786.658,47807.425,,,
Sounds,html.Screen,1_3_4_0,2022-04-27T20:32:40.832Z,,,,,,,,,,,,,,,,,,,,,,,,,,,,,,,4249.958999999995,,timeout,,,,,,,,,1,,,,,,,,S,I,O,,52050.700000047684,52050.431,47800.464,47805.5,47807.425,52057.384,,,
Judgement,html.Screen,1_3_4_1,2022-04-27T20:32:42.039Z,,,,,,,,,,,,,,,,,,,,,,,,,,,,true,1,,1199.415999952318,,response,,,,,,,,,1,,1,click #choice-1,,,,,S,I,O,,53257.200000047684,53256.799999952316,52050.431,52050.799999952316,52057.384,53258.751,,,
Trial,flow.Sequence,1_3_4,2022-04-27T20:32:42.039Z,,,,,,,,,,,,,,,,,,,,,,,,,,,,,,,5449.374999952313,,completion,,,,,,,,,1,,,,,,,,S,I,O,,53257.299999952316,53256.799999952316,47800.464,47805.5,47807.425,53258.751,,,
Sounds,html.Screen,1_3_5_0,2022-04-27T20:32:46.284Z,,,,,,,,,,,,,,,,,,,,,,,,,,,,,,,4249.961000000003,,timeout,,,,,,,,,2,,,,,,,,O,S,I,,57502.299999952316,57501.802,53251.795,53257.299999952316,53258.751,57508.712,,,
Judgement,html.Screen,1_3_5_1,2022-04-27T20:32:46.953Z,,,,,,,,,,,,,,,,,,,,,,,,,,,,false,2,,662.0879999523167,,response,,,,,,,,,2,,1,click #choice-1,,,,,O,S,I,,58171.299999952316,58170.799999952316,57501.802,57502.299999952316,57508.712,58175.403,,,
Trial,flow.Sequence,1_3_5,2022-04-27T20:32:46.953Z,,,,,,,,,,,,,,,,,,,,,,,,,,,,,,,4912.04899995232,,completion,,,,,,,,,2,,,,,,,,O,S,I,,58171.60000002384,58170.799999952316,53251.795,53257.299999952316,53258.751,58175.403,,,
Task,flow.Loop,1_3,2022-04-27T20:32:46.955Z,,,,,,,,,,,,,,,,,,,,,,,,,,,,,,,31640.940999952316,,completion,,,0.8333333333333334,,,,,,,,,,,,,,,,,,58173.799999952316,58170.799999952316,26522.963,26526.399999976158,26529.859,58175.403,,,
Trap,html.Screen,1_4,2022-04-27T20:32:46.956Z,,,,,,,,,,,,,,,,,,,,,,,,,,,,,,,NaN,,skipped,,,,,,,,,,,,,,,,,,,,,58174.299999952316,58170.799999952316,,58174.299999952316,,58175.403,,,
Thanks,html.Screen,1_5,2022-04-27T20:32:50.531Z,,,,,,,,,,,,,,,,,,,,,,,,,,,,,,,3573.5970000000016,,response,,,,,,,,,,,continue,click button,,,,,,,,,61749.5,61749,58168.415,58174.299999952316,58175.403,64939.214,,,
Headphone screening,flow.Sequence,1,2022-04-27T20:32:50.531Z,,,,,,,,,,,,,,,,,,,,,,,,,,,,,,,48802.316999999995,,completion,,,,,,,,,,,,,,,,,,,,,61749.5,61749,12939.713,12945.100000023842,12946.683,64939.214,,,
Instructions,html.Page,2_0,2022-04-27T20:32:57.893Z,,,,,,,,,,,,,,,,,,,,,,,,,,,,,,,4172.085999952316,,form submission,,,,,,,,,,,,,,,,,,,,,69111.5,69111.29999995232,64932.268,64938,64939.214,69112.778,,,
Holding screen,html.Screen,2_1_0_0,2022-04-27T20:33:07.887Z,,,,,,,,,,,,,,,,,,,,,,,,,,,,,,,9999.856999999989,,timeout,,,,,,,,,,,,,,,,,,,,,79106,79105.794,69105.785,69111.5,69112.778,79112.635,,,
screen,html.Screen,2_1_0_1_0,2022-04-27T20:33:09.366Z,,,,,,,,,,,,,,,,,53,,,,,,,,,,,,,,1470.6649999523215,,response,,,,99,,,,,,,Space,keypress(Space),,,,,,,,When -- ----- -- ------ - ------- --- ----------<br>------------- ------ ------ ---- ---- ------- ----- -- ----<br>-------- ------- -- ---------- --- - --- ----- ----- ----<br>---- --- --- ----- --- ---- ---- ------- ----- ---- -------<br>--- --- -- ----- -- --- ---- -- --- ---- -- ------ ------<br>--- ----- -- ----,80584.39999997616,80583.29999995232,79105.794,79106.10000002384,79112.635,80591.796,,0,When
screen,html.Screen,2_1_0_1_1,2022-04-27T20:33:10.954Z,,,,,,,,,,,,,,,,,53,,,,,,,,,,,,,,1580.703999999998,,response,,,,99,,,,,,,Space,keypress(Space),,,,,,,,---- it ----- -- ------ - ------- --- ----------<br>------------- ------ ------ ---- ---- ------- ----- -- ----<br>-------- ------- -- ---------- --- - --- ----- ----- ----<br>---- --- --- ----- --- ---- ---- ------- ----- ---- -------<br>--- --- -- ----- -- --- ---- -- --- ---- -- ------ ------<br>--- ----- -- ----,82172.89999997616,82172.5,80584.881,80584.5,80591.796,82175.158,,1,it
screen,html.Screen,2_1_0_1_2,2022-04-27T20:33:11.501Z,,,,,,,,,,,,,,,,,53,,,,,,,,,,,,,,544.442000023846,,response,,,,99,,,,,,,Space,keypress(Space),,,,,,,,---- -- comes -- ------ - ------- --- ----------<br>------------- ------ ------ ---- ---- ------- ----- -- ----<br>-------- ------- -- ---------- --- - --- ----- ----- ----<br>---- --- --- ----- --- ---- ---- ------- ----- ---- -------<br>--- --- -- ----- -- --- ---- -- --- ---- -- ------ ------<br>--- ----- -- ----,82719.89999997616,82719.60000002384,82168.128,82172.89999997616,82175.158,82723.751,,2,comes
screen,html.Screen,2_1_0_1_3,2022-04-27T20:33:11.958Z,,,,,,,,,,,,,,,,,53,,,,,,,,,,,,,,452.9490000476799,,response,,,,99,,,,,,,Space,keypress(Space),,,,,,,,---- -- ----- to ------ - ------- --- ----------<br>------------- ------ ------ ---- ---- ------- ----- -- ----<br>-------- ------- -- ---------- --- - --- ----- ----- ----<br>---- --- --- ----- --- ---- ---- ------- ----- ---- -------<br>--- --- -- ----- -- --- ---- -- --- ---- -- ------ ------<br>--- ----- -- ----,83176.89999997616,83176.70000004768,82716.729,82720,82723.751,83182.033,,3,to
screen,html.Screen,2_1_0_1_4,2022-04-27T20:33:12.610Z,,,,,,,,,,,,,,,,,53,,,,,,,,,,,,,,646.6670000476879,,response,,,,99,,,,,,,Space,keypress(Space),,,,,,,,---- -- ----- -- having - ------- --- ----------<br>------------- ------ ------ ---- ---- ------- ----- -- ----<br>-------- ------- -- ---------- --- - --- ----- ----- ----<br>---- --- --- ----- --- ---- ---- ------- ----- ---- -------<br>--- --- -- ----- -- --- ---- -- --- ---- -- ------ ------<br>--- ----- -- ----,83829,83828.70000004768,83175.107,83177,83182.033,83834.817,,4,having
screen,html.Screen,2_1_0_1_5,2022-04-27T20:33:13.147Z,,,,,,,,,,,,,,,,,53,,,,,,,,,,,,,,529.8830000476883,,response,,,,99,,,,,,,Space,keypress(Space),,,,,,,,---- -- ----- -- ------ a ------- --- ----------<br>------------- ------ ------ ---- ---- ------- ----- -- ----<br>-------- ------- -- ---------- --- - --- ----- ----- ----<br>---- --- --- ----- --- ---- ---- ------- ----- ---- -------<br>--- --- -- ----- -- --- ---- -- --- ---- -- ------ ------<br>--- ----- -- ----,84365,84364.70000004768,83827.866,83829.10000002384,83834.817,84369.567,,5,a
screen,html.Screen,2_1_0_1_6,2022-04-27T20:33:13.698Z,,,,,,,,,,,,,,,,,53,,,,,,,,,,,,,,546.2329999523208,,response,,,,99,,,,,,,Space,keypress(Space),,,,,,,,---- -- ----- -- ------ - lasting --- ----------<br>------------- ------ ------ ---- ---- ------- ----- -- ----<br>-------- ------- -- ---------- --- - --- ----- ----- ----<br>---- --- --- ----- --- ---- ---- ------- ----- ---- -------<br>--- --- -- ----- -- --- ---- -- --- ---- -- ------ ------<br>--- ----- -- ----,84916.10000002384,84915.79999995232,84362.558,84365.20000004768,84369.567,84918.133,,6,lasting
screen,html.Screen,2_1_0_1_7,2022-04-27T20:33:14.194Z,,,,,,,,,,,,,,,,,53,,,,,,,,,,,,,,493.7669999761565,,response,,,,99,,,,,,,Space,keypress(Space),,,,,,,,---- -- ----- -- ------ - ------- and ----------<br>------------- ------ ------ ---- ---- ------- ----- -- ----<br>-------- ------- -- ---------- --- - --- ----- ----- ----<br>---- --- --- ----- --- ---- ---- ------- ----- ---- -------<br>--- --- -- ----- -- --- ---- -- --- ---- -- ------ ------<br>--- ----- -- ----,85412.29999995232,85411.89999997616,84911.158,84916.20000004768,84918.133,85418.126,,7,and
screen,html.Screen,2_1_0_1_8,2022-04-27T20:33:15.609Z,,,,,,,,,,,,,,,,,53,,,,,,,,,,,,,,1408.974000023838,,response,,,,99,,,,,,,Space,keypress(Space),,,,,,,,---- -- ----- -- ------ - ------- --- fulfilling<br>------------- ------ ------ ---- ---- ------- ----- -- ----<br>-------- ------- -- ---------- --- - --- ----- ----- ----<br>---- --- --- ----- --- ---- ---- ------- ----- ---- -------<br>--- --- -- ----- -- --- ---- -- --- ---- -- ------ ------<br>--- ----- -- ----,86827.5,86827.10000002384,85411.151,85412.29999995232,85418.126,86843.597,,8,fulfilling
screen,html.Screen,2_1_0_1_9,2022-04-27T20:33:16.244Z,,,,,,,,,,,,,,,,,53,,,,,,,,,,,,,,618.5030000238476,,response,,,,99,,,,,,,Space,keypress(Space),,,,,,,,"---- -- ----- -- ------ - ------- --- ----------<br>relationship, ------ ------ ---- ---- ------- ----- -- ----<br>-------- ------- -- ---------- --- - --- ----- ----- ----<br>---- --- --- ----- --- ---- ---- ------- ----- ---- -------<br>--- --- -- ----- -- --- ---- -- --- ---- -- ------ ------<br>--- ----- -- ----",87462.39999997616,87462.10000002384,86820.816,86827.60000002384,86843.597,87466.745,,9,"relationship,"
screen,html.Screen,2_1_0_1_10,2022-04-27T20:33:16.739Z,,,,,,,,,,,,,,,,,53,,,,,,,,,,,,,,490.4550000476884,,response,,,,99,,,,,,,Space,keypress(Space),,,,,,,,---- -- ----- -- ------ - ------- --- ----------<br>------------- common ------ ---- ---- ------- ----- -- ----<br>-------- ------- -- ---------- --- - --- ----- ----- ----<br>---- --- --- ----- --- ---- ---- ------- ----- ---- -------<br>--- --- -- ----- -- --- ---- -- --- ---- -- ------ ------<br>--- ----- -- ----,87957.5,87957.20000004768,87459.728,87462.5,87466.745,87959.767,,10,common
screen,html.Screen,2_1_0_1_11,2022-04-27T20:33:17.236Z,,,,,,,,,,,,,,,,,53,,,,,,,,,,,,,,494.4330000476766,,response,,,,99,,,,,,,Space,keypress(Space),,,,,,,,---- -- ----- -- ------ - ------- --- ----------<br>------------- ------ wisdom ---- ---- ------- ----- -- ----<br>-------- ------- -- ---------- --- - --- ----- ----- ----<br>---- --- --- ----- --- ---- ---- ------- ----- ---- -------<br>--- --- -- ----- -- --- ---- -- --- ---- -- ------ ------<br>--- ----- -- ----,88454.60000002384,88454.20000004768,87952.835,87957.60000002384,87959.767,88459.75,,11,wisdom
screen,html.Screen,2_1_0_1_12,2022-04-27T20:33:17.685Z,,,,,,,,,,,,,,,,,53,,,,,,,,,,,,,,443.5499999523163,,response,,,,99,,,,,,,Space,keypress(Space),,,,,,,,---- -- ----- -- ------ - ------- --- ----------<br>------------- ------ ------ says ---- ------- ----- -- ----<br>-------- ------- -- ---------- --- - --- ----- ----- ----<br>---- --- --- ----- --- ---- ---- ------- ----- ---- -------<br>--- --- -- ----- -- --- ---- -- --- ---- -- ------ ------<br>--- ----- -- ----,88903.60000002384,88903.29999995232,88452.773,88454.60000002384,88459.75,88919.063,,12,says
screen,html.Screen,2_1_0_1_13,2022-04-27T20:33:18.132Z,,,,,,,,,,,,,,,,,53,,,,,,,,,,,,,,431.43700000000536,,response,,,,99,,,,,,,Space,keypress(Space),,,,,,,,---- -- ----- -- ------ - ------- --- ----------<br>------------- ------ ------ ---- that ------- ----- -- ----<br>-------- ------- -- ---------- --- - --- ----- ----- ----<br>---- --- --- ----- --- ---- ---- ------- ----- ---- -------<br>--- --- -- ----- -- --- ---- -- --- ---- -- ------ ------<br>--- ----- -- ----,89350.79999995232,89350.5,88897.215,88903.70000004768,88919.063,89355.595,,13,that
screen,html.Screen,2_1_0_1_14,2022-04-27T20:33:18.637Z,,,,,,,,,,,,,,,,,53,,,,,,,,,,,,,,500.10500004768255,,response,,,,99,,,,,,,Space,keypress(Space),,,,,,,,---- -- ----- -- ------ - ------- --- ----------<br>------------- ------ ------ ---- ---- feeling ----- -- ----<br>-------- ------- -- ---------- --- - --- ----- ----- ----<br>---- --- --- ----- --- ---- ---- ------- ----- ---- -------<br>--- --- -- ----- -- --- ---- -- --- ---- -- ------ ------<br>--- ----- -- ----,89855.89999997616,89855.70000004768,89348.616,89350.89999997616,89355.595,89862.528,,14,feeling
screen,html.Screen,2_1_0_1_15,2022-04-27T20:33:19.139Z,,,,,,,,,,,,,,,,,53,,,,,,,,,,,,,,494.87199997615244,,response,,,,99,,,,,,,Space,keypress(Space),,,,,,,,---- -- ----- -- ------ - ------- --- ----------<br>------------- ------ ------ ---- ---- ------- close -- ----<br>-------- ------- -- ---------- --- - --- ----- ----- ----<br>---- --- --- ----- --- ---- ---- ------- ----- ---- -------<br>--- --- -- ----- -- --- ---- -- --- ---- -- ------ ------<br>--- ----- -- ----,90357.79999995232,90357.39999997616,89855.569,89856,89862.528,90362.516,,15,close
screen,html.Screen,2_1_0_1_16,2022-04-27T20:33:19.552Z,,,,,,,,,,,,,,,,,53,,,,,,,,,,,,,,407.98399999999674,,response,,,,99,,,,,,,Space,keypress(Space),,,,,,,,---- -- ----- -- ------ - ------- --- ----------<br>------------- ------ ------ ---- ---- ------- ----- to ----<br>-------- ------- -- ---------- --- - --- ----- ----- ----<br>---- --- --- ----- --- ---- ---- ------- ----- ---- -------<br>--- --- -- ----- -- --- ---- -- --- ---- -- ------ ------<br>--- ----- -- ----,90770.79999995232,90770.5,90355.582,90357.79999995232,90362.516,90772.256,,16,to
screen,html.Screen,2_1_0_1_17,2022-04-27T20:33:20.025Z,,,,,,,,,,,,,,,,,53,,,,,,,,,,,,,,471.24400000000605,,response,,,,99,,,,,,,Space,keypress(Space),,,,,,,,---- -- ----- -- ------ - ------- --- ----------<br>------------- ------ ------ ---- ---- ------- ----- -- your<br>-------- ------- -- ---------- --- - --- ----- ----- ----<br>---- --- --- ----- --- ---- ---- ------- ----- ---- -------<br>--- --- -- ----- -- --- ---- -- --- ---- -- ------ ------<br>--- ----- -- ----,91243.89999997616,91243.5,90765.336,90770.89999997616,90772.256,91265.059,,17,your
screen,html.Screen,2_1_0_1_18,2022-04-27T20:33:20.584Z,,,,,,,,,,,,,,,,,53,,,,,,,,,,,,,,537.541000023848,,response,,,,99,,,,,,,Space,keypress(Space),,,,,,,,---- -- ----- -- ------ - ------- --- ----------<br>------------- ------ ------ ---- ---- ------- ----- -- ----<br>romantic ------- -- ---------- --- - --- ----- ----- ----<br>---- --- --- ----- --- ---- ---- ------- ----- ---- -------<br>--- --- -- ----- -- --- ---- -- --- ---- -- ------ ------<br>--- ----- -- ----,91802.89999997616,91802.60000002384,91237.48,91243.89999997616,91265.059,91806.993,,18,romantic
screen,html.Screen,2_1_0_1_19,2022-04-27T20:33:21.004Z,,,,,,,,,,,,,,,,,53,,,,,,,,,,,,,,414.90699997615593,,response,,,,99,,,,,,,Space,keypress(Space),,,,,,,,---- -- ----- -- ------ - ------- --- ----------<br>------------- ------ ------ ---- ---- ------- ----- -- ----<br>-------- partner -- ---------- --- - --- ----- ----- ----<br>---- --- --- ----- --- ---- ---- ------- ----- ---- -------<br>--- --- -- ----- -- --- ---- -- --- ---- -- ------ ------<br>--- ----- -- ----,92222.20000004768,92221.89999997616,91799.971,91802.89999997616,91806.993,92223.646,,19,partner
screen,html.Screen,2_1_0_1_20,2022-04-27T20:33:21.414Z,,,,,,,,,,,,,,,,,53,,,,,,,,,,,,,,408.1539999523229,,response,,,,99,,,,,,,Space,keypress(Space),,,,,,,,---- -- ----- -- ------ - ------- --- ----------<br>------------- ------ ------ ---- ---- ------- ----- -- ----<br>-------- ------- is ---------- --- - --- ----- ----- ----<br>---- --- --- ----- --- ---- ---- ------- ----- ---- -------<br>--- --- -- ----- -- --- ---- -- --- ---- -- ------ ------<br>--- ----- -- ----,92632.10000002384,92631.79999995232,92216.71,92222.20000004768,92223.646,92633.339,,20,is
screen,html.Screen,2_1_0_1_21,2022-04-27T20:33:21.816Z,,,,,,,,,,,,,,,,,53,,,,,,,,,,,,,,400.3610000476765,,response,,,,99,,,,,,,Space,keypress(Space),,,,,,,,---- -- ----- -- ------ - ------- --- ----------<br>------------- ------ ------ ---- ---- ------- ----- -- ----<br>-------- ------- -- paramount. --- - --- ----- ----- ----<br>---- --- --- ----- --- ---- ---- ------- ----- ---- -------<br>--- --- -- ----- -- --- ---- -- --- ---- -- ------ ------<br>--- ----- -- ----,93034,93033.70000004768,92626.363,92632.10000002384,92633.339,93036.103,,21,paramount.
screen,html.Screen,2_1_0_1_22,2022-04-27T20:33:22.178Z,,,,,,,,,,,,,,,,,53,,,,,,,,,,,,,,359.6969999523135,,response,,,,99,,,,,,,Space,keypress(Space),,,,,,,,---- -- ----- -- ------ - ------- --- ----------<br>------------- ------ ------ ---- ---- ------- ----- -- ----<br>-------- ------- -- ---------- But - --- ----- ----- ----<br>---- --- --- ----- --- ---- ---- ------- ----- ---- -------<br>--- --- -- ----- -- --- ---- -- --- ---- -- ------ ------<br>--- ----- -- ----,93396.10000002384,93395.79999995232,93029.132,93034.10000002384,93036.103,93414.552,,22,But
screen,html.Screen,2_1_0_1_23,2022-04-27T20:33:22.520Z,,,,,,,,,,,,,,,,,53,,,,,,,,,,,,,,323.3479999761621,,response,,,,99,,,,,,,Space,keypress(Space),,,,,,,,---- -- ----- -- ------ - ------- --- ----------<br>------------- ------ ------ ---- ---- ------- ----- -- ----<br>-------- ------- -- ---------- --- a --- ----- ----- ----<br>---- --- --- ----- --- ---- ---- ------- ----- ---- -------<br>--- --- -- ----- -- --- ---- -- --- ---- -- ------ ------<br>--- ----- -- ----,93738.29999995232,93737.89999997616,93390.249,93396.20000004768,93414.552,93744.548,,23,a
screen,html.Screen,2_1_0_1_24,2022-04-27T20:33:22.879Z,,,,,,,,,,,,,,,,,53,,,,,,,,,,,,,,352.3519999761629,,response,,,,99,,,,,,,Space,keypress(Space),,,,,,,,---- -- ----- -- ------ - ------- --- ----------<br>------------- ------ ------ ---- ---- ------- ----- -- ----<br>-------- ------- -- ---------- --- - new ----- ----- ----<br>---- --- --- ----- --- ---- ---- ------- ----- ---- -------<br>--- --- -- ----- -- --- ---- -- --- ---- -- ------ ------<br>--- ----- -- ----,94097.20000004768,94096.89999997616,93737.47,93738.29999995232,93744.548,94098.602,,24,new
screen,html.Screen,2_1_0_1_25,2022-04-27T20:33:23.258Z,,,,,,,,,,,,,,,,,53,,,,,,,,,,,,,,377.2979999761592,,response,,,,99,,,,,,,Space,keypress(Space),,,,,,,,---- -- ----- -- ------ - ------- --- ----------<br>------------- ------ ------ ---- ---- ------- ----- -- ----<br>-------- ------- -- ---------- --- - --- study ----- ----<br>---- --- --- ----- --- ---- ---- ------- ----- ---- -------<br>--- --- -- ----- -- --- ---- -- --- ---- -- ------ ------<br>--- ----- -- ----,94476.20000004768,94475.89999997616,94091.651,94097.29999995232,94098.602,94480.521,,25,study
screen,html.Screen,2_1_0_1_26,2022-04-27T20:33:23.562Z,,,,,,,,,,,,,,,,,53,,,,,,,,,,,,,,299.3789999761648,,response,,,,99,,,,,,,Space,keypress(Space),,,,,,,,---- -- ----- -- ------ - ------- --- ----------<br>------------- ------ ------ ---- ---- ------- ----- -- ----<br>-------- ------- -- ---------- --- - --- ----- finds ----<br>---- --- --- ----- --- ---- ---- ------- ----- ---- -------<br>--- --- -- ----- -- --- ---- -- --- ---- -- ------ ------<br>--- ----- -- ----,94780.20000004768,94779.89999997616,94473.601,94476.29999995232,94480.521,94786.119,,26,finds
screen,html.Screen,2_1_0_1_27,2022-04-27T20:33:23.917Z,,,,,,,,,,,,,,,,,53,,,,,,,,,,,,,,348.7809999761521,,response,,,,99,,,,,,,Space,keypress(Space),,,,,,,,---- -- ----- -- ------ - ------- --- ----------<br>------------- ------ ------ ---- ---- ------- ----- -- ----<br>-------- ------- -- ---------- --- - --- ----- ----- that<br>---- --- --- ----- --- ---- ---- ------- ----- ---- -------<br>--- --- -- ----- -- --- ---- -- --- ---- -- ------ ------<br>--- ----- -- ----,95135.20000004768,95134.89999997616,94779.108,94780.29999995232,94786.119,95140.236,,27,that
screen,html.Screen,2_1_0_1_28,2022-04-27T20:33:24.351Z,,,,,,,,,,,,,,,,,53,,,,,,,,,,,,,,427.86400002383743,,response,,,,99,,,,,,,Space,keypress(Space),,,,,,,,---- -- ----- -- ------ - ------- --- ----------<br>------------- ------ ------ ---- ---- ------- ----- -- ----<br>-------- ------- -- ---------- --- - --- ----- ----- ----<br>it's --- --- ----- --- ---- ---- ------- ----- ---- -------<br>--- --- -- ----- -- --- ---- -- --- ---- -- ------ ------<br>--- ----- -- ----,95568.29999995232,95568.10000002384,95133.324,95135.29999995232,95140.236,95570.835,,28,it's
screen,html.Screen,2_1_0_1_29,2022-04-27T20:33:24.709Z,,,,,,,,,,,,,,,,,53,,,,,,,,,,,,,,355.26500002383546,,response,,,,99,,,,,,,Space,keypress(Space),,,,,,,,---- -- ----- -- ------ - ------- --- ----------<br>------------- ------ ------ ---- ---- ------- ----- -- ----<br>-------- ------- -- ---------- --- - --- ----- ----- ----<br>---- not --- ----- --- ---- ---- ------- ----- ---- -------<br>--- --- -- ----- -- --- ---- -- --- ---- -- ------ ------<br>--- ----- -- ----,95926.39999997616,95926.10000002384,95563.822,95568.39999997616,95570.835,95931.908,,29,not
screen,html.Screen,2_1_0_1_30,2022-04-27T20:33:25.037Z,,,,,,,,,,,,,,,,,53,,,,,,,,,,,,,,322.2920000476879,,response,,,,99,,,,,,,Space,keypress(Space),,,,,,,,---- -- ----- -- ------ - ------- --- ----------<br>------------- ------ ------ ---- ---- ------- ----- -- ----<br>-------- ------- -- ---------- --- - --- ----- ----- ----<br>---- --- how ----- --- ---- ---- ------- ----- ---- -------<br>--- --- -- ----- -- --- ---- -- --- ---- -- ------ ------<br>--- ----- -- ----,96254.39999997616,96254.20000004768,95924.996,95926.5,95931.908,96258.288,,30,how
screen,html.Screen,2_1_0_1_31,2022-04-27T20:33:25.355Z,,,,,,,,,,,,,,,,,53,,,,,,,,,,,,,,314.1119999761577,,response,,,,99,,,,,,,Space,keypress(Space),,,,,,,,---- -- ----- -- ------ - ------- --- ----------<br>------------- ------ ------ ---- ---- ------- ----- -- ----<br>-------- ------- -- ---------- --- - --- ----- ----- ----<br>---- --- --- close --- ---- ---- ------- ----- ---- -------<br>--- --- -- ----- -- --- ---- -- --- ---- -- ------ ------<br>--- ----- -- ----,96572.70000004768,96572.39999997616,96251.328,96254.5,96258.288,96577.736,,31,close
screen,html.Screen,2_1_0_1_32,2022-04-27T20:33:25.684Z,,,,,,,,,,,,,,,,,53,,,,,,,,,,,,,,323.4640000476793,,response,,,,99,,,,,,,Space,keypress(Space),,,,,,,,---- -- ----- -- ------ - ------- --- ----------<br>------------- ------ ------ ---- ---- ------- ----- -- ----<br>-------- ------- -- ---------- --- - --- ----- ----- ----<br>---- --- --- ----- you ---- ---- ------- ----- ---- -------<br>--- --- -- ----- -- --- ---- -- --- ---- -- ------ ------<br>--- ----- -- ----,96901.5,96901.20000004768,96570.761,96572.70000004768,96577.736,96904.174,,32,you
screen,html.Screen,2_1_0_1_33,2022-04-27T20:33:25.974Z,,,,,,,,,,,,,,,,,53,,,,,,,,,,,,,,287.1259999523172,,response,,,,99,,,,,,,Space,keypress(Space),,,,,,,,---- -- ----- -- ------ - ------- --- ----------<br>------------- ------ ------ ---- ---- ------- ----- -- ----<br>-------- ------- -- ---------- --- - --- ----- ----- ----<br>---- --- --- ----- --- feel ---- ------- ----- ---- -------<br>--- --- -- ----- -- --- ---- -- --- ---- -- ------ ------<br>--- ----- -- ----,97191.5,97191.29999995232,96897.152,96901.60000002384,96904.174,97195.781,,33,feel
screen,html.Screen,2_1_0_1_34,2022-04-27T20:33:26.270Z,,,,,,,,,,,,,,,,,53,,,,,,,,,,,,,,291.5189999523136,,response,,,,99,,,,,,,Space,keypress(Space),,,,,,,,---- -- ----- -- ------ - ------- --- ----------<br>------------- ------ ------ ---- ---- ------- ----- -- ----<br>-------- ------- -- ---------- --- - --- ----- ----- ----<br>---- --- --- ----- --- ---- that ------- ----- ---- -------<br>--- --- -- ----- -- --- ---- -- --- ---- -- ------ ------<br>--- ----- -- ----,97487.5,97487.29999995232,97188.86,97191.60000002384,97195.781,97494.393,,34,that
screen,html.Screen,2_1_0_1_35,2022-04-27T20:33:26.581Z,,,,,,,,,,,,,,,,,53,,,,,,,,,,,,,,303.9069999523199,,response,,,,99,,,,,,,Space,keypress(Space),,,,,,,,---- -- ----- -- ------ - ------- --- ----------<br>------------- ------ ------ ---- ---- ------- ----- -- ----<br>-------- ------- -- ---------- --- - --- ----- ----- ----<br>---- --- --- ----- --- ---- ---- matters ----- ---- -------<br>--- --- -- ----- -- --- ---- -- --- ---- -- ------ ------<br>--- ----- -- ----,97798.70000004768,97798.29999995232,97487.417,97487.60000002384,97494.393,97818.894,,35,matters
screen,html.Screen,2_1_0_1_36,2022-04-27T20:33:26.848Z,,,,,,,,,,,,,,,,,53,,,,,,,,,,,,,,246.5059999761579,,response,,,,99,,,,,,,Space,keypress(Space),,,,,,,,"---- -- ----- -- ------ - ------- --- ----------<br>------------- ------ ------ ---- ---- ------- ----- -- ----<br>-------- ------- -- ---------- --- - --- ----- ----- ----<br>---- --- --- ----- --- ---- ---- ------- most, ---- -------<br>--- --- -- ----- -- --- ---- -- --- ---- -- ------ ------<br>--- ----- -- ----",98065.60000002384,98065.39999997616,97792.972,97799.10000002384,97818.894,98070.814,,36,"most,"
screen,html.Screen,2_1_0_1_37,2022-04-27T20:33:27.133Z,,,,,,,,,,,,,,,,,53,,,,,,,,,,,,,,279.58599997615966,,response,,,,99,,,,,,,Space,keypress(Space),,,,,,,,---- -- ----- -- ------ - ------- --- ----------<br>------------- ------ ------ ---- ---- ------- ----- -- ----<br>-------- ------- -- ---------- --- - --- ----- ----- ----<br>---- --- --- ----- --- ---- ---- ------- ----- it's -------<br>--- --- -- ----- -- --- ---- -- --- ---- -- ------ ------<br>--- ----- -- ----,98350.70000004768,98350.39999997616,98063.835,98065.70000004768,98070.814,98355.488,,37,it's
screen,html.Screen,2_1_0_1_38,2022-04-27T20:33:27.505Z,,,,,,,,,,,,,,,,,53,,,,,,,,,,,,,,367.1120000238443,,response,,,,99,,,,,,,Space,keypress(Space),,,,,,,,---- -- ----- -- ------ - ------- --- ----------<br>------------- ------ ------ ---- ---- ------- ----- -- ----<br>-------- ------- -- ---------- --- - --- ----- ----- ----<br>---- --- --- ----- --- ---- ---- ------- ----- ---- whether<br>--- --- -- ----- -- --- ---- -- --- ---- -- ------ ------<br>--- ----- -- ----,98722.89999997616,98722.60000002384,98348.532,98350.70000004768,98355.488,98741.001,,38,whether
screen,html.Screen,2_1_0_1_39,2022-04-27T20:33:27.862Z,,,,,,,,,,,,,,,,,53,,,,,,,,,,,,,,338.3989999761543,,response,,,,99,,,,,,,Space,keypress(Space),,,,,,,,---- -- ----- -- ------ - ------- --- ----------<br>------------- ------ ------ ---- ---- ------- ----- -- ----<br>-------- ------- -- ---------- --- - --- ----- ----- ----<br>---- --- --- ----- --- ---- ---- ------- ----- ---- -------<br>you --- -- ----- -- --- ---- -- --- ---- -- ------ ------<br>--- ----- -- ----,99079.70000004768,99079.39999997616,98716.572,98722.89999997616,98741.001,99084.681,,39,you
screen,html.Screen,2_1_0_1_40,2022-04-27T20:33:28.135Z,,,,,,,,,,,,,,,,,53,,,,,,,,,,,,,,267.81900000000314,,response,,,,99,,,,,,,Space,keypress(Space),,,,,,,,---- -- ----- -- ------ - ------- --- ----------<br>------------- ------ ------ ---- ---- ------- ----- -- ----<br>-------- ------- -- ---------- --- - --- ----- ----- ----<br>---- --- --- ----- --- ---- ---- ------- ----- ---- -------<br>--- are -- ----- -- --- ---- -- --- ---- -- ------ ------<br>--- ----- -- ----,99352.79999995232,99352.5,99077.682,99079.79999995232,99084.681,99355.479,,40,are
screen,html.Screen,2_1_0_1_41,2022-04-27T20:33:28.377Z,,,,,,,,,,,,,,,,,53,,,,,,,,,,,,,,239.22100004767708,,response,,,,99,,,,,,,Space,keypress(Space),,,,,,,,---- -- ----- -- ------ - ------- --- ----------<br>------------- ------ ------ ---- ---- ------- ----- -- ----<br>-------- ------- -- ---------- --- - --- ----- ----- ----<br>---- --- --- ----- --- ---- ---- ------- ----- ---- -------<br>--- --- as ----- -- --- ---- -- --- ---- -- ------ ------<br>--- ----- -- ----,99595,99594.70000004768,99348.556,99352.79999995232,99355.479,99598.523,,41,as
screen,html.Screen,2_1_0_1_42,2022-04-27T20:33:28.612Z,,,,,,,,,,,,,,,,,53,,,,,,,,,,,,,,230.97699999999895,,response,,,,99,,,,,,,Space,keypress(Space),,,,,,,,---- -- ----- -- ------ - ------- --- ----------<br>------------- ------ ------ ---- ---- ------- ----- -- ----<br>-------- ------- -- ---------- --- - --- ----- ----- ----<br>---- --- --- ----- --- ---- ---- ------- ----- ---- -------<br>--- --- -- close -- --- ---- -- --- ---- -- ------ ------<br>--- ----- -- ----,99829.79999995232,99829.5,99591.566,99595.10000002384,99598.523,99834.641,,42,close
screen,html.Screen,2_1_0_1_43,2022-04-27T20:33:28.899Z,,,,,,,,,,,,,,,,,53,,,,,,,,,,,,,,281.9590000238386,,response,,,,99,,,,,,,Space,keypress(Space),,,,,,,,---- -- ----- -- ------ - ------- --- ----------<br>------------- ------ ------ ---- ---- ------- ----- -- ----<br>-------- ------- -- ---------- --- - --- ----- ----- ----<br>---- --- --- ----- --- ---- ---- ------- ----- ---- -------<br>--- --- -- ----- as --- ---- -- --- ---- -- ------ ------<br>--- ----- -- ----,100116.89999997616,100116.60000002384,99827.671,99829.89999997616,99834.641,100119.349,,43,as
screen,html.Screen,2_1_0_1_44,2022-04-27T20:33:29.225Z,,,,,,,,,,,,,,,,,53,,,,,,,,,,,,,,323.2510000238399,,response,,,,99,,,,,,,Space,keypress(Space),,,,,,,,---- -- ----- -- ------ - ------- --- ----------<br>------------- ------ ------ ---- ---- ------- ----- -- ----<br>-------- ------- -- ---------- --- - --- ----- ----- ----<br>---- --- --- ----- --- ---- ---- ------- ----- ---- -------<br>--- --- -- ----- -- you ---- -- --- ---- -- ------ ------<br>--- ----- -- ----,100442.89999997616,100442.60000002384,100112.409,100116.89999997616,100119.349,100445.786,,44,you
screen,html.Screen,2_1_0_1_45,2022-04-27T20:33:29.466Z,,,,,,,,,,,,,,,,,53,,,,,,,,,,,,,,237.81400002384908,,response,,,,99,,,,,,,Space,keypress(Space),,,,,,,,---- -- ----- -- ------ - ------- --- ----------<br>------------- ------ ------ ---- ---- ------- ----- -- ----<br>-------- ------- -- ---------- --- - --- ----- ----- ----<br>---- --- --- ----- --- ---- ---- ------- ----- ---- -------<br>--- --- -- ----- -- --- want -- --- ---- -- ------ ------<br>--- ----- -- ----,100683.89999997616,100683.60000002384,100438.775,100443,100445.786,100688.893,,45,want
screen,html.Screen,2_1_0_1_46,2022-04-27T20:33:29.720Z,,,,,,,,,,,,,,,,,53,,,,,,,,,,,,,,248.80700004768732,,response,,,,99,,,,,,,Space,keypress(Space),,,,,,,,---- -- ----- -- ------ - ------- --- ----------<br>------------- ------ ------ ---- ---- ------- ----- -- ----<br>-------- ------- -- ---------- --- - --- ----- ----- ----<br>---- --- --- ----- --- ---- ---- ------- ----- ---- -------<br>--- --- -- ----- -- --- ---- to --- ---- -- ------ ------<br>--- ----- -- ----,100938.10000002384,100937.70000004768,100681.878,100683.89999997616,100688.893,100950.348,,46,to
screen,html.Screen,2_1_0_1_47,2022-04-27T20:33:29.932Z,,,,,,,,,,,,,,,,,53,,,,,,,,,,,,,,199.35200004768558,,response,,,,99,,,,,,,Space,keypress(Space),,,,,,,,"---- -- ----- -- ------ - ------- --- ----------<br>------------- ------ ------ ---- ---- ------- ----- -- ----<br>-------- ------- -- ---------- --- - --- ----- ----- ----<br>---- --- --- ----- --- ---- ---- ------- ----- ---- -------<br>--- --- -- ----- -- --- ---- -- be, ---- -- ------ ------<br>--- ----- -- ----",101150,101149.70000004768,100931.875,100938.10000002384,100950.348,101154.071,,47,"be,"
screen,html.Screen,2_1_0_1_48,2022-04-27T20:33:30.159Z,,,,,,,,,,,,,,,,,53,,,,,,,,,,,,,,222.72899995232,,response,,,,99,,,,,,,Space,keypress(Space),,,,,,,,---- -- ----- -- ------ - ------- --- ----------<br>------------- ------ ------ ---- ---- ------- ----- -- ----<br>-------- ------- -- ---------- --- - --- ----- ----- ----<br>---- --- --- ----- --- ---- ---- ------- ----- ---- -------<br>--- --- -- ----- -- --- ---- -- --- even -- ------ ------<br>--- ----- -- ----,101377.20000004768,101376.79999995232,101147.153,101150,101154.071,101383.24,,48,even
screen,html.Screen,2_1_0_1_49,2022-04-27T20:33:30.438Z,,,,,,,,,,,,,,,,,53,,,,,,,,,,,,,,272.75999999999476,,response,,,,99,,,,,,,Space,keypress(Space),,,,,,,,---- -- ----- -- ------ - ------- --- ----------<br>------------- ------ ------ ---- ---- ------- ----- -- ----<br>-------- ------- -- ---------- --- - --- ----- ----- ----<br>---- --- --- ----- --- ---- ---- ------- ----- ---- -------<br>--- --- -- ----- -- --- ---- -- --- ---- if ------ ------<br>--- ----- -- ----,101656.29999995232,101656,101376.335,101377.20000004768,101383.24,101661.001,,49,if
screen,html.Screen,2_1_0_1_50,2022-04-27T20:33:30.739Z,,,,,,,,,,,,,,,,,53,,,,,,,,,,,,,,294.8989999761543,,response,,,,99,,,,,,,Space,keypress(Space),,,,,,,,---- -- ----- -- ------ - ------- --- ----------<br>------------- ------ ------ ---- ---- ------- ----- -- ----<br>-------- ------- -- ---------- --- - --- ----- ----- ----<br>---- --- --- ----- --- ---- ---- ------- ----- ---- -------<br>--- --- -- ----- -- --- ---- -- --- ---- -- that's ------<br>--- ----- -- ----,101956.29999995232,101955.89999997616,101654.041,101656.29999995232,101661.001,101959.608,,50,that's
screen,html.Screen,2_1_0_1_51,2022-04-27T20:33:31.174Z,,,,,,,,,,,,,,,,,53,,,,,,,,,,,,,,432.1919999523234,,response,,,,99,,,,,,,Space,keypress(Space),,,,,,,,---- -- ----- -- ------ - ------- --- ----------<br>------------- ------ ------ ---- ---- ------- ----- -- ----<br>-------- ------- -- ---------- --- - --- ----- ----- ----<br>---- --- --- ----- --- ---- ---- ------- ----- ---- -------<br>--- --- -- ----- -- --- ---- -- --- ---- -- ------ really<br>--- ----- -- ----,102392.10000002384,102391.79999995232,101952.641,101956.39999997616,101959.608,102397.107,,51,really
screen,html.Screen,2_1_0_1_52,2022-04-27T20:33:31.510Z,,,,,,,,,,,,,,,,,53,,,,,,,,,,,,,,330.79299997615453,,response,,,,99,,,,,,,Space,keypress(Space),,,,,,,,---- -- ----- -- ------ - ------- --- ----------<br>------------- ------ ------ ---- ---- ------- ----- -- ----<br>-------- ------- -- ---------- --- - --- ----- ----- ----<br>---- --- --- ----- --- ---- ---- ------- ----- ---- -------<br>--- --- -- ----- -- --- ---- -- --- ---- -- ------ ------<br>not ----- -- ----,102728.20000004768,102727.89999997616,102390.132,102392.10000002384,102397.107,102730.5,,52,not
screen,html.Screen,2_1_0_1_53,2022-04-27T20:33:31.836Z,,,,,,,,,,,,,,,,,53,,,,,,,,,,,,,,323.39999997615814,,response,,,,99,,,,,,,Space,keypress(Space),,,,,,,,---- -- ----- -- ------ - ------- --- ----------<br>------------- ------ ------ ---- ---- ------- ----- -- ----<br>-------- ------- -- ---------- --- - --- ----- ----- ----<br>---- --- --- ----- --- ---- ---- ------- ----- ---- -------<br>--- --- -- ----- -- --- ---- -- --- ---- -- ------ ------<br>--- close -- ----,103054.20000004768,103053.89999997616,102723.483,102728.20000004768,102730.5,103056.831,,53,close
screen,html.Screen,2_1_0_1_54,2022-04-27T20:33:32.212Z,,,,,,,,,,,,,,,,,53,,,,,,,,,,,,,,373.06899997615255,,response,,,,99,,,,,,,Space,keypress(Space),,,,,,,,---- -- ----- -- ------ - ------- --- ----------<br>------------- ------ ------ ---- ---- ------- ----- -- ----<br>-------- ------- -- ---------- --- - --- ----- ----- ----<br>---- --- --- ----- --- ---- ---- ------- ----- ---- -------<br>--- --- -- ----- -- --- ---- -- --- ---- -- ------ ------<br>--- ----- at ----,103430.20000004768,103429.89999997616,103049.896,103054.29999995232,103056.831,103431.829,,54,at
screen,html.Screen,2_1_0_1_55,2022-04-27T20:33:32.664Z,,,,,,,,,,,,,,,,,53,,,,,,,,,,,,,,450.1710000000021,,response,,,,99,,,,,,,Space,keypress(Space),,,,,,,,---- -- ----- -- ------ - ------- --- ----------<br>------------- ------ ------ ---- ---- ------- ----- -- ----<br>-------- ------- -- ---------- --- - --- ----- ----- ----<br>---- --- --- ----- --- ---- ---- ------- ----- ---- -------<br>--- --- -- ----- -- --- ---- -- --- ---- -- ------ ------<br>--- ----- -- all.,103882.29999995232,103882,103424.862,103430.20000004768,103431.829,103890.516,,55,all.
Item 99,flow.Loop,2_1_0_1,2022-04-27T20:33:32.665Z,,,,,,,,,,,,,,,,,,,,,,,,,,,,,,,24769.365000000005,,completion,,,,,C,,,,,,,,,,,silence,,,,,103882.39999997616,103882,79105.794,79106.10000002384,79112.635,103890.516,,,
Question 1,html.Screen,2_1_0_2,2022-04-27T20:33:39.834Z,,,,,,,,,,,,,,,,,,,,,,,,,,,,true,FALSE,,7161.283999952313,,response,,,,99,C,,,,,,FALSE,click #choice-2,,,,silence,,,,,111052.29999995232,111051.79999995232,103876.24,103882.5,103890.516,111056.774,,,
Question 2,html.Screen,2_1_0_3,2022-04-27T20:33:45.514Z,,,,,,,,,,,,,,,,,,,,,,,,,,,,true,TRUE,,5675.025999952311,,response,,,,99,C,,,,,,TRUE,click #choice-1,,,,silence,,,,,116732.20000004768,116731.79999995232,111049.797,111052.39999997616,111056.774,116737.283,,,
Item 99,flow.Sequence,2_1_0,2022-04-27T20:33:45.515Z,,,,,,,,,,,,,,,,,,,,,,,,,,,,,,,47619.02199995231,,completion,,,,,,,,,,,,,,,,,,,,,116732.39999997616,116731.79999995232,69105.785,69111.5,69112.778,116737.283,,,
Holding screen,html.Screen,2_1_1_0,2022-04-27T20:33:55.513Z,,,,,,,,,,,,,,,,,,,,,,,,,,,,,,,9999.864000000001,,timeout,,,,,,,,,,,,,,,,,,,,,126730.5,126730.258,116730.285,116732.39999997616,116737.283,126737.147,,,
screen,html.Screen,2_1_1_1_0,2022-04-27T20:33:56.645Z,,,,,,,,,,,,,,,,,54,,,,,,,,,,,,,,1125.752999976161,,response,,,,100,,,,,,,Space,keypress(Space),,,,,,,,At --- ---- --- ------ ----- ------- ---- -- --- ------- --<br>------- ---------- ------ -- ----- -- ----- -- ---- ------<br>--- ----- --- --- ------ -------- ----- --- ------ ----- --<br>----- ----- ---------- --- --- ------ ------ ---- -- ------<br>------- --- ------ ----- --- ---- ------- -- ---- --- --<br>------- ------,127863.20000004768,127862.89999997616,126730.258,126730.60000002384,126737.147,127869.108,,0,At
screen,html.Screen,2_1_1_1_1,2022-04-27T20:33:57.135Z,,,,,,,,,,,,,,,,,54,,,,,,,,,,,,,,483.99200002384896,,response,,,,100,,,,,,,Space,keypress(Space),,,,,,,,-- the ---- --- ------ ----- ------- ---- -- --- ------- --<br>------- ---------- ------ -- ----- -- ----- -- ---- ------<br>--- ----- --- --- ------ -------- ----- --- ------ ----- --<br>----- ----- ---------- --- --- ------ ------ ---- -- ------<br>------- --- ------ ----- --- ---- ------- -- ---- --- --<br>------- ------,128353.29999995232,128353.10000002384,127862.06,127863.29999995232,127869.108,128355.185,,1,the
screen,html.Screen,2_1_1_1_2,2022-04-27T20:33:57.555Z,,,,,,,,,,,,,,,,,54,,,,,,,,,,,,,,417.6149999523186,,response,,,,100,,,,,,,Space,keypress(Space),,,,,,,,-- --- time --- ------ ----- ------- ---- -- --- ------- --<br>------- ---------- ------ -- ----- -- ----- -- ---- ------<br>--- ----- --- --- ------ -------- ----- --- ------ ----- --<br>----- ----- ---------- --- --- ------ ------ ---- -- ------<br>------- --- ------ ----- --- ---- ------- -- ---- --- --<br>------- ------,128773.10000002384,128772.79999995232,128348.23,128353.39999997616,128355.185,128778.771,,2,time
screen,html.Screen,2_1_1_1_3,2022-04-27T20:33:58.035Z,,,,,,,,,,,,,,,,,54,,,,,,,,,,,,,,474.1289999761648,,response,,,,100,,,,,,,Space,keypress(Space),,,,,,,,-- --- ---- the ------ ----- ------- ---- -- --- ------- --<br>------- ---------- ------ -- ----- -- ----- -- ---- ------<br>--- ----- --- --- ------ -------- ----- --- ------ ----- --<br>----- ----- ---------- --- --- ------ ------ ---- -- ------<br>------- --- ------ ----- --- ---- ------- -- ---- --- --<br>------- ------,129253.20000004768,129252.89999997616,128771.803,128773.20000004768,128778.771,129257.938,,3,the
screen,html.Screen,2_1_1_1_4,2022-04-27T20:33:58.648Z,,,,,,,,,,,,,,,,,54,,,,,,,,,,,,,,607.9619999761635,,response,,,,100,,,,,,,Space,keypress(Space),,,,,,,,-- --- ---- --- French ----- ------- ---- -- --- ------- --<br>------- ---------- ------ -- ----- -- ----- -- ---- ------<br>--- ----- --- --- ------ -------- ----- --- ------ ----- --<br>----- ----- ---------- --- --- ------ ------ ---- -- ------<br>------- --- ------ ----- --- ---- ------- -- ---- --- --<br>------- ------,129866.29999995232,129865.89999997616,129250.977,129253.20000004768,129257.938,129869.085,,4,French
screen,html.Screen,2_1_1_1_5,2022-04-27T20:33:59.370Z,,,,,,,,,,,,,,,,,54,,,,,,,,,,,,,,717.9149999999936,,response,,,,100,,,,,,,Space,keypress(Space),,,,,,,,-- --- ---- --- ------ crown ------- ---- -- --- ------- --<br>------- ---------- ------ -- ----- -- ----- -- ---- ------<br>--- ----- --- --- ------ -------- ----- --- ------ ----- --<br>----- ----- ---------- --- --- ------ ------ ---- -- ------<br>------- --- ------ ----- --- ---- ------- -- ---- --- --<br>------- ------,130587.29999995232,130587,129862.112,129866.39999997616,129869.085,130591.289,,5,crown
screen,html.Screen,2_1_1_1_6,2022-04-27T20:34:00.005Z,,,,,,,,,,,,,,,,,54,,,,,,,,,,,,,,630.8110000238376,,response,,,,100,,,,,,,Space,keypress(Space),,,,,,,,-- --- ---- --- ------ ----- secured ---- -- --- ------- --<br>------- ---------- ------ -- ----- -- ----- -- ---- ------<br>--- ----- --- --- ------ -------- ----- --- ------ ----- --<br>----- ----- ---------- --- --- ------ ------ ---- -- ------<br>------- --- ------ ----- --- ---- ------- -- ---- --- --<br>------- ------,131222.39999997616,131222.10000002384,130584.31,130587.39999997616,130591.289,131244.691,,6,secured
screen,html.Screen,2_1_1_1_7,2022-04-27T20:34:00.527Z,,,,,,,,,,,,,,,,,54,,,,,,,,,,,,,,499.60899995232467,,response,,,,100,,,,,,,Space,keypress(Space),,,,,,,,-- --- ---- --- ------ ----- ------- much -- --- ------- --<br>------- ---------- ------ -- ----- -- ----- -- ---- ------<br>--- ----- --- --- ------ -------- ----- --- ------ ----- --<br>----- ----- ---------- --- --- ------ ------ ---- -- ------<br>------- --- ------ ----- --- ---- ------- -- ---- --- --<br>------- ------,131744.70000004768,131744.29999995232,131216.265,131222.39999997616,131244.691,131751.026,,7,much
screen,html.Screen,2_1_1_1_8,2022-04-27T20:34:01.072Z,,,,,,,,,,,,,,,,,54,,,,,,,,,,,,,,538.2739999523037,,response,,,,100,,,,,,,Space,keypress(Space),,,,,,,,-- --- ---- --- ------ ----- ------- ---- of --- ------- --<br>------- ---------- ------ -- ----- -- ----- -- ---- ------<br>--- ----- --- --- ------ -------- ----- --- ------ ----- --<br>----- ----- ---------- --- --- ------ ------ ---- -- ------<br>------- --- ------ ----- --- ---- ------- -- ---- --- --<br>------- ------,132289.5,132289.29999995232,131743.997,131744.70000004768,131751.026,132292.711,,8,of
screen,html.Screen,2_1_1_1_9,2022-04-27T20:34:01.480Z,,,,,,,,,,,,,,,,,54,,,,,,,,,,,,,,404.48900004767347,,response,,,,100,,,,,,,Space,keypress(Space),,,,,,,,-- --- ---- --- ------ ----- ------- ---- -- its ------- --<br>------- ---------- ------ -- ----- -- ----- -- ---- ------<br>--- ----- --- --- ------ -------- ----- --- ------ ----- --<br>----- ----- ---------- --- --- ------ ------ ---- -- ------<br>------- --- ------ ----- --- ---- ------- -- ---- --- --<br>------- ------,132697.5,132697.20000004768,132285.682,132289.60000002384,132292.711,132702.339,,9,its
screen,html.Screen,2_1_1_1_10,2022-04-27T20:34:02.042Z,,,,,,,,,,,,,,,,,54,,,,,,,,,,,,,,556.9609999523091,,response,,,,100,,,,,,,Space,keypress(Space),,,,,,,,-- --- ---- --- ------ ----- ------- ---- -- --- revenue --<br>------- ---------- ------ -- ----- -- ----- -- ---- ------<br>--- ----- --- --- ------ -------- ----- --- ------ ----- --<br>----- ----- ---------- --- --- ------ ------ ---- -- ------<br>------- --- ------ ----- --- ---- ------- -- ---- --- --<br>------- ------,133259.60000002384,133259.29999995232,132695.396,132697.5,132702.339,133264.828,,10,revenue
screen,html.Screen,2_1_1_1_11,2022-04-27T20:34:02.497Z,,,,,,,,,,,,,,,,,54,,,,,,,,,,,,,,449.5719999761495,,response,,,,100,,,,,,,Space,keypress(Space),,,,,,,,-- --- ---- --- ------ ----- ------- ---- -- --- ------- by<br>------- ---------- ------ -- ----- -- ----- -- ---- ------<br>--- ----- --- --- ------ -------- ----- --- ------ ----- --<br>----- ----- ---------- --- --- ------ ------ ---- -- ------<br>------- --- ------ ----- --- ---- ------- -- ---- --- --<br>------- ------,133714.60000002384,133714.39999997616,133257.86,133259.70000004768,133264.828,133716.233,,11,by
screen,html.Screen,2_1_1_1_12,2022-04-27T20:34:03.055Z,,,,,,,,,,,,,,,,,54,,,,,,,,,,,,,,556.1669999761507,,response,,,,100,,,,,,,Space,keypress(Space),,,,,,,,-- --- ---- --- ------ ----- ------- ---- -- --- ------- --<br>issuing ---------- ------ -- ----- -- ----- -- ---- ------<br>--- ----- --- --- ------ -------- ----- --- ------ ----- --<br>----- ----- ---------- --- --- ------ ------ ---- -- ------<br>------- --- ------ ----- --- ---- ------- -- ---- --- --<br>------- ------,134272.70000004768,134272.39999997616,133709.251,133714.70000004768,133716.233,134278.717,,12,issuing
screen,html.Screen,2_1_1_1_13,2022-04-27T20:34:03.602Z,,,,,,,,,,,,,,,,,54,,,,,,,,,,,,,,540.9830000476795,,response,,,,100,,,,,,,Space,keypress(Space),,,,,,,,-- --- ---- --- ------ ----- ------- ---- -- --- ------- --<br>------- government ------ -- ----- -- ----- -- ---- ------<br>--- ----- --- --- ------ -------- ----- --- ------ ----- --<br>----- ----- ---------- --- --- ------ ------ ---- -- ------<br>------- --- ------ ----- --- ---- ------- -- ---- --- --<br>------- ------,134820,134819.70000004768,134271.747,134272.79999995232,134278.717,134834.104,,13,government
screen,html.Screen,2_1_1_1_14,2022-04-27T20:34:04.081Z,,,,,,,,,,,,,,,,,54,,,,,,,,,,,,,,464.4960000238498,,response,,,,100,,,,,,,Space,keypress(Space),,,,,,,,-- --- ---- --- ------ ----- ------- ---- -- --- ------- --<br>------- ---------- bonds. -- ----- -- ----- -- ---- ------<br>--- ----- --- --- ------ -------- ----- --- ------ ----- --<br>----- ----- ---------- --- --- ------ ------ ---- -- ------<br>------- --- ------ ----- --- ---- ------- -- ---- --- --<br>------- ------,135298.89999997616,135298.60000002384,134813.405,134820.10000002384,134834.104,135320.145,,14,bonds.
screen,html.Screen,2_1_1_1_15,2022-04-27T20:34:04.870Z,,,,,,,,,,,,,,,,,54,,,,,,,,,,,,,,767.7549999761686,,response,,,,100,,,,,,,Space,keypress(Space),,,,,,,,-- --- ---- --- ------ ----- ------- ---- -- --- ------- --<br>------- ---------- ------ In ----- -- ----- -- ---- ------<br>--- ----- --- --- ------ -------- ----- --- ------ ----- --<br>----- ----- ---------- --- --- ------ ------ ---- -- ------<br>------- --- ------ ----- --- ---- ------- -- ---- --- --<br>------- ------,136088.10000002384,136087.89999997616,135292.575,135298.89999997616,135320.145,136091.232,,15,In
screen,html.Screen,2_1_1_1_16,2022-04-27T20:34:05.517Z,,,,,,,,,,,,,,,,,54,,,,,,,,,,,,,,643.4680000476947,,response,,,,100,,,,,,,Space,keypress(Space),,,,,,,,"-- --- ---- --- ------ ----- ------- ---- -- --- ------- --<br>------- ---------- ------ -- 1727, -- ----- -- ---- ------<br>--- ----- --- --- ------ -------- ----- --- ------ ----- --<br>----- ----- ---------- --- --- ------ ------ ---- -- ------<br>------- --- ------ ----- --- ---- ------- -- ---- --- --<br>------- ------",136735,136734.70000004768,136084.204,136088.20000004768,136091.232,136737.024,,16,"1727,"
screen,html.Screen,2_1_1_1_17,2022-04-27T20:34:05.924Z,,,,,,,,,,,,,,,,,54,,,,,,,,,,,,,,404.7759999523114,,response,,,,100,,,,,,,Space,keypress(Space),,,,,,,,-- --- ---- --- ------ ----- ------- ---- -- --- ------- --<br>------- ---------- ------ -- ----- in ----- -- ---- ------<br>--- ----- --- --- ------ -------- ----- --- ------ ----- --<br>----- ----- ---------- --- --- ------ ------ ---- -- ------<br>------- --- ------ ----- --- ---- ------- -- ---- --- --<br>------- ------,137142.10000002384,137141.79999995232,136730.098,136735,136737.024,137146.735,,17,in
screen,html.Screen,2_1_1_1_18,2022-04-27T20:34:06.238Z,,,,,,,,,,,,,,,,,54,,,,,,,,,,,,,,309.06499995233025,,response,,,,100,,,,,,,Space,keypress(Space),,,,,,,,-- --- ---- --- ------ ----- ------- ---- -- --- ------- --<br>------- ---------- ------ -- ----- -- order -- ---- ------<br>--- ----- --- --- ------ -------- ----- --- ------ ----- --<br>----- ----- ---------- --- --- ------ ------ ---- -- ------<br>------- --- ------ ----- --- ---- ------- -- ---- --- --<br>------- ------,137456.10000002384,137455.79999995232,137139.784,137142.10000002384,137146.735,137459.241,,18,order
screen,html.Screen,2_1_1_1_19,2022-04-27T20:34:06.482Z,,,,,,,,,,,,,,,,,54,,,,,,,,,,,,,,240.5589999523072,,response,,,,100,,,,,,,Space,keypress(Space),,,,,,,,-- --- ---- --- ------ ----- ------- ---- -- --- ------- --<br>------- ---------- ------ -- ----- -- ----- to ---- ------<br>--- ----- --- --- ------ -------- ----- --- ------ ----- --<br>----- ----- ---------- --- --- ------ ------ ---- -- ------<br>------- --- ------ ----- --- ---- ------- -- ---- --- --<br>------- ------,137700.20000004768,137699.79999995232,137452.275,137456.10000002384,137459.241,137702.3,,19,to
screen,html.Screen,2_1_1_1_20,2022-04-27T20:34:06.771Z,,,,,,,,,,,,,,,,,54,,,,,,,,,,,,,,285.70000000001164,,response,,,,100,,,,,,,Space,keypress(Space),,,,,,,,-- --- ---- --- ------ ----- ------- ---- -- --- ------- --<br>------- ---------- ------ -- ----- -- ----- -- save ------<br>--- ----- --- --- ------ -------- ----- --- ------ ----- --<br>----- ----- ---------- --- --- ------ ------ ---- -- ------<br>------- --- ------ ----- --- ---- ------- -- ---- --- --<br>------- ------,137988.39999997616,137988,137695.324,137700.20000004768,137702.3,137993.982,,20,save
screen,html.Screen,2_1_1_1_21,2022-04-27T20:34:07.185Z,,,,,,,,,,,,,,,,,54,,,,,,,,,,,,,,409.1180000238528,,response,,,,100,,,,,,,Space,keypress(Space),,,,,,,,"-- --- ---- --- ------ ----- ------- ---- -- --- ------- --<br>------- ---------- ------ -- ----- -- ----- -- ---- money,<br>--- ----- --- --- ------ -------- ----- --- ------ ----- --<br>----- ----- ---------- --- --- ------ ------ ---- -- ------<br>------- --- ------ ----- --- ---- ------- -- ---- --- --<br>------- ------",138403.29999995232,138403.10000002384,137986.99,137988.39999997616,137993.982,138415.572,,21,"money,"
screen,html.Screen,2_1_1_1_22,2022-04-27T20:34:07.503Z,,,,,,,,,,,,,,,,,54,,,,,,,,,,,,,,305.3279999761726,,response,,,,100,,,,,,,Space,keypress(Space),,,,,,,,-- --- ---- --- ------ ----- ------- ---- -- --- ------- --<br>------- ---------- ------ -- ----- -- ----- -- ---- ------<br>the ----- --- --- ------ -------- ----- --- ------ ----- --<br>----- ----- ---------- --- --- ------ ------ ---- -- ------<br>------- --- ------ ----- --- ---- ------- -- ---- --- --<br>------- ------,138721.20000004768,138720.89999997616,138396.738,138403.39999997616,138415.572,138723.121,,22,the
screen,html.Screen,2_1_1_1_23,2022-04-27T20:34:07.795Z,,,,,,,,,,,,,,,,,54,,,,,,,,,,,,,,288.87899999998626,,response,,,,100,,,,,,,Space,keypress(Space),,,,,,,,-- --- ---- --- ------ ----- ------- ---- -- --- ------- --<br>------- ---------- ------ -- ----- -- ----- -- ---- ------<br>--- state --- --- ------ -------- ----- --- ------ ----- --<br>----- ----- ---------- --- --- ------ ------ ---- -- ------<br>------- --- ------ ----- --- ---- ------- -- ---- --- --<br>------- ------,139012.29999995232,139012,138716.173,138721.29999995232,138723.121,139014.816,,23,state
screen,html.Screen,2_1_1_1_24,2022-04-27T20:34:08.146Z,,,,,,,,,,,,,,,,,54,,,,,,,,,,,,,,348.1840000000084,,response,,,,100,,,,,,,Space,keypress(Space),,,,,,,,-- --- ---- --- ------ ----- ------- ---- -- --- ------- --<br>------- ---------- ------ -- ----- -- ----- -- ---- ------<br>--- ----- cut --- ------ -------- ----- --- ------ ----- --<br>----- ----- ---------- --- --- ------ ------ ---- -- ------<br>------- --- ------ ----- --- ---- ------- -- ---- --- --<br>------- ------,139363.39999997616,139363,139007.844,139012.29999995232,139014.816,139368.939,,24,cut
screen,html.Screen,2_1_1_1_25,2022-04-27T20:34:08.455Z,,,,,,,,,,,,,,,,,54,,,,,,,,,,,,,,303.06099999998696,,response,,,,100,,,,,,,Space,keypress(Space),,,,,,,,-- --- ---- --- ------ ----- ------- ---- -- --- ------- --<br>------- ---------- ------ -- ----- -- ----- -- ---- ------<br>--- ----- --- the ------ -------- ----- --- ------ ----- --<br>----- ----- ---------- --- --- ------ ------ ---- -- ------<br>------- --- ------ ----- --- ---- ------- -- ---- --- --<br>------- ------,139672.29999995232,139672,139362.013,139363.39999997616,139368.939,139674.544,,25,the
screen,html.Screen,2_1_1_1_26,2022-04-27T20:34:08.817Z,,,,,,,,,,,,,,,,,54,,,,,,,,,,,,,,359.4560000000056,,response,,,,100,,,,,,,Space,keypress(Space),,,,,,,,-- --- ---- --- ------ ----- ------- ---- -- --- ------- --<br>------- ---------- ------ -- ----- -- ----- -- ---- ------<br>--- ----- --- --- bonds' -------- ----- --- ------ ----- --<br>----- ----- ---------- --- --- ------ ------ ---- -- ------<br>------- --- ------ ----- --- ---- ------- -- ---- --- --<br>------- ------,140034.39999997616,140034,139667.574,139672.39999997616,139674.544,140035.643,,26,bonds'
screen,html.Screen,2_1_1_1_27,2022-04-27T20:34:09.174Z,,,,,,,,,,,,,,,,,54,,,,,,,,,,,,,,355.5570000476728,,response,,,,100,,,,,,,Space,keypress(Space),,,,,,,,-- --- ---- --- ------ ----- ------- ---- -- --- ------- --<br>------- ---------- ------ -- ----- -- ----- -- ---- ------<br>--- ----- --- --- ------ interest ----- --- ------ ----- --<br>----- ----- ---------- --- --- ------ ------ ---- -- ------<br>------- --- ------ ----- --- ---- ------- -- ---- --- --<br>------- ------,140391.39999997616,140391.20000004768,140028.642,140034.5,140035.643,140396.705,,27,interest
screen,html.Screen,2_1_1_1_28,2022-04-27T20:34:09.438Z,,,,,,,,,,,,,,,,,54,,,,,,,,,,,,,,258.39500002385466,,response,,,,100,,,,,,,Space,keypress(Space),,,,,,,,-- --- ---- --- ------ ----- ------- ---- -- --- ------- --<br>------- ---------- ------ -- ----- -- ----- -- ---- ------<br>--- ----- --- --- ------ -------- rate. --- ------ ----- --<br>----- ----- ---------- --- --- ------ ------ ---- -- ------<br>------- --- ------ ----- --- ---- ------- -- ---- --- --<br>------- ------,140655.39999997616,140655.10000002384,140389.727,140391.60000002384,140396.705,140660.625,,28,rate.
screen,html.Screen,2_1_1_1_29,2022-04-27T20:34:09.699Z,,,,,,,,,,,,,,,,,54,,,,,,,,,,,,,,255.67499995231628,,response,,,,100,,,,,,,Space,keypress(Space),,,,,,,,-- --- ---- --- ------ ----- ------- ---- -- --- ------- --<br>------- ---------- ------ -- ----- -- ----- -- ---- ------<br>--- ----- --- --- ------ -------- ----- The ------ ----- --<br>----- ----- ---------- --- --- ------ ------ ---- -- ------<br>------- --- ------ ----- --- ---- ------- -- ---- --- --<br>------- ------,140916.5,140916.29999995232,140653.63,140655.5,140660.625,140938.8,,29,The
screen,html.Screen,2_1_1_1_30,2022-04-27T20:34:10.067Z,,,,,,,,,,,,,,,,,54,,,,,,,,,,,,,,345.4999999523279,,response,,,,100,,,,,,,Space,keypress(Space),,,,,,,,-- --- ---- --- ------ ----- ------- ---- -- --- ------- --<br>------- ---------- ------ -- ----- -- ----- -- ---- ------<br>--- ----- --- --- ------ -------- ----- --- market ----- --<br>----- ----- ---------- --- --- ------ ------ ---- -- ------<br>------- --- ------ ----- --- ---- ------- -- ---- --- --<br>------- ------,141284.5,141284.29999995232,140910.572,140916.60000002384,140938.8,141303.837,,30,market
screen,html.Screen,2_1_1_1_31,2022-04-27T20:34:10.311Z,,,,,,,,,,,,,,,,,54,,,,,,,,,,,,,,224.46299995231675,,response,,,,100,,,,,,,Space,keypress(Space),,,,,,,,-- --- ---- --- ------ ----- ------- ---- -- --- ------- --<br>------- ---------- ------ -- ----- -- ----- -- ---- ------<br>--- ----- --- --- ------ -------- ----- --- ------ value --<br>----- ----- ---------- --- --- ------ ------ ---- -- ------<br>------- --- ------ ----- --- ---- ------- -- ---- --- --<br>------- ------,141528.60000002384,141528.29999995232,141278.627,141284.5,141303.837,141535.624,,31,value
screen,html.Screen,2_1_1_1_32,2022-04-27T20:34:10.668Z,,,,,,,,,,,,,,,,,54,,,,,,,,,,,,,,349.6759999523056,,response,,,,100,,,,,,,Space,keypress(Space),,,,,,,,-- --- ---- --- ------ ----- ------- ---- -- --- ------- --<br>------- ---------- ------ -- ----- -- ----- -- ---- ------<br>--- ----- --- --- ------ -------- ----- --- ------ ----- of<br>----- ----- ---------- --- --- ------ ------ ---- -- ------<br>------- --- ------ ----- --- ---- ------- -- ---- --- --<br>------- ------,141885.60000002384,141885.29999995232,141528.632,141528.60000002384,141535.624,141889.774,,32,of
screen,html.Screen,2_1_1_1_33,2022-04-27T20:34:11.039Z,,,,,,,,,,,,,,,,,54,,,,,,,,,,,,,,366.5259999523114,,response,,,,100,,,,,,,Space,keypress(Space),,,,,,,,-- --- ---- --- ------ ----- ------- ---- -- --- ------- --<br>------- ---------- ------ -- ----- -- ----- -- ---- ------<br>--- ----- --- --- ------ -------- ----- --- ------ ----- --<br>these ----- ---------- --- --- ------ ------ ---- -- ------<br>------- --- ------ ----- --- ---- ------- -- ---- --- --<br>------- ------,142256.60000002384,142256.29999995232,141882.803,141885.60000002384,141889.774,142257.806,,33,these
screen,html.Screen,2_1_1_1_34,2022-04-27T20:34:11.343Z,,,,,,,,,,,,,,,,,54,,,,,,,,,,,,,,302.59399997614673,,response,,,,100,,,,,,,Space,keypress(Space),,,,,,,,-- --- ---- --- ------ ----- ------- ---- -- --- ------- --<br>------- ---------- ------ -- ----- -- ----- -- ---- ------<br>--- ----- --- --- ------ -------- ----- --- ------ ----- --<br>----- bonds ---------- --- --- ------ ------ ---- -- ------<br>------- --- ------ ----- --- ---- ------- -- ---- --- --<br>------- ------,142560.70000004768,142560.39999997616,142250.861,142256.70000004768,142257.806,142563.346,,34,bonds
screen,html.Screen,2_1_1_1_35,2022-04-27T20:34:11.611Z,,,,,,,,,,,,,,,,,54,,,,,,,,,,,,,,265.15400000000955,,response,,,,100,,,,,,,Space,keypress(Space),,,,,,,,"-- --- ---- --- ------ ----- ------- ---- -- --- ------- --<br>------- ---------- ------ -- ----- -- ----- -- ---- ------<br>--- ----- --- --- ------ -------- ----- --- ------ ----- --<br>----- ----- plummeted, --- --- ------ ------ ---- -- ------<br>------- --- ------ ----- --- ---- ------- -- ---- --- --<br>------- ------",142828.70000004768,142828.5,142556.381,142560.70000004768,142563.346,142834.216,,35,"plummeted,"
screen,html.Screen,2_1_1_1_36,2022-04-27T20:34:11.977Z,,,,,,,,,,,,,,,,,54,,,,,,,,,,,,,,360.18399997617234,,response,,,,100,,,,,,,Space,keypress(Space),,,,,,,,-- --- ---- --- ------ ----- ------- ---- -- --- ------- --<br>------- ---------- ------ -- ----- -- ----- -- ---- ------<br>--- ----- --- --- ------ -------- ----- --- ------ ----- --<br>----- ----- ---------- and --- ------ ------ ---- -- ------<br>------- --- ------ ----- --- ---- ------- -- ---- --- --<br>------- ------,143194.79999995232,143194.39999997616,142827.208,142828.79999995232,142834.216,143202.498,,36,and
screen,html.Screen,2_1_1_1_37,2022-04-27T20:34:12.278Z,,,,,,,,,,,,,,,,,54,,,,,,,,,,,,,,293.0020000000077,,response,,,,100,,,,,,,Space,keypress(Space),,,,,,,,-- --- ---- --- ------ ----- ------- ---- -- --- ------- --<br>------- ---------- ------ -- ----- -- ----- -- ---- ------<br>--- ----- --- --- ------ -------- ----- --- ------ ----- --<br>----- ----- ---------- --- the ------ ------ ---- -- ------<br>------- --- ------ ----- --- ---- ------- -- ---- --- --<br>------- ------,143495.79999995232,143495.5,143188.38,143194.79999995232,143202.498,143500.843,,37,the
screen,html.Screen,2_1_1_1_38,2022-04-27T20:34:12.550Z,,,,,,,,,,,,,,,,,54,,,,,,,,,,,,,,266.7570000238484,,response,,,,100,,,,,,,Space,keypress(Space),,,,,,,,-- --- ---- --- ------ ----- ------- ---- -- --- ------- --<br>------- ---------- ------ -- ----- -- ----- -- ---- ------<br>--- ----- --- --- ------ -------- ----- --- ------ ----- --<br>----- ----- ---------- --- --- market ------ ---- -- ------<br>------- --- ------ ----- --- ---- ------- -- ---- --- --<br>------- ------,143767.89999997616,143767.60000002384,143493.886,143495.79999995232,143500.843,143771.713,,38,market
screen,html.Screen,2_1_1_1_39,2022-04-27T20:34:12.794Z,,,,,,,,,,,,,,,,,54,,,,,,,,,,,,,,239.78700000001118,,response,,,,100,,,,,,,Space,keypress(Space),,,,,,,,-- --- ---- --- ------ ----- ------- ---- -- --- ------- --<br>------- ---------- ------ -- ----- -- ----- -- ---- ------<br>--- ----- --- --- ------ -------- ----- --- ------ ----- --<br>----- ----- ---------- --- --- ------ became ---- -- ------<br>------- --- ------ ----- --- ---- ------- -- ---- --- --<br>------- ------,144011.79999995232,144011.5,143764.712,143767.89999997616,143771.713,144014.759,,39,became
screen,html.Screen,2_1_1_1_40,2022-04-27T20:34:13.149Z,,,,,,,,,,,,,,,,,54,,,,,,,,,,,,,,351.84100002385094,,response,,,,100,,,,,,,Space,keypress(Space),,,,,,,,-- --- ---- --- ------ ----- ------- ---- -- --- ------- --<br>------- ---------- ------ -- ----- -- ----- -- ---- ------<br>--- ----- --- --- ------ -------- ----- --- ------ ----- --<br>----- ----- ---------- --- --- ------ ------ wary -- ------<br>------- --- ------ ----- --- ---- ------- -- ---- --- --<br>------- ------,144366.89999997616,144366.60000002384,144007.801,144011.79999995232,144014.759,144368.894,,40,wary
screen,html.Screen,2_1_1_1_41,2022-04-27T20:34:13.438Z,,,,,,,,,,,,,,,,,54,,,,,,,,,,,,,,286.7060000238416,,response,,,,100,,,,,,,Space,keypress(Space),,,,,,,,-- --- ---- --- ------ ----- ------- ---- -- --- ------- --<br>------- ---------- ------ -- ----- -- ----- -- ---- ------<br>--- ----- --- --- ------ -------- ----- --- ------ ----- --<br>----- ----- ---------- --- --- ------ ------ ---- of ------<br>------- --- ------ ----- --- ---- ------- -- ---- --- --<br>------- ------,144655.89999997616,144655.60000002384,144361.953,144367,144368.894,144660.55,,41,of
screen,html.Screen,2_1_1_1_42,2022-04-27T20:34:13.744Z,,,,,,,,,,,,,,,,,54,,,,,,,,,,,,,,301.15000004769536,,response,,,,100,,,,,,,Space,keypress(Space),,,,,,,,-- --- ---- --- ------ ----- ------- ---- -- --- ------- --<br>------- ---------- ------ -- ----- -- ----- -- ---- ------<br>--- ----- --- --- ------ -------- ----- --- ------ ----- --<br>----- ----- ---------- --- --- ------ ------ ---- -- French<br>------- --- ------ ----- --- ---- ------- -- ---- --- --<br>------- ------,144961.89999997616,144961.70000004768,144653.581,144656,144660.55,144966.097,,42,French
screen,html.Screen,2_1_1_1_43,2022-04-27T20:34:14.057Z,,,,,,,,,,,,,,,,,54,,,,,,,,,,,,,,308.60300004767487,,response,,,,100,,,,,,,Space,keypress(Space),,,,,,,,-- --- ---- --- ------ ----- ------- ---- -- --- ------- --<br>------- ---------- ------ -- ----- -- ----- -- ---- ------<br>--- ----- --- --- ------ -------- ----- --- ------ ----- --<br>----- ----- ---------- --- --- ------ ------ ---- -- ------<br>credit. --- ------ ----- --- ---- ------- -- ---- --- --<br>------- ------,145275,145274.70000004768,144959.193,144962.10000002384,144966.097,145278.615,,43,credit.
screen,html.Screen,2_1_1_1_44,2022-04-27T20:34:14.299Z,,,,,,,,,,,,,,,,,54,,,,,,,,,,,,,,238.08500004769303,,response,,,,100,,,,,,,Space,keypress(Space),,,,,,,,-- --- ---- --- ------ ----- ------- ---- -- --- ------- --<br>------- ---------- ------ -- ----- -- ----- -- ---- ------<br>--- ----- --- --- ------ -------- ----- --- ------ ----- --<br>----- ----- ---------- --- --- ------ ------ ---- -- ------<br>------- The ------ ----- --- ---- ------- -- ---- --- --<br>------- ------,145517,145516.70000004768,145271.636,145275,145278.615,145521.664,,44,The
screen,html.Screen,2_1_1_1_45,2022-04-27T20:34:14.575Z,,,,,,,,,,,,,,,,,54,,,,,,,,,,,,,,271.03600004769396,,response,,,,100,,,,,,,Space,keypress(Space),,,,,,,,-- --- ---- --- ------ ----- ------- ---- -- --- ------- --<br>------- ---------- ------ -- ----- -- ----- -- ---- ------<br>--- ----- --- --- ------ -------- ----- --- ------ ----- --<br>----- ----- ---------- --- --- ------ ------ ---- -- ------<br>------- --- French ----- --- ---- ------- -- ---- --- --<br>------- ------,145793,145792.70000004768,145514.694,145517.10000002384,145521.664,145799.438,,45,French
screen,html.Screen,2_1_1_1_46,2022-04-27T20:34:14.969Z,,,,,,,,,,,,,,,,,54,,,,,,,,,,,,,,387.36199995232164,,response,,,,100,,,,,,,Space,keypress(Space),,,,,,,,-- --- ---- --- ------ ----- ------- ---- -- --- ------- --<br>------- ---------- ------ -- ----- -- ----- -- ---- ------<br>--- ----- --- --- ------ -------- ----- --- ------ ----- --<br>----- ----- ---------- --- --- ------ ------ ---- -- ------<br>------- --- ------ state --- ---- ------- -- ---- --- --<br>------- ------,146187.20000004768,146186.79999995232,145792.476,145793,145799.438,146209.497,,46,state
screen,html.Screen,2_1_1_1_47,2022-04-27T20:34:15.276Z,,,,,,,,,,,,,,,,,54,,,,,,,,,,,,,,284.30299995231326,,response,,,,100,,,,,,,Space,keypress(Space),,,,,,,,-- --- ---- --- ------ ----- ------- ---- -- --- ------- --<br>------- ---------- ------ -- ----- -- ----- -- ---- ------<br>--- ----- --- --- ------ -------- ----- --- ------ ----- --<br>----- ----- ---------- --- --- ------ ------ ---- -- ------<br>------- --- ------ ----- was ---- ------- -- ---- --- --<br>------- ------,146494.10000002384,146493.79999995232,146181.346,146187.20000004768,146209.497,146500.808,,47,was
screen,html.Screen,2_1_1_1_48,2022-04-27T20:34:15.571Z,,,,,,,,,,,,,,,,,54,,,,,,,,,,,,,,288.19200000001,,response,,,,100,,,,,,,Space,keypress(Space),,,,,,,,-- --- ---- --- ------ ----- ------- ---- -- --- ------- --<br>------- ---------- ------ -- ----- -- ----- -- ---- ------<br>--- ----- --- --- ------ -------- ----- --- ------ ----- --<br>----- ----- ---------- --- --- ------ ------ ---- -- ------<br>------- --- ------ ----- --- left ------- -- ---- --- --<br>------- ------,146789.29999995232,146789,146493.88,146494.20000004768,146500.808,146792.529,,48,left
screen,html.Screen,2_1_1_1_49,2022-04-27T20:34:15.827Z,,,,,,,,,,,,,,,,,54,,,,,,,,,,,,,,252.3709999761486,,response,,,,100,,,,,,,Space,keypress(Space),,,,,,,,-- --- ---- --- ------ ----- ------- ---- -- --- ------- --<br>------- ---------- ------ -- ----- -- ----- -- ---- ------<br>--- ----- --- --- ------ -------- ----- --- ------ ----- --<br>----- ----- ---------- --- --- ------ ------ ---- -- ------<br>------- --- ------ ----- --- ---- without -- ---- --- --<br>------- ------,147045.10000002384,147044.89999997616,146785.521,146789.29999995232,146792.529,147049.408,,49,without
screen,html.Screen,2_1_1_1_50,2022-04-27T20:34:16.115Z,,,,,,,,,,,,,,,,,54,,,,,,,,,,,,,,283.49199997616233,,response,,,,100,,,,,,,Space,keypress(Space),,,,,,,,-- --- ---- --- ------ ----- ------- ---- -- --- ------- --<br>------- ---------- ------ -- ----- -- ----- -- ---- ------<br>--- ----- --- --- ------ -------- ----- --- ------ ----- --<br>----- ----- ---------- --- --- ------ ------ ---- -- ------<br>------- --- ------ ----- --- ---- ------- an ---- --- --<br>------- ------,147333.20000004768,147332.89999997616,147042.475,147045.20000004768,147049.408,147341.088,,50,an
screen,html.Screen,2_1_1_1_51,2022-04-27T20:34:16.372Z,,,,,,,,,,,,,,,,,54,,,,,,,,,,,,,,248.81199997616932,,response,,,,100,,,,,,,Space,keypress(Space),,,,,,,,-- --- ---- --- ------ ----- ------- ---- -- --- ------- --<br>------- ---------- ------ -- ----- -- ----- -- ---- ------<br>--- ----- --- --- ------ -------- ----- --- ------ ----- --<br>----- ----- ---------- --- --- ------ ------ ---- -- ------<br>------- --- ------ ----- --- ---- ------- -- easy --- --<br>------- ------,147590.20000004768,147589.89999997616,147334.165,147333.29999995232,147341.088,147601.347,,51,easy
screen,html.Screen,2_1_1_1_52,2022-04-27T20:34:16.697Z,,,,,,,,,,,,,,,,,54,,,,,,,,,,,,,,312.65299999999115,,response,,,,100,,,,,,,Space,keypress(Space),,,,,,,,-- --- ---- --- ------ ----- ------- ---- -- --- ------- --<br>------- ---------- ------ -- ----- -- ----- -- ---- ------<br>--- ----- --- --- ------ -------- ----- --- ------ ----- --<br>----- ----- ---------- --- --- ------ ------ ---- -- ------<br>------- --- ------ ----- --- ---- ------- -- ---- way --<br>------- ------,147914.39999997616,147914,147584.143,147590.20000004768,147601.347,147917.456,,52,way
screen,html.Screen,2_1_1_1_53,2022-04-27T20:34:16.980Z,,,,,,,,,,,,,,,,,54,,,,,,,,,,,,,,279.8439999523107,,response,,,,100,,,,,,,Space,keypress(Space),,,,,,,,-- --- ---- --- ------ ----- ------- ---- -- --- ------- --<br>------- ---------- ------ -- ----- -- ----- -- ---- ------<br>--- ----- --- --- ------ -------- ----- --- ------ ----- --<br>----- ----- ---------- --- --- ------ ------ ---- -- ------<br>------- --- ------ ----- --- ---- ------- -- ---- --- of<br>------- ------,148197.5,148197.29999995232,147910.544,147914.39999997616,147917.456,148209.124,,53,of
screen,html.Screen,2_1_1_1_54,2022-04-27T20:34:17.353Z,,,,,,,,,,,,,,,,,54,,,,,,,,,,,,,,360.97600002383115,,response,,,,100,,,,,,,Space,keypress(Space),,,,,,,,-- --- ---- --- ------ ----- ------- ---- -- --- ------- --<br>------- ---------- ------ -- ----- -- ----- -- ---- ------<br>--- ----- --- --- ------ -------- ----- --- ------ ----- --<br>----- ----- ---------- --- --- ------ ------ ---- -- ------<br>------- --- ------ ----- --- ---- ------- -- ---- --- --<br>raising ------,148570.39999997616,148570.10000002384,148202.186,148197.60000002384,148209.124,148577.17,,54,raising
screen,html.Screen,2_1_1_1_55,2022-04-27T20:34:17.712Z,,,,,,,,,,,,,,,,,54,,,,,,,,,,,,,,351.93000002382905,,response,,,,100,,,,,,,Space,keypress(Space),,,,,,,,-- --- ---- --- ------ ----- ------- ---- -- --- ------- --<br>------- ---------- ------ -- ----- -- ----- -- ---- ------<br>--- ----- --- --- ------ -------- ----- --- ------ ----- --<br>----- ----- ---------- --- --- ------ ------ ---- -- ------<br>------- --- ------ ----- --- ---- ------- -- ---- --- --<br>------- money.,148929.39999997616,148929.10000002384,148570.272,148570.39999997616,148577.17,148931.394,,55,money.
Item 100,flow.Loop,2_1_1_1,2022-04-27T20:34:17.712Z,,,,,,,,,,,,,,,,,,,,,,,,,,,,,,,22191.953000023845,,completion,,,,,C,,,,,,,,,,,silence,,,,,148929.5,148929.10000002384,126730.258,126730.60000002384,126737.147,148931.394,,,
Question 1,html.Screen,2_1_1_2,2022-04-27T20:34:21.613Z,,,,,,,,,,,,,,,,,,,,,,,,,,,,true,TRUE,,3899.405999952316,,response,,,,100,C,,,,,,TRUE,click #choice-1,,,,silence,,,,,152831.39999997616,152830.79999995232,148924.391,148929.60000002384,148931.394,152834.113,,,
Question 2,html.Screen,2_1_1_3,2022-04-27T20:34:24.442Z,,,,,,,,,,,,,,,,,,,,,,,,,,,,true,FALSE,,2825.686999952304,,response,,,,100,C,,,,,,FALSE,click #choice-2,,,,silence,,,,,155660.20000004768,155659.79999995232,152827.163,152831.39999997616,152834.113,155671.483,,,
Item 100,flow.Sequence,2_1_1,2022-04-27T20:34:24.442Z,,,,,,,,,,,,,,,,,,,,,,,,,,,,,,,38922.51699995232,,completion,,,,,,,,,,,,,,,,,,,,,155660.39999997616,155659.79999995232,116730.285,116732.39999997616,116737.283,155671.483,,,
End of Practice,html.Page,2_1_2,2022-04-27T20:34:29.122Z,,,,,,,,,,,,,,,,,,,,,,,,,,,,,,,4668.717000047676,,form submission,,,,,,,,,,,,,,,,,,,,,160340.29999995232,160340.20000004768,155653.488,155660.39999997616,155671.483,160340.935,,,
Practice,flow.Sequence,2_1,2022-04-27T20:34:29.122Z,,,,,,,,,,,,,,,,,,,,,,,,,,,,,,,91227.42200004768,,completion,,,,,,,,,,,,,,,,,,,,,160340.39999997616,160340.20000004768,69105.785,69111.5,69112.778,160340.935,,,
Trap_instruction,html.Page,2_2_0,2022-04-27T20:34:34.576Z,,,,,,,,,,,,,,,,,,,,,,,,,,,,,,,5453.364999952319,,form submission,,,,,,,,,,,,,,,,,,,,,165794.5,165794.29999995232,160333.981,160340.5,160340.935,165799.217,,,
trap_trial,html.Screen,2_2_1,2022-04-27T20:34:37.425Z,,,,,,,,,,,,,,,,,,,,,,,,,,,,true,1,,2843.582999952312,,response,,,,,,,,,,,1,click #choice-1,,,,,,,,,168643.20000004768,168642.79999995232,165792.285,165794.60000002384,165799.217,168646.427,,,
end of trap trial,html.Page,2_2_2,2022-04-27T20:34:39.498Z,,,,,,,,,,,,,,,,,,,,,,,,,,,,,,,2069.7730000476877,,form submission,,,,,,,,,,,,,,,,,,,,,170716.39999997616,170716.20000004768,168639.472,168643.29999995232,168646.427,170722.784,,,
Trap 1,flow.Sequence,2_2,2022-04-27T20:34:39.498Z,,,,,,,,,,,,,,,,,,,,,,,,,,,,,,,10375.265000047686,,completion,,,,,,,,,,,,,,,,,,,,,170716.5,170716.20000004768,160333.981,160340.5,160340.935,170722.784,,,
Standby,html.Page,2_3_0,2022-04-27T20:34:47.498Z,,,,,,,,,,,,,,,,,,,,,,,,,,,,,,,7999.901999999973,,timeout,,,,,,,,,,,,,,,,,,,,,178716,178715.771,170715.913,170716.60000002384,170722.784,178722.686,,,
Holding screen,html.Screen,2_3_1_0_0,2022-04-27T20:34:54.498Z,,,,,,,,,,,,,,,,,,,,,,,,,,,,,,,7000.010999999999,,timeout,,,,,,,,,,,,,,,,,,,,,185716,185715.7,178715.771,178716.20000004768,178722.686,185722.697,,,
screen,html.Screen,2_3_1_0_1_0,2022-04-27T20:34:57.314Z,,,,,,,,,,,,,,,,,51,,,,,,,,,,,,,,2809.1029999523307,,response,,,,13,C,,,,,,Space,keypress(Space),,,,instrumental,,,,American -------- --- --- ---- --- --- ------ -- --------<br>---- --------- --- ------- ------------ ---------- ---------<br>--- ---------- ------- ---------- ------- -- -------- ----<br>---- --- ------ ----- ------ -- ---- --- ----- -- - -------<br>-------- -- --- --- -- ----- ----------- ----- -----------<br>---- --- ---------- --- ---- --- -- ----------,188532.20000004768,188531.79999995232,185715.7,185716.10000002384,185722.697,188535.275,,0,American
screen,html.Screen,2_3_1_0_1_1,2022-04-27T20:34:57.807Z,,,,,,,,,,,,,,,,,51,,,,,,,,,,,,,,489.42500004768954,,response,,,,13,C,,,,,,Space,keypress(Space),,,,instrumental,,,,-------- industry --- --- ---- --- --- ------ -- --------<br>---- --------- --- ------- ------------ ---------- ---------<br>--- ---------- ------- ---------- ------- -- -------- ----<br>---- --- ------ ----- ------ -- ---- --- ----- -- - -------<br>-------- -- --- --- -- ----- ----------- ----- -----------<br>---- --- ---------- --- ---- --- -- ----------,189025,189024.70000004768,188528.059,188532.20000004768,188535.275,189028.157,,1,industry
screen,html.Screen,2_3_1_0_1_2,2022-04-27T20:34:58.229Z,,,,,,,,,,,,,,,,,51,,,,,,,,,,,,,,418.5430000476772,,response,,,,13,C,,,,,,Space,keypress(Space),,,,instrumental,,,,-------- -------- may --- ---- --- --- ------ -- --------<br>---- --------- --- ------- ------------ ---------- ---------<br>--- ---------- ------- ---------- ------- -- -------- ----<br>---- --- ------ ----- ------ -- ---- --- ----- -- - -------<br>-------- -- --- --- -- ----- ----------- ----- -----------<br>---- --- ---------- --- ---- --- -- ----------,189447.10000002384,189446.70000004768,189021.201,189025.10000002384,189028.157,189451.735,,2,may
screen,html.Screen,2_3_1_0_1_3,2022-04-27T20:34:59.457Z,,,,,,,,,,,,,,,,,51,,,,,,,,,,,,,,1223.164999976172,,response,,,,13,C,,,,,,Space,keypress(Space),,,,instrumental,,,,-------- -------- --- not ---- --- --- ------ -- --------<br>---- --------- --- ------- ------------ ---------- ---------<br>--- ---------- ------- ---------- ------- -- -------- ----<br>---- --- ------ ----- ------ -- ---- --- ----- -- - -------<br>-------- -- --- --- -- ----- ----------- ----- -----------<br>---- --- ---------- --- ---- --- -- ----------,190675.20000004768,190674.89999997616,189444.757,189447.10000002384,189451.735,190681.014,,3,not
screen,html.Screen,2_3_1_0_1_4,2022-04-27T20:34:59.978Z,,,,,,,,,,,,,,,,,51,,,,,,,,,,,,,,514.8859999761626,,response,,,,13,C,,,,,,Space,keypress(Space),,,,instrumental,,,,-------- -------- --- --- know --- --- ------ -- --------<br>---- --------- --- ------- ------------ ---------- ---------<br>--- ---------- ------- ---------- ------- -- -------- ----<br>---- --- ------ ----- ------ -- ---- --- ----- -- - -------<br>-------- -- --- --- -- ----- ----------- ----- -----------<br>---- --- ---------- --- ---- --- -- ----------,191196.10000002384,191195.89999997616,190673.877,190675.29999995232,190681.014,191201.855,,4,know
screen,html.Screen,2_3_1_0_1_5,2022-04-27T20:35:00.326Z,,,,,,,,,,,,,,,,,51,,,,,,,,,,,,,,342.04499997614766,,response,,,,13,C,,,,,,Space,keypress(Space),,,,instrumental,,,,"-------- -------- --- --- ---- it, --- ------ -- --------<br>---- --------- --- ------- ------------ ---------- ---------<br>--- ---------- ------- ---------- ------- -- -------- ----<br>---- --- ------ ----- ------ -- ---- --- ----- -- - -------<br>-------- -- --- --- -- ----- ----------- ----- -----------<br>---- --- ---------- --- ---- --- -- ----------",191544.29999995232,191543.89999997616,191194.775,191196.20000004768,191201.855,191548.928,,5,"it,"
screen,html.Screen,2_3_1_0_1_6,2022-04-27T20:35:00.705Z,,,,,,,,,,,,,,,,,51,,,,,,,,,,,,,,374.07199999998556,,response,,,,13,C,,,,,,Space,keypress(Space),,,,instrumental,,,,-------- -------- --- --- ---- --- but ------ -- --------<br>---- --------- --- ------- ------------ ---------- ---------<br>--- ---------- ------- ---------- ------- -- -------- ----<br>---- --- ------ ----- ------ -- ---- --- ----- -- - -------<br>-------- -- --- --- -- ----- ----------- ----- -----------<br>---- --- ---------- --- ---- --- -- ----------,191923.29999995232,191923,191541.977,191544.29999995232,191548.928,191945.596,,6,but
screen,html.Screen,2_3_1_0_1_7,2022-04-27T20:35:01.065Z,,,,,,,,,,,,,,,,,51,,,,,,,,,,,,,,337.40400000000955,,response,,,,13,C,,,,,,Space,keypress(Space),,,,instrumental,,,,-------- -------- --- --- ---- --- --- debate -- --------<br>---- --------- --- ------- ------------ ---------- ---------<br>--- ---------- ------- ---------- ------- -- -------- ----<br>---- --- ------ ----- ------ -- ---- --- ----- -- - -------<br>-------- -- --- --- -- ----- ----------- ----- -----------<br>---- --- ---------- --- ---- --- -- ----------,192283.29999995232,192283,191916.963,191923.29999995232,191945.596,192285.054,,7,debate
screen,html.Screen,2_3_1_0_1_8,2022-04-27T20:35:01.407Z,,,,,,,,,,,,,,,,,51,,,,,,,,,,,,,,340.04600002383813,,response,,,,13,C,,,,,,Space,keypress(Space),,,,instrumental,,,,-------- -------- --- --- ---- --- --- ------ in --------<br>---- --------- --- ------- ------------ ---------- ---------<br>--- ---------- ------- ---------- ------- -- -------- ----<br>---- --- ------ ----- ------ -- ---- --- ----- -- - -------<br>-------- -- --- --- -- ----- ----------- ----- -----------<br>---- --- ---------- --- ---- --- -- ----------,192625.39999997616,192625.10000002384,192278.084,192283.39999997616,192285.054,192632.257,,8,in
screen,html.Screen,2_3_1_0_1_9,2022-04-27T20:35:01.785Z,,,,,,,,,,,,,,,,,51,,,,,,,,,,,,,,370.8430000238295,,response,,,,13,C,,,,,,Space,keypress(Space),,,,instrumental,,,,-------- -------- --- --- ---- --- --- ------ -- Congress<br>---- --------- --- ------- ------------ ---------- ---------<br>--- ---------- ------- ---------- ------- -- -------- ----<br>---- --- ------ ----- ------ -- ---- --- ----- -- - -------<br>-------- -- --- --- -- ----- ----------- ----- -----------<br>---- --- ---------- --- ---- --- -- ----------,193003.39999997616,193003.10000002384,192625.289,192625.39999997616,192632.257,193007.254,,9,Congress
screen,html.Screen,2_3_1_0_1_10,2022-04-27T20:35:02.144Z,,,,,,,,,,,,,,,,,51,,,,,,,,,,,,,,354.8460000238556,,response,,,,13,C,,,,,,Space,keypress(Space),,,,instrumental,,,,-------- -------- --- --- ---- --- --- ------ -- --------<br>over --------- --- ------- ------------ ---------- ---------<br>--- ---------- ------- ---------- ------- -- -------- ----<br>---- --- ------ ----- ------ -- ---- --- ----- -- - -------<br>-------- -- --- --- -- ----- ----------- ----- -----------<br>---- --- ---------- --- ---- --- -- ----------,193362.5,193362.10000002384,193000.294,193003.39999997616,193007.254,193368.37,,10,over
screen,html.Screen,2_3_1_0_1_11,2022-04-27T20:35:02.534Z,,,,,,,,,,,,,,,,,51,,,,,,,,,,,,,,384.0299999761628,,response,,,,13,C,,,,,,Space,keypress(Space),,,,instrumental,,,,-------- -------- --- --- ---- --- --- ------ -- --------<br>---- reforming --- ------- ------------ ---------- ---------<br>--- ---------- ------- ---------- ------- -- -------- ----<br>---- --- ------ ----- ------ -- ---- --- ----- -- - -------<br>-------- -- --- --- -- ----- ----------- ----- -----------<br>---- --- ---------- --- ---- --- -- ----------,193752.70000004768,193752.39999997616,193361.408,193362.5,193368.37,193757.289,,11,reforming
screen,html.Screen,2_3_1_0_1_12,2022-04-27T20:35:02.866Z,,,,,,,,,,,,,,,,,51,,,,,,,,,,,,,,327.01099995232653,,response,,,,13,C,,,,,,Space,keypress(Space),,,,instrumental,,,,-------- -------- --- --- ---- --- --- ------ -- --------<br>---- --------- the ------- ------------ ---------- ---------<br>--- ---------- ------- ---------- ------- -- -------- ----<br>---- --- ------ ----- ------ -- ---- --- ----- -- - -------<br>-------- -- --- --- -- ----- ----------- ----- -----------<br>---- --- ---------- --- ---- --- -- ----------,194084.70000004768,194084.29999995232,193750.31,193752.70000004768,193757.289,194090.573,,12,the
screen,html.Screen,2_3_1_0_1_13,2022-04-27T20:35:03.230Z,,,,,,,,,,,,,,,,,51,,,,,,,,,,,,,,357.7269999523123,,response,,,,13,C,,,,,,Space,keypress(Space),,,,instrumental,,,,-------- -------- --- --- ---- --- --- ------ -- --------<br>---- --------- --- federal ------------ ---------- ---------<br>--- ---------- ------- ---------- ------- -- -------- ----<br>---- --- ------ ----- ------ -- ---- --- ----- -- - -------<br>-------- -- --- --- -- ----- ----------- ----- -----------<br>---- --- ---------- --- ---- --- -- ----------,194448.60000002384,194448.29999995232,194083.643,194084.70000004768,194090.573,194451.688,,13,federal
screen,html.Screen,2_3_1_0_1_14,2022-04-27T20:35:03.531Z,,,,,,,,,,,,,,,,,51,,,,,,,,,,,,,,297.61199995232164,,response,,,,13,C,,,,,,Space,keypress(Space),,,,instrumental,,,,-------- -------- --- --- ---- --- --- ------ -- --------<br>---- --------- --- ------- government's ---------- ---------<br>--- ---------- ------- ---------- ------- -- -------- ----<br>---- --- ------ ----- ------ -- ---- --- ----- -- - -------<br>-------- -- --- --- -- ----- ----------- ----- -----------<br>---- --- ---------- --- ---- --- -- ----------,194749.60000002384,194749.29999995232,194444.709,194448.70000004768,194451.688,194772.093,,14,government's
screen,html.Screen,2_3_1_0_1_15,2022-04-27T20:35:03.959Z,,,,,,,,,,,,,,,,,51,,,,,,,,,,,,,,405.30699997616466,,response,,,,13,C,,,,,,Space,keypress(Space),,,,instrumental,,,,-------- -------- --- --- ---- --- --- ------ -- --------<br>---- --------- --- ------- ------------ regulatory ---------<br>--- ---------- ------- ---------- ------- -- -------- ----<br>---- --- ------ ----- ------ -- ---- --- ----- -- - -------<br>-------- -- --- --- -- ----- ----------- ----- -----------<br>---- --- ---------- --- ---- --- -- ----------,195177.60000002384,195177.39999997616,194743.331,194749.70000004768,194772.093,195180.909,,15,regulatory
screen,html.Screen,2_3_1_0_1_16,2022-04-27T20:35:04.321Z,,,,,,,,,,,,,,,,,51,,,,,,,,,,,,,,358.49099997614394,,response,,,,13,C,,,,,,Space,keypress(Space),,,,instrumental,,,,-------- -------- --- --- ---- --- --- ------ -- --------<br>---- --------- --- ------- ------------ ---------- apparatus<br>--- ---------- ------- ---------- ------- -- -------- ----<br>---- --- ------ ----- ------ -- ---- --- ----- -- - -------<br>-------- -- --- --- -- ----- ----------- ----- -----------<br>---- --- ---------- --- ---- --- -- ----------,195539.70000004768,195539.39999997616,195173.876,195177.70000004768,195180.909,195541.99,,16,apparatus
screen,html.Screen,2_3_1_0_1_17,2022-04-27T20:35:04.700Z,,,,,,,,,,,,,,,,,51,,,,,,,,,,,,,,376.5100000000093,,response,,,,13,C,,,,,,Space,keypress(Space),,,,instrumental,,,,-------- -------- --- --- ---- --- --- ------ -- --------<br>---- --------- --- ------- ------------ ---------- ---------<br>may ---------- ------- ---------- ------- -- -------- ----<br>---- --- ------ ----- ------ -- ---- --- ----- -- - -------<br>-------- -- --- --- -- ----- ----------- ----- -----------<br>---- --- ---------- --- ---- --- -- ----------,195918.79999995232,195918.5,195535.031,195539.79999995232,195541.99,195923.901,,17,may
screen,html.Screen,2_3_1_0_1_18,2022-04-27T20:35:05.056Z,,,,,,,,,,,,,,,,,51,,,,,,,,,,,,,,350.5989999999874,,response,,,,13,C,,,,,,Space,keypress(Space),,,,instrumental,,,,-------- -------- --- --- ---- --- --- ------ -- --------<br>---- --------- --- ------- ------------ ---------- ---------<br>--- profoundly ------- ---------- ------- -- -------- ----<br>---- --- ------ ----- ------ -- ---- --- ----- -- - -------<br>-------- -- --- --- -- ----- ----------- ----- -----------<br>---- --- ---------- --- ---- --- -- ----------,196274.79999995232,196274.5,195916.919,195918.89999997616,195923.901,196278.144,,18,profoundly
screen,html.Screen,2_3_1_0_1_19,2022-04-27T20:35:05.403Z,,,,,,,,,,,,,,,,,51,,,,,,,,,,,,,,343.4560000238416,,response,,,,13,C,,,,,,Space,keypress(Space),,,,instrumental,,,,-------- -------- --- --- ---- --- --- ------ -- --------<br>---- --------- --- ------- ------------ ---------- ---------<br>--- ---------- improve ---------- ------- -- -------- ----<br>---- --- ------ ----- ------ -- ---- --- ----- -- - -------<br>-------- -- --- --- -- ----- ----------- ----- -----------<br>---- --- ---------- --- ---- --- -- ----------,196621.79999995232,196621.60000002384,196271.094,196274.89999997616,196278.144,196625.271,,19,improve
screen,html.Screen,2_3_1_0_1_20,2022-04-27T20:35:05.742Z,,,,,,,,,,,,,,,,,51,,,,,,,,,,,,,,335.32900002383394,,response,,,,13,C,,,,,,Space,keypress(Space),,,,instrumental,,,,-------- -------- --- --- ---- --- --- ------ -- --------<br>---- --------- --- ------- ------------ ---------- ---------<br>--- ---------- ------- companies' ------- -- -------- ----<br>---- --- ------ ----- ------ -- ---- --- ----- -- - -------<br>-------- -- --- --- -- ----- ----------- ----- -----------<br>---- --- ---------- --- ---- --- -- ----------,196960.89999997616,196960.60000002384,196618.337,196621.89999997616,196625.271,196965.552,,20,companies'
screen,html.Screen,2_3_1_0_1_21,2022-04-27T20:35:06.094Z,,,,,,,,,,,,,,,,,51,,,,,,,,,,,,,,346.0480000238458,,response,,,,13,C,,,,,,Space,keypress(Space),,,,instrumental,,,,-------- -------- --- --- ---- --- --- ------ -- --------<br>---- --------- --- ------- ------------ ---------- ---------<br>--- ---------- ------- ---------- ability -- -------- ----<br>---- --- ------ ----- ------ -- ---- --- ----- -- - -------<br>-------- -- --- --- -- ----- ----------- ----- -----------<br>---- --- ---------- --- ---- --- -- ----------,197311.89999997616,197311.60000002384,196958.581,196960.89999997616,196965.552,197329.983,,21,ability
screen,html.Screen,2_3_1_0_1_22,2022-04-27T20:35:06.384Z,,,,,,,,,,,,,,,,,51,,,,,,,,,,,,,,271.71700004767627,,response,,,,13,C,,,,,,Space,keypress(Space),,,,instrumental,,,,-------- -------- --- --- ---- --- --- ------ -- --------<br>---- --------- --- ------- ------------ ---------- ---------<br>--- ---------- ------- ---------- ------- to -------- ----<br>---- --- ------ ----- ------ -- ---- --- ----- -- - -------<br>-------- -- --- --- -- ----- ----------- ----- -----------<br>---- --- ---------- --- ---- --- -- ----------,197601.89999997616,197601.70000004768,197305.819,197312,197329.983,197604.461,,22,to
screen,html.Screen,2_3_1_0_1_23,2022-04-27T20:35:06.731Z,,,,,,,,,,,,,,,,,51,,,,,,,,,,,,,,344.23900004767347,,response,,,,13,C,,,,,,Space,keypress(Space),,,,instrumental,,,,-------- -------- --- --- ---- --- --- ------ -- --------<br>---- --------- --- ------- ------------ ---------- ---------<br>--- ---------- ------- ---------- ------- -- survive. ----<br>---- --- ------ ----- ------ -- ---- --- ----- -- - -------<br>-------- -- --- --- -- ----- ----------- ----- -----------<br>---- --- ---------- --- ---- --- -- ----------,197949,197948.70000004768,197597.481,197602,197604.461,197951.644,,23,survive.
screen,html.Screen,2_3_1_0_1_24,2022-04-27T20:35:07.067Z,,,,,,,,,,,,,,,,,51,,,,,,,,,,,,,,333.15599995231605,,response,,,,13,C,,,,,,Space,keypress(Space),,,,instrumental,,,,-------- -------- --- --- ---- --- --- ------ -- --------<br>---- --------- --- ------- ------------ ---------- ---------<br>--- ---------- ------- ---------- ------- -- -------- This<br>---- --- ------ ----- ------ -- ---- --- ----- -- - -------<br>-------- -- --- --- -- ----- ----------- ----- -----------<br>---- --- ---------- --- ---- --- -- ----------,198285.10000002384,198284.79999995232,197944.671,197949.10000002384,197951.644,198291.917,,24,This
screen,html.Screen,2_3_1_0_1_25,2022-04-27T20:35:07.390Z,,,,,,,,,,,,,,,,,51,,,,,,,,,,,,,,316.08300000001327,,response,,,,13,C,,,,,,Space,keypress(Space),,,,instrumental,,,,-------- -------- --- --- ---- --- --- ------ -- --------<br>---- --------- --- ------- ------------ ---------- ---------<br>--- ---------- ------- ---------- ------- -- -------- ----<br>week --- ------ ----- ------ -- ---- --- ----- -- - -------<br>-------- -- --- --- -- ----- ----------- ----- -----------<br>---- --- ---------- --- ---- --- -- ----------,198608.29999995232,198608,198284.967,198285.20000004768,198291.917,198611.363,,25,week
screen,html.Screen,2_3_1_0_1_26,2022-04-27T20:35:07.714Z,,,,,,,,,,,,,,,,,51,,,,,,,,,,,,,,320.3370000476716,,response,,,,13,C,,,,,,Space,keypress(Space),,,,instrumental,,,,-------- -------- --- --- ---- --- --- ------ -- --------<br>---- --------- --- ------- ------------ ---------- ---------<br>--- ---------- ------- ---------- ------- -- -------- ----<br>---- the ------ ----- ------ -- ---- --- ----- -- - -------<br>-------- -- --- --- -- ----- ----------- ----- -----------<br>---- --- ---------- --- ---- --- -- ----------,198932.10000002384,198931.70000004768,198604.388,198608.29999995232,198611.363,198937.785,,26,the
screen,html.Screen,2_3_1_0_1_27,2022-04-27T20:35:08.026Z,,,,,,,,,,,,,,,,,51,,,,,,,,,,,,,,306.0149999523128,,response,,,,13,C,,,,,,Space,keypress(Space),,,,instrumental,,,,-------- -------- --- --- ---- --- --- ------ -- --------<br>---- --------- --- ------- ------------ ---------- ---------<br>--- ---------- ------- ---------- ------- -- -------- ----<br>---- --- Senate ----- ------ -- ---- --- ----- -- - -------<br>-------- -- --- --- -- ----- ----------- ----- -----------<br>---- --- ---------- --- ---- --- -- ----------,199244.10000002384,199243.79999995232,198930.795,198932.20000004768,198937.785,199250.245,,27,Senate
screen,html.Screen,2_3_1_0_1_28,2022-04-27T20:35:08.356Z,,,,,,,,,,,,,,,,,51,,,,,,,,,,,,,,323.55499995232094,,response,,,,13,C,,,,,,Space,keypress(Space),,,,instrumental,,,,-------- -------- --- --- ---- --- --- ------ -- --------<br>---- --------- --- ------- ------------ ---------- ---------<br>--- ---------- ------- ---------- ------- -- -------- ----<br>---- --- ------ seems ------ -- ---- --- ----- -- - -------<br>-------- -- --- --- -- ----- ----------- ----- -----------<br>---- --- ---------- --- ---- --- -- ----------,199574.20000004768,199573.79999995232,199243.324,199244.20000004768,199250.245,199576.683,,28,seems
screen,html.Screen,2_3_1_0_1_29,2022-04-27T20:35:08.665Z,,,,,,,,,,,,,,,,,51,,,,,,,,,,,,,,306.21699997616815,,response,,,,13,C,,,,,,Space,keypress(Space),,,,instrumental,,,,-------- -------- --- --- ---- --- --- ------ -- --------<br>---- --------- --- ------- ------------ ---------- ---------<br>--- ---------- ------- ---------- ------- -- -------- ----<br>---- --- ------ ----- poised -- ---- --- ----- -- - -------<br>-------- -- --- --- -- ----- ----------- ----- -----------<br>---- --- ---------- --- ---- --- -- ----------,199883.20000004768,199882.89999997616,199569.659,199574.29999995232,199576.683,199889.134,,29,poised
screen,html.Screen,2_3_1_0_1_30,2022-04-27T20:35:08.988Z,,,,,,,,,,,,,,,,,51,,,,,,,,,,,,,,316.7659999761672,,response,,,,13,C,,,,,,Space,keypress(Space),,,,instrumental,,,,-------- -------- --- --- ---- --- --- ------ -- --------<br>---- --------- --- ------- ------------ ---------- ---------<br>--- ---------- ------- ---------- ------- -- -------- ----<br>---- --- ------ ----- ------ to ---- --- ----- -- - -------<br>-------- -- --- --- -- ----- ----------- ----- -----------<br>---- --- ---------- --- ---- --- -- ----------,200206.20000004768,200205.89999997616,199882.193,199883.29999995232,199889.134,200208.581,,30,to
screen,html.Screen,2_3_1_0_1_31,2022-04-27T20:35:09.306Z,,,,,,,,,,,,,,,,,51,,,,,,,,,,,,,,315.4189999999944,,response,,,,13,C,,,,,,Space,keypress(Space),,,,instrumental,,,,-------- -------- --- --- ---- --- --- ------ -- --------<br>---- --------- --- ------- ------------ ---------- ---------<br>--- ---------- ------- ---------- ------- -- -------- ----<br>---- --- ------ ----- ------ -- join --- ----- -- - -------<br>-------- -- --- --- -- ----- ----------- ----- -----------<br>---- --- ---------- --- ---- --- -- ----------,200524.39999997616,200524,200201.618,200206.39999997616,200208.581,200528.002,,31,join
screen,html.Screen,2_3_1_0_1_32,2022-04-27T20:35:09.637Z,,,,,,,,,,,,,,,,,51,,,,,,,,,,,,,,326.9979999999923,,response,,,,13,C,,,,,,Space,keypress(Space),,,,instrumental,,,,-------- -------- --- --- ---- --- --- ------ -- --------<br>---- --------- --- ------- ------------ ---------- ---------<br>--- ---------- ------- ---------- ------- -- -------- ----<br>---- --- ------ ----- ------ -- ---- the ----- -- - -------<br>-------- -- --- --- -- ----- ----------- ----- -----------<br>---- --- ---------- --- ---- --- -- ----------,200855.29999995232,200855,200521.04,200524.39999997616,200528.002,200861.367,,32,the
screen,html.Screen,2_3_1_0_1_33,2022-04-27T20:35:09.937Z,,,,,,,,,,,,,,,,,51,,,,,,,,,,,,,,293.63300000000163,,response,,,,13,C,,,,,,Space,keypress(Space),,,,instrumental,,,,-------- -------- --- --- ---- --- --- ------ -- --------<br>---- --------- --- ------- ------------ ---------- ---------<br>--- ---------- ------- ---------- ------- -- -------- ----<br>---- --- ------ ----- ------ -- ---- --- House -- - -------<br>-------- -- --- --- -- ----- ----------- ----- -----------<br>---- --- ---------- --- ---- --- -- ----------,201155.29999995232,201155,200854.401,200855.29999995232,200861.367,201159.991,,33,House
screen,html.Screen,2_3_1_0_1_34,2022-04-27T20:35:10.250Z,,,,,,,,,,,,,,,,,51,,,,,,,,,,,,,,308.1090000238328,,response,,,,13,C,,,,,,Space,keypress(Space),,,,instrumental,,,,-------- -------- --- --- ---- --- --- ------ -- --------<br>---- --------- --- ------- ------------ ---------- ---------<br>--- ---------- ------- ---------- ------- -- -------- ----<br>---- --- ------ ----- ------ -- ---- --- ----- in - -------<br>-------- -- --- --- -- ----- ----------- ----- -----------<br>---- --- ---------- --- ---- --- -- ----------,201468.39999997616,201468.10000002384,201153.011,201155.39999997616,201159.991,201472.434,,34,in
screen,html.Screen,2_3_1_0_1_35,2022-04-27T20:35:10.569Z,,,,,,,,,,,,,,,,,51,,,,,,,,,,,,,,314.6660000238335,,response,,,,13,C,,,,,,Space,keypress(Space),,,,instrumental,,,,-------- -------- --- --- ---- --- --- ------ -- --------<br>---- --------- --- ------- ------------ ---------- ---------<br>--- ---------- ------- ---------- ------- -- -------- ----<br>---- --- ------ ----- ------ -- ---- --- ----- -- a -------<br>-------- -- --- --- -- ----- ----------- ----- -----------<br>---- --- ---------- --- ---- --- -- ----------,201787.5,201787.10000002384,201465.528,201468.39999997616,201472.434,201791.894,,35,a
screen,html.Screen,2_3_1_0_1_36,2022-04-27T20:35:11.361Z,,,,,,,,,,,,,,,,,51,,,,,,,,,,,,,,787.405999952316,,response,,,,13,C,,,,,,Space,keypress(Space),,,,instrumental,,,,-------- -------- --- --- ---- --- --- ------ -- --------<br>---- --------- --- ------- ------------ ---------- ---------<br>--- ---------- ------- ---------- ------- -- -------- ----<br>---- --- ------ ----- ------ -- ---- --- ----- -- - massive<br>-------- -- --- --- -- ----- ----------- ----- -----------<br>---- --- ---------- --- ---- --- -- ----------,202579.60000002384,202579.29999995232,201784.922,201787.5,201791.894,202583.57,,36,massive
screen,html.Screen,2_3_1_0_1_37,2022-04-27T20:35:12.355Z,,,,,,,,,,,,,,,,,51,,,,,,,,,,,,,,989.7299999523093,,response,,,,13,C,,,,,,Space,keypress(Space),,,,instrumental,,,,-------- -------- --- --- ---- --- --- ------ -- --------<br>---- --------- --- ------- ------------ ---------- ---------<br>--- ---------- ------- ---------- ------- -- -------- ----<br>---- --- ------ ----- ------ -- ---- --- ----- -- - -------<br>overhaul -- --- --- -- ----- ----------- ----- -----------<br>---- --- ---------- --- ---- --- -- ----------,203573.70000004768,203573.29999995232,202576.542,202579.70000004768,202583.57,203576.617,,37,overhaul
screen,html.Screen,2_3_1_0_1_38,2022-04-27T20:35:13.268Z,,,,,,,,,,,,,,,,,51,,,,,,,,,,,,,,909.7829999761598,,response,,,,13,C,,,,,,Space,keypress(Space),,,,instrumental,,,,-------- -------- --- --- ---- --- --- ------ -- --------<br>---- --------- --- ------- ------------ ---------- ---------<br>--- ---------- ------- ---------- ------- -- -------- ----<br>---- --- ------ ----- ------ -- ---- --- ----- -- - -------<br>-------- of --- --- -- ----- ----------- ----- -----------<br>---- --- ---------- --- ---- --- -- ----------,204486.70000004768,204486.39999997616,203569.594,203573.70000004768,203576.617,204493.239,,38,of
