sender,sender_type,sender_id,timestamp,meta,,Blues,Classical,Country,Dance,Electronic,Folk,Gospel,Hip-Hop,Jazz,Latin,Musical/Film,New-age,Pop,Prolific_id,Provo_ID,R&B,Rap,Reggae,Religious,Rock,Soul,Swing,Traditional,age,artist_name,correct,correctResponse,distraction,duration,education,ended_on,familiarity,gender,headphone_check_performance,item,list,music_frequency,offensiveness,pleasantness,position_correct,preference,response,response_action,snippet_file,song_name,song_rating,sound,stimulus_1,stimulus_2,stimulus_3,text,time_commit,time_end,time_render,time_run,time_show,time_switch,url,word,word_ID
Prolific ID,html.Form,0,2022-05-09T11:48:07.609Z,"{""labjs_version"":""20.2.2"",""labjs_build"":{""flavor"":""production"",""commit"":""a25486e0c714a0ae2ce03ff94b7bb6896854dcfa""},""location"":""https://run.pavlovia.org/mvasilev/prolific3_music_d/"",""userAgent"":""Mozilla/5.0 (Windows NT 10.0; Win64; x64) AppleWebKit/537.36 (KHTML, like Gecko) Chrome/101.0.4951.54 Safari/537.36"",""platform"":""Win32"",""language"":""en-GB"",""locale"":""en-GB"",""timeZone"":""Europe/London"",""timezoneOffset"":-60,""screen_width"":1500,""screen_height"":1000,""scroll_width"":1500,""scroll_height"":841,""window_innerWidth"":1500,""window_innerHeight"":889,""devicePixelRatio"":2}",,,,,,,,,,,,,,,6277fb597942c07d74b16b98,,,,,,,,,,,,,,,19691.928999928474,,form submission,,,,,,,,,,,,,,,,,,,,,27827.199999928474,27826.699999928474,8102.934,8107.199999928474,8134.771,27841.91,{},,
Introduction,html.Screen,1_0,2022-05-09T11:49:21.348Z,,,,,,,,,,,,,,,,,,,,,,,,,,,,,,,73720.38999995231,,response,,,,,,,,,,,continue,click button,,,,,,,,,101567.5,101562.29999995232,27808.584,27827.599999904633,27841.91,101596.055,,,
Volume calibration,html.Screen,1_1,2022-05-09T11:49:39.532Z,,,,,,,,,,,,,,,,,,,,,,,,,,,,,,,18149.04499990464,,response,,,,,,,,,,,continue,click button,,,,,,,,,119751,119745.09999990463,101562.843,101567.79999995232,101596.055,119748.187,,,
Task instructions,html.Screen,1_2,2022-05-09T11:49:43.257Z,,,,,,,,,,,,,,,,,,,,,,,,,,,,,,,3726.612999952311,,response,,,,,,,,,,,continue,click button,,,,,,,,,123476.29999995232,123474.79999995232,119731.633,119751.09999990463,119748.187,123509.106,,,
Sounds,html.Screen,1_3_0_0,2022-05-09T11:49:47.529Z,,,,,,,,,,,,,,,,,,,,,,,,,,,,,,,4250.865000000005,,timeout,,,,,,,,,2,,,,,,,,I,S,O,,127747.79999995232,127743.654,123492.216,123476.59999990463,123509.106,127759.971,,,
Judgement,html.Screen,1_3_0_1,2022-05-09T11:49:48.539Z,,,,,,,,,,,,,,,,,,,,,,,,,,,,false,2,,995.8289999523113,,response,,,,,,,,,2,,1,click #choice-1,,,,,I,S,O,,128757.79999995232,128755.79999995232,127743.654,127748,127759.971,128781.492,,,
Trial,flow.Sequence,1_3_0,2022-05-09T11:49:48.539Z,,,,,,,,,,,,,,,,,,,,,,,,,,,,,,,5246.6939999523165,,completion,,,,,,,,,2,,,,,,,,I,S,O,,128758.19999992847,128755.79999995232,123492.216,123476.59999990463,123509.106,128781.492,,,
Sounds,html.Screen,1_3_1_0,2022-05-09T11:49:52.801Z,,,,,,,,,,,,,,,,,,,,,,,,,,,,,,,4254.850999999995,,timeout,,,,,,,,,3,,,,,,,,O,I,S,,133020.39999997616,133019.721,128764.405,128758.79999995232,128781.492,133036.343,,,
Judgement,html.Screen,1_3_1_1,2022-05-09T11:49:53.605Z,,,,,,,,,,,,,,,,,,,,,,,,,,,,true,3,,785.2569999046391,,response,,,,,,,,,3,,3,click #choice-3,,,,,O,I,S,,133823.89999997616,133821.59999990463,133019.721,133020.59999990463,133036.343,133824.976,,,
Trial,flow.Sequence,1_3_1,2022-05-09T11:49:53.605Z,,,,,,,,,,,,,,,,,,,,,,,,,,,,,,,5040.107999904634,,completion,,,,,,,,,3,,,,,,,,O,I,S,,133824.39999997616,133821.59999990463,128764.405,128758.39999997616,128781.492,133824.976,,,
Sounds,html.Screen,1_3_2_0,2022-05-09T11:49:57.842Z,,,,,,,,,,,,,,,,,,,,,,,,,,,,,,,4251.679999999993,,timeout,,,,,,,,,1,,,,,,,,S,I,O,,138060.79999995232,138060.049,133808.631,133824.5,133824.976,138076.656,,,
Judgement,html.Screen,1_3_2_1,2022-05-09T11:49:58.505Z,,,,,,,,,,,,,,,,,,,,,,,,,,,,true,1,,645.74399997617,,response,,,,,,,,,1,,1,click #choice-1,,,,,S,I,O,,138724.29999995232,138722.39999997616,138060.049,138060.89999997616,138076.656,138726.839,,,
Trial,flow.Sequence,1_3_2,2022-05-09T11:49:58.506Z,,,,,,,,,,,,,,,,,,,,,,,,,,,,,,,4897.423999976163,,completion,,,,,,,,,1,,,,,,,,S,I,O,,138724.59999990463,138722.39999997616,133808.631,133824.5,133824.976,138726.839,,,
Sounds,html.Screen,1_3_3_0,2022-05-09T11:50:02.743Z,,,,,,,,,,,,,,,,,,,,,,,,,,,,,,,4249.614000000001,,timeout,,,,,,,,,1,,,,,,,,S,O,I,,142961.59999990463,142960.424,138710.44,138724.79999995232,138726.839,142976.453,,,
Judgement,html.Screen,1_3_3_1,2022-05-09T11:50:03.290Z,,,,,,,,,,,,,,,,,,,,,,,,,,,,true,1,,531.3469999523077,,response,,,,,,,,,1,,1,click #choice-1,,,,,S,O,I,,143509,143507.79999995232,142960.424,142961.89999997616,142976.453,143509.899,,,
Trial,flow.Sequence,1_3_3,2022-05-09T11:50:03.290Z,,,,,,,,,,,,,,,,,,,,,,,,,,,,,,,4780.960999952309,,completion,,,,,,,,,1,,,,,,,,S,O,I,,143509.29999995232,143507.79999995232,138710.44,138724.69999992847,138726.839,143509.899,,,
Sounds,html.Screen,1_3_4_0,2022-05-09T11:50:07.518Z,,,,,,,,,,,,,,,,,,,,,,,,,,,,,,,4242.8949999999895,,timeout,,,,,,,,,3,,,,,,,,I,O,S,,147736.79999995232,147735.604,143493.158,143509.5,143509.899,147752.794,,,
Judgement,html.Screen,1_3_4_1,2022-05-09T11:50:08.140Z,,,,,,,,,,,,,,,,,,,,,,,,,,,,true,3,,604.8059999046382,,response,,,,,,,,,3,,3,click #choice-3,,,,,I,O,S,,148359.29999995232,148357.59999990463,147735.604,147737,147752.794,148369.474,,,
Trial,flow.Sequence,1_3_4,2022-05-09T11:50:08.140Z,,,,,,,,,,,,,,,,,,,,,,,,,,,,,,,4847.700999904628,,completion,,,,,,,,,3,,,,,,,,I,O,S,,148359.5,148357.59999990463,143493.158,143509.39999997616,143509.899,148369.474,,,
Sounds,html.Screen,1_3_5_0,2022-05-09T11:50:12.385Z,,,,,,,,,,,,,,,,,,,,,,,,,,,,,,,4250.324000000022,,timeout,,,,,,,,,2,,,,,,,,O,S,I,,152604.09999990463,152602.686,148352.348,148359.69999992847,148369.474,152619.798,,,
Judgement,html.Screen,1_3_5_1,2022-05-09T11:50:12.895Z,,,,,,,,,,,,,,,,,,,,,,,,,,,,true,2,,493.10199997614836,,response,,,,,,,,,2,,2,click #choice-2,,,,,O,S,I,,153114.5,153112.89999997616,152602.686,152604.19999992847,152619.798,153119.481,,,
Trial,flow.Sequence,1_3_5,2022-05-09T11:50:12.896Z,,,,,,,,,,,,,,,,,,,,,,,,,,,,,,,4743.425999976171,,completion,,,,,,,,,2,,,,,,,,O,S,I,,153114.89999997616,153112.89999997616,148352.348,148359.59999990463,148369.474,153119.481,,,
Task,flow.Loop,1_3,2022-05-09T11:50:12.904Z,,,,,,,,,,,,,,,,,,,,,,,,,,,,,,,29603.79399997616,,completion,,,0.8333333333333334,,,,,,,,,,,,,,,,,,153122.79999995232,153112.89999997616,123492.216,123476.5,123509.106,153119.481,,,
Trap,html.Screen,1_4,2022-05-09T11:50:12.906Z,,,,,,,,,,,,,,,,,,,,,,,,,,,,,,,NaN,,skipped,,,,,,,,,,,,,,,,,,,,,153125.09999990463,153112.89999997616,,153124.89999997616,,153119.481,,,
Thanks,html.Screen,1_5,2022-05-09T11:50:15.977Z,,,,,,,,,,,,,,,,,,,,,,,,,,,,,,,3075.7189999284747,,response,,,,,,,,,,,continue,click button,,,,,,,,,156196.29999995232,156195.19999992847,153103.085,153125.19999992847,153119.481,159623.201,,,
Headphone screening,flow.Sequence,1,2022-05-09T11:50:15.977Z,,,,,,,,,,,,,,,,,,,,,,,,,,,,,,,128353.28999992847,,completion,,,,,,,,,,,,,,,,,,,,,156196.5,156195.19999992847,27808.584,27827.599999904633,27841.91,159623.201,,,
Instructions,html.Page,2_0,2022-05-09T11:50:32.520Z,,,,,,,,,,,,,,,,,,,,,,,,,,,,,,,13114.298999999999,,form submission,,,,,,,,,,,,,,,,,,,,,172737.89999997616,172737.5,159606.61,159614.69999992847,159623.201,172743.746,,,
Holding screen,html.Screen,2_1_0_0,2022-05-09T11:50:42.506Z,,,,,,,,,,,,,,,,,,,,,,,,,,,,,,,10013.286999999982,,timeout,,,,,,,,,,,,,,,,,,,,,182724.69999992847,182723.788,172727.134,172738.19999992847,172743.746,182757.033,,,
screen,html.Screen,2_1_0_1_0,2022-05-09T11:50:44.505Z,,,,,,,,,,,,,,,,,53,,,,,,,,,,,,,,1962.4670000000042,,response,,,,99,,,,,,,Space,keypress(Space),,,,,,,,When -- ----- -- ------ - ------- --- ----------<br>------------- ------ ------ ---- ---- ------- ----- -- ----<br>-------- ------- -- ---------- --- - --- ----- ----- ----<br>---- --- --- ----- --- ---- ---- ------- ----- ---- -------<br>--- --- -- ----- -- --- ---- -- --- ---- -- ------ ------<br>--- ----- -- ----,184723,184719.5,182723.788,182725,182757.033,184737.951,,0,When
screen,html.Screen,2_1_0_1_1,2022-05-09T11:50:45.038Z,,,,,,,,,,,,,,,,,53,,,,,,,,,,,,,,517.4489999761572,,response,,,,99,,,,,,,Space,keypress(Space),,,,,,,,---- it ----- -- ------ - ------- --- ----------<br>------------- ------ ------ ---- ---- ------- ----- -- ----<br>-------- ------- -- ---------- --- - --- ----- ----- ----<br>---- --- --- ----- --- ---- ---- ------- ----- ---- -------<br>--- --- -- ----- -- --- ---- -- --- ---- -- ------ ------<br>--- ----- -- ----,185256.29999995232,185255.39999997616,184707.797,184723.29999995232,184737.951,185267.569,,1,it
screen,html.Screen,2_1_0_1_2,2022-05-09T11:50:45.569Z,,,,,,,,,,,,,,,,,53,,,,,,,,,,,,,,519.4310000000114,,response,,,,99,,,,,,,Space,keypress(Space),,,,,,,,---- -- comes -- ------ - ------- --- ----------<br>------------- ------ ------ ---- ---- ------- ----- -- ----<br>-------- ------- -- ---------- --- - --- ----- ----- ----<br>---- --- --- ----- --- ---- ---- ------- ----- ---- -------<br>--- --- -- ----- -- --- ---- -- --- ---- -- ------ ------<br>--- ----- -- ----,185787.79999995232,185787,185254.499,185256.5,185267.569,185810.598,,2,comes
screen,html.Screen,2_1_0_1_3,2022-05-09T11:50:46.034Z,,,,,,,,,,,,,,,,,53,,,,,,,,,,,,,,440.50199990463443,,response,,,,99,,,,,,,Space,keypress(Space),,,,,,,,---- -- ----- to ------ - ------- --- ----------<br>------------- ------ ------ ---- ---- ------- ----- -- ----<br>-------- ------- -- ---------- --- - --- ----- ----- ----<br>---- --- --- ----- --- ---- ---- ------- ----- ---- -------<br>--- --- -- ----- -- --- ---- -- --- ---- -- ------ ------<br>--- ----- -- ----,186252,186251.09999990463,185784.151,185788,185810.598,186275.05,,3,to
screen,html.Screen,2_1_0_1_4,2022-05-09T11:50:46.514Z,,,,,,,,,,,,,,,,,53,,,,,,,,,,,,,,456.7499999523279,,response,,,,99,,,,,,,Space,keypress(Space),,,,,,,,---- -- ----- -- having - ------- --- ----------<br>------------- ------ ------ ---- ---- ------- ----- -- ----<br>-------- ------- -- ---------- --- - --- ----- ----- ----<br>---- --- --- ----- --- ---- ---- ------- ----- ---- -------<br>--- --- -- ----- -- --- ---- -- --- ---- -- ------ ------<br>--- ----- -- ----,186732.59999990463,186731.79999995232,186243.869,186252.09999990463,186275.05,186735.647,,4,having
screen,html.Screen,2_1_0_1_5,2022-05-09T11:50:46.934Z,,,,,,,,,,,,,,,,,53,,,,,,,,,,,,,,416.1529999523191,,response,,,,99,,,,,,,Space,keypress(Space),,,,,,,,---- -- ----- -- ------ a ------- --- ----------<br>------------- ------ ------ ---- ---- ------- ----- -- ----<br>-------- ------- -- ---------- --- - --- ----- ----- ----<br>---- --- --- ----- --- ---- ---- ------- ----- ---- -------<br>--- --- -- ----- -- --- ---- -- --- ---- -- ------ ------<br>--- ----- -- ----,187152.59999990463,187151.79999995232,186724.861,186732.79999995232,186735.647,187156.634,,5,a
screen,html.Screen,2_1_0_1_6,2022-05-09T11:50:47.322Z,,,,,,,,,,,,,,,,,53,,,,,,,,,,,,,,382.5659999284835,,response,,,,99,,,,,,,Space,keypress(Space),,,,,,,,---- -- ----- -- ------ - lasting --- ----------<br>------------- ------ ------ ---- ---- ------- ----- -- ----<br>-------- ------- -- ---------- --- - --- ----- ----- ----<br>---- --- --- ----- --- ---- ---- ------- ----- ---- -------<br>--- --- -- ----- -- --- ---- -- --- ---- -- ------ ------<br>--- ----- -- ----,187539.89999997616,187539.19999992847,187152.42,187152.69999992847,187156.634,187542.162,,6,lasting
screen,html.Screen,2_1_0_1_7,2022-05-09T11:50:47.849Z,,,,,,,,,,,,,,,,,53,,,,,,,,,,,,,,524.6379999523051,,response,,,,99,,,,,,,Space,keypress(Space),,,,,,,,---- -- ----- -- ------ - ------- and ----------<br>------------- ------ ------ ---- ---- ------- ----- -- ----<br>-------- ------- -- ---------- --- - --- ----- ----- ----<br>---- --- --- ----- --- ---- ---- ------- ----- ---- -------<br>--- --- -- ----- -- --- ---- -- --- ---- -- ------ ------<br>--- ----- -- ----,188067.59999990463,188066.79999995232,187540.069,187540,187542.162,188071.873,,7,and
screen,html.Screen,2_1_0_1_8,2022-05-09T11:50:48.299Z,,,,,,,,,,,,,,,,,53,,,,,,,,,,,,,,444.92699995232397,,response,,,,99,,,,,,,Space,keypress(Space),,,,,,,,---- -- ----- -- ------ - ------- --- fulfilling<br>------------- ------ ------ ---- ---- ------- ----- -- ----<br>-------- ------- -- ---------- --- - --- ----- ----- ----<br>---- --- --- ----- --- ---- ---- ------- ----- ---- -------<br>--- --- -- ----- -- --- ---- -- --- ---- -- ------ ------<br>--- ----- -- ----,188517.5,188516.79999995232,188059.33,188067.79999995232,188071.873,188539.767,,8,fulfilling
screen,html.Screen,2_1_0_1_9,2022-05-09T11:50:48.733Z,,,,,,,,,,,,,,,,,53,,,,,,,,,,,,,,411.03299995232373,,response,,,,99,,,,,,,Space,keypress(Space),,,,,,,,"---- -- ----- -- ------ - ------- --- ----------<br>relationship, ------ ------ ---- ---- ------- ----- -- ----<br>-------- ------- -- ---------- --- - --- ----- ----- ----<br>---- --- --- ----- --- ---- ---- ------- ----- ---- -------<br>--- --- -- ----- -- --- ---- -- --- ---- -- ------ ------<br>--- ----- -- ----",188951.59999990463,188950.79999995232,188505.558,188517.59999990463,188539.767,188960.903,,9,"relationship,"
screen,html.Screen,2_1_0_1_10,2022-05-09T11:50:49.278Z,,,,,,,,,,,,,,,,,53,,,,,,,,,,,,,,534.996999976167,,response,,,,99,,,,,,,Space,keypress(Space),,,,,,,,---- -- ----- -- ------ - ------- --- ----------<br>------------- common ------ ---- ---- ------- ----- -- ----<br>-------- ------- -- ---------- --- - --- ----- ----- ----<br>---- --- --- ----- --- ---- ---- ------- ----- ---- -------<br>--- --- -- ----- -- --- ---- -- --- ---- -- ------ ------<br>--- ----- -- ----,189496.59999990463,189495.89999997616,188939.727,188951.79999995232,188960.903,189525.352,,10,common
screen,html.Screen,2_1_0_1_11,2022-05-09T11:50:49.651Z,,,,,,,,,,,,,,,,,53,,,,,,,,,,,,,,343.4479999523028,,response,,,,99,,,,,,,Space,keypress(Space),,,,,,,,---- -- ----- -- ------ - ------- --- ----------<br>------------- ------ wisdom ---- ---- ------- ----- -- ----<br>-------- ------- -- ---------- --- - --- ----- ----- ----<br>---- --- --- ----- --- ---- ---- ------- ----- ---- -------<br>--- --- -- ----- -- --- ---- -- --- ---- -- ------ ------<br>--- ----- -- ----,189869.59999990463,189868.79999995232,189494.176,189496.79999995232,189525.352,189892.841,,11,wisdom
screen,html.Screen,2_1_0_1_12,2022-05-09T11:50:50.117Z,,,,,,,,,,,,,,,,,53,,,,,,,,,,,,,,441.85899992848863,,response,,,,99,,,,,,,Space,keypress(Space),,,,,,,,---- -- ----- -- ------ - ------- --- ----------<br>------------- ------ ------ says ---- ------- ----- -- ----<br>-------- ------- -- ---------- --- - --- ----- ----- ----<br>---- --- --- ----- --- ---- ---- ------- ----- ---- -------<br>--- --- -- ----- -- --- ---- -- --- ---- -- ------ ------<br>--- ----- -- ----,190335.39999997616,190334.69999992847,189865.122,189869.79999995232,189892.841,190356.972,,12,says
screen,html.Screen,2_1_0_1_13,2022-05-09T11:50:50.725Z,,,,,,,,,,,,,,,,,53,,,,,,,,,,,,,,585.5279999999912,,response,,,,99,,,,,,,Space,keypress(Space),,,,,,,,---- -- ----- -- ------ - ------- --- ----------<br>------------- ------ ------ ---- that ------- ----- -- ----<br>-------- ------- -- ---------- --- - --- ----- ----- ----<br>---- --- --- ----- --- ---- ---- ------- ----- ---- -------<br>--- --- -- ----- -- --- ---- -- --- ---- -- ------ ------<br>--- ----- -- ----,190943.29999995232,190942.5,190326.115,190335.5,190356.972,190952.313,,13,that
screen,html.Screen,2_1_0_1_14,2022-05-09T11:50:51.236Z,,,,,,,,,,,,,,,,,53,,,,,,,,,,,,,,501.0869999761635,,response,,,,99,,,,,,,Space,keypress(Space),,,,,,,,---- -- ----- -- ------ - ------- --- ----------<br>------------- ------ ------ ---- ---- feeling ----- -- ----<br>-------- ------- -- ---------- --- - --- ----- ----- ----<br>---- --- --- ----- --- ---- ---- ------- ----- ---- -------<br>--- --- -- ----- -- --- ---- -- --- ---- -- ------ ------<br>--- ----- -- ----,191454.19999992847,191453.39999997616,190940.432,190943.5,190952.313,191456.291,,14,feeling
screen,html.Screen,2_1_0_1_15,2022-05-09T11:50:51.656Z,,,,,,,,,,,,,,,,,53,,,,,,,,,,,,,,417.30899990463513,,response,,,,99,,,,,,,Space,keypress(Space),,,,,,,,---- -- ----- -- ------ - ------- --- ----------<br>------------- ------ ------ ---- ---- ------- close -- ----<br>-------- ------- -- ---------- --- - --- ----- ----- ----<br>---- --- --- ----- --- ---- ---- ------- ----- ---- -------<br>--- --- -- ----- -- --- ---- -- --- ---- -- ------ ------<br>--- ----- -- ----,191874.39999997616,191873.59999990463,191452.312,191454.39999997616,191456.291,191877.284,,15,close
screen,html.Screen,2_1_0_1_16,2022-05-09T11:50:52.061Z,,,,,,,,,,,,,,,,,53,,,,,,,,,,,,,,400.9159999284602,,response,,,,99,,,,,,,Space,keypress(Space),,,,,,,,---- -- ----- -- ------ - ------- --- ----------<br>------------- ------ ------ ---- ---- ------- ----- to ----<br>-------- ------- -- ---------- --- - --- ----- ----- ----<br>---- --- --- ----- --- ---- ---- ------- ----- ---- -------<br>--- --- -- ----- -- --- ---- -- --- ---- -- ------ ------<br>--- ----- -- ----,192279.09999990463,192278.19999992847,191873.486,191874.5,191877.284,192298.523,,16,to
screen,html.Screen,2_1_0_1_17,2022-05-09T11:50:52.449Z,,,,,,,,,,,,,,,,,53,,,,,,,,,,,,,,367.7769999523298,,response,,,,99,,,,,,,Space,keypress(Space),,,,,,,,---- -- ----- -- ------ - ------- --- ----------<br>------------- ------ ------ ---- ---- ------- ----- -- your<br>-------- ------- -- ---------- --- - --- ----- ----- ----<br>---- --- --- ----- --- ---- ---- ------- ----- ---- -------<br>--- --- -- ----- -- --- ---- -- --- ---- -- ------ ------<br>--- ----- -- ----,192667.09999990463,192666.29999995232,192277.901,192279.19999992847,192298.523,192672.398,,17,your
screen,html.Screen,2_1_0_1_18,2022-05-09T11:50:52.837Z,,,,,,,,,,,,,,,,,53,,,,,,,,,,,,,,382.2019999046461,,response,,,,99,,,,,,,Space,keypress(Space),,,,,,,,---- -- ----- -- ------ - ------- --- ----------<br>------------- ------ ------ ---- ---- ------- ----- -- ----<br>romantic ------- -- ---------- --- - --- ----- ----- ----<br>---- --- --- ----- --- ---- ---- ------- ----- ---- -------<br>--- --- -- ----- -- --- ---- -- --- ---- -- ------ ------<br>--- ----- -- ----,193055.39999997616,193054.59999990463,192665.461,192667.29999995232,192672.398,193072.557,,18,romantic
screen,html.Screen,2_1_0_1_19,2022-05-09T11:50:53.037Z,,,,,,,,,,,,,,,,,53,,,,,,,,,,,,,,182.34299997615744,,response,,,,99,,,,,,,Space,keypress(Space),,,,,,,,---- -- ----- -- ------ - ------- --- ----------<br>------------- ------ ------ ---- ---- ------- ----- -- ----<br>-------- partner -- ---------- --- - --- ----- ----- ----<br>---- --- --- ----- --- ---- ---- ------- ----- ---- -------<br>--- --- -- ----- -- --- ---- -- --- ---- -- ------ ------<br>--- ----- -- ----,193255.69999992847,193254.89999997616,193039.636,193055.5,193072.557,193275.614,,19,partner
screen,html.Screen,2_1_0_1_20,2022-05-09T11:50:53.533Z,,,,,,,,,,,,,,,,,53,,,,,,,,,,,,,,475.08599992847303,,response,,,,99,,,,,,,Space,keypress(Space),,,,,,,,---- -- ----- -- ------ - ------- --- ----------<br>------------- ------ ------ ---- ---- ------- ----- -- ----<br>-------- ------- is ---------- --- - --- ----- ----- ----<br>---- --- --- ----- --- ---- ---- ------- ----- ---- -------<br>--- --- -- ----- -- --- ---- -- --- ---- -- ------ ------<br>--- ----- -- ----,193751.59999990463,193750.69999992847,193255.446,193255.79999995232,193275.614,193769.675,,20,is
screen,html.Screen,2_1_0_1_21,2022-05-09T11:50:54.012Z,,,,,,,,,,,,,,,,,53,,,,,,,,,,,,,,459.82500000001164,,response,,,,99,,,,,,,Space,keypress(Space),,,,,,,,---- -- ----- -- ------ - ------- --- ----------<br>------------- ------ ------ ---- ---- ------- ----- -- ----<br>-------- ------- -- paramount. --- - --- ----- ----- ----<br>---- --- --- ----- --- ---- ---- ------- ----- ---- -------<br>--- --- -- ----- -- --- ---- -- --- ---- -- ------ ------<br>--- ----- -- ----,194230.39999997616,194229.5,193742.331,193751.79999995232,193769.675,194250.73,,21,paramount.
screen,html.Screen,2_1_0_1_22,2022-05-09T11:50:54.781Z,,,,,,,,,,,,,,,,,53,,,,,,,,,,,,,,747.3699999046221,,response,,,,99,,,,,,,Space,keypress(Space),,,,,,,,---- -- ----- -- ------ - ------- --- ----------<br>------------- ------ ------ ---- ---- ------- ----- -- ----<br>-------- ------- -- ---------- But - --- ----- ----- ----<br>---- --- --- ----- --- ---- ---- ------- ----- ---- -------<br>--- --- -- ----- -- --- ---- -- --- ---- -- ------ ------<br>--- ----- -- ----,194999.29999995232,194998.09999990463,194220.417,194230.5,194250.73,195011.087,,22,But
screen,html.Screen,2_1_0_1_23,2022-05-09T11:50:55.189Z,,,,,,,,,,,,,,,,,53,,,,,,,,,,,,,,395.21299995231675,,response,,,,99,,,,,,,Space,keypress(Space),,,,,,,,---- -- ----- -- ------ - ------- --- ----------<br>------------- ------ ------ ---- ---- ------- ----- -- ----<br>-------- ------- -- ---------- --- a --- ----- ----- ----<br>---- --- --- ----- --- ---- ---- ------- ----- ---- -------<br>--- --- -- ----- -- --- ---- -- --- ---- -- ------ ------<br>--- ----- -- ----,195407.19999992847,195406.29999995232,194984.284,194999.39999997616,195011.087,195410.25,,23,a
screen,html.Screen,2_1_0_1_24,2022-05-09T11:50:55.412Z,,,,,,,,,,,,,,,,,53,,,,,,,,,,,,,,219.64999997615814,,response,,,,99,,,,,,,Space,keypress(Space),,,,,,,,---- -- ----- -- ------ - ------- --- ----------<br>------------- ------ ------ ---- ---- ------- ----- -- ----<br>-------- ------- -- ---------- --- - new ----- ----- ----<br>---- --- --- ----- --- ---- ---- ------- ----- ---- -------<br>--- --- -- ----- -- --- ---- -- --- ---- -- ------ ------<br>--- ----- -- ----,195630.5,195629.89999997616,195394.446,195407.19999992847,195410.25,195652.363,,24,new
screen,html.Screen,2_1_0_1_25,2022-05-09T11:50:55.771Z,,,,,,,,,,,,,,,,,53,,,,,,,,,,,,,,336.73699990462046,,response,,,,99,,,,,,,Space,keypress(Space),,,,,,,,---- -- ----- -- ------ - ------- --- ----------<br>------------- ------ ------ ---- ---- ------- ----- -- ----<br>-------- ------- -- ---------- --- - --- study ----- ----<br>---- --- --- ----- --- ---- ---- ------- ----- ---- -------<br>--- --- -- ----- -- --- ---- -- --- ---- -- ------ ------<br>--- ----- -- ----,195989.69999992847,195989.09999990463,195627.041,195630.69999992847,195652.363,196008.198,,25,study
screen,html.Screen,2_1_0_1_26,2022-05-09T11:50:56.010Z,,,,,,,,,,,,,,,,,53,,,,,,,,,,,,,,220.00199992847047,,response,,,,99,,,,,,,Space,keypress(Space),,,,,,,,---- -- ----- -- ------ - ------- --- ----------<br>------------- ------ ------ ---- ---- ------- ----- -- ----<br>-------- ------- -- ---------- --- - --- ----- finds ----<br>---- --- --- ----- --- ---- ---- ------- ----- ---- -------<br>--- --- -- ----- -- --- ---- -- --- ---- -- ------ ------<br>--- ----- -- ----,196228.69999992847,196228.19999992847,195985.74,195989.79999995232,196008.198,196233.563,,26,finds
screen,html.Screen,2_1_0_1_27,2022-05-09T11:50:56.419Z,,,,,,,,,,,,,,,,,53,,,,,,,,,,,,,,403.43700000000536,,response,,,,99,,,,,,,Space,keypress(Space),,,,,,,,---- -- ----- -- ------ - ------- --- ----------<br>------------- ------ ------ ---- ---- ------- ----- -- ----<br>-------- ------- -- ---------- --- - --- ----- ----- that<br>---- --- --- ----- --- ---- ---- ------- ----- ---- -------<br>--- --- -- ----- -- --- ---- -- --- ---- -- ------ ------<br>--- ----- -- ----,196637.79999995232,196637,196224.872,196228.79999995232,196233.563,196640.822,,27,that
screen,html.Screen,2_1_0_1_28,2022-05-09T11:50:56.719Z,,,,,,,,,,,,,,,,,53,,,,,,,,,,,,,,296.277999904647,,response,,,,99,,,,,,,Space,keypress(Space),,,,,,,,---- -- ----- -- ------ - ------- --- ----------<br>------------- ------ ------ ---- ---- ------- ----- -- ----<br>-------- ------- -- ---------- --- - --- ----- ----- ----<br>it's --- --- ----- --- ---- ---- ------- ----- ---- -------<br>--- --- -- ----- -- --- ---- -- --- ---- -- ------ ------<br>--- ----- -- ----,196937.69999992847,196937.09999990463,196633.634,196637.89999997616,196640.822,196953.244,,28,it's
screen,html.Screen,2_1_0_1_29,2022-05-09T11:50:57.001Z,,,,,,,,,,,,,,,,,53,,,,,,,,,,,,,,265.8559999046265,,response,,,,99,,,,,,,Space,keypress(Space),,,,,,,,---- -- ----- -- ------ - ------- --- ----------<br>------------- ------ ------ ---- ---- ------- ----- -- ----<br>-------- ------- -- ---------- --- - --- ----- ----- ----<br>---- not --- ----- --- ---- ---- ------- ----- ---- -------<br>--- --- -- ----- -- --- ---- -- --- ---- -- ------ ------<br>--- ----- -- ----,197219.5,197219.09999990463,196924.344,196937.89999997616,196953.244,197222.132,,29,not
screen,html.Screen,2_1_0_1_30,2022-05-09T11:50:57.287Z,,,,,,,,,,,,,,,,,53,,,,,,,,,,,,,,282.0679999284621,,response,,,,99,,,,,,,Space,keypress(Space),,,,,,,,---- -- ----- -- ------ - ------- --- ----------<br>------------- ------ ------ ---- ---- ------- ----- -- ----<br>-------- ------- -- ---------- --- - --- ----- ----- ----<br>---- --- how ----- --- ---- ---- ------- ----- ---- -------<br>--- --- -- ----- -- --- ---- -- --- ---- -- ------ ------<br>--- ----- -- ----,197505.09999990463,197504.19999992847,197219.941,197219.69999992847,197222.132,197510.515,,30,how
screen,html.Screen,2_1_0_1_31,2022-05-09T11:50:57.506Z,,,,,,,,,,,,,,,,,53,,,,,,,,,,,,,,212.98499999998603,,response,,,,99,,,,,,,Space,keypress(Space),,,,,,,,---- -- ----- -- ------ - ------- --- ----------<br>------------- ------ ------ ---- ---- ------- ----- -- ----<br>-------- ------- -- ---------- --- - --- ----- ----- ----<br>---- --- --- close --- ---- ---- ------- ----- ---- -------<br>--- --- -- ----- -- --- ---- -- --- ---- -- ------ ------<br>--- ----- -- ----,197724.29999995232,197723.5,197505.537,197505.19999992847,197510.515,197735.948,,31,close
screen,html.Screen,2_1_0_1_32,2022-05-09T11:50:57.802Z,,,,,,,,,,,,,,,,,53,,,,,,,,,,,,,,284.1519999046286,,response,,,,99,,,,,,,Space,keypress(Space),,,,,,,,---- -- ----- -- ------ - ------- --- ----------<br>------------- ------ ------ ---- ---- ------- ----- -- ----<br>-------- ------- -- ---------- --- - --- ----- ----- ----<br>---- --- --- ----- you ---- ---- ------- ----- ---- -------<br>--- --- -- ----- -- --- ---- -- --- ---- -- ------ ------<br>--- ----- -- ----,198020.89999997616,198020.09999990463,197710.643,197724.39999997616,197735.948,198026.551,,32,you
screen,html.Screen,2_1_0_1_33,2022-05-09T11:50:58.085Z,,,,,,,,,,,,,,,,,53,,,,,,,,,,,,,,276.6489999284677,,response,,,,99,,,,,,,Space,keypress(Space),,,,,,,,---- -- ----- -- ------ - ------- --- ----------<br>------------- ------ ------ ---- ---- ------- ----- -- ----<br>-------- ------- -- ---------- --- - --- ----- ----- ----<br>---- --- --- ----- --- feel ---- ------- ----- ---- -------<br>--- --- -- ----- -- --- ---- -- --- ---- -- ------ ------<br>--- ----- -- ----,198303.79999995232,198303.19999992847,198019.32,198020.89999997616,198026.551,198317.207,,33,feel
screen,html.Screen,2_1_0_1_34,2022-05-09T11:50:58.332Z,,,,,,,,,,,,,,,,,53,,,,,,,,,,,,,,232.3929999046377,,response,,,,99,,,,,,,Space,keypress(Space),,,,,,,,---- -- ----- -- ------ - ------- --- ----------<br>------------- ------ ------ ---- ---- ------- ----- -- ----<br>-------- ------- -- ---------- --- - --- ----- ----- ----<br>---- --- --- ----- --- ---- that ------- ----- ---- -------<br>--- --- -- ----- -- --- ---- -- --- ---- -- ------ ------<br>--- ----- -- ----,198550.19999992847,198549.59999990463,198293.418,198304,198317.207,198572.27,,34,that
screen,html.Screen,2_1_0_1_35,2022-05-09T11:50:58.580Z,,,,,,,,,,,,,,,,,53,,,,,,,,,,,,,,225.23000000001048,,response,,,,99,,,,,,,Space,keypress(Space),,,,,,,,---- -- ----- -- ------ - ------- --- ----------<br>------------- ------ ------ ---- ---- ------- ----- -- ----<br>-------- ------- -- ---------- --- - --- ----- ----- ----<br>---- --- --- ----- --- ---- ---- matters ----- ---- -------<br>--- --- -- ----- -- --- ---- -- --- ---- -- ------ ------<br>--- ----- -- ----,198798.19999992847,198797.5,198555.681,198550.19999992847,198572.27,198819.471,,35,matters
screen,html.Screen,2_1_0_1_36,2022-05-09T11:50:58.830Z,,,,,,,,,,,,,,,,,53,,,,,,,,,,,,,,228.62899990464211,,response,,,,99,,,,,,,Space,keypress(Space),,,,,,,,"---- -- ----- -- ------ - ------- --- ----------<br>------------- ------ ------ ---- ---- ------- ----- -- ----<br>-------- ------- -- ---------- --- - --- ----- ----- ----<br>---- --- --- ----- --- ---- ---- ------- most, ---- -------<br>--- --- -- ----- -- --- ---- -- --- ---- -- ------ ------<br>--- ----- -- ----",199048.79999995232,199048.09999990463,198788.981,198798.29999995232,198819.471,199066.613,,36,"most,"
screen,html.Screen,2_1_0_1_37,2022-05-09T11:50:59.402Z,,,,,,,,,,,,,,,,,53,,,,,,,,,,,,,,553.1869999523042,,response,,,,99,,,,,,,Space,keypress(Space),,,,,,,,---- -- ----- -- ------ - ------- --- ----------<br>------------- ------ ------ ---- ---- ------- ----- -- ----<br>-------- ------- -- ---------- --- - --- ----- ----- ----<br>---- --- --- ----- --- ---- ---- ------- ----- it's -------<br>--- --- -- ----- -- --- ---- -- --- ---- -- ------ ------<br>--- ----- -- ----,199620.79999995232,199619.79999995232,199036.146,199048.89999997616,199066.613,199626.004,,37,it's
screen,html.Screen,2_1_0_1_38,2022-05-09T11:50:59.935Z,,,,,,,,,,,,,,,,,53,,,,,,,,,,,,,,527.0959999046463,,response,,,,99,,,,,,,Space,keypress(Space),,,,,,,,---- -- ----- -- ------ - ------- --- ----------<br>------------- ------ ------ ---- ---- ------- ----- -- ----<br>-------- ------- -- ---------- --- - --- ----- ----- ----<br>---- --- --- ----- --- ---- ---- ------- ----- ---- whether<br>--- --- -- ----- -- --- ---- -- --- ---- -- ------ ------<br>--- ----- -- ----,200153.69999992847,200153.09999990463,199616.638,199620.89999997616,199626.004,200155.776,,38,whether
screen,html.Screen,2_1_0_1_39,2022-05-09T11:51:00.392Z,,,,,,,,,,,,,,,,,53,,,,,,,,,,,,,,454.0239999523037,,response,,,,99,,,,,,,Space,keypress(Space),,,,,,,,---- -- ----- -- ------ - ------- --- ----------<br>------------- ------ ------ ---- ---- ------- ----- -- ----<br>-------- ------- -- ---------- --- - --- ----- ----- ----<br>---- --- --- ----- --- ---- ---- ------- ----- ---- -------<br>you --- -- ----- -- --- ---- -- --- ---- -- ------ ------<br>--- ----- -- ----,200610.5,200609.79999995232,200142.882,200153.89999997616,200155.776,200628.42,,39,you
screen,html.Screen,2_1_0_1_40,2022-05-09T11:51:00.770Z,,,,,,,,,,,,,,,,,53,,,,,,,,,,,,,,359.3799999523035,,response,,,,99,,,,,,,Space,keypress(Space),,,,,,,,---- -- ----- -- ------ - ------- --- ----------<br>------------- ------ ------ ---- ---- ------- ----- -- ----<br>-------- ------- -- ---------- --- - --- ----- ----- ----<br>---- --- --- ----- --- ---- ---- ------- ----- ---- -------<br>--- are -- ----- -- --- ---- -- --- ---- -- ------ ------<br>--- ----- -- ----,200988.5,200987.79999995232,200605.923,200610.59999990463,200628.42,201005.954,,40,are
screen,html.Screen,2_1_0_1_41,2022-05-09T11:51:01.018Z,,,,,,,,,,,,,,,,,53,,,,,,,,,,,,,,229.74599992847652,,response,,,,99,,,,,,,Space,keypress(Space),,,,,,,,---- -- ----- -- ------ - ------- --- ----------<br>------------- ------ ------ ---- ---- ------- ----- -- ----<br>-------- ------- -- ---------- --- - --- ----- ----- ----<br>---- --- --- ----- --- ---- ---- ------- ----- ---- -------<br>--- --- as ----- -- --- ---- -- --- ---- -- ------ ------<br>--- ----- -- ----,201236.5,201235.69999992847,200978.408,200988.59999990463,201005.954,201244.848,,41,as
screen,html.Screen,2_1_0_1_42,2022-05-09T11:51:01.249Z,,,,,,,,,,,,,,,,,53,,,,,,,,,,,,,,221.75199990463443,,response,,,,99,,,,,,,Space,keypress(Space),,,,,,,,---- -- ----- -- ------ - ------- --- ----------<br>------------- ------ ------ ---- ---- ------- ----- -- ----<br>-------- ------- -- ---------- --- - --- ----- ----- ----<br>---- --- --- ----- --- ---- ---- ------- ----- ---- -------<br>--- --- -- close -- --- ---- -- --- ---- -- ------ ------<br>--- ----- -- ----,201467.39999997616,201466.59999990463,201222.697,201236.59999990463,201244.848,201469.724,,42,close
screen,html.Screen,2_1_0_1_43,2022-05-09T11:51:01.433Z,,,,,,,,,,,,,,,,,53,,,,,,,,,,,,,,180.975999928487,,response,,,,99,,,,,,,Space,keypress(Space),,,,,,,,---- -- ----- -- ------ - ------- --- ----------<br>------------- ------ ------ ---- ---- ------- ----- -- ----<br>-------- ------- -- ---------- --- - --- ----- ----- ----<br>---- --- --- ----- --- ---- ---- ------- ----- ---- -------<br>--- --- -- ----- as --- ---- -- --- ---- -- ------ ------<br>--- ----- -- ----,201651.39999997616,201650.69999992847,201461.613,201467.59999990463,201469.724,201664.192,,43,as
screen,html.Screen,2_1_0_1_44,2022-05-09T11:51:01.635Z,,,,,,,,,,,,,,,,,53,,,,,,,,,,,,,,188.40799990462256,,response,,,,99,,,,,,,Space,keypress(Space),,,,,,,,---- -- ----- -- ------ - ------- --- ----------<br>------------- ------ ------ ---- ---- ------- ----- -- ----<br>-------- ------- -- ---------- --- - --- ----- ----- ----<br>---- --- --- ----- --- ---- ---- ------- ----- ---- -------<br>--- --- -- ----- -- you ---- -- --- ---- -- ------ ------<br>--- ----- -- ----,201853.19999992847,201852.59999990463,201636.502,201651.59999990463,201664.192,201866.963,,44,you
screen,html.Screen,2_1_0_1_45,2022-05-09T11:51:01.870Z,,,,,,,,,,,,,,,,,53,,,,,,,,,,,,,,220.83699995232746,,response,,,,99,,,,,,,Space,keypress(Space),,,,,,,,---- -- ----- -- ------ - ------- --- ----------<br>------------- ------ ------ ---- ---- ------- ----- -- ----<br>-------- ------- -- ---------- --- - --- ----- ----- ----<br>---- --- --- ----- --- ---- ---- ------- ----- ---- -------<br>--- --- -- ----- -- --- want -- --- ---- -- ------ ------<br>--- ----- -- ----,202088.59999990463,202087.79999995232,201847.142,201853.39999997616,201866.963,202092.354,,45,want
screen,html.Screen,2_1_0_1_46,2022-05-09T11:51:02.070Z,,,,,,,,,,,,,,,,,53,,,,,,,,,,,,,,195.64600000000792,,response,,,,99,,,,,,,Space,keypress(Space),,,,,,,,---- -- ----- -- ------ - ------- --- ----------<br>------------- ------ ------ ---- ---- ------- ----- -- ----<br>-------- ------- -- ---------- --- - --- ----- ----- ----<br>---- --- --- ----- --- ---- ---- ------- ----- ---- -------<br>--- --- -- ----- -- --- ---- to --- ---- -- ------ ------<br>--- ----- -- ----,202288.69999992847,202288,202083.808,202088.69999992847,202092.354,202296.078,,46,to
screen,html.Screen,2_1_0_1_47,2022-05-09T11:51:02.272Z,,,,,,,,,,,,,,,,,53,,,,,,,,,,,,,,193.72199995230767,,response,,,,99,,,,,,,Space,keypress(Space),,,,,,,,"---- -- ----- -- ------ - ------- --- ----------<br>------------- ------ ------ ---- ---- ------- ----- -- ----<br>-------- ------- -- ---------- --- - --- ----- ----- ----<br>---- --- --- ----- --- ---- ---- ------- ----- ---- -------<br>--- --- -- ----- -- --- ---- -- be, ---- -- ------ ------<br>--- ----- -- ----",202490.59999990463,202489.79999995232,202276.176,202288.89999997616,202296.078,202506.162,,47,"be,"
screen,html.Screen,2_1_0_1_48,2022-05-09T11:51:02.505Z,,,,,,,,,,,,,,,,,53,,,,,,,,,,,,,,216.23799997614697,,response,,,,99,,,,,,,Space,keypress(Space),,,,,,,,---- -- ----- -- ------ - ------- --- ----------<br>------------- ------ ------ ---- ---- ------- ----- -- ----<br>-------- ------- -- ---------- --- - --- ----- ----- ----<br>---- --- --- ----- --- ---- ---- ------- ----- ---- -------<br>--- --- -- ----- -- --- ---- -- --- even -- ------ ------<br>--- ----- -- ----,202723.19999992847,202722.39999997616,202479.568,202490.69999992847,202506.162,202732.045,,48,even
screen,html.Screen,2_1_0_1_49,2022-05-09T11:51:02.770Z,,,,,,,,,,,,,,,,,53,,,,,,,,,,,,,,255.25499995230348,,response,,,,99,,,,,,,Space,keypress(Space),,,,,,,,---- -- ----- -- ------ - ------- --- ----------<br>------------- ------ ------ ---- ---- ------- ----- -- ----<br>-------- ------- -- ---------- --- - --- ----- ----- ----<br>---- --- --- ----- --- ---- ---- ------- ----- ---- -------<br>--- --- -- ----- -- --- ---- -- --- ---- if ------ ------<br>--- ----- -- ----,202988.09999990463,202987.29999995232,202722.854,202723.39999997616,202732.045,203000.884,,49,if
screen,html.Screen,2_1_0_1_50,2022-05-09T11:51:02.987Z,,,,,,,,,,,,,,,,,53,,,,,,,,,,,,,,203.51599997616722,,response,,,,99,,,,,,,Space,keypress(Space),,,,,,,,---- -- ----- -- ------ - ------- --- ----------<br>------------- ------ ------ ---- ---- ------- ----- -- ----<br>-------- ------- -- ---------- --- - --- ----- ----- ----<br>---- --- --- ----- --- ---- ---- ------- ----- ---- -------<br>--- --- -- ----- -- --- ---- -- --- ---- -- that's ------<br>--- ----- -- ----,203205.19999992847,203204.39999997616,202981.904,202988.19999992847,203000.884,203226.21,,50,that's
screen,html.Screen,2_1_0_1_51,2022-05-09T11:51:03.545Z,,,,,,,,,,,,,,,,,53,,,,,,,,,,,,,,536.4899999284826,,response,,,,99,,,,,,,Space,keypress(Space),,,,,,,,---- -- ----- -- ------ - ------- --- ----------<br>------------- ------ ------ ---- ---- ------- ----- -- ----<br>-------- ------- -- ---------- --- - --- ----- ----- ----<br>---- --- --- ----- --- ---- ---- ------- ----- ---- -------<br>--- --- -- ----- -- --- ---- -- --- ---- -- ------ really<br>--- ----- -- ----,203763.5,203762.69999992847,203200.417,203205.29999995232,203226.21,203785.699,,51,really
screen,html.Screen,2_1_0_1_52,2022-05-09T11:51:03.980Z,,,,,,,,,,,,,,,,,53,,,,,,,,,,,,,,411.4009999046393,,response,,,,99,,,,,,,Space,keypress(Space),,,,,,,,---- -- ----- -- ------ - ------- --- ----------<br>------------- ------ ------ ---- ---- ------- ----- -- ----<br>-------- ------- -- ---------- --- - --- ----- ----- ----<br>---- --- --- ----- --- ---- ---- ------- ----- ---- -------<br>--- --- -- ----- -- --- ---- -- --- ---- -- ------ ------<br>not ----- -- ----,204198,204197.09999990463,203759.556,203763.59999990463,203785.699,204206.425,,52,not
screen,html.Screen,2_1_0_1_53,2022-05-09T11:51:04.339Z,,,,,,,,,,,,,,,,,53,,,,,,,,,,,,,,350.57500000001164,,response,,,,99,,,,,,,Space,keypress(Space),,,,,,,,---- -- ----- -- ------ - ------- --- ----------<br>------------- ------ ------ ---- ---- ------- ----- -- ----<br>-------- ------- -- ---------- --- - --- ----- ----- ----<br>---- --- --- ----- --- ---- ---- ------- ----- ---- -------<br>--- --- -- ----- -- --- ---- -- --- ---- -- ------ ------<br>--- close -- ----,204557.69999992847,204557,204185.382,204198.19999992847,204206.425,204576.047,,53,close
screen,html.Screen,2_1_0_1_54,2022-05-09T11:51:04.746Z,,,,,,,,,,,,,,,,,53,,,,,,,,,,,,,,387.35299997616676,,response,,,,99,,,,,,,Space,keypress(Space),,,,,,,,---- -- ----- -- ------ - ------- --- ----------<br>------------- ------ ------ ---- ---- ------- ----- -- ----<br>-------- ------- -- ---------- --- - --- ----- ----- ----<br>---- --- --- ----- --- ---- ---- ------- ----- ---- -------<br>--- --- -- ----- -- --- ---- -- --- ---- -- ------ ------<br>--- ----- at ----,204964.09999990463,204963.39999997616,204556.88,204557.79999995232,204576.047,204975.012,,54,at
screen,html.Screen,2_1_0_1_55,2022-05-09T11:51:05.264Z,,,,,,,,,,,,,,,,,53,,,,,,,,,,,,,,506.68799992848653,,response,,,,99,,,,,,,Space,keypress(Space),,,,,,,,---- -- ----- -- ------ - ------- --- ----------<br>------------- ------ ------ ---- ---- ------- ----- -- ----<br>-------- ------- -- ---------- --- - --- ----- ----- ----<br>---- --- --- ----- --- ---- ---- ------- ----- ---- -------<br>--- --- -- ----- -- --- ---- -- --- ---- -- ------ ------<br>--- ----- -- all.,205482.5,205481.69999992847,204958.755,204964.29999995232,204975.012,205499.175,,55,all.
Item 99,flow.Loop,2_1_0_1,2022-05-09T11:51:05.264Z,,,,,,,,,,,,,,,,,,,,,,,,,,,,,,,22724.66699992848,,completion,,,,,D,,,,,,,,,,,silence,,,,,205482.89999997616,205481.69999992847,182723.788,182724.89999997616,182757.033,205499.175,,,
Question 1,html.Screen,2_1_0_2,2022-05-09T11:51:15.565Z,,,,,,,,,,,,,,,,,,,,,,,,,,,,true,FALSE,,10283.024999928486,,response,,,,99,D,,,,,,FALSE,click #choice-2,,,,silence,,,,,215783.5,215782.19999992847,205474.66,205483,205499.175,215796.457,,,
Question 2,html.Screen,2_1_0_3,2022-05-09T11:51:18.639Z,,,,,,,,,,,,,,,,,,,,,,,,,,,,true,TRUE,,3059.543000000005,,response,,,,99,D,,,,,,TRUE,click #choice-1,,,,silence,,,,,218857.19999992847,218856,215779.963,215783.59999990463,215796.457,218873.717,,,
Item 99,flow.Sequence,2_1_0,2022-05-09T11:51:18.639Z,,,,,,,,,,,,,,,,,,,,,,,,,,,,,,,46112.253999999986,,completion,,,,,,,,,,,,,,,,,,,,,218857.59999990463,218856,172727.134,172738.09999990463,172743.746,218873.717,,,
Holding screen,html.Screen,2_1_1_0,2022-05-09T11:51:28.647Z,,,,,,,,,,,,,,,,,,,,,,,,,,,,,,,10007.951000000001,,timeout,,,,,,,,,,,,,,,,,,,,,228866.19999992847,228865.014,218857.005,218857.79999995232,218873.717,228881.668,,,
screen,html.Screen,2_1_1_1_0,2022-05-09T11:51:30.569Z,,,,,,,,,,,,,,,,,54,,,,,,,,,,,,,,1905.231999976153,,response,,,,100,,,,,,,Space,keypress(Space),,,,,,,,At --- ---- --- ------ ----- ------- ---- -- --- ------- --<br>------- ---------- ------ -- ----- -- ----- -- ---- ------<br>--- ----- --- --- ------ -------- ----- --- ------ ----- --<br>----- ----- ---------- --- --- ------ ------ ---- -- ------<br>------- --- ------ ----- --- ---- ------- -- ---- --- --<br>------- ------,230787.39999997616,230786.89999997616,228865.014,228866.5,228881.668,230796.997,,0,At
screen,html.Screen,2_1_1_1_1,2022-05-09T11:51:31.004Z,,,,,,,,,,,,,,,,,54,,,,,,,,,,,,,,425.30299995231326,,response,,,,100,,,,,,,Space,keypress(Space),,,,,,,,-- the ---- --- ------ ----- ------- ---- -- --- ------- --<br>------- ---------- ------ -- ----- -- ----- -- ---- ------<br>--- ----- --- --- ------ -------- ----- --- ------ ----- --<br>----- ----- ---------- --- --- ------ ------ ---- -- ------<br>------- --- ------ ----- --- ---- ------- -- ---- --- --<br>------- ------,231223.09999990463,231222.29999995232,230782.058,230787.5,230796.997,231239.849,,1,the
screen,html.Screen,2_1_1_1_2,2022-05-09T11:51:32.100Z,,,,,,,,,,,,,,,,,54,,,,,,,,,,,,,,1078.5509999761707,,response,,,,100,,,,,,,Space,keypress(Space),,,,,,,,-- --- time --- ------ ----- ------- ---- -- --- ------- --<br>------- ---------- ------ -- ----- -- ----- -- ---- ------<br>--- ----- --- --- ------ -------- ----- --- ------ ----- --<br>----- ----- ---------- --- --- ------ ------ ---- -- ------<br>------- --- ------ ----- --- ---- ------- -- ---- --- --<br>------- ------,232318.89999997616,232318.39999997616,231213.717,231223.29999995232,231239.849,232327.548,,2,time
screen,html.Screen,2_1_1_1_3,2022-05-09T11:51:32.506Z,,,,,,,,,,,,,,,,,54,,,,,,,,,,,,,,397.2519999523065,,response,,,,100,,,,,,,Space,keypress(Space),,,,,,,,-- --- ---- the ------ ----- ------- ---- -- --- ------- --<br>------- ---------- ------ -- ----- -- ----- -- ---- ------<br>--- ----- --- --- ------ -------- ----- --- ------ ----- --<br>----- ----- ---------- --- --- ------ ------ ---- -- ------<br>------- --- ------ ----- --- ---- ------- -- ---- --- --<br>------- ------,232725.39999997616,232724.79999995232,232306.719,232319,232327.548,232734.901,,3,the
screen,html.Screen,2_1_1_1_4,2022-05-09T11:51:32.932Z,,,,,,,,,,,,,,,,,54,,,,,,,,,,,,,,415.3989999523037,,response,,,,100,,,,,,,Space,keypress(Space),,,,,,,,-- --- ---- --- French ----- ------- ---- -- --- ------- --<br>------- ---------- ------ -- ----- -- ----- -- ---- ------<br>--- ----- --- --- ------ -------- ----- --- ------ ----- --<br>----- ----- ---------- --- --- ------ ------ ---- -- ------<br>------- --- ------ ----- --- ---- ------- -- ---- --- --<br>------- ------,233151,233150.29999995232,232710.97,232725.39999997616,232734.901,233155.938,,4,French
screen,html.Screen,2_1_1_1_5,2022-05-09T11:51:33.325Z,,,,,,,,,,,,,,,,,54,,,,,,,,,,,,,,387.2619999284798,,response,,,,100,,,,,,,Space,keypress(Space),,,,,,,,-- --- ---- --- ------ crown ------- ---- -- --- ------- --<br>------- ---------- ------ -- ----- -- ----- -- ---- ------<br>--- ----- --- --- ------ -------- ----- --- ------ ----- --<br>----- ----- ---------- --- --- ------ ------ ---- -- ------<br>------- --- ------ ----- --- ---- ------- -- ---- --- --<br>------- ------,233543.89999997616,233543.19999992847,233134.906,233151.09999990463,233155.938,233555.493,,5,crown
screen,html.Screen,2_1_1_1_6,2022-05-09T11:51:33.734Z,,,,,,,,,,,,,,,,,54,,,,,,,,,,,,,,396.3069999523286,,response,,,,100,,,,,,,Space,keypress(Space),,,,,,,,-- --- ---- --- ------ ----- secured ---- -- --- ------- --<br>------- ---------- ------ -- ----- -- ----- -- ---- ------<br>--- ----- --- --- ------ -------- ----- --- ------ ----- --<br>----- ----- ---------- --- --- ------ ------ ---- -- ------<br>------- --- ------ ----- --- ---- ------- -- ---- --- --<br>------- ------,233952.5,233951.79999995232,233539.378,233544.09999990463,233555.493,233967.649,,6,secured
screen,html.Screen,2_1_1_1_7,2022-05-09T11:51:33.988Z,,,,,,,,,,,,,,,,,54,,,,,,,,,,,,,,238.6509999523114,,response,,,,100,,,,,,,Space,keypress(Space),,,,,,,,-- --- ---- --- ------ ----- ------- much -- --- ------- --<br>------- ---------- ------ -- ----- -- ----- -- ---- ------<br>--- ----- --- --- ------ -------- ----- --- ------ ----- --<br>----- ----- ---------- --- --- ------ ------ ---- -- ------<br>------- --- ------ ----- --- ---- ------- -- ---- --- --<br>------- ------,234206.79999995232,234206.29999995232,233938.664,233952.69999992847,233967.649,234214.802,,7,much
screen,html.Screen,2_1_1_1_8,2022-05-09T11:51:34.497Z,,,,,,,,,,,,,,,,,54,,,,,,,,,,,,,,500.69800000000396,,response,,,,100,,,,,,,Space,keypress(Space),,,,,,,,-- --- ---- --- ------ ----- ------- ---- of --- ------- --<br>------- ---------- ------ -- ----- -- ----- -- ---- ------<br>--- ----- --- --- ------ -------- ----- --- ------ ----- --<br>----- ----- ---------- --- --- ------ ------ ---- -- ------<br>------- --- ------ ----- --- ---- ------- -- ---- --- --<br>------- ------,234716.09999990463,234715.5,234200.981,234206.89999997616,234214.802,234722.775,,8,of
screen,html.Screen,2_1_1_1_9,2022-05-09T11:51:34.816Z,,,,,,,,,,,,,,,,,54,,,,,,,,,,,,,,311.8249999046384,,response,,,,100,,,,,,,Space,keypress(Space),,,,,,,,-- --- ---- --- ------ ----- ------- ---- -- its ------- --<br>------- ---------- ------ -- ----- -- ----- -- ---- ------<br>--- ----- --- --- ------ -------- ----- --- ------ ----- --<br>----- ----- ---------- --- --- ------ ------ ---- -- ------<br>------- --- ------ ----- --- ---- ------- -- ---- --- --<br>------- ------,235035.09999990463,235034.59999990463,234714.868,234716.29999995232,234722.775,235056.869,,9,its
screen,html.Screen,2_1_1_1_10,2022-05-09T11:51:35.132Z,,,,,,,,,,,,,,,,,54,,,,,,,,,,,,,,293.13099999999395,,response,,,,100,,,,,,,Space,keypress(Space),,,,,,,,-- --- ---- --- ------ ----- ------- ---- -- --- revenue --<br>------- ---------- ------ -- ----- -- ----- -- ---- ------<br>--- ----- --- --- ------ -------- ----- --- ------ ----- --<br>----- ----- ---------- --- --- ------ ------ ---- -- ------<br>------- --- ------ ----- --- ---- ------- -- ---- --- --<br>------- ------,235350.59999990463,235350,235022.805,235035.09999990463,235056.869,235369.231,,10,revenue
screen,html.Screen,2_1_1_1_11,2022-05-09T11:51:35.505Z,,,,,,,,,,,,,,,,,54,,,,,,,,,,,,,,353.96899992847466,,response,,,,100,,,,,,,Space,keypress(Space),,,,,,,,-- --- ---- --- ------ ----- ------- ---- -- --- ------- by<br>------- ---------- ------ -- ----- -- ----- -- ---- ------<br>--- ----- --- --- ------ -------- ----- --- ------ ----- --<br>----- ----- ---------- --- --- ------ ------ ---- -- ------<br>------- --- ------ ----- --- ---- ------- -- ---- --- --<br>------- ------,235723.69999992847,235723.19999992847,235340.251,235350.79999995232,235369.231,235756.331,,11,by
screen,html.Screen,2_1_1_1_12,2022-05-09T11:51:35.951Z,,,,,,,,,,,,,,,,,54,,,,,,,,,,,,,,412.36899992846884,,response,,,,100,,,,,,,Space,keypress(Space),,,,,,,,-- --- ---- --- ------ ----- ------- ---- -- --- ------- --<br>issuing ---------- ------ -- ----- -- ----- -- ---- ------<br>--- ----- --- --- ------ -------- ----- --- ------ ----- --<br>----- ----- ---------- --- --- ------ ------ ---- -- ------<br>------- --- ------ ----- --- ---- ------- -- ---- --- --<br>------- ------,236169.39999997616,236168.69999992847,235719.258,235723.89999997616,235756.331,236184.531,,12,issuing
screen,html.Screen,2_1_1_1_13,2022-05-09T11:51:36.314Z,,,,,,,,,,,,,,,,,54,,,,,,,,,,,,,,347.4690000000119,,response,,,,100,,,,,,,Space,keypress(Space),,,,,,,,-- --- ---- --- ------ ----- ------- ---- -- --- ------- --<br>------- government ------ -- ----- -- ----- -- ---- ------<br>--- ----- --- --- ------ -------- ----- --- ------ ----- --<br>----- ----- ---------- --- --- ------ ------ ---- -- ------<br>------- --- ------ ----- --- ---- ------- -- ---- --- --<br>------- ------,236532.79999995232,236532,236158.391,236169.5,236184.531,236540.385,,13,government
screen,html.Screen,2_1_1_1_14,2022-05-09T11:51:36.793Z,,,,,,,,,,,,,,,,,54,,,,,,,,,,,,,,470.91499995230697,,response,,,,100,,,,,,,Space,keypress(Space),,,,,,,,-- --- ---- --- ------ ----- ------- ---- -- --- ------- --<br>------- ---------- bonds. -- ----- -- ----- -- ---- ------<br>--- ----- --- --- ------ -------- ----- --- ------ ----- --<br>----- ----- ---------- --- --- ------ ------ ---- -- ------<br>------- --- ------ ----- --- ---- ------- -- ---- --- --<br>------- ------,237011.89999997616,237011.29999995232,236517.866,236532.79999995232,236540.385,237034.56,,14,bonds.
screen,html.Screen,2_1_1_1_15,2022-05-09T11:51:37.492Z,,,,,,,,,,,,,,,,,54,,,,,,,,,,,,,,675.8399999761605,,response,,,,100,,,,,,,Space,keypress(Space),,,,,,,,-- --- ---- --- ------ ----- ------- ---- -- --- ------- --<br>------- ---------- ------ In ----- -- ----- -- ---- ------<br>--- ----- --- --- ------ -------- ----- --- ------ ----- --<br>----- ----- ---------- --- --- ------ ------ ---- -- ------<br>------- --- ------ ----- --- ---- ------- -- ---- --- --<br>------- ------,237711,237710.39999997616,237007.086,237012,237034.56,237733.217,,15,In
screen,html.Screen,2_1_1_1_16,2022-05-09T11:51:37.912Z,,,,,,,,,,,,,,,,,54,,,,,,,,,,,,,,396.48299992847024,,response,,,,100,,,,,,,Space,keypress(Space),,,,,,,,"-- --- ---- --- ------ ----- ------- ---- -- --- ------- --<br>------- ---------- ------ -- 1727, -- ----- -- ---- ------<br>--- ----- --- --- ------ -------- ----- --- ------ ----- --<br>----- ----- ---------- --- --- ------ ------ ---- -- ------<br>------- --- ------ ----- --- ---- ------- -- ---- --- --<br>------- ------",238130.39999997616,238129.69999992847,237696.372,237711.09999990463,237733.217,238132.494,,16,"1727,"
screen,html.Screen,2_1_1_1_17,2022-05-09T11:51:39.763Z,,,,,,,,,,,,,,,,,54,,,,,,,,,,,,,,1848.1059999046265,,response,,,,100,,,,,,,Space,keypress(Space),,,,,,,,-- --- ---- --- ------ ----- ------- ---- -- --- ------- --<br>------- ---------- ------ -- ----- in ----- -- ---- ------<br>--- ----- --- --- ------ -------- ----- --- ------ ----- --<br>----- ----- ---------- --- --- ------ ------ ---- -- ------<br>------- --- ------ ----- --- ---- ------- -- ---- --- --<br>------- ------,239981.29999995232,239980.59999990463,238116.645,238130.59999990463,238132.494,239997.533,,17,in
screen,html.Screen,2_1_1_1_18,2022-05-09T11:51:40.262Z,,,,,,,,,,,,,,,,,54,,,,,,,,,,,,,,482.86699997616233,,response,,,,100,,,,,,,Space,keypress(Space),,,,,,,,-- --- ---- --- ------ ----- ------- ---- -- --- ------- --<br>------- ---------- ------ -- ----- -- order -- ---- ------<br>--- ----- --- --- ------ -------- ----- --- ------ ----- --<br>----- ----- ---------- --- --- ------ ------ ---- -- ------<br>------- --- ------ ----- --- ---- ------- -- ---- --- --<br>------- ------,240481.09999990463,240480.39999997616,239977.793,239981.59999990463,239997.533,240483.537,,18,order
screen,html.Screen,2_1_1_1_19,2022-05-09T11:51:44.726Z,,,,,,,,,,,,,,,,,54,,,,,,,,,,,,,,4460.362999976147,,response,,,,100,,,,,,,Space,keypress(Space),,,,,,,,-- --- ---- --- ------ ----- ------- ---- -- --- ------- --<br>------- ---------- ------ -- ----- -- ----- to ---- ------<br>--- ----- --- --- ------ -------- ----- --- ------ ----- --<br>----- ----- ---------- --- --- ------ ------ ---- -- ------<br>------- --- ------ ----- --- ---- ------- -- ---- --- --<br>------- ------,244944.89999997616,244943.89999997616,240480.921,240481.29999995232,240483.537,244962.933,,19,to
screen,html.Screen,2_1_1_1_20,2022-05-09T11:51:45.226Z,,,,,,,,,,,,,,,,,54,,,,,,,,,,,,,,480.8669999523263,,response,,,,100,,,,,,,Space,keypress(Space),,,,,,,,-- --- ---- --- ------ ----- ------- ---- -- --- ------- --<br>------- ---------- ------ -- ----- -- ----- -- save ------<br>--- ----- --- --- ------ -------- ----- --- ------ ----- --<br>----- ----- ---------- --- --- ------ ------ ---- -- ------<br>------- --- ------ ----- --- ---- ------- -- ---- --- --<br>------- ------,245444.59999990463,245443.79999995232,244934.393,244945,244962.933,245448.871,,20,save
screen,html.Screen,2_1_1_1_21,2022-05-09T11:51:45.679Z,,,,,,,,,,,,,,,,,54,,,,,,,,,,,,,,447.92899995230255,,response,,,,100,,,,,,,Space,keypress(Space),,,,,,,,"-- --- ---- --- ------ ----- ------- ---- -- --- ------- --<br>------- ---------- ------ -- ----- -- ----- -- ---- money,<br>--- ----- --- --- ------ -------- ----- --- ------ ----- --<br>----- ----- ---------- --- --- ------ ------ ---- -- ------<br>------- --- ------ ----- --- ---- ------- -- ---- --- --<br>------- ------",245897.5,245896.79999995232,245429.382,245444.89999997616,245448.871,245909.813,,21,"money,"
screen,html.Screen,2_1_1_1_22,2022-05-09T11:51:46.312Z,,,,,,,,,,,,,,,,,54,,,,,,,,,,,,,,619.9869999523216,,response,,,,100,,,,,,,Space,keypress(Space),,,,,,,,-- --- ---- --- ------ ----- ------- ---- -- --- ------- --<br>------- ---------- ------ -- ----- -- ----- -- ---- ------<br>the ----- --- --- ------ -------- ----- --- ------ ----- --<br>----- ----- ---------- --- --- ------ ------ ---- -- ------<br>------- --- ------ ----- --- ---- ------- -- ---- --- --<br>------- ------,246530.59999990463,246529.79999995232,245882.624,245897.59999990463,245909.813,246548.314,,22,the
screen,html.Screen,2_1_1_1_23,2022-05-09T11:51:46.702Z,,,,,,,,,,,,,,,,,54,,,,,,,,,,,,,,372.18599999998696,,response,,,,100,,,,,,,Space,keypress(Space),,,,,,,,-- --- ---- --- ------ ----- ------- ---- -- --- ------- --<br>------- ---------- ------ -- ----- -- ----- -- ---- ------<br>--- state --- --- ------ -------- ----- --- ------ ----- --<br>----- ----- ---------- --- --- ------ ------ ---- -- ------<br>------- --- ------ ----- --- ---- ------- -- ---- --- --<br>------- ------,246921.39999997616,246920.5,246526.611,246530.69999992847,246548.314,246934.138,,23,state
screen,html.Screen,2_1_1_1_24,2022-05-09T11:51:47.057Z,,,,,,,,,,,,,,,,,54,,,,,,,,,,,,,,341.06199992846814,,response,,,,100,,,,,,,Space,keypress(Space),,,,,,,,-- --- ---- --- ------ ----- ------- ---- -- --- ------- --<br>------- ---------- ------ -- ----- -- ----- -- ---- ------<br>--- ----- cut --- ------ -------- ----- --- ------ ----- --<br>----- ----- ---------- --- --- ------ ------ ---- -- ------<br>------- --- ------ ----- --- ---- ------- -- ---- --- --<br>------- ------,247276.09999990463,247275.19999992847,246915.39,246921.59999990463,246934.138,247289.726,,24,cut
screen,html.Screen,2_1_1_1_25,2022-05-09T11:51:47.275Z,,,,,,,,,,,,,,,,,54,,,,,,,,,,,,,,203.2740000000049,,response,,,,100,,,,,,,Space,keypress(Space),,,,,,,,-- --- ---- --- ------ ----- ------- ---- -- --- ------- --<br>------- ---------- ------ -- ----- -- ----- -- ---- ------<br>--- ----- --- the ------ -------- ----- --- ------ ----- --<br>----- ----- ---------- --- --- ------ ------ ---- -- ------<br>------- --- ------ ----- --- ---- ------- -- ---- --- --<br>------- ------,247493.69999992847,247493,247267.156,247276.19999992847,247289.726,247515.341,,25,the
screen,html.Screen,2_1_1_1_26,2022-05-09T11:51:47.459Z,,,,,,,,,,,,,,,,,54,,,,,,,,,,,,,,161.35899992848863,,response,,,,100,,,,,,,Space,keypress(Space),,,,,,,,-- --- ---- --- ------ ----- ------- ---- -- --- ------- --<br>------- ---------- ------ -- ----- -- ----- -- ---- ------<br>--- ----- --- --- bonds' -------- ----- --- ------ ----- --<br>----- ----- ---------- --- --- ------ ------ ---- -- ------<br>------- --- ------ ----- --- ---- ------- -- ---- --- --<br>------- ------,247677.5,247676.69999992847,247489.642,247493.79999995232,247515.341,247697.334,,26,bonds'
screen,html.Screen,2_1_1_1_27,2022-05-09T11:51:47.987Z,,,,,,,,,,,,,,,,,54,,,,,,,,,,,,,,507.4659999523137,,response,,,,100,,,,,,,Space,keypress(Space),,,,,,,,-- --- ---- --- ------ ----- ------- ---- -- --- ------- --<br>------- ---------- ------ -- ----- -- ----- -- ---- ------<br>--- ----- --- --- ------ interest ----- --- ------ ----- --<br>----- ----- ---------- --- --- ------ ------ ---- -- ------<br>------- --- ------ ----- --- ---- ------- -- ---- --- --<br>------- ------,248205.5,248204.79999995232,247665.148,247677.59999990463,247697.334,248213.227,,27,interest
screen,html.Screen,2_1_1_1_28,2022-05-09T11:51:48.309Z,,,,,,,,,,,,,,,,,54,,,,,,,,,,,,,,313.87299990461906,,response,,,,100,,,,,,,Space,keypress(Space),,,,,,,,-- --- ---- --- ------ ----- ------- ---- -- --- ------- --<br>------- ---------- ------ -- ----- -- ----- -- ---- ------<br>--- ----- --- --- ------ -------- rate. --- ------ ----- --<br>----- ----- ---------- --- --- ------ ------ ---- -- ------<br>------- --- ------ ----- --- ---- ------- -- ---- --- --<br>------- ------,248527.79999995232,248527.09999990463,248197.183,248205.69999992847,248213.227,248547.402,,28,rate.
screen,html.Screen,2_1_1_1_29,2022-05-09T11:51:48.682Z,,,,,,,,,,,,,,,,,54,,,,,,,,,,,,,,352.59799999999814,,response,,,,100,,,,,,,Space,keypress(Space),,,,,,,,-- --- ---- --- ------ ----- ------- ---- -- --- ------- --<br>------- ---------- ------ -- ----- -- ----- -- ---- ------<br>--- ----- --- --- ------ -------- ----- The ------ ----- --<br>----- ----- ---------- --- --- ------ ------ ---- -- ------<br>------- --- ------ ----- --- ---- ------- -- ---- --- --<br>------- ------,248900.89999997616,248900,248513.302,248527.89999997616,248547.402,248904.314,,29,The
screen,html.Screen,2_1_1_1_30,2022-05-09T11:51:48.882Z,,,,,,,,,,,,,,,,,54,,,,,,,,,,,,,,195.68599999998696,,response,,,,100,,,,,,,Space,keypress(Space),,,,,,,,-- --- ---- --- ------ ----- ------- ---- -- --- ------- --<br>------- ---------- ------ -- ----- -- ----- -- ---- ------<br>--- ----- --- --- ------ -------- ----- --- market ----- --<br>----- ----- ---------- --- --- ------ ------ ---- -- ------<br>------- --- ------ ----- --- ---- ------- -- ---- --- --<br>------- ------,249100.79999995232,249100,248897.397,248901.09999990463,248904.314,249108.096,,30,market
screen,html.Screen,2_1_1_1_31,2022-05-09T11:51:49.272Z,,,,,,,,,,,,,,,,,54,,,,,,,,,,,,,,381.90400000000955,,response,,,,100,,,,,,,Space,keypress(Space),,,,,,,,-- --- ---- --- ------ ----- ------- ---- -- --- ------- --<br>------- ---------- ------ -- ----- -- ----- -- ---- ------<br>--- ----- --- --- ------ -------- ----- --- ------ value --<br>----- ----- ---------- --- --- ------ ------ ---- -- ------<br>------- --- ------ ----- --- ---- ------- -- ---- --- --<br>------- ------,249490.89999997616,249490,249087.654,249101,249108.096,249507.673,,31,value
screen,html.Screen,2_1_1_1_32,2022-05-09T11:51:49.658Z,,,,,,,,,,,,,,,,,54,,,,,,,,,,,,,,368.3269999999902,,response,,,,100,,,,,,,Space,keypress(Space),,,,,,,,-- --- ---- --- ------ ----- ------- ---- -- --- ------- --<br>------- ---------- ------ -- ----- -- ----- -- ---- ------<br>--- ----- --- --- ------ -------- ----- --- ------ ----- of<br>----- ----- ---------- --- --- ------ ------ ---- -- ------<br>------- --- ------ ----- --- ---- ------- -- ---- --- --<br>------- ------,249876.69999992847,249876,249491.445,249491,249507.673,249891.467,,32,of
screen,html.Screen,2_1_1_1_33,2022-05-09T11:51:50.032Z,,,,,,,,,,,,,,,,,54,,,,,,,,,,,,,,358.23299992847024,,response,,,,100,,,,,,,Space,keypress(Space),,,,,,,,-- --- ---- --- ------ ----- ------- ---- -- --- ------- --<br>------- ---------- ------ -- ----- -- ----- -- ---- ------<br>--- ----- --- --- ------ -------- ----- --- ------ ----- --<br>these ----- ---------- --- --- ------ ------ ---- -- ------<br>------- --- ------ ----- --- ---- ------- -- ---- --- --<br>------- ------,250250.39999997616,250249.69999992847,249874.092,249876.89999997616,249891.467,250268.957,,33,these
screen,html.Screen,2_1_1_1_34,2022-05-09T11:51:50.436Z,,,,,,,,,,,,,,,,,54,,,,,,,,,,,,,,384.74299992847955,,response,,,,100,,,,,,,Space,keypress(Space),,,,,,,,-- --- ---- --- ------ ----- ------- ---- -- --- ------- --<br>------- ---------- ------ -- ----- -- ----- -- ---- ------<br>--- ----- --- --- ------ -------- ----- --- ------ ----- --<br>----- bonds ---------- --- --- ------ ------ ---- -- ------<br>------- --- ------ ----- --- ---- ------- -- ---- --- --<br>------- ------,250654.39999997616,250653.69999992847,250241.446,250250.59999990463,250268.957,250668.37,,34,bonds
screen,html.Screen,2_1_1_1_35,2022-05-09T11:51:50.750Z,,,,,,,,,,,,,,,,,54,,,,,,,,,,,,,,300.0299999761628,,response,,,,100,,,,,,,Space,keypress(Space),,,,,,,,"-- --- ---- --- ------ ----- ------- ---- -- --- ------- --<br>------- ---------- ------ -- ----- -- ----- -- ---- ------<br>--- ----- --- --- ------ -------- ----- --- ------ ----- --<br>----- ----- plummeted, --- --- ------ ------ ---- -- ------<br>------- --- ------ ----- --- ---- ------- -- ---- --- --<br>------- ------",250968.89999997616,250968.39999997616,250652.378,250655.39999997616,250668.37,250988.632,,35,"plummeted,"
screen,html.Screen,2_1_1_1_36,2022-05-09T11:51:51.124Z,,,,,,,,,,,,,,,,,54,,,,,,,,,,,,,,353.36799999998766,,response,,,,100,,,,,,,Space,keypress(Space),,,,,,,,-- --- ---- --- ------ ----- ------- ---- -- --- ------- --<br>------- ---------- ------ -- ----- -- ----- -- ---- ------<br>--- ----- --- --- ------ -------- ----- --- ------ ----- --<br>----- ----- ---------- and --- ------ ------ ---- -- ------<br>------- --- ------ ----- --- ---- ------- -- ---- --- --<br>------- ------,251342.69999992847,251342,250968.342,250969,250988.632,251344.459,,36,and
screen,html.Screen,2_1_1_1_37,2022-05-09T11:51:51.511Z,,,,,,,,,,,,,,,,,54,,,,,,,,,,,,,,384.54099999999744,,response,,,,100,,,,,,,Space,keypress(Space),,,,,,,,-- --- ---- --- ------ ----- ------- ---- -- --- ------- --<br>------- ---------- ------ -- ----- -- ----- -- ---- ------<br>--- ----- --- --- ------ -------- ----- --- ------ ----- --<br>----- ----- ---------- --- the ------ ------ ---- -- ------<br>------- --- ------ ----- --- ---- ------- -- ---- --- --<br>------- ------,251729.89999997616,251729,251338.708,251342.79999995232,251344.459,251743.77,,37,the
screen,html.Screen,2_1_1_1_38,2022-05-09T11:51:51.806Z,,,,,,,,,,,,,,,,,54,,,,,,,,,,,,,,280.2300000000105,,response,,,,100,,,,,,,Space,keypress(Space),,,,,,,,-- --- ---- --- ------ ----- ------- ---- -- --- ------- --<br>------- ---------- ------ -- ----- -- ----- -- ---- ------<br>--- ----- --- --- ------ -------- ----- --- ------ ----- --<br>----- ----- ---------- --- --- market ------ ---- -- ------<br>------- --- ------ ----- --- ---- ------- -- ---- --- --<br>------- ------,252024.69999992847,252024,251727.826,251730.09999990463,251743.77,252042.725,,38,market
screen,html.Screen,2_1_1_1_39,2022-05-09T11:51:52.287Z,,,,,,,,,,,,,,,,,54,,,,,,,,,,,,,,462.6749999761523,,response,,,,100,,,,,,,Space,keypress(Space),,,,,,,,-- --- ---- --- ------ ----- ------- ---- -- --- ------- --<br>------- ---------- ------ -- ----- -- ----- -- ---- ------<br>--- ----- --- --- ------ -------- ----- --- ------ ----- --<br>----- ----- ---------- --- --- ------ became ---- -- ------<br>------- --- ------ ----- --- ---- ------- -- ---- --- --<br>------- ------,252506.19999992847,252505.39999997616,252010.524,252024.89999997616,252042.725,252528.747,,39,became
screen,html.Screen,2_1_1_1_40,2022-05-09T11:51:52.863Z,,,,,,,,,,,,,,,,,54,,,,,,,,,,,,,,552.752999999997,,response,,,,100,,,,,,,Space,keypress(Space),,,,,,,,-- --- ---- --- ------ ----- ------- ---- -- --- ------- --<br>------- ---------- ------ -- ----- -- ----- -- ---- ------<br>--- ----- --- --- ------ -------- ----- --- ------ ----- --<br>----- ----- ---------- --- --- ------ ------ wary -- ------<br>------- --- ------ ----- --- ---- ------- -- ---- --- --<br>------- ------,253082.19999992847,253081.5,252492.894,252506.39999997616,252528.747,253088.153,,40,wary
screen,html.Screen,2_1_1_1_41,2022-05-09T11:51:53.237Z,,,,,,,,,,,,,,,,,54,,,,,,,,,,,,,,366.9469999046414,,response,,,,100,,,,,,,Space,keypress(Space),,,,,,,,-- --- ---- --- ------ ----- ------- ---- -- --- ------- --<br>------- ---------- ------ -- ----- -- ----- -- ---- ------<br>--- ----- --- --- ------ -------- ----- --- ------ ----- --<br>----- ----- ---------- --- --- ------ ------ ---- of ------<br>------- --- ------ ----- --- ---- ------- -- ---- --- --<br>------- ------,253455.89999997616,253455.09999990463,253079.141,253082.39999997616,253088.153,253466.09,,41,of
screen,html.Screen,2_1_1_1_42,2022-05-09T11:51:53.624Z,,,,,,,,,,,,,,,,,54,,,,,,,,,,,,,,375.50999990463606,,response,,,,100,,,,,,,Space,keypress(Space),,,,,,,,-- --- ---- --- ------ ----- ------- ---- -- --- ------- --<br>------- ---------- ------ -- ----- -- ----- -- ---- ------<br>--- ----- --- --- ------ -------- ----- --- ------ ----- --<br>----- ----- ---------- --- --- ------ ------ ---- -- French<br>------- --- ------ ----- --- ---- ------- -- ---- --- --<br>------- ------,253842.39999997616,253841.59999990463,253455.073,253456,253466.09,253865.081,,42,French
screen,html.Screen,2_1_1_1_43,2022-05-09T11:51:55.147Z,,,,,,,,,,,,,,,,,54,,,,,,,,,,,,,,1499.9189999999944,,response,,,,100,,,,,,,Space,keypress(Space),,,,,,,,-- --- ---- --- ------ ----- ------- ---- -- --- ------- --<br>------- ---------- ------ -- ----- -- ----- -- ---- ------<br>--- ----- --- --- ------ -------- ----- --- ------ ----- --<br>----- ----- ---------- --- --- ------ ------ ---- -- ------<br>credit. --- ------ ----- --- ---- ------- -- ---- --- --<br>------- ------,255365.69999992847,255365,253832.584,253842.5,253865.081,255376.327,,43,credit.
screen,html.Screen,2_1_1_1_44,2022-05-09T11:51:55.555Z,,,,,,,,,,,,,,,,,54,,,,,,,,,,,,,,396.6730000000098,,response,,,,100,,,,,,,Space,keypress(Space),,,,,,,,-- --- ---- --- ------ ----- ------- ---- -- --- ------- --<br>------- ---------- ------ -- ----- -- ----- -- ---- ------<br>--- ----- --- --- ------ -------- ----- --- ------ ----- --<br>----- ----- ---------- --- --- ------ ------ ---- -- ------<br>------- The ------ ----- --- ---- ------- -- ---- --- --<br>------- ------,255773.5,255773,255365.262,255365.89999997616,255376.327,255775.206,,44,The
screen,html.Screen,2_1_1_1_45,2022-05-09T11:51:56.078Z,,,,,,,,,,,,,,,,,54,,,,,,,,,,,,,,521.0939999523107,,response,,,,100,,,,,,,Space,keypress(Space),,,,,,,,-- --- ---- --- ------ ----- ------- ---- -- --- ------- --<br>------- ---------- ------ -- ----- -- ----- -- ---- ------<br>--- ----- --- --- ------ -------- ----- --- ------ ----- --<br>----- ----- ---------- --- --- ------ ------ ---- -- ------<br>------- --- French ----- --- ---- ------- -- ---- --- --<br>------- ------,256297.09999990463,256296.29999995232,255759.276,255773.59999990463,255775.206,256313.277,,45,French
screen,html.Screen,2_1_1_1_46,2022-05-09T11:51:56.560Z,,,,,,,,,,,,,,,,,54,,,,,,,,,,,,,,465.3229999046307,,response,,,,100,,,,,,,Space,keypress(Space),,,,,,,,-- --- ---- --- ------ ----- ------- ---- -- --- ------- --<br>------- ---------- ------ -- ----- -- ----- -- ---- ------<br>--- ----- --- --- ------ -------- ----- --- ------ ----- --<br>----- ----- ---------- --- --- ------ ------ ---- -- ------<br>------- --- ------ state --- ---- ------- -- ---- --- --<br>------- ------,256779.29999995232,256778.59999990463,256292.071,256297.19999992847,256313.277,256799.727,,46,state
screen,html.Screen,2_1_1_1_47,2022-05-09T11:51:56.731Z,,,,,,,,,,,,,,,,,54,,,,,,,,,,,,,,149.37299990461906,,response,,,,100,,,,,,,Space,keypress(Space),,,,,,,,-- --- ---- --- ------ ----- ------- ---- -- --- ------- --<br>------- ---------- ------ -- ----- -- ----- -- ---- ------<br>--- ----- --- --- ------ -------- ----- --- ------ ----- --<br>----- ----- ---------- --- --- ------ ------ ---- -- ------<br>------- --- ------ ----- was ---- ------- -- ---- --- --<br>------- ------,256950.09999990463,256949.09999990463,256763.463,256779.5,256799.727,256965.945,,47,was
screen,html.Screen,2_1_1_1_48,2022-05-09T11:51:57.305Z,,,,,,,,,,,,,,,,,54,,,,,,,,,,,,,,557.3549999523093,,response,,,,100,,,,,,,Space,keypress(Space),,,,,,,,-- --- ---- --- ------ ----- ------- ---- -- --- ------- --<br>------- ---------- ------ -- ----- -- ----- -- ---- ------<br>--- ----- --- --- ------ -------- ----- --- ------ ----- --<br>----- ----- ---------- --- --- ------ ------ ---- -- ------<br>------- --- ------ ----- --- left ------- -- ---- --- --<br>------- ------,257524.09999990463,257523.29999995232,256949.599,256950.39999997616,256965.945,257539.287,,48,left
screen,html.Screen,2_1_1_1_49,2022-05-09T11:51:57.569Z,,,,,,,,,,,,,,,,,54,,,,,,,,,,,,,,247.71299999998882,,response,,,,100,,,,,,,Space,keypress(Space),,,,,,,,-- --- ---- --- ------ ----- ------- ---- -- --- ------- --<br>------- ---------- ------ -- ----- -- ----- -- ---- ------<br>--- ----- --- --- ------ -------- ----- --- ------ ----- --<br>----- ----- ---------- --- --- ------ ------ ---- -- ------<br>------- --- ------ ----- --- ---- without -- ---- --- --<br>------- ------,257787.79999995232,257787,257516.024,257524.29999995232,257539.287,257808.005,,49,without
screen,html.Screen,2_1_1_1_50,2022-05-09T11:51:58.063Z,,,,,,,,,,,,,,,,,54,,,,,,,,,,,,,,472.5949999046279,,response,,,,100,,,,,,,Space,keypress(Space),,,,,,,,-- --- ---- --- ------ ----- ------- ---- -- --- ------- --<br>------- ---------- ------ -- ----- -- ----- -- ---- ------<br>--- ----- --- --- ------ -------- ----- --- ------ ----- --<br>----- ----- ---------- --- --- ------ ------ ---- -- ------<br>------- --- ------ ----- --- ---- ------- an ---- --- --<br>------- ------,258281.39999997616,258280.59999990463,257772.856,257788,257808.005,258285.602,,50,an
screen,html.Screen,2_1_1_1_51,2022-05-09T11:51:58.435Z,,,,,,,,,,,,,,,,,54,,,,,,,,,,,,,,367.6979999523028,,response,,,,100,,,,,,,Space,keypress(Space),,,,,,,,-- --- ---- --- ------ ----- ------- ---- -- --- ------- --<br>------- ---------- ------ -- ----- -- ----- -- ---- ------<br>--- ----- --- --- ------ -------- ----- --- ------ ----- --<br>----- ----- ---------- --- --- ------ ------ ---- -- ------<br>------- --- ------ ----- --- ---- ------- -- easy --- --<br>------- ------,258654.09999990463,258653.29999995232,258274.9,258281.59999990463,258285.602,258663.616,,51,easy
screen,html.Screen,2_1_1_1_52,2022-05-09T11:51:58.775Z,,,,,,,,,,,,,,,,,54,,,,,,,,,,,,,,329.78399997614906,,response,,,,100,,,,,,,Space,keypress(Space),,,,,,,,-- --- ---- --- ------ ----- ------- ---- -- --- ------- --<br>------- ---------- ------ -- ----- -- ----- -- ---- ------<br>--- ----- --- --- ------ -------- ----- --- ------ ----- --<br>----- ----- ---------- --- --- ------ ------ ---- -- ------<br>------- --- ------ ----- --- ---- ------- -- ---- way --<br>------- ------,258994.09999990463,258993.39999997616,258652.678,258654.19999992847,258663.616,259011.055,,52,way
screen,html.Screen,2_1_1_1_53,2022-05-09T11:51:59.199Z,,,,,,,,,,,,,,,,,54,,,,,,,,,,,,,,405.945000000007,,response,,,,100,,,,,,,Space,keypress(Space),,,,,,,,-- --- ---- --- ------ ----- ------- ---- -- --- ------- --<br>------- ---------- ------ -- ----- -- ----- -- ---- ------<br>--- ----- --- --- ------ -------- ----- --- ------ ----- --<br>----- ----- ---------- --- --- ------ ------ ---- -- ------<br>------- --- ------ ----- --- ---- ------- -- ---- --- of<br>------- ------,259417.79999995232,259417,258980.139,258994.19999992847,259011.055,259431.493,,53,of
screen,html.Screen,2_1_1_1_54,2022-05-09T11:51:59.633Z,,,,,,,,,,,,,,,,,54,,,,,,,,,,,,,,420.00700000001234,,response,,,,100,,,,,,,Space,keypress(Space),,,,,,,,-- --- ---- --- ------ ----- ------- ---- -- --- ------- --<br>------- ---------- ------ -- ----- -- ----- -- ---- ------<br>--- ----- --- --- ------ -------- ----- --- ------ ----- --<br>----- ----- ---------- --- --- ------ ------ ---- -- ------<br>------- --- ------ ----- --- ---- ------- -- ---- --- --<br>raising ------,259852.19999992847,259851.5,259410.452,259417.89999997616,259431.493,259874.542,,54,raising
screen,html.Screen,2_1_1_1_55,2022-05-09T11:52:00.115Z,,,,,,,,,,,,,,,,,54,,,,,,,,,,,,,,458.8579999761714,,response,,,,100,,,,,,,Space,keypress(Space),,,,,,,,-- --- ---- --- ------ ----- ------- ---- -- --- ------- --<br>------- ---------- ------ -- ----- -- ----- -- ---- ------<br>--- ----- --- --- ------ -------- ----- --- ------ ----- --<br>----- ----- ---------- --- --- ------ ------ ---- -- ------<br>------- --- ------ ----- --- ---- ------- -- ---- --- --<br>------- money.,260334.09999990463,260333.39999997616,259848.521,259852.39999997616,259874.542,260356.959,,55,money.
Item 100,flow.Loop,2_1_1_1,2022-05-09T11:52:00.116Z,,,,,,,,,,,,,,,,,,,,,,,,,,,,,,,31451.731999976153,,completion,,,,,D,,,,,,,,,,,silence,,,,,260334.5,260333.39999997616,228865.014,228866.39999997616,228881.668,260356.959,,,
Question 1,html.Screen,2_1_1_2,2022-05-09T11:52:02.244Z,,,,,,,,,,,,,,,,,,,,,,,,,,,,true,TRUE,,2105.14099990463,,response,,,,100,D,,,,,,TRUE,click #choice-1,,,,silence,,,,,262463.2999999523,262462.09999990463,260324.273,260334.59999990463,260356.959,262477.079,,,
Question 2,html.Screen,2_1_1_3,2022-05-09T11:52:03.926Z,,,,,,,,,,,,,,,,,,,,,,,,,,,,true,FALSE,,1666.5209999046056,,response,,,,100,D,,,,,,FALSE,click #choice-2,,,,silence,,,,,264144.5,264143.59999990463,262460.245,262463.39999997616,262477.079,264152.471,,,
Item 100,flow.Sequence,2_1_1,2022-05-09T11:52:03.926Z,,,,,,,,,,,,,,,,,,,,,,,,,,,,,,,45269.88299990463,,completion,,,,,,,,,,,,,,,,,,,,,264144.6999999285,264143.59999990463,218857.005,218857.79999995232,218873.717,264152.471,,,
End of Practice,html.Page,2_1_2,2022-05-09T11:52:06.851Z,,,,,,,,,,,,,,,,,,,,,,,,,,,,,,,2917.3289999522967,,form submission,,,,,,,,,,,,,,,,,,,,,267070.1999999285,267069.7999999523,264135.701,264144.7999999523,264152.471,267075.171,,,
Practice,flow.Sequence,2_1,2022-05-09T11:52:06.852Z,,,,,,,,,,,,,,,,,,,,,,,,,,,,,,,94326.0539999523,,completion,,,,,,,,,,,,,,,,,,,,,267070.5,267069.7999999523,172727.134,172738.09999990463,172743.746,267075.171,,,
Trap_instruction,html.Page,2_2_0,2022-05-09T11:52:13.382Z,,,,,,,,,,,,,,,,,,,,,,,,,,,,,,,6525.42899990466,,form submission,,,,,,,,,,,,,,,,,,,,,273600.89999997616,273600.59999990463,267058.496,267070.6999999285,267075.171,273614.233,,,
trap_trial,html.Screen,2_2_1,2022-05-09T11:52:18.202Z,,,,,,,,,,,,,,,,,,,,,,,,,,,,true,1,,4805.766999999993,,response,,,,,,,,,,,1,click #choice-1,,,,,,,,,278420.6999999285,278420,273597.596,273601.09999990463,273614.233,278425.552,,,
end of trap trial,html.Page,2_2_2,2022-05-09T11:52:19.651Z,,,,,,,,,,,,,,,,,,,,,,,,,,,,,,,1443.5479999046074,,form submission,,,,,,,,,,,,,,,,,,,,,279869.39999997616,279869.09999990463,278408.989,278420.7999999523,278425.552,279869.315,,,
Trap 1,flow.Sequence,2_2,2022-05-09T11:52:19.651Z,,,,,,,,,,,,,,,,,,,,,,,,,,,,,,,12793.92899990466,,completion,,,,,,,,,,,,,,,,,,,,,279869.7999999523,279869.09999990463,267058.496,267070.59999990463,267075.171,279869.315,,,
Standby,html.Page,2_3_0,2022-05-09T11:52:27.635Z,,,,,,,,,,,,,,,,,,,,,,,,,,,,,,,7999.786000000022,,timeout,,,,,,,,,,,,,,,,,,,,,287853.59999990463,287852.575,279852.715,279870.09999990463,279869.315,287869.101,,,
Holding screen,html.Screen,2_3_1_0_0,2022-05-09T11:52:34.635Z,,,,,,,,,,,,,,,,,,,,,,,,,,,,,,,6999.824999999953,,timeout,,,,,,,,,,,,,,,,,,,,,294853.09999990463,294852.152,287852.575,287853.89999997616,287869.101,294868.926,,,
screen,html.Screen,2_3_1_0_1_0,2022-05-09T11:52:37.252Z,,,,,,,,,,,,,,,,,40,,,,,,,,,,,,,,2600.3739999523386,,response,,,,9,D,,,,,,Space,keypress(Space),,,,speech,,,,Police -- ------- ---- ---- ---- - -------- ----- --- --<br>----- ----- ------ -- ---- -- --- - ---- -- - ----- -----<br>------ ---- ------ ---- - -------- ------- -- --- --------<br>-------- ----------- ---- ------ ---- ------ ---- --- ---<br>-------- --- -----,297470.1999999285,297469.2999999523,294852.152,294853.2999999523,294868.926,297488.207,,0,Police
screen,html.Screen,2_3_1_0_1_1,2022-05-09T11:52:38.041Z,,,,,,,,,,,,,,,,,40,,,,,,,,,,,,,,770.0929999523214,,response,,,,9,D,,,,,,Space,keypress(Space),,,,speech,,,,------ in ------- ---- ---- ---- - -------- ----- --- --<br>----- ----- ------ -- ---- -- --- - ---- -- - ----- -----<br>------ ---- ------ ---- - -------- ------- -- --- --------<br>-------- ----------- ---- ------ ---- ------ ---- --- ---<br>-------- --- -----,298259.09999990463,298258.2999999523,297469.438,297470.39999997616,297488.207,298263.236,,1,in
screen,html.Screen,2_3_1_0_1_2,2022-05-09T11:52:38.832Z,,,,,,,,,,,,,,,,,40,,,,,,,,,,,,,,786.063999952341,,response,,,,9,D,,,,,,Space,keypress(Space),,,,speech,,,,------ -- Georgia ---- ---- ---- - -------- ----- --- --<br>----- ----- ------ -- ---- -- --- - ---- -- - ----- -----<br>------ ---- ------ ---- - -------- ------- -- --- --------<br>-------- ----------- ---- ------ ---- ------ ---- --- ---<br>-------- --- -----,299050.1999999285,299049.2999999523,298254.645,298259.39999997616,298263.236,299053.814,,2,Georgia
screen,html.Screen,2_3_1_0_1_3,2022-05-09T11:52:39.809Z,,,,,,,,,,,,,,,,,40,,,,,,,,,,,,,,972.8859999284614,,response,,,,9,D,,,,,,Space,keypress(Space),,,,speech,,,,------ -- ------- have ---- ---- - -------- ----- --- --<br>----- ----- ------ -- ---- -- --- - ---- -- - ----- -----<br>------ ---- ------ ---- - -------- ------- -- --- --------<br>-------- ----------- ---- ------ ---- ------ ---- --- ---<br>-------- --- -----,300027.5,300026.6999999285,299046.757,299050.2999999523,299053.814,300048.544,,3,have
screen,html.Screen,2_3_1_0_1_4,2022-05-09T11:52:40.264Z,,,,,,,,,,,,,,,,,40,,,,,,,,,,,,,,432.9560000000056,,response,,,,9,D,,,,,,Space,keypress(Space),,,,speech,,,,------ -- ------- ---- shut ---- - -------- ----- --- --<br>----- ----- ------ -- ---- -- --- - ---- -- - ----- -----<br>------ ---- ------ ---- - -------- ------- -- --- --------<br>-------- ----------- ---- ------ ---- ------ ---- --- ---<br>-------- --- -----,300482.1999999285,300481.5,300020.838,300027.6999999285,300048.544,300499.327,,4,shut
screen,html.Screen,2_3_1_0_1_5,2022-05-09T11:52:40.668Z,,,,,,,,,,,,,,,,,40,,,,,,,,,,,,,,386.3729999284842,,response,,,,9,D,,,,,,Space,keypress(Space),,,,speech,,,,------ -- ------- ---- ---- down - -------- ----- --- --<br>----- ----- ------ -- ---- -- --- - ---- -- - ----- -----<br>------ ---- ------ ---- - -------- ------- -- --- --------<br>-------- ----------- ---- ------ ---- ------ ---- --- ---<br>-------- --- -----,300886.2999999523,300885.6999999285,300481.697,300482.39999997616,300499.327,300898.632,,5,down
screen,html.Screen,2_3_1_0_1_6,2022-05-09T11:52:41.122Z,,,,,,,,,,,,,,,,,40,,,,,,,,,,,,,,440.86800000001676,,response,,,,9,D,,,,,,Space,keypress(Space),,,,speech,,,,------ -- ------- ---- ---- ---- a -------- ----- --- --<br>----- ----- ------ -- ---- -- --- - ---- -- - ----- -----<br>------ ---- ------ ---- - -------- ------- -- --- --------<br>-------- ----------- ---- ------ ---- ------ ---- --- ---<br>-------- --- -----,301340.7999999523,301339.5,300882.536,300886.5,300898.632,301349.021,,6,a
screen,html.Screen,2_3_1_0_1_7,2022-05-09T11:52:41.509Z,,,,,,,,,,,,,,,,,40,,,,,,,,,,,,,,377.4789999999921,,response,,,,9,D,,,,,,Space,keypress(Space),,,,speech,,,,------ -- ------- ---- ---- ---- - lemonade ----- --- --<br>----- ----- ------ -- ---- -- --- - ---- -- - ----- -----<br>------ ---- ------ ---- - -------- ------- -- --- --------<br>-------- ----------- ---- ------ ---- ------ ---- --- ---<br>-------- --- -----,301727.39999997616,301726.5,301331.762,301340.89999997616,301349.021,301748.614,,7,lemonade
screen,html.Screen,2_3_1_0_1_8,2022-05-09T11:52:41.959Z,,,,,,,,,,,,,,,,,40,,,,,,,,,,,,,,428.1859999523149,,response,,,,9,D,,,,,,Space,keypress(Space),,,,speech,,,,------ -- ------- ---- ---- ---- - -------- stand --- --<br>----- ----- ------ -- ---- -- --- - ---- -- - ----- -----<br>------ ---- ------ ---- - -------- ------- -- --- --------<br>-------- ----------- ---- ------ ---- ------ ---- --- ---<br>-------- --- -----,302177.59999990463,302176.7999999523,301715.687,301727.5,301748.614,302182.384,,8,stand
screen,html.Screen,2_3_1_0_1_9,2022-05-09T11:52:42.336Z,,,,,,,,,,,,,,,,,40,,,,,,,,,,,,,,371.11599999998,,response,,,,9,D,,,,,,Space,keypress(Space),,,,speech,,,,------ -- ------- ---- ---- ---- - -------- ----- run --<br>----- ----- ------ -- ---- -- --- - ---- -- - ----- -----<br>------ ---- ------ ---- - -------- ------- -- --- --------<br>-------- ----------- ---- ------ ---- ------ ---- --- ---<br>-------- --- -----,302554.2999999523,302553.5,302166.045,302177.7999999523,302182.384,302573.056,,9,run
screen,html.Screen,2_3_1_0_1_10,2022-05-09T11:52:42.803Z,,,,,,,,,,,,,,,,,40,,,,,,,,,,,,,,447.743999952334,,response,,,,9,D,,,,,,Space,keypress(Space),,,,speech,,,,------ -- ------- ---- ---- ---- - -------- ----- --- by<br>----- ----- ------ -- ---- -- --- - ---- -- - ----- -----<br>------ ---- ------ ---- - -------- ------- -- --- --------<br>-------- ----------- ---- ------ ---- ------ ---- --- ---<br>-------- --- -----,303021.5,303020.7999999523,302549.192,302554.5,302573.056,303037.968,,10,by
screen,html.Screen,2_3_1_0_1_11,2022-05-09T11:52:43.206Z,,,,,,,,,,,,,,,,,40,,,,,,,,,,,,,,385.8319999523228,,response,,,,9,D,,,,,,Space,keypress(Space),,,,speech,,,,------ -- ------- ---- ---- ---- - -------- ----- --- --<br>three ----- ------ -- ---- -- --- - ---- -- - ----- -----<br>------ ---- ------ ---- - -------- ------- -- --- --------<br>-------- ----------- ---- ------ ---- ------ ---- --- ---<br>-------- --- -----,303424.5,303423.7999999523,303006.619,303021.6999999285,303037.968,303445.324,,11,three
screen,html.Screen,2_3_1_0_1_12,2022-05-09T11:52:43.549Z,,,,,,,,,,,,,,,,,40,,,,,,,,,,,,,,320.67599999997765,,response,,,,9,D,,,,,,Space,keypress(Space),,,,speech,,,,------ -- ------- ---- ---- ---- - -------- ----- --- --<br>----- girls ------ -- ---- -- --- - ---- -- - ----- -----<br>------ ---- ------ ---- - -------- ------- -- --- --------<br>-------- ----------- ---- ------ ---- ------ ---- --- ---<br>-------- --- -----,303766.89999997616,303766,303421.335,303424.6999999285,303445.324,303779.306,,12,girls
screen,html.Screen,2_3_1_0_1_13,2022-05-09T11:52:43.857Z,,,,,,,,,,,,,,,,,40,,,,,,,,,,,,,,295.59399997617584,,response,,,,9,D,,,,,,Space,keypress(Space),,,,speech,,,,------ -- ------- ---- ---- ---- - -------- ----- --- --<br>----- ----- trying -- ---- -- --- - ---- -- - ----- -----<br>------ ---- ------ ---- - -------- ------- -- --- --------<br>-------- ----------- ---- ------ ---- ------ ---- --- ---<br>-------- --- -----,304075.6999999285,304074.89999997616,303761.814,303767,303779.306,304091.434,,13,trying
screen,html.Screen,2_3_1_0_1_14,2022-05-09T11:52:44.183Z,,,,,,,,,,,,,,,,,40,,,,,,,,,,,,,,309.0659999999916,,response,,,,9,D,,,,,,Space,keypress(Space),,,,speech,,,,------ -- ------- ---- ---- ---- - -------- ----- --- --<br>----- ----- ------ to ---- -- --- - ---- -- - ----- -----<br>------ ---- ------ ---- - -------- ------- -- --- --------<br>-------- ----------- ---- ------ ---- ------ ---- --- ---<br>-------- --- -----,304401.1999999285,304400.5,304062.401,304076,304091.434,304411.703,,14,to
screen,html.Screen,2_3_1_0_1_15,2022-05-09T11:52:44.355Z,,,,,,,,,,,,,,,,,40,,,,,,,,,,,,,,161.2970000000205,,response,,,,9,D,,,,,,Space,keypress(Space),,,,speech,,,,------ -- ------- ---- ---- ---- - -------- ----- --- --<br>----- ----- ------ -- save -- --- - ---- -- - ----- -----<br>------ ---- ------ ---- - -------- ------- -- --- --------<br>-------- ----------- ---- ------ ---- ------ ---- --- ---<br>-------- --- -----,304573.7999999523,304573,304391.369,304401.2999999523,304411.703,304593.913,,15,save
screen,html.Screen,2_3_1_0_1_16,2022-05-09T11:52:44.542Z,,,,,,,,,,,,,,,,,40,,,,,,,,,,,,,,165.58699999999953,,response,,,,9,D,,,,,,Space,keypress(Space),,,,speech,,,,------ -- ------- ---- ---- ---- - -------- ----- --- --<br>----- ----- ------ -- ---- up --- - ---- -- - ----- -----<br>------ ---- ------ ---- - -------- ------- -- --- --------<br>-------- ----------- ---- ------ ---- ------ ---- --- ---<br>-------- --- -----,304760.39999997616,304759.5,304561.715,304573.89999997616,304593.913,304775.942,,16,up
screen,html.Screen,2_3_1_0_1_17,2022-05-09T11:52:45.117Z,,,,,,,,,,,,,,,,,40,,,,,,,,,,,,,,559.0580000000191,,response,,,,9,D,,,,,,Space,keypress(Space),,,,speech,,,,------ -- ------- ---- ---- ---- - -------- ----- --- --<br>----- ----- ------ -- ---- -- for - ---- -- - ----- -----<br>------ ---- ------ ---- - -------- ------- -- --- --------<br>-------- ----------- ---- ------ ---- ------ ---- --- ---<br>-------- --- -----,305335.6999999285,305335,304760.583,304760.5,304775.942,305345.247,,17,for
screen,html.Screen,2_3_1_0_1_18,2022-05-09T11:52:45.429Z,,,,,,,,,,,,,,,,,40,,,,,,,,,,,,,,301.4529999285005,,response,,,,9,D,,,,,,Space,keypress(Space),,,,speech,,,,------ -- ------- ---- ---- ---- - -------- ----- --- --<br>----- ----- ------ -- ---- -- --- a ---- -- - ----- -----<br>------ ---- ------ ---- - -------- ------- -- --- --------<br>-------- ----------- ---- ------ ---- ------ ---- --- ---<br>-------- --- -----,305647.5,305646.6999999285,305326.036,305335.7999999523,305345.247,305657.854,,18,a
screen,html.Screen,2_3_1_0_1_19,2022-05-09T11:52:46.018Z,,,,,,,,,,,,,,,,,40,,,,,,,,,,,,,,577.7459999046405,,response,,,,9,D,,,,,,Space,keypress(Space),,,,speech,,,,------ -- ------- ---- ---- ---- - -------- ----- --- --<br>----- ----- ------ -- ---- -- --- - trip -- - ----- -----<br>------ ---- ------ ---- - -------- ------- -- --- --------<br>-------- ----------- ---- ------ ---- ------ ---- --- ---<br>-------- --- -----,306236.39999997616,306235.59999990463,305645.189,305647.59999990463,305657.854,306252.505,,19,trip
screen,html.Screen,2_3_1_0_1_20,2022-05-09T11:52:46.395Z,,,,,,,,,,,,,,,,,40,,,,,,,,,,,,,,360.2949999523116,,response,,,,9,D,,,,,,Space,keypress(Space),,,,speech,,,,------ -- ------- ---- ---- ---- - -------- ----- --- --<br>----- ----- ------ -- ---- -- --- - ---- to - ----- -----<br>------ ---- ------ ---- - -------- ------- -- --- --------<br>-------- ----------- ---- ------ ---- ------ ---- --- ---<br>-------- --- -----,306613.59999990463,306612.7999999523,306224.458,306236.5,306252.505,306625.355,,20,to
screen,html.Screen,2_3_1_0_1_21,2022-05-09T11:52:46.879Z,,,,,,,,,,,,,,,,,40,,,,,,,,,,,,,,471.34499992849305,,response,,,,9,D,,,,,,Space,keypress(Space),,,,speech,,,,------ -- ------- ---- ---- ---- - -------- ----- --- --<br>----- ----- ------ -- ---- -- --- - ---- -- a ----- -----<br>------ ---- ------ ---- - -------- ------- -- --- --------<br>-------- ----------- ---- ------ ---- ------ ---- --- ---<br>-------- --- -----,307097.5,307096.6999999285,306602.523,306613.6999999285,306625.355,307111.306,,21,a
screen,html.Screen,2_3_1_0_1_22,2022-05-09T11:52:47.517Z,,,,,,,,,,,,,,,,,40,,,,,,,,,,,,,,622.993999952334,,response,,,,9,D,,,,,,Space,keypress(Space),,,,speech,,,,------ -- ------- ---- ---- ---- - -------- ----- --- --<br>----- ----- ------ -- ---- -- --- - ---- -- - water -----<br>------ ---- ------ ---- - -------- ------- -- --- --------<br>-------- ----------- ---- ------ ---- ------ ---- --- ---<br>-------- --- -----,307735.09999990463,307734.2999999523,307092.009,307097.6999999285,307111.306,307758.053,,22,water
screen,html.Screen,2_3_1_0_1_23,2022-05-09T11:52:48.374Z,,,,,,,,,,,,,,,,,40,,,,,,,,,,,,,,833.64699992846,,response,,,,9,D,,,,,,Space,keypress(Space),,,,speech,,,,"------ -- ------- ---- ---- ---- - -------- ----- --- --<br>----- ----- ------ -- ---- -- --- - ---- -- - ----- park,<br>------ ---- ------ ---- - -------- ------- -- --- --------<br>-------- ----------- ---- ------ ---- ------ ---- --- ---<br>-------- --- -----",308592.5,308591.6999999285,307728.509,307735.1999999285,307758.053,308612.785,,23,"park,"
screen,html.Screen,2_3_1_0_1_24,2022-05-09T11:52:49.545Z,,,,,,,,,,,,,,,,,40,,,,,,,,,,,,,,1149.014999952342,,response,,,,9,D,,,,,,Space,keypress(Space),,,,speech,,,,------ -- ------- ---- ---- ---- - -------- ----- --- --<br>----- ----- ------ -- ---- -- --- - ---- -- - ----- -----<br>saying ---- ------ ---- - -------- ------- -- --- --------<br>-------- ----------- ---- ------ ---- ------ ---- --- ---<br>-------- --- -----,309762.89999997616,309761.7999999523,308591.131,308592.7999999523,308612.785,309781.54,,24,saying
screen,html.Screen,2_3_1_0_1_25,2022-05-09T11:52:50.525Z,,,,,,,,,,,,,,,,,40,,,,,,,,,,,,,,961.0599999046535,,response,,,,9,D,,,,,,Space,keypress(Space),,,,speech,,,,------ -- ------- ---- ---- ---- - -------- ----- --- --<br>----- ----- ------ -- ---- -- --- - ---- -- - ----- -----<br>------ they ------ ---- - -------- ------- -- --- --------<br>-------- ----------- ---- ------ ---- ------ ---- --- ---<br>-------- --- -----,310743.2999999523,310742.59999990463,309763.433,309763.09999990463,309781.54,310753.661,,25,they
screen,html.Screen,2_3_1_0_1_26,2022-05-09T11:52:50.960Z,,,,,,,,,,,,,,,,,40,,,,,,,,,,,,,,423.73899997613626,,response,,,,9,D,,,,,,Space,keypress(Space),,,,speech,,,,------ -- ------- ---- ---- ---- - -------- ----- --- --<br>----- ----- ------ -- ---- -- --- - ---- -- - ----- -----<br>------ ---- didn't ---- - -------- ------- -- --- --------<br>-------- ----------- ---- ------ ---- ------ ---- --- ---<br>-------- --- -----,311178.1999999285,311177.39999997616,310731.514,310743.59999990463,310753.661,311196.731,,26,didn't
screen,html.Screen,2_3_1_0_1_27,2022-05-09T11:52:51.316Z,,,,,,,,,,,,,,,,,40,,,,,,,,,,,,,,336.8689999046037,,response,,,,9,D,,,,,,Space,keypress(Space),,,,speech,,,,------ -- ------- ---- ---- ---- - -------- ----- --- --<br>----- ----- ------ -- ---- -- --- - ---- -- - ----- -----<br>------ ---- ------ have - -------- ------- -- --- --------<br>-------- ----------- ---- ------ ---- ------ ---- --- ---<br>-------- --- -----,311534.2999999523,311533.59999990463,311170.403,311178.2999999523,311196.731,311538.337,,27,have
screen,html.Screen,2_3_1_0_1_28,2022-05-09T11:52:51.737Z,,,,,,,,,,,,,,,,,40,,,,,,,,,,,,,,416.5629999761586,,response,,,,9,D,,,,,,Space,keypress(Space),,,,speech,,,,------ -- ------- ---- ---- ---- - -------- ----- --- --<br>----- ----- ------ -- ---- -- --- - ---- -- - ----- -----<br>------ ---- ------ ---- a -------- ------- -- --- --------<br>-------- ----------- ---- ------ ---- ------ ---- --- ---<br>-------- --- -----,311955.59999990463,311954.89999997616,311530.115,311534.5,311538.337,311959.4,,28,a
screen,html.Screen,2_3_1_0_1_29,2022-05-09T11:52:52.207Z,,,,,,,,,,,,,,,,,40,,,,,,,,,,,,,,465.5999999999767,,response,,,,9,D,,,,,,Space,keypress(Space),,,,speech,,,,------ -- ------- ---- ---- ---- - -------- ----- --- --<br>----- ----- ------ -- ---- -- --- - ---- -- - ----- -----<br>------ ---- ------ ---- - business ------- -- --- --------<br>-------- ----------- ---- ------ ---- ------ ---- --- ---<br>-------- --- -----,312425.7999999523,312425,311955.429,311955.7999999523,311959.4,312432.211,,29,business
screen,html.Screen,2_3_1_0_1_30,2022-05-09T11:52:52.597Z,,,,,,,,,,,,,,,,,40,,,,,,,,,,,,,,382.78899999998976,,response,,,,9,D,,,,,,Space,keypress(Space),,,,speech,,,,------ -- ------- ---- ---- ---- - -------- ----- --- --<br>----- ----- ------ -- ---- -- --- - ---- -- - ----- -----<br>------ ---- ------ ---- - -------- license -- --- --------<br>-------- ----------- ---- ------ ---- ------ ---- --- ---<br>-------- --- -----,312815.6999999285,312815,312426.23,312426,312432.211,312831.417,,30,license
screen,html.Screen,2_3_1_0_1_31,2022-05-09T11:52:52.986Z,,,,,,,,,,,,,,,,,40,,,,,,,,,,,,,,372.2829999284586,,response,,,,9,D,,,,,,Space,keypress(Space),,,,speech,,,,------ -- ------- ---- ---- ---- - -------- ----- --- --<br>----- ----- ------ -- ---- -- --- - ---- -- - ----- -----<br>------ ---- ------ ---- - -------- ------- or --- --------<br>-------- ----------- ---- ------ ---- ------ ---- --- ---<br>-------- --- -----,313204.59999990463,313203.6999999285,312815.658,312815.89999997616,312831.417,313208.864,,31,or
screen,html.Screen,2_3_1_0_1_32,2022-05-09T11:52:53.329Z,,,,,,,,,,,,,,,,,40,,,,,,,,,,,,,,337.83599992847303,,response,,,,9,D,,,,,,Space,keypress(Space),,,,speech,,,,------ -- ------- ---- ---- ---- - -------- ----- --- --<br>----- ----- ------ -- ---- -- --- - ---- -- - ----- -----<br>------ ---- ------ ---- - -------- ------- -- the --------<br>-------- ----------- ---- ------ ---- ------ ---- --- ---<br>-------- --- -----,313547.59999990463,313546.6999999285,313198.424,313204.6999999285,313208.864,313550.942,,32,the
screen,html.Screen,2_3_1_0_1_33,2022-05-09T11:52:53.810Z,,,,,,,,,,,,,,,,,40,,,,,,,,,,,,,,476.5580000000191,,response,,,,9,D,,,,,,Space,keypress(Space),,,,speech,,,,------ -- ------- ---- ---- ---- - -------- ----- --- --<br>----- ----- ------ -- ---- -- --- - ---- -- - ----- -----<br>------ ---- ------ ---- - -------- ------- -- --- required<br>-------- ----------- ---- ------ ---- ------ ---- --- ---<br>-------- --- -----,314028.39999997616,314027.5,313542.362,313547.6999999285,313550.942,314037.534,,33,required
screen,html.Screen,2_3_1_0_1_34,2022-05-09T11:52:54.192Z,,,,,,,,,,,,,,,,,40,,,,,,,,,,,,,,372.4660000000149,,response,,,,9,D,,,,,,Space,keypress(Space),,,,speech,,,,------ -- ------- ---- ---- ---- - -------- ----- --- --<br>----- ----- ------ -- ---- -- --- - ---- -- - ----- -----<br>------ ---- ------ ---- - -------- ------- -- --- --------<br>permits. ----------- ---- ------ ---- ------ ---- --- ---<br>-------- --- -----,314410.7999999523,314410,314017.995,314028.5,314037.534,314416.27,,34,permits.
screen,html.Screen,2_3_1_0_1_35,2022-05-09T11:52:54.652Z,,,,,,,,,,,,,,,,,40,,,,,,,,,,,,,,453.6299999761395,,response,,,,9,D,,,,,,Space,keypress(Space),,,,speech,,,,------ -- ------- ---- ---- ---- - -------- ----- --- --<br>----- ----- ------ -- ---- -- --- - ---- -- - ----- -----<br>------ ---- ------ ---- - -------- ------- -- --- --------<br>-------- Morningstar ---- ------ ---- ------ ---- --- ---<br>-------- --- -----,314870.6999999285,314869.89999997616,314404.231,314411,314416.27,314880.869,,35,Morningstar
screen,html.Screen,2_3_1_0_1_36,2022-05-09T11:52:55.089Z,,,,,,,,,,,,,,,,,40,,,,,,,,,,,,,,425.7309999046265,,response,,,,9,D,,,,,,Space,keypress(Space),,,,speech,,,,------ -- ------- ---- ---- ---- - -------- ----- --- --<br>----- ----- ------ -- ---- -- --- - ---- -- - ----- -----<br>------ ---- ------ ---- - -------- ------- -- --- --------<br>-------- ----------- says ------ ---- ------ ---- --- ---<br>-------- --- -----,315307.39999997616,315306.59999990463,314866.623,314870.89999997616,314880.869,315323.642,,36,says
screen,html.Screen,2_3_1_0_1_37,2022-05-09T11:52:55.606Z,,,,,,,,,,,,,,,,,40,,,,,,,,,,,,,,499.95799990464,,response,,,,9,D,,,,,,Space,keypress(Space),,,,speech,,,,------ -- ------- ---- ---- ---- - -------- ----- --- --<br>----- ----- ------ -- ---- -- --- - ---- -- - ----- -----<br>------ ---- ------ ---- - -------- ------- -- --- --------<br>-------- ----------- ---- police ---- ------ ---- --- ---<br>-------- --- -----,315824.39999997616,315823.59999990463,315297.67,315307.59999990463,315323.642,315826.482,,37,police
screen,html.Screen,2_3_1_0_1_38,2022-05-09T11:52:55.936Z,,,,,,,,,,,,,,,,,40,,,,,,,,,,,,,,327.01799999998184,,response,,,,9,D,,,,,,Space,keypress(Space),,,,speech,,,,------ -- ------- ---- ---- ---- - -------- ----- --- --<br>----- ----- ------ -- ---- -- --- - ---- -- - ----- -----<br>------ ---- ------ ---- - -------- ------- -- --- --------<br>-------- ----------- ---- ------ also ------ ---- --- ---<br>-------- --- -----,316154.2999999523,316153.5,315823.645,315824.59999990463,315826.482,316160.627,,38,also
screen,html.Screen,2_3_1_0_1_39,2022-05-09T11:52:56.640Z,,,,,,,,,,,,,,,,,40,,,,,,,,,,,,,,697.2729999761796,,response,,,,9,D,,,,,,Space,keypress(Space),,,,speech,,,,------ -- ------- ---- ---- ---- - -------- ----- --- --<br>----- ----- ------ -- ---- -- --- - ---- -- - ----- -----<br>------ ---- ------ ---- - -------- ------- -- --- --------<br>-------- ----------- ---- ------ ---- didn't ---- --- ---<br>-------- --- -----,316858.6999999285,316857.89999997616,316143.515,316154.5,316160.627,316872.211,,39,didn't
screen,html.Screen,2_3_1_0_1_40,2022-05-09T11:52:57.109Z,,,,,,,,,,,,,,,,,40,,,,,,,,,,,,,,454.1889999761479,,response,,,,9,D,,,,,,Space,keypress(Space),,,,speech,,,,------ -- ------- ---- ---- ---- - -------- ----- --- --<br>----- ----- ------ -- ---- -- --- - ---- -- - ----- -----<br>------ ---- ------ ---- - -------- ------- -- --- --------<br>-------- ----------- ---- ------ ---- ------ know --- ---<br>-------- --- -----,317327.2999999523,317326.39999997616,316844.323,316858.89999997616,316872.211,317337.187,,40,know
screen,html.Screen,2_3_1_0_1_41,2022-05-09T11:52:57.890Z,,,,,,,,,,,,,,,,,40,,,,,,,,,,,,,,770.8130000000237,,response,,,,9,D,,,,,,Space,keypress(Space),,,,speech,,,,------ -- ------- ---- ---- ---- - -------- ----- --- --<br>----- ----- ------ -- ---- -- --- - ---- -- - ----- -----<br>------ ---- ------ ---- - -------- ------- -- --- --------<br>-------- ----------- ---- ------ ---- ------ ---- how ---<br>-------- --- -----,318108.7999999523,318108,317322.347,317327.5,317337.187,318122.554,,41,how
screen,html.Screen,2_3_1_0_1_42,2022-05-09T11:52:58.547Z,,,,,,,,,,,,,,,,,40,,,,,,,,,,,,,,641.7459999523126,,response,,,,9,D,,,,,,Space,keypress(Space),,,,speech,,,,------ -- ------- ---- ---- ---- - -------- ----- --- --<br>----- ----- ------ -- ---- -- --- - ---- -- - ----- -----<br>------ ---- ------ ---- - -------- ------- -- --- --------<br>-------- ----------- ---- ------ ---- ------ ---- --- the<br>-------- --- -----,318765.09999990463,318764.2999999523,318103.584,318109,318122.554,318768.768,,42,the
screen,html.Screen,2_3_1_0_1_43,2022-05-09T11:52:59.029Z,,,,,,,,,,,,,,,,,40,,,,,,,,,,,,,,477.6319999761763,,response,,,,9,D,,,,,,Space,keypress(Space),,,,speech,,,,------ -- ------- ---- ---- ---- - -------- ----- --- --<br>----- ----- ------ -- ---- -- --- - ---- -- - ----- -----<br>------ ---- ------ ---- - -------- ------- -- --- --------<br>-------- ----------- ---- ------ ---- ------ ---- --- ---<br>lemonade --- -----,319247.09999990463,319246.39999997616,318756.158,318765.2999999523,318768.768,319255.033,,43,lemonade
screen,html.Screen,2_3_1_0_1_44,2022-05-09T11:52:59.417Z,,,,,,,,,,,,,,,,,40,,,,,,,,,,,,,,379.4670000000042,,response,,,,9,D,,,,,,Space,keypress(Space),,,,speech,,,,------ -- ------- ---- ---- ---- - -------- ----- --- --<br>----- ----- ------ -- ---- -- --- - ---- -- - ----- -----<br>------ ---- ------ ---- - -------- ------- -- --- --------<br>-------- ----------- ---- ------ ---- ------ ---- --- ---<br>-------- was -----,319635.1999999285,319634.5,319235.624,319247.2999999523,319255.033,319640.662,,44,was
screen,html.Screen,2_3_1_0_1_45,2022-05-09T11:53:00.451Z,,,,,,,,,,,,,,,,,40,,,,,,,,,,,,,,1028.237999976147,,response,,,,9,D,,,,,,Space,keypress(Space),,,,speech,,,,------ -- ------- ---- ---- ---- - -------- ----- --- --<br>----- ----- ------ -- ---- -- --- - ---- -- - ----- -----<br>------ ---- ------ ---- - -------- ------- -- --- --------<br>-------- ----------- ---- ------ ---- ------ ---- --- ---<br>-------- --- made.,320669.6999999285,320668.89999997616,319622.002,319635.39999997616,319640.662,320678.365,,45,made.
Item 9,flow.Loop,2_3_1_0_1,2022-05-09T11:53:00.452Z,,,,,,,,,,,,,,,,,,,,,,,,,,,,,,,25799.97399997618,,completion,,,,,,,,,,,,,,,,,,,,,320669.89999997616,320668.89999997616,294852.152,294853.2999999523,294868.926,320678.365,,,
Question 1,html.Screen,2_3_1_0_2,2022-05-09T11:53:02.902Z,,,,,,,,,,,,,,,,,,,,,,,,,,,,true,FALSE,,2440.734999904642,,response,,,,9,D,,,,,,FALSE,click #choice-2,,,,speech,,,,,323120.2999999523,323119.09999990463,320657.709,320670,320678.365,323134.776,,,
