sender,sender_type,sender_id,timestamp,meta,,Blues,Classical,Country,Dance,Electronic,Folk,Gospel,Hip-Hop,Jazz,Latin,Musical/Film,New-age,Pop,Prolific_id,Provo_ID,R&B,Rap,Reggae,Religious,Rock,Soul,Swing,Traditional,age,artist_name,correct,correctResponse,distraction,duration,education,ended_on,familiarity,gender,headphone_check_performance,item,list,music_frequency,offensiveness,pleasantness,position_correct,preference,response,response_action,snippet_file,song_name,song_rating,sound,stimulus_1,stimulus_2,stimulus_3,text,time_commit,time_end,time_render,time_run,time_show,time_switch,url,word,word_ID
Prolific ID,html.Form,0,2022-04-30T11:14:44.475Z,"{""labjs_version"":""20.2.2"",""labjs_build"":{""flavor"":""production"",""commit"":""a25486e0c714a0ae2ce03ff94b7bb6896854dcfa""},""location"":""https://run.pavlovia.org/mvasilev/prolific3_music_e/"",""userAgent"":""Mozilla/5.0 (Windows NT 10.0; Win64; x64) AppleWebKit/537.36 (KHTML, like Gecko) Chrome/100.0.4896.127 Safari/537.36"",""platform"":""Win32"",""language"":""en-US"",""locale"":""en-GB"",""timeZone"":""Europe/London"",""timezoneOffset"":-60,""screen_width"":1366,""screen_height"":768,""scroll_width"":1366,""scroll_height"":577,""window_innerWidth"":1366,""window_innerHeight"":625,""devicePixelRatio"":1}",,,,,,,,,,,,,,,5b7467ea50075a0001107043,,,,,,,,,,,,,,,3657.486999999255,,form submission,,,,,,,,,,,,,,,,,,,,,34443.89999999851,34443.199999999255,30102.53,30110.299999998882,30785.713,34744.89,{},,
Introduction,html.Screen,1_0,2022-04-30T11:14:49.116Z,,,,,,,,,,,,,,,,,,,,,,,,,,,,,,,4336.709999999628,,response,,,,,,,,,,,continue,click button,,,,,,,,,39085.39999999851,39081.59999999963,34311.652,34444.79999999888,34744.89,39142.836,,,
Volume calibration,html.Screen,1_1,2022-04-30T11:15:25.993Z,,,,,,,,,,,,,,,,,,,,,,,,,,,,,,,36813.46399999888,,response,,,,,,,,,,,continue,click button,,,,,,,,,75962.19999999925,75956.29999999888,39076.184,39085.699999999255,39142.836,75966.026,,,
Task instructions,html.Screen,1_2,2022-04-30T11:15:32.561Z,,,,,,,,,,,,,,,,,,,,,,,,,,,,,,,6563.373999998512,,response,,,,,,,,,,,continue,click button,,,,,,,,,82530.5,82529.39999999851,75949.363,75962.39999999851,75966.026,82572.006,,,
Sounds,html.Screen,1_3_0_0,2022-04-30T11:15:36.866Z,,,,,,,,,,,,,,,,,,,,,,,,,,,,,,,4299.999000000011,,timeout,,,,,,,,,3,,,,,,,,O,I,S,,86835.5,86805.353,82538.68,82530.79999999888,82572.006,86872.005,,,
Judgement,html.Screen,1_3_0_1,2022-04-30T11:15:37.580Z,,,,,,,,,,,,,,,,,,,,,,,,,,,,true,3,,675.2949999988778,,response,,,,,,,,,3,,3,click #choice-3,,,,,O,I,S,,87548.69999999925,87547.29999999888,86805.353,86835.69999999925,86872.005,87552.483,,,
Trial,flow.Sequence,1_3_0,2022-04-30T11:15:37.580Z,,,,,,,,,,,,,,,,,,,,,,,,,,,,,,,4975.2939999988885,,completion,,,,,,,,,3,,,,,,,,O,I,S,,87549.09999999963,87547.29999999888,82538.68,82530.69999999925,82572.006,87552.483,,,
Sounds,html.Screen,1_3_1_0,2022-04-30T11:15:41.819Z,,,,,,,,,,,,,,,,,,,,,,,,,,,,,,,4251.746000000014,,timeout,,,,,,,,,2,,,,,,,,I,S,O,,91788.39999999851,91787.566,87535.82,87549.69999999925,87552.483,91804.229,,,
Judgement,html.Screen,1_3_1_1,2022-04-30T11:15:42.301Z,,,,,,,,,,,,,,,,,,,,,,,,,,,,true,2,,463.9709999992483,,response,,,,,,,,,2,,2,click #choice-2,,,,,I,S,O,,92269.79999999888,92268.19999999925,91787.566,91788.59999999963,91804.229,92283.912,,,
Trial,flow.Sequence,1_3_1,2022-04-30T11:15:42.301Z,,,,,,,,,,,,,,,,,,,,,,,,,,,,,,,4715.716999999262,,completion,,,,,,,,,2,,,,,,,,I,S,O,,92270.19999999925,92268.19999999925,87535.82,87549.19999999925,87552.483,92283.912,,,
Sounds,html.Screen,1_3_2_0,2022-04-30T11:15:46.551Z,,,,,,,,,,,,,,,,,,,,,,,,,,,,,,,4251.737000000008,,timeout,,,,,,,,,1,,,,,,,,S,I,O,,96519.89999999851,96518.986,92267.249,92270.39999999851,92283.912,96535.649,,,
Judgement,html.Screen,1_3_2_1,2022-04-30T11:15:46.973Z,,,,,,,,,,,,,,,,,,,,,,,,,,,,true,1,,405.55099999925005,,response,,,,,,,,,1,,1,click #choice-1,,,,,S,I,O,,96942.39999999851,96941.19999999925,96518.986,96520.09999999963,96535.649,96948.821,,,
Trial,flow.Sequence,1_3_2,2022-04-30T11:15:46.974Z,,,,,,,,,,,,,,,,,,,,,,,,,,,,,,,4657.287999999258,,completion,,,,,,,,,1,,,,,,,,S,I,O,,96942.79999999888,96941.19999999925,92267.249,92270.39999999851,92283.912,96948.821,,,
Sounds,html.Screen,1_3_3_0,2022-04-30T11:15:51.216Z,,,,,,,,,,,,,,,,,,,,,,,,,,,,,,,4251.8139999999985,,timeout,,,,,,,,,2,,,,,,,,O,S,I,,101185.59999999963,101183.972,96932.158,96943.09999999963,96948.821,101200.635,,,
Judgement,html.Screen,1_3_3_1,2022-04-30T11:15:51.692Z,,,,,,,,,,,,,,,,,,,,,,,,,,,,true,2,,459.5649999992602,,response,,,,,,,,,2,,2,click #choice-2,,,,,O,S,I,,101661.39999999851,101660.19999999925,101183.972,101185.79999999888,101200.635,101663.622,,,
Trial,flow.Sequence,1_3_3,2022-04-30T11:15:51.693Z,,,,,,,,,,,,,,,,,,,,,,,,,,,,,,,4711.378999999259,,completion,,,,,,,,,2,,,,,,,,O,S,I,,101661.69999999925,101660.19999999925,96932.158,96942.89999999851,96948.821,101663.622,,,
Sounds,html.Screen,1_3_4_0,2022-04-30T11:15:55.932Z,,,,,,,,,,,,,,,,,,,,,,,,,,,,,,,4251.861999999994,,timeout,,,,,,,,,1,,,,,,,,S,O,I,,105900.89999999851,105898.821,101646.959,101661.89999999851,101663.622,105915.484,,,
Judgement,html.Screen,1_3_4_1,2022-04-30T11:15:56.548Z,,,,,,,,,,,,,,,,,,,,,,,,,,,,true,1,,600.6159999996307,,response,,,,,,,,,1,,1,click #choice-1,,,,,S,O,I,,106517.29999999888,106516.09999999963,105898.821,105901.09999999963,105915.484,106527.898,,,
Trial,flow.Sequence,1_3_4,2022-04-30T11:15:56.548Z,,,,,,,,,,,,,,,,,,,,,,,,,,,,,,,4852.477999999624,,completion,,,,,,,,,1,,,,,,,,S,O,I,,106517.59999999963,106516.09999999963,101646.959,101661.89999999851,101663.622,106527.898,,,
Sounds,html.Screen,1_3_5_0,2022-04-30T11:16:00.796Z,,,,,,,,,,,,,,,,,,,,,,,,,,,,,,,4251.826000000001,,timeout,,,,,,,,,3,,,,,,,,I,O,S,,110764.79999999888,110763.061,106511.235,106517.69999999925,106527.898,110779.724,,,
Judgement,html.Screen,1_3_5_1,2022-04-30T11:16:01.153Z,,,,,,,,,,,,,,,,,,,,,,,,,,,,true,3,,341.275999999998,,response,,,,,,,,,3,,3,click #choice-3,,,,,I,O,S,,111122.5,111121,110763.061,110765,110779.724,111193.146,,,
Trial,flow.Sequence,1_3_5,2022-04-30T11:16:01.154Z,,,,,,,,,,,,,,,,,,,,,,,,,,,,,,,4593.101999999999,,completion,,,,,,,,,3,,,,,,,,I,O,S,,111122.79999999888,111121,106511.235,106517.69999999925,106527.898,111193.146,,,
Task,flow.Loop,1_3,2022-04-30T11:16:01.163Z,,,,,,,,,,,,,,,,,,,,,,,,,,,,,,,28548.994000000006,,completion,,,1,,,,,,,,,,,,,,,,,,111132.29999999888,111121,82538.68,82530.59999999963,82572.006,111193.146,,,
Trap,html.Screen,1_4,2022-04-30T11:16:01.213Z,,,,,,,,,,,,,,,,,,,,,,,,,,,,,,,NaN,,skipped,,,,,,,,,,,,,,,,,,,,,111181.69999999925,111121,,111181.29999999888,,111193.146,,,
Thanks,html.Screen,1_5,2022-04-30T11:16:03.684Z,,,,,,,,,,,,,,,,,,,,,,,,,,,,,,,2456.953999999634,,response,,,,,,,,,,,continue,click button,,,,,,,,,113652.89999999851,113650.09999999963,111109.831,111181.89999999851,111193.146,120407.051,,,
Headphone screening,flow.Sequence,1,2022-04-30T11:16:03.684Z,,,,,,,,,,,,,,,,,,,,,,,,,,,,,,,78905.20999999963,,completion,,,,,,,,,,,,,,,,,,,,,113653.19999999925,113650.09999999963,34311.652,34444.79999999888,34744.89,120407.051,,,
Instructions,html.Page,2_0,2022-04-30T11:16:23.445Z,,,,,,,,,,,,,,,,,,,,,,,,,,,,,,,13007.148999999248,,form submission,,,,,,,,,,,,,,,,,,,,,133414.59999999963,133414.19999999925,120357.062,120372.69999999925,120407.051,133422.924,,,
Holding screen,html.Screen,2_1_0_0,2022-04-30T11:16:33.433Z,,,,,,,,,,,,,,,,,,,,,,,,,,,,,,,10128.008000000002,,timeout,,,,,,,,,,,,,,,,,,,,,143402.09999999963,143400.965,133356.272,133415,133422.924,143550.932,,,
screen,html.Screen,2_1_0_1_0,2022-04-30T11:16:34.865Z,,,,,,,,,,,,,,,,,53,,,,,,,,,,,,,,1279.2679999992542,,response,,,,99,,,,,,,Space,keypress(Space),,,,,,,,When -- ----- -- ------ - ------- --- ----------<br>------------- ------ ------ ---- ---- ------- ----- -- ----<br>-------- ------- -- ---------- --- - --- ----- ----- ----<br>---- --- --- ----- --- ---- ---- ------- ----- ---- -------<br>--- --- -- ----- -- --- ---- -- --- ---- -- ------ ------<br>--- ----- -- ----,144834.3999999985,144830.19999999925,143400.965,143402.3999999985,143550.932,144844.786,,0,When
screen,html.Screen,2_1_0_1_1,2022-04-30T11:16:36.087Z,,,,,,,,,,,,,,,,,53,,,,,,,,,,,,,,1210.3139999996347,,response,,,,99,,,,,,,Space,keypress(Space),,,,,,,,---- it ----- -- ------ - ------- --- ----------<br>------------- ------ ------ ---- ---- ------- ----- -- ----<br>-------- ------- -- ---------- --- - --- ----- ----- ----<br>---- --- --- ----- --- ---- ---- ------- ----- ---- -------<br>--- --- -- ----- -- --- ---- -- --- ---- -- ------ ------<br>--- ----- -- ----,146056,146055.09999999963,144828.123,144834.5,144844.786,146057.203,,1,it
screen,html.Screen,2_1_0_1_2,2022-04-30T11:16:36.705Z,,,,,,,,,,,,,,,,,53,,,,,,,,,,,,,,616.2969999999914,,response,,,,99,,,,,,,Space,keypress(Space),,,,,,,,---- -- comes -- ------ - ------- --- ----------<br>------------- ------ ------ ---- ---- ------- ----- -- ----<br>-------- ------- -- ---------- --- - --- ----- ----- ----<br>---- --- --- ----- --- ---- ---- ------- ----- ---- -------<br>--- --- -- ----- -- --- ---- -- --- ---- -- ------ ------<br>--- ----- -- ----,146674.29999999888,146673.5,146040.54,146056.19999999925,146057.203,146688.484,,2,comes
screen,html.Screen,2_1_0_1_3,2022-04-30T11:16:37.698Z,,,,,,,,,,,,,,,,,53,,,,,,,,,,,,,,977.7159999992582,,response,,,,99,,,,,,,Space,keypress(Space),,,,,,,,---- -- ----- to ------ - ------- --- ----------<br>------------- ------ ------ ---- ---- ------- ----- -- ----<br>-------- ------- -- ---------- --- - --- ----- ----- ----<br>---- --- --- ----- --- ---- ---- ------- ----- ---- -------<br>--- --- -- ----- -- --- ---- -- --- ---- -- ------ ------<br>--- ----- -- ----,147667.19999999925,147666.19999999925,146671.821,146674.5,146688.484,147684.262,,3,to
screen,html.Screen,2_1_0_1_4,2022-04-30T11:16:38.302Z,,,,,,,,,,,,,,,,,53,,,,,,,,,,,,,,586.0379999988945,,response,,,,99,,,,,,,Space,keypress(Space),,,,,,,,---- -- ----- -- having - ------- --- ----------<br>------------- ------ ------ ---- ---- ------- ----- -- ----<br>-------- ------- -- ---------- --- - --- ----- ----- ----<br>---- --- --- ----- --- ---- ---- ------- ----- ---- -------<br>--- --- -- ----- -- --- ---- -- --- ---- -- ------ ------<br>--- ----- -- ----,148271.09999999963,148270.29999999888,147667.599,147667.3999999985,147684.262,148282.177,,4,having
screen,html.Screen,2_1_0_1_5,2022-04-30T11:16:38.685Z,,,,,,,,,,,,,,,,,53,,,,,,,,,,,,,,371.22299999851384,,response,,,,99,,,,,,,Space,keypress(Space),,,,,,,,---- -- ----- -- ------ a ------- --- ----------<br>------------- ------ ------ ---- ---- ------- ----- -- ----<br>-------- ------- -- ---------- --- - --- ----- ----- ----<br>---- --- --- ----- --- ---- ---- ------- ----- ---- -------<br>--- --- -- ----- -- --- ---- -- --- ---- -- ------ ------<br>--- ----- -- ----,148654.19999999925,148653.3999999985,148265.514,148271.29999999888,148282.177,148663.433,,5,a
screen,html.Screen,2_1_0_1_6,2022-04-30T11:16:39.266Z,,,,,,,,,,,,,,,,,53,,,,,,,,,,,,,,571.1669999996375,,response,,,,99,,,,,,,Space,keypress(Space),,,,,,,,---- -- ----- -- ------ - lasting --- ----------<br>------------- ------ ------ ---- ---- ------- ----- -- ----<br>-------- ------- -- ---------- --- - --- ----- ----- ----<br>---- --- --- ----- --- ---- ---- ------- ----- ---- -------<br>--- --- -- ----- -- --- ---- -- --- ---- -- ------ ------<br>--- ----- -- ----,149235.3999999985,149234.59999999963,148646.77,148654.3999999985,148663.433,149244.8,,6,lasting
screen,html.Screen,2_1_0_1_7,2022-04-30T11:16:39.690Z,,,,,,,,,,,,,,,,,53,,,,,,,,,,,,,,413.7999999996391,,response,,,,99,,,,,,,Space,keypress(Space),,,,,,,,---- -- ----- -- ------ - ------- and ----------<br>------------- ------ ------ ---- ---- ------- ----- -- ----<br>-------- ------- -- ---------- --- - --- ----- ----- ----<br>---- --- --- ----- --- ---- ---- ------- ----- ---- -------<br>--- --- -- ----- -- --- ---- -- --- ---- -- ------ ------<br>--- ----- -- ----,149659.69999999925,149658.59999999963,149228.137,149235.59999999963,149244.8,149676.035,,7,and
screen,html.Screen,2_1_0_1_8,2022-04-30T11:16:40.338Z,,,,,,,,,,,,,,,,,53,,,,,,,,,,,,,,629.7649999988789,,response,,,,99,,,,,,,Space,keypress(Space),,,,,,,,---- -- ----- -- ------ - ------- --- fulfilling<br>------------- ------ ------ ---- ---- ------- ----- -- ----<br>-------- ------- -- ---------- --- - --- ----- ----- ----<br>---- --- --- ----- --- ---- ---- ------- ----- ---- -------<br>--- --- -- ----- -- --- ---- -- --- ---- -- ------ ------<br>--- ----- -- ----,150307.29999999888,150305.79999999888,149659.372,149659.79999999888,149676.035,150323.938,,8,fulfilling
screen,html.Screen,2_1_0_1_9,2022-04-30T11:16:41.154Z,,,,,,,,,,,,,,,,,53,,,,,,,,,,,,,,798.4619999985152,,response,,,,99,,,,,,,Space,keypress(Space),,,,,,,,"---- -- ----- -- ------ - ------- --- ----------<br>relationship, ------ ------ ---- ---- ------- ----- -- ----<br>-------- ------- -- ---------- --- - --- ----- ----- ----<br>---- --- --- ----- --- ---- ---- ------- ----- ---- -------<br>--- --- -- ----- -- --- ---- -- --- ---- -- ------ ------<br>--- ----- -- ----",151123.59999999963,151122.3999999985,150307.275,150307.5,150323.938,151136.43,,9,"relationship,"
screen,html.Screen,2_1_0_1_10,2022-04-30T11:16:41.913Z,,,,,,,,,,,,,,,,,53,,,,,,,,,,,,,,744.9699999985169,,response,,,,99,,,,,,,Space,keypress(Space),,,,,,,,---- -- ----- -- ------ - ------- --- ----------<br>------------- common ------ ---- ---- ------- ----- -- ----<br>-------- ------- -- ---------- --- - --- ----- ----- ----<br>---- --- --- ----- --- ---- ---- ------- ----- ---- -------<br>--- --- -- ----- -- --- ---- -- --- ---- -- ------ ------<br>--- ----- -- ----,151882.29999999888,151881.3999999985,151119.767,151123.79999999888,151136.43,151884.36,,10,common
screen,html.Screen,2_1_0_1_11,2022-04-30T11:16:42.583Z,,,,,,,,,,,,,,,,,53,,,,,,,,,,,,,,667.5399999985239,,response,,,,99,,,,,,,Space,keypress(Space),,,,,,,,---- -- ----- -- ------ - ------- --- ----------<br>------------- ------ wisdom ---- ---- ------- ----- -- ----<br>-------- ------- -- ---------- --- - --- ----- ----- ----<br>---- --- --- ----- --- ---- ---- ------- ----- ---- -------<br>--- --- -- ----- -- --- ---- -- --- ---- -- ------ ------<br>--- ----- -- ----,152552.69999999925,152551.8999999985,151867.697,151882.5,151884.36,152563.595,,11,wisdom
screen,html.Screen,2_1_0_1_12,2022-04-30T11:16:43.010Z,,,,,,,,,,,,,,,,,53,,,,,,,,,,,,,,414.70499999888125,,response,,,,99,,,,,,,Space,keypress(Space),,,,,,,,---- -- ----- -- ------ - ------- --- ----------<br>------------- ------ ------ says ---- ------- ----- -- ----<br>-------- ------- -- ---------- --- - --- ----- ----- ----<br>---- --- --- ----- --- ---- ---- ------- ----- ---- -------<br>--- --- -- ----- -- --- ---- -- --- ---- -- ------ ------<br>--- ----- -- ----,152979.69999999925,152978.29999999888,152548.911,152552.8999999985,152563.595,152996.647,,12,says
screen,html.Screen,2_1_0_1_13,2022-04-30T11:16:43.636Z,,,,,,,,,,,,,,,,,53,,,,,,,,,,,,,,608.0529999992577,,response,,,,99,,,,,,,Space,keypress(Space),,,,,,,,---- -- ----- -- ------ - ------- --- ----------<br>------------- ------ ------ ---- that ------- ----- -- ----<br>-------- ------- -- ---------- --- - --- ----- ----- ----<br>---- --- --- ----- --- ---- ---- ------- ----- ---- -------<br>--- --- -- ----- -- --- ---- -- --- ---- -- ------ ------<br>--- ----- -- ----,153605.59999999963,153604.69999999925,152979.984,152979.8999999985,152996.647,153611.364,,13,that
screen,html.Screen,2_1_0_1_14,2022-04-30T11:16:44.038Z,,,,,,,,,,,,,,,,,53,,,,,,,,,,,,,,395.5359999985085,,response,,,,99,,,,,,,Space,keypress(Space),,,,,,,,---- -- ----- -- ------ - ------- --- ----------<br>------------- ------ ------ ---- ---- feeling ----- -- ----<br>-------- ------- -- ---------- --- - --- ----- ----- ----<br>---- --- --- ----- --- ---- ---- ------- ----- ---- -------<br>--- --- -- ----- -- --- ---- -- --- ---- -- ------ ------<br>--- ----- -- ----,154007.8999999985,154006.8999999985,153594.701,153605.79999999888,153611.364,154009.212,,14,feeling
screen,html.Screen,2_1_0_1_15,2022-04-30T11:16:44.540Z,,,,,,,,,,,,,,,,,53,,,,,,,,,,,,,,499.18799999851035,,response,,,,99,,,,,,,Space,keypress(Space),,,,,,,,---- -- ----- -- ------ - ------- --- ----------<br>------------- ------ ------ ---- ---- ------- close -- ----<br>-------- ------- -- ---------- --- - --- ----- ----- ----<br>---- --- --- ----- --- ---- ---- ------- ----- ---- -------<br>--- --- -- ----- -- --- ---- -- --- ---- -- ------ ------<br>--- ----- -- ----,154509.3999999985,154508.3999999985,153992.549,154008.09999999963,154009.212,154523.87,,15,close
screen,html.Screen,2_1_0_1_16,2022-04-30T11:16:44.912Z,,,,,,,,,,,,,,,,,53,,,,,,,,,,,,,,356.13000000000466,,response,,,,99,,,,,,,Space,keypress(Space),,,,,,,,---- -- ----- -- ------ - ------- --- ----------<br>------------- ------ ------ ---- ---- ------- ----- to ----<br>-------- ------- -- ---------- --- - --- ----- ----- ----<br>---- --- --- ----- --- ---- ---- ------- ----- ---- -------<br>--- --- -- ----- -- --- ---- -- --- ---- -- ------ ------<br>--- ----- -- ----,154880.8999999985,154880,154507.207,154509.5,154523.87,154888.482,,16,to
screen,html.Screen,2_1_0_1_17,2022-04-30T11:16:45.418Z,,,,,,,,,,,,,,,,,53,,,,,,,,,,,,,,498.01800000001094,,response,,,,99,,,,,,,Space,keypress(Space),,,,,,,,---- -- ----- -- ------ - ------- --- ----------<br>------------- ------ ------ ---- ---- ------- ----- -- your<br>-------- ------- -- ---------- --- - --- ----- ----- ----<br>---- --- --- ----- --- ---- ---- ------- ----- ---- -------<br>--- --- -- ----- -- --- ---- -- --- ---- -- ------ ------<br>--- ----- -- ----,155387.59999999963,155386.5,154871.819,154881.19999999925,154888.482,155403.183,,17,your
screen,html.Screen,2_1_0_1_18,2022-04-30T11:16:45.850Z,,,,,,,,,,,,,,,,,53,,,,,,,,,,,,,,414.4169999996375,,response,,,,99,,,,,,,Space,keypress(Space),,,,,,,,---- -- ----- -- ------ - ------- --- ----------<br>------------- ------ ------ ---- ---- ------- ----- -- ----<br>romantic ------- -- ---------- --- - --- ----- ----- ----<br>---- --- --- ----- --- ---- ---- ------- ----- ---- -------<br>--- --- -- ----- -- --- ---- -- --- ---- -- ------ ------<br>--- ----- -- ----,155819.69999999925,155817.59999999963,155386.52,155387.69999999925,155403.183,155834.39,,18,romantic
screen,html.Screen,2_1_0_1_19,2022-04-30T11:16:46.279Z,,,,,,,,,,,,,,,,,53,,,,,,,,,,,,,,413.40999999886844,,response,,,,99,,,,,,,Space,keypress(Space),,,,,,,,---- -- ----- -- ------ - ------- --- ----------<br>------------- ------ ------ ---- ---- ------- ----- -- ----<br>-------- partner -- ---------- --- - --- ----- ----- ----<br>---- --- --- ----- --- ---- ---- ------- ----- ---- -------<br>--- --- -- ----- -- --- ---- -- --- ---- -- ------ ------<br>--- ----- -- ----,156248.59999999963,156247.79999999888,155817.727,155819.79999999888,155834.39,156265.709,,19,partner
screen,html.Screen,2_1_0_1_20,2022-04-30T11:16:46.683Z,,,,,,,,,,,,,,,,,53,,,,,,,,,,,,,,386.1909999985073,,response,,,,99,,,,,,,Space,keypress(Space),,,,,,,,---- -- ----- -- ------ - ------- --- ----------<br>------------- ------ ------ ---- ---- ------- ----- -- ----<br>-------- ------- is ---------- --- - --- ----- ----- ----<br>---- --- --- ----- --- ---- ---- ------- ----- ---- -------<br>--- --- -- ----- -- --- ---- -- --- ---- -- ------ ------<br>--- ----- -- ----,156652.79999999888,156651.8999999985,156250.469,156248.8999999985,156265.709,156665.446,,20,is
screen,html.Screen,2_1_0_1_21,2022-04-30T11:16:47.372Z,,,,,,,,,,,,,,,,,53,,,,,,,,,,,,,,674.8539999988861,,response,,,,99,,,,,,,Space,keypress(Space),,,,,,,,---- -- ----- -- ------ - ------- --- ----------<br>------------- ------ ------ ---- ---- ------- ----- -- ----<br>-------- ------- -- paramount. --- - --- ----- ----- ----<br>---- --- --- ----- --- ---- ---- ------- ----- ---- -------<br>--- --- -- ----- -- --- ---- -- --- ---- -- ------ ------<br>--- ----- -- ----,157341.59999999963,157340.29999999888,156648.783,156653,156665.446,157378.184,,21,paramount.
screen,html.Screen,2_1_0_1_22,2022-04-30T11:16:47.973Z,,,,,,,,,,,,,,,,,53,,,,,,,,,,,,,,563.0159999992466,,response,,,,99,,,,,,,Space,keypress(Space),,,,,,,,---- -- ----- -- ------ - ------- --- ----------<br>------------- ------ ------ ---- ---- ------- ----- -- ----<br>-------- ------- -- ---------- But - --- ----- ----- ----<br>---- --- --- ----- --- ---- ---- ------- ----- ---- -------<br>--- --- -- ----- -- --- ---- -- --- ---- -- ------ ------<br>--- ----- -- ----,157942.19999999925,157941.19999999925,157344.858,157341.69999999925,157378.184,157959.431,,22,But
screen,html.Screen,2_1_0_1_23,2022-04-30T11:16:48.756Z,,,,,,,,,,,,,,,,,53,,,,,,,,,,,,,,764.9689999984985,,response,,,,99,,,,,,,Space,keypress(Space),,,,,,,,---- -- ----- -- ------ - ------- --- ----------<br>------------- ------ ------ ---- ---- ------- ----- -- ----<br>-------- ------- -- ---------- --- a --- ----- ----- ----<br>---- --- --- ----- --- ---- ---- ------- ----- ---- -------<br>--- --- -- ----- -- --- ---- -- --- ---- -- ------ ------<br>--- ----- -- ----,158725.3999999985,158724.3999999985,157942.768,157942.29999999888,157959.431,158740.616,,23,a
screen,html.Screen,2_1_0_1_24,2022-04-30T11:16:49.183Z,,,,,,,,,,,,,,,,,53,,,,,,,,,,,,,,410.58399999924586,,response,,,,99,,,,,,,Space,keypress(Space),,,,,,,,---- -- ----- -- ------ - ------- --- ----------<br>------------- ------ ------ ---- ---- ------- ----- -- ----<br>-------- ------- -- ---------- --- - new ----- ----- ----<br>---- --- --- ----- --- ---- ---- ------- ----- ---- -------<br>--- --- -- ----- -- --- ---- -- --- ---- -- ------ ------<br>--- ----- -- ----,159152.09999999963,159151.19999999925,158723.953,158725.5,158740.616,159155.221,,24,new
screen,html.Screen,2_1_0_1_25,2022-04-30T11:16:49.535Z,,,,,,,,,,,,,,,,,53,,,,,,,,,,,,,,347.878999999637,,response,,,,99,,,,,,,Space,keypress(Space),,,,,,,,---- -- ----- -- ------ - ------- --- ----------<br>------------- ------ ------ ---- ---- ------- ----- -- ----<br>-------- ------- -- ---------- --- - --- study ----- ----<br>---- --- --- ----- --- ---- ---- ------- ----- ---- -------<br>--- --- -- ----- -- --- ---- -- --- ---- -- ------ ------<br>--- ----- -- ----,159504,159503.09999999963,159138.558,159152.29999999888,159155.221,159519.842,,25,study
screen,html.Screen,2_1_0_1_26,2022-04-30T11:16:49.957Z,,,,,,,,,,,,,,,,,53,,,,,,,,,,,,,,405.5579999985057,,response,,,,99,,,,,,,Space,keypress(Space),,,,,,,,---- -- ----- -- ------ - ------- --- ----------<br>------------- ------ ------ ---- ---- ------- ----- -- ----<br>-------- ------- -- ---------- --- - --- ----- finds ----<br>---- --- --- ----- --- ---- ---- ------- ----- ---- -------<br>--- --- -- ----- -- --- ---- -- --- ---- -- ------ ------<br>--- ----- -- ----,159926.29999999888,159925.3999999985,159503.179,159504.19999999925,159519.842,159936.014,,26,finds
screen,html.Screen,2_1_0_1_27,2022-04-30T11:16:50.373Z,,,,,,,,,,,,,,,,,53,,,,,,,,,,,,,,405.3859999985143,,response,,,,99,,,,,,,Space,keypress(Space),,,,,,,,---- -- ----- -- ------ - ------- --- ----------<br>------------- ------ ------ ---- ---- ------- ----- -- ----<br>-------- ------- -- ---------- --- - --- ----- ----- that<br>---- --- --- ----- --- ---- ---- ------- ----- ---- -------<br>--- --- -- ----- -- --- ---- -- --- ---- -- ------ ------<br>--- ----- -- ----,160342.29999999888,160341.3999999985,159919.351,159926.3999999985,159936.014,160350.975,,27,that
screen,html.Screen,2_1_0_1_28,2022-04-30T11:16:50.918Z,,,,,,,,,,,,,,,,,53,,,,,,,,,,,,,,535.3249999988766,,response,,,,99,,,,,,,Space,keypress(Space),,,,,,,,---- -- ----- -- ------ - ------- --- ----------<br>------------- ------ ------ ---- ---- ------- ----- -- ----<br>-------- ------- -- ---------- --- - --- ----- ----- ----<br>it's --- --- ----- --- ---- ---- ------- ----- ---- -------<br>--- --- -- ----- -- --- ---- -- --- ---- -- ------ ------<br>--- ----- -- ----,160887.19999999925,160886.29999999888,160334.312,160342.3999999985,160350.975,160898.932,,28,it's
screen,html.Screen,2_1_0_1_29,2022-04-30T11:16:51.481Z,,,,,,,,,,,,,,,,,53,,,,,,,,,,,,,,550.5679999999993,,response,,,,99,,,,,,,Space,keypress(Space),,,,,,,,---- -- ----- -- ------ - ------- --- ----------<br>------------- ------ ------ ---- ---- ------- ----- -- ----<br>-------- ------- -- ---------- --- - --- ----- ----- ----<br>---- not --- ----- --- ---- ---- ------- ----- ---- -------<br>--- --- -- ----- -- --- ---- -- --- ---- -- ------ ------<br>--- ----- -- ----,161450.3999999985,161449.5,160882.269,160887.29999999888,160898.932,161463.479,,29,not
screen,html.Screen,2_1_0_1_30,2022-04-30T11:16:51.953Z,,,,,,,,,,,,,,,,,53,,,,,,,,,,,,,,458.0210000000079,,response,,,,99,,,,,,,Space,keypress(Space),,,,,,,,---- -- ----- -- ------ - ------- --- ----------<br>------------- ------ ------ ---- ---- ------- ----- -- ----<br>-------- ------- -- ---------- --- - --- ----- ----- ----<br>---- --- how ----- --- ---- ---- ------- ----- ---- -------<br>--- --- -- ----- -- --- ---- -- --- ---- -- ------ ------<br>--- ----- -- ----,161922.3999999985,161921.5,161446.816,161450.5,161463.479,161928.033,,30,how
screen,html.Screen,2_1_0_1_31,2022-04-30T11:16:52.423Z,,,,,,,,,,,,,,,,,53,,,,,,,,,,,,,,463.3669999985141,,response,,,,99,,,,,,,Space,keypress(Space),,,,,,,,---- -- ----- -- ------ - ------- --- ----------<br>------------- ------ ------ ---- ---- ------- ----- -- ----<br>-------- ------- -- ---------- --- - --- ----- ----- ----<br>---- --- --- close --- ---- ---- ------- ----- ---- -------<br>--- --- -- ----- -- --- ---- -- --- ---- -- ------ ------<br>--- ----- -- ----,162392.59999999963,162391.3999999985,161911.37,161922.59999999963,161928.033,162409.297,,31,close
screen,html.Screen,2_1_0_1_32,2022-04-30T11:16:52.843Z,,,,,,,,,,,,,,,,,53,,,,,,,,,,,,,,402.1029999985185,,response,,,,99,,,,,,,Space,keypress(Space),,,,,,,,---- -- ----- -- ------ - ------- --- ----------<br>------------- ------ ------ ---- ---- ------- ----- -- ----<br>-------- ------- -- ---------- --- - --- ----- ----- ----<br>---- --- --- ----- you ---- ---- ------- ----- ---- -------<br>--- --- -- ----- -- --- ---- -- --- ---- -- ------ ------<br>--- ----- -- ----,162812.29999999888,162811.3999999985,162392.634,162392.79999999888,162409.297,162823.892,,32,you
screen,html.Screen,2_1_0_1_33,2022-04-30T11:16:53.455Z,,,,,,,,,,,,,,,,,53,,,,,,,,,,,,,,599.2079999996349,,response,,,,99,,,,,,,Space,keypress(Space),,,,,,,,---- -- ----- -- ------ - ------- --- ----------<br>------------- ------ ------ ---- ---- ------- ----- -- ----<br>-------- ------- -- ---------- --- - --- ----- ----- ----<br>---- --- --- ----- --- feel ---- ------- ----- ---- -------<br>--- --- -- ----- -- --- ---- -- --- ---- -- ------ ------<br>--- ----- -- ----,163424.09999999963,163423.09999999963,162807.229,162812.5,162823.892,163438.575,,33,feel
screen,html.Screen,2_1_0_1_34,2022-04-30T11:16:53.822Z,,,,,,,,,,,,,,,,,53,,,,,,,,,,,,,,351.72499999887077,,response,,,,99,,,,,,,Space,keypress(Space),,,,,,,,---- -- ----- -- ------ - ------- --- ----------<br>------------- ------ ------ ---- ---- ------- ----- -- ----<br>-------- ------- -- ---------- --- - --- ----- ----- ----<br>---- --- --- ----- --- ---- that ------- ----- ---- -------<br>--- --- -- ----- -- --- ---- -- --- ---- -- ------ ------<br>--- ----- -- ----,163791.5,163790.29999999888,163421.912,163424.29999999888,163438.575,163803.201,,34,that
screen,html.Screen,2_1_0_1_35,2022-04-30T11:16:54.278Z,,,,,,,,,,,,,,,,,53,,,,,,,,,,,,,,443.19899999850895,,response,,,,99,,,,,,,Space,keypress(Space),,,,,,,,---- -- ----- -- ------ - ------- --- ----------<br>------------- ------ ------ ---- ---- ------- ----- -- ----<br>-------- ------- -- ---------- --- - --- ----- ----- ----<br>---- --- --- ----- --- ---- ---- matters ----- ---- -------<br>--- --- -- ----- -- --- ---- -- --- ---- -- ------ ------<br>--- ----- -- ----,164247.19999999925,164246.3999999985,163786.538,163791.59999999963,163803.201,164251.185,,35,matters
screen,html.Screen,2_1_0_1_36,2022-04-30T11:16:54.766Z,,,,,,,,,,,,,,,,,53,,,,,,,,,,,,,,482.8150000000023,,response,,,,99,,,,,,,Space,keypress(Space),,,,,,,,"---- -- ----- -- ------ - ------- --- ----------<br>------------- ------ ------ ---- ---- ------- ----- -- ----<br>-------- ------- -- ---------- --- - --- ----- ----- ----<br>---- --- --- ----- --- ---- ---- ------- most, ---- -------<br>--- --- -- ----- -- --- ---- -- --- ---- -- ------ ------<br>--- ----- -- ----",164735.29999999888,164734,164234.522,164247.3999999985,164251.185,164749.049,,36,"most,"
screen,html.Screen,2_1_0_1_37,2022-04-30T11:16:55.259Z,,,,,,,,,,,,,,,,,53,,,,,,,,,,,,,,478.25099999888334,,response,,,,99,,,,,,,Space,keypress(Space),,,,,,,,---- -- ----- -- ------ - ------- --- ----------<br>------------- ------ ------ ---- ---- ------- ----- -- ----<br>-------- ------- -- ---------- --- - --- ----- ----- ----<br>---- --- --- ----- --- ---- ---- ------- ----- it's -------<br>--- --- -- ----- -- --- ---- -- --- ---- -- ------ ------<br>--- ----- -- ----,165228.19999999925,165227.29999999888,164733.999,164735.59999999963,164749.049,165232.083,,37,it's
screen,html.Screen,2_1_0_1_38,2022-04-30T11:16:55.694Z,,,,,,,,,,,,,,,,,53,,,,,,,,,,,,,,430.21699999886914,,response,,,,99,,,,,,,Space,keypress(Space),,,,,,,,---- -- ----- -- ------ - ------- --- ----------<br>------------- ------ ------ ---- ---- ------- ----- -- ----<br>-------- ------- -- ---------- --- - --- ----- ----- ----<br>---- --- --- ----- --- ---- ---- ------- ----- ---- whether<br>--- --- -- ----- -- --- ---- -- --- ---- -- ------ ------<br>--- ----- -- ----,165663.3999999985,165662.29999999888,165215.42,165228.29999999888,165232.083,165680.2,,38,whether
screen,html.Screen,2_1_0_1_39,2022-04-30T11:16:56.056Z,,,,,,,,,,,,,,,,,53,,,,,,,,,,,,,,344.59999999887077,,response,,,,99,,,,,,,Space,keypress(Space),,,,,,,,---- -- ----- -- ------ - ------- --- ----------<br>------------- ------ ------ ---- ---- ------- ----- -- ----<br>-------- ------- -- ---------- --- - --- ----- ----- ----<br>---- --- --- ----- --- ---- ---- ------- ----- ---- -------<br>you --- -- ----- -- --- ---- -- --- ---- -- ------ ------<br>--- ----- -- ----,166025.69999999925,166024.79999999888,165663.537,165663.5,165680.2,166028.1,,39,you
screen,html.Screen,2_1_0_1_40,2022-04-30T11:16:56.516Z,,,,,,,,,,,,,,,,,53,,,,,,,,,,,,,,456.0999999992491,,response,,,,99,,,,,,,Space,keypress(Space),,,,,,,,---- -- ----- -- ------ - ------- --- ----------<br>------------- ------ ------ ---- ---- ------- ----- -- ----<br>-------- ------- -- ---------- --- - --- ----- ----- ----<br>---- --- --- ----- --- ---- ---- ------- ----- ---- -------<br>--- are -- ----- -- --- ---- -- --- ---- -- ------ ------<br>--- ----- -- ----,166485.09999999963,166484.19999999925,166011.437,166025.79999999888,166028.1,166492.751,,40,are
screen,html.Screen,2_1_0_1_41,2022-04-30T11:16:57.279Z,,,,,,,,,,,,,,,,,53,,,,,,,,,,,,,,754.6489999985206,,response,,,,99,,,,,,,Space,keypress(Space),,,,,,,,---- -- ----- -- ------ - ------- --- ----------<br>------------- ------ ------ ---- ---- ------- ----- -- ----<br>-------- ------- -- ---------- --- - --- ----- ----- ----<br>---- --- --- ----- --- ---- ---- ------- ----- ---- -------<br>--- --- as ----- -- --- ---- -- --- ---- -- ------ ------<br>--- ----- -- ----,167248.3999999985,167247.3999999985,166476.088,166485.29999999888,166492.751,167257.273,,41,as
screen,html.Screen,2_1_0_1_42,2022-04-30T11:16:57.733Z,,,,,,,,,,,,,,,,,53,,,,,,,,,,,,,,444.6269999985234,,response,,,,99,,,,,,,Space,keypress(Space),,,,,,,,---- -- ----- -- ------ - ------- --- ----------<br>------------- ------ ------ ---- ---- ------- ----- -- ----<br>-------- ------- -- ---------- --- - --- ----- ----- ----<br>---- --- --- ----- --- ---- ---- ------- ----- ---- -------<br>--- --- -- close -- --- ---- -- --- ---- -- ------ ------<br>--- ----- -- ----,167702.79999999888,167701.8999999985,167240.61,167248.59999999963,167257.273,167705.18,,42,close
screen,html.Screen,2_1_0_1_43,2022-04-30T11:16:58.196Z,,,,,,,,,,,,,,,,,53,,,,,,,,,,,,,,459.71999999851687,,response,,,,99,,,,,,,Space,keypress(Space),,,,,,,,---- -- ----- -- ------ - ------- --- ----------<br>------------- ------ ------ ---- ---- ------- ----- -- ----<br>-------- ------- -- ---------- --- - --- ----- ----- ----<br>---- --- --- ----- --- ---- ---- ------- ----- ---- -------<br>--- --- -- ----- as --- ---- -- --- ---- -- ------ ------<br>--- ----- -- ----,168165.69999999925,168164.8999999985,167688.517,167703,167705.18,168169.8,,43,as
screen,html.Screen,2_1_0_1_44,2022-04-30T11:16:58.557Z,,,,,,,,,,,,,,,,,53,,,,,,,,,,,,,,355.49999999889405,,response,,,,99,,,,,,,Space,keypress(Space),,,,,,,,---- -- ----- -- ------ - ------- --- ----------<br>------------- ------ ------ ---- ---- ------- ----- -- ----<br>-------- ------- -- ---------- --- - --- ----- ----- ----<br>---- --- --- ----- --- ---- ---- ------- ----- ---- -------<br>--- --- -- ----- -- you ---- -- --- ---- -- ------ ------<br>--- ----- -- ----,168526.3999999985,168525.29999999888,168153.137,168165.8999999985,168169.8,168534.349,,44,you
screen,html.Screen,2_1_0_1_45,2022-04-30T11:16:59.084Z,,,,,,,,,,,,,,,,,53,,,,,,,,,,,,,,518.3509999992675,,response,,,,99,,,,,,,Space,keypress(Space),,,,,,,,---- -- ----- -- ------ - ------- --- ----------<br>------------- ------ ------ ---- ---- ------- ----- -- ----<br>-------- ------- -- ---------- --- - --- ----- ----- ----<br>---- --- --- ----- --- ---- ---- ------- ----- ---- -------<br>--- --- -- ----- -- --- want -- --- ---- -- ------ ------<br>--- ----- -- ----,169053.59999999963,169052.69999999925,168517.686,168526.59999999963,168534.349,169065.614,,45,want
screen,html.Screen,2_1_0_1_46,2022-04-30T11:16:59.897Z,,,,,,,,,,,,,,,,,53,,,,,,,,,,,,,,799.3859999999986,,response,,,,99,,,,,,,Space,keypress(Space),,,,,,,,---- -- ----- -- ------ - ------- --- ----------<br>------------- ------ ------ ---- ---- ------- ----- -- ----<br>-------- ------- -- ---------- --- - --- ----- ----- ----<br>---- --- --- ----- --- ---- ---- ------- ----- ---- -------<br>--- --- -- ----- -- --- ---- to --- ---- -- ------ ------<br>--- ----- -- ----,169866,169865,169048.951,169053.79999999888,169065.614,169880.191,,46,to
screen,html.Screen,2_1_0_1_47,2022-04-30T11:17:00.347Z,,,,,,,,,,,,,,,,,53,,,,,,,,,,,,,,434.90899999963585,,response,,,,99,,,,,,,Space,keypress(Space),,,,,,,,"---- -- ----- -- ------ - ------- --- ----------<br>------------- ------ ------ ---- ---- ------- ----- -- ----<br>-------- ------- -- ---------- --- - --- ----- ----- ----<br>---- --- --- ----- --- ---- ---- ------- ----- ---- -------<br>--- --- -- ----- -- --- ---- -- be, ---- -- ------ ------<br>--- ----- -- ----",170316,170315.09999999963,169863.528,169866.19999999925,169880.191,170328.147,,47,"be,"
screen,html.Screen,2_1_0_1_48,2022-04-30T11:17:00.872Z,,,,,,,,,,,,,,,,,53,,,,,,,,,,,,,,512.0529999992577,,response,,,,99,,,,,,,Space,keypress(Space),,,,,,,,---- -- ----- -- ------ - ------- --- ----------<br>------------- ------ ------ ---- ---- ------- ----- -- ----<br>-------- ------- -- ---------- --- - --- ----- ----- ----<br>---- --- --- ----- --- ---- ---- ------- ----- ---- -------<br>--- --- -- ----- -- --- ---- -- --- even -- ------ ------<br>--- ----- -- ----,170841.09999999963,170840.19999999925,170311.484,170316.19999999925,170328.147,170842.746,,48,even
screen,html.Screen,2_1_0_1_49,2022-04-30T11:17:01.305Z,,,,,,,,,,,,,,,,,53,,,,,,,,,,,,,,430.5539999988687,,response,,,,99,,,,,,,Space,keypress(Space),,,,,,,,---- -- ----- -- ------ - ------- --- ----------<br>------------- ------ ------ ---- ---- ------- ----- -- ----<br>-------- ------- -- ---------- --- - --- ----- ----- ----<br>---- --- --- ----- --- ---- ---- ------- ----- ---- -------<br>--- --- -- ----- -- --- ---- -- --- ---- if ------ ------<br>--- ----- -- ----,171274.5,171273.29999999888,170826.083,170841.29999999888,170842.746,171290.697,,49,if
screen,html.Screen,2_1_0_1_50,2022-04-30T11:17:01.772Z,,,,,,,,,,,,,,,,,53,,,,,,,,,,,,,,449.9029999996419,,response,,,,99,,,,,,,Space,keypress(Space),,,,,,,,---- -- ----- -- ------ - ------- --- ----------<br>------------- ------ ------ ---- ---- ------- ----- -- ----<br>-------- ------- -- ---------- --- - --- ----- ----- ----<br>---- --- --- ----- --- ---- ---- ------- ----- ---- -------<br>--- --- -- ----- -- --- ---- -- --- ---- -- that's ------<br>--- ----- -- ----,171741.69999999925,171740.59999999963,171274.034,171274.69999999925,171290.697,171755.277,,50,that's
screen,html.Screen,2_1_0_1_51,2022-04-30T11:17:02.276Z,,,,,,,,,,,,,,,,,53,,,,,,,,,,,,,,487.4229999992531,,response,,,,99,,,,,,,Space,keypress(Space),,,,,,,,---- -- ----- -- ------ - ------- --- ----------<br>------------- ------ ------ ---- ---- ------- ----- -- ----<br>-------- ------- -- ---------- --- - --- ----- ----- ----<br>---- --- --- ----- --- ---- ---- ------- ----- ---- -------<br>--- --- -- ----- -- --- ---- -- --- ---- -- ------ really<br>--- ----- -- ----,172245.09999999963,172242.69999999925,171738.614,171741.79999999888,171755.277,172253.205,,51,really
screen,html.Screen,2_1_0_1_52,2022-04-30T11:17:02.693Z,,,,,,,,,,,,,,,,,53,,,,,,,,,,,,,,408.7950000000128,,response,,,,99,,,,,,,Space,keypress(Space),,,,,,,,---- -- ----- -- ------ - ------- --- ----------<br>------------- ------ ------ ---- ---- ------- ----- -- ----<br>-------- ------- -- ---------- --- - --- ----- ----- ----<br>---- --- --- ----- --- ---- ---- ------- ----- ---- -------<br>--- --- -- ----- -- --- ---- -- --- ---- -- ------ ------<br>not ----- -- ----,172662.8999999985,172662,172236.542,172245.29999999888,172253.205,172669.246,,52,not
screen,html.Screen,2_1_0_1_53,2022-04-30T11:17:03.358Z,,,,,,,,,,,,,,,,,53,,,,,,,,,,,,,,657.2539999999863,,response,,,,99,,,,,,,Space,keypress(Space),,,,,,,,---- -- ----- -- ------ - ------- --- ----------<br>------------- ------ ------ ---- ---- ------- ----- -- ----<br>-------- ------- -- ---------- --- - --- ----- ----- ----<br>---- --- --- ----- --- ---- ---- ------- ----- ---- -------<br>--- --- -- ----- -- --- ---- -- --- ---- -- ------ ------<br>--- close -- ----,173327.5,173326.5,172652.583,172662.8999999985,172669.246,173332.352,,53,close
screen,html.Screen,2_1_0_1_54,2022-04-30T11:17:04.035Z,,,,,,,,,,,,,,,,,53,,,,,,,,,,,,,,671.0479999984964,,response,,,,99,,,,,,,Space,keypress(Space),,,,,,,,---- -- ----- -- ------ - ------- --- ----------<br>------------- ------ ------ ---- ---- ------- ----- -- ----<br>-------- ------- -- ---------- --- - --- ----- ----- ----<br>---- --- --- ----- --- ---- ---- ------- ----- ---- -------<br>--- --- -- ----- -- --- ---- -- --- ---- -- ------ ------<br>--- ----- at ----,174004.29999999888,174003.3999999985,173315.689,173327.59999999963,173332.352,174013.555,,54,at
screen,html.Screen,2_1_0_1_55,2022-04-30T11:17:05.461Z,,,,,,,,,,,,,,,,,53,,,,,,,,,,,,,,1415.445000000007,,response,,,,99,,,,,,,Space,keypress(Space),,,,,,,,---- -- ----- -- ------ - ------- --- ----------<br>------------- ------ ------ ---- ---- ------- ----- -- ----<br>-------- ------- -- ---------- --- - --- ----- ----- ----<br>---- --- --- ----- --- ---- ---- ------- ----- ---- -------<br>--- --- -- ----- -- --- ---- -- --- ---- -- ------ ------<br>--- ----- -- all.,175429.8999999985,175429,173996.892,174004.5,174013.555,175440.633,,55,all.
Item 99,flow.Loop,2_1_0_1,2022-04-30T11:17:05.461Z,,,,,,,,,,,,,,,,,,,,,,,,,,,,,,,31878.068,,completion,,,,,E,,,,,,,,,,,silence,,,,,175430.29999999888,175429,143400.965,143402.29999999888,143550.932,175440.633,,,
Question 1,html.Screen,2_1_0_2,2022-04-30T11:17:09.922Z,,,,,,,,,,,,,,,,,,,,,,,,,,,,true,FALSE,,4449.966999999626,,response,,,,99,E,,,,,,FALSE,click #choice-2,,,,silence,,,,,179891.8999999985,179890.59999999963,175423.97,175430.3999999985,175440.633,179906.288,,,
Question 2,html.Screen,2_1_0_3,2022-04-30T11:17:14.026Z,,,,,,,,,,,,,,,,,,,,,,,,,,,,true,TRUE,,4087.2119999999995,,response,,,,99,E,,,,,,TRUE,click #choice-1,,,,silence,,,,,183994.59999999963,183993.5,179889.625,179892.09999999963,179906.288,184006.793,,,
Item 99,flow.Sequence,2_1_0,2022-04-30T11:17:14.026Z,,,,,,,,,,,,,,,,,,,,,,,,,,,,,,,50570.576,,completion,,,,,,,,,,,,,,,,,,,,,183994.8999999985,183993.5,133356.272,133415,133422.924,184006.793,,,
Holding screen,html.Screen,2_1_1_0,2022-04-30T11:17:24.018Z,,,,,,,,,,,,,,,,,,,,,,,,,,,,,,,9995.506999999983,,timeout,,,,,,,,,,,,,,,,,,,,,193987,193985.637,183990.13,183995.09999999963,184006.793,194002.3,,,
screen,html.Screen,2_1_1_1_0,2022-04-30T11:17:24.888Z,,,,,,,,,,,,,,,,,54,,,,,,,,,,,,,,854.2999999996391,,response,,,,100,,,,,,,Space,keypress(Space),,,,,,,,At --- ---- --- ------ ----- ------- ---- -- --- ------- --<br>------- ---------- ------ -- ----- -- ----- -- ---- ------<br>--- ----- --- --- ------ -------- ----- --- ------ ----- --<br>----- ----- ---------- --- --- ------ ------ ---- -- ------<br>------- --- ------ ----- --- ---- ------- -- ---- --- --<br>------- ------,194857.5,194856.59999999963,193985.637,193987.09999999963,194002.3,194864.888,,0,At
screen,html.Screen,2_1_1_1_1,2022-04-30T11:17:25.331Z,,,,,,,,,,,,,,,,,54,,,,,,,,,,,,,,434.0119999985036,,response,,,,100,,,,,,,Space,keypress(Space),,,,,,,,-- the ---- --- ------ ----- ------- ---- -- --- ------- --<br>------- ---------- ------ -- ----- -- ----- -- ---- ------<br>--- ----- --- --- ------ -------- ----- --- ------ ----- --<br>----- ----- ---------- --- --- ------ ------ ---- -- ------<br>------- --- ------ ----- --- ---- ------- -- ---- --- --<br>------- ------,195299.79999999888,195298.8999999985,194848.225,194857.69999999925,194864.888,195312.835,,1,the
screen,html.Screen,2_1_1_1_2,2022-04-30T11:17:26.259Z,,,,,,,,,,,,,,,,,54,,,,,,,,,,,,,,914.1650000000081,,response,,,,100,,,,,,,Space,keypress(Space),,,,,,,,-- --- time --- ------ ----- ------- ---- -- --- ------- --<br>------- ---------- ------ -- ----- -- ----- -- ---- ------<br>--- ----- --- --- ------ -------- ----- --- ------ ----- --<br>----- ----- ---------- --- --- ------ ------ ---- -- ------<br>------- --- ------ ----- --- ---- ------- -- ---- --- --<br>------- ------,196228,196227,195296.172,195299.8999999985,195312.835,196258.648,,2,time
screen,html.Screen,2_1_1_1_3,2022-04-30T11:17:26.677Z,,,,,,,,,,,,,,,,,54,,,,,,,,,,,,,,386.8520000000135,,response,,,,100,,,,,,,Space,keypress(Space),,,,,,,,-- --- ---- the ------ ----- ------- ---- -- --- ------- --<br>------- ---------- ------ -- ----- -- ----- -- ---- ------<br>--- ----- --- --- ------ -------- ----- --- ------ ----- --<br>----- ----- ---------- --- --- ------ ------ ---- -- ------<br>------- --- ------ ----- --- ---- ------- -- ---- --- --<br>------- ------,196646.29999999888,196645.5,196241.985,196228.19999999925,196258.648,196658.304,,3,the
screen,html.Screen,2_1_1_1_4,2022-04-30T11:17:27.369Z,,,,,,,,,,,,,,,,,54,,,,,,,,,,,,,,678.7959999996237,,response,,,,100,,,,,,,Space,keypress(Space),,,,,,,,-- --- ---- --- French ----- ------- ---- -- --- ------- --<br>------- ---------- ------ -- ----- -- ----- -- ---- ------<br>--- ----- --- --- ------ -------- ----- --- ------ ----- --<br>----- ----- ---------- --- --- ------ ------ ---- -- ------<br>------- --- ------ ----- --- ---- ------- -- ---- --- --<br>------- ------,197338,197337.09999999963,196641.641,196646.5,196658.304,197354.454,,4,French
screen,html.Screen,2_1_1_1_5,2022-04-30T11:17:27.805Z,,,,,,,,,,,,,,,,,54,,,,,,,,,,,,,,419.14599999962957,,response,,,,100,,,,,,,Space,keypress(Space),,,,,,,,-- --- ---- --- ------ crown ------- ---- -- --- ------- --<br>------- ---------- ------ -- ----- -- ----- -- ---- ------<br>--- ----- --- --- ------ -------- ----- --- ------ ----- --<br>----- ----- ---------- --- --- ------ ------ ---- -- ------<br>------- --- ------ ----- --- ---- ------- -- ---- --- --<br>------- ------,197774.5,197773.59999999963,197337.791,197338.19999999925,197354.454,197787.262,,5,crown
screen,html.Screen,2_1_1_1_6,2022-04-30T11:17:28.384Z,,,,,,,,,,,,,,,,,54,,,,,,,,,,,,,,564.7380000000121,,response,,,,100,,,,,,,Space,keypress(Space),,,,,,,,-- --- ---- --- ------ ----- secured ---- -- --- ------- --<br>------- ---------- ------ -- ----- -- ----- -- ---- ------<br>--- ----- --- --- ------ -------- ----- --- ------ ----- --<br>----- ----- ---------- --- --- ------ ------ ---- -- ------<br>------- --- ------ ----- --- ---- ------- -- ---- --- --<br>------- ------,198352.79999999888,198352,197770.599,197774.69999999925,197787.262,198366.955,,6,secured
screen,html.Screen,2_1_1_1_7,2022-04-30T11:17:28.798Z,,,,,,,,,,,,,,,,,54,,,,,,,,,,,,,,398.6449999996403,,response,,,,100,,,,,,,Space,keypress(Space),,,,,,,,-- --- ---- --- ------ ----- ------- much -- --- ------- --<br>------- ---------- ------ -- ----- -- ----- -- ---- ------<br>--- ----- --- --- ------ -------- ----- --- ------ ----- --<br>----- ----- ---------- --- --- ------ ------ ---- -- ------<br>------- --- ------ ----- --- ---- ------- -- ---- --- --<br>------- ------,198767.3999999985,198765.59999999963,198350.292,198353,198366.955,198783.33,,7,much
screen,html.Screen,2_1_1_1_8,2022-04-30T11:17:29.319Z,,,,,,,,,,,,,,,,,54,,,,,,,,,,,,,,503.9699999988952,,response,,,,100,,,,,,,Space,keypress(Space),,,,,,,,-- --- ---- --- ------ ----- ------- ---- of --- ------- --<br>------- ---------- ------ -- ----- -- ----- -- ---- ------<br>--- ----- --- --- ------ -------- ----- --- ------ ----- --<br>----- ----- ---------- --- --- ------ ------ ---- -- ------<br>------- --- ------ ----- --- ---- ------- -- ---- --- --<br>------- ------,199288.19999999925,199287.29999999888,198766.667,198767.3999999985,198783.33,199298.202,,8,of
screen,html.Screen,2_1_1_1_9,2022-04-30T11:17:29.805Z,,,,,,,,,,,,,,,,,54,,,,,,,,,,,,,,474.4979999992647,,response,,,,100,,,,,,,Space,keypress(Space),,,,,,,,-- --- ---- --- ------ ----- ------- ---- -- its ------- --<br>------- ---------- ------ -- ----- -- ----- -- ---- ------<br>--- ----- --- --- ------ -------- ----- --- ------ ----- --<br>----- ----- ---------- --- --- ------ ------ ---- -- ------<br>------- --- ------ ----- --- ---- ------- -- ---- --- --<br>------- ------,199773.59999999963,199772.69999999925,199281.539,199288.29999999888,199298.202,199779.472,,9,its
screen,html.Screen,2_1_1_1_10,2022-04-30T11:17:30.239Z,,,,,,,,,,,,,,,,,54,,,,,,,,,,,,,,427.82799999887357,,response,,,,100,,,,,,,Space,keypress(Space),,,,,,,,-- --- ---- --- ------ ----- ------- ---- -- --- revenue --<br>------- ---------- ------ -- ----- -- ----- -- ---- ------<br>--- ----- --- --- ------ -------- ----- --- ------ ----- --<br>----- ----- ---------- --- --- ------ ------ ---- -- ------<br>------- --- ------ ----- --- ---- ------- -- ---- --- --<br>------- ------,200208.09999999963,200207.29999999888,199762.809,199773.69999999925,199779.472,200210.75,,10,revenue
screen,html.Screen,2_1_1_1_11,2022-04-30T11:17:30.643Z,,,,,,,,,,,,,,,,,54,,,,,,,,,,,,,,399.94999999925494,,response,,,,100,,,,,,,Space,keypress(Space),,,,,,,,-- --- ---- --- ------ ----- ------- ---- -- --- ------- by<br>------- ---------- ------ -- ----- -- ----- -- ---- ------<br>--- ----- --- --- ------ -------- ----- --- ------ ----- --<br>----- ----- ---------- --- --- ------ ------ ---- -- ------<br>------- --- ------ ----- --- ---- ------- -- ---- --- --<br>------- ------,200611.79999999888,200610.69999999925,200194.087,200208.29999999888,200210.75,200625.354,,11,by
screen,html.Screen,2_1_1_1_12,2022-04-30T11:17:31.057Z,,,,,,,,,,,,,,,,,54,,,,,,,,,,,,,,399.34599999926286,,response,,,,100,,,,,,,Space,keypress(Space),,,,,,,,-- --- ---- --- ------ ----- ------- ---- -- --- ------- --<br>issuing ---------- ------ -- ----- -- ----- -- ---- ------<br>--- ----- --- --- ------ -------- ----- --- ------ ----- --<br>----- ----- ---------- --- --- ------ ------ ---- -- ------<br>------- --- ------ ----- --- ---- ------- -- ---- --- --<br>------- ------,201025.69999999925,201024.69999999925,200608.691,200612,200625.354,201039.962,,12,issuing
screen,html.Screen,2_1_1_1_13,2022-04-30T11:17:31.593Z,,,,,,,,,,,,,,,,,54,,,,,,,,,,,,,,521.3379999988829,,response,,,,100,,,,,,,Space,keypress(Space),,,,,,,,-- --- ---- --- ------ ----- ------- ---- -- --- ------- --<br>------- government ------ -- ----- -- ----- -- ---- ------<br>--- ----- --- --- ------ -------- ----- --- ------ ----- --<br>----- ----- ---------- --- --- ------ ------ ---- -- ------<br>------- --- ------ ----- --- ---- ------- -- ---- --- --<br>------- ------,201562.09999999963,201561.29999999888,201023.299,201025.79999999888,201039.962,201571.148,,13,government
screen,html.Screen,2_1_1_1_14,2022-04-30T11:17:32.127Z,,,,,,,,,,,,,,,,,54,,,,,,,,,,,,,,524.451999999641,,response,,,,100,,,,,,,Space,keypress(Space),,,,,,,,-- --- ---- --- ------ ----- ------- ---- -- --- ------- --<br>------- ---------- bonds. -- ----- -- ----- -- ---- ------<br>--- ----- --- --- ------ -------- ----- --- ------ ----- --<br>----- ----- ---------- --- --- ------ ------ ---- -- ------<br>------- --- ------ ----- --- ---- ------- -- ---- --- --<br>------- ------,202096.5,202095.59999999963,201554.485,201562.3999999985,201571.148,202102.446,,14,bonds.
screen,html.Screen,2_1_1_1_15,2022-04-30T11:17:33.496Z,,,,,,,,,,,,,,,,,54,,,,,,,,,,,,,,1361.4539999985136,,response,,,,100,,,,,,,Space,keypress(Space),,,,,,,,-- --- ---- --- ------ ----- ------- ---- -- --- ------- --<br>------- ---------- ------ In ----- -- ----- -- ---- ------<br>--- ----- --- --- ------ -------- ----- --- ------ ----- --<br>----- ----- ---------- --- --- ------ ------ ---- -- ------<br>------- --- ------ ----- --- ---- ------- -- ---- --- --<br>------- ------,203465.29999999888,203463.8999999985,202085.783,202096.59999999963,202102.446,203481.522,,15,In
screen,html.Screen,2_1_1_1_16,2022-04-30T11:17:34.782Z,,,,,,,,,,,,,,,,,54,,,,,,,,,,,,,,1268.7779999988852,,response,,,,100,,,,,,,Space,keypress(Space),,,,,,,,"-- --- ---- --- ------ ----- ------- ---- -- --- ------- --<br>------- ---------- ------ -- 1727, -- ----- -- ---- ------<br>--- ----- --- --- ------ -------- ----- --- ------ ----- --<br>----- ----- ---------- --- --- ------ ------ ---- -- ------<br>------- --- ------ ----- --- ---- ------- -- ---- --- --<br>------- ------",204751.29999999888,204750.29999999888,203464.859,203465.5,203481.522,204758.619,,16,"1727,"
screen,html.Screen,2_1_1_1_17,2022-04-30T11:17:35.218Z,,,,,,,,,,,,,,,,,54,,,,,,,,,,,,,,427.28099999850383,,response,,,,100,,,,,,,Space,keypress(Space),,,,,,,,-- --- ---- --- ------ ----- ------- ---- -- --- ------- --<br>------- ---------- ------ -- ----- in ----- -- ---- ------<br>--- ----- --- --- ------ -------- ----- --- ------ ----- --<br>----- ----- ---------- --- --- ------ ------ ---- -- ------<br>------- --- ------ ----- --- ---- ------- -- ---- --- --<br>------- ------,205186.79999999888,205185.8999999985,204741.956,204751.3999999985,204758.619,205191.5,,17,in
screen,html.Screen,2_1_1_1_18,2022-04-30T11:17:35.675Z,,,,,,,,,,,,,,,,,54,,,,,,,,,,,,,,450.8999999985099,,response,,,,100,,,,,,,Space,keypress(Space),,,,,,,,-- --- ---- --- ------ ----- ------- ---- -- --- ------- --<br>------- ---------- ------ -- ----- -- order -- ---- ------<br>--- ----- --- --- ------ -------- ----- --- ------ ----- --<br>----- ----- ---------- --- --- ------ ------ ---- -- ------<br>------- --- ------ ----- --- ---- ------- -- ---- --- --<br>------- ------,205643.8999999985,205642.3999999985,205174.837,205186.8999999985,205191.5,205656.443,,18,order
screen,html.Screen,2_1_1_1_19,2022-04-30T11:17:36.344Z,,,,,,,,,,,,,,,,,54,,,,,,,,,,,,,,655.3569999988831,,response,,,,100,,,,,,,Space,keypress(Space),,,,,,,,-- --- ---- --- ------ ----- ------- ---- -- --- ------- --<br>------- ---------- ------ -- ----- -- ----- to ---- ------<br>--- ----- --- --- ------ -------- ----- --- ------ ----- --<br>----- ----- ---------- --- --- ------ ------ ---- -- ------<br>------- --- ------ ----- --- ---- ------- -- ---- --- --<br>------- ------,206312.69999999925,206311.79999999888,205639.78,205644.09999999963,205656.443,206319.086,,19,to
screen,html.Screen,2_1_1_1_20,2022-04-30T11:17:36.910Z,,,,,,,,,,,,,,,,,54,,,,,,,,,,,,,,558.5139999996172,,response,,,,100,,,,,,,Space,keypress(Space),,,,,,,,-- --- ---- --- ------ ----- ------- ---- -- --- ------- --<br>------- ---------- ------ -- ----- -- ----- -- save ------<br>--- ----- --- --- ------ -------- ----- --- ------ ----- --<br>----- ----- ---------- --- --- ------ ------ ---- -- ------<br>------- --- ------ ----- --- ---- ------- -- ---- --- --<br>------- ------,206878.8999999985,206877.59999999963,206302.423,206312.8999999985,206319.086,206883.721,,20,save
screen,html.Screen,2_1_1_1_21,2022-04-30T11:17:37.336Z,,,,,,,,,,,,,,,,,54,,,,,,,,,,,,,,420.4789999992645,,response,,,,100,,,,,,,Space,keypress(Space),,,,,,,,"-- --- ---- --- ------ ----- ------- ---- -- --- ------- --<br>------- ---------- ------ -- ----- -- ----- -- ---- money,<br>--- ----- --- --- ------ -------- ----- --- ------ ----- --<br>----- ----- ---------- --- --- ------ ------ ---- -- ------<br>------- --- ------ ----- --- ---- ------- -- ---- --- --<br>------- ------",207305.19999999925,207304.19999999925,206867.058,206879.09999999963,206883.721,207316.468,,21,"money,"
screen,html.Screen,2_1_1_1_22,2022-04-30T11:17:37.704Z,,,,,,,,,,,,,,,,,54,,,,,,,,,,,,,,355.9319999985164,,response,,,,100,,,,,,,Space,keypress(Space),,,,,,,,-- --- ---- --- ------ ----- ------- ---- -- --- ------- --<br>------- ---------- ------ -- ----- -- ----- -- ---- ------<br>the ----- --- --- ------ -------- ----- --- ------ ----- --<br>----- ----- ---------- --- --- ------ ------ ---- -- ------<br>------- --- ------ ----- --- ---- ------- -- ---- --- --<br>------- ------,207673.19999999925,207672.3999999985,207299.805,207305.29999999888,207316.468,207681.506,,22,the
screen,html.Screen,2_1_1_1_23,2022-04-30T11:17:38.283Z,,,,,,,,,,,,,,,,,54,,,,,,,,,,,,,,569.7939999988885,,response,,,,100,,,,,,,Space,keypress(Space),,,,,,,,-- --- ---- --- ------ ----- ------- ---- -- --- ------- --<br>------- ---------- ------ -- ----- -- ----- -- ---- ------<br>--- state --- --- ------ -------- ----- --- ------ ----- --<br>----- ----- ---------- --- --- ------ ------ ---- -- ------<br>------- --- ------ ----- --- ---- ------- -- ---- --- --<br>------- ------,208252.3999999985,208251.29999999888,207664.843,207673.3999999985,207681.506,208262.796,,23,state
screen,html.Screen,2_1_1_1_24,2022-04-30T11:17:38.757Z,,,,,,,,,,,,,,,,,54,,,,,,,,,,,,,,462.6039999985078,,response,,,,100,,,,,,,Space,keypress(Space),,,,,,,,-- --- ---- --- ------ ----- ------- ---- -- --- ------- --<br>------- ---------- ------ -- ----- -- ----- -- ---- ------<br>--- ----- cut --- ------ -------- ----- --- ------ ----- --<br>----- ----- ---------- --- --- ------ ------ ---- -- ------<br>------- --- ------ ----- --- ---- ------- -- ---- --- --<br>------- ------,208726.5,208725.3999999985,208246.133,208252.59999999963,208262.796,208727.345,,24,cut
screen,html.Screen,2_1_1_1_25,2022-04-30T11:17:39.357Z,,,,,,,,,,,,,,,,,54,,,,,,,,,,,,,,598.2549999996263,,response,,,,100,,,,,,,Space,keypress(Space),,,,,,,,-- --- ---- --- ------ ----- ------- ---- -- --- ------- --<br>------- ---------- ------ -- ----- -- ----- -- ---- ------<br>--- ----- --- the ------ -------- ----- --- ------ ----- --<br>----- ----- ---------- --- --- ------ ------ ---- -- ------<br>------- --- ------ ----- --- ---- ------- -- ---- --- --<br>------- ------,209326.5,209325.59999999963,208710.682,208726.59999999963,208727.345,209341.961,,25,the
screen,html.Screen,2_1_1_1_26,2022-04-30T11:17:39.796Z,,,,,,,,,,,,,,,,,54,,,,,,,,,,,,,,422.33899999887217,,response,,,,100,,,,,,,Space,keypress(Space),,,,,,,,-- --- ---- --- ------ ----- ------- ---- -- --- ------- --<br>------- ---------- ------ -- ----- -- ----- -- ---- ------<br>--- ----- --- --- bonds' -------- ----- --- ------ ----- --<br>----- ----- ---------- --- --- ------ ------ ---- -- ------<br>------- --- ------ ----- --- ---- ------- -- ---- --- --<br>------- ------,209765.09999999963,209764.29999999888,209325.298,209326.69999999925,209341.961,209773.169,,26,bonds'
screen,html.Screen,2_1_1_1_27,2022-04-30T11:17:40.262Z,,,,,,,,,,,,,,,,,54,,,,,,,,,,,,,,457.03099999926053,,response,,,,100,,,,,,,Space,keypress(Space),,,,,,,,-- --- ---- --- ------ ----- ------- ---- -- --- ------- --<br>------- ---------- ------ -- ----- -- ----- -- ---- ------<br>--- ----- --- --- ------ interest ----- --- ------ ----- --<br>----- ----- ---------- --- --- ------ ------ ---- -- ------<br>------- --- ------ ----- --- ---- ------- -- ---- --- --<br>------- ------,210231.19999999925,210230.19999999925,209756.506,209765.29999999888,209773.169,210237.779,,27,interest
screen,html.Screen,2_1_1_1_28,2022-04-30T11:17:40.707Z,,,,,,,,,,,,,,,,,54,,,,,,,,,,,,,,437.52099999887287,,response,,,,100,,,,,,,Space,keypress(Space),,,,,,,,-- --- ---- --- ------ ----- ------- ---- -- --- ------- --<br>------- ---------- ------ -- ----- -- ----- -- ---- ------<br>--- ----- --- --- ------ -------- rate. --- ------ ----- --<br>----- ----- ---------- --- --- ------ ------ ---- -- ------<br>------- --- ------ ----- --- ---- ------- -- ---- --- --<br>------- ------,210676.29999999888,210675.29999999888,210221.116,210231.29999999888,210237.779,210685.752,,28,rate.
screen,html.Screen,2_1_1_1_29,2022-04-30T11:17:41.142Z,,,,,,,,,,,,,,,,,54,,,,,,,,,,,,,,424.7479999999923,,response,,,,100,,,,,,,Space,keypress(Space),,,,,,,,-- --- ---- --- ------ ----- ------- ---- -- --- ------- --<br>------- ---------- ------ -- ----- -- ----- -- ---- ------<br>--- ----- --- --- ------ -------- ----- The ------ ----- --<br>----- ----- ---------- --- --- ------ ------ ---- -- ------<br>------- --- ------ ----- --- ---- ------- -- ---- --- --<br>------- ------,211111.29999999888,211110.5,210669.089,210676.3999999985,210685.752,211116.964,,29,The
screen,html.Screen,2_1_1_1_30,2022-04-30T11:17:41.565Z,,,,,,,,,,,,,,,,,54,,,,,,,,,,,,,,415.8359999988752,,response,,,,100,,,,,,,Space,keypress(Space),,,,,,,,-- --- ---- --- ------ ----- ------- ---- -- --- ------- --<br>------- ---------- ------ -- ----- -- ----- -- ---- ------<br>--- ----- --- --- ------ -------- ----- --- market ----- --<br>----- ----- ---------- --- --- ------ ------ ---- -- ------<br>------- --- ------ ----- --- ---- ------- -- ---- --- --<br>------- ------,211534,211532.79999999888,211100.301,211111.5,211116.964,211549.878,,30,market
screen,html.Screen,2_1_1_1_31,2022-04-30T11:17:41.983Z,,,,,,,,,,,,,,,,,54,,,,,,,,,,,,,,401.7219999996305,,response,,,,100,,,,,,,Space,keypress(Space),,,,,,,,-- --- ---- --- ------ ----- ------- ---- -- --- ------- --<br>------- ---------- ------ -- ----- -- ----- -- ---- ------<br>--- ----- --- --- ------ -------- ----- --- ------ value --<br>----- ----- ---------- --- --- ------ ------ ---- -- ------<br>------- --- ------ ----- --- ---- ------- -- ---- --- --<br>------- ------,211952.3999999985,211951.59999999963,211533.215,211534.09999999963,211549.878,211964.869,,31,value
screen,html.Screen,2_1_1_1_32,2022-04-30T11:17:42.410Z,,,,,,,,,,,,,,,,,54,,,,,,,,,,,,,,412.8309999992489,,response,,,,100,,,,,,,Space,keypress(Space),,,,,,,,-- --- ---- --- ------ ----- ------- ---- -- --- ------- --<br>------- ---------- ------ -- ----- -- ----- -- ---- ------<br>--- ----- --- --- ------ -------- ----- --- ------ ----- of<br>----- ----- ---------- --- --- ------ ------ ---- -- ------<br>------- --- ------ ----- --- ---- ------- -- ---- --- --<br>------- ------,212378.69999999925,212377.69999999925,211948.206,211952.59999999963,211964.869,212379.47,,32,of
screen,html.Screen,2_1_1_1_33,2022-04-30T11:17:42.813Z,,,,,,,,,,,,,,,,,54,,,,,,,,,,,,,,401.2299999992538,,response,,,,100,,,,,,,Space,keypress(Space),,,,,,,,-- --- ---- --- ------ ----- ------- ---- -- --- ------- --<br>------- ---------- ------ -- ----- -- ----- -- ---- ------<br>--- ----- --- --- ------ -------- ----- --- ------ ----- --<br>these ----- ---------- --- --- ------ ------ ---- -- ------<br>------- --- ------ ----- --- ---- ------- -- ---- --- --<br>------- ------,212781.59999999963,212780.69999999925,212362.807,212378.8999999985,212379.47,212794.115,,33,these
screen,html.Screen,2_1_1_1_34,2022-04-30T11:17:43.218Z,,,,,,,,,,,,,,,,,54,,,,,,,,,,,,,,391.58499999926426,,response,,,,100,,,,,,,Space,keypress(Space),,,,,,,,-- --- ---- --- ------ ----- ------- ---- -- --- ------- --<br>------- ---------- ------ -- ----- -- ----- -- ---- ------<br>--- ----- --- --- ------ -------- ----- --- ------ ----- --<br>----- bonds ---------- --- --- ------ ------ ---- -- ------<br>------- --- ------ ----- --- ---- ------- -- ---- --- --<br>------- ------,213186.59999999963,213185.69999999925,212777.452,212781.79999999888,212794.115,213208.737,,34,bonds
screen,html.Screen,2_1_1_1_35,2022-04-30T11:17:43.789Z,,,,,,,,,,,,,,,,,54,,,,,,,,,,,,,,548.0629999988887,,response,,,,100,,,,,,,Space,keypress(Space),,,,,,,,"-- --- ---- --- ------ ----- ------- ---- -- --- ------- --<br>------- ---------- ------ -- ----- -- ----- -- ---- ------<br>--- ----- --- --- ------ -------- ----- --- ------ ----- --<br>----- ----- plummeted, --- --- ------ ------ ---- -- ------<br>------- --- ------ ----- --- ---- ------- -- ---- --- --<br>------- ------",213757.79999999888,213756.79999999888,213192.074,213186.69999999925,213208.737,213773.312,,35,"plummeted,"
screen,html.Screen,2_1_1_1_36,2022-04-30T11:17:44.217Z,,,,,,,,,,,,,,,,,54,,,,,,,,,,,,,,411.68799999999464,,response,,,,100,,,,,,,Space,keypress(Space),,,,,,,,-- --- ---- --- ------ ----- ------- ---- -- --- ------- --<br>------- ---------- ------ -- ----- -- ----- -- ---- ------<br>--- ----- --- --- ------ -------- ----- --- ------ ----- --<br>----- ----- ---------- and --- ------ ------ ---- -- ------<br>------- --- ------ ----- --- ---- ------- -- ---- --- --<br>------- ------,214185.79999999888,214185,213756.649,213757.8999999985,213773.312,214189.482,,36,and
screen,html.Screen,2_1_1_1_37,2022-04-30T11:17:44.651Z,,,,,,,,,,,,,,,,,54,,,,,,,,,,,,,,429.4179999985208,,response,,,,100,,,,,,,Space,keypress(Space),,,,,,,,-- --- ---- --- ------ ----- ------- ---- -- --- ------- --<br>------- ---------- ------ -- ----- -- ----- -- ---- ------<br>--- ----- --- --- ------ -------- ----- --- ------ ----- --<br>----- ----- ---------- --- the ------ ------ ---- -- ------<br>------- --- ------ ----- --- ---- ------- -- ---- --- --<br>------- ------,214619.79999999888,214618.8999999985,214172.819,214185.8999999985,214189.482,214621.11,,37,the
screen,html.Screen,2_1_1_1_38,2022-04-30T11:17:45.067Z,,,,,,,,,,,,,,,,,54,,,,,,,,,,,,,,413.28999999852385,,response,,,,100,,,,,,,Space,keypress(Space),,,,,,,,-- --- ---- --- ------ ----- ------- ---- -- --- ------- --<br>------- ---------- ------ -- ----- -- ----- -- ---- ------<br>--- ----- --- --- ------ -------- ----- --- ------ ----- --<br>----- ----- ---------- --- --- market ------ ---- -- ------<br>------- --- ------ ----- --- ---- ------- -- ---- --- --<br>------- ------,215035.69999999925,215034.3999999985,214604.447,214620,214621.11,215052.429,,38,market
screen,html.Screen,2_1_1_1_39,2022-04-30T11:17:45.445Z,,,,,,,,,,,,,,,,,54,,,,,,,,,,,,,,360.97099999850616,,response,,,,100,,,,,,,Space,keypress(Space),,,,,,,,-- --- ---- --- ------ ----- ------- ---- -- --- ------- --<br>------- ---------- ------ -- ----- -- ----- -- ---- ------<br>--- ----- --- --- ------ -------- ----- --- ------ ----- --<br>----- ----- ---------- --- --- ------ became ---- -- ------<br>------- --- ------ ----- --- ---- ------- -- ---- --- --<br>------- ------,215414.29999999888,215413.3999999985,215035.766,215035.8999999985,215052.429,215417.033,,39,became
screen,html.Screen,2_1_1_1_40,2022-04-30T11:17:46.281Z,,,,,,,,,,,,,,,,,54,,,,,,,,,,,,,,831.7669999988866,,response,,,,100,,,,,,,Space,keypress(Space),,,,,,,,-- --- ---- --- ------ ----- ------- ---- -- --- ------- --<br>------- ---------- ------ -- ----- -- ----- -- ---- ------<br>--- ----- --- --- ------ -------- ----- --- ------ ----- --<br>----- ----- ---------- --- --- ------ ------ wary -- ------<br>------- --- ------ ----- --- ---- ------- -- ---- --- --<br>------- ------,216249.79999999888,216248.79999999888,215400.37,215414.5,215417.033,216264.871,,40,wary
screen,html.Screen,2_1_1_1_41,2022-04-30T11:17:46.659Z,,,,,,,,,,,,,,,,,54,,,,,,,,,,,,,,362.52899999849615,,response,,,,100,,,,,,,Space,keypress(Space),,,,,,,,-- --- ---- --- ------ ----- ------- ---- -- --- ------- --<br>------- ---------- ------ -- ----- -- ----- -- ---- ------<br>--- ----- --- --- ------ -------- ----- --- ------ ----- --<br>----- ----- ---------- --- --- ------ ------ ---- of ------<br>------- --- ------ ----- --- ---- ------- -- ---- --- --<br>------- ------,216628.19999999925,216627.3999999985,216248.208,216249.8999999985,216264.871,216629.488,,41,of
screen,html.Screen,2_1_1_1_42,2022-04-30T11:17:47.097Z,,,,,,,,,,,,,,,,,54,,,,,,,,,,,,,,436.11199999961536,,response,,,,100,,,,,,,Space,keypress(Space),,,,,,,,-- --- ---- --- ------ ----- ------- ---- -- --- ------- --<br>------- ---------- ------ -- ----- -- ----- -- ---- ------<br>--- ----- --- --- ------ -------- ----- --- ------ ----- --<br>----- ----- ---------- --- --- ------ ------ ---- -- French<br>------- --- ------ ----- --- ---- ------- -- ---- --- --<br>------- ------,217066.3999999985,217065.59999999963,216612.825,216628.5,216629.488,217077.434,,42,French
screen,html.Screen,2_1_1_1_43,2022-04-30T11:17:47.674Z,,,,,,,,,,,,,,,,,54,,,,,,,,,,,,,,564.6659999996191,,response,,,,100,,,,,,,Space,keypress(Space),,,,,,,,-- --- ---- --- ------ ----- ------- ---- -- --- ------- --<br>------- ---------- ------ -- ----- -- ----- -- ---- ------<br>--- ----- --- --- ------ -------- ----- --- ------ ----- --<br>----- ----- ---------- --- --- ------ ------ ---- -- ------<br>credit. --- ------ ----- --- ---- ------- -- ---- --- --<br>------- ------,217643.09999999963,217642.09999999963,217060.771,217066.59999999963,217077.434,217658.534,,43,credit.
screen,html.Screen,2_1_1_1_44,2022-04-30T11:17:48.158Z,,,,,,,,,,,,,,,,,54,,,,,,,,,,,,,,467.7659999988682,,response,,,,100,,,,,,,Space,keypress(Space),,,,,,,,-- --- ---- --- ------ ----- ------- ---- -- --- ------- --<br>------- ---------- ------ -- ----- -- ----- -- ---- ------<br>--- ----- --- --- ------ -------- ----- --- ------ ----- --<br>----- ----- ---------- --- --- ------ ------ ---- -- ------<br>------- The ------ ----- --- ---- ------- -- ---- --- --<br>------- ------,218127.5,218126.29999999888,217641.871,217643.19999999925,217658.534,218139.848,,44,The
screen,html.Screen,2_1_1_1_45,2022-04-30T11:17:49.106Z,,,,,,,,,,,,,,,,,54,,,,,,,,,,,,,,933.9519999988843,,response,,,,100,,,,,,,Space,keypress(Space),,,,,,,,-- --- ---- --- ------ ----- ------- ---- -- --- ------- --<br>------- ---------- ------ -- ----- -- ----- -- ---- ------<br>--- ----- --- --- ------ -------- ----- --- ------ ----- --<br>----- ----- ---------- --- --- ------ ------ ---- -- ------<br>------- --- French ----- --- ---- ------- -- ---- --- --<br>------- ------,219075,219073.79999999888,218123.185,218127.59999999963,218139.848,219085.71,,45,French
screen,html.Screen,2_1_1_1_46,2022-04-30T11:17:50.098Z,,,,,,,,,,,,,,,,,54,,,,,,,,,,,,,,979.8899999996356,,response,,,,100,,,,,,,Space,keypress(Space),,,,,,,,-- --- ---- --- ------ ----- ------- ---- -- --- ------- --<br>------- ---------- ------ -- ----- -- ----- -- ---- ------<br>--- ----- --- --- ------ -------- ----- --- ------ ----- --<br>----- ----- ---------- --- --- ------ ------ ---- -- ------<br>------- --- ------ state --- ---- ------- -- ---- --- --<br>------- ------,220067.19999999925,220065.59999999963,219069.047,219075.19999999925,219085.71,220065.001,,46,state
screen,html.Screen,2_1_1_1_47,2022-04-30T11:17:50.483Z,,,,,,,,,,,,,,,,,54,,,,,,,,,,,,,,386.5989999996382,,response,,,,100,,,,,,,Space,keypress(Space),,,,,,,,-- --- ---- --- ------ ----- ------- ---- -- --- ------- --<br>------- ---------- ------ -- ----- -- ----- -- ---- ------<br>--- ----- --- --- ------ -------- ----- --- ------ ----- --<br>----- ----- ---------- --- --- ------ ------ ---- -- ------<br>------- --- ------ ----- was ---- ------- -- ---- --- --<br>------- ------,220452.3999999985,220451.59999999963,220050.258,220067.29999999888,220065.001,220464.698,,47,was
screen,html.Screen,2_1_1_1_48,2022-04-30T11:17:51.101Z,,,,,,,,,,,,,,,,,54,,,,,,,,,,,,,,604.6019999988785,,response,,,,100,,,,,,,Space,keypress(Space),,,,,,,,-- --- ---- --- ------ ----- ------- ---- -- --- ------- --<br>------- ---------- ------ -- ----- -- ----- -- ---- ------<br>--- ----- --- --- ------ -------- ----- --- ------ ----- --<br>----- ----- ---------- --- --- ------ ------ ---- -- ------<br>------- --- ------ ----- --- left ------- -- ---- --- --<br>------- ------,221070.19999999925,221069.29999999888,220448.035,220452.5,220464.698,221079.457,,48,left
screen,html.Screen,2_1_1_1_49,2022-04-30T11:17:51.544Z,,,,,,,,,,,,,,,,,54,,,,,,,,,,,,,,429.942999998515,,response,,,,100,,,,,,,Space,keypress(Space),,,,,,,,-- --- ---- --- ------ ----- ------- ---- -- --- ------- --<br>------- ---------- ------ -- ----- -- ----- -- ---- ------<br>--- ----- --- --- ------ -------- ----- --- ------ ----- --<br>----- ----- ---------- --- --- ------ ------ ---- -- ------<br>------- --- ------ ----- --- ---- without -- ---- --- --<br>------- ------,221513.19999999925,221509.3999999985,221062.794,221070.29999999888,221079.457,221527.352,,49,without
screen,html.Screen,2_1_1_1_50,2022-04-30T11:17:52.010Z,,,,,,,,,,,,,,,,,54,,,,,,,,,,,,,,450.5479999984964,,response,,,,100,,,,,,,Space,keypress(Space),,,,,,,,-- --- ---- --- ------ ----- ------- ---- -- --- ------- --<br>------- ---------- ------ -- ----- -- ----- -- ---- ------<br>--- ----- --- --- ------ -------- ----- --- ------ ----- --<br>----- ----- ---------- --- --- ------ ------ ---- -- ------<br>------- --- ------ ----- --- ---- ------- an ---- --- --<br>------- ------,221978.79999999888,221977.8999999985,221510.689,221513.29999999888,221527.352,221991.938,,50,an
screen,html.Screen,2_1_1_1_51,2022-04-30T11:17:52.728Z,,,,,,,,,,,,,,,,,54,,,,,,,,,,,,,,703.0620000000054,,response,,,,100,,,,,,,Space,keypress(Space),,,,,,,,-- --- ---- --- ------ ----- ------- ---- -- --- ------- --<br>------- ---------- ------ -- ----- -- ----- -- ---- ------<br>--- ----- --- --- ------ -------- ----- --- ------ ----- --<br>----- ----- ---------- --- --- ------ ------ ---- -- ------<br>------- --- ------ ----- --- ---- ------- -- easy --- --<br>------- ------,222696.59999999963,222695,221975.275,221978.8999999985,221991.938,222721.236,,51,easy
screen,html.Screen,2_1_1_1_52,2022-04-30T11:17:53.232Z,,,,,,,,,,,,,,,,,54,,,,,,,,,,,,,,479.4639999992505,,response,,,,100,,,,,,,Space,keypress(Space),,,,,,,,-- --- ---- --- ------ ----- ------- ---- -- --- ------- --<br>------- ---------- ------ -- ----- -- ----- -- ---- ------<br>--- ----- --- --- ------ -------- ----- --- ------ ----- --<br>----- ----- ---------- --- --- ------ ------ ---- -- ------<br>------- --- ------ ----- --- ---- ------- -- ---- way --<br>------- ------,223201.59999999963,223200.69999999925,222706.538,222696.79999999888,222721.236,223204.3,,52,way
screen,html.Screen,2_1_1_1_53,2022-04-30T11:17:54.038Z,,,,,,,,,,,,,,,,,54,,,,,,,,,,,,,,801.3999999992666,,response,,,,100,,,,,,,Space,keypress(Space),,,,,,,,-- --- ---- --- ------ ----- ------- ---- -- --- ------- --<br>------- ---------- ------ -- ----- -- ----- -- ---- ------<br>--- ----- --- --- ------ -------- ----- --- ------ ----- --<br>----- ----- ---------- --- --- ------ ------ ---- -- ------<br>------- --- ------ ----- --- ---- ------- -- ---- --- of<br>------- ------,224006.59999999963,224005.69999999925,223187.637,223201.79999999888,223204.3,224017.014,,53,of
screen,html.Screen,2_1_1_1_54,2022-04-30T11:17:54.703Z,,,,,,,,,,,,,,,,,54,,,,,,,,,,,,,,654.2859999988868,,response,,,,100,,,,,,,Space,keypress(Space),,,,,,,,-- --- ---- --- ------ ----- ------- ---- -- --- ------- --<br>------- ---------- ------ -- ----- -- ----- -- ---- ------<br>--- ----- --- --- ------ -------- ----- --- ------ ----- --<br>----- ----- ---------- --- --- ------ ------ ---- -- ------<br>------- --- ------ ----- --- ---- ------- -- ---- --- --<br>raising ------,224672.29999999888,224671.29999999888,224000.351,224006.79999999888,224017.014,224681.555,,54,raising
screen,html.Screen,2_1_1_1_55,2022-04-30T11:17:55.738Z,,,,,,,,,,,,,,,,,54,,,,,,,,,,,,,,1024.644999999262,,response,,,,100,,,,,,,Space,keypress(Space),,,,,,,,-- --- ---- --- ------ ----- ------- ---- -- --- ------- --<br>------- ---------- ------ -- ----- -- ----- -- ---- ------<br>--- ----- --- --- ------ -------- ----- --- ------ ----- --<br>----- ----- ---------- --- --- ------ ------ ---- -- ------<br>------- --- ------ ----- --- ---- ------- -- ---- --- --<br>------- money.,225707.09999999963,225706.19999999925,224664.892,224672.3999999985,224681.555,225727.347,,55,money.
Item 100,flow.Loop,2_1_1_1,2022-04-30T11:17:55.738Z,,,,,,,,,,,,,,,,,,,,,,,,,,,,,,,31703.899999999267,,completion,,,,,E,,,,,,,,,,,silence,,,,,225707.3999999985,225706.19999999925,193985.637,193987.09999999963,194002.3,225727.347,,,
Question 1,html.Screen,2_1_1_2,2022-04-30T11:17:58.200Z,,,,,,,,,,,,,,,,,,,,,,,,,,,,true,TRUE,,2440.7529999996186,,response,,,,100,E,,,,,,TRUE,click #choice-1,,,,silence,,,,,228169.19999999925,228168.09999999963,225694.021,225707.5,225727.347,228183.289,,,
Question 2,html.Screen,2_1_1_3,2022-04-30T11:18:00.136Z,,,,,,,,,,,,,,,,,,,,,,,,,,,,true,FALSE,,1920.9109999992652,,response,,,,100,E,,,,,,FALSE,click #choice-2,,,,silence,,,,,230105.29999999888,230104.19999999925,228166.626,228169.3999999985,228183.289,230125.471,,,
Item 100,flow.Sequence,2_1_1,2022-04-30T11:18:00.136Z,,,,,,,,,,,,,,,,,,,,,,,,,,,,,,,46097.40699999925,,completion,,,,,,,,,,,,,,,,,,,,,230105.59999999963,230104.19999999925,183990.13,183995.09999999963,184006.793,230125.471,,,
End of Practice,html.Page,2_1_2,2022-04-30T11:18:04.859Z,,,,,,,,,,,,,,,,,,,,,,,,,,,,,,,4702.02900000001,,form submission,,,,,,,,,,,,,,,,,,,,,234827.79999999888,234827.5,230108.808,230105.69999999925,230125.471,234841.191,,,
Practice,flow.Sequence,2_1,2022-04-30T11:18:04.859Z,,,,,,,,,,,,,,,,,,,,,,,,,,,,,,,101404.576,,completion,,,,,,,,,,,,,,,,,,,,,234828.09999999963,234827.5,133356.272,133414.79999999888,133422.924,234841.191,,,
Trap_instruction,html.Page,2_2_0,2022-04-30T11:18:07.852Z,,,,,,,,,,,,,,,,,,,,,,,,,,,,,,,2979.408999999636,,form submission,,,,,,,,,,,,,,,,,,,,,237820.8999999985,237820.59999999963,234824.528,234828.29999999888,234841.191,238029.264,,,
trap_trial,html.Screen,2_2_1,2022-04-30T11:18:11.228Z,,,,,,,,,,,,,,,,,,,,,,,,,,,,true,1,,3166.835999999632,,response,,,,,,,,,,,1,click #choice-1,,,,,,,,,241197.3999999985,241196.09999999963,237812.645,237821.09999999963,238029.264,241248.812,,,
end of trap trial,html.Page,2_2_2,2022-04-30T11:18:12.986Z,,,,,,,,,,,,,,,,,,,,,,,,,,,,,,,1705.8879999992496,,form submission,,,,,,,,,,,,,,,,,,,,,242955.09999999963,242954.69999999925,241182.16,241197.59999999963,241248.812,242958.676,,,
Trap 1,flow.Sequence,2_2,2022-04-30T11:18:12.986Z,,,,,,,,,,,,,,,,,,,,,,,,,,,,,,,8113.508999999263,,completion,,,,,,,,,,,,,,,,,,,,,242955.29999999888,242954.69999999925,234824.528,234828.19999999925,234841.191,242958.676,,,
Standby,html.Page,2_3_0,2022-04-30T11:18:20.977Z,,,,,,,,,,,,,,,,,,,,,,,,,,,,,,,8002.084000000003,,timeout,,,,,,,,,,,,,,,,,,,,,250945.59999999963,250944.097,242942.013,242955.5,242958.676,250960.76,,,
Holding screen,html.Screen,2_3_1_0_0,2022-04-30T11:18:27.982Z,,,,,,,,,,,,,,,,,,,,,,,,,,,,,,,7006.282999999996,,timeout,,,,,,,,,,,,,,,,,,,,,257951.5,257950.38,250944.097,250946,250960.76,257967.043,,,
screen,html.Screen,2_3_1_0_1_0,2022-04-30T11:18:29.001Z,,,,,,,,,,,,,,,,,19,,,,,,,,,,,,,,1001.9569999999949,,response,,,,17,E,,,,,,Space,keypress(Space),,,,silence,,,,"Interestingly, --- -------- -------- ---------- ---- -------<br>-- ---------- -- --- ----- ------ ----- ---- --------- ----<br>------- ------ -------- -- ------ ---------- ------ ---<br>------ -- -- ---- -- ---------- -------- ------ ---- -------<br>---- --- --------- ------- ----- --------- ---- ----- --<br>------ -------- -- ------ -- ---- ------------",258969.8999999985,258969,257950.38,257951.69999999925,257967.043,258979.545,,0,"Interestingly,"
screen,html.Screen,2_3_1_0_1_1,2022-04-30T11:18:29.508Z,,,,,,,,,,,,,,,,,19,,,,,,,,,,,,,,496.55499999961467,,response,,,,17,E,,,,,,Space,keypress(Space),,,,silence,,,,-------------- the -------- -------- ---------- ---- -------<br>-- ---------- -- --- ----- ------ ----- ---- --------- ----<br>------- ------ -------- -- ------ ---------- ------ ---<br>------ -- -- ---- -- ---------- -------- ------ ---- -------<br>---- --- --------- ------- ----- --------- ---- ----- --<br>------ -------- -- ------ -- ---- ------------,259477,259476.09999999963,258962.882,258970.09999999963,258979.545,259494.097,,1,the
screen,html.Screen,2_3_1_0_1_2,2022-04-30T11:18:30.070Z,,,,,,,,,,,,,,,,,19,,,,,,,,,,,,,,543.802999998501,,response,,,,17,E,,,,,,Space,keypress(Space),,,,silence,,,,-------------- --- heaviest -------- ---------- ---- -------<br>-- ---------- -- --- ----- ------ ----- ---- --------- ----<br>------- ------ -------- -- ------ ---------- ------ ---<br>------ -- -- ---- -- ---------- -------- ------ ---- -------<br>---- --- --------- ------- ----- --------- ---- ----- --<br>------ -------- -- ------ -- ---- ------------,260038.69999999925,260037.8999999985,259477.434,259477.19999999925,259494.097,260042.024,,2,heaviest
screen,html.Screen,2_3_1_0_1_3,2022-04-30T11:18:30.654Z,,,,,,,,,,,,,,,,,19,,,,,,,,,,,,,,580.5759999996226,,response,,,,17,E,,,,,,Space,keypress(Space),,,,silence,,,,-------------- --- -------- isotopes ---------- ---- -------<br>-- ---------- -- --- ----- ------ ----- ---- --------- ----<br>------- ------ -------- -- ------ ---------- ------ ---<br>------ -- -- ---- -- ---------- -------- ------ ---- -------<br>---- --- --------- ------- ----- --------- ---- ----- --<br>------ -------- -- ------ -- ---- ------------,260623.29999999888,260622.59999999963,260025.361,260038.79999999888,260042.024,260639.939,,3,isotopes
screen,html.Screen,2_3_1_0_1_4,2022-04-30T11:18:31.499Z,,,,,,,,,,,,,,,,,19,,,,,,,,,,,,,,827.4609999984968,,response,,,,17,E,,,,,,Space,keypress(Space),,,,silence,,,,-------------- --- -------- -------- physicists ---- -------<br>-- ---------- -- --- ----- ------ ----- ---- --------- ----<br>------- ------ -------- -- ------ ---------- ------ ---<br>------ -- -- ---- -- ---------- -------- ------ ---- -------<br>---- --- --------- ------- ----- --------- ---- ----- --<br>------ -------- -- ------ -- ---- ------------,261468.09999999963,261467.3999999985,260623.276,260623.5,260639.939,261469.145,,4,physicists
screen,html.Screen,2_3_1_0_1_5,2022-04-30T11:18:31.953Z,,,,,,,,,,,,,,,,,19,,,,,,,,,,,,,,451.0549999992654,,response,,,,17,E,,,,,,Space,keypress(Space),,,,silence,,,,-------------- --- -------- -------- ---------- have -------<br>-- ---------- -- --- ----- ------ ----- ---- --------- ----<br>------- ------ -------- -- ------ ---------- ------ ---<br>------ -- -- ---- -- ---------- -------- ------ ---- -------<br>---- --- --------- ------- ----- --------- ---- ----- --<br>------ -------- -- ------ -- ---- ------------,261922.5,261920.19999999925,261452.482,261468.29999999888,261469.145,261950.339,,5,have
screen,html.Screen,2_3_1_0_1_6,2022-04-30T11:18:32.388Z,,,,,,,,,,,,,,,,,19,,,,,,,,,,,,,,405.8609999992477,,response,,,,17,E,,,,,,Space,keypress(Space),,,,silence,,,,-------------- --- -------- -------- ---------- ---- managed<br>-- ---------- -- --- ----- ------ ----- ---- --------- ----<br>------- ------ -------- -- ------ ---------- ------ ---<br>------ -- -- ---- -- ---------- -------- ------ ---- -------<br>---- --- --------- ------- ----- --------- ---- ----- --<br>------ -------- -- ------ -- ---- ------------,262357,262356.19999999925,261935.292,261922.69999999925,261950.339,262366.797,,6,managed
screen,html.Screen,2_3_1_0_1_7,2022-04-30T11:18:32.868Z,,,,,,,,,,,,,,,,,19,,,,,,,,,,,,,,469.802999999607,,response,,,,17,E,,,,,,Space,keypress(Space),,,,silence,,,,-------------- --- -------- -------- ---------- ---- -------<br>to ---------- -- --- ----- ------ ----- ---- --------- ----<br>------- ------ -------- -- ------ ---------- ------ ---<br>------ -- -- ---- -- ---------- -------- ------ ---- -------<br>---- --- --------- ------- ----- --------- ---- ----- --<br>------ -------- -- ------ -- ---- ------------,262837.3999999985,262836.5999999996,262350.134,262357.0999999996,262366.797,262848.203,,7,to
screen,html.Screen,2_3_1_0_1_8,2022-04-30T11:18:33.633Z,,,,,,,,,,,,,,,,,19,,,,,,,,,,,,,,753.0969999989029,,response,,,,17,E,,,,,,Space,keypress(Space),,,,silence,,,,-------------- --- -------- -------- ---------- ---- -------<br>-- synthesize -- --- ----- ------ ----- ---- --------- ----<br>------- ------ -------- -- ------ ---------- ------ ---<br>------ -- -- ---- -- ---------- -------- ------ ---- -------<br>---- --- --------- ------- ----- --------- ---- ----- --<br>------ -------- -- ------ -- ---- ------------,263602.3999999985,263601.2999999989,262831.54,262837.5,262848.203,263610.855,,8,synthesize
screen,html.Screen,2_3_1_0_1_9,2022-04-30T11:18:34.105Z,,,,,,,,,,,,,,,,,19,,,,,,,,,,,,,,462.2449999996461,,response,,,,17,E,,,,,,Space,keypress(Space),,,,silence,,,,-------------- --- -------- -------- ---------- ---- -------<br>-- ---------- so --- ----- ------ ----- ---- --------- ----<br>------- ------ -------- -- ------ ---------- ------ ---<br>------ -- -- ---- -- ---------- -------- ------ ---- -------<br>---- --- --------- ------- ----- --------- ---- ----- --<br>------ -------- -- ------ -- ---- ------------,264074,264073.0999999996,263594.192,263602.5,263610.855,264092.121,,9,so
screen,html.Screen,2_3_1_0_1_10,2022-04-30T11:18:34.608Z,,,,,,,,,,,,,,,,,19,,,,,,,,,,,,,,484.1789999988978,,response,,,,17,E,,,,,,Space,keypress(Space),,,,silence,,,,-------------- --- -------- -------- ---------- ---- -------<br>-- ---------- -- far ----- ------ ----- ---- --------- ----<br>------- ------ -------- -- ------ ---------- ------ ---<br>------ -- -- ---- -- ---------- -------- ------ ---- -------<br>---- --- --------- ------- ----- --------- ---- ----- --<br>------ -------- -- ------ -- ---- ------------,264577.19999999925,264576.2999999989,264075.458,264074.0999999996,264092.121,264590.024,,10,far
screen,html.Screen,2_3_1_0_1_11,2022-04-30T11:18:35.039Z,,,,,,,,,,,,,,,,,19,,,,,,,,,,,,,,417.17599999927916,,response,,,,17,E,,,,,,Space,keypress(Space),,,,silence,,,,-------------- --- -------- -------- ---------- ---- -------<br>-- ---------- -- --- don't ------ ----- ---- --------- ----<br>------- ------ -------- -- ------ ---------- ------ ---<br>------ -- -- ---- -- ---------- -------- ------ ---- -------<br>---- --- --------- ------- ----- --------- ---- ----- --<br>------ -------- -- ------ -- ---- ------------,265008.0999999996,265007.19999999925,264575.055,264577.2999999989,264590.024,265023.083,,11,don't
screen,html.Screen,2_3_1_0_1_12,2022-04-30T11:18:35.396Z,,,,,,,,,,,,,,,,,19,,,,,,,,,,,,,,340.71699999889825,,response,,,,17,E,,,,,,Space,keypress(Space),,,,silence,,,,-------------- --- -------- -------- ---------- ---- -------<br>-- ---------- -- --- ----- behave ----- ---- --------- ----<br>------- ------ -------- -- ------ ---------- ------ ---<br>------ -- -- ---- -- ---------- -------- ------ ---- -------<br>---- --- --------- ------- ----- --------- ---- ----- --<br>------ -------- -- ------ -- ---- ------------,265364.69999999925,265363.7999999989,265006.42,265008.19999999925,265023.083,265371.218,,12,behave
screen,html.Screen,2_3_1_0_1_13,2022-04-30T11:18:35.754Z,,,,,,,,,,,,,,,,,19,,,,,,,,,,,,,,351.48199999926146,,response,,,,17,E,,,,,,Space,keypress(Space),,,,silence,,,,-------------- --- -------- -------- ---------- ---- -------<br>-- ---------- -- --- ----- ------ quite ---- --------- ----<br>------- ------ -------- -- ------ ---------- ------ ---<br>------ -- -- ---- -- ---------- -------- ------ ---- -------<br>---- --- --------- ------- ----- --------- ---- ----- --<br>------ -------- -- ------ -- ---- ------------,265723.5999999996,265722.69999999925,265354.555,265364.7999999989,265371.218,265735.78,,13,quite
screen,html.Screen,2_3_1_0_1_14,2022-04-30T11:18:36.175Z,,,,,,,,,,,,,,,,,19,,,,,,,,,,,,,,407.11999999848194,,response,,,,17,E,,,,,,Space,keypress(Space),,,,silence,,,,-------------- --- -------- -------- ---------- ---- -------<br>-- ---------- -- --- ----- ------ ----- like --------- ----<br>------- ------ -------- -- ------ ---------- ------ ---<br>------ -- -- ---- -- ---------- -------- ------ ---- -------<br>---- --- --------- ------- ----- --------- ---- ----- --<br>------ -------- -- ------ -- ---- ------------,266143.8999999985,266142.8999999985,265719.117,265723.69999999925,265735.78,266151.897,,14,like
screen,html.Screen,2_3_1_0_1_15,2022-04-30T11:18:36.576Z,,,,,,,,,,,,,,,,,19,,,,,,,,,,,,,,392.1030000000028,,response,,,,17,E,,,,,,Space,keypress(Space),,,,silence,,,,-------------- --- -------- -------- ---------- ---- -------<br>-- ---------- -- --- ----- ------ ----- ---- science's ----<br>------- ------ -------- -- ------ ---------- ------ ---<br>------ -- -- ---- -- ---------- -------- ------ ---- -------<br>---- --- --------- ------- ----- --------- ---- ----- --<br>------ -------- -- ------ -- ---- ------------,266544.8999999985,266544,266135.234,266144,266151.897,266550.295,,15,science's
screen,html.Screen,2_3_1_0_1_16,2022-04-30T11:18:37.088Z,,,,,,,,,,,,,,,,,19,,,,,,,,,,,,,,505.80499999964377,,response,,,,17,E,,,,,,Space,keypress(Space),,,,silence,,,,-------------- --- -------- -------- ---------- ---- -------<br>-- ---------- -- --- ----- ------ ----- ---- --------- best<br>------- ------ -------- -- ------ ---------- ------ ---<br>------ -- -- ---- -- ---------- -------- ------ ---- -------<br>---- --- --------- ------- ----- --------- ---- ----- --<br>------ -------- -- ------ -- ---- ------------,267057,267056.0999999996,266533.632,266545.0999999996,266550.295,267064.943,,16,best
screen,html.Screen,2_3_1_0_1_17,2022-04-30T11:18:37.514Z,,,,,,,,,,,,,,,,,19,,,,,,,,,,,,,,417.356999998854,,response,,,,17,E,,,,,,Space,keypress(Space),,,,silence,,,,-------------- --- -------- -------- ---------- ---- -------<br>-- ---------- -- --- ----- ------ ----- ---- --------- ----<br>current ------ -------- -- ------ ---------- ------ ---<br>------ -- -- ---- -- ---------- -------- ------ ---- -------<br>---- --- --------- ------- ----- --------- ---- ----- --<br>------ -------- -- ------ -- ---- ------------,267483.19999999925,267482.2999999989,267048.28,267057.19999999925,267064.943,267496.204,,17,current
screen,html.Screen,2_3_1_0_1_18,2022-04-30T11:18:38.009Z,,,,,,,,,,,,,,,,,19,,,,,,,,,,,,,,480.5959999988554,,response,,,,17,E,,,,,,Space,keypress(Space),,,,silence,,,,-------------- --- -------- -------- ---------- ---- -------<br>-- ---------- -- --- ----- ------ ----- ---- --------- ----<br>------- models -------- -- ------ ---------- ------ ---<br>------ -- -- ---- -- ---------- -------- ------ ---- -------<br>---- --- --------- ------- ----- --------- ---- ----- --<br>------ -------- -- ------ -- ---- ------------,267978.3999999985,267976.7999999989,267479.541,267483.3999999985,267496.204,267994.007,,18,models
screen,html.Screen,2_3_1_0_1_19,2022-04-30T11:18:38.555Z,,,,,,,,,,,,,,,,,19,,,,,,,,,,,,,,529.3929999985266,,response,,,,17,E,,,,,,Space,keypress(Space),,,,silence,,,,"-------------- --- -------- -------- ---------- ---- -------<br>-- ---------- -- --- ----- ------ ----- ---- --------- ----<br>------- ------ predict, -- ------ ---------- ------ ---<br>------ -- -- ---- -- ---------- -------- ------ ---- -------<br>---- --- --------- ------- ----- --------- ---- ----- --<br>------ -------- -- ------ -- ---- ------------",268524.2999999989,268523.3999999985,267977.344,267978.5,267994.007,268525.36,,19,"predict,"
screen,html.Screen,2_3_1_0_1_20,2022-04-30T11:18:38.962Z,,,,,,,,,,,,,,,,,19,,,,,,,,,,,,,,404.53999999852385,,response,,,,17,E,,,,,,Space,keypress(Space),,,,silence,,,,-------------- --- -------- -------- ---------- ---- -------<br>-- ---------- -- --- ----- ------ ----- ---- --------- ----<br>------- ------ -------- so ------ ---------- ------ ---<br>------ -- -- ---- -- ---------- -------- ------ ---- -------<br>---- --- --------- ------- ----- --------- ---- ----- --<br>------ -------- -- ------ -- ---- ------------,268930.8999999985,268929.8999999985,268508.697,268524.5999999996,268525.36,268939.932,,20,so
screen,html.Screen,2_3_1_0_1_21,2022-04-30T11:18:39.365Z,,,,,,,,,,,,,,,,,19,,,,,,,,,,,,,,393.0680000000284,,response,,,,17,E,,,,,,Space,keypress(Space),,,,silence,,,,-------------- --- -------- -------- ---------- ---- -------<br>-- ---------- -- --- ----- ------ ----- ---- --------- ----<br>------- ------ -------- -- stable ---------- ------ ---<br>------ -- -- ---- -- ---------- -------- ------ ---- -------<br>---- --- --------- ------- ----- --------- ---- ----- --<br>------ -------- -- ------ -- ---- ------------,269334,269333,268923.269,268931.0999999996,268939.932,269339.271,,21,stable
screen,html.Screen,2_3_1_0_1_22,2022-04-30T11:18:40.023Z,,,,,,,,,,,,,,,,,19,,,,,,,,,,,,,,652.128999998502,,response,,,,17,E,,,,,,Space,keypress(Space),,,,silence,,,,-------------- --- -------- -------- ---------- ---- -------<br>-- ---------- -- --- ----- ------ ----- ---- --------- ----<br>------- ------ -------- -- ------ superheavy ------ ---<br>------ -- -- ---- -- ---------- -------- ------ ---- -------<br>---- --- --------- ------- ----- --------- ---- ----- --<br>------ -------- -- ------ -- ---- ------------,269992.19999999925,269991.3999999985,269322.608,269334.0999999996,269339.271,270002.43,,22,superheavy
screen,html.Screen,2_3_1_0_1_23,2022-04-30T11:18:40.779Z,,,,,,,,,,,,,,,,,19,,,,,,,,,,,,,,744.4699999985169,,response,,,,17,E,,,,,,Space,keypress(Space),,,,silence,,,,-------------- --- -------- -------- ---------- ---- -------<br>-- ---------- -- --- ----- ------ ----- ---- --------- ----<br>------- ------ -------- -- ------ ---------- nuclei ---<br>------ -- -- ---- -- ---------- -------- ------ ---- -------<br>---- --- --------- ------- ----- --------- ---- ----- --<br>------ -------- -- ------ -- ---- ------------,270748,270746.8999999985,269985.767,269992.3999999985,270002.43,270750.388,,23,nuclei
screen,html.Screen,2_3_1_0_1_24,2022-04-30T11:18:41.224Z,,,,,,,,,,,,,,,,,19,,,,,,,,,,,,,,441.5119999985327,,response,,,,17,E,,,,,,Space,keypress(Space),,,,silence,,,,-------------- --- -------- -------- ---------- ---- -------<br>-- ---------- -- --- ----- ------ ----- ---- --------- ----<br>------- ------ -------- -- ------ ---------- ------ are<br>------ -- -- ---- -- ---------- -------- ------ ---- -------<br>---- --- --------- ------- ----- --------- ---- ----- --<br>------ -------- -- ------ -- ---- ------------,271192.7999999989,271191.8999999985,270733.725,270748.0999999996,270750.388,271198.262,,24,are
screen,html.Screen,2_3_1_0_1_25,2022-04-30T11:18:41.757Z,,,,,,,,,,,,,,,,,19,,,,,,,,,,,,,,526.8379999996396,,response,,,,17,E,,,,,,Space,keypress(Space),,,,silence,,,,-------------- --- -------- -------- ---------- ---- -------<br>-- ---------- -- --- ----- ------ ----- ---- --------- ----<br>------- ------ -------- -- ------ ---------- ------ ---<br>likely -- -- ---- -- ---------- -------- ------ ---- -------<br>---- --- --------- ------- ----- --------- ---- ----- --<br>------ -------- -- ------ -- ---- ------------,271726.0999999996,271725.0999999996,271181.599,271193,271198.262,271729.518,,25,likely
screen,html.Screen,2_3_1_0_1_26,2022-04-30T11:18:42.301Z,,,,,,,,,,,,,,,,,19,,,,,,,,,,,,,,539.7819999989006,,response,,,,17,E,,,,,,Space,keypress(Space),,,,silence,,,,-------------- --- -------- -------- ---------- ---- -------<br>-- ---------- -- --- ----- ------ ----- ---- --------- ----<br>------- ------ -------- -- ------ ---------- ------ ---<br>------ to -- ---- -- ---------- -------- ------ ---- -------<br>---- --- --------- ------- ----- --------- ---- ----- --<br>------ -------- -- ------ -- ---- ------------,272270.2999999989,272269.2999999989,271712.855,271726.2999999989,271729.518,272277.419,,26,to
screen,html.Screen,2_3_1_0_1_27,2022-04-30T11:18:42.704Z,,,,,,,,,,,,,,,,,19,,,,,,,,,,,,,,394.880999998888,,response,,,,17,E,,,,,,Space,keypress(Space),,,,silence,,,,-------------- --- -------- -------- ---------- ---- -------<br>-- ---------- -- --- ----- ------ ----- ---- --------- ----<br>------- ------ -------- -- ------ ---------- ------ ---<br>------ -- be ---- -- ---------- -------- ------ ---- -------<br>---- --- --------- ------- ----- --------- ---- ----- --<br>------ -------- -- ------ -- ---- ------------,272673.19999999925,272672.2999999989,272260.756,272270.5,272277.419,272675.366,,27,be
screen,html.Screen,2_3_1_0_1_28,2022-04-30T11:18:43.077Z,,,,,,,,,,,,,,,,,19,,,,,,,,,,,,,,370.33399999927497,,response,,,,17,E,,,,,,Space,keypress(Space),,,,silence,,,,-------------- --- -------- -------- ---------- ---- -------<br>-- ---------- -- --- ----- ------ ----- ---- --------- ----<br>------- ------ -------- -- ------ ---------- ------ ---<br>------ -- -- full -- ---------- -------- ------ ---- -------<br>---- --- --------- ------- ----- --------- ---- ----- --<br>------ -------- -- ------ -- ---- ------------,273046.5,273045.69999999925,272658.703,272673.2999999989,272675.366,273057.925,,28,full
screen,html.Screen,2_3_1_0_1_29,2022-04-30T11:18:43.473Z,,,,,,,,,,,,,,,,,19,,,,,,,,,,,,,,383.4749999985215,,response,,,,17,E,,,,,,Space,keypress(Space),,,,silence,,,,-------------- --- -------- -------- ---------- ---- -------<br>-- ---------- -- --- ----- ------ ----- ---- --------- ----<br>------- ------ -------- -- ------ ---------- ------ ---<br>------ -- -- ---- of ---------- -------- ------ ---- -------<br>---- --- --------- ------- ----- --------- ---- ----- --<br>------ -------- -- ------ -- ---- ------------,273442.2999999989,273441.3999999985,273041.262,273046.69999999925,273057.925,273456.431,,29,of
screen,html.Screen,2_3_1_0_1_30,2022-04-30T11:18:44.173Z,,,,,,,,,,,,,,,,,19,,,,,,,,,,,,,,683.0690000000177,,response,,,,17,E,,,,,,Space,keypress(Space),,,,silence,,,,-------------- --- -------- -------- ---------- ---- -------<br>-- ---------- -- --- ----- ------ ----- ---- --------- ----<br>------- ------ -------- -- ------ ---------- ------ ---<br>------ -- -- ---- -- surprises. -------- ------ ---- -------<br>---- --- --------- ------- ----- --------- ---- ----- --<br>------ -------- -- ------ -- ---- ------------,274141.7999999989,274139.5,273439.768,273442.5,273456.431,274169.178,,30,surprises.
screen,html.Screen,2_3_1_0_1_31,2022-04-30T11:18:44.720Z,,,,,,,,,,,,,,,,,19,,,,,,,,,,,,,,519.2219999984954,,response,,,,17,E,,,,,,Space,keypress(Space),,,,silence,,,,-------------- --- -------- -------- ---------- ---- -------<br>-- ---------- -- --- ----- ------ ----- ---- --------- ----<br>------- ------ -------- -- ------ ---------- ------ ---<br>------ -- -- ---- -- ---------- Chemists ------ ---- -------<br>---- --- --------- ------- ----- --------- ---- ----- --<br>------ -------- -- ------ -- ---- ------------,274689.3999999985,274688.3999999985,274152.515,274141.8999999985,274169.178,274700.417,,31,Chemists
screen,html.Screen,2_3_1_0_1_32,2022-04-30T11:18:45.127Z,,,,,,,,,,,,,,,,,19,,,,,,,,,,,,,,394.98299999849405,,response,,,,17,E,,,,,,Space,keypress(Space),,,,silence,,,,-------------- --- -------- -------- ---------- ---- -------<br>-- ---------- -- --- ----- ------ ----- ---- --------- ----<br>------- ------ -------- -- ------ ---------- ------ ---<br>------ -- -- ---- -- ---------- -------- cannot ---- -------<br>---- --- --------- ------- ----- --------- ---- ----- --<br>------ -------- -- ------ -- ---- ------------,275096.2999999989,275095.3999999985,274683.754,274689.5999999996,274700.417,275100.01,,32,cannot
screen,html.Screen,2_3_1_0_1_33,2022-04-30T11:18:45.567Z,,,,,,,,,,,,,,,,,19,,,,,,,,,,,,,,434.4899999999907,,response,,,,17,E,,,,,,Space,keypress(Space),,,,silence,,,,-------------- --- -------- -------- ---------- ---- -------<br>-- ---------- -- --- ----- ------ ----- ---- --------- ----<br>------- ------ -------- -- ------ ---------- ------ ---<br>------ -- -- ---- -- ---------- -------- ------ even -------<br>---- --- --------- ------- ----- --------- ---- ----- --<br>------ -------- -- ------ -- ---- ------------,275536.2999999989,275534.5,275083.347,275096.3999999985,275100.01,275548.265,,33,even
screen,html.Screen,2_3_1_0_1_34,2022-04-30T11:18:46.188Z,,,,,,,,,,,,,,,,,19,,,,,,,,,,,,,,607.5349999988684,,response,,,,17,E,,,,,,Space,keypress(Space),,,,silence,,,,-------------- --- -------- -------- ---------- ---- -------<br>-- ---------- -- --- ----- ------ ----- ---- --------- ----<br>------- ------ -------- -- ------ ---------- ------ ---<br>------ -- -- ---- -- ---------- -------- ------ ---- predict<br>---- --- --------- ------- ----- --------- ---- ----- --<br>------ -------- -- ------ -- ---- ------------,276156.69999999925,276155.7999999989,275531.602,275536.5,275548.265,276162.808,,34,predict
screen,html.Screen,2_3_1_0_1_35,2022-04-30T11:18:46.764Z,,,,,,,,,,,,,,,,,19,,,,,,,,,,,,,,568.7919999996084,,response,,,,17,E,,,,,,Space,keypress(Space),,,,silence,,,,-------------- --- -------- -------- ---------- ---- -------<br>-- ---------- -- --- ----- ------ ----- ---- --------- ----<br>------- ------ -------- -- ------ ---------- ------ ---<br>------ -- -- ---- -- ---------- -------- ------ ---- -------<br>with --- --------- ------- ----- --------- ---- ----- --<br>------ -------- -- ------ -- ---- ------------,276733,276731.5999999996,276146.145,276156.7999999989,276162.808,276743.989,,35,with
screen,html.Screen,2_3_1_0_1_36,2022-04-30T11:18:47.176Z,,,,,,,,,,,,,,,,,19,,,,,,,,,,,,,,400.6109999996261,,response,,,,17,E,,,,,,Space,keypress(Space),,,,silence,,,,-------------- --- -------- -------- ---------- ---- -------<br>-- ---------- -- --- ----- ------ ----- ---- --------- ----<br>------- ------ -------- -- ------ ---------- ------ ---<br>------ -- -- ---- -- ---------- -------- ------ ---- -------<br>---- any --------- ------- ----- --------- ---- ----- --<br>------ -------- -- ------ -- ---- ------------,277145.3999999985,277144.5999999996,276727.326,276733.19999999925,276743.989,277158.612,,36,any
screen,html.Screen,2_3_1_0_1_37,2022-04-30T11:18:47.700Z,,,,,,,,,,,,,,,,,19,,,,,,,,,,,,,,509.48799999960465,,response,,,,17,E,,,,,,Space,keypress(Space),,,,silence,,,,-------------- --- -------- -------- ---------- ---- -------<br>-- ---------- -- --- ----- ------ ----- ---- --------- ----<br>------- ------ -------- -- ------ ---------- ------ ---<br>------ -- -- ---- -- ---------- -------- ------ ---- -------<br>---- --- certainty ------- ----- --------- ---- ----- --<br>------ -------- -- ------ -- ---- ------------,277669,277668.0999999996,277141.949,277145.5999999996,277158.612,277673.316,,37,certainty
screen,html.Screen,2_3_1_0_1_38,2022-04-30T11:18:48.199Z,,,,,,,,,,,,,,,,,19,,,,,,,,,,,,,,494.08399999851827,,response,,,,17,E,,,,,,Space,keypress(Space),,,,silence,,,,-------------- --- -------- -------- ---------- ---- -------<br>-- ---------- -- --- ----- ------ ----- ---- --------- ----<br>------- ------ -------- -- ------ ---------- ------ ---<br>------ -- -- ---- -- ---------- -------- ------ ---- -------<br>---- --- --------- whether ----- --------- ---- ----- --<br>------ -------- -- ------ -- ---- ------------,278168.2999999989,278167.3999999985,277656.653,277669.0999999996,277673.316,278171.172,,38,whether
