sender,sender_type,sender_id,timestamp,meta,,Blues,Classical,Country,Dance,Electronic,Folk,Gospel,Hip-Hop,Jazz,Latin,Musical/Film,New-age,Pop,Prolific_id,Provo_ID,R&B,Rap,Reggae,Religious,Rock,Soul,Swing,Traditional,age,artist_name,correct,correctResponse,distraction,duration,education,ended_on,familiarity,gender,headphone_check_performance,item,list,music_frequency,offensiveness,pleasantness,position_correct,preference,response,response_action,snippet_file,song_name,song_rating,sound,stimulus_1,stimulus_2,stimulus_3,text,time_commit,time_end,time_render,time_run,time_show,time_switch,url,word,word_ID
Prolific ID,html.Form,0,2022-05-02T13:49:47.773Z,"{""labjs_version"":""20.2.2"",""labjs_build"":{""flavor"":""production"",""commit"":""a25486e0c714a0ae2ce03ff94b7bb6896854dcfa""},""location"":""https://run.pavlovia.org/mvasilev/prolific3_music_g/"",""userAgent"":""Mozilla/5.0 (Windows NT 10.0; Win64; x64) AppleWebKit/537.36 (KHTML, like Gecko) Chrome/100.0.4896.127 Safari/537.36"",""platform"":""Win32"",""language"":""en-US"",""locale"":""en-US"",""timeZone"":""Europe/London"",""timezoneOffset"":-60,""screen_width"":1366,""screen_height"":768,""scroll_width"":1821,""scroll_height"":828,""window_innerWidth"":1821,""window_innerHeight"":876,""devicePixelRatio"":0.75}",,,,,,,,,,,,,,,5e7fa0e918b10804bb87eb63,,,,,,,,,,,,,,,8764.936999952315,,form submission,,,,,,,,,,,,,,,,,,,,,33179,33178.299999952316,24363.168,24367.199999809265,24413.363,33184.023,{},,
Introduction,html.Screen,1_0,2022-05-02T13:50:17.531Z,,,,,,,,,,,,,,,,,,,,,,,,,,,,,,,29744.477,,response,,,,,,,,,,,continue,click button,,,,,,,,,62933.39999985695,62928.5,33167.437,33179.5,33184.023,62947.524,,,
Volume calibration,html.Screen,1_1,2022-05-02T13:50:45.899Z,,,,,,,,,,,,,,,,,,,,,,,,,,,,,,,28348.77599995232,,response,,,,,,,,,,,continue,click button,,,,,,,,,91301.19999980927,91296.29999995232,62930.854,62933.799999952316,62947.524,91310.343,,,
Task instructions,html.Screen,1_2,2022-05-02T13:50:52.896Z,,,,,,,,,,,,,,,,,,,,,,,,,,,,,,,6986.1570000000065,,response,,,,,,,,,,,continue,click button,,,,,,,,,98297.69999980927,98296.5,91293.657,91301.29999995232,91310.343,98313.492,,,
Sounds,html.Screen,1_3_0_0,2022-05-02T13:50:57.149Z,,,,,,,,,,,,,,,,,,,,,,,,,,,,,,,4251.903999999995,,timeout,,,,,,,,,1,,,,,,,,S,I,O,,102551.5,102548.727,98296.9,98298.09999990463,98313.492,102565.396,,,
Judgement,html.Screen,1_3_0_1,2022-05-02T13:50:58.519Z,,,,,,,,,,,,,,,,,,,,,,,,,,,,true,1,,1354.903999952323,,response,,,,,,,,,1,,1,click #choice-1,,,,,S,I,O,,103921.39999985695,103920.29999995232,102548.727,102551.69999980927,102565.396,103949.345,,,
Trial,flow.Sequence,1_3_0,2022-05-02T13:50:58.520Z,,,,,,,,,,,,,,,,,,,,,,,,,,,,,,,5606.807999952318,,completion,,,,,,,,,1,,,,,,,,S,I,O,,103921.69999980927,103920.29999995232,98296.9,98298.09999990463,98313.492,103949.345,,,
Sounds,html.Screen,1_3_1_0,2022-05-02T13:51:02.784Z,,,,,,,,,,,,,,,,,,,,,,,,,,,,,,,4251.909,,timeout,,,,,,,,,3,,,,,,,,I,O,S,,108185.79999995232,108184.583,103932.682,103921.89999985695,103949.345,108201.254,,,
Judgement,html.Screen,1_3_1_1,2022-05-02T13:51:05.447Z,,,,,,,,,,,,,,,,,,,,,,,,,,,,true,3,,2647.0459999523155,,response,,,,,,,,,3,,3,click #choice-3,,,,,I,O,S,,110849.39999985695,110848.29999995232,108184.583,108186.09999990463,108201.254,110869.128,,,
Trial,flow.Sequence,1_3_1,2022-05-02T13:51:05.448Z,,,,,,,,,,,,,,,,,,,,,,,,,,,,,,,6898.954999952315,,completion,,,,,,,,,3,,,,,,,,I,O,S,,110849.69999980927,110848.29999995232,103932.682,103921.79999995232,103949.345,110869.128,,,
Sounds,html.Screen,1_3_2_0,2022-05-02T13:51:09.704Z,,,,,,,,,,,,,,,,,,,,,,,,,,,,,,,4251.964000000007,,timeout,,,,,,,,,2,,,,,,,,I,S,O,,115105.69999980927,115104.483,110852.462,110850,110869.128,115121.092,,,
Judgement,html.Screen,1_3_2_1,2022-05-02T13:51:10.783Z,,,,,,,,,,,,,,,,,,,,,,,,,,,,true,2,,1063.3079998569447,,response,,,,,,,,,2,,2,click #choice-2,,,,,I,S,O,,116185.29999995232,116184.39999985695,115104.483,115105.89999985695,115121.092,116188.185,,,
Trial,flow.Sequence,1_3_2,2022-05-02T13:51:10.784Z,,,,,,,,,,,,,,,,,,,,,,,,,,,,,,,5315.271999856952,,completion,,,,,,,,,2,,,,,,,,I,S,O,,116185.59999990463,116184.39999985695,110852.462,110849.89999985695,110869.128,116188.185,,,
Sounds,html.Screen,1_3_3_0,2022-05-02T13:51:15.022Z,,,,,,,,,,,,,,,,,,,,,,,,,,,,,,,4251.942999999999,,timeout,,,,,,,,,1,,,,,,,,S,O,I,,120424.19999980927,120423.485,116171.618,116185.79999995232,116188.185,120440.128,,,
Judgement,html.Screen,1_3_3_1,2022-05-02T13:51:15.743Z,,,,,,,,,,,,,,,,,,,,,,,,,,,,true,1,,704.1719999523193,,response,,,,,,,,,1,,1,click #choice-1,,,,,S,O,I,,121145.29999995232,121144.29999995232,120423.485,120424.29999995232,120440.128,121157.078,,,
Trial,flow.Sequence,1_3_3,2022-05-02T13:51:15.743Z,,,,,,,,,,,,,,,,,,,,,,,,,,,,,,,4956.114999952319,,completion,,,,,,,,,1,,,,,,,,S,O,I,,121145.5,121144.29999995232,116171.618,116185.69999980927,116188.185,121157.078,,,
Sounds,html.Screen,1_3_4_0,2022-05-02T13:51:19.991Z,,,,,,,,,,,,,,,,,,,,,,,,,,,,,,,4251.919000000009,,timeout,,,,,,,,,3,,,,,,,,O,I,S,,125393,125392.326,121140.493,121145.59999990463,121157.078,125408.997,,,
Judgement,html.Screen,1_3_4_1,2022-05-02T13:51:21.135Z,,,,,,,,,,,,,,,,,,,,,,,,,,,,true,3,,1127.3029999523133,,response,,,,,,,,,3,,3,click #choice-3,,,,,O,I,S,,126537.09999990463,126536.29999995232,125392.326,125393.09999990463,125408.997,126542.765,,,
Trial,flow.Sequence,1_3_4,2022-05-02T13:51:21.135Z,,,,,,,,,,,,,,,,,,,,,,,,,,,,,,,5379.221999952322,,completion,,,,,,,,,3,,,,,,,,O,I,S,,126537.29999995232,126536.29999995232,121140.493,121145.59999990463,121157.078,126542.765,,,
Sounds,html.Screen,1_3_5_0,2022-05-02T13:51:25.377Z,,,,,,,,,,,,,,,,,,,,,,,,,,,,,,,4252.006999999998,,timeout,,,,,,,,,2,,,,,,,,O,S,I,,130778.89999985695,130777.999,126526.195,126537.5,126542.765,130794.772,,,
Judgement,html.Screen,1_3_5_1,2022-05-02T13:51:26.047Z,,,,,,,,,,,,,,,,,,,,,,,,,,,,true,2,,653.4279998092679,,response,,,,,,,,,2,,2,click #choice-2,,,,,O,S,I,,131449.09999990463,131448.19999980927,130777.999,130779,130794.772,131461.618,,,
Trial,flow.Sequence,1_3_5,2022-05-02T13:51:26.047Z,,,,,,,,,,,,,,,,,,,,,,,,,,,,,,,4905.434999809266,,completion,,,,,,,,,2,,,,,,,,O,S,I,,131449.29999995232,131448.19999980927,126526.195,126537.39999985695,126542.765,131461.618,,,
Task,flow.Loop,1_3,2022-05-02T13:51:26.052Z,,,,,,,,,,,,,,,,,,,,,,,,,,,,,,,33134.70799980927,,completion,,,1,,,,,,,,,,,,,,,,,,131454.5,131448.19999980927,98296.9,98298,98313.492,131461.618,,,
Trap,html.Screen,1_4,2022-05-02T13:51:26.054Z,,,,,,,,,,,,,,,,,,,,,,,,,,,,,,,NaN,,skipped,,,,,,,,,,,,,,,,,,,,,131455.79999995232,131448.19999980927,,131455.59999990463,,131461.618,,,
Thanks,html.Screen,1_5,2022-05-02T13:51:29.583Z,,,,,,,,,,,,,,,,,,,,,,,,,,,,,,,3522.781999856961,,response,,,,,,,,,,,continue,click button,,,,,,,,,134985.29999995232,134984.39999985695,131445.001,131455.89999985695,131461.618,142916.704,,,
Headphone screening,flow.Sequence,1,2022-05-02T13:51:29.583Z,,,,,,,,,,,,,,,,,,,,,,,,,,,,,,,101800.37699985695,,completion,,,,,,,,,,,,,,,,,,,,,134985.5,134984.39999985695,33167.437,33179.39999985695,33184.023,142916.704,,,
Instructions,html.Page,2_0,2022-05-02T13:52:10.087Z,,,,,,,,,,,,,,,,,,,,,,,,,,,,,,,32572.19599985695,,form submission,,,,,,,,,,,,,,,,,,,,,175489.09999990463,175488.89999985695,142900.152,142910.29999995232,142916.704,175514.697,,,
Holding screen,html.Screen,2_1_0_0,2022-05-02T13:52:20.103Z,,,,,,,,,,,,,,,,,,,,,,,,,,,,,,,10004.362000000023,,timeout,,,,,,,,,,,,,,,,,,,,,185506.39999985695,185502.406,175497.961,175489.29999995232,175514.697,185519.059,,,
screen,html.Screen,2_1_0_1_0,2022-05-02T13:52:21.191Z,,,,,,,,,,,,,,,,,53,,,,,,,,,,,,,,1069.1409998092568,,response,,,,99,,,,,,,Space,keypress(Space),,,,,,,,When -- ----- -- ------ - ------- --- ----------<br>------------- ------ ------ ---- ---- ------- ----- -- ----<br>-------- ------- -- ---------- --- - --- ----- ----- ----<br>---- --- --- ----- --- ---- ---- ------- ----- ---- -------<br>--- --- -- ----- -- --- ---- -- --- ---- -- ------ ------<br>--- ----- -- ----,186594.5,186588.19999980927,185502.406,185506.5,185519.059,186602.912,,0,When
screen,html.Screen,2_1_0_1_1,2022-05-02T13:52:21.880Z,,,,,,,,,,,,,,,,,53,,,,,,,,,,,,,,679.787999809254,,response,,,,99,,,,,,,Space,keypress(Space),,,,,,,,---- it ----- -- ------ - ------- --- ----------<br>------------- ------ ------ ---- ---- ------- ----- -- ----<br>-------- ------- -- ---------- --- - --- ----- ----- ----<br>---- --- --- ----- --- ---- ---- ------- ----- ---- -------<br>--- --- -- ----- -- --- ---- -- --- ---- -- ------ ------<br>--- ----- -- ----,187284,187282.69999980927,186586.254,186594.69999980927,186602.912,187286.563,,1,it
screen,html.Screen,2_1_0_1_2,2022-05-02T13:52:22.796Z,,,,,,,,,,,,,,,,,53,,,,,,,,,,,,,,913.0369999046379,,response,,,,99,,,,,,,Space,keypress(Space),,,,,,,,---- -- comes -- ------ - ------- --- ----------<br>------------- ------ ------ ---- ---- ------- ----- -- ----<br>-------- ------- -- ---------- --- - --- ----- ----- ----<br>---- --- --- ----- --- ---- ---- ------- ----- ---- -------<br>--- --- -- ----- -- --- ---- -- --- ---- -- ------ ------<br>--- ----- -- ----,188200.29999995232,188199.59999990463,187269.88,187284.19999980927,187286.563,188203.597,,2,comes
screen,html.Screen,2_1_0_1_3,2022-05-02T13:52:23.460Z,,,,,,,,,,,,,,,,,53,,,,,,,,,,,,,,659.0029999046237,,response,,,,99,,,,,,,Space,keypress(Space),,,,,,,,---- -- ----- to ------ - ------- --- ----------<br>------------- ------ ------ ---- ---- ------- ----- -- ----<br>-------- ------- -- ---------- --- - --- ----- ----- ----<br>---- --- --- ----- --- ---- ---- ------- ----- ---- -------<br>--- --- -- ----- -- --- ---- -- --- ---- -- ------ ------<br>--- ----- -- ----,188863.79999995232,188862.59999990463,188187.009,188200.5,188203.597,188870.572,,3,to
screen,html.Screen,2_1_0_1_4,2022-05-02T13:52:23.983Z,,,,,,,,,,,,,,,,,53,,,,,,,,,,,,,,515.6279998092796,,response,,,,99,,,,,,,Space,keypress(Space),,,,,,,,---- -- ----- -- having - ------- --- ----------<br>------------- ------ ------ ---- ---- ------- ----- -- ----<br>-------- ------- -- ---------- --- - --- ----- ----- ----<br>---- --- --- ----- --- ---- ---- ------- ----- ---- -------<br>--- --- -- ----- -- --- ---- -- --- ---- -- ------ ------<br>--- ----- -- ----,189386.79999995232,189386.19999980927,188854.003,188864.09999990463,188870.572,189410.955,,4,having
screen,html.Screen,2_1_0_1_5,2022-05-02T13:52:24.504Z,,,,,,,,,,,,,,,,,53,,,,,,,,,,,,,,495.94499985696166,,response,,,,99,,,,,,,Space,keypress(Space),,,,,,,,---- -- ----- -- ------ a ------- --- ----------<br>------------- ------ ------ ---- ---- ------- ----- -- ----<br>-------- ------- -- ---------- --- - --- ----- ----- ----<br>---- --- --- ----- --- ---- ---- ------- ----- ---- -------<br>--- --- -- ----- -- --- ---- -- --- ---- -- ------ ------<br>--- ----- -- ----,189908,189906.89999985695,189370.802,189386.89999985695,189410.955,189921.209,,5,a
screen,html.Screen,2_1_0_1_6,2022-05-02T13:52:25.016Z,,,,,,,,,,,,,,,,,53,,,,,,,,,,,,,,497.5909999523137,,response,,,,99,,,,,,,Space,keypress(Space),,,,,,,,---- -- ----- -- ------ - lasting --- ----------<br>------------- ------ ------ ---- ---- ------- ----- -- ----<br>-------- ------- -- ---------- --- - --- ----- ----- ----<br>---- --- --- ----- --- ---- ---- ------- ----- ---- -------<br>--- --- -- ----- -- --- ---- -- --- ---- -- ------ ------<br>--- ----- -- ----,190419.39999985695,190418.79999995232,189904.358,189908.19999980927,189921.209,190421.228,,6,lasting
screen,html.Screen,2_1_0_1_7,2022-05-02T13:52:25.490Z,,,,,,,,,,,,,,,,,53,,,,,,,,,,,,,,470.8719999046298,,response,,,,99,,,,,,,Space,keypress(Space),,,,,,,,---- -- ----- -- ------ - ------- and ----------<br>------------- ------ ------ ---- ---- ------- ----- -- ----<br>-------- ------- -- ---------- --- - --- ----- ----- ----<br>---- --- --- ----- --- ---- ---- ------- ----- ---- -------<br>--- --- -- ----- -- --- ---- -- --- ---- -- ------ ------<br>--- ----- -- ----,190893.5,190892.09999990463,190404.603,190419.5,190421.228,190904.987,,7,and
screen,html.Screen,2_1_0_1_8,2022-05-02T13:52:25.989Z,,,,,,,,,,,,,,,,,53,,,,,,,,,,,,,,487.2129998092714,,response,,,,99,,,,,,,Space,keypress(Space),,,,,,,,---- -- ----- -- ------ - ------- --- fulfilling<br>------------- ------ ------ ---- ---- ------- ----- -- ----<br>-------- ------- -- ---------- --- - --- ----- ----- ----<br>---- --- --- ----- --- ---- ---- ------- ----- ---- -------<br>--- --- -- ----- -- --- ---- -- --- ---- -- ------ ------<br>--- ----- -- ----,191392.69999980927,191392.19999980927,190888.166,190893.69999980927,190904.987,191405.163,,8,fulfilling
screen,html.Screen,2_1_0_1_9,2022-05-02T13:52:26.583Z,,,,,,,,,,,,,,,,,53,,,,,,,,,,,,,,580.7369998569484,,response,,,,99,,,,,,,Space,keypress(Space),,,,,,,,"---- -- ----- -- ------ - ------- --- ----------<br>relationship, ------ ------ ---- ---- ------- ----- -- ----<br>-------- ------- -- ---------- --- - --- ----- ----- ----<br>---- --- --- ----- --- ---- ---- ------- ----- ---- -------<br>--- --- -- ----- -- --- ---- -- --- ---- -- ------ ------<br>--- ----- -- ----",191987.09999990463,191985.89999985695,191388.4,191392.79999995232,191405.163,192007.335,,9,"relationship,"
screen,html.Screen,2_1_0_1_10,2022-05-02T13:52:27.124Z,,,,,,,,,,,,,,,,,53,,,,,,,,,,,,,,519.8649998092733,,response,,,,99,,,,,,,Space,keypress(Space),,,,,,,,---- -- ----- -- ------ - ------- --- ----------<br>------------- common ------ ---- ---- ------- ----- -- ----<br>-------- ------- -- ---------- --- - --- ----- ----- ----<br>---- --- --- ----- --- ---- ---- ------- ----- ---- -------<br>--- --- -- ----- -- --- ---- -- --- ---- -- ------ ------<br>--- ----- -- ----,192528.09999990463,192527.19999980927,191972.015,191987.39999985695,192007.335,192539.041,,10,common
screen,html.Screen,2_1_0_1_11,2022-05-02T13:52:27.609Z,,,,,,,,,,,,,,,,,53,,,,,,,,,,,,,,472.6589998092677,,response,,,,99,,,,,,,Space,keypress(Space),,,,,,,,---- -- ----- -- ------ - ------- --- ----------<br>------------- ------ wisdom ---- ---- ------- ----- -- ----<br>-------- ------- -- ---------- --- - --- ----- ----- ----<br>---- --- --- ----- --- ---- ---- ------- ----- ---- -------<br>--- --- -- ----- -- --- ---- -- --- ---- -- ------ ------<br>--- ----- -- ----,193012.5,193011.69999980927,192522.223,192528.29999995232,192539.041,193022.519,,11,wisdom
screen,html.Screen,2_1_0_1_12,2022-05-02T13:52:28.052Z,,,,,,,,,,,,,,,,,53,,,,,,,,,,,,,,432.6809998092649,,response,,,,99,,,,,,,Space,keypress(Space),,,,,,,,---- -- ----- -- ------ - ------- --- ----------<br>------------- ------ ------ says ---- ------- ----- -- ----<br>-------- ------- -- ---------- --- - --- ----- ----- ----<br>---- --- --- ----- --- ---- ---- ------- ----- ---- -------<br>--- --- -- ----- -- --- ---- -- --- ---- -- ------ ------<br>--- ----- -- ----,193455.89999985695,193455.19999980927,193005.803,193012.69999980927,193022.519,193472.751,,12,says
screen,html.Screen,2_1_0_1_13,2022-05-02T13:52:28.490Z,,,,,,,,,,,,,,,,,53,,,,,,,,,,,,,,420.14899985695956,,response,,,,99,,,,,,,Space,keypress(Space),,,,,,,,---- -- ----- -- ------ - ------- --- ----------<br>------------- ------ ------ ---- that ------- ----- -- ----<br>-------- ------- -- ---------- --- - --- ----- ----- ----<br>---- --- --- ----- --- ---- ---- ------- ----- ---- -------<br>--- --- -- ----- -- --- ---- -- --- ---- -- ------ ------<br>--- ----- -- ----,193894.19999980927,193892.89999985695,193455.988,193456,193472.751,193906.206,,13,that
screen,html.Screen,2_1_0_1_14,2022-05-02T13:52:28.916Z,,,,,,,,,,,,,,,,,53,,,,,,,,,,,,,,412.7939999999944,,response,,,,99,,,,,,,Space,keypress(Space),,,,,,,,---- -- ----- -- ------ - ------- --- ----------<br>------------- ------ ------ ---- ---- feeling ----- -- ----<br>-------- ------- -- ---------- --- - --- ----- ----- ----<br>---- --- --- ----- --- ---- ---- ------- ----- ---- -------<br>--- --- -- ----- -- --- ---- -- --- ---- -- ------ ------<br>--- ----- -- ----,194320.29999995232,194319,193889.544,193894.5,193906.206,194323,,14,feeling
screen,html.Screen,2_1_0_1_15,2022-05-02T13:52:29.364Z,,,,,,,,,,,,,,,,,53,,,,,,,,,,,,,,444,,response,,,,99,,,,,,,Space,keypress(Space),,,,,,,,---- -- ----- -- ------ - ------- --- ----------<br>------------- ------ ------ ---- ---- ------- close -- ----<br>-------- ------- -- ---------- --- - --- ----- ----- ----<br>---- --- --- ----- --- ---- ---- ------- ----- ---- -------<br>--- --- -- ----- -- --- ---- -- --- ---- -- ------ ------<br>--- ----- -- ----,194768.29999995232,194767,194306.33,194320.59999990463,194323,194773.277,,15,close
screen,html.Screen,2_1_0_1_16,2022-05-02T13:52:29.806Z,,,,,,,,,,,,,,,,,53,,,,,,,,,,,,,,432.122999856947,,response,,,,99,,,,,,,Space,keypress(Space),,,,,,,,---- -- ----- -- ------ - ------- --- ----------<br>------------- ------ ------ ---- ---- ------- ----- to ----<br>-------- ------- -- ---------- --- - --- ----- ----- ----<br>---- --- --- ----- --- ---- ---- ------- ----- ---- -------<br>--- --- -- ----- -- --- ---- -- --- ---- -- ------ ------<br>--- ----- -- ----,195209.39999985695,195205.39999985695,194756.586,194768.5,194773.277,195223.499,,16,to
screen,html.Screen,2_1_0_1_17,2022-05-02T13:52:30.233Z,,,,,,,,,,,,,,,,,53,,,,,,,,,,,,,,412.2009998092544,,response,,,,99,,,,,,,Space,keypress(Space),,,,,,,,---- -- ----- -- ------ - ------- --- ----------<br>------------- ------ ------ ---- ---- ------- ----- -- your<br>-------- ------- -- ---------- --- - --- ----- ----- ----<br>---- --- --- ----- --- ---- ---- ------- ----- ---- -------<br>--- --- -- ----- -- --- ---- -- --- ---- -- ------ ------<br>--- ----- -- ----,195637,195635.69999980927,195206.741,195209.79999995232,195223.499,195640.25,,17,your
screen,html.Screen,2_1_0_1_18,2022-05-02T13:52:30.657Z,,,,,,,,,,,,,,,,,53,,,,,,,,,,,,,,419.0499999523163,,response,,,,99,,,,,,,Space,keypress(Space),,,,,,,,---- -- ----- -- ------ - ------- --- ----------<br>------------- ------ ------ ---- ---- ------- ----- -- ----<br>romantic ------- -- ---------- --- - --- ----- ----- ----<br>---- --- --- ----- --- ---- ---- ------- ----- ---- -------<br>--- --- -- ----- -- --- ---- -- --- ---- -- ------ ------<br>--- ----- -- ----,196060.59999990463,196059.29999995232,195623.629,195637.19999980927,195640.25,196073.811,,18,romantic
screen,html.Screen,2_1_0_1_19,2022-05-02T13:52:31.034Z,,,,,,,,,,,,,,,,,53,,,,,,,,,,,,,,363.3889998092782,,response,,,,99,,,,,,,Space,keypress(Space),,,,,,,,---- -- ----- -- ------ - ------- --- ----------<br>------------- ------ ------ ---- ---- ------- ----- -- ----<br>-------- partner -- ---------- --- - --- ----- ----- ----<br>---- --- --- ----- --- ---- ---- ------- ----- ---- -------<br>--- --- -- ----- -- --- ---- -- --- ---- -- ------ ------<br>--- ----- -- ----,196438,196437.19999980927,196057.115,196060.79999995232,196073.811,196440.546,,19,partner
screen,html.Screen,2_1_0_1_20,2022-05-02T13:52:31.401Z,,,,,,,,,,,,,,,,,53,,,,,,,,,,,,,,363.4539999999979,,response,,,,99,,,,,,,Space,keypress(Space),,,,,,,,---- -- ----- -- ------ - ------- --- ----------<br>------------- ------ ------ ---- ---- ------- ----- -- ----<br>-------- ------- is ---------- --- - --- ----- ----- ----<br>---- --- --- ----- --- ---- ---- ------- ----- ---- -------<br>--- --- -- ----- -- --- ---- -- --- ---- -- ------ ------<br>--- ----- -- ----,196805.19999980927,196804,196423.99,196438,196440.546,196807.5,,20,is
screen,html.Screen,2_1_0_1_21,2022-05-02T13:52:31.772Z,,,,,,,,,,,,,,,,,53,,,,,,,,,,,,,,366.89999985694885,,response,,,,99,,,,,,,Space,keypress(Space),,,,,,,,---- -- ----- -- ------ - ------- --- ----------<br>------------- ------ ------ ---- ---- ------- ----- -- ----<br>-------- ------- -- paramount. --- - --- ----- ----- ----<br>---- --- --- ----- --- ---- ---- ------- ----- ---- -------<br>--- --- -- ----- -- --- ---- -- --- ---- -- ------ ------<br>--- ----- -- ----,197175.39999985695,197174.39999985695,196790.729,196805.39999985695,196807.5,197191.002,,21,paramount.
screen,html.Screen,2_1_0_1_22,2022-05-02T13:52:32.198Z,,,,,,,,,,,,,,,,,53,,,,,,,,,,,,,,410.5979999046249,,response,,,,99,,,,,,,Space,keypress(Space),,,,,,,,---- -- ----- -- ------ - ------- --- ----------<br>------------- ------ ------ ---- ---- ------- ----- -- ----<br>-------- ------- -- ---------- But - --- ----- ----- ----<br>---- --- --- ----- --- ---- ---- ------- ----- ---- -------<br>--- --- -- ----- -- --- ---- -- --- ---- -- ------ ------<br>--- ----- -- ----,197602.19999980927,197601.59999990463,197174.218,197175.69999980927,197191.002,197607.889,,22,But
screen,html.Screen,2_1_0_1_23,2022-05-02T13:52:32.624Z,,,,,,,,,,,,,,,,,53,,,,,,,,,,,,,,418.81099980926956,,response,,,,99,,,,,,,Space,keypress(Space),,,,,,,,---- -- ----- -- ------ - ------- --- ----------<br>------------- ------ ------ ---- ---- ------- ----- -- ----<br>-------- ------- -- ---------- --- a --- ----- ----- ----<br>---- --- --- ----- --- ---- ---- ------- ----- ---- -------<br>--- --- -- ----- -- --- ---- -- --- ---- -- ------ ------<br>--- ----- -- ----,198027.79999995232,198026.69999980927,197591.129,197602.39999985695,197607.889,198041.339,,23,a
screen,html.Screen,2_1_0_1_24,2022-05-02T13:52:32.940Z,,,,,,,,,,,,,,,,,53,,,,,,,,,,,,,,301.6609999999928,,response,,,,99,,,,,,,Space,keypress(Space),,,,,,,,---- -- ----- -- ------ - ------- --- ----------<br>------------- ------ ------ ---- ---- ------- ----- -- ----<br>-------- ------- -- ---------- --- - new ----- ----- ----<br>---- --- --- ----- --- ---- ---- ------- ----- ---- -------<br>--- --- -- ----- -- --- ---- -- --- ---- -- ------ ------<br>--- ----- -- ----,198344.09999990463,198343,198024.664,198028,198041.339,198358.242,,24,new
screen,html.Screen,2_1_0_1_25,2022-05-02T13:52:33.282Z,,,,,,,,,,,,,,,,,53,,,,,,,,,,,,,,326.8579999046342,,response,,,,99,,,,,,,Space,keypress(Space),,,,,,,,---- -- ----- -- ------ - ------- --- ----------<br>------------- ------ ------ ---- ---- ------- ----- -- ----<br>-------- ------- -- ---------- --- - --- study ----- ----<br>---- --- --- ----- --- ---- ---- ------- ----- ---- -------<br>--- --- -- ----- -- --- ---- -- --- ---- -- ------ ------<br>--- ----- -- ----,198685.69999980927,198685.09999990463,198341.449,198344.39999985695,198358.242,198691.657,,25,study
screen,html.Screen,2_1_0_1_26,2022-05-02T13:52:33.628Z,,,,,,,,,,,,,,,,,53,,,,,,,,,,,,,,338.64299995230976,,response,,,,99,,,,,,,Space,keypress(Space),,,,,,,,---- -- ----- -- ------ - ------- --- ----------<br>------------- ------ ------ ---- ---- ------- ----- -- ----<br>-------- ------- -- ---------- --- - --- ----- finds ----<br>---- --- --- ----- --- ---- ---- ------- ----- ---- -------<br>--- --- -- ----- -- --- ---- -- --- ---- -- ------ ------<br>--- ----- -- ----,199031.5,199030.29999995232,198674.958,198685.79999995232,198691.657,199041.915,,26,finds
screen,html.Screen,2_1_0_1_27,2022-05-02T13:52:33.997Z,,,,,,,,,,,,,,,,,53,,,,,,,,,,,,,,357.88499995230814,,response,,,,99,,,,,,,Space,keypress(Space),,,,,,,,---- -- ----- -- ------ - ------- --- ----------<br>------------- ------ ------ ---- ---- ------- ----- -- ----<br>-------- ------- -- ---------- --- - --- ----- ----- that<br>---- --- --- ----- --- ---- ---- ------- ----- ---- -------<br>--- --- -- ----- -- --- ---- -- --- ---- -- ------ ------<br>--- ----- -- ----,199400.5,199399.79999995232,199025.089,199031.79999995232,199041.915,199408.695,,27,that
screen,html.Screen,2_1_0_1_28,2022-05-02T13:52:34.371Z,,,,,,,,,,,,,,,,,53,,,,,,,,,,,,,,364.804999999993,,response,,,,99,,,,,,,Space,keypress(Space),,,,,,,,---- -- ----- -- ------ - ------- --- ----------<br>------------- ------ ------ ---- ---- ------- ----- -- ----<br>-------- ------- -- ---------- --- - --- ----- ----- ----<br>it's --- --- ----- --- ---- ---- ------- ----- ---- -------<br>--- --- -- ----- -- --- ---- -- --- ---- -- ------ ------<br>--- ----- -- ----,199774.59999990463,199773.5,199391.912,199400.59999990463,199408.695,199808.931,,28,it's
screen,html.Screen,2_1_0_1_29,2022-05-02T13:52:34.683Z,,,,,,,,,,,,,,,,,53,,,,,,,,,,,,,,276.7689998092537,,response,,,,99,,,,,,,Space,keypress(Space),,,,,,,,---- -- ----- -- ------ - ------- --- ----------<br>------------- ------ ------ ---- ---- ------- ----- -- ----<br>-------- ------- -- ---------- --- - --- ----- ----- ----<br>---- not --- ----- --- ---- ---- ------- ----- ---- -------<br>--- --- -- ----- -- --- ---- -- --- ---- -- ------ ------<br>--- ----- -- ----,200086.89999985695,200085.69999980927,199792.146,199774.79999995232,199808.931,200092.222,,29,not
screen,html.Screen,2_1_0_1_30,2022-05-02T13:52:35.017Z,,,,,,,,,,,,,,,,,53,,,,,,,,,,,,,,328.17799985694,,response,,,,99,,,,,,,Space,keypress(Space),,,,,,,,---- -- ----- -- ------ - ------- --- ----------<br>------------- ------ ------ ---- ---- ------- ----- -- ----<br>-------- ------- -- ---------- --- - --- ----- ----- ----<br>---- --- how ----- --- ---- ---- ------- ----- ---- -------<br>--- --- -- ----- -- --- ---- -- --- ---- -- ------ ------<br>--- ----- -- ----,200420.89999985695,200420.39999985695,200075.617,200087.09999990463,200092.222,200425.642,,30,how
screen,html.Screen,2_1_0_1_31,2022-05-02T13:52:35.356Z,,,,,,,,,,,,,,,,,53,,,,,,,,,,,,,,333.2579998569563,,response,,,,99,,,,,,,Space,keypress(Space),,,,,,,,---- -- ----- -- ------ - ------- --- ----------<br>------------- ------ ------ ---- ---- ------- ----- -- ----<br>-------- ------- -- ---------- --- - --- ----- ----- ----<br>---- --- --- close --- ---- ---- ------- ----- ---- -------<br>--- --- -- ----- -- --- ---- -- --- ---- -- ------ ------<br>--- ----- -- ----,200759.39999985695,200758.89999985695,200409.058,200421,200425.642,200775.925,,31,close
screen,html.Screen,2_1_0_1_32,2022-05-02T13:52:35.705Z,,,,,,,,,,,,,,,,,53,,,,,,,,,,,,,,332.07500000001164,,response,,,,99,,,,,,,Space,keypress(Space),,,,,,,,---- -- ----- -- ------ - ------- --- ----------<br>------------- ------ ------ ---- ---- ------- ----- -- ----<br>-------- ------- -- ---------- --- - --- ----- ----- ----<br>---- --- --- ----- you ---- ---- ------- ----- ---- -------<br>--- --- -- ----- -- --- ---- -- --- ---- -- ------ ------<br>--- ----- -- ----,201109.09999990463,201108,200759.252,200759.39999985695,200775.925,201126.055,,32,you
screen,html.Screen,2_1_0_1_33,2022-05-02T13:52:36.051Z,,,,,,,,,,,,,,,,,53,,,,,,,,,,,,,,328.24499995232327,,response,,,,99,,,,,,,Space,keypress(Space),,,,,,,,---- -- ----- -- ------ - ------- --- ----------<br>------------- ------ ------ ---- ---- ------- ----- -- ----<br>-------- ------- -- ---------- --- - --- ----- ----- ----<br>---- --- --- ----- --- feel ---- ------- ----- ---- -------<br>--- --- -- ----- -- --- ---- -- --- ---- -- ------ ------<br>--- ----- -- ----,201455.09999990463,201454.29999995232,201109.355,201109.39999985695,201126.055,201459.466,,33,feel
screen,html.Screen,2_1_0_1_34,2022-05-02T13:52:36.395Z,,,,,,,,,,,,,,,,,53,,,,,,,,,,,,,,338.43399985696306,,response,,,,99,,,,,,,Space,keypress(Space),,,,,,,,---- -- ----- -- ------ - ------- --- ----------<br>------------- ------ ------ ---- ---- ------- ----- -- ----<br>-------- ------- -- ---------- --- - --- ----- ----- ----<br>---- --- --- ----- --- ---- that ------- ----- ---- -------<br>--- --- -- ----- -- --- ---- -- --- ---- -- ------ ------<br>--- ----- -- ----,201798.79999995232,201797.89999985695,201442.767,201455.09999990463,201459.466,201809.684,,34,that
screen,html.Screen,2_1_0_1_35,2022-05-02T13:52:36.705Z,,,,,,,,,,,,,,,,,53,,,,,,,,,,,,,,297.8159999999916,,response,,,,99,,,,,,,Space,keypress(Space),,,,,,,,---- -- ----- -- ------ - ------- --- ----------<br>------------- ------ ------ ---- ---- ------- ----- -- ----<br>-------- ------- -- ---------- --- - --- ----- ----- ----<br>---- --- --- ----- --- ---- ---- matters ----- ---- -------<br>--- --- -- ----- -- --- ---- -- --- ---- -- ------ ------<br>--- ----- -- ----,202108.59999990463,202107.5,201792.938,201799.09999990463,201809.684,202143.211,,35,matters
screen,html.Screen,2_1_0_1_36,2022-05-02T13:52:37.084Z,,,,,,,,,,,,,,,,,53,,,,,,,,,,,,,,343.8889999046223,,response,,,,99,,,,,,,Space,keypress(Space),,,,,,,,"---- -- ----- -- ------ - ------- --- ----------<br>------------- ------ ------ ---- ---- ------- ----- -- ----<br>-------- ------- -- ---------- --- - --- ----- ----- ----<br>---- --- --- ----- --- ---- ---- ------- most, ---- -------<br>--- --- -- ----- -- --- ---- -- --- ---- -- ------ ------<br>--- ----- -- ----",202488.09999990463,202487.09999990463,202126.515,202108.89999985695,202143.211,202493.295,,36,"most,"
screen,html.Screen,2_1_0_1_37,2022-05-02T13:52:37.450Z,,,,,,,,,,,,,,,,,53,,,,,,,,,,,,,,359.60499985693605,,response,,,,99,,,,,,,Space,keypress(Space),,,,,,,,---- -- ----- -- ------ - ------- --- ----------<br>------------- ------ ------ ---- ---- ------- ----- -- ----<br>-------- ------- -- ---------- --- - --- ----- ----- ----<br>---- --- --- ----- --- ---- ---- ------- ----- it's -------<br>--- --- -- ----- -- --- ---- -- --- ---- -- ------ ------<br>--- ----- -- ----,202854.19999980927,202852.89999985695,202476.665,202488.29999995232,202493.295,202860.065,,37,it's
screen,html.Screen,2_1_0_1_38,2022-05-02T13:52:37.766Z,,,,,,,,,,,,,,,,,53,,,,,,,,,,,,,,308.3349998569465,,response,,,,99,,,,,,,Space,keypress(Space),,,,,,,,---- -- ----- -- ------ - ------- --- ----------<br>------------- ------ ------ ---- ---- ------- ----- -- ----<br>-------- ------- -- ---------- --- - --- ----- ----- ----<br>---- --- --- ----- --- ---- ---- ------- ----- ---- whether<br>--- --- -- ----- -- --- ---- -- --- ---- -- ------ ------<br>--- ----- -- ----,203169.69999980927,203168.39999985695,202843.502,202854.39999985695,202860.065,203177.004,,38,whether
screen,html.Screen,2_1_0_1_39,2022-05-02T13:52:38.106Z,,,,,,,,,,,,,,,,,53,,,,,,,,,,,,,,331.8959998569626,,response,,,,99,,,,,,,Space,keypress(Space),,,,,,,,---- -- ----- -- ------ - ------- --- ----------<br>------------- ------ ------ ---- ---- ------- ----- -- ----<br>-------- ------- -- ---------- --- - --- ----- ----- ----<br>---- --- --- ----- --- ---- ---- ------- ----- ---- -------<br>you --- -- ----- -- --- ---- -- --- ---- -- ------ ------<br>--- ----- -- ----,203509.79999995232,203508.89999985695,203160.264,203169.89999985695,203177.004,203543.898,,39,you
screen,html.Screen,2_1_0_1_40,2022-05-02T13:52:38.402Z,,,,,,,,,,,,,,,,,53,,,,,,,,,,,,,,260.7019999046461,,response,,,,99,,,,,,,Space,keypress(Space),,,,,,,,---- -- ----- -- ------ - ------- --- ----------<br>------------- ------ ------ ---- ---- ------- ----- -- ----<br>-------- ------- -- ---------- --- - --- ----- ----- ----<br>---- --- --- ----- --- ---- ---- ------- ----- ---- -------<br>--- are -- ----- -- --- ---- -- --- ---- -- ------ ------<br>--- ----- -- ----,203805.39999985695,203804.59999990463,203527.113,203510,203543.898,203810.625,,40,are
screen,html.Screen,2_1_0_1_41,2022-05-02T13:52:38.684Z,,,,,,,,,,,,,,,,,53,,,,,,,,,,,,,,275.97499990463257,,response,,,,99,,,,,,,Space,keypress(Space),,,,,,,,---- -- ----- -- ------ - ------- --- ----------<br>------------- ------ ------ ---- ---- ------- ----- -- ----<br>-------- ------- -- ---------- --- - --- ----- ----- ----<br>---- --- --- ----- --- ---- ---- ------- ----- ---- -------<br>--- --- as ----- -- --- ---- -- --- ---- -- ------ ------<br>--- ----- -- ----,204087.69999980927,204086.59999990463,203793.968,203805.59999990463,203810.625,204093.983,,41,as
screen,html.Screen,2_1_0_1_42,2022-05-02T13:52:38.967Z,,,,,,,,,,,,,,,,,53,,,,,,,,,,,,,,275.51699999999255,,response,,,,99,,,,,,,Space,keypress(Space),,,,,,,,---- -- ----- -- ------ - ------- --- ----------<br>------------- ------ ------ ---- ---- ------- ----- -- ----<br>-------- ------- -- ---------- --- - --- ----- ----- ----<br>---- --- --- ----- --- ---- ---- ------- ----- ---- -------<br>--- --- -- close -- --- ---- -- --- ---- -- ------ ------<br>--- ----- -- ----,204370.69999980927,204369.5,204077.344,204087.89999985695,204093.983,204377.387,,42,close
screen,html.Screen,2_1_0_1_43,2022-05-02T13:52:39.257Z,,,,,,,,,,,,,,,,,53,,,,,,,,,,,,,,281.81299980927724,,response,,,,99,,,,,,,Space,keypress(Space),,,,,,,,---- -- ----- -- ------ - ------- --- ----------<br>------------- ------ ------ ---- ---- ------- ----- -- ----<br>-------- ------- -- ---------- --- - --- ----- ----- ----<br>---- --- --- ----- --- ---- ---- ------- ----- ---- -------<br>--- --- -- ----- as --- ---- -- --- ---- -- ------ ------<br>--- ----- -- ----,204660.39999985695,204659.19999980927,204360.795,204370.89999985695,204377.387,204677.628,,43,as
screen,html.Screen,2_1_0_1_44,2022-05-02T13:52:39.568Z,,,,,,,,,,,,,,,,,53,,,,,,,,,,,,,,293.1719999523193,,response,,,,99,,,,,,,Space,keypress(Space),,,,,,,,---- -- ----- -- ------ - ------- --- ----------<br>------------- ------ ------ ---- ---- ------- ----- -- ----<br>-------- ------- -- ---------- --- - --- ----- ----- ----<br>---- --- --- ----- --- ---- ---- ------- ----- ---- -------<br>--- --- -- ----- -- you ---- -- --- ---- -- ------ ------<br>--- ----- -- ----,204971.89999985695,204970.79999995232,204660.977,204660.59999990463,204677.628,204977.687,,44,you
screen,html.Screen,2_1_0_1_45,2022-05-02T13:52:39.817Z,,,,,,,,,,,,,,,,,53,,,,,,,,,,,,,,242.51299980925978,,response,,,,99,,,,,,,Space,keypress(Space),,,,,,,,---- -- ----- -- ------ - ------- --- ----------<br>------------- ------ ------ ---- ---- ------- ----- -- ----<br>-------- ------- -- ---------- --- - --- ----- ----- ----<br>---- --- --- ----- --- ---- ---- ------- ----- ---- -------<br>--- --- -- ----- -- --- want -- --- ---- -- ------ ------<br>--- ----- -- ----,205221.29999995232,205220.19999980927,204961.053,204972.09999990463,204977.687,205227.897,,45,want
screen,html.Screen,2_1_0_1_46,2022-05-02T13:52:40.112Z,,,,,,,,,,,,,,,,,53,,,,,,,,,,,,,,287.1030000000028,,response,,,,99,,,,,,,Space,keypress(Space),,,,,,,,---- -- ----- -- ------ - ------- --- ----------<br>------------- ------ ------ ---- ---- ------- ----- -- ----<br>-------- ------- -- ---------- --- - --- ----- ----- ----<br>---- --- --- ----- --- ---- ---- ------- ----- ---- -------<br>--- --- -- ----- -- --- ---- to --- ---- -- ------ ------<br>--- ----- -- ----,205515.79999995232,205515,205211.164,205221.5,205227.897,205528.126,,46,to
screen,html.Screen,2_1_0_1_47,2022-05-02T13:52:40.398Z,,,,,,,,,,,,,,,,,53,,,,,,,,,,,,,,272.173999952327,,response,,,,99,,,,,,,Space,keypress(Space),,,,,,,,"---- -- ----- -- ------ - ------- --- ----------<br>------------- ------ ------ ---- ---- ------- ----- -- ----<br>-------- ------- -- ---------- --- - --- ----- ----- ----<br>---- --- --- ----- --- ---- ---- ------- ----- ---- -------<br>--- --- -- ----- -- --- ---- -- be, ---- -- ------ ------<br>--- ----- -- ----",205801.59999990463,205800.29999995232,205511.31,205516.09999990463,205528.126,205811.429,,47,"be,"
screen,html.Screen,2_1_0_1_48,2022-05-02T13:52:40.695Z,,,,,,,,,,,,,,,,,53,,,,,,,,,,,,,,285.87099995231256,,response,,,,99,,,,,,,Space,keypress(Space),,,,,,,,---- -- ----- -- ------ - ------- --- ----------<br>------------- ------ ------ ---- ---- ------- ----- -- ----<br>-------- ------- -- ---------- --- - --- ----- ----- ----<br>---- --- --- ----- --- ---- ---- ------- ----- ---- -------<br>--- --- -- ----- -- --- ---- -- --- even -- ------ ------<br>--- ----- -- ----,206098.5,206097.29999995232,205794.746,205801.79999995232,205811.429,206111.698,,48,even
screen,html.Screen,2_1_0_1_49,2022-05-02T13:52:40.967Z,,,,,,,,,,,,,,,,,53,,,,,,,,,,,,,,258.2019998569449,,response,,,,99,,,,,,,Space,keypress(Space),,,,,,,,---- -- ----- -- ------ - ------- --- ----------<br>------------- ------ ------ ---- ---- ------- ----- -- ----<br>-------- ------- -- ---------- --- - --- ----- ----- ----<br>---- --- --- ----- --- ---- ---- ------- ----- ---- -------<br>--- --- -- ----- -- --- ---- -- --- ---- if ------ ------<br>--- ----- -- ----,206370.5,206369.89999985695,206094.885,206098.79999995232,206111.698,206378.382,,49,if
screen,html.Screen,2_1_0_1_50,2022-05-02T13:52:41.255Z,,,,,,,,,,,,,,,,,53,,,,,,,,,,,,,,279.2179999046202,,response,,,,99,,,,,,,Space,keypress(Space),,,,,,,,---- -- ----- -- ------ - ------- --- ----------<br>------------- ------ ------ ---- ---- ------- ----- -- ----<br>-------- ------- -- ---------- --- - --- ----- ----- ----<br>---- --- --- ----- --- ---- ---- ------- ----- ---- -------<br>--- --- -- ----- -- --- ---- -- --- ---- -- that's ------<br>--- ----- -- ----,206658.89999985695,206657.59999990463,206361.646,206370.59999990463,206378.382,206661.802,,50,that's
screen,html.Screen,2_1_0_1_51,2022-05-02T13:52:41.656Z,,,,,,,,,,,,,,,,,53,,,,,,,,,,,,,,395.5979998569528,,response,,,,99,,,,,,,Space,keypress(Space),,,,,,,,---- -- ----- -- ------ - ------- --- ----------<br>------------- ------ ------ ---- ---- ------- ----- -- ----<br>-------- ------- -- ---------- --- - --- ----- ----- ----<br>---- --- --- ----- --- ---- ---- ------- ----- ---- -------<br>--- --- -- ----- -- --- ---- -- --- ---- -- ------ really<br>--- ----- -- ----,207059.29999995232,207057.39999985695,206645.163,206659.09999990463,206661.802,207061.939,,51,really
screen,html.Screen,2_1_0_1_52,2022-05-02T13:52:42.071Z,,,,,,,,,,,,,,,,,53,,,,,,,,,,,,,,411.86099995230325,,response,,,,99,,,,,,,Space,keypress(Space),,,,,,,,---- -- ----- -- ------ - ------- --- ----------<br>------------- ------ ------ ---- ---- ------- ----- -- ----<br>-------- ------- -- ---------- --- - --- ----- ----- ----<br>---- --- --- ----- --- ---- ---- ------- ----- ---- -------<br>--- --- -- ----- -- --- ---- -- --- ---- -- ------ ------<br>not ----- -- ----,207474.69999980927,207473.79999995232,207045.316,207059.5,207061.939,207478.775,,52,not
screen,html.Screen,2_1_0_1_53,2022-05-02T13:52:42.360Z,,,,,,,,,,,,,,,,,53,,,,,,,,,,,,,,284.2250000000058,,response,,,,99,,,,,,,Space,keypress(Space),,,,,,,,---- -- ----- -- ------ - ------- --- ----------<br>------------- ------ ------ ---- ---- ------- ----- -- ----<br>-------- ------- -- ---------- --- - --- ----- ----- ----<br>---- --- --- ----- --- ---- ---- ------- ----- ---- -------<br>--- --- -- ----- -- --- ---- -- --- ---- -- ------ ------<br>--- close -- ----,207764.09999990463,207763,207462.169,207474.79999995232,207478.775,207779.122,,53,close
screen,html.Screen,2_1_0_1_54,2022-05-02T13:52:42.677Z,,,,,,,,,,,,,,,,,53,,,,,,,,,,,,,,301.2779998569458,,response,,,,99,,,,,,,Space,keypress(Space),,,,,,,,---- -- ----- -- ------ - ------- --- ----------<br>------------- ------ ------ ---- ---- ------- ----- -- ----<br>-------- ------- -- ---------- --- - --- ----- ----- ----<br>---- --- --- ----- --- ---- ---- ------- ----- ---- -------<br>--- --- -- ----- -- --- ---- -- --- ---- -- ------ ------<br>--- ----- at ----,208080.89999985695,208080.39999985695,207762.35,207764.29999995232,207779.122,208095.809,,54,at
screen,html.Screen,2_1_0_1_55,2022-05-02T13:52:43.043Z,,,,,,,,,,,,,,,,,53,,,,,,,,,,,,,,350.4909999523079,,response,,,,99,,,,,,,Space,keypress(Space),,,,,,,,---- -- ----- -- ------ - ------- --- ----------<br>------------- ------ ------ ---- ---- ------- ----- -- ----<br>-------- ------- -- ---------- --- - --- ----- ----- ----<br>---- --- --- ----- --- ---- ---- ------- ----- ---- -------<br>--- --- -- ----- -- --- ---- -- --- ---- -- ------ ------<br>--- ----- -- all.,208447,208446.29999995232,208079.099,208081,208095.809,208462.646,,55,all.
Item 99,flow.Loop,2_1_0_1,2022-05-02T13:52:43.043Z,,,,,,,,,,,,,,,,,,,,,,,,,,,,,,,22927.240999952308,,completion,,,,,G,,,,,,,,,,,silence,,,,,208447.29999995232,208446.29999995232,185502.406,185506.39999985695,185519.059,208462.646,,,
Question 1,html.Screen,2_1_0_2,2022-05-02T13:52:55.373Z,,,,,,,,,,,,,,,,,,,,,,,,,,,,true,FALSE,,12312.753999856941,,response,,,,99,G,,,,,,FALSE,click #choice-2,,,,silence,,,,,220776.29999995232,220775.39999985695,208445.929,208447.39999985695,208462.646,220784.733,,,
Question 2,html.Screen,2_1_0_3,2022-05-02T13:53:04.428Z,,,,,,,,,,,,,,,,,,,,,,,,,,,,true,TRUE,,9046.766999999993,,response,,,,99,G,,,,,,TRUE,click #choice-1,,,,silence,,,,,229832.19999980927,229831.5,220768.181,220776.5,220784.733,229855.49,,,
Item 99,flow.Sequence,2_1_0,2022-05-02T13:53:04.429Z,,,,,,,,,,,,,,,,,,,,,,,,,,,,,,,54316.803000000014,,completion,,,,,,,,,,,,,,,,,,,,,229832.39999985695,229831.5,175497.961,175489.19999980927,175514.697,229855.49,,,
Holding screen,html.Screen,2_1_1_0,2022-05-02T13:53:14.441Z,,,,,,,,,,,,,,,,,,,,,,,,,,,,,,,10004.456999999995,,timeout,,,,,,,,,,,,,,,,,,,,,239844.69999980927,239843.204,229838.799,229832.59999990463,229855.49,239859.947,,,
screen,html.Screen,2_1_1_1_0,2022-05-02T13:53:15.347Z,,,,,,,,,,,,,,,,,54,,,,,,,,,,,,,,893.7529998092796,,response,,,,100,,,,,,,Space,keypress(Space),,,,,,,,At --- ---- --- ------ ----- ------- ---- -- --- ------- --<br>------- ---------- ------ -- ----- -- ----- -- ---- ------<br>--- ----- --- --- ------ -------- ----- --- ------ ----- --<br>----- ----- ---------- --- --- ------ ------ ---- -- ------<br>------- --- ------ ----- --- ---- ------- -- ---- --- --<br>------- ------,240754.5,240753.69999980927,239843.204,239844.89999985695,239859.947,240760.274,,0,At
screen,html.Screen,2_1_1_1_1,2022-05-02T13:53:15.791Z,,,,,,,,,,,,,,,,,54,,,,,,,,,,,,,,437.0259999523114,,response,,,,100,,,,,,,Space,keypress(Space),,,,,,,,-- the ---- --- ------ ----- ------- ---- -- --- ------- --<br>------- ---------- ------ -- ----- -- ----- -- ---- ------<br>--- ----- --- --- ------ -------- ----- --- ------ ----- --<br>----- ----- ---------- --- --- ------ ------ ---- -- ------<br>------- --- ------ ----- --- ---- ------- -- ---- --- --<br>------- ------,241198.39999985695,241197.29999995232,240743.626,240754.59999990463,240760.274,241210.668,,1,the
screen,html.Screen,2_1_1_1_2,2022-05-02T13:53:16.218Z,,,,,,,,,,,,,,,,,54,,,,,,,,,,,,,,413.73199985694373,,response,,,,100,,,,,,,Space,keypress(Space),,,,,,,,-- --- time --- ------ ----- ------- ---- -- --- ------- --<br>------- ---------- ------ -- ----- -- ----- -- ---- ------<br>--- ----- --- --- ------ -------- ----- --- ------ ----- --<br>----- ----- ---------- --- --- ------ ------ ---- -- ------<br>------- --- ------ ----- --- ---- ------- -- ---- --- --<br>------- ------,241625.19999980927,241624.39999985695,241193.817,241198.59999990463,241210.668,241627.321,,2,time
screen,html.Screen,2_1_1_1_3,2022-05-02T13:53:16.658Z,,,,,,,,,,,,,,,,,54,,,,,,,,,,,,,,437.1790000000037,,response,,,,100,,,,,,,Space,keypress(Space),,,,,,,,-- --- ---- the ------ ----- ------- ---- -- --- ------- --<br>------- ---------- ------ -- ----- -- ----- -- ---- ------<br>--- ----- --- --- ------ -------- ----- --- ------ ----- --<br>----- ----- ---------- --- --- ------ ------ ---- -- ------<br>------- --- ------ ----- --- ---- ------- -- ---- --- --<br>------- ------,242065.19999980927,242064.5,241610.706,241625.39999985695,241627.321,242077.544,,3,the
screen,html.Screen,2_1_1_1_4,2022-05-02T13:53:17.058Z,,,,,,,,,,,,,,,,,54,,,,,,,,,,,,,,386.85599985695444,,response,,,,100,,,,,,,Space,keypress(Space),,,,,,,,-- --- ---- --- French ----- ------- ---- -- --- ------- --<br>------- ---------- ------ -- ----- -- ----- -- ---- ------<br>--- ----- --- --- ------ -------- ----- --- ------ ----- --<br>----- ----- ---------- --- --- ------ ------ ---- -- ------<br>------- --- ------ ----- --- ---- ------- -- ---- --- --<br>------- ------,242465.09999990463,242464.39999985695,242060.85,242065.39999985695,242077.544,242477.735,,4,French
screen,html.Screen,2_1_1_1_5,2022-05-02T13:53:17.494Z,,,,,,,,,,,,,,,,,54,,,,,,,,,,,,,,422.86499990464654,,response,,,,100,,,,,,,Space,keypress(Space),,,,,,,,-- --- ---- --- ------ crown ------- ---- -- --- ------- --<br>------- ---------- ------ -- ----- -- ----- -- ---- ------<br>--- ----- --- --- ------ -------- ----- --- ------ ----- --<br>----- ----- ---------- --- --- ------ ------ ---- -- ------<br>------- --- ------ ----- --- ---- ------- -- ---- --- --<br>------- ------,242901.29999995232,242900.59999990463,242461.017,242465.19999980927,242477.735,242911.268,,5,crown
screen,html.Screen,2_1_1_1_6,2022-05-02T13:53:17.947Z,,,,,,,,,,,,,,,,,54,,,,,,,,,,,,,,441.4319998092542,,response,,,,100,,,,,,,Space,keypress(Space),,,,,,,,-- --- ---- --- ------ ----- secured ---- -- --- ------- --<br>------- ---------- ------ -- ----- -- ----- -- ---- ------<br>--- ----- --- --- ------ -------- ----- --- ------ ----- --<br>----- ----- ---------- --- --- ------ ------ ---- -- ------<br>------- --- ------ ----- --- ---- ------- -- ---- --- --<br>------- ------,243353.89999985695,243352.69999980927,242894.576,242901.5,242911.268,243361.487,,6,secured
screen,html.Screen,2_1_1_1_7,2022-05-02T13:53:18.423Z,,,,,,,,,,,,,,,,,54,,,,,,,,,,,,,,467.91299985695514,,response,,,,100,,,,,,,Space,keypress(Space),,,,,,,,-- --- ---- --- ------ ----- ------- much -- --- ------- --<br>------- ---------- ------ -- ----- -- ----- -- ---- ------<br>--- ----- --- --- ------ -------- ----- --- ------ ----- --<br>----- ----- ---------- --- --- ------ ------ ---- -- ------<br>------- --- ------ ----- --- ---- ------- -- ---- --- --<br>------- ------,243830,243829.39999985695,243344.75,243354.09999990463,243361.487,243845.044,,7,much
screen,html.Screen,2_1_1_1_8,2022-05-02T13:53:18.807Z,,,,,,,,,,,,,,,,,54,,,,,,,,,,,,,,368.1559998092707,,response,,,,100,,,,,,,Space,keypress(Space),,,,,,,,-- --- ---- --- ------ ----- ------- ---- of --- ------- --<br>------- ---------- ------ -- ----- -- ----- -- ---- ------<br>--- ----- --- --- ------ -------- ----- --- ------ ----- --<br>----- ----- ---------- --- --- ------ ------ ---- -- ------<br>------- --- ------ ----- --- ---- ------- -- ---- --- --<br>------- ------,244214.39999985695,244213.19999980927,243828.386,243830.09999990463,243845.044,244228.72,,8,of
screen,html.Screen,2_1_1_1_9,2022-05-02T13:53:19.205Z,,,,,,,,,,,,,,,,,54,,,,,,,,,,,,,,382.479999809264,,response,,,,100,,,,,,,Space,keypress(Space),,,,,,,,-- --- ---- --- ------ ----- ------- ---- -- its ------- --<br>------- ---------- ------ -- ----- -- ----- -- ---- ------<br>--- ----- --- --- ------ -------- ----- --- ------ ----- --<br>----- ----- ---------- --- --- ------ ------ ---- -- ------<br>------- --- ------ ----- --- ---- ------- -- ---- --- --<br>------- ------,244612.39999985695,244611.19999980927,244211.935,244214.59999990463,244228.72,244628.815,,9,its
screen,html.Screen,2_1_1_1_10,2022-05-02T13:53:19.640Z,,,,,,,,,,,,,,,,,54,,,,,,,,,,,,,,417.1849999999977,,response,,,,100,,,,,,,Space,keypress(Space),,,,,,,,-- --- ---- --- ------ ----- ------- ---- -- --- revenue --<br>------- ---------- ------ -- ----- -- ----- -- ---- ------<br>--- ----- --- --- ------ -------- ----- --- ------ ----- --<br>----- ----- ---------- --- --- ------ ------ ---- -- ------<br>------- --- ------ ----- --- ---- ------- -- ---- --- --<br>------- ------,245046.89999985695,245046,244612.057,244612.69999980927,244628.815,245062.281,,10,revenue
screen,html.Screen,2_1_1_1_11,2022-05-02T13:53:20.248Z,,,,,,,,,,,,,,,,,54,,,,,,,,,,,,,,591.2190000000119,,response,,,,100,,,,,,,Space,keypress(Space),,,,,,,,-- --- ---- --- ------ ----- ------- ---- -- --- ------- by<br>------- ---------- ------ -- ----- -- ----- -- ---- ------<br>--- ----- --- --- ------ -------- ----- --- ------ ----- --<br>----- ----- ---------- --- --- ------ ------ ---- -- ------<br>------- --- ------ ----- --- ---- ------- -- ---- --- --<br>------- ------,245654.69999980927,245653.5,245045.632,245047,245062.281,245662.638,,11,by
screen,html.Screen,2_1_1_1_12,2022-05-02T13:53:20.751Z,,,,,,,,,,,,,,,,,54,,,,,,,,,,,,,,493.8619999999937,,response,,,,100,,,,,,,Space,keypress(Space),,,,,,,,-- --- ---- --- ------ ----- ------- ---- -- --- ------- --<br>issuing ---------- ------ -- ----- -- ----- -- ---- ------<br>--- ----- --- --- ------ -------- ----- --- ------ ----- --<br>----- ----- ---------- --- --- ------ ------ ---- -- ------<br>------- --- ------ ----- --- ---- ------- -- ---- --- --<br>------- ------,246157.69999980927,246156.5,245645.83,245654.89999985695,245662.638,246162.765,,12,issuing
screen,html.Screen,2_1_1_1_13,2022-05-02T13:53:21.321Z,,,,,,,,,,,,,,,,,54,,,,,,,,,,,,,,563.734999999986,,response,,,,100,,,,,,,Space,keypress(Space),,,,,,,,-- --- ---- --- ------ ----- ------- ---- -- --- ------- --<br>------- government ------ -- ----- -- ----- -- ---- ------<br>--- ----- --- --- ------ -------- ----- --- ------ ----- --<br>----- ----- ---------- --- --- ------ ------ ---- -- ------<br>------- --- ------ ----- --- ---- ------- -- ---- --- --<br>------- ------,246727.69999980927,246726.5,246146.078,246158,246162.765,246729.643,,13,government
screen,html.Screen,2_1_1_1_14,2022-05-02T13:53:22.931Z,,,,,,,,,,,,,,,,,54,,,,,,,,,,,,,,1607.356999999989,,response,,,,100,,,,,,,Space,keypress(Space),,,,,,,,-- --- ---- --- ------ ----- ------- ---- -- --- ------- --<br>------- ---------- bonds. -- ----- -- ----- -- ---- ------<br>--- ----- --- --- ------ -------- ----- --- ------ ----- --<br>----- ----- ---------- --- --- ------ ------ ---- -- ------<br>------- --- ------ ----- --- ---- ------- -- ---- --- --<br>------- ------,248338.29999995232,248337,246713.002,246727.89999985695,246729.643,248347.056,,14,bonds.
screen,html.Screen,2_1_1_1_15,2022-05-02T13:53:23.379Z,,,,,,,,,,,,,,,,,54,,,,,,,,,,,,,,437.4439999999886,,response,,,,100,,,,,,,Space,keypress(Space),,,,,,,,-- --- ---- --- ------ ----- ------- ---- -- --- ------- --<br>------- ---------- ------ In ----- -- ----- -- ---- ------<br>--- ----- --- --- ------ -------- ----- --- ------ ----- --<br>----- ----- ---------- --- --- ------ ------ ---- -- ------<br>------- --- ------ ----- --- ---- ------- -- ---- --- --<br>------- ------,248785.59999990463,248784.5,248330.42,248338.5,248347.056,248797.317,,15,In
screen,html.Screen,2_1_1_1_16,2022-05-02T13:53:23.905Z,,,,,,,,,,,,,,,,,54,,,,,,,,,,,,,,514.0829998569388,,response,,,,100,,,,,,,Space,keypress(Space),,,,,,,,"-- --- ---- --- ------ ----- ------- ---- -- --- ------- --<br>------- ---------- ------ -- 1727, -- ----- -- ---- ------<br>--- ----- --- --- ------ -------- ----- --- ------ ----- --<br>----- ----- ---------- --- --- ------ ------ ---- -- ------<br>------- --- ------ ----- --- ---- ------- -- ---- --- --<br>------- ------",249311.89999985695,249311.39999985695,248780.502,248785.79999995232,248797.317,249314.1,,16,"1727,"
screen,html.Screen,2_1_1_1_17,2022-05-02T13:53:24.338Z,,,,,,,,,,,,,,,,,54,,,,,,,,,,,,,,429.69999995231046,,response,,,,100,,,,,,,Space,keypress(Space),,,,,,,,-- --- ---- --- ------ ----- ------- ---- -- --- ------- --<br>------- ---------- ------ -- ----- in ----- -- ---- ------<br>--- ----- --- --- ------ -------- ----- --- ------ ----- --<br>----- ----- ---------- --- --- ------ ------ ---- -- ------<br>------- --- ------ ----- --- ---- ------- -- ---- --- --<br>------- ------,249744.59999990463,249743.79999995232,249297.47,249312.09999990463,249314.1,249747.667,,17,in
screen,html.Screen,2_1_1_1_18,2022-05-02T13:53:24.746Z,,,,,,,,,,,,,,,,,54,,,,,,,,,,,,,,405.0329998092784,,response,,,,100,,,,,,,Space,keypress(Space),,,,,,,,-- --- ---- --- ------ ----- ------- ---- -- --- ------- --<br>------- ---------- ------ -- ----- -- order -- ---- ------<br>--- ----- --- --- ------ -------- ----- --- ------ ----- --<br>----- ----- ---------- --- --- ------ ------ ---- -- ------<br>------- --- ------ ----- --- ---- ------- -- ---- --- --<br>------- ------,250153.19999980927,250152.69999980927,249731.003,249744.89999985695,249747.667,250164.502,,18,order
screen,html.Screen,2_1_1_1_19,2022-05-02T13:53:25.136Z,,,,,,,,,,,,,,,,,54,,,,,,,,,,,,,,378.4979999999923,,response,,,,100,,,,,,,Space,keypress(Space),,,,,,,,-- --- ---- --- ------ ----- ------- ---- -- --- ------- --<br>------- ---------- ------ -- ----- -- ----- to ---- ------<br>--- ----- --- --- ------ -------- ----- --- ------ ----- --<br>----- ----- ---------- --- --- ------ ------ ---- -- ------<br>------- --- ------ ----- --- ---- ------- -- ---- --- --<br>------- ------,250543.5,250543,250147.819,250153.29999995232,250164.502,250547.977,,19,to
screen,html.Screen,2_1_1_1_20,2022-05-02T13:53:25.546Z,,,,,,,,,,,,,,,,,54,,,,,,,,,,,,,,404.0229999999865,,response,,,,100,,,,,,,Space,keypress(Space),,,,,,,,-- --- ---- --- ------ ----- ------- ---- -- --- ------- --<br>------- ---------- ------ -- ----- -- ----- -- save ------<br>--- ----- --- --- ------ -------- ----- --- ------ ----- --<br>----- ----- ---------- --- --- ------ ------ ---- -- ------<br>------- --- ------ ----- --- ---- ------- -- ---- --- --<br>------- ------,250952.69999980927,250952,250531.354,250543.69999980927,250547.977,250964.959,,20,save
screen,html.Screen,2_1_1_1_21,2022-05-02T13:53:25.964Z,,,,,,,,,,,,,,,,,54,,,,,,,,,,,,,,405.14099990463,,response,,,,100,,,,,,,Space,keypress(Space),,,,,,,,"-- --- ---- --- ------ ----- ------- ---- -- --- ------- --<br>------- ---------- ------ -- ----- -- ----- -- ---- money,<br>--- ----- --- --- ------ -------- ----- --- ------ ----- --<br>----- ----- ---------- --- --- ------ ------ ---- -- ------<br>------- --- ------ ----- --- ---- ------- -- ---- --- --<br>------- ------",251370.69999980927,251370.09999990463,250948.164,250952.79999995232,250964.959,251381.78,,21,"money,"
screen,html.Screen,2_1_1_1_22,2022-05-02T13:53:26.360Z,,,,,,,,,,,,,,,,,54,,,,,,,,,,,,,,384.4199998092663,,response,,,,100,,,,,,,Space,keypress(Space),,,,,,,,-- --- ---- --- ------ ----- ------- ---- -- --- ------- --<br>------- ---------- ------ -- ----- -- ----- -- ---- ------<br>the ----- --- --- ------ -------- ----- --- ------ ----- --<br>----- ----- ---------- --- --- ------ ------ ---- -- ------<br>------- --- ------ ----- --- ---- ------- -- ---- --- --<br>------- ------,251766.79999995232,251766.19999980927,251365.066,251370.79999995232,251381.78,251781.988,,22,the
screen,html.Screen,2_1_1_1_23,2022-05-02T13:53:26.711Z,,,,,,,,,,,,,,,,,54,,,,,,,,,,,,,,335.8119999523042,,response,,,,100,,,,,,,Space,keypress(Space),,,,,,,,-- --- ---- --- ------ ----- ------- ---- -- --- ------- --<br>------- ---------- ------ -- ----- -- ----- -- ---- ------<br>--- state --- --- ------ -------- ----- --- ------ ----- --<br>----- ----- ---------- --- --- ------ ------ ---- -- ------<br>------- --- ------ ----- --- ---- ------- -- ---- --- --<br>------- ------,252118.5,252117.79999995232,251765.298,251766.79999995232,251781.988,252132.036,,23,state
screen,html.Screen,2_1_1_1_24,2022-05-02T13:53:27.059Z,,,,,,,,,,,,,,,,,54,,,,,,,,,,,,,,333.9640000000072,,response,,,,100,,,,,,,Space,keypress(Space),,,,,,,,-- --- ---- --- ------ ----- ------- ---- -- --- ------- --<br>------- ---------- ------ -- ----- -- ----- -- ---- ------<br>--- ----- cut --- ------ -------- ----- --- ------ ----- --<br>----- ----- ---------- --- --- ------ ------ ---- -- ------<br>------- --- ------ ----- --- ---- ------- -- ---- --- --<br>------- ------,252466.5,252466,252115.35,252118.59999990463,252132.036,252482.257,,24,cut
screen,html.Screen,2_1_1_1_25,2022-05-02T13:53:27.344Z,,,,,,,,,,,,,,,,,54,,,,,,,,,,,,,,268.04299995230394,,response,,,,100,,,,,,,Space,keypress(Space),,,,,,,,-- --- ---- --- ------ ----- ------- ---- -- --- ------- --<br>------- ---------- ------ -- ----- -- ----- -- ---- ------<br>--- ----- --- the ------ -------- ----- --- ------ ----- --<br>----- ----- ---------- --- --- ------ ------ ---- -- ------<br>------- --- ------ ----- --- ---- ------- -- ---- --- --<br>------- ------,252751,252750.29999995232,252465.509,252466.59999990463,252482.257,252765.675,,25,the
screen,html.Screen,2_1_1_1_26,2022-05-02T13:53:27.657Z,,,,,,,,,,,,,,,,,54,,,,,,,,,,,,,,298.0249998092768,,response,,,,100,,,,,,,Space,keypress(Space),,,,,,,,-- --- ---- --- ------ ----- ------- ---- -- --- ------- --<br>------- ---------- ------ -- ----- -- ----- -- ---- ------<br>--- ----- --- --- bonds' -------- ----- --- ------ ----- --<br>----- ----- ---------- --- --- ------ ------ ---- -- ------<br>------- --- ------ ----- --- ---- ------- -- ---- --- --<br>------- ------,253064.39999985695,253063.69999980927,252748.953,252751.19999980927,252765.675,253098.525,,26,bonds'
screen,html.Screen,2_1_1_1_27,2022-05-02T13:53:28.001Z,,,,,,,,,,,,,,,,,54,,,,,,,,,,,,,,308.4750000000058,,response,,,,100,,,,,,,Space,keypress(Space),,,,,,,,-- --- ---- --- ------ ----- ------- ---- -- --- ------- --<br>------- ---------- ------ -- ----- -- ----- -- ---- ------<br>--- ----- --- --- ------ interest ----- --- ------ ----- --<br>----- ----- ---------- --- --- ------ ------ ---- -- ------<br>------- --- ------ ----- --- ---- ------- -- ---- --- --<br>------- ------,253407.79999995232,253407,253049.166,253064.5,253098.525,253415.947,,27,interest
screen,html.Screen,2_1_1_1_28,2022-05-02T13:53:28.390Z,,,,,,,,,,,,,,,,,54,,,,,,,,,,,,,,380.3529999523307,,response,,,,100,,,,,,,Space,keypress(Space),,,,,,,,-- --- ---- --- ------ ----- ------- ---- -- --- ------- --<br>------- ---------- ------ -- ----- -- ----- -- ---- ------<br>--- ----- --- --- ------ -------- rate. --- ------ ----- --<br>----- ----- ---------- --- --- ------ ------ ---- -- ------<br>------- --- ------ ----- --- ---- ------- -- ---- --- --<br>------- ------,253796.79999995232,253796.29999995232,253399.329,253407.79999995232,253415.947,253799.453,,28,rate.
screen,html.Screen,2_1_1_1_29,2022-05-02T13:53:29.037Z,,,,,,,,,,,,,,,,,54,,,,,,,,,,,,,,644.5469999999914,,response,,,,100,,,,,,,Space,keypress(Space),,,,,,,,-- --- ---- --- ------ ----- ------- ---- -- --- ------- --<br>------- ---------- ------ -- ----- -- ----- -- ---- ------<br>--- ----- --- --- ------ -------- ----- The ------ ----- --<br>----- ----- ---------- --- --- ------ ------ ---- -- ------<br>------- --- ------ ----- --- ---- ------- -- ---- --- --<br>------- ------,254444.5,254444,253782.774,253796.89999985695,253799.453,254449.861,,29,The
screen,html.Screen,2_1_1_1_30,2022-05-02T13:53:29.428Z,,,,,,,,,,,,,,,,,54,,,,,,,,,,,,,,383.93899995231186,,response,,,,100,,,,,,,Space,keypress(Space),,,,,,,,-- --- ---- --- ------ ----- ------- ---- -- --- ------- --<br>------- ---------- ------ -- ----- -- ----- -- ---- ------<br>--- ----- --- --- ------ -------- ----- --- market ----- --<br>----- ----- ---------- --- --- ------ ------ ---- -- ------<br>------- --- ------ ----- --- ---- ------- -- ---- --- --<br>------- ------,254834.69999980927,254833.79999995232,254433.135,254444.59999990463,254449.861,254850.008,,30,market
screen,html.Screen,2_1_1_1_31,2022-05-02T13:53:29.784Z,,,,,,,,,,,,,,,,,54,,,,,,,,,,,,,,339.59199990463094,,response,,,,100,,,,,,,Space,keypress(Space),,,,,,,,-- --- ---- --- ------ ----- ------- ---- -- --- ------- --<br>------- ---------- ------ -- ----- -- ----- -- ---- ------<br>--- ----- --- --- ------ -------- ----- --- ------ value --<br>----- ----- ---------- --- --- ------ ------ ---- -- ------<br>------- --- ------ ----- --- ---- ------- -- ---- --- --<br>------- ------,255190.69999980927,255189.59999990463,254833.275,254835,254850.008,255200.167,,31,value
screen,html.Screen,2_1_1_1_32,2022-05-02T13:53:30.169Z,,,,,,,,,,,,,,,,,54,,,,,,,,,,,,,,374.43299990464584,,response,,,,100,,,,,,,Space,keypress(Space),,,,,,,,-- --- ---- --- ------ ----- ------- ---- -- --- ------- --<br>------- ---------- ------ -- ----- -- ----- -- ---- ------<br>--- ----- --- --- ------ -------- ----- --- ------ ----- of<br>----- ----- ---------- --- --- ------ ------ ---- -- ------<br>------- --- ------ ----- --- ---- ------- -- ---- --- --<br>------- ------,255575.89999985695,255574.59999990463,255183.411,255191,255200.167,255583.656,,32,of
screen,html.Screen,2_1_1_1_33,2022-05-02T13:53:30.512Z,,,,,,,,,,,,,,,,,54,,,,,,,,,,,,,,334.44399990464444,,response,,,,100,,,,,,,Space,keypress(Space),,,,,,,,-- --- ---- --- ------ ----- ------- ---- -- --- ------- --<br>------- ---------- ------ -- ----- -- ----- -- ---- ------<br>--- ----- --- --- ------ -------- ----- --- ------ ----- --<br>these ----- ---------- --- --- ------ ------ ---- -- ------<br>------- --- ------ ----- --- ---- ------- -- ---- --- --<br>------- ------,255918.5,255918.09999990463,255566.971,255576.29999995232,255583.656,255933.844,,33,these
screen,html.Screen,2_1_1_1_34,2022-05-02T13:53:30.809Z,,,,,,,,,,,,,,,,,54,,,,,,,,,,,,,,282.055999856937,,response,,,,100,,,,,,,Space,keypress(Space),,,,,,,,-- --- ---- --- ------ ----- ------- ---- -- --- ------- --<br>------- ---------- ------ -- ----- -- ----- -- ---- ------<br>--- ----- --- --- ------ -------- ----- --- ------ ----- --<br>----- bonds ---------- --- --- ------ ------ ---- -- ------<br>------- --- ------ ----- --- ---- ------- -- ---- --- --<br>------- ------,256216.39999985695,256215.89999985695,255917.142,255918.69999980927,255933.844,256241.069,,34,bonds
screen,html.Screen,2_1_1_1_35,2022-05-02T13:53:31.170Z,,,,,,,,,,,,,,,,,54,,,,,,,,,,,,,,334.530999904644,,response,,,,100,,,,,,,Space,keypress(Space),,,,,,,,"-- --- ---- --- ------ ----- ------- ---- -- --- ------- --<br>------- ---------- ------ -- ----- -- ----- -- ---- ------<br>--- ----- --- --- ------ -------- ----- --- ------ ----- --<br>----- ----- plummeted, --- --- ------ ------ ---- -- ------<br>------- --- ------ ----- --- ---- ------- -- ---- --- --<br>------- ------",256576.89999985695,256575.59999990463,256200.542,256216.69999980927,256241.069,256584.113,,35,"plummeted,"
screen,html.Screen,2_1_1_1_36,2022-05-02T13:53:32.593Z,,,,,,,,,,,,,,,,,54,,,,,,,,,,,,,,1415.2869998569367,,response,,,,100,,,,,,,Space,keypress(Space),,,,,,,,-- --- ---- --- ------ ----- ------- ---- -- --- ------- --<br>------- ---------- ------ -- ----- -- ----- -- ---- ------<br>--- ----- --- --- ------ -------- ----- --- ------ ----- --<br>----- ----- ---------- and --- ------ ------ ---- -- ------<br>------- --- ------ ----- --- ---- ------- -- ---- --- --<br>------- ------,258000.09999990463,257999.39999985695,256567.382,256577.09999990463,256584.113,258019.232,,36,and
screen,html.Screen,2_1_1_1_37,2022-05-02T13:53:32.959Z,,,,,,,,,,,,,,,,,54,,,,,,,,,,,,,,346.6679998569598,,response,,,,100,,,,,,,Space,keypress(Space),,,,,,,,-- --- ---- --- ------ ----- ------- ---- -- --- ------- --<br>------- ---------- ------ -- ----- -- ----- -- ---- ------<br>--- ----- --- --- ------ -------- ----- --- ------ ----- --<br>----- ----- ---------- --- the ------ ------ ---- -- ------<br>------- --- ------ ----- --- ---- ------- -- ---- --- --<br>------- ------,258366.59999990463,258365.89999985695,257984.731,258000.19999980927,258019.232,258368.169,,37,the
screen,html.Screen,2_1_1_1_38,2022-05-02T13:53:33.273Z,,,,,,,,,,,,,,,,,54,,,,,,,,,,,,,,310.93099990463816,,response,,,,100,,,,,,,Space,keypress(Space),,,,,,,,-- --- ---- --- ------ ----- ------- ---- -- --- ------- --<br>------- ---------- ------ -- ----- -- ----- -- ---- ------<br>--- ----- --- --- ------ -------- ----- --- ------ ----- --<br>----- ----- ---------- --- --- market ------ ---- -- ------<br>------- --- ------ ----- --- ---- ------- -- ---- --- --<br>------- ------,258679.69999980927,258679.09999990463,258351.638,258366.79999995232,258368.169,258684.998,,38,market
screen,html.Screen,2_1_1_1_39,2022-05-02T13:53:33.610Z,,,,,,,,,,,,,,,,,54,,,,,,,,,,,,,,330.5020000000077,,response,,,,100,,,,,,,Space,keypress(Space),,,,,,,,-- --- ---- --- ------ ----- ------- ---- -- --- ------- --<br>------- ---------- ------ -- ----- -- ----- -- ---- ------<br>--- ----- --- --- ------ -------- ----- --- ------ ----- --<br>----- ----- ---------- --- --- ------ became ---- -- ------<br>------- --- ------ ----- --- ---- ------- -- ---- --- --<br>------- ------,259016.59999990463,259015.5,258668.421,258679.69999980927,258684.998,259018.505,,39,became
screen,html.Screen,2_1_1_1_40,2022-05-02T13:53:33.979Z,,,,,,,,,,,,,,,,,54,,,,,,,,,,,,,,367.1949998092605,,response,,,,100,,,,,,,Space,keypress(Space),,,,,,,,-- --- ---- --- ------ ----- ------- ---- -- --- ------- --<br>------- ---------- ------ -- ----- -- ----- -- ---- ------<br>--- ----- --- --- ------ -------- ----- --- ------ ----- --<br>----- ----- ---------- --- --- ------ ------ wary -- ------<br>------- --- ------ ----- --- ---- ------- -- ---- --- --<br>------- ------,259386.29999995232,259385.69999980927,259001.893,259016.89999985695,259018.505,259402.065,,40,wary
screen,html.Screen,2_1_1_1_41,2022-05-02T13:53:34.295Z,,,,,,,,,,,,,,,,,54,,,,,,,,,,,,,,298.8349998569465,,response,,,,100,,,,,,,Space,keypress(Space),,,,,,,,-- --- ---- --- ------ ----- ------- ---- -- --- ------- --<br>------- ---------- ------ -- ----- -- ----- -- ---- ------<br>--- ----- --- --- ------ -------- ----- --- ------ ----- --<br>----- ----- ---------- --- --- ------ ------ ---- of ------<br>------- --- ------ ----- --- ---- ------- -- ---- --- --<br>------- ------,259702,259700.89999985695,259385.359,259386.29999995232,259402.065,259718.914,,41,of
screen,html.Screen,2_1_1_1_42,2022-05-02T13:53:34.653Z,,,,,,,,,,,,,,,,,54,,,,,,,,,,,,,,339.9859998569591,,response,,,,100,,,,,,,Space,keypress(Space),,,,,,,,-- --- ---- --- ------ ----- ------- ---- -- --- ------- --<br>------- ---------- ------ -- ----- -- ----- -- ---- ------<br>--- ----- --- --- ------ -------- ----- --- ------ ----- --<br>----- ----- ---------- --- --- ------ ------ ---- -- French<br>------- --- ------ ----- --- ---- ------- -- ---- --- --<br>------- ------,260060.19999980927,260058.89999985695,259702.158,259702.19999980927,259718.914,260068.964,,42,French
screen,html.Screen,2_1_1_1_43,2022-05-02T13:53:34.985Z,,,,,,,,,,,,,,,,,54,,,,,,,,,,,,,,322.63599990462535,,response,,,,100,,,,,,,Space,keypress(Space),,,,,,,,-- --- ---- --- ------ ----- ------- ---- -- --- ------- --<br>------- ---------- ------ -- ----- -- ----- -- ---- ------<br>--- ----- --- --- ------ -------- ----- --- ------ ----- --<br>----- ----- ---------- --- --- ------ ------ ---- -- ------<br>credit. --- ------ ----- --- ---- ------- -- ---- --- --<br>------- ------,260392.19999980927,260391.59999990463,260052.359,260060.39999985695,260068.964,260402.501,,43,credit.
screen,html.Screen,2_1_1_1_44,2022-05-02T13:53:35.418Z,,,,,,,,,,,,,,,,,54,,,,,,,,,,,,,,421.4990000000107,,response,,,,100,,,,,,,Space,keypress(Space),,,,,,,,-- --- ---- --- ------ ----- ------- ---- -- --- ------- --<br>------- ---------- ------ -- ----- -- ----- -- ---- ------<br>--- ----- --- --- ------ -------- ----- --- ------ ----- --<br>----- ----- ---------- --- --- ------ ------ ---- -- ------<br>------- The ------ ----- --- ---- ------- -- ---- --- --<br>------- ------,260824.79999995232,260824,260385.795,260392.29999995232,260402.501,260836.051,,44,The
screen,html.Screen,2_1_1_1_45,2022-05-02T13:53:35.816Z,,,,,,,,,,,,,,,,,54,,,,,,,,,,,,,,386.24899995230953,,response,,,,100,,,,,,,Space,keypress(Space),,,,,,,,-- --- ---- --- ------ ----- ------- ---- -- --- ------- --<br>------- ---------- ------ -- ----- -- ----- -- ---- ------<br>--- ----- --- --- ------ -------- ----- --- ------ ----- --<br>----- ----- ---------- --- --- ------ ------ ---- -- ------<br>------- --- French ----- --- ---- ------- -- ---- --- --<br>------- ------,261223.29999995232,261222.29999995232,260819.314,260824.89999985695,260836.051,261236.297,,45,French
screen,html.Screen,2_1_1_1_46,2022-05-02T13:53:36.161Z,,,,,,,,,,,,,,,,,54,,,,,,,,,,,,,,331.60299985695747,,response,,,,100,,,,,,,Space,keypress(Space),,,,,,,,-- --- ---- --- ------ ----- ------- ---- -- --- ------- --<br>------- ---------- ------ -- ----- -- ----- -- ---- ------<br>--- ----- --- --- ------ -------- ----- --- ------ ----- --<br>----- ----- ---------- --- --- ------ ------ ---- -- ------<br>------- --- ------ state --- ---- ------- -- ---- --- --<br>------- ------,261568.5,261567.89999985695,261219.495,261223.59999990463,261236.297,261590.848,,46,state
screen,html.Screen,2_1_1_1_47,2022-05-02T13:53:36.404Z,,,,,,,,,,,,,,,,,54,,,,,,,,,,,,,,220.05199985695072,,response,,,,100,,,,,,,Space,keypress(Space),,,,,,,,-- --- ---- --- ------ ----- ------- ---- -- --- ------- --<br>------- ---------- ------ -- ----- -- ----- -- ---- ------<br>--- ----- --- --- ------ -------- ----- --- ------ ----- --<br>----- ----- ---------- --- --- ------ ------ ---- -- ------<br>------- --- ------ ----- was ---- ------- -- ---- --- --<br>------- ------,261811.39999985695,261810.89999985695,261552.967,261568.59999990463,261590.848,261819.824,,47,was
screen,html.Screen,2_1_1_1_48,2022-05-02T13:53:36.678Z,,,,,,,,,,,,,,,,,54,,,,,,,,,,,,,,264.8759998092719,,response,,,,100,,,,,,,Space,keypress(Space),,,,,,,,-- --- ---- --- ------ ----- ------- ---- -- --- ------- --<br>------- ---------- ------ -- ----- -- ----- -- ---- ------<br>--- ----- --- --- ------ -------- ----- --- ------ ----- --<br>----- ----- ---------- --- --- ------ ------ ---- -- ------<br>------- --- ------ ----- --- left ------- -- ---- --- --<br>------- ------,262085.5,262084.69999980927,261803.153,261811.59999990463,261819.824,262111.104,,48,left
screen,html.Screen,2_1_1_1_49,2022-05-02T13:53:36.970Z,,,,,,,,,,,,,,,,,54,,,,,,,,,,,,,,265.1959999523242,,response,,,,100,,,,,,,Space,keypress(Space),,,,,,,,-- --- ---- --- ------ ----- ------- ---- -- --- ------- --<br>------- ---------- ------ -- ----- -- ----- -- ---- ------<br>--- ----- --- --- ------ -------- ----- --- ------ ----- --<br>----- ----- ---------- --- --- ------ ------ ---- -- ------<br>------- --- ------ ----- --- ---- without -- ---- --- --<br>------- ------,262376.89999985695,262376.2999999523,262069.923,262085.5,262111.104,262386.724,,49,without
screen,html.Screen,2_1_1_1_50,2022-05-02T13:53:37.277Z,,,,,,,,,,,,,,,,,54,,,,,,,,,,,,,,296.6759998569614,,response,,,,100,,,,,,,Space,keypress(Space),,,,,,,,-- --- ---- --- ------ ----- ------- ---- -- --- ------- --<br>------- ---------- ------ -- ----- -- ----- -- ---- ------<br>--- ----- --- --- ------ -------- ----- --- ------ ----- --<br>----- ----- ---------- --- --- ------ ------ ---- -- ------<br>------- --- ------ ----- --- ---- ------- an ---- --- --<br>------- ------,262684,262683.39999985695,262370.022,262377,262386.724,262686.754,,50,an
screen,html.Screen,2_1_1_1_51,2022-05-02T13:53:37.577Z,,,,,,,,,,,,,,,,,54,,,,,,,,,,,,,,295.94599980924977,,response,,,,100,,,,,,,Space,keypress(Space),,,,,,,,-- --- ---- --- ------ ----- ------- ---- -- --- ------- --<br>------- ---------- ------ -- ----- -- ----- -- ---- ------<br>--- ----- --- --- ------ -------- ----- --- ------ ----- --<br>----- ----- ---------- --- --- ------ ------ ---- -- ------<br>------- --- ------ ----- --- ---- ------- -- easy --- --<br>------- ------,262983.7999999523,262982.69999980927,262670.138,262684.19999980927,262686.754,262986.949,,51,easy
screen,html.Screen,2_1_1_1_52,2022-05-02T13:53:37.934Z,,,,,,,,,,,,,,,,,54,,,,,,,,,,,,,,352.6509999046102,,response,,,,100,,,,,,,Space,keypress(Space),,,,,,,,-- --- ---- --- ------ ----- ------- ---- -- --- ------- --<br>------- ---------- ------ -- ----- -- ----- -- ---- ------<br>--- ----- --- --- ------ -------- ----- --- ------ ----- --<br>----- ----- ---------- --- --- ------ ------ ---- -- ------<br>------- --- ------ ----- --- ---- ------- -- ---- way --<br>------- ------,263340.69999980927,263339.59999990463,262970.333,262984,262986.949,263353.801,,52,way
screen,html.Screen,2_1_1_1_53,2022-05-02T13:53:38.275Z,,,,,,,,,,,,,,,,,54,,,,,,,,,,,,,,326.8989998092875,,response,,,,100,,,,,,,Space,keypress(Space),,,,,,,,-- --- ---- --- ------ ----- ------- ---- -- --- ------- --<br>------- ---------- ------ -- ----- -- ----- -- ---- ------<br>--- ----- --- --- ------ -------- ----- --- ------ ----- --<br>----- ----- ---------- --- --- ------ ------ ---- -- ------<br>------- --- ------ ----- --- ---- ------- -- ---- --- of<br>------- ------,263681.89999985695,263680.69999980927,263337.185,263340.89999985695,263353.801,263687.185,,53,of
screen,html.Screen,2_1_1_1_54,2022-05-02T13:53:38.738Z,,,,,,,,,,,,,,,,,54,,,,,,,,,,,,,,456.8150000000023,,response,,,,100,,,,,,,Space,keypress(Space),,,,,,,,-- --- ---- --- ------ ----- ------- ---- -- --- ------- --<br>------- ---------- ------ -- ----- -- ----- -- ---- ------<br>--- ----- --- --- ------ -------- ----- --- ------ ----- --<br>----- ----- ---------- --- --- ------ ------ ---- -- ------<br>------- --- ------ ----- --- ---- ------- -- ---- --- --<br>raising ------,264145.2999999523,264144,263670.589,263682.09999990463,263687.185,264154.082,,54,raising
screen,html.Screen,2_1_1_1_55,2022-05-02T13:53:39.309Z,,,,,,,,,,,,,,,,,54,,,,,,,,,,,,,,560.317999856954,,response,,,,100,,,,,,,Space,keypress(Space),,,,,,,,-- --- ---- --- ------ ----- ------- ---- -- --- ------- --<br>------- ---------- ------ -- ----- -- ----- -- ---- ------<br>--- ----- --- --- ------ -------- ----- --- ------ ----- --<br>----- ----- ---------- --- --- ------ ------ ---- -- ------<br>------- --- ------ ----- --- ---- ------- -- ---- --- --<br>------- money.,264715.89999985695,264714.39999985695,264137.518,264145.5,264154.082,264721.034,,55,money.
Item 100,flow.Loop,2_1_1_1,2022-05-02T13:53:39.310Z,,,,,,,,,,,,,,,,,,,,,,,,,,,,,,,24854.452999856963,,completion,,,,,G,,,,,,,,,,,silence,,,,,264716.59999990463,264714.39999985695,239843.204,239844.79999995232,239859.947,264721.034,,,
Question 1,html.Screen,2_1_1_2,2022-05-02T13:53:47.017Z,,,,,,,,,,,,,,,,,,,,,,,,,,,,true,TRUE,,7702.0659999046475,,response,,,,100,G,,,,,,TRUE,click #choice-1,,,,silence,,,,,272424,272423.09999990463,264704.38,264717,264721.034,272454.945,,,
Question 2,html.Screen,2_1_1_3,2022-05-02T13:53:50.009Z,,,,,,,,,,,,,,,,,,,,,,,,,,,,true,FALSE,,2960.254999809258,,response,,,,100,G,,,,,,FALSE,click #choice-2,,,,silence,,,,,275416,275415.19999980927,272407.721,272424.19999980927,272454.945,275425.848,,,
Item 100,flow.Sequence,2_1_1,2022-05-02T13:53:50.009Z,,,,,,,,,,,,,,,,,,,,,,,,,,,,,,,45559.709999809274,,completion,,,,,,,,,,,,,,,,,,,,,275416.09999990463,275415.19999980927,229838.799,229832.5,229855.49,275425.848,,,
End of Practice,html.Page,2_1_2,2022-05-02T13:53:57.985Z,,,,,,,,,,,,,,,,,,,,,,,,,,,,,,,7966.051999856951,,form submission,,,,,,,,,,,,,,,,,,,,,283392.09999990463,283391.89999985695,275409.177,275416.2999999523,275425.848,283395.92,,,
Practice,flow.Sequence,2_1,2022-05-02T13:53:57.985Z,,,,,,,,,,,,,,,,,,,,,,,,,,,,,,,107877.20299985696,,completion,,,,,,,,,,,,,,,,,,,,,283392.2999999523,283391.89999985695,175497.961,175489.19999980927,175514.697,283395.92,,,
Trap_instruction,html.Page,2_2_0,2022-05-02T13:54:04.281Z,,,,,,,,,,,,,,,,,,,,,,,,,,,,,,,6292.080000000016,,form submission,,,,,,,,,,,,,,,,,,,,,289688.19999980927,289688,283379.313,283392.5,283395.92,289698.709,,,
trap_trial,html.Screen,2_2_1,2022-05-02T13:54:07.761Z,,,,,,,,,,,,,,,,,,,,,,,,,,,,true,1,,3468.390999904659,,response,,,,,,,,,,,1,click #choice-1,,,,,,,,,293168,293167.09999990463,289682.117,289688.2999999523,289698.709,293183.623,,,
end of trap trial,html.Page,2_2_2,2022-05-02T13:54:11.465Z,,,,,,,,,,,,,,,,,,,,,,,,,,,,,,,3688.5769998092437,,form submission,,,,,,,,,,,,,,,,,,,,,296872.39999985695,296872.19999980927,293167.103,293168.09999990463,293183.623,296885.406,,,
Trap 1,flow.Sequence,2_2,2022-05-02T13:54:11.465Z,,,,,,,,,,,,,,,,,,,,,,,,,,,,,,,13476.279999809281,,completion,,,,,,,,,,,,,,,,,,,,,296872.5,296872.19999980927,283379.313,283392.39999985695,283395.92,296885.406,,,
Standby,html.Page,2_3_0,2022-05-02T13:54:19.471Z,,,,,,,,,,,,,,,,,,,,,,,,,,,,,,,8003.514999999956,,timeout,,,,,,,,,,,,,,,,,,,,,304873,304872.167,296868.749,296872.59999990463,296885.406,304888.921,,,
Holding screen,html.Screen,2_3_1_0_0,2022-05-02T13:54:26.474Z,,,,,,,,,,,,,,,,,,,,,,,,,,,,,,,7003.025000000023,,timeout,,,,,,,,,,,,,,,,,,,,,311876.39999985695,311875.39,304872.167,304873.09999990463,304888.921,311891.946,,,
screen,html.Screen,2_3_1_0_1_0,2022-05-02T13:54:27.667Z,,,,,,,,,,,,,,,,,40,,,,,,,,,,,,,,1176.6539999046363,,response,,,,9,G,,,,,,Space,keypress(Space),,,,instrumental,,,,Police -- ------- ---- ---- ---- - -------- ----- --- --<br>----- ----- ------ -- ---- -- --- - ---- -- - ----- -----<br>------ ---- ------ ---- - -------- ------- -- --- --------<br>-------- ----------- ---- ------ ---- ------ ---- --- ---<br>-------- --- -----,313069.2999999523,313068.59999990463,311875.39,311876.89999985695,311891.946,313075.843,,0,Police
screen,html.Screen,2_3_1_0_1_1,2022-05-02T13:54:28.181Z,,,,,,,,,,,,,,,,,40,,,,,,,,,,,,,,506.2569999046391,,response,,,,9,G,,,,,,Space,keypress(Space),,,,instrumental,,,,------ in ------- ---- ---- ---- - -------- ----- --- --<br>----- ----- ------ -- ---- -- --- - ---- -- - ----- -----<br>------ ---- ------ ---- - -------- ------- -- --- --------<br>-------- ----------- ---- ------ ---- ------ ---- --- ---<br>-------- --- -----,313583.2999999523,313582.09999990463,313059.176,313069.39999985695,313075.843,313592.702,,1,in
screen,html.Screen,2_3_1_0_1_2,2022-05-02T13:54:28.648Z,,,,,,,,,,,,,,,,,40,,,,,,,,,,,,,,455.7980000000098,,response,,,,9,G,,,,,,Space,keypress(Space),,,,instrumental,,,,------ -- Georgia ---- ---- ---- - -------- ----- --- --<br>----- ----- ------ -- ---- -- --- - ---- -- - ----- -----<br>------ ---- ------ ---- - -------- ------- -- --- --------<br>-------- ----------- ---- ------ ---- ------ ---- --- ---<br>-------- --- -----,314049.59999990463,314048.5,313576.162,313583.59999990463,313592.702,314059.567,,2,Georgia
screen,html.Screen,2_3_1_0_1_3,2022-05-02T13:54:29.071Z,,,,,,,,,,,,,,,,,40,,,,,,,,,,,,,,412.7329999523354,,response,,,,9,G,,,,,,Space,keypress(Space),,,,instrumental,,,,------ -- ------- have ---- ---- - -------- ----- --- --<br>----- ----- ------ -- ---- -- --- - ---- -- - ----- -----<br>------ ---- ------ ---- - -------- ------- -- --- --------<br>-------- ----------- ---- ------ ---- ------ ---- --- ---<br>-------- --- -----,314473.39999985695,314472.2999999523,314043.014,314049.89999985695,314059.567,314476.499,,3,have
screen,html.Screen,2_3_1_0_1_4,2022-05-02T13:54:29.501Z,,,,,,,,,,,,,,,,,40,,,,,,,,,,,,,,425.10099990462186,,response,,,,9,G,,,,,,Space,keypress(Space),,,,instrumental,,,,------ -- ------- ---- shut ---- - -------- ----- --- --<br>----- ----- ------ -- ---- -- --- - ---- -- - ----- -----<br>------ ---- ------ ---- - -------- ------- -- --- --------<br>-------- ----------- ---- ------ ---- ------ ---- --- ---<br>-------- --- -----,314903,314901.59999990463,314459.806,314473.69999980927,314476.499,314909.967,,4,shut
screen,html.Screen,2_3_1_0_1_5,2022-05-02T13:54:29.881Z,,,,,,,,,,,,,,,,,40,,,,,,,,,,,,,,372.1329999046284,,response,,,,9,G,,,,,,Space,keypress(Space),,,,instrumental,,,,------ -- ------- ---- ---- down - -------- ----- --- --<br>----- ----- ------ -- ---- -- --- - ---- -- - ----- -----<br>------ ---- ------ ---- - -------- ------- -- --- --------<br>-------- ----------- ---- ------ ---- ------ ---- --- ---<br>-------- --- -----,315282.7999999523,315282.09999990463,314893.334,314903.19999980927,314909.967,315293.579,,5,down
screen,html.Screen,2_3_1_0_1_6,2022-05-02T13:54:30.274Z,,,,,,,,,,,,,,,,,40,,,,,,,,,,,,,,380.920999999973,,response,,,,9,G,,,,,,Space,keypress(Space),,,,instrumental,,,,------ -- ------- ---- ---- ---- a -------- ----- --- --<br>----- ----- ------ -- ---- -- --- - ---- -- - ----- -----<br>------ ---- ------ ---- - -------- ------- -- --- --------<br>-------- ----------- ---- ------ ---- ------ ---- --- ---<br>-------- --- -----,315675.69999980927,315674.5,315276.839,315283,315293.579,315700.929,,6,a
screen,html.Screen,2_3_1_0_1_7,2022-05-02T13:54:30.636Z,,,,,,,,,,,,,,,,,40,,,,,,,,,,,,,,336.2709998092614,,response,,,,9,G,,,,,,Space,keypress(Space),,,,instrumental,,,,------ -- ------- ---- ---- ---- - lemonade ----- --- --<br>----- ----- ------ -- ---- -- --- - ---- -- - ----- -----<br>------ ---- ------ ---- - -------- ------- -- --- --------<br>-------- ----------- ---- ------ ---- ------ ---- --- ---<br>-------- --- -----,316038.09999990463,316037.19999980927,315660.401,315675.89999985695,315700.929,316043.959,,7,lemonade
screen,html.Screen,2_3_1_0_1_8,2022-05-02T13:54:31.101Z,,,,,,,,,,,,,,,,,40,,,,,,,,,,,,,,457.7409998092917,,response,,,,9,G,,,,,,Space,keypress(Space),,,,instrumental,,,,------ -- ------- ---- ---- ---- - -------- stand --- --<br>----- ----- ------ -- ---- -- --- - ---- -- - ----- -----<br>------ ---- ------ ---- - -------- ------- -- --- --------<br>-------- ----------- ---- ------ ---- ------ ---- --- ---<br>-------- --- -----,316503.39999985695,316501.69999980927,316027.257,316038.39999985695,316043.959,316510.851,,8,stand
screen,html.Screen,2_3_1_0_1_9,2022-05-02T13:54:31.609Z,,,,,,,,,,,,,,,,,40,,,,,,,,,,,,,,499.04899985692464,,response,,,,9,G,,,,,,Space,keypress(Space),,,,instrumental,,,,------ -- ------- ---- ---- ---- - -------- ----- run --<br>----- ----- ------ -- ---- -- --- - ---- -- - ----- -----<br>------ ---- ------ ---- - -------- ------- -- --- --------<br>-------- ----------- ---- ------ ---- ------ ---- --- ---<br>-------- --- -----,317011.2999999523,317009.89999985695,316494.064,316503.59999990463,316510.851,317027.826,,9,run
screen,html.Screen,2_3_1_0_1_10,2022-05-02T13:54:32.170Z,,,,,,,,,,,,,,,,,40,,,,,,,,,,,,,,542.5739998569479,,response,,,,9,G,,,,,,Space,keypress(Space),,,,instrumental,,,,------ -- ------- ---- ---- ---- - -------- ----- --- by<br>----- ----- ------ -- ---- -- --- - ---- -- - ----- -----<br>------ ---- ------ ---- - -------- ------- -- --- --------<br>-------- ----------- ---- ------ ---- ------ ---- --- ---<br>-------- --- -----,317571.69999980927,317570.39999985695,317010.958,317011.59999990463,317027.826,317577.859,,10,by
screen,html.Screen,2_3_1_0_1_11,2022-05-02T13:54:32.577Z,,,,,,,,,,,,,,,,,40,,,,,,,,,,,,,,400.94099995231954,,response,,,,9,G,,,,,,Space,keypress(Space),,,,instrumental,,,,------ -- ------- ---- ---- ---- - -------- ----- --- --<br>three ----- ------ -- ---- -- --- - ---- -- - ----- -----<br>------ ---- ------ ---- - -------- ------- -- --- --------<br>-------- ----------- ---- ------ ---- ------ ---- --- ---<br>-------- --- -----,317979.2999999523,317978.7999999523,317561.198,317571.89999985695,317577.859,317994.827,,11,three
screen,html.Screen,2_3_1_0_1_12,2022-05-02T13:54:32.937Z,,,,,,,,,,,,,,,,,40,,,,,,,,,,,,,,343.6730000000098,,response,,,,9,G,,,,,,Space,keypress(Space),,,,instrumental,,,,------ -- ------- ---- ---- ---- - -------- ----- --- --<br>----- girls ------ -- ---- -- --- - ---- -- - ----- -----<br>------ ---- ------ ---- - -------- ------- -- --- --------<br>-------- ----------- ---- ------ ---- ------ ---- --- ---<br>-------- --- -----,318339.2999999523,318338.5,317978.065,317979.39999985695,317994.827,318344.838,,12,girls
screen,html.Screen,2_3_1_0_1_13,2022-05-02T13:54:33.438Z,,,,,,,,,,,,,,,,,40,,,,,,,,,,,,,,494.46199995232746,,response,,,,9,G,,,,,,Space,keypress(Space),,,,instrumental,,,,------ -- ------- ---- ---- ---- - -------- ----- --- --<br>----- ----- trying -- ---- -- --- - ---- -- - ----- -----<br>------ ---- ------ ---- - -------- ------- -- --- --------<br>-------- ----------- ---- ------ ---- ------ ---- --- ---<br>-------- --- -----,318840.39999985695,318839.2999999523,318328.274,318339.39999985695,318344.838,318845.075,,13,trying
screen,html.Screen,2_3_1_0_1_14,2022-05-02T13:54:33.836Z,,,,,,,,,,,,,,,,,40,,,,,,,,,,,,,,392.6249998092535,,response,,,,9,G,,,,,,Space,keypress(Space),,,,instrumental,,,,------ -- ------- ---- ---- ---- - -------- ----- --- --<br>----- ----- ------ to ---- -- --- - ---- -- - ----- -----<br>------ ---- ------ ---- - -------- ------- -- --- --------<br>-------- ----------- ---- ------ ---- ------ ---- --- ---<br>-------- --- -----,319238.19999980927,319237.69999980927,318828.511,318840.69999980927,318845.075,319245.352,,14,to
screen,html.Screen,2_3_1_0_1_15,2022-05-02T13:54:34.219Z,,,,,,,,,,,,,,,,,40,,,,,,,,,,,,,,374.9479999523028,,response,,,,9,G,,,,,,Space,keypress(Space),,,,instrumental,,,,------ -- ------- ---- ---- ---- - -------- ----- --- --<br>----- ----- ------ -- save -- --- - ---- -- - ----- -----<br>------ ---- ------ ---- - -------- ------- -- --- --------<br>-------- ----------- ---- ------ ---- ------ ---- --- ---<br>-------- --- -----,319621.2999999523,319620.2999999523,319228.657,319238.39999985695,319245.352,319628.82,,15,save
screen,html.Screen,2_3_1_0_1_16,2022-05-02T13:54:34.621Z,,,,,,,,,,,,,,,,,40,,,,,,,,,,,,,,393.2799999046256,,response,,,,9,G,,,,,,Space,keypress(Space),,,,instrumental,,,,------ -- ------- ---- ---- ---- - -------- ----- --- --<br>----- ----- ------ -- ---- up --- - ---- -- - ----- -----<br>------ ---- ------ ---- - -------- ------- -- --- --------<br>-------- ----------- ---- ------ ---- ------ ---- --- ---<br>-------- --- -----,320023.2999999523,320022.09999990463,319612.156,319621.39999985695,319628.82,320028.955,,16,up
screen,html.Screen,2_3_1_0_1_17,2022-05-02T13:54:34.988Z,,,,,,,,,,,,,,,,,40,,,,,,,,,,,,,,360.94499985693255,,response,,,,9,G,,,,,,Space,keypress(Space),,,,instrumental,,,,------ -- ------- ---- ---- ---- - -------- ----- --- --<br>----- ----- ------ -- ---- -- for - ---- -- - ----- -----<br>------ ---- ------ ---- - -------- ------- -- --- --------<br>-------- ----------- ---- ------ ---- ------ ---- --- ---<br>-------- --- -----,320390.5,320389.89999985695,320012.257,320023.59999990463,320028.955,320395.749,,17,for
screen,html.Screen,2_3_1_0_1_18,2022-05-02T13:54:35.366Z,,,,,,,,,,,,,,,,,40,,,,,,,,,,,,,,371.4509998092544,,response,,,,9,G,,,,,,Space,keypress(Space),,,,instrumental,,,,------ -- ------- ---- ---- ---- - -------- ----- --- --<br>----- ----- ------ -- ---- -- --- a ---- -- - ----- -----<br>------ ---- ------ ---- - -------- ------- -- --- --------<br>-------- ----------- ---- ------ ---- ------ ---- --- ---<br>-------- --- -----,320768.39999985695,320767.19999980927,320379.109,320390.69999980927,320395.749,320779.449,,18,a
screen,html.Screen,2_3_1_0_1_19,2022-05-02T13:54:35.751Z,,,,,,,,,,,,,,,,,40,,,,,,,,,,,,,,371.9509998569265,,response,,,,9,G,,,,,,Space,keypress(Space),,,,instrumental,,,,------ -- ------- ---- ---- ---- - -------- ----- --- --<br>----- ----- ------ -- ---- -- --- - trip -- - ----- -----<br>------ ---- ------ ---- - -------- ------- -- --- --------<br>-------- ----------- ---- ------ ---- ------ ---- --- ---<br>-------- --- -----,321152.7999999523,321151.39999985695,320762.62,320768.69999980927,320779.449,321162.812,,19,trip
screen,html.Screen,2_3_1_0_1_20,2022-05-02T13:54:36.085Z,,,,,,,,,,,,,,,,,40,,,,,,,,,,,,,,323.2879999046563,,response,,,,9,G,,,,,,Space,keypress(Space),,,,instrumental,,,,------ -- ------- ---- ---- ---- - -------- ----- --- --<br>----- ----- ------ -- ---- -- --- - ---- to - ----- -----<br>------ ---- ------ ---- - -------- ------- -- --- --------<br>-------- ----------- ---- ------ ---- ------ ---- --- ---<br>-------- --- -----,321487.5,321486.09999990463,321146.085,321153,321162.812,321496.224,,20,to
screen,html.Screen,2_3_1_0_1_21,2022-05-02T13:54:36.417Z,,,,,,,,,,,,,,,,,40,,,,,,,,,,,,,,321.1759998569614,,response,,,,9,G,,,,,,Space,keypress(Space),,,,instrumental,,,,------ -- ------- ---- ---- ---- - -------- ----- --- --<br>----- ----- ------ -- ---- -- --- - ---- -- a ----- -----<br>------ ---- ------ ---- - -------- ------- -- --- --------<br>-------- ----------- ---- ------ ---- ------ ---- --- ---<br>-------- --- -----,321818.59999990463,321817.39999985695,321479.649,321487.7999999523,321496.224,321829.919,,21,a
screen,html.Screen,2_3_1_0_1_22,2022-05-02T13:54:36.750Z,,,,,,,,,,,,,,,,,40,,,,,,,,,,,,,,321.0810000000056,,response,,,,9,G,,,,,,Space,keypress(Space),,,,instrumental,,,,------ -- ------- ---- ---- ---- - -------- ----- --- --<br>----- ----- ------ -- ---- -- --- - ---- -- - water -----<br>------ ---- ------ ---- - -------- ------- -- --- --------<br>-------- ----------- ---- ------ ---- ------ ---- --- ---<br>-------- --- -----,322152.39999985695,322151,321813.075,321818.7999999523,321829.919,322163.315,,22,water
screen,html.Screen,2_3_1_0_1_23,2022-05-02T13:54:37.269Z,,,,,,,,,,,,,,,,,40,,,,,,,,,,,,,,506.78499990463024,,response,,,,9,G,,,,,,Space,keypress(Space),,,,instrumental,,,,"------ -- ------- ---- ---- ---- - -------- ----- --- --<br>----- ----- ------ -- ---- -- --- - ---- -- - ----- park,<br>------ ---- ------ ---- - -------- ------- -- --- --------<br>-------- ----------- ---- ------ ---- ------ ---- --- ---<br>-------- --- -----",322671.59999990463,322670.09999990463,322146.545,322152.69999980927,322163.315,322680.136,,23,"park,"
screen,html.Screen,2_3_1_0_1_24,2022-05-02T13:54:38.128Z,,,,,,,,,,,,,,,,,40,,,,,,,,,,,,,,849.0639998092665,,response,,,,9,G,,,,,,Space,keypress(Space),,,,instrumental,,,,------ -- ------- ---- ---- ---- - -------- ----- --- --<br>----- ----- ------ -- ---- -- --- - ---- -- - ----- -----<br>saying ---- ------ ---- - -------- ------- -- --- --------<br>-------- ----------- ---- ------ ---- ------ ---- --- ---<br>-------- --- -----,323530.39999985695,323529.19999980927,322663.398,322671.69999980927,322680.136,323547.227,,24,saying
screen,html.Screen,2_3_1_0_1_25,2022-05-02T13:54:38.574Z,,,,,,,,,,,,,,,,,40,,,,,,,,,,,,,,428.0729999523028,,response,,,,9,G,,,,,,Space,keypress(Space),,,,instrumental,,,,------ -- ------- ---- ---- ---- - -------- ----- --- --<br>----- ----- ------ -- ---- -- --- - ---- -- - ----- -----<br>------ they ------ ---- - -------- ------- -- --- --------<br>-------- ----------- ---- ------ ---- ------ ---- --- ---<br>-------- --- -----,323976.5,323975.2999999523,323530.506,323533.7999999523,323547.227,323980.702,,25,they
screen,html.Screen,2_3_1_0_1_26,2022-05-02T13:54:39.005Z,,,,,,,,,,,,,,,,,40,,,,,,,,,,,,,,425.4979998092749,,response,,,,9,G,,,,,,Space,keypress(Space),,,,instrumental,,,,------ -- ------- ---- ---- ---- - -------- ----- --- --<br>----- ----- ------ -- ---- -- --- - ---- -- - ----- -----<br>------ ---- didn't ---- - -------- ------- -- --- --------<br>-------- ----------- ---- ------ ---- ------ ---- --- ---<br>-------- --- -----,324407.19999980927,324406.19999980927,323964.038,323976.7999999523,323980.702,324414.255,,26,didn't
screen,html.Screen,2_3_1_0_1_27,2022-05-02T13:54:39.348Z,,,,,,,,,,,,,,,,,40,,,,,,,,,,,,,,334.9449998092605,,response,,,,9,G,,,,,,Space,keypress(Space),,,,instrumental,,,,------ -- ------- ---- ---- ---- - -------- ----- --- --<br>----- ----- ------ -- ---- -- --- - ---- -- - ----- -----<br>------ ---- ------ have - -------- ------- -- --- --------<br>-------- ----------- ---- ------ ---- ------ ---- --- ---<br>-------- --- -----,324750.39999985695,324749.19999980927,324397.619,324407.39999985695,324414.255,324764.524,,27,have
screen,html.Screen,2_3_1_0_1_28,2022-05-02T13:54:39.639Z,,,,,,,,,,,,,,,,,40,,,,,,,,,,,,,,275.4760000000242,,response,,,,9,G,,,,,,Space,keypress(Space),,,,instrumental,,,,------ -- ------- ---- ---- ---- - -------- ----- --- --<br>----- ----- ------ -- ---- -- --- - ---- -- - ----- -----<br>------ ---- ------ ---- a -------- ------- -- --- --------<br>-------- ----------- ---- ------ ---- ------ ---- --- ---<br>-------- --- -----,325041.19999980927,325040,324747.722,324750.59999990463,324764.524,325047.866,,28,a
screen,html.Screen,2_3_1_0_1_29,2022-05-02T13:54:40.022Z,,,,,,,,,,,,,,,,,40,,,,,,,,,,,,,,375.4339999523363,,response,,,,9,G,,,,,,Space,keypress(Space),,,,instrumental,,,,------ -- ------- ---- ---- ---- - -------- ----- --- --<br>----- ----- ------ -- ---- -- --- - ---- -- - ----- -----<br>------ ---- ------ ---- - business ------- -- --- --------<br>-------- ----------- ---- ------ ---- ------ ---- --- ---<br>-------- --- -----,325424.5,325423.2999999523,325031.179,325041.69999980927,325047.866,325431.365,,29,business
screen,html.Screen,2_3_1_0_1_30,2022-05-02T13:54:40.425Z,,,,,,,,,,,,,,,,,40,,,,,,,,,,,,,,395.33499980927445,,response,,,,9,G,,,,,,Space,keypress(Space),,,,instrumental,,,,------ -- ------- ---- ---- ---- - -------- ----- --- --<br>----- ----- ------ -- ---- -- --- - ---- -- - ----- -----<br>------ ---- ------ ---- - -------- license -- --- --------<br>-------- ----------- ---- ------ ---- ------ ---- --- ---<br>-------- --- -----,325827.2999999523,325826.69999980927,325414.739,325424.69999980927,325431.365,325831.625,,30,license
screen,html.Screen,2_3_1_0_1_31,2022-05-02T13:54:41.068Z,,,,,,,,,,,,,,,,,40,,,,,,,,,,,,,,637.4749999046326,,response,,,,9,G,,,,,,Space,keypress(Space),,,,instrumental,,,,------ -- ------- ---- ---- ---- - -------- ----- --- --<br>----- ----- ------ -- ---- -- --- - ---- -- - ----- -----<br>------ ---- ------ ---- - -------- ------- or --- --------<br>-------- ----------- ---- ------ ---- ------ ---- --- ---<br>-------- --- -----,326470.2999999523,326469.09999990463,325814.916,325827.39999985695,325831.625,326481.799,,31,or
screen,html.Screen,2_3_1_0_1_32,2022-05-02T13:54:41.460Z,,,,,,,,,,,,,,,,,40,,,,,,,,,,,,,,379.20100000000093,,response,,,,9,G,,,,,,Space,keypress(Space),,,,instrumental,,,,------ -- ------- ---- ---- ---- - -------- ----- --- --<br>----- ----- ------ -- ---- -- --- - ---- -- - ----- -----<br>------ ---- ------ ---- - -------- ------- -- the --------<br>-------- ----------- ---- ------ ---- ------ ---- --- ---<br>-------- --- -----,326862.19999980927,326861,326465.162,326470.5,326481.799,326865.317,,32,the
screen,html.Screen,2_3_1_0_1_33,2022-05-02T13:54:41.809Z,,,,,,,,,,,,,,,,,40,,,,,,,,,,,,,,344.1830000000191,,response,,,,9,G,,,,,,Space,keypress(Space),,,,instrumental,,,,------ -- ------- ---- ---- ---- - -------- ----- --- --<br>----- ----- ------ -- ---- -- --- - ---- -- - ----- -----<br>------ ---- ------ ---- - -------- ------- -- --- required<br>-------- ----------- ---- ------ ---- ------ ---- --- ---<br>-------- --- -----,327210.69999980927,327209.5,326848.64,326862.5,326865.317,327215.421,,33,required
screen,html.Screen,2_3_1_0_1_34,2022-05-02T13:54:42.142Z,,,,,,,,,,,,,,,,,40,,,,,,,,,,,,,,327.6789999046596,,response,,,,9,G,,,,,,Space,keypress(Space),,,,instrumental,,,,------ -- ------- ---- ---- ---- - -------- ----- --- --<br>----- ----- ------ -- ---- -- --- - ---- -- - ----- -----<br>------ ---- ------ ---- - -------- ------- -- --- --------<br>permits. ----------- ---- ------ ---- ------ ---- --- ---<br>-------- --- -----,327544.19999980927,327543.09999990463,327198.796,327211,327215.421,327548.971,,34,permits.
screen,html.Screen,2_3_1_0_1_35,2022-05-02T13:54:43.096Z,,,,,,,,,,,,,,,,,40,,,,,,,,,,,,,,947.628999904613,,response,,,,9,G,,,,,,Space,keypress(Space),,,,instrumental,,,,------ -- ------- ---- ---- ---- - -------- ----- --- --<br>----- ----- ------ -- ---- -- --- - ---- -- - ----- -----<br>------ ---- ------ ---- - -------- ------- -- --- --------<br>-------- Morningstar ---- ------ ---- ------ ---- --- ---<br>-------- --- -----,328497.69999980927,328496.59999990463,327532.342,327544.39999985695,327548.971,328521.097,,35,Morningstar
screen,html.Screen,2_3_1_0_1_36,2022-05-02T13:54:43.439Z,,,,,,,,,,,,,,,,,40,,,,,,,,,,,,,,318.80299985694,,response,,,,9,G,,,,,,Space,keypress(Space),,,,instrumental,,,,------ -- ------- ---- ---- ---- - -------- ----- --- --<br>----- ----- ------ -- ---- -- --- - ---- -- - ----- -----<br>------ ---- ------ ---- - -------- ------- -- --- --------<br>-------- ----------- says ------ ---- ------ ---- --- ---<br>-------- --- -----,328841.09999990463,328839.89999985695,328482.633,328497.89999985695,328521.097,328849.531,,36,says
screen,html.Screen,2_3_1_0_1_37,2022-05-02T13:54:43.725Z,,,,,,,,,,,,,,,,,40,,,,,,,,,,,,,,276.46899999998277,,response,,,,9,G,,,,,,Space,keypress(Space),,,,instrumental,,,,------ -- ------- ---- ---- ---- - -------- ----- --- --<br>----- ----- ------ -- ---- -- --- - ---- -- - ----- -----<br>------ ---- ------ ---- - -------- ------- -- --- --------<br>-------- ----------- ---- police ---- ------ ---- --- ---<br>-------- --- -----,329127.19999980927,329126,328832.871,328841.39999985695,328849.531,329132.949,,37,police
screen,html.Screen,2_3_1_0_1_38,2022-05-02T13:54:44.235Z,,,,,,,,,,,,,,,,,40,,,,,,,,,,,,,,503.55099999997765,,response,,,,9,G,,,,,,Space,keypress(Space),,,,instrumental,,,,------ -- ------- ---- ---- ---- - -------- ----- --- --<br>----- ----- ------ -- ---- -- --- - ---- -- - ----- -----<br>------ ---- ------ ---- - -------- ------- -- --- --------<br>-------- ----------- ---- ------ also ------ ---- --- ---<br>-------- --- -----,329637.2999999523,329636.5,329116.307,329127.5,329132.949,329649.927,,38,also
screen,html.Screen,2_3_1_0_1_39,2022-05-02T13:54:44.602Z,,,,,,,,,,,,,,,,,40,,,,,,,,,,,,,,352.57299999997485,,response,,,,9,G,,,,,,Space,keypress(Space),,,,instrumental,,,,------ -- ------- ---- ---- ---- - -------- ----- --- --<br>----- ----- ------ -- ---- -- --- - ---- -- - ----- -----<br>------ ---- ------ ---- - -------- ------- -- --- --------<br>-------- ----------- ---- ------ ---- didn't ---- --- ---<br>-------- --- -----,330003.59999990463,330002.5,329633.255,329637.5,329649.927,330016.882,,39,didn't
screen,html.Screen,2_3_1_0_1_40,2022-05-02T13:54:45.064Z,,,,,,,,,,,,,,,,,40,,,,,,,,,,,,,,448.0179998569656,,response,,,,9,G,,,,,,Space,keypress(Space),,,,instrumental,,,,------ -- ------- ---- ---- ---- - -------- ----- --- --<br>----- ----- ------ -- ---- -- --- - ---- -- - ----- -----<br>------ ---- ------ ---- - -------- ------- -- --- --------<br>-------- ----------- ---- ------ ---- ------ know --- ---<br>-------- --- -----,330466.2999999523,330464.89999985695,330000.044,330003.89999985695,330016.882,330483.682,,40,know
screen,html.Screen,2_3_1_0_1_41,2022-05-02T13:54:45.478Z,,,,,,,,,,,,,,,,,40,,,,,,,,,,,,,,394.917999904661,,response,,,,9,G,,,,,,Space,keypress(Space),,,,instrumental,,,,------ -- ------- ---- ---- ---- - -------- ----- --- --<br>----- ----- ------ -- ---- -- --- - ---- -- - ----- -----<br>------ ---- ------ ---- - -------- ------- -- --- --------<br>-------- ----------- ---- ------ ---- ------ ---- how ---<br>-------- --- -----,330879.7999999523,330878.59999990463,330466.929,330466.39999985695,330483.682,330883.746,,41,how
screen,html.Screen,2_3_1_0_1_42,2022-05-02T13:54:45.498Z,,,,,,,,,,,,,,,,,40,,,,,,,,,,,,,,15.353999904647935,,response,,,,9,G,,,,,,Space,keypress(Space),,,,instrumental,,,,------ -- ------- ---- ---- ---- - -------- ----- --- --<br>----- ----- ------ -- ---- -- --- - ---- -- - ----- -----<br>------ ---- ------ ---- - -------- ------- -- --- --------<br>-------- ----------- ---- ------ ---- ------ ---- --- the<br>-------- --- -----,330899.59999990463,330899.09999990463,330867.093,330880,330883.746,330917.142,,42,the
screen,html.Screen,2_3_1_0_1_43,2022-05-02T13:54:46.667Z,,,,,,,,,,,,,,,,,40,,,,,,,,,,,,,,1150.5579998092726,,response,,,,9,G,,,,,,Space,keypress(Space),,,,instrumental,,,,------ -- ------- ---- ---- ---- - -------- ----- --- --<br>----- ----- ------ -- ---- -- --- - ---- -- - ----- -----<br>------ ---- ------ ---- - -------- ------- -- --- --------<br>-------- ----------- ---- ------ ---- ------ ---- --- ---<br>lemonade --- -----,332068.89999985695,332067.69999980927,330900.417,330899.69999980927,330917.142,332084.392,,43,lemonade
screen,html.Screen,2_3_1_0_1_44,2022-05-02T13:54:47.064Z,,,,,,,,,,,,,,,,,40,,,,,,,,,,,,,,380.3079998092726,,response,,,,9,G,,,,,,Space,keypress(Space),,,,instrumental,,,,------ -- ------- ---- ---- ---- - -------- ----- --- --<br>----- ----- ------ -- ---- -- --- - ---- -- - ----- -----<br>------ ---- ------ ---- - -------- ------- -- --- --------<br>-------- ----------- ---- ------ ---- ------ ---- --- ---<br>-------- was -----,332466.09999990463,332464.69999980927,332067.625,332069.09999990463,332084.392,332490.88,,44,was
screen,html.Screen,2_3_1_0_1_45,2022-05-02T13:54:47.759Z,,,,,,,,,,,,,,,,,40,,,,,,,,,,,,,,669.1199999999953,,response,,,,9,G,,,,,,Space,keypress(Space),,,,instrumental,,,,------ -- ------- ---- ---- ---- - -------- ----- --- --<br>----- ----- ------ -- ---- -- --- - ---- -- - ----- -----<br>------ ---- ------ ---- - -------- ------- -- --- --------<br>-------- ----------- ---- ------ ---- ------ ---- --- ---<br>-------- --- made.,333161.39999985695,333160,332451.175,332466.39999985695,332490.88,333168.065,,45,made.
Item 9,flow.Loop,2_3_1_0_1,2022-05-02T13:54:47.760Z,,,,,,,,,,,,,,,,,,,,,,,,,,,,,,,21268.054000000004,,completion,,,,,,,,,,,,,,,,,,,,,333162,333160,311875.39,311876.69999980927,311891.946,333168.065,,,
