sender,sender_type,sender_id,timestamp,meta,,Blues,Classical,Country,Dance,Electronic,Folk,Gospel,Hip-Hop,Jazz,Latin,Musical/Film,New-age,Pop,Prolific_id,Provo_ID,R&B,Rap,Reggae,Religious,Rock,Soul,Swing,Traditional,age,artist_name,correct,correctResponse,distraction,duration,education,ended_on,familiarity,gender,headphone_check_performance,item,list,music_frequency,offensiveness,pleasantness,position_correct,preference,response,response_action,snippet_file,song_name,song_rating,sound,stimulus_1,stimulus_2,stimulus_3,text,time_commit,time_end,time_render,time_run,time_show,time_switch,url,word,word_ID
Prolific ID,html.Form,0,2022-05-02T13:44:47.467Z,"{""labjs_version"":""20.2.2"",""labjs_build"":{""flavor"":""production"",""commit"":""a25486e0c714a0ae2ce03ff94b7bb6896854dcfa""},""location"":""https://run.pavlovia.org/mvasilev/prolific3_music_g/"",""userAgent"":""Mozilla/5.0 (Macintosh; Intel Mac OS X 10_15_7) AppleWebKit/537.36 (KHTML, like Gecko) Chrome/100.0.4896.127 Safari/537.36"",""platform"":""MacIntel"",""language"":""en-GB"",""locale"":""en-GB"",""timeZone"":""Europe/London"",""timezoneOffset"":-60,""screen_width"":1440,""screen_height"":900,""scroll_width"":1366,""scroll_height"":748,""window_innerWidth"":1366,""window_innerHeight"":796,""devicePixelRatio"":2}",,,,,,,,,,,,,,,600c6dd17a49d53a5f347ceb,,,,,,,,,,,,,,,20324.31100000298,,form submission,,,,,,,,,,,,,,,,,,,,,34294.10000000894,34293.70000000298,13952.722,13965.60000000894,13969.389,34303.603,{},,
Introduction,html.Screen,1_0,2022-05-02T13:49:34.508Z,,,,,,,,,,,,,,,,,,,,,,,,,,,,,,,287033.79700000596,,response,,,,,,,,,,,continue,click button,,,,,,,,,321345.5,321337.40000000596,34286.936,34294.29999999702,34303.603,321345.61,,,
Volume calibration,html.Screen,1_1,2022-05-02T13:49:53.938Z,,,,,,,,,,,,,,,,,,,,,,,,,,,,,,,19424.990000008955,,response,,,,,,,,,,,continue,click button,,,,,,,,,340775.5,340770.60000000894,321328.943,321345.799999997,321345.61,340782.79,,,
Task instructions,html.Screen,1_2,2022-05-02T13:50:02.078Z,,,,,,,,,,,,,,,,,,,,,,,,,,,,,,,8131.210000000021,,response,,,,,,,,,,,continue,click button,,,,,,,,,348916.700000003,348914,340766.123,340775.60000000894,340782.79,348916.53,,,
Sounds,html.Screen,1_3_0_0,2022-05-02T13:50:06.315Z,,,,,,,,,,,,,,,,,,,,,,,,,,,,,,,4250.084999999963,,timeout,,,,,,,,,3,,,,,,,,O,I,S,,353153.5,353149.948,348899.863,348917.200000003,348916.53,353166.615,,,
Judgement,html.Screen,1_3_0_1,2022-05-02T13:50:07.167Z,,,,,,,,,,,,,,,,,,,,,,,,,,,,true,3,,834.1849999970291,,response,,,,,,,,,3,,3,click #choice-3,,,,,O,I,S,,354005.200000003,354000.799999997,353149.948,353153.60000000894,353166.615,354016.85,,,
Trial,flow.Sequence,1_3_0,2022-05-02T13:50:07.167Z,,,,,,,,,,,,,,,,,,,,,,,,,,,,,,,5084.269999996992,,completion,,,,,,,,,3,,,,,,,,O,I,S,,354005.700000003,354000.799999997,348899.863,348917.10000000894,348916.53,354016.85,,,
Sounds,html.Screen,1_3_1_0,2022-05-02T13:50:11.415Z,,,,,,,,,,,,,,,,,,,,,,,,,,,,,,,4250.085000000021,,timeout,,,,,,,,,2,,,,,,,,O,S,I,,358253.200000003,358250.268,354000.183,354006.10000000894,354016.85,358266.935,,,
Judgement,html.Screen,1_3_1_1,2022-05-02T13:50:11.975Z,,,,,,,,,,,,,,,,,,,,,,,,,,,,true,2,,543.9650000059628,,response,,,,,,,,,2,,2,click #choice-2,,,,,O,S,I,,358813.60000000894,358810.90000000596,358250.268,358253.40000000596,358266.935,358816.946,,,
Trial,flow.Sequence,1_3_1,2022-05-02T13:50:11.975Z,,,,,,,,,,,,,,,,,,,,,,,,,,,,,,,4794.050000005984,,completion,,,,,,,,,2,,,,,,,,O,S,I,,358814.10000000894,358810.90000000596,354000.183,354005.700000003,354016.85,358816.946,,,
Sounds,html.Screen,1_3_2_0,2022-05-02T13:50:16.214Z,,,,,,,,,,,,,,,,,,,,,,,,,,,,,,,4250.085000000021,,timeout,,,,,,,,,1,,,,,,,,S,O,I,,363053.299999997,363050.364,358800.279,358814.40000000596,358816.946,363067.031,,,
Judgement,html.Screen,1_3_2_1,2022-05-02T13:50:17.624Z,,,,,,,,,,,,,,,,,,,,,,,,,,,,true,1,,1392.9689999999828,,response,,,,,,,,,1,,1,click #choice-1,,,,,S,O,I,,364462.5,364460,363050.364,363053.60000000894,363067.031,364467.261,,,
Trial,flow.Sequence,1_3_2,2022-05-02T13:50:17.624Z,,,,,,,,,,,,,,,,,,,,,,,,,,,,,,,5643.054000000004,,completion,,,,,,,,,1,,,,,,,,S,O,I,,364463.10000000894,364460,358800.279,358814.299999997,358816.946,364467.261,,,
Sounds,html.Screen,1_3_3_0,2022-05-02T13:50:21.864Z,,,,,,,,,,,,,,,,,,,,,,,,,,,,,,,4250.085000000021,,timeout,,,,,,,,,1,,,,,,,,S,I,O,,368703.200000003,368700.679,364450.594,364463.40000000596,364467.261,368717.346,,,
Judgement,html.Screen,1_3_3_1,2022-05-02T13:50:22.846Z,,,,,,,,,,,,,,,,,,,,,,,,,,,,true,1,,965.6539999999804,,response,,,,,,,,,1,,1,click #choice-1,,,,,S,I,O,,369684.700000003,369683,368700.679,368703.60000000894,368717.346,369684.032,,,
Trial,flow.Sequence,1_3_3,2022-05-02T13:50:22.846Z,,,,,,,,,,,,,,,,,,,,,,,,,,,,,,,5215.739000000001,,completion,,,,,,,,,1,,,,,,,,S,I,O,,369685,369683,364450.594,364463.299999997,364467.261,369684.032,,,
Sounds,html.Screen,1_3_4_0,2022-05-02T13:50:27.082Z,,,,,,,,,,,,,,,,,,,,,,,,,,,,,,,4250.085000000021,,timeout,,,,,,,,,2,,,,,,,,I,S,O,,373920.799999997,373917.45,369667.365,369685.10000000894,369684.032,373934.117,,,
Judgement,html.Screen,1_3_4_1,2022-05-02T13:50:27.691Z,,,,,,,,,,,,,,,,,,,,,,,,,,,,true,2,,594.1829999969923,,response,,,,,,,,,2,,2,click #choice-2,,,,,I,S,O,,374530.5,374528.299999997,373917.45,373921,373934.117,374534.342,,,
Trial,flow.Sequence,1_3_4,2022-05-02T13:50:27.692Z,,,,,,,,,,,,,,,,,,,,,,,,,,,,,,,4844.267999997013,,completion,,,,,,,,,2,,,,,,,,I,S,O,,374530.799999997,374528.299999997,369667.365,369685.10000000894,369684.032,374534.342,,,
Sounds,html.Screen,1_3_5_0,2022-05-02T13:50:31.931Z,,,,,,,,,,,,,,,,,,,,,,,,,,,,,,,4250.085000000021,,timeout,,,,,,,,,3,,,,,,,,I,O,S,,378770.200000003,378767.76,374517.675,374531,374534.342,378784.427,,,
Judgement,html.Screen,1_3_5_1,2022-05-02T13:50:32.675Z,,,,,,,,,,,,,,,,,,,,,,,,,,,,true,3,,727.4730000059353,,response,,,,,,,,,3,,3,click #choice-3,,,,,I,O,S,,379514.60000000894,379511.90000000596,378767.76,378770.60000000894,378784.427,379517.775,,,
Trial,flow.Sequence,1_3_5,2022-05-02T13:50:32.676Z,,,,,,,,,,,,,,,,,,,,,,,,,,,,,,,4977.558000005956,,completion,,,,,,,,,3,,,,,,,,I,O,S,,379514.90000000596,379511.90000000596,374517.675,374530.90000000596,374534.342,379517.775,,,
Task,flow.Loop,1_3,2022-05-02T13:50:32.682Z,,,,,,,,,,,,,,,,,,,,,,,,,,,,,,,30595.370000005933,,completion,,,1,,,,,,,,,,,,,,,,,,379521.90000000596,379511.90000000596,348899.863,348917,348916.53,379517.775,,,
Trap,html.Screen,1_4,2022-05-02T13:50:32.684Z,,,,,,,,,,,,,,,,,,,,,,,,,,,,,,,NaN,,skipped,,,,,,,,,,,,,,,,,,,,,379523,379511.90000000596,,379523,,379517.775,,,
Thanks,html.Screen,1_5,2022-05-02T13:50:40.013Z,,,,,,,,,,,,,,,,,,,,,,,,,,,,,,,7332.224999999977,,response,,,,,,,,,,,continue,click button,,,,,,,,,386852.40000000596,386850,379501.108,379523.10000000894,379517.775,389401.554,,,
Headphone screening,flow.Sequence,1,2022-05-02T13:50:40.013Z,,,,,,,,,,,,,,,,,,,,,,,,,,,,,,,352546.397,,completion,,,,,,,,,,,,,,,,,,,,,386852.700000003,386850,34286.936,34294.29999999702,34303.603,389401.554,,,
Instructions,html.Page,2_0,2022-05-02T13:50:45.317Z,,,,,,,,,,,,,,,,,,,,,,,,,,,,,,,2754.8460000059567,,form submission,,,,,,,,,,,,,,,,,,,,,392156.799999997,392156.40000000596,389384.887,389390.299999997,389401.554,392168.276,,,
Holding screen,html.Screen,2_1_0_0,2022-05-02T13:50:55.314Z,,,,,,,,,,,,,,,,,,,,,,,,,,,,,,,10000.457999999984,,timeout,,,,,,,,,,,,,,,,,,,,,402154.5,402152.067,392151.609,392157.10000000894,392168.276,402168.734,,,
screen,html.Screen,2_1_0_1_0,2022-05-02T13:50:57.233Z,,,,,,,,,,,,,,,,,53,,,,,,,,,,,,,,1896.4660000029835,,response,,,,99,,,,,,,Space,keypress(Space),,,,,,,,When -- ----- -- ------ - ------- --- ----------<br>------------- ------ ------ ---- ---- ------- ----- -- ----<br>-------- ------- -- ---------- --- - --- ----- ----- ----<br>---- --- --- ----- --- ---- ---- ------- ----- ---- -------<br>--- --- -- ----- -- --- ---- -- --- ---- -- ------ ------<br>--- ----- -- ----,404073.700000003,404065.200000003,402152.067,402154.90000000596,402168.734,404085.439,,0,When
screen,html.Screen,2_1_0_1_1,2022-05-02T13:50:58.849Z,,,,,,,,,,,,,,,,,53,,,,,,,,,,,,,,1597.9610000059474,,response,,,,99,,,,,,,Space,keypress(Space),,,,,,,,---- it ----- -- ------ - ------- --- ----------<br>------------- ------ ------ ---- ---- ------- ----- -- ----<br>-------- ------- -- ---------- --- - --- ----- ----- ----<br>---- --- --- ----- --- ---- ---- ------- ----- ---- -------<br>--- --- -- ----- -- --- ---- -- --- ---- -- ------ ------<br>--- ----- -- ----,405689,405683.40000000596,404068.772,404074,404085.439,405702.138,,1,it
screen,html.Screen,2_1_0_1_2,2022-05-02T13:50:59.498Z,,,,,,,,,,,,,,,,,53,,,,,,,,,,,,,,628.7620000059833,,response,,,,99,,,,,,,Space,keypress(Space),,,,,,,,---- -- comes -- ------ - ------- --- ----------<br>------------- ------ ------ ---- ---- ------- ----- -- ----<br>-------- ------- -- ---------- --- - --- ----- ----- ----<br>---- --- --- ----- --- ---- ---- ------- ----- ---- -------<br>--- --- -- ----- -- --- ---- -- --- ---- -- ------ ------<br>--- ----- -- ----,406338,406330.90000000596,405685.471,405689.200000003,405702.138,406352.151,,2,comes
screen,html.Screen,2_1_0_1_3,2022-05-02T13:51:00.300Z,,,,,,,,,,,,,,,,,53,,,,,,,,,,,,,,782.9490000089281,,response,,,,99,,,,,,,Space,keypress(Space),,,,,,,,---- -- ----- to ------ - ------- --- ----------<br>------------- ------ ------ ---- ---- ------- ----- -- ----<br>-------- ------- -- ---------- --- - --- ----- ----- ----<br>---- --- --- ----- --- ---- ---- ------- ----- ---- -------<br>--- --- -- ----- -- --- ---- -- --- ---- -- ------ ------<br>--- ----- -- ----,407140.799999997,407135.10000000894,406335.484,406338.200000003,406352.151,407152.167,,3,to
screen,html.Screen,2_1_0_1_4,2022-05-02T13:51:01.019Z,,,,,,,,,,,,,,,,,53,,,,,,,,,,,,,,702.0330000029644,,response,,,,99,,,,,,,Space,keypress(Space),,,,,,,,---- -- ----- -- having - ------- --- ----------<br>------------- ------ ------ ---- ---- ------- ----- -- ----<br>-------- ------- -- ---------- --- - --- ----- ----- ----<br>---- --- --- ----- --- ---- ---- ------- ----- ---- -------<br>--- --- -- ----- -- --- ---- -- --- ---- -- ------ ------<br>--- ----- -- ----,407859.299999997,407854.200000003,407135.5,407141,407152.167,407868.848,,4,having
screen,html.Screen,2_1_0_1_5,2022-05-02T13:51:01.734Z,,,,,,,,,,,,,,,,,53,,,,,,,,,,,,,,700.1520000000019,,response,,,,99,,,,,,,Space,keypress(Space),,,,,,,,---- -- ----- -- ------ a ------- --- ----------<br>------------- ------ ------ ---- ---- ------- ----- -- ----<br>-------- ------- -- ---------- --- - --- ----- ----- ----<br>---- --- --- ----- --- ---- ---- ------- ----- ---- -------<br>--- --- -- ----- -- --- ---- -- --- ---- -- ------ ------<br>--- ----- -- ----,408574.299999997,408569,407852.181,407859.60000000894,407868.848,408585.529,,5,a
screen,html.Screen,2_1_0_1_6,2022-05-02T13:51:02.943Z,,,,,,,,,,,,,,,,,53,,,,,,,,,,,,,,1191.5710000089603,,response,,,,99,,,,,,,Space,keypress(Space),,,,,,,,---- -- ----- -- ------ - lasting --- ----------<br>------------- ------ ------ ---- ---- ------- ----- -- ----<br>-------- ------- -- ---------- --- - --- ----- ----- ----<br>---- --- --- ----- --- ---- ---- ------- ----- ---- -------<br>--- --- -- ----- -- --- ---- -- --- ---- -- ------ ------<br>--- ----- -- ----,409783.5,409777.10000000894,408568.862,408574.60000000894,408585.529,409785.796,,6,lasting
screen,html.Screen,2_1_0_1_7,2022-05-02T13:51:03.770Z,,,,,,,,,,,,,,,,,53,,,,,,,,,,,,,,819.4040000030072,,response,,,,99,,,,,,,Space,keypress(Space),,,,,,,,---- -- ----- -- ------ - ------- and ----------<br>------------- ------ ------ ---- ---- ------- ----- -- ----<br>-------- ------- -- ---------- --- - --- ----- ----- ----<br>---- --- --- ----- --- ---- ---- ------- ----- ---- -------<br>--- --- -- ----- -- --- ---- -- --- ---- -- ------ ------<br>--- ----- -- ----,410610.5,410605.200000003,409769.129,409783.799999997,409785.796,410619.146,,7,and
screen,html.Screen,2_1_0_1_8,2022-05-02T13:51:04.529Z,,,,,,,,,,,,,,,,,53,,,,,,,,,,,,,,745.0540000029723,,response,,,,99,,,,,,,Space,keypress(Space),,,,,,,,---- -- ----- -- ------ - ------- --- fulfilling<br>------------- ------ ------ ---- ---- ------- ----- -- ----<br>-------- ------- -- ---------- --- - --- ----- ----- ----<br>---- --- --- ----- --- ---- ---- ------- ----- ---- -------<br>--- --- -- ----- -- --- ---- -- --- ---- -- ------ ------<br>--- ----- -- ----,411369.5,411364.200000003,410602.479,410610.700000003,410619.146,411385.828,,8,fulfilling
screen,html.Screen,2_1_0_1_9,2022-05-02T13:51:05.636Z,,,,,,,,,,,,,,,,,53,,,,,,,,,,,,,,1085.3720000030007,,response,,,,99,,,,,,,Space,keypress(Space),,,,,,,,"---- -- ----- -- ------ - ------- --- ----------<br>relationship, ------ ------ ---- ---- ------- ----- -- ----<br>-------- ------- -- ---------- --- - --- ----- ----- ----<br>---- --- --- ----- --- ---- ---- ------- ----- ---- -------<br>--- --- -- ----- -- --- ---- -- --- ---- -- ------ ------<br>--- ----- -- ----",412476.40000000596,412471.200000003,411369.161,411369.700000003,411385.828,412485.85,,9,"relationship,"
screen,html.Screen,2_1_0_1_10,2022-05-02T13:51:06.328Z,,,,,,,,,,,,,,,,,53,,,,,,,,,,,,,,677.3500000030035,,response,,,,99,,,,,,,Space,keypress(Space),,,,,,,,---- -- ----- -- ------ - ------- --- ----------<br>------------- common ------ ---- ---- ------- ----- -- ----<br>-------- ------- -- ---------- --- - --- ----- ----- ----<br>---- --- --- ----- --- ---- ---- ------- ----- ---- -------<br>--- --- -- ----- -- --- ---- -- --- ---- -- ------ ------<br>--- ----- -- ----,413168.700000003,413163.200000003,412469.183,412476.700000003,412485.85,413185.864,,10,common
screen,html.Screen,2_1_0_1_11,2022-05-02T13:51:07.094Z,,,,,,,,,,,,,,,,,53,,,,,,,,,,,,,,742.4359999970184,,response,,,,99,,,,,,,Space,keypress(Space),,,,,,,,---- -- ----- -- ------ - ------- --- ----------<br>------------- ------ wisdom ---- ---- ------- ----- -- ----<br>-------- ------- -- ---------- --- - --- ----- ----- ----<br>---- --- --- ----- --- ---- ---- ------- ----- ---- -------<br>--- --- -- ----- -- --- ---- -- --- ---- -- ------ ------<br>--- ----- -- ----,413934.5,413928.299999997,413169.197,413169,413185.864,413952.546,,11,wisdom
screen,html.Screen,2_1_0_1_12,2022-05-02T13:51:07.851Z,,,,,,,,,,,,,,,,,53,,,,,,,,,,,,,,733.6540000030072,,response,,,,99,,,,,,,Space,keypress(Space),,,,,,,,---- -- ----- -- ------ - ------- --- ----------<br>------------- ------ ------ says ---- ------- ----- -- ----<br>-------- ------- -- ---------- --- - --- ----- ----- ----<br>---- --- --- ----- --- ---- ---- ------- ----- ---- -------<br>--- --- -- ----- -- --- ---- -- --- ---- -- ------ ------<br>--- ----- -- ----,414691.60000000894,414686.200000003,413935.879,413934.90000000596,413952.546,414702.561,,12,says
screen,html.Screen,2_1_0_1_13,2022-05-02T13:51:08.296Z,,,,,,,,,,,,,,,,,53,,,,,,,,,,,,,,428.63900000299327,,response,,,,99,,,,,,,Space,keypress(Space),,,,,,,,---- -- ----- -- ------ - ------- --- ----------<br>------------- ------ ------ ---- that ------- ----- -- ----<br>-------- ------- -- ---------- --- - --- ----- ----- ----<br>---- --- --- ----- --- ---- ---- ------- ----- ---- -------<br>--- --- -- ----- -- --- ---- -- --- ---- -- ------ ------<br>--- ----- -- ----,415136.200000003,415131.200000003,414685.894,414692,414702.561,415152.57,,13,that
screen,html.Screen,2_1_0_1_14,2022-05-02T13:51:08.964Z,,,,,,,,,,,,,,,,,53,,,,,,,,,,,,,,648.6300000029732,,response,,,,99,,,,,,,Space,keypress(Space),,,,,,,,---- -- ----- -- ------ - ------- --- ----------<br>------------- ------ ------ ---- ---- feeling ----- -- ----<br>-------- ------- -- ---------- --- - --- ----- ----- ----<br>---- --- --- ----- --- ---- ---- ------- ----- ---- -------<br>--- --- -- ----- -- --- ---- -- --- ---- -- ------ ------<br>--- ----- -- ----,415805.10000000894,415801.200000003,415135.903,415136.5,415152.57,415819.25,,14,feeling
screen,html.Screen,2_1_0_1_15,2022-05-02T13:51:09.374Z,,,,,,,,,,,,,,,,,53,,,,,,,,,,,,,,387.3500000089407,,response,,,,99,,,,,,,Space,keypress(Space),,,,,,,,---- -- ----- -- ------ - ------- --- ----------<br>------------- ------ ------ ---- ---- ------- close -- ----<br>-------- ------- -- ---------- --- - --- ----- ----- ----<br>---- --- --- ----- --- ---- ---- ------- ----- ---- -------<br>--- --- -- ----- -- --- ---- -- --- ---- -- ------ ------<br>--- ----- -- ----,416214.299999997,416206.60000000894,415802.583,415805.299999997,415819.25,416219.258,,15,close
screen,html.Screen,2_1_0_1_16,2022-05-02T13:51:09.770Z,,,,,,,,,,,,,,,,,53,,,,,,,,,,,,,,386.7420000000275,,response,,,,99,,,,,,,Space,keypress(Space),,,,,,,,---- -- ----- -- ------ - ------- --- ----------<br>------------- ------ ------ ---- ---- ------- ----- to ----<br>-------- ------- -- ---------- --- - --- ----- ----- ----<br>---- --- --- ----- --- ---- ---- ------- ----- ---- -------<br>--- --- -- ----- -- --- ---- -- --- ---- -- ------ ------<br>--- ----- -- ----,416610.700000003,416606,416202.591,416214.299999997,416219.258,416619.266,,16,to
screen,html.Screen,2_1_0_1_17,2022-05-02T13:51:10.123Z,,,,,,,,,,,,,,,,,53,,,,,,,,,,,,,,338.934000002977,,response,,,,99,,,,,,,Space,keypress(Space),,,,,,,,---- -- ----- -- ------ - ------- --- ----------<br>------------- ------ ------ ---- ---- ------- ----- -- your<br>-------- ------- -- ---------- --- - --- ----- ----- ----<br>---- --- --- ----- --- ---- ---- ------- ----- ---- -------<br>--- --- -- ----- -- --- ---- -- --- ---- -- ------ ------<br>--- ----- -- ----,416963.5,416958.200000003,416602.599,416610.799999997,416619.266,416969.273,,17,your
screen,html.Screen,2_1_0_1_18,2022-05-02T13:51:10.631Z,,,,,,,,,,,,,,,,,53,,,,,,,,,,,,,,497.8270000089542,,response,,,,99,,,,,,,Space,keypress(Space),,,,,,,,---- -- ----- -- ------ - ------- --- ----------<br>------------- ------ ------ ---- ---- ------- ----- -- ----<br>romantic ------- -- ---------- --- - --- ----- ----- ----<br>---- --- --- ----- --- ---- ---- ------- ----- ---- -------<br>--- --- -- ----- -- --- ---- -- --- ---- -- ------ ------<br>--- ----- -- ----,417471.5,417467.10000000894,416952.606,416963.799999997,416969.273,417485.95,,18,romantic
screen,html.Screen,2_1_0_1_19,2022-05-02T13:51:11.197Z,,,,,,,,,,,,,,,,,53,,,,,,,,,,,,,,546.9500000059488,,response,,,,99,,,,,,,Space,keypress(Space),,,,,,,,---- -- ----- -- ------ - ------- --- ----------<br>------------- ------ ------ ---- ---- ------- ----- -- ----<br>-------- partner -- ---------- --- - --- ----- ----- ----<br>---- --- --- ----- --- ---- ---- ------- ----- ---- -------<br>--- --- -- ----- -- --- ---- -- --- ---- -- ------ ------<br>--- ----- -- ----,418038.299999997,418032.90000000596,417469.283,417471.60000000894,417485.95,418052.628,,19,partner
screen,html.Screen,2_1_0_1_20,2022-05-02T13:51:11.618Z,,,,,,,,,,,,,,,,,53,,,,,,,,,,,,,,401.4720000089146,,response,,,,99,,,,,,,Space,keypress(Space),,,,,,,,---- -- ----- -- ------ - ------- --- ----------<br>------------- ------ ------ ---- ---- ------- ----- -- ----<br>-------- ------- is ---------- --- - --- ----- ----- ----<br>---- --- --- ----- --- ---- ---- ------- ----- ---- -------<br>--- --- -- ----- -- --- ---- -- --- ---- -- ------ ------<br>--- ----- -- ----,418459,418454.10000000894,418035.961,418038.5,418052.628,418469.303,,20,is
screen,html.Screen,2_1_0_1_21,2022-05-02T13:51:14.174Z,,,,,,,,,,,,,,,,,53,,,,,,,,,,,,,,2538.9969999970053,,response,,,,99,,,,,,,Space,keypress(Space),,,,,,,,---- -- ----- -- ------ - ------- --- ----------<br>------------- ------ ------ ---- ---- ------- ----- -- ----<br>-------- ------- -- paramount. --- - --- ----- ----- ----<br>---- --- --- ----- --- ---- ---- ------- ----- ---- -------<br>--- --- -- ----- -- --- ---- -- --- ---- -- ------ ------<br>--- ----- -- ----,421014.799999997,421008.299999997,418452.636,418459.299999997,418469.303,421019.584,,21,paramount.
screen,html.Screen,2_1_0_1_22,2022-05-02T13:51:14.657Z,,,,,,,,,,,,,,,,,53,,,,,,,,,,,,,,472.6160000030068,,response,,,,99,,,,,,,Space,keypress(Space),,,,,,,,---- -- ----- -- ------ - ------- --- ----------<br>------------- ------ ------ ---- ---- ------- ----- -- ----<br>-------- ------- -- ---------- But - --- ----- ----- ----<br>---- --- --- ----- --- ---- ---- ------- ----- ---- -------<br>--- --- -- ----- -- --- ---- -- --- ---- -- ------ ------<br>--- ----- -- ----,421497.40000000596,421492.200000003,421002.917,421015.10000000894,421019.584,421502.927,,22,But
screen,html.Screen,2_1_0_1_23,2022-05-02T13:51:15.079Z,,,,,,,,,,,,,,,,,53,,,,,,,,,,,,,,413.07299999997485,,response,,,,99,,,,,,,Space,keypress(Space),,,,,,,,---- -- ----- -- ------ - ------- --- ----------<br>------------- ------ ------ ---- ---- ------- ----- -- ----<br>-------- ------- -- ---------- --- a --- ----- ----- ----<br>---- --- --- ----- --- ---- ---- ------- ----- ---- -------<br>--- --- -- ----- -- --- ---- -- --- ---- -- ------ ------<br>--- ----- -- ----,421920.10000000894,421916,421486.26,421497.799999997,421502.927,421936.269,,23,a
screen,html.Screen,2_1_0_1_24,2022-05-02T13:51:15.487Z,,,,,,,,,,,,,,,,,53,,,,,,,,,,,,,,387.03099999704864,,response,,,,99,,,,,,,Space,keypress(Space),,,,,,,,---- -- ----- -- ------ - ------- --- ----------<br>------------- ------ ------ ---- ---- ------- ----- -- ----<br>-------- ------- -- ---------- --- - new ----- ----- ----<br>---- --- --- ----- --- ---- ---- ------- ----- ---- -------<br>--- --- -- ----- -- --- ---- -- --- ---- -- ------ ------<br>--- ----- -- ----,422328.40000000596,422323.299999997,421919.602,421920.40000000596,421936.269,422336.277,,24,new
screen,html.Screen,2_1_0_1_25,2022-05-02T13:51:15.949Z,,,,,,,,,,,,,,,,,53,,,,,,,,,,,,,,447.92300000297837,,response,,,,99,,,,,,,Space,keypress(Space),,,,,,,,---- -- ----- -- ------ - ------- --- ----------<br>------------- ------ ------ ---- ---- ------- ----- -- ----<br>-------- ------- -- ---------- --- - --- study ----- ----<br>---- --- --- ----- --- ---- ---- ------- ----- ---- -------<br>--- --- -- ----- -- --- ---- -- --- ---- -- ------ ------<br>--- ----- -- ----,422789.5,422784.200000003,422319.61,422328.60000000894,422336.277,422802.953,,25,study
screen,html.Screen,2_1_0_1_26,2022-05-02T13:51:16.378Z,,,,,,,,,,,,,,,,,53,,,,,,,,,,,,,,411.2470000030007,,response,,,,99,,,,,,,Space,keypress(Space),,,,,,,,---- -- ----- -- ------ - ------- --- ----------<br>------------- ------ ------ ---- ---- ------- ----- -- ----<br>-------- ------- -- ---------- --- - --- ----- finds ----<br>---- --- --- ----- --- ---- ---- ------- ----- ---- -------<br>--- --- -- ----- -- --- ---- -- --- ---- -- ------ ------<br>--- ----- -- ----,423219,423214.200000003,422786.286,422789.700000003,422802.953,423236.295,,26,finds
screen,html.Screen,2_1_0_1_27,2022-05-02T13:51:16.735Z,,,,,,,,,,,,,,,,,53,,,,,,,,,,,,,,334.10500000597676,,response,,,,99,,,,,,,Space,keypress(Space),,,,,,,,---- -- ----- -- ------ - ------- --- ----------<br>------------- ------ ------ ---- ---- ------- ----- -- ----<br>-------- ------- -- ---------- --- - --- ----- ----- that<br>---- --- --- ----- --- ---- ---- ------- ----- ---- -------<br>--- --- -- ----- -- --- ---- -- --- ---- -- ------ ------<br>--- ----- -- ----,423575.60000000894,423570.40000000596,423219.628,423219.40000000596,423236.295,423586.302,,27,that
screen,html.Screen,2_1_0_1_28,2022-05-02T13:51:17.141Z,,,,,,,,,,,,,,,,,53,,,,,,,,,,,,,,390.0980000059353,,response,,,,99,,,,,,,Space,keypress(Space),,,,,,,,---- -- ----- -- ------ - ------- --- ----------<br>------------- ------ ------ ---- ---- ------- ----- -- ----<br>-------- ------- -- ---------- --- - --- ----- ----- ----<br>it's --- --- ----- --- ---- ---- ------- ----- ---- -------<br>--- --- -- ----- -- --- ---- -- --- ---- -- ------ ------<br>--- ----- -- ----,423981.60000000894,423976.40000000596,423569.635,423575.90000000596,423586.302,423986.31,,28,it's
screen,html.Screen,2_1_0_1_29,2022-05-02T13:51:17.564Z,,,,,,,,,,,,,,,,,53,,,,,,,,,,,,,,413.290000008943,,response,,,,99,,,,,,,Space,keypress(Space),,,,,,,,---- -- ----- -- ------ - ------- --- ----------<br>------------- ------ ------ ---- ---- ------- ----- -- ----<br>-------- ------- -- ---------- --- - --- ----- ----- ----<br>---- not --- ----- --- ---- ---- ------- ----- ---- -------<br>--- --- -- ----- -- --- ---- -- --- ---- -- ------ ------<br>--- ----- -- ----,424404.90000000596,424399.60000000894,423969.643,423981.90000000596,423986.31,424419.652,,29,not
screen,html.Screen,2_1_0_1_30,2022-05-02T13:51:17.987Z,,,,,,,,,,,,,,,,,53,,,,,,,,,,,,,,403.7480000059586,,response,,,,99,,,,,,,Space,keypress(Space),,,,,,,,---- -- ----- -- ------ - ------- --- ----------<br>------------- ------ ------ ---- ---- ------- ----- -- ----<br>-------- ------- -- ---------- --- - --- ----- ----- ----<br>---- --- how ----- --- ---- ---- ------- ----- ---- -------<br>--- --- -- ----- -- --- ---- -- --- ---- -- ------ ------<br>--- ----- -- ----,424828.299999997,424823.40000000596,424402.985,424405.200000003,424419.652,424836.327,,30,how
screen,html.Screen,2_1_0_1_31,2022-05-02T13:51:18.400Z,,,,,,,,,,,,,,,,,53,,,,,,,,,,,,,,400.07300000597024,,response,,,,99,,,,,,,Space,keypress(Space),,,,,,,,---- -- ----- -- ------ - ------- --- ----------<br>------------- ------ ------ ---- ---- ------- ----- -- ----<br>-------- ------- -- ---------- --- - --- ----- ----- ----<br>---- --- --- close --- ---- ---- ------- ----- ---- -------<br>--- --- -- ----- -- --- ---- -- --- ---- -- ------ ------<br>--- ----- -- ----,425241.5,425236.40000000596,424819.66,424828.60000000894,424836.327,425253.002,,31,close
screen,html.Screen,2_1_0_1_32,2022-05-02T13:51:18.798Z,,,,,,,,,,,,,,,,,53,,,,,,,,,,,,,,381.19800000300165,,response,,,,99,,,,,,,Space,keypress(Space),,,,,,,,---- -- ----- -- ------ - ------- --- ----------<br>------------- ------ ------ ---- ---- ------- ----- -- ----<br>-------- ------- -- ---------- --- - --- ----- ----- ----<br>---- --- --- ----- you ---- ---- ------- ----- ---- -------<br>--- --- -- ----- -- --- ---- -- --- ---- -- ------ ------<br>--- ----- -- ----,425639,425634.200000003,425236.335,425241.799999997,425253.002,425653.01,,32,you
screen,html.Screen,2_1_0_1_33,2022-05-02T13:51:19.306Z,,,,,,,,,,,,,,,,,53,,,,,,,,,,,,,,487.6900000029709,,response,,,,99,,,,,,,Space,keypress(Space),,,,,,,,---- -- ----- -- ------ - ------- --- ----------<br>------------- ------ ------ ---- ---- ------- ----- -- ----<br>-------- ------- -- ---------- --- - --- ----- ----- ----<br>---- --- --- ----- --- feel ---- ------- ----- ---- -------<br>--- --- -- ----- -- --- ---- -- --- ---- -- ------ ------<br>--- ----- -- ----,426147.5,426140.700000003,425636.343,425639.200000003,425653.01,426153.02,,33,feel
screen,html.Screen,2_1_0_1_34,2022-05-02T13:51:19.770Z,,,,,,,,,,,,,,,,,53,,,,,,,,,,,,,,453.1800000029616,,response,,,,99,,,,,,,Space,keypress(Space),,,,,,,,---- -- ----- -- ------ - ------- --- ----------<br>------------- ------ ------ ---- ---- ------- ----- -- ----<br>-------- ------- -- ---------- --- - --- ----- ----- ----<br>---- --- --- ----- --- ---- that ------- ----- ---- -------<br>--- --- -- ----- -- --- ---- -- --- ---- -- ------ ------<br>--- ----- -- ----,426611.5,426606.200000003,426136.353,426147.700000003,426153.02,426619.696,,34,that
screen,html.Screen,2_1_0_1_35,2022-05-02T13:51:20.214Z,,,,,,,,,,,,,,,,,53,,,,,,,,,,,,,,427.8040000000037,,response,,,,99,,,,,,,Space,keypress(Space),,,,,,,,---- -- ----- -- ------ - ------- --- ----------<br>------------- ------ ------ ---- ---- ------- ----- -- ----<br>-------- ------- -- ---------- --- - --- ----- ----- ----<br>---- --- --- ----- --- ---- ---- matters ----- ---- -------<br>--- --- -- ----- -- --- ---- -- --- ---- -- ------ ------<br>--- ----- -- ----,427054.700000003,427047.5,426603.029,426611.700000003,426619.696,427069.705,,35,matters
screen,html.Screen,2_1_0_1_36,2022-05-02T13:51:20.750Z,,,,,,,,,,,,,,,,,53,,,,,,,,,,,,,,516.6950000059442,,response,,,,99,,,,,,,Space,keypress(Space),,,,,,,,"---- -- ----- -- ------ - ------- --- ----------<br>------------- ------ ------ ---- ---- ------- ----- -- ----<br>-------- ------- -- ---------- --- - --- ----- ----- ----<br>---- --- --- ----- --- ---- ---- ------- most, ---- -------<br>--- --- -- ----- -- --- ---- -- --- ---- -- ------ ------<br>--- ----- -- ----",427591.200000003,427586.40000000596,427053.038,427054.90000000596,427069.705,427603.049,,36,"most,"
screen,html.Screen,2_1_0_1_37,2022-05-02T13:51:21.201Z,,,,,,,,,,,,,,,,,53,,,,,,,,,,,,,,433.45100000000093,,response,,,,99,,,,,,,Space,keypress(Space),,,,,,,,---- -- ----- -- ------ - ------- --- ----------<br>------------- ------ ------ ---- ---- ------- ----- -- ----<br>-------- ------- -- ---------- --- - --- ----- ----- ----<br>---- --- --- ----- --- ---- ---- ------- ----- it's -------<br>--- --- -- ----- -- --- ---- -- --- ---- -- ------ ------<br>--- ----- -- ----,428041.90000000596,428036.5,427586.382,427591.40000000596,427603.049,428053.058,,37,it's
screen,html.Screen,2_1_0_1_38,2022-05-02T13:51:21.681Z,,,,,,,,,,,,,,,,,53,,,,,,,,,,,,,,464.14200000296114,,response,,,,99,,,,,,,Space,keypress(Space),,,,,,,,---- -- ----- -- ------ - ------- --- ----------<br>------------- ------ ------ ---- ---- ------- ----- -- ----<br>-------- ------- -- ---------- --- - --- ----- ----- ----<br>---- --- --- ----- --- ---- ---- ------- ----- ---- whether<br>--- --- -- ----- -- --- ---- -- --- ---- -- ------ ------<br>--- ----- -- ----,428522.40000000596,428517.200000003,428036.391,428042.200000003,428053.058,428536.401,,38,whether
screen,html.Screen,2_1_0_1_39,2022-05-02T13:51:22.180Z,,,,,,,,,,,,,,,,,53,,,,,,,,,,,,,,479.8989999970072,,response,,,,99,,,,,,,Space,keypress(Space),,,,,,,,---- -- ----- -- ------ - ------- --- ----------<br>------------- ------ ------ ---- ---- ------- ----- -- ----<br>-------- ------- -- ---------- --- - --- ----- ----- ----<br>---- --- --- ----- --- ---- ---- ------- ----- ---- -------<br>you --- -- ----- -- --- ---- -- --- ---- -- ------ ------<br>--- ----- -- ----,429020.90000000596,429016.299999997,428519.734,428522.700000003,428536.401,429036.411,,39,you
screen,html.Screen,2_1_0_1_40,2022-05-02T13:51:22.635Z,,,,,,,,,,,,,,,,,53,,,,,,,,,,,,,,434.9890000059386,,response,,,,99,,,,,,,Space,keypress(Space),,,,,,,,---- -- ----- -- ------ - ------- --- ----------<br>------------- ------ ------ ---- ---- ------- ----- -- ----<br>-------- ------- -- ---------- --- - --- ----- ----- ----<br>---- --- --- ----- --- ---- ---- ------- ----- ---- -------<br>--- are -- ----- -- --- ---- -- --- ---- -- ------ ------<br>--- ----- -- ----,429476.299999997,429471.40000000596,429019.744,429021.200000003,429036.411,429486.656,,40,are
screen,html.Screen,2_1_0_1_41,2022-05-02T13:51:23.094Z,,,,,,,,,,,,,,,,,53,,,,,,,,,,,,,,444.544000002963,,response,,,,99,,,,,,,Space,keypress(Space),,,,,,,,---- -- ----- -- ------ - ------- --- ----------<br>------------- ------ ------ ---- ---- ------- ----- -- ----<br>-------- ------- -- ---------- --- - --- ----- ----- ----<br>---- --- --- ----- --- ---- ---- ------- ----- ---- -------<br>--- --- as ----- -- --- ---- -- --- ---- -- ------ ------<br>--- ----- -- ----,429935.700000003,429931.200000003,429469.989,429476.5,429486.656,429953.332,,41,as
screen,html.Screen,2_1_0_1_42,2022-05-02T13:51:23.538Z,,,,,,,,,,,,,,,,,53,,,,,,,,,,,,,,420.1680000000051,,response,,,,99,,,,,,,Space,keypress(Space),,,,,,,,---- -- ----- -- ------ - ------- --- ----------<br>------------- ------ ------ ---- ---- ------- ----- -- ----<br>-------- ------- -- ---------- --- - --- ----- ----- ----<br>---- --- --- ----- --- ---- ---- ------- ----- ---- -------<br>--- --- -- close -- --- ---- -- --- ---- -- ------ ------<br>--- ----- -- ----,430378.799999997,430373.5,429936.665,429935.90000000596,429953.332,430386.674,,42,close
screen,html.Screen,2_1_0_1_43,2022-05-02T13:51:23.976Z,,,,,,,,,,,,,,,,,53,,,,,,,,,,,,,,425.82600000000093,,response,,,,99,,,,,,,Space,keypress(Space),,,,,,,,---- -- ----- -- ------ - ------- --- ----------<br>------------- ------ ------ ---- ---- ------- ----- -- ----<br>-------- ------- -- ---------- --- - --- ----- ----- ----<br>---- --- --- ----- --- ---- ---- ------- ----- ---- -------<br>--- --- -- ----- as --- ---- -- --- ---- -- ------ ------<br>--- ----- -- ----,430817.5,430812.5,430370.007,430379.200000003,430386.674,430820.016,,43,as
screen,html.Screen,2_1_0_1_44,2022-05-02T13:51:24.427Z,,,,,,,,,,,,,,,,,53,,,,,,,,,,,,,,442.48399999999674,,response,,,,99,,,,,,,Space,keypress(Space),,,,,,,,---- -- ----- -- ------ - ------- --- ----------<br>------------- ------ ------ ---- ---- ------- ----- -- ----<br>-------- ------- -- ---------- --- - --- ----- ----- ----<br>---- --- --- ----- --- ---- ---- ------- ----- ---- -------<br>--- --- -- ----- -- you ---- -- --- ---- -- ------ ------<br>--- ----- -- ----,431268.40000000596,431262.5,430803.349,430817.799999997,430820.016,431270.025,,44,you
screen,html.Screen,2_1_0_1_45,2022-05-02T13:51:24.853Z,,,,,,,,,,,,,,,,,53,,,,,,,,,,,,,,421.2749999969965,,response,,,,99,,,,,,,Space,keypress(Space),,,,,,,,---- -- ----- -- ------ - ------- --- ----------<br>------------- ------ ------ ---- ---- ------- ----- -- ----<br>-------- ------- -- ---------- --- - --- ----- ----- ----<br>---- --- --- ----- --- ---- ---- ------- ----- ---- -------<br>--- --- -- ----- -- --- want -- --- ---- -- ------ ------<br>--- ----- -- ----,431694,431691.299999997,431253.358,431268.700000003,431270.025,431703.367,,45,want
screen,html.Screen,2_1_0_1_46,2022-05-02T13:51:25.348Z,,,,,,,,,,,,,,,,,53,,,,,,,,,,,,,,481.2330000089132,,response,,,,99,,,,,,,Space,keypress(Space),,,,,,,,---- -- ----- -- ------ - ------- --- ----------<br>------------- ------ ------ ---- ---- ------- ----- -- ----<br>-------- ------- -- ---------- --- - --- ----- ----- ----<br>---- --- --- ----- --- ---- ---- ------- ----- ---- -------<br>--- --- -- ----- -- --- ---- to --- ---- -- ------ ------<br>--- ----- -- ----,432189.5,432184.60000000894,431686.7,431694.10000000894,431703.367,432203.377,,46,to
screen,html.Screen,2_1_0_1_47,2022-05-02T13:51:26.141Z,,,,,,,,,,,,,,,,,53,,,,,,,,,,,,,,774.1230000000214,,response,,,,99,,,,,,,Space,keypress(Space),,,,,,,,"---- -- ----- -- ------ - ------- --- ----------<br>------------- ------ ------ ---- ---- ------- ----- -- ----<br>-------- ------- -- ---------- --- - --- ----- ----- ----<br>---- --- --- ----- --- ---- ---- ------- ----- ---- -------<br>--- --- -- ----- -- --- ---- -- be, ---- -- ------ ------<br>--- ----- -- ----",432982.700000003,432977.5,432186.71,432189.799999997,432203.377,432986.726,,47,"be,"
screen,html.Screen,2_1_0_1_48,2022-05-02T13:51:26.608Z,,,,,,,,,,,,,,,,,53,,,,,,,,,,,,,,457.974000002956,,response,,,,99,,,,,,,Space,keypress(Space),,,,,,,,---- -- ----- -- ------ - ------- --- ----------<br>------------- ------ ------ ---- ---- ------- ----- -- ----<br>-------- ------- -- ---------- --- - --- ----- ----- ----<br>---- --- --- ----- --- ---- ---- ------- ----- ---- -------<br>--- --- -- ----- -- --- ---- -- --- even -- ------ ------<br>--- ----- -- ----,433449.60000000894,433444.700000003,432970.059,432983,432986.726,433453.402,,48,even
screen,html.Screen,2_1_0_1_49,2022-05-02T13:51:27.096Z,,,,,,,,,,,,,,,,,53,,,,,,,,,,,,,,478.09799999999814,,response,,,,99,,,,,,,Space,keypress(Space),,,,,,,,---- -- ----- -- ------ - ------- --- ----------<br>------------- ------ ------ ---- ---- ------- ----- -- ----<br>-------- ------- -- ---------- --- - --- ----- ----- ----<br>---- --- --- ----- --- ---- ---- ------- ----- ---- -------<br>--- --- -- ----- -- --- ---- -- --- ---- if ------ ------<br>--- ----- -- ----,433936.90000000596,433931.5,433436.735,433450,433453.402,433953.412,,49,if
screen,html.Screen,2_1_0_1_50,2022-05-02T13:51:27.522Z,,,,,,,,,,,,,,,,,53,,,,,,,,,,,,,,404.28800000296906,,response,,,,99,,,,,,,Space,keypress(Space),,,,,,,,---- -- ----- -- ------ - ------- --- ----------<br>------------- ------ ------ ---- ---- ------- ----- -- ----<br>-------- ------- -- ---------- --- - --- ----- ----- ----<br>---- --- --- ----- --- ---- ---- ------- ----- ---- -------<br>--- --- -- ----- -- --- ---- -- --- ---- -- that's ------<br>--- ----- -- ----,434362.90000000596,434357.700000003,433936.745,433937.10000000894,433953.412,434370.087,,50,that's
screen,html.Screen,2_1_0_1_51,2022-05-02T13:51:27.934Z,,,,,,,,,,,,,,,,,53,,,,,,,,,,,,,,400.51300000894116,,response,,,,99,,,,,,,Space,keypress(Space),,,,,,,,---- -- ----- -- ------ - ------- --- ----------<br>------------- ------ ------ ---- ---- ------- ----- -- ----<br>-------- ------- -- ---------- --- - --- ----- ----- ----<br>---- --- --- ----- --- ---- ---- ------- ----- ---- -------<br>--- --- -- ----- -- --- ---- -- --- ---- -- ------ really<br>--- ----- -- ----,434775.700000003,434770.60000000894,434353.42,434363.200000003,434370.087,434786.762,,51,really
screen,html.Screen,2_1_0_1_52,2022-05-02T13:51:28.377Z,,,,,,,,,,,,,,,,,53,,,,,,,,,,,,,,426.8380000089528,,response,,,,99,,,,,,,Space,keypress(Space),,,,,,,,---- -- ----- -- ------ - ------- --- ----------<br>------------- ------ ------ ---- ---- ------- ----- -- ----<br>-------- ------- -- ---------- --- - --- ----- ----- ----<br>---- --- --- ----- --- ---- ---- ------- ----- ---- -------<br>--- --- -- ----- -- --- ---- -- --- ---- -- ------ ------<br>not ----- -- ----,435218.799999997,435213.60000000894,434770.095,434776,434786.762,435220.104,,52,not
screen,html.Screen,2_1_0_1_53,2022-05-02T13:51:28.748Z,,,,,,,,,,,,,,,,,53,,,,,,,,,,,,,,365.1959999970277,,response,,,,99,,,,,,,Space,keypress(Space),,,,,,,,---- -- ----- -- ------ - ------- --- ----------<br>------------- ------ ------ ---- ---- ------- ----- -- ----<br>-------- ------- -- ---------- --- - --- ----- ----- ----<br>---- --- --- ----- --- ---- ---- ------- ----- ---- -------<br>--- --- -- ----- -- --- ---- -- --- ---- -- ------ ------<br>--- close -- ----,435589.799999997,435585.299999997,435203.437,435219,435220.104,435603.445,,53,close
screen,html.Screen,2_1_0_1_54,2022-05-02T13:51:29.110Z,,,,,,,,,,,,,,,,,53,,,,,,,,,,,,,,342.9550000059535,,response,,,,99,,,,,,,Space,keypress(Space),,,,,,,,---- -- ----- -- ------ - ------- --- ----------<br>------------- ------ ------ ---- ---- ------- ----- -- ----<br>-------- ------- -- ---------- --- - --- ----- ----- ----<br>---- --- --- ----- --- ---- ---- ------- ----- ---- -------<br>--- --- -- ----- -- --- ---- -- --- ---- -- ------ ------<br>--- ----- at ----,435951.40000000596,435946.40000000596,435586.778,435590,435603.445,435953.452,,54,at
screen,html.Screen,2_1_0_1_55,2022-05-02T13:51:29.675Z,,,,,,,,,,,,,,,,,53,,,,,,,,,,,,,,558.1480000089505,,response,,,,99,,,,,,,Space,keypress(Space),,,,,,,,---- -- ----- -- ------ - ------- --- ----------<br>------------- ------ ------ ---- ---- ------- ----- -- ----<br>-------- ------- -- ---------- --- - --- ----- ----- ----<br>---- --- --- ----- --- ---- ---- ------- ----- ---- -------<br>--- --- -- ----- -- --- ---- -- --- ---- -- ------ ------<br>--- ----- -- all.,436516.799999997,436511.60000000894,435936.785,435951.5,435953.452,436520.13,,55,all.
Item 99,flow.Loop,2_1_0_1,2022-05-02T13:51:29.676Z,,,,,,,,,,,,,,,,,,,,,,,,,,,,,,,34342.866000008944,,completion,,,,,G,,,,,,,,,,,silence,,,,,436517.40000000596,436511.60000000894,402152.067,402154.90000000596,402168.734,436520.13,,,
Question 1,html.Screen,2_1_0_2,2022-05-02T13:51:34.514Z,,,,,,,,,,,,,,,,,,,,,,,,,,,,true,FALSE,,4833.470000008936,,response,,,,99,G,,,,,,FALSE,click #choice-2,,,,silence,,,,,441356.10000000894,441353.60000000894,436503.463,436517.60000000894,436520.13,441370.314,,,
Question 2,html.Screen,2_1_0_3,2022-05-02T13:51:40.665Z,,,,,,,,,,,,,,,,,,,,,,,,,,,,true,TRUE,,6134.185999999987,,response,,,,99,G,,,,,,TRUE,click #choice-1,,,,silence,,,,,447506.700000003,447504.5,441353.647,441356.5,441370.314,447520.437,,,
Item 99,flow.Sequence,2_1_0,2022-05-02T13:51:40.665Z,,,,,,,,,,,,,,,,,,,,,,,,,,,,,,,55336.22399999999,,completion,,,,,,,,,,,,,,,,,,,,,447507,447504.5,392151.609,392157,392168.276,447520.437,,,
Holding screen,html.Screen,2_1_1_0,2022-05-02T13:51:50.665Z,,,,,,,,,,,,,,,,,,,,,,,,,,,,,,,10000.489000000001,,timeout,,,,,,,,,,,,,,,,,,,,,457507,457504.259,447503.77,447507.200000003,447520.437,457520.926,,,
screen,html.Screen,2_1_1_1_0,2022-05-02T13:51:52.122Z,,,,,,,,,,,,,,,,,54,,,,,,,,,,,,,,1438.674000008963,,response,,,,100,,,,,,,Space,keypress(Space),,,,,,,,At --- ---- --- ------ ----- ------- ---- -- --- ------- --<br>------- ---------- ------ -- ----- -- ----- -- ---- ------<br>--- ----- --- --- ------ -------- ----- --- ------ ----- --<br>----- ----- ---------- --- --- ------ ------ ---- -- ------<br>------- --- ------ ----- --- ---- ------- -- ---- --- --<br>------- ------,458964.799999997,458959.60000000894,457504.259,457507.299999997,457520.926,458970.955,,0,At
screen,html.Screen,2_1_1_1_1,2022-05-02T13:51:52.655Z,,,,,,,,,,,,,,,,,54,,,,,,,,,,,,,,521.7450000029639,,response,,,,100,,,,,,,Space,keypress(Space),,,,,,,,-- the ---- --- ------ ----- ------- ---- -- --- ------- --<br>------- ---------- ------ -- ----- -- ----- -- ---- ------<br>--- ----- --- --- ------ -------- ----- --- ------ ----- --<br>----- ----- ---------- --- --- ------ ------ ---- -- ------<br>------- --- ------ ----- --- ---- ------- -- ---- --- --<br>------- ------,459497.700000003,459492.700000003,458954.288,458965.10000000894,458970.955,459504.299,,1,the
screen,html.Screen,2_1_1_1_2,2022-05-02T13:51:53.169Z,,,,,,,,,,,,,,,,,54,,,,,,,,,,,,,,500.6010000059614,,response,,,,100,,,,,,,Space,keypress(Space),,,,,,,,-- --- time --- ------ ----- ------- ---- -- --- ------- --<br>------- ---------- ------ -- ----- -- ----- -- ---- ------<br>--- ----- --- --- ------ -------- ----- --- ------ ----- --<br>----- ----- ---------- --- --- ------ ------ ---- -- ------<br>------- --- ------ ----- --- ---- ------- -- ---- --- --<br>------- ------,460010.90000000596,460004.90000000596,459487.632,459498.10000000894,459504.299,460020.976,,2,time
screen,html.Screen,2_1_1_1_3,2022-05-02T13:51:53.538Z,,,,,,,,,,,,,,,,,54,,,,,,,,,,,,,,354.1240000089165,,response,,,,100,,,,,,,Space,keypress(Space),,,,,,,,-- --- ---- the ------ ----- ------- ---- -- --- ------- --<br>------- ---------- ------ -- ----- -- ----- -- ---- ------<br>--- ----- --- --- ------ -------- ----- --- ------ ----- --<br>----- ----- ---------- --- --- ------ ------ ---- -- ------<br>------- --- ------ ----- --- ---- ------- -- ---- --- --<br>------- ------,460380.10000000894,460375.10000000894,460004.309,460011.10000000894,460020.976,460387.65,,3,the
screen,html.Screen,2_1_1_1_4,2022-05-02T13:51:54.097Z,,,,,,,,,,,,,,,,,54,,,,,,,,,,,,,,547.050000002957,,response,,,,100,,,,,,,Space,keypress(Space),,,,,,,,-- --- ---- --- French ----- ------- ---- -- --- ------- --<br>------- ---------- ------ -- ----- -- ----- -- ---- ------<br>--- ----- --- --- ------ -------- ----- --- ------ ----- --<br>----- ----- ---------- --- --- ------ ------ ---- -- ------<br>------- --- ------ ----- --- ---- ------- -- ---- --- --<br>------- ------,460939.799999997,460934.700000003,460370.983,460380.40000000596,460387.65,460954.543,,4,French
screen,html.Screen,2_1_1_1_5,2022-05-02T13:51:54.554Z,,,,,,,,,,,,,,,,,54,,,,,,,,,,,,,,436.4569999999949,,response,,,,100,,,,,,,Space,keypress(Space),,,,,,,,-- --- ---- --- ------ crown ------- ---- -- --- ------- --<br>------- ---------- ------ -- ----- -- ----- -- ---- ------<br>--- ----- --- --- ------ -------- ----- --- ------ ----- --<br>----- ----- ---------- --- --- ------ ------ ---- -- ------<br>------- --- ------ ----- --- ---- ------- -- ---- --- --<br>------- ------,461396.299999997,461391,460937.876,460940,460954.543,461404.552,,5,crown
screen,html.Screen,2_1_1_1_6,2022-05-02T13:51:55.302Z,,,,,,,,,,,,,,,,,54,,,,,,,,,,,,,,733.3480000059353,,response,,,,100,,,,,,,Space,keypress(Space),,,,,,,,-- --- ---- --- ------ ----- secured ---- -- --- ------- --<br>------- ---------- ------ -- ----- -- ----- -- ---- ------<br>--- ----- --- --- ------ -------- ----- --- ------ ----- --<br>----- ----- ---------- --- --- ------ ------ ---- -- ------<br>------- --- ------ ----- --- ---- ------- -- ---- --- --<br>------- ------,462144.299999997,462137.90000000596,461387.885,461396.700000003,461404.552,462154.567,,6,secured
screen,html.Screen,2_1_1_1_7,2022-05-02T13:51:55.815Z,,,,,,,,,,,,,,,,,54,,,,,,,,,,,,,,497.4330000000191,,response,,,,100,,,,,,,Space,keypress(Space),,,,,,,,-- --- ---- --- ------ ----- ------- much -- --- ------- --<br>------- ---------- ------ -- ----- -- ----- -- ---- ------<br>--- ----- --- --- ------ -------- ----- --- ------ ----- --<br>----- ----- ---------- --- --- ------ ------ ---- -- ------<br>------- --- ------ ----- --- ---- ------- -- ---- --- --<br>------- ------,462657.10000000894,462652,462137.9,462144.40000000596,462154.567,462671.244,,7,much
screen,html.Screen,2_1_1_1_8,2022-05-02T13:51:56.301Z,,,,,,,,,,,,,,,,,54,,,,,,,,,,,,,,464.75599999999395,,response,,,,100,,,,,,,Space,keypress(Space),,,,,,,,-- --- ---- --- ------ ----- ------- ---- of --- ------- --<br>------- ---------- ------ -- ----- -- ----- -- ---- ------<br>--- ----- --- --- ------ -------- ----- --- ------ ----- --<br>----- ----- ---------- --- --- ------ ------ ---- -- ------<br>------- --- ------ ----- --- ---- ------- -- ---- --- --<br>------- ------,463143.10000000894,463136,462654.577,462657.40000000596,462671.244,463154.587,,8,of
screen,html.Screen,2_1_1_1_9,2022-05-02T13:51:56.687Z,,,,,,,,,,,,,,,,,54,,,,,,,,,,,,,,369.6130000029807,,response,,,,100,,,,,,,Space,keypress(Space),,,,,,,,-- --- ---- --- ------ ----- ------- ---- -- its ------- --<br>------- ---------- ------ -- ----- -- ----- -- ---- ------<br>--- ----- --- --- ------ -------- ----- --- ------ ----- --<br>----- ----- ---------- --- --- ------ ------ ---- -- ------<br>------- --- ------ ----- --- ---- ------- -- ---- --- --<br>------- ------,463529.40000000596,463524.200000003,463137.92,463143.299999997,463154.587,463537.928,,9,its
screen,html.Screen,2_1_1_1_10,2022-05-02T13:51:57.391Z,,,,,,,,,,,,,,,,,54,,,,,,,,,,,,,,690.972000005946,,response,,,,100,,,,,,,Space,keypress(Space),,,,,,,,-- --- ---- --- ------ ----- ------- ---- -- --- revenue --<br>------- ---------- ------ -- ----- -- ----- -- ---- ------<br>--- ----- --- --- ------ -------- ----- --- ------ ----- --<br>----- ----- ---------- --- --- ------ ------ ---- -- ------<br>------- --- ------ ----- --- ---- ------- -- ---- --- --<br>------- ------,464233.60000000894,464228.90000000596,463521.261,463529.60000000894,463537.928,464237.942,,10,revenue
screen,html.Screen,2_1_1_1_11,2022-05-02T13:51:58.036Z,,,,,,,,,,,,,,,,,54,,,,,,,,,,,,,,635.4580000059796,,response,,,,100,,,,,,,Space,keypress(Space),,,,,,,,-- --- ---- --- ------ ----- ------- ---- -- --- ------- by<br>------- ---------- ------ -- ----- -- ----- -- ---- ------<br>--- ----- --- --- ------ -------- ----- --- ------ ----- --<br>----- ----- ---------- --- --- ------ ------ ---- -- ------<br>------- --- ------ ----- --- ---- ------- -- ---- --- --<br>------- ------,464878.5,464873.40000000596,464221.275,464233.90000000596,464237.942,464887.955,,11,by
screen,html.Screen,2_1_1_1_12,2022-05-02T13:51:58.522Z,,,,,,,,,,,,,,,,,54,,,,,,,,,,,,,,471.94500000594417,,response,,,,100,,,,,,,Space,keypress(Space),,,,,,,,-- --- ---- --- ------ ----- ------- ---- -- --- ------- --<br>issuing ---------- ------ -- ----- -- ----- -- ---- ------<br>--- ----- --- --- ------ -------- ----- --- ------ ----- --<br>----- ----- ---------- --- --- ------ ------ ---- -- ------<br>------- --- ------ ----- --- ---- ------- -- ---- --- --<br>------- ------,465364.60000000894,465359.90000000596,464871.288,464878.700000003,464887.955,465371.298,,12,issuing
screen,html.Screen,2_1_1_1_13,2022-05-02T13:51:59.172Z,,,,,,,,,,,,,,,,,54,,,,,,,,,,,,,,636.9020000029705,,response,,,,100,,,,,,,Space,keypress(Space),,,,,,,,-- --- ---- --- ------ ----- ------- ---- -- --- ------- --<br>------- government ------ -- ----- -- ----- -- ---- ------<br>--- ----- --- --- ------ -------- ----- --- ------ ----- --<br>----- ----- ---------- --- --- ------ ------ ---- -- ------<br>------- --- ------ ----- --- ---- ------- -- ---- --- --<br>------- ------,466014.200000003,466008.200000003,465354.631,465364.799999997,465371.298,466021.311,,13,government
screen,html.Screen,2_1_1_1_14,2022-05-02T13:51:59.815Z,,,,,,,,,,,,,,,,,54,,,,,,,,,,,,,,630.9889999970328,,response,,,,100,,,,,,,Space,keypress(Space),,,,,,,,-- --- ---- --- ------ ----- ------- ---- -- --- ------- --<br>------- ---------- bonds. -- ----- -- ----- -- ---- ------<br>--- ----- --- --- ------ -------- ----- --- ------ ----- --<br>----- ----- ---------- --- --- ------ ------ ---- -- ------<br>------- --- ------ ----- --- ---- ------- -- ---- --- --<br>------- ------,466657.60000000894,466652.299999997,466004.644,466014.5,466021.311,466671.324,,14,bonds.
screen,html.Screen,2_1_1_1_15,2022-05-02T13:52:00.470Z,,,,,,,,,,,,,,,,,54,,,,,,,,,,,,,,636.6759999999776,,response,,,,100,,,,,,,Space,keypress(Space),,,,,,,,-- --- ---- --- ------ ----- ------- ---- -- --- ------- --<br>------- ---------- ------ In ----- -- ----- -- ---- ------<br>--- ----- --- --- ------ -------- ----- --- ------ ----- --<br>----- ----- ---------- --- --- ------ ------ ---- -- ------<br>------- --- ------ ----- --- ---- ------- -- ---- --- --<br>------- ------,467313,467308,466654.657,466657.90000000596,466671.324,467321.337,,15,In
screen,html.Screen,2_1_1_1_16,2022-05-02T13:52:01.957Z,,,,,,,,,,,,,,,,,54,,,,,,,,,,,,,,1471.8630000029807,,response,,,,100,,,,,,,Space,keypress(Space),,,,,,,,"-- --- ---- --- ------ ----- ------- ---- -- --- ------- --<br>------- ---------- ------ -- 1727, -- ----- -- ---- ------<br>--- ----- --- --- ------ -------- ----- --- ------ ----- --<br>----- ----- ---------- --- --- ------ ------ ---- -- ------<br>------- --- ------ ----- --- ---- ------- -- ---- --- --<br>------- ------",468799.40000000596,468793.200000003,467304.67,467313.200000003,467321.337,468804.7,,16,"1727,"
screen,html.Screen,2_1_1_1_17,2022-05-02T13:52:02.456Z,,,,,,,,,,,,,,,,,54,,,,,,,,,,,,,,489.29999999998836,,response,,,,100,,,,,,,Space,keypress(Space),,,,,,,,-- --- ---- --- ------ ----- ------- ---- -- --- ------- --<br>------- ---------- ------ -- ----- in ----- -- ---- ------<br>--- ----- --- --- ------ -------- ----- --- ------ ----- --<br>----- ----- ---------- --- --- ------ ------ ---- -- ------<br>------- --- ------ ----- --- ---- ------- -- ---- --- --<br>------- ------,469299,469294,468788.033,468799.700000003,468804.7,469304.71,,17,in
screen,html.Screen,2_1_1_1_18,2022-05-02T13:52:03.017Z,,,,,,,,,,,,,,,,,54,,,,,,,,,,,,,,548.3900000089197,,response,,,,100,,,,,,,Space,keypress(Space),,,,,,,,-- --- ---- --- ------ ----- ------- ---- -- --- ------- --<br>------- ---------- ------ -- ----- -- order -- ---- ------<br>--- ----- --- --- ------ -------- ----- --- ------ ----- --<br>----- ----- ---------- --- --- ------ ------ ---- -- ------<br>------- --- ------ ----- --- ---- ------- -- ---- --- --<br>------- ------,469859.799999997,469853.10000000894,469288.043,469299.40000000596,469304.71,469871.388,,18,order
screen,html.Screen,2_1_1_1_19,2022-05-02T13:52:03.446Z,,,,,,,,,,,,,,,,,54,,,,,,,,,,,,,,412.81200000300305,,response,,,,100,,,,,,,Space,keypress(Space),,,,,,,,-- --- ---- --- ------ ----- ------- ---- -- --- ------- --<br>------- ---------- ------ -- ----- -- ----- to ---- ------<br>--- ----- --- --- ------ -------- ----- --- ------ ----- --<br>----- ----- ---------- --- --- ------ ------ ---- -- ------<br>------- --- ------ ----- --- ---- ------- -- ---- --- --<br>------- ------,470289,470284.200000003,469854.721,469859.90000000596,469871.388,470304.73,,19,to
screen,html.Screen,2_1_1_1_20,2022-05-02T13:52:03.986Z,,,,,,,,,,,,,,,,,54,,,,,,,,,,,,,,519.2700000000186,,response,,,,100,,,,,,,Space,keypress(Space),,,,,,,,-- --- ---- --- ------ ----- ------- ---- -- --- ------- --<br>------- ---------- ------ -- ----- -- ----- -- save ------<br>--- ----- --- --- ------ -------- ----- --- ------ ----- --<br>----- ----- ---------- --- --- ------ ------ ---- -- ------<br>------- --- ------ ----- --- ---- ------- -- ---- --- --<br>------- ------,470828.60000000894,470824,470288.063,470289.299999997,470304.73,470838.074,,20,save
screen,html.Screen,2_1_1_1_21,2022-05-02T13:52:04.572Z,,,,,,,,,,,,,,,,,54,,,,,,,,,,,,,,571.2259999969974,,response,,,,100,,,,,,,Space,keypress(Space),,,,,,,,"-- --- ---- --- ------ ----- ------- ---- -- --- ------- --<br>------- ---------- ------ -- ----- -- ----- -- ---- money,<br>--- ----- --- --- ------ -------- ----- --- ------ ----- --<br>----- ----- ---------- --- --- ------ ------ ---- -- ------<br>------- --- ------ ----- --- ---- ------- -- ---- --- --<br>------- ------",471414.40000000596,471409.299999997,470821.407,470828.90000000596,470838.074,471421.646,,21,"money,"
screen,html.Screen,2_1_1_1_22,2022-05-02T13:52:05.079Z,,,,,,,,,,,,,,,,,54,,,,,,,,,,,,,,495.4540000089328,,response,,,,100,,,,,,,Space,keypress(Space),,,,,,,,-- --- ---- --- ------ ----- ------- ---- -- --- ------- --<br>------- ---------- ------ -- ----- -- ----- -- ---- ------<br>the ----- --- --- ------ -------- ----- --- ------ ----- --<br>----- ----- ---------- --- --- ------ ------ ---- -- ------<br>------- --- ------ ----- --- ---- ------- -- ---- --- --<br>------- ------,471922.200000003,471917.10000000894,471404.979,471414.700000003,471421.646,471938.323,,22,the
screen,html.Screen,2_1_1_1_23,2022-05-02T13:52:05.472Z,,,,,,,,,,,,,,,,,54,,,,,,,,,,,,,,371.67700000002515,,response,,,,100,,,,,,,Space,keypress(Space),,,,,,,,-- --- ---- --- ------ ----- ------- ---- -- --- ------- --<br>------- ---------- ------ -- ----- -- ----- -- ---- ------<br>--- state --- --- ------ -------- ----- --- ------ ----- --<br>----- ----- ---------- --- --- ------ ------ ---- -- ------<br>------- --- ------ ----- --- ---- ------- -- ---- --- --<br>------- ------,472314.40000000596,472310,471921.656,471922.5,471938.323,472321.664,,23,state
screen,html.Screen,2_1_1_1_24,2022-05-02T13:52:05.851Z,,,,,,,,,,,,,,,,,54,,,,,,,,,,,,,,367.2360000059707,,response,,,,100,,,,,,,Space,keypress(Space),,,,,,,,-- --- ---- --- ------ ----- ------- ---- -- --- ------- --<br>------- ---------- ------ -- ----- -- ----- -- ---- ------<br>--- ----- cut --- ------ -------- ----- --- ------ ----- --<br>----- ----- ---------- --- --- ------ ------ ---- -- ------<br>------- --- ------ ----- --- ---- ------- -- ---- --- --<br>------- ------,472693.299999997,472688.90000000596,472304.997,472314.700000003,472321.664,472705.005,,24,cut
screen,html.Screen,2_1_1_1_25,2022-05-02T13:52:06.259Z,,,,,,,,,,,,,,,,,54,,,,,,,,,,,,,,392.09500000893604,,response,,,,100,,,,,,,Space,keypress(Space),,,,,,,,-- --- ---- --- ------ ----- ------- ---- -- --- ------- --<br>------- ---------- ------ -- ----- -- ----- -- ---- ------<br>--- ----- --- the ------ -------- ----- --- ------ ----- --<br>----- ----- ---------- --- --- ------ ------ ---- -- ------<br>------- --- ------ ----- --- ---- ------- -- ---- --- --<br>------- ------,473102.10000000894,473097.10000000894,472688.338,472693.60000000894,472705.005,473105.013,,25,the
screen,html.Screen,2_1_1_1_26,2022-05-02T13:52:06.685Z,,,,,,,,,,,,,,,,,54,,,,,,,,,,,,,,417.8870000059833,,response,,,,100,,,,,,,Space,keypress(Space),,,,,,,,-- --- ---- --- ------ ----- ------- ---- -- --- ------- --<br>------- ---------- ------ -- ----- -- ----- -- ---- ------<br>--- ----- --- --- bonds' -------- ----- --- ------ ----- --<br>----- ----- ---------- --- --- ------ ------ ---- -- ------<br>------- --- ------ ----- --- ---- ------- -- ---- --- --<br>------- ------,473527.60000000894,473522.90000000596,473088.346,473102.200000003,473105.013,473538.355,,26,bonds'
screen,html.Screen,2_1_1_1_27,2022-05-02T13:52:07.230Z,,,,,,,,,,,,,,,,,54,,,,,,,,,,,,,,529.7450000089593,,response,,,,100,,,,,,,Space,keypress(Space),,,,,,,,-- --- ---- --- ------ ----- ------- ---- -- --- ------- --<br>------- ---------- ------ -- ----- -- ----- -- ---- ------<br>--- ----- --- --- ------ interest ----- --- ------ ----- --<br>----- ----- ---------- --- --- ------ ------ ---- -- ------<br>------- --- ------ ----- --- ---- ------- -- ---- --- --<br>------- ------,474073,474068.10000000894,473521.688,473527.90000000596,473538.355,474088.366,,27,interest
screen,html.Screen,2_1_1_1_28,2022-05-02T13:52:07.919Z,,,,,,,,,,,,,,,,,54,,,,,,,,,,,,,,667.0340000059805,,response,,,,100,,,,,,,Space,keypress(Space),,,,,,,,-- --- ---- --- ------ ----- ------- ---- -- --- ------- --<br>------- ---------- ------ -- ----- -- ----- -- ---- ------<br>--- ----- --- --- ------ -------- rate. --- ------ ----- --<br>----- ----- ---------- --- --- ------ ------ ---- -- ------<br>------- --- ------ ----- --- ---- ------- -- ---- --- --<br>------- ------,474762,474755.40000000596,474071.699,474073.299999997,474088.366,474771.713,,28,rate.
screen,html.Screen,2_1_1_1_29,2022-05-02T13:52:08.602Z,,,,,,,,,,,,,,,,,54,,,,,,,,,,,,,,668.4870000029914,,response,,,,100,,,,,,,Space,keypress(Space),,,,,,,,-- --- ---- --- ------ ----- ------- ---- -- --- ------- --<br>------- ---------- ------ -- ----- -- ----- -- ---- ------<br>--- ----- --- --- ------ -------- ----- The ------ ----- --<br>----- ----- ---------- --- --- ------ ------ ---- -- ------<br>------- --- ------ ----- --- ---- ------- -- ---- --- --<br>------- ------,475445.200000003,475440.200000003,474755.046,474762,474771.713,475455.06,,29,The
screen,html.Screen,2_1_1_1_30,2022-05-02T13:52:09.053Z,,,,,,,,,,,,,,,,,54,,,,,,,,,,,,,,435.14000000298256,,response,,,,100,,,,,,,Space,keypress(Space),,,,,,,,-- --- ---- --- ------ ----- ------- ---- -- --- ------- --<br>------- ---------- ------ -- ----- -- ----- -- ---- ------<br>--- ----- --- --- ------ -------- ----- --- market ----- --<br>----- ----- ---------- --- --- ------ ------ ---- -- ------<br>------- --- ------ ----- --- ---- ------- -- ---- --- --<br>------- ------,475895.5,475890.200000003,475438.393,475445.5,475455.06,475905.069,,30,market
screen,html.Screen,2_1_1_1_31,2022-05-02T13:52:09.505Z,,,,,,,,,,,,,,,,,54,,,,,,,,,,,,,,438.031000008923,,response,,,,100,,,,,,,Space,keypress(Space),,,,,,,,-- --- ---- --- ------ ----- ------- ---- -- --- ------- --<br>------- ---------- ------ -- ----- -- ----- -- ---- ------<br>--- ----- --- --- ------ -------- ----- --- ------ value --<br>----- ----- ---------- --- --- ------ ------ ---- -- ------<br>------- --- ------ ----- --- ---- ------- -- ---- --- --<br>------- ------,476347.90000000596,476343.10000000894,475888.402,475895.799999997,475905.069,476355.078,,31,value
screen,html.Screen,2_1_1_1_32,2022-05-02T13:52:09.970Z,,,,,,,,,,,,,,,,,54,,,,,,,,,,,,,,453.22199999704026,,response,,,,100,,,,,,,Space,keypress(Space),,,,,,,,-- --- ---- --- ------ ----- ------- ---- -- --- ------- --<br>------- ---------- ------ -- ----- -- ----- -- ---- ------<br>--- ----- --- --- ------ -------- ----- --- ------ ----- of<br>----- ----- ---------- --- --- ------ ------ ---- -- ------<br>------- --- ------ ----- --- ---- ------- -- ---- --- --<br>------- ------,476813.299999997,476808.299999997,476338.411,476348.10000000894,476355.078,476821.754,,32,of
screen,html.Screen,2_1_1_1_33,2022-05-02T13:52:10.428Z,,,,,,,,,,,,,,,,,54,,,,,,,,,,,,,,445.1460000059451,,response,,,,100,,,,,,,Space,keypress(Space),,,,,,,,-- --- ---- --- ------ ----- ------- ---- -- --- ------- --<br>------- ---------- ------ -- ----- -- ----- -- ---- ------<br>--- ----- --- --- ------ -------- ----- --- ------ ----- --<br>these ----- ---------- --- --- ------ ------ ---- -- ------<br>------- --- ------ ----- --- ---- ------- -- ---- --- --<br>------- ------,477271.200000003,477266.90000000596,476805.087,476813.5,476821.754,477288.43,,33,these
screen,html.Screen,2_1_1_1_34,2022-05-02T13:52:10.877Z,,,,,,,,,,,,,,,,,54,,,,,,,,,,,,,,427.6700000089477,,response,,,,100,,,,,,,Space,keypress(Space),,,,,,,,-- --- ---- --- ------ ----- ------- ---- -- --- ------- --<br>------- ---------- ------ -- ----- -- ----- -- ---- ------<br>--- ----- --- --- ------ -------- ----- --- ------ ----- --<br>----- bonds ---------- --- --- ------ ------ ---- -- ------<br>------- --- ------ ----- --- ---- ------- -- ---- --- --<br>------- ------,477720.40000000596,477716.10000000894,477271.763,477271.299999997,477288.43,477721.772,,34,bonds
screen,html.Screen,2_1_1_1_35,2022-05-02T13:52:11.651Z,,,,,,,,,,,,,,,,,54,,,,,,,,,,,,,,766.5279999970226,,response,,,,100,,,,,,,Space,keypress(Space),,,,,,,,"-- --- ---- --- ------ ----- ------- ---- -- --- ------- --<br>------- ---------- ------ -- ----- -- ----- -- ---- ------<br>--- ----- --- --- ------ -------- ----- --- ------ ----- --<br>----- ----- plummeted, --- --- ------ ------ ---- -- ------<br>------- --- ------ ----- --- ---- ------- -- ---- --- --<br>------- ------",478493.799999997,478488.299999997,477705.105,477720.60000000894,477721.772,478505.121,,35,"plummeted,"
screen,html.Screen,2_1_1_1_36,2022-05-02T13:52:12.108Z,,,,,,,,,,,,,,,,,54,,,,,,,,,,,,,,439.77900000597583,,response,,,,100,,,,,,,Space,keypress(Space),,,,,,,,-- --- ---- --- ------ ----- ------- ---- -- --- ------- --<br>------- ---------- ------ -- ----- -- ----- -- ---- ------<br>--- ----- --- --- ------ -------- ----- --- ------ ----- --<br>----- ----- ---------- and --- ------ ------ ---- -- ------<br>------- --- ------ ----- --- ---- ------- -- ---- --- --<br>------- ------,478950.60000000894,478944.90000000596,478488.454,478494,478505.121,478955.13,,36,and
screen,html.Screen,2_1_1_1_37,2022-05-02T13:52:12.562Z,,,,,,,,,,,,,,,,,54,,,,,,,,,,,,,,445.0700000029756,,response,,,,100,,,,,,,Space,keypress(Space),,,,,,,,-- --- ---- --- ------ ----- ------- ---- -- --- ------- --<br>------- ---------- ------ -- ----- -- ----- -- ---- ------<br>--- ----- --- --- ------ -------- ----- --- ------ ----- --<br>----- ----- ---------- --- the ------ ------ ---- -- ------<br>------- --- ------ ----- --- ---- ------- -- ---- --- --<br>------- ------,479405.5,479400.200000003,478938.463,478950.90000000596,478955.13,479421.806,,37,the
screen,html.Screen,2_1_1_1_38,2022-05-02T13:52:13.138Z,,,,,,,,,,,,,,,,,54,,,,,,,,,,,,,,553.6940000000177,,response,,,,100,,,,,,,Space,keypress(Space),,,,,,,,-- --- ---- --- ------ ----- ------- ---- -- --- ------- --<br>------- ---------- ------ -- ----- -- ----- -- ---- ------<br>--- ----- --- --- ------ -------- ----- --- ------ ----- --<br>----- ----- ---------- --- --- market ------ ---- -- ------<br>------- --- ------ ----- --- ---- ------- -- ---- --- --<br>------- ------,479980.700000003,479975.5,479405.139,479405.700000003,479421.806,479988.484,,38,market
screen,html.Screen,2_1_1_1_39,2022-05-02T13:52:13.595Z,,,,,,,,,,,,,,,,,54,,,,,,,,,,,,,,443.7160000029835,,response,,,,100,,,,,,,Space,keypress(Space),,,,,,,,-- --- ---- --- ------ ----- ------- ---- -- --- ------- --<br>------- ---------- ------ -- ----- -- ----- -- ---- ------<br>--- ----- --- --- ------ -------- ----- --- ------ ----- --<br>----- ----- ---------- --- --- ------ became ---- -- ------<br>------- --- ------ ----- --- ---- ------- -- ---- --- --<br>------- ------,480437.60000000894,480432.200000003,479971.817,479981,479988.484,480455.16,,39,became
screen,html.Screen,2_1_1_1_40,2022-05-02T13:52:14.026Z,,,,,,,,,,,,,,,,,54,,,,,,,,,,,,,,409.9400000089663,,response,,,,100,,,,,,,Space,keypress(Space),,,,,,,,-- --- ---- --- ------ ----- ------- ---- -- --- ------- --<br>------- ---------- ------ -- ----- -- ----- -- ---- ------<br>--- ----- --- --- ------ -------- ----- --- ------ ----- --<br>----- ----- ---------- --- --- ------ ------ wary -- ------<br>------- --- ------ ----- --- ---- ------- -- ---- --- --<br>------- ------,480869.60000000894,480865.10000000894,480438.493,480437.90000000596,480455.16,480871.835,,40,wary
screen,html.Screen,2_1_1_1_41,2022-05-02T13:52:14.481Z,,,,,,,,,,,,,,,,,54,,,,,,,,,,,,,,447.66499999997905,,response,,,,100,,,,,,,Space,keypress(Space),,,,,,,,-- --- ---- --- ------ ----- ------- ---- -- --- ------- --<br>------- ---------- ------ -- ----- -- ----- -- ---- ------<br>--- ----- --- --- ------ -------- ----- --- ------ ----- --<br>----- ----- ---------- --- --- ------ ------ ---- of ------<br>------- --- ------ ----- --- ---- ------- -- ---- --- --<br>------- ------,481324.299999997,481319.5,480855.168,480869.799999997,480871.835,481338.714,,41,of
screen,html.Screen,2_1_1_1_42,2022-05-02T13:52:14.852Z,,,,,,,,,,,,,,,,,54,,,,,,,,,,,,,,351.4860000030021,,response,,,,100,,,,,,,Space,keypress(Space),,,,,,,,-- --- ---- --- ------ ----- ------- ---- -- --- ------- --<br>------- ---------- ------ -- ----- -- ----- -- ---- ------<br>--- ----- --- --- ------ -------- ----- --- ------ ----- --<br>----- ----- ---------- --- --- ------ ------ ---- -- French<br>------- --- ------ ----- --- ---- ------- -- ---- --- --<br>------- ------,481695.200000003,481690.200000003,481322.047,481324.60000000894,481338.714,481705.388,,42,French
screen,html.Screen,2_1_1_1_43,2022-05-02T13:52:15.427Z,,,,,,,,,,,,,,,,,54,,,,,,,,,,,,,,560.0120000059833,,response,,,,100,,,,,,,Space,keypress(Space),,,,,,,,-- --- ---- --- ------ ----- ------- ---- -- --- ------- --<br>------- ---------- ------ -- ----- -- ----- -- ---- ------<br>--- ----- --- --- ------ -------- ----- --- ------ ----- --<br>----- ----- ---------- --- --- ------ ------ ---- -- ------<br>credit. --- ------ ----- --- ---- ------- -- ---- --- --<br>------- ------,482270,482265.40000000596,481688.721,481695.40000000596,481705.388,482272.066,,43,credit.
screen,html.Screen,2_1_1_1_44,2022-05-02T13:52:16.088Z,,,,,,,,,,,,,,,,,54,,,,,,,,,,,,,,654.2339999970281,,response,,,,100,,,,,,,Space,keypress(Space),,,,,,,,-- --- ---- --- ------ ----- ------- ---- -- --- ------- --<br>------- ---------- ------ -- ----- -- ----- -- ---- ------<br>--- ----- --- --- ------ -------- ----- --- ------ ----- --<br>----- ----- ---------- --- --- ------ ------ ---- -- ------<br>------- The ------ ----- --- ---- ------- -- ---- --- --<br>------- ------,482931.299999997,482926.299999997,482255.399,482270.299999997,482272.066,482938.746,,44,The
screen,html.Screen,2_1_1_1_45,2022-05-02T13:52:16.611Z,,,,,,,,,,,,,,,,,54,,,,,,,,,,,,,,510.75400000001537,,response,,,,100,,,,,,,Space,keypress(Space),,,,,,,,-- --- ---- --- ------ ----- ------- ---- -- --- ------- --<br>------- ---------- ------ -- ----- -- ----- -- ---- ------<br>--- ----- --- --- ------ -------- ----- --- ------ ----- --<br>----- ----- ---------- --- --- ------ ------ ---- -- ------<br>------- --- French ----- --- ---- ------- -- ---- --- --<br>------- ------,483454.5,483449.5,482922.079,482931.60000000894,482938.746,483455.423,,45,French
screen,html.Screen,2_1_1_1_46,2022-05-02T13:52:17.096Z,,,,,,,,,,,,,,,,,54,,,,,,,,,,,,,,478.77700000297045,,response,,,,100,,,,,,,Space,keypress(Space),,,,,,,,-- --- ---- --- ------ ----- ------- ---- -- --- ------- --<br>------- ---------- ------ -- ----- -- ----- -- ---- ------<br>--- ----- --- --- ------ -------- ----- --- ------ ----- --<br>----- ----- ---------- --- --- ------ ------ ---- -- ------<br>------- --- ------ state --- ---- ------- -- ---- --- --<br>------- ------,483939.10000000894,483934.200000003,483438.756,483454.700000003,483455.423,483955.433,,46,state
screen,html.Screen,2_1_1_1_47,2022-05-02T13:52:17.507Z,,,,,,,,,,,,,,,,,54,,,,,,,,,,,,,,389.8669999970007,,response,,,,100,,,,,,,Space,keypress(Space),,,,,,,,-- --- ---- --- ------ ----- ------- ---- -- --- ------- --<br>------- ---------- ------ -- ----- -- ----- -- ---- ------<br>--- ----- --- --- ------ -------- ----- --- ------ ----- --<br>----- ----- ---------- --- --- ------ ------ ---- -- ------<br>------- --- ------ ----- was ---- ------- -- ---- --- --<br>------- ------,484350.60000000894,484345.299999997,483938.766,483939.299999997,483955.433,484355.441,,47,was
screen,html.Screen,2_1_1_1_48,2022-05-02T13:52:18.019Z,,,,,,,,,,,,,,,,,54,,,,,,,,,,,,,,501.95900000596885,,response,,,,100,,,,,,,Space,keypress(Space),,,,,,,,-- --- ---- --- ------ ----- ------- ---- -- --- ------- --<br>------- ---------- ------ -- ----- -- ----- -- ---- ------<br>--- ----- --- --- ------ -------- ----- --- ------ ----- --<br>----- ----- ---------- --- --- ------ ------ ---- -- ------<br>------- --- ------ ----- --- left ------- -- ---- --- --<br>------- ------,484862.700000003,484857.40000000596,484338.774,484351.10000000894,484355.441,484872.118,,48,left
screen,html.Screen,2_1_1_1_49,2022-05-02T13:52:18.403Z,,,,,,,,,,,,,,,,,54,,,,,,,,,,,,,,370.681999997003,,response,,,,100,,,,,,,Space,keypress(Space),,,,,,,,-- --- ---- --- ------ ----- ------- ---- -- --- ------- --<br>------- ---------- ------ -- ----- -- ----- -- ---- ------<br>--- ----- --- --- ------ -------- ----- --- ------ ----- --<br>----- ----- ---------- --- --- ------ ------ ---- -- ------<br>------- --- ------ ----- --- ---- without -- ---- --- --<br>------- ------,485246.5,485242.799999997,484855.451,484862.90000000596,484872.118,485255.459,,49,without
screen,html.Screen,2_1_1_1_50,2022-05-02T13:52:18.832Z,,,,,,,,,,,,,,,,,54,,,,,,,,,,,,,,415.941000005987,,response,,,,100,,,,,,,Space,keypress(Space),,,,,,,,-- --- ---- --- ------ ----- ------- ---- -- --- ------- --<br>------- ---------- ------ -- ----- -- ----- -- ---- ------<br>--- ----- --- --- ------ -------- ----- --- ------ ----- --<br>----- ----- ---------- --- --- ------ ------ ---- -- ------<br>------- --- ------ ----- --- ---- ------- an ---- --- --<br>------- ------,485675.5,485671.40000000596,485238.792,485246.700000003,485255.459,485688.801,,50,an
screen,html.Screen,2_1_1_1_51,2022-05-02T13:52:19.206Z,,,,,,,,,,,,,,,,,54,,,,,,,,,,,,,,356.0990000059828,,response,,,,100,,,,,,,Space,keypress(Space),,,,,,,,-- --- ---- --- ------ ----- ------- ---- -- --- ------- --<br>------- ---------- ------ -- ----- -- ----- -- ---- ------<br>--- ----- --- --- ------ -------- ----- --- ------ ----- --<br>----- ----- ---------- --- --- ------ ------ ---- -- ------<br>------- --- ------ ----- --- ---- ------- -- easy --- --<br>------- ------,486049.5,486044.90000000596,485672.134,485675.700000003,485688.801,486055.475,,51,easy
screen,html.Screen,2_1_1_1_52,2022-05-02T13:52:19.628Z,,,,,,,,,,,,,,,,,54,,,,,,,,,,,,,,410.625000008964,,response,,,,100,,,,,,,Space,keypress(Space),,,,,,,,-- --- ---- --- ------ ----- ------- ---- -- --- ------- --<br>------- ---------- ------ -- ----- -- ----- -- ---- ------<br>--- ----- --- --- ------ -------- ----- --- ------ ----- --<br>----- ----- ---------- --- --- ------ ------ ---- -- ------<br>------- --- ------ ----- --- ---- ------- -- ---- way --<br>------- ------,486471.5,486466.10000000894,486038.808,486049.700000003,486055.475,486488.817,,52,way
screen,html.Screen,2_1_1_1_53,2022-05-02T13:52:19.941Z,,,,,,,,,,,,,,,,,54,,,,,,,,,,,,,,290.48299999703886,,response,,,,100,,,,,,,Space,keypress(Space),,,,,,,,-- --- ---- --- ------ ----- ------- ---- -- --- ------- --<br>------- ---------- ------ -- ----- -- ----- -- ---- ------<br>--- ----- --- --- ------ -------- ----- --- ------ ----- --<br>----- ----- ---------- --- --- ------ ------ ---- -- ------<br>------- --- ------ ----- --- ---- ------- -- ---- --- of<br>------- ------,486784.10000000894,486779.299999997,486472.15,486471.700000003,486488.817,486788.823,,53,of
screen,html.Screen,2_1_1_1_54,2022-05-02T13:52:20.402Z,,,,,,,,,,,,,,,,,54,,,,,,,,,,,,,,451.3770000030054,,response,,,,100,,,,,,,Space,keypress(Space),,,,,,,,-- --- ---- --- ------ ----- ------- ---- -- --- ------- --<br>------- ---------- ------ -- ----- -- ----- -- ---- ------<br>--- ----- --- --- ------ -------- ----- --- ------ ----- --<br>----- ----- ---------- --- --- ------ ------ ---- -- ------<br>------- --- ------ ----- --- ---- ------- -- ---- --- --<br>raising ------,487244.90000000596,487240.200000003,486772.156,486784.5,486788.823,487255.499,,54,raising
screen,html.Screen,2_1_1_1_55,2022-05-02T13:52:20.828Z,,,,,,,,,,,,,,,,,54,,,,,,,,,,,,,,411.40100000594975,,response,,,,100,,,,,,,Space,keypress(Space),,,,,,,,-- --- ---- --- ------ ----- ------- ---- -- --- ------- --<br>------- ---------- ------ -- ----- -- ----- -- ---- ------<br>--- ----- --- --- ------ -------- ----- --- ------ ----- --<br>----- ----- ---------- --- --- ------ ------ ---- -- ------<br>------- --- ------ ----- --- ---- ------- -- ---- --- --<br>------- money.,487671.799999997,487666.90000000596,487238.832,487245.10000000894,487255.499,487688.841,,55,money.
Item 100,flow.Loop,2_1_1_1,2022-05-02T13:52:20.829Z,,,,,,,,,,,,,,,,,,,,,,,,,,,,,,,30145.974000005983,,completion,,,,,G,,,,,,,,,,,silence,,,,,487672.299999997,487666.90000000596,457504.259,457507.200000003,457520.926,487688.841,,,
Question 1,html.Screen,2_1_1_2,2022-05-02T13:52:24.419Z,,,,,,,,,,,,,,,,,,,,,,,,,,,,true,TRUE,,3571.658999999985,,response,,,,100,G,,,,,,TRUE,click #choice-1,,,,silence,,,,,491262.60000000894,491260.5,487672.174,487672.40000000596,487688.841,491272.246,,,
Question 2,html.Screen,2_1_1_3,2022-05-02T13:52:30.479Z,,,,,,,,,,,,,,,,,,,,,,,,,,,,true,FALSE,,6047.854000008956,,response,,,,100,G,,,,,,FALSE,click #choice-2,,,,silence,,,,,497322.200000003,497320.10000000894,491255.579,491262.90000000596,491272.246,497322.569,,,
Item 100,flow.Sequence,2_1_1,2022-05-02T13:52:30.479Z,,,,,,,,,,,,,,,,,,,,,,,,,,,,,,,49799.663000008964,,completion,,,,,,,,,,,,,,,,,,,,,497322.60000000894,497320.10000000894,447503.77,447507.10000000894,447520.437,497322.569,,,
End of Practice,html.Page,2_1_2,2022-05-02T13:52:34.588Z,,,,,,,,,,,,,,,,,,,,,,,,,,,,,,,4108.930999999982,,form submission,,,,,,,,,,,,,,,,,,,,,501431.90000000596,501431.5,497305.902,497322.799999997,497322.569,501439.318,,,
Practice,flow.Sequence,2_1,2022-05-02T13:52:34.588Z,,,,,,,,,,,,,,,,,,,,,,,,,,,,,,,109263.22399999999,,completion,,,,,,,,,,,,,,,,,,,,,501432.200000003,501431.5,392151.609,392157,392168.276,501439.318,,,
Trap_instruction,html.Page,2_2_0,2022-05-02T13:52:38.523Z,,,,,,,,,,,,,,,,,,,,,,,,,,,,,,,3926.582000005932,,form submission,,,,,,,,,,,,,,,,,,,,,505366.5,505365.90000000596,501422.651,501432.40000000596,501439.318,505372.73,,,
trap_trial,html.Screen,2_2_1,2022-05-02T13:52:42.054Z,,,,,,,,,,,,,,,,,,,,,,,,,,,,true,1,,3523.170000005979,,response,,,,,,,,,,,1,click #choice-1,,,,,,,,,508898.299999997,508895.90000000596,505356.063,505366.799999997,505372.73,508906.33,,,
end of trap trial,html.Page,2_2_2,2022-05-02T13:52:43.891Z,,,,,,,,,,,,,,,,,,,,,,,,,,,,,,,1827.870000002964,,form submission,,,,,,,,,,,,,,,,,,,,,510734.700000003,510734.200000003,508889.663,508898.60000000894,508906.33,510739.7,,,
Trap 1,flow.Sequence,2_2,2022-05-02T13:52:43.891Z,,,,,,,,,,,,,,,,,,,,,,,,,,,,,,,9294.882000002952,,completion,,,,,,,,,,,,,,,,,,,,,510735,510734.200000003,501422.651,501432.40000000596,501439.318,510739.7,,,
Standby,html.Page,2_3_0,2022-05-02T13:52:51.882Z,,,,,,,,,,,,,,,,,,,,,,,,,,,,,,,8000.159999999974,,timeout,,,,,,,,,,,,,,,,,,,,,518726.10000000894,518723.193,510723.033,510735.299999997,510739.7,518739.86,,,
Holding screen,html.Screen,2_3_1_0_0,2022-05-02T13:52:58.881Z,,,,,,,,,,,,,,,,,,,,,,,,,,,,,,,7000.486999999965,,timeout,,,,,,,,,,,,,,,,,,,,,525725.700000003,525723.68,518723.193,518726.5,518739.86,525740.347,,,
screen,html.Screen,2_3_1_0_1_0,2022-05-02T13:53:00.244Z,,,,,,,,,,,,,,,,,40,,,,,,,,,,,,,,1342.25300000899,,response,,,,9,G,,,,,,Space,keypress(Space),,,,instrumental,,,,Police -- ------- ---- ---- ---- - -------- ----- --- --<br>----- ----- ------ -- ---- -- --- - ---- -- - ----- -----<br>------ ---- ------ ---- - -------- ------- -- --- --------<br>-------- ----------- ---- ------ ---- ------ ---- --- ---<br>-------- --- -----,527088.400000006,527082.6000000089,525723.68,525726.299999997,525740.347,527090.374,,0,Police
screen,html.Screen,2_3_1_0_1_1,2022-05-02T13:53:00.701Z,,,,,,,,,,,,,,,,,40,,,,,,,,,,,,,,450.2260000089882,,response,,,,9,G,,,,,,Space,keypress(Space),,,,instrumental,,,,------ in ------- ---- ---- ---- - -------- ----- --- --<br>----- ----- ------ -- ---- -- --- - ---- -- - ----- -----<br>------ ---- ------ ---- - -------- ------- -- --- --------<br>-------- ----------- ---- ------ ---- ------ ---- --- ---<br>-------- --- -----,527546.1000000089,527540.6000000089,527073.707,527088.700000003,527090.374,527557.05,,1,in
screen,html.Screen,2_3_1_0_1_2,2022-05-02T13:53:01.134Z,,,,,,,,,,,,,,,,,40,,,,,,,,,,,,,,416.44999999995343,,response,,,,9,G,,,,,,Space,keypress(Space),,,,instrumental,,,,------ -- Georgia ---- ---- ---- - -------- ----- --- --<br>----- ----- ------ -- ---- -- --- - ---- -- - ----- -----<br>------ ---- ------ ---- - -------- ------- -- --- --------<br>-------- ----------- ---- ------ ---- ------ ---- --- ---<br>-------- --- -----,527978.6000000089,527973.5,527540.383,527546.299999997,527557.05,527990.392,,2,Georgia
screen,html.Screen,2_3_1_0_1_3,2022-05-02T13:53:01.775Z,,,,,,,,,,,,,,,,,40,,,,,,,,,,,,,,624.4079999970272,,response,,,,9,G,,,,,,Space,keypress(Space),,,,instrumental,,,,------ -- ------- have ---- ---- - -------- ----- --- --<br>----- ----- ------ -- ---- -- --- - ---- -- - ----- -----<br>------ ---- ------ ---- - -------- ------- -- --- --------<br>-------- ----------- ---- ------ ---- ------ ---- --- ---<br>-------- --- -----,528620.299999997,528614.799999997,527973.725,527978.900000006,527990.392,528623.738,,3,have
screen,html.Screen,2_3_1_0_1_4,2022-05-02T13:53:02.231Z,,,,,,,,,,,,,,,,,40,,,,,,,,,,,,,,446.9620000029681,,response,,,,9,G,,,,,,Space,keypress(Space),,,,instrumental,,,,------ -- ------- ---- shut ---- - -------- ----- --- --<br>----- ----- ------ -- ---- -- --- - ---- -- - ----- -----<br>------ ---- ------ ---- - -------- ------- -- --- --------<br>-------- ----------- ---- ------ ---- ------ ---- --- ---<br>-------- --- -----,529075.799999997,529070.700000003,528607.071,528620.700000003,528623.738,529090.414,,4,shut
screen,html.Screen,2_3_1_0_1_5,2022-05-02T13:53:02.598Z,,,,,,,,,,,,,,,,,40,,,,,,,,,,,,,,347.2860000029905,,response,,,,9,G,,,,,,Space,keypress(Space),,,,instrumental,,,,------ -- ------- ---- ---- down - -------- ----- --- --<br>----- ----- ------ -- ---- -- --- - ---- -- - ----- -----<br>------ ---- ------ ---- - -------- ------- -- --- --------<br>-------- ----------- ---- ------ ---- ------ ---- --- ---<br>-------- --- -----,529443.200000003,529437.700000003,529073.747,529076,529090.414,529457.088,,5,down
screen,html.Screen,2_3_1_0_1_6,2022-05-02T13:53:02.919Z,,,,,,,,,,,,,,,,,40,,,,,,,,,,,,,,301.5120000089519,,response,,,,9,G,,,,,,Space,keypress(Space),,,,instrumental,,,,------ -- ------- ---- ---- ---- a -------- ----- --- --<br>----- ----- ------ -- ---- -- --- - ---- -- - ----- -----<br>------ ---- ------ ---- - -------- ------- -- --- --------<br>-------- ----------- ---- ------ ---- ------ ---- --- ---<br>-------- --- -----,529763.799999997,529758.6000000089,529440.421,529443.400000006,529457.088,529774.04,,6,a
screen,html.Screen,2_3_1_0_1_7,2022-05-02T13:53:03.326Z,,,,,,,,,,,,,,,,,40,,,,,,,,,,,,,,392.56000000890344,,response,,,,9,G,,,,,,Space,keypress(Space),,,,instrumental,,,,------ -- ------- ---- ---- ---- - lemonade ----- --- --<br>----- ----- ------ -- ---- -- --- - ---- -- - ----- -----<br>------ ---- ------ ---- - -------- ------- -- --- --------<br>-------- ----------- ---- ------ ---- ------ ---- --- ---<br>-------- --- -----,530171.200000003,530166.6000000089,529757.373,529764.1000000089,529774.04,530174.048,,7,lemonade
screen,html.Screen,2_3_1_0_1_8,2022-05-02T13:53:03.730Z,,,,,,,,,,,,,,,,,40,,,,,,,,,,,,,,395.5520000089891,,response,,,,9,G,,,,,,Space,keypress(Space),,,,instrumental,,,,------ -- ------- ---- ---- ---- - -------- stand --- --<br>----- ----- ------ -- ---- -- --- - ---- -- - ----- -----<br>------ ---- ------ ---- - -------- ------- -- --- --------<br>-------- ----------- ---- ------ ---- ------ ---- --- ---<br>-------- --- -----,530574.6000000089,530569.6000000089,530157.381,530171.400000006,530174.048,530590.723,,8,stand
screen,html.Screen,2_3_1_0_1_9,2022-05-02T13:53:04.069Z,,,,,,,,,,,,,,,,,40,,,,,,,,,,,,,,318.77700000000186,,response,,,,9,G,,,,,,Space,keypress(Space),,,,instrumental,,,,------ -- ------- ---- ---- ---- - -------- ----- run --<br>----- ----- ------ -- ---- -- --- - ---- -- - ----- -----<br>------ ---- ------ ---- - -------- ------- -- --- --------<br>-------- ----------- ---- ------ ---- ------ ---- --- ---<br>-------- --- -----,530914.400000006,530909.5,530574.056,530574.900000006,530590.723,530924.063,,9,run
screen,html.Screen,2_3_1_0_1_10,2022-05-02T13:53:04.424Z,,,,,,,,,,,,,,,,,40,,,,,,,,,,,,,,339.6370000030147,,response,,,,9,G,,,,,,Space,keypress(Space),,,,instrumental,,,,------ -- ------- ---- ---- ---- - -------- ----- --- by<br>----- ----- ------ -- ---- -- --- - ---- -- - ----- -----<br>------ ---- ------ ---- - -------- ------- -- --- --------<br>-------- ----------- ---- ------ ---- ------ ---- --- ---<br>-------- --- -----,531268.799999997,531263.700000003,530907.396,530914.6000000089,530924.063,531274.07,,10,by
screen,html.Screen,2_3_1_0_1_11,2022-05-02T13:53:04.858Z,,,,,,,,,,,,,,,,,40,,,,,,,,,,,,,,423.729999997071,,response,,,,9,G,,,,,,Space,keypress(Space),,,,instrumental,,,,------ -- ------- ---- ---- ---- - -------- ----- --- --<br>three ----- ------ -- ---- -- --- - ---- -- - ----- -----<br>------ ---- ------ ---- - -------- ------- -- --- --------<br>-------- ----------- ---- ------ ---- ------ ---- --- ---<br>-------- --- -----,531702.799999997,531697.799999997,531257.403,531269,531274.07,531707.412,,11,three
screen,html.Screen,2_3_1_0_1_12,2022-05-02T13:53:05.307Z,,,,,,,,,,,,,,,,,40,,,,,,,,,,,,,,439.3879999970086,,response,,,,9,G,,,,,,Space,keypress(Space),,,,instrumental,,,,------ -- ------- ---- ---- ---- - -------- ----- --- --<br>----- girls ------ -- ---- -- --- - ---- -- - ----- -----<br>------ ---- ------ ---- - -------- ------- -- --- --------<br>-------- ----------- ---- ------ ---- ------ ---- --- ---<br>-------- --- -----,532152,532146.799999997,531690.745,531703.1000000089,531707.412,532157.421,,12,girls
screen,html.Screen,2_3_1_0_1_13,2022-05-02T13:53:05.830Z,,,,,,,,,,,,,,,,,40,,,,,,,,,,,,,,512.2790000030072,,response,,,,9,G,,,,,,Space,keypress(Space),,,,instrumental,,,,------ -- ------- ---- ---- ---- - -------- ----- --- --<br>----- ----- trying -- ---- -- --- - ---- -- - ----- -----<br>------ ---- ------ ---- - -------- ------- -- --- --------<br>-------- ----------- ---- ------ ---- ------ ---- --- ---<br>-------- --- -----,532675.5,532669.700000003,532140.754,532152.299999997,532157.421,532690.765,,13,trying
screen,html.Screen,2_3_1_0_1_14,2022-05-02T13:53:06.407Z,,,,,,,,,,,,,,,,,40,,,,,,,,,,,,,,556.6350000059465,,response,,,,9,G,,,,,,Space,keypress(Space),,,,instrumental,,,,------ -- ------- ---- ---- ---- - -------- ----- --- --<br>----- ----- ------ to ---- -- --- - ---- -- - ----- -----<br>------ ---- ------ ---- - -------- ------- -- --- --------<br>-------- ----------- ---- ------ ---- ------ ---- --- ---<br>-------- --- -----,533252.200000003,533247.400000006,532674.098,532675.700000003,532690.765,533257.443,,14,to
screen,html.Screen,2_3_1_0_1_15,2022-05-02T13:53:08.436Z,,,,,,,,,,,,,,,,,40,,,,,,,,,,,,,,2018.4570000059903,,response,,,,9,G,,,,,,Space,keypress(Space),,,,instrumental,,,,------ -- ------- ---- ---- ---- - -------- ----- --- --<br>----- ----- ------ -- save -- --- - ---- -- - ----- -----<br>------ ---- ------ ---- - -------- ------- -- --- --------<br>-------- ----------- ---- ------ ---- ------ ---- --- ---<br>-------- --- -----,535281,535275.900000006,533240.776,533252.400000006,533257.443,535290.817,,15,save
screen,html.Screen,2_3_1_0_1_16,2022-05-02T13:53:08.850Z,,,,,,,,,,,,,,,,,40,,,,,,,,,,,,,,398.8830000029411,,response,,,,9,G,,,,,,Space,keypress(Space),,,,instrumental,,,,------ -- ------- ---- ---- ---- - -------- ----- --- --<br>----- ----- ------ -- ---- up --- - ---- -- - ----- -----<br>------ ---- ------ ---- - -------- ------- -- --- --------<br>-------- ----------- ---- ------ ---- ------ ---- --- ---<br>-------- --- -----,535694.799999997,535689.700000003,535274.15,535281.299999997,535290.817,535707.492,,16,up
screen,html.Screen,2_3_1_0_1_17,2022-05-02T13:53:09.206Z,,,,,,,,,,,,,,,,,40,,,,,,,,,,,,,,337.70800000301097,,response,,,,9,G,,,,,,Space,keypress(Space),,,,instrumental,,,,------ -- ------- ---- ---- ---- - -------- ----- --- --<br>----- ----- ------ -- ---- -- for - ---- -- - ----- -----<br>------ ---- ------ ---- - -------- ------- -- --- --------<br>-------- ----------- ---- ------ ---- ------ ---- --- ---<br>-------- --- -----,536051.200000003,536045.200000003,535690.825,535695,535707.492,536057.499,,17,for
screen,html.Screen,2_3_1_0_1_18,2022-05-02T13:53:09.481Z,,,,,,,,,,,,,,,,,40,,,,,,,,,,,,,,263.20100000302773,,response,,,,9,G,,,,,,Space,keypress(Space),,,,instrumental,,,,------ -- ------- ---- ---- ---- - -------- ----- --- --<br>----- ----- ------ -- ---- -- --- a ---- -- - ----- -----<br>------ ---- ------ ---- - -------- ------- -- --- --------<br>-------- ----------- ---- ------ ---- ------ ---- --- ---<br>-------- --- -----,536326.200000003,536320.700000003,536040.832,536051.5,536057.499,536340.838,,18,a
screen,html.Screen,2_3_1_0_1_19,2022-05-02T13:53:09.876Z,,,,,,,,,,,,,,,,,40,,,,,,,,,,,,,,374.8620000029914,,response,,,,9,G,,,,,,Space,keypress(Space),,,,instrumental,,,,------ -- ------- ---- ---- ---- - -------- ----- --- --<br>----- ----- ------ -- ---- -- --- - trip -- - ----- -----<br>------ ---- ------ ---- - -------- ------- -- --- --------<br>-------- ----------- ---- ------ ---- ------ ---- --- ---<br>-------- --- -----,536720.900000006,536715.700000003,536324.171,536326.400000006,536340.838,536724.179,,19,trip
screen,html.Screen,2_3_1_0_1_20,2022-05-02T13:53:10.208Z,,,,,,,,,,,,,,,,,40,,,,,,,,,,,,,,323.62099999701604,,response,,,,9,G,,,,,,Space,keypress(Space),,,,instrumental,,,,------ -- ------- ---- ---- ---- - -------- ----- --- --<br>----- ----- ------ -- ---- -- --- - ---- to - ----- -----<br>------ ---- ------ ---- - -------- ------- -- --- --------<br>-------- ----------- ---- ------ ---- ------ ---- --- ---<br>-------- --- -----,537052.900000006,537047.799999997,536707.512,536721,536724.179,537057.519,,20,to
screen,html.Screen,2_3_1_0_1_21,2022-05-02T13:53:10.424Z,,,,,,,,,,,,,,,,,40,,,,,,,,,,,,,,206.1810000030091,,response,,,,9,G,,,,,,Space,keypress(Space),,,,instrumental,,,,------ -- ------- ---- ---- ---- - -------- ----- --- --<br>----- ----- ------ -- ---- -- --- - ---- -- a ----- -----<br>------ ---- ------ ---- - -------- ------- -- --- --------<br>-------- ----------- ---- ------ ---- ------ ---- --- ---<br>-------- --- -----,537269.6000000089,537263.700000003,537040.852,537053.200000003,537057.519,537274.19,,21,a
screen,html.Screen,2_3_1_0_1_22,2022-05-02T13:53:10.658Z,,,,,,,,,,,,,,,,,40,,,,,,,,,,,,,,222.71000000601634,,response,,,,9,G,,,,,,Space,keypress(Space),,,,instrumental,,,,------ -- ------- ---- ---- ---- - -------- ----- --- --<br>----- ----- ------ -- ---- -- --- - ---- -- - water -----<br>------ ---- ------ ---- - -------- ------- -- --- --------<br>-------- ----------- ---- ------ ---- ------ ---- --- ---<br>-------- --- -----,537502.799999997,537496.900000006,537257.523,537269.799999997,537274.19,537507.528,,22,water
screen,html.Screen,2_3_1_0_1_23,2022-05-02T13:53:11.689Z,,,,,,,,,,,,,,,,,40,,,,,,,,,,,,,,1022.9719999999506,,response,,,,9,G,,,,,,Space,keypress(Space),,,,instrumental,,,,"------ -- ------- ---- ---- ---- - -------- ----- --- --<br>----- ----- ------ -- ---- -- --- - ---- -- - ----- park,<br>------ ---- ------ ---- - -------- ------- -- --- --------<br>-------- ----------- ---- ------ ---- ------ ---- --- ---<br>-------- --- -----",538534,538530.5,537490.861,537503.200000003,537507.528,538540.882,,23,"park,"
screen,html.Screen,2_3_1_0_1_24,2022-05-02T13:53:12.214Z,,,,,,,,,,,,,,,,,40,,,,,,,,,,,,,,513.7180000089575,,response,,,,9,G,,,,,,Space,keypress(Space),,,,instrumental,,,,------ -- ------- ---- ---- ---- - -------- ----- --- --<br>----- ----- ------ -- ---- -- --- - ---- -- - ----- -----<br>saying ---- ------ ---- - -------- ------- -- --- --------<br>-------- ----------- ---- ------ ---- ------ ---- --- ---<br>-------- --- -----,539059.200000003,539054.6000000089,538524.215,538534.1000000089,538540.882,539074.226,,24,saying
screen,html.Screen,2_3_1_0_1_25,2022-05-02T13:53:12.552Z,,,,,,,,,,,,,,,,,40,,,,,,,,,,,,,,317.8740000089165,,response,,,,9,G,,,,,,Space,keypress(Space),,,,instrumental,,,,------ -- ------- ---- ---- ---- - -------- ----- --- --<br>----- ----- ------ -- ---- -- --- - ---- -- - ----- -----<br>------ they ------ ---- - -------- ------- -- --- --------<br>-------- ----------- ---- ------ ---- ------ ---- --- ---<br>-------- --- -----,539397.400000006,539392.1000000089,539057.559,539059.400000006,539074.226,539407.566,,25,they
screen,html.Screen,2_3_1_0_1_26,2022-05-02T13:53:12.936Z,,,,,,,,,,,,,,,,,40,,,,,,,,,,,,,,368.33400000596885,,response,,,,9,G,,,,,,Space,keypress(Space),,,,instrumental,,,,------ -- ------- ---- ---- ---- - -------- ----- --- --<br>----- ----- ------ -- ---- -- --- - ---- -- - ----- -----<br>------ ---- didn't ---- - -------- ------- -- --- --------<br>-------- ----------- ---- ------ ---- ------ ---- --- ---<br>-------- --- -----,539780.900000006,539775.900000006,539390.899,539397.700000003,539407.566,539790.907,,26,didn't
screen,html.Screen,2_3_1_0_1_27,2022-05-02T13:53:13.354Z,,,,,,,,,,,,,,,,,40,,,,,,,,,,,,,,402.89299999701325,,response,,,,9,G,,,,,,Space,keypress(Space),,,,instrumental,,,,------ -- ------- ---- ---- ---- - -------- ----- --- --<br>----- ----- ------ -- ---- -- --- - ---- -- - ----- -----<br>------ ---- ------ have - -------- ------- -- --- --------<br>-------- ----------- ---- ------ ---- ------ ---- --- ---<br>-------- --- -----,540199.1000000089,540193.799999997,539774.24,539781.1000000089,539790.907,540207.806,,27,have
screen,html.Screen,2_3_1_0_1_28,2022-05-02T13:53:13.722Z,,,,,,,,,,,,,,,,,40,,,,,,,,,,,,,,353.8940000029979,,response,,,,9,G,,,,,,Space,keypress(Space),,,,instrumental,,,,------ -- ------- ---- ---- ---- - -------- ----- --- --<br>----- ----- ------ -- ---- -- --- - ---- -- - ----- -----<br>------ ---- ------ ---- a -------- ------- -- --- --------<br>-------- ----------- ---- ------ ---- ------ ---- --- ---<br>-------- --- -----,540566.799999997,540561.700000003,540191.139,540199.200000003,540207.806,540574.48,,28,a
screen,html.Screen,2_3_1_0_1_29,2022-05-02T13:53:14.088Z,,,,,,,,,,,,,,,,,40,,,,,,,,,,,,,,354.3199999970384,,response,,,,9,G,,,,,,Space,keypress(Space),,,,instrumental,,,,------ -- ------- ---- ---- ---- - -------- ----- --- --<br>----- ----- ------ -- ---- -- --- - ---- -- - ----- -----<br>------ ---- ------ ---- - business ------- -- --- --------<br>-------- ----------- ---- ------ ---- ------ ---- --- ---<br>-------- --- -----,540933.700000003,540928.799999997,540557.813,540567.1000000089,540574.48,540941.154,,29,business
screen,html.Screen,2_3_1_0_1_30,2022-05-02T13:53:14.440Z,,,,,,,,,,,,,,,,,40,,,,,,,,,,,,,,339.5460000029998,,response,,,,9,G,,,,,,Space,keypress(Space),,,,instrumental,,,,------ -- ------- ---- ---- ---- - -------- ----- --- --<br>----- ----- ------ -- ---- -- --- - ---- -- - ----- -----<br>------ ---- ------ ---- - -------- license -- --- --------<br>-------- ----------- ---- ------ ---- ------ ---- --- ---<br>-------- --- -----,541285.400000006,541280.700000003,540924.487,540933.900000006,540941.154,541291.161,,30,license
screen,html.Screen,2_3_1_0_1_31,2022-05-02T13:53:14.870Z,,,,,,,,,,,,,,,,,40,,,,,,,,,,,,,,418.8390000000363,,response,,,,9,G,,,,,,Space,keypress(Space),,,,instrumental,,,,------ -- ------- ---- ---- ---- - -------- ----- --- --<br>----- ----- ------ -- ---- -- --- - ---- -- - ----- -----<br>------ ---- ------ ---- - -------- ------- or --- --------<br>-------- ----------- ---- ------ ---- ------ ---- --- ---<br>-------- --- -----,541715.1000000089,541710,541274.494,541285.6000000089,541291.161,541724.503,,31,or
screen,html.Screen,2_3_1_0_1_32,2022-05-02T13:53:15.201Z,,,,,,,,,,,,,,,,,40,,,,,,,,,,,,,,317.0970000089146,,response,,,,9,G,,,,,,Space,keypress(Space),,,,instrumental,,,,------ -- ------- ---- ---- ---- - -------- ----- --- --<br>----- ----- ------ -- ---- -- --- - ---- -- - ----- -----<br>------ ---- ------ ---- - -------- ------- -- the --------<br>-------- ----------- ---- ------ ---- ------ ---- --- ---<br>-------- --- -----,542046.1000000089,542041.6000000089,541707.836,541715.299999997,541724.503,542057.843,,32,the
screen,html.Screen,2_3_1_0_1_33,2022-05-02T13:53:15.603Z,,,,,,,,,,,,,,,,,40,,,,,,,,,,,,,,385.9569999970263,,response,,,,9,G,,,,,,Space,keypress(Space),,,,instrumental,,,,------ -- ------- ---- ---- ---- - -------- ----- --- --<br>----- ----- ------ -- ---- -- --- - ---- -- - ----- -----<br>------ ---- ------ ---- - -------- ------- -- --- required<br>-------- ----------- ---- ------ ---- ------ ---- --- ---<br>-------- --- -----,542448.700000003,542443.799999997,542041.176,542046.400000006,542057.843,542457.851,,33,required
screen,html.Screen,2_3_1_0_1_34,2022-05-02T13:53:16.547Z,,,,,,,,,,,,,,,,,40,,,,,,,,,,,,,,930.1489999999758,,response,,,,9,G,,,,,,Space,keypress(Space),,,,instrumental,,,,------ -- ------- ---- ---- ---- - -------- ----- --- --<br>----- ----- ------ -- ---- -- --- - ---- -- - ----- -----<br>------ ---- ------ ---- - -------- ------- -- --- --------<br>permits. ----------- ---- ------ ---- ------ ---- --- ---<br>-------- --- -----,543392.6000000089,543388,542441.184,542448.900000006,542457.851,543407.87,,34,permits.
screen,html.Screen,2_3_1_0_1_35,2022-05-02T13:53:17.532Z,,,,,,,,,,,,,,,,,40,,,,,,,,,,,,,,964.0300000059651,,response,,,,9,G,,,,,,Space,keypress(Space),,,,instrumental,,,,------ -- ------- ---- ---- ---- - -------- ----- --- --<br>----- ----- ------ -- ---- -- --- - ---- -- - ----- -----<br>------ ---- ------ ---- - -------- ------- -- --- --------<br>-------- Morningstar ---- ------ ---- ------ ---- --- ---<br>-------- --- -----,544377.1000000089,544371.900000006,543391.203,543392.900000006,543407.87,544391.223,,35,Morningstar
screen,html.Screen,2_3_1_0_1_36,2022-05-02T13:53:17.814Z,,,,,,,,,,,,,,,,,40,,,,,,,,,,,,,,263.57699999702163,,response,,,,9,G,,,,,,Space,keypress(Space),,,,instrumental,,,,------ -- ------- ---- ---- ---- - -------- ----- --- --<br>----- ----- ------ -- ---- -- --- - ---- -- - ----- -----<br>------ ---- ------ ---- - -------- ------- -- --- --------<br>-------- ----------- says ------ ---- ------ ---- --- ---<br>-------- --- -----,544659.799999997,544654.799999997,544374.556,544377.299999997,544391.223,544674.562,,36,says
screen,html.Screen,2_3_1_0_1_37,2022-05-02T13:53:18.202Z,,,,,,,,,,,,,,,,,40,,,,,,,,,,,,,,367.43799999996554,,response,,,,9,G,,,,,,Space,keypress(Space),,,,instrumental,,,,------ -- ------- ---- ---- ---- - -------- ----- --- --<br>----- ----- ------ -- ---- -- --- - ---- -- - ----- -----<br>------ ---- ------ ---- - -------- ------- -- --- --------<br>-------- ----------- ---- police ---- ------ ---- --- ---<br>-------- --- -----,545047.200000003,545042,544657.895,544660.1000000089,544674.562,545057.903,,37,police
screen,html.Screen,2_3_1_0_1_38,2022-05-02T13:53:18.605Z,,,,,,,,,,,,,,,,,40,,,,,,,,,,,,,,387.09699999995064,,response,,,,9,G,,,,,,Space,keypress(Space),,,,instrumental,,,,------ -- ------- ---- ---- ---- - -------- ----- --- --<br>----- ----- ------ -- ---- -- --- - ---- -- - ----- -----<br>------ ---- ------ ---- - -------- ------- -- --- --------<br>-------- ----------- ---- ------ also ------ ---- --- ---<br>-------- --- -----,545450.1000000089,545445,545041.236,545047.400000006,545057.903,545457.911,,38,also
screen,html.Screen,2_3_1_0_1_39,2022-05-02T13:53:19.020Z,,,,,,,,,,,,,,,,,40,,,,,,,,,,,,,,402.189000008977,,response,,,,9,G,,,,,,Space,keypress(Space),,,,instrumental,,,,------ -- ------- ---- ---- ---- - -------- ----- --- --<br>----- ----- ------ -- ---- -- --- - ---- -- - ----- -----<br>------ ---- ------ ---- - -------- ------- -- --- --------<br>-------- ----------- ---- ------ ---- didn't ---- --- ---<br>-------- --- -----,545865.299999997,545860.1000000089,545441.244,545450.400000006,545457.911,545874.586,,39,didn't
screen,html.Screen,2_3_1_0_1_40,2022-05-02T13:53:19.403Z,,,,,,,,,,,,,,,,,40,,,,,,,,,,,,,,368.41399999998976,,response,,,,9,G,,,,,,Space,keypress(Space),,,,instrumental,,,,------ -- ------- ---- ---- ---- - -------- ----- --- --<br>----- ----- ------ -- ---- -- --- - ---- -- - ----- -----<br>------ ---- ------ ---- - -------- ------- -- --- --------<br>-------- ----------- ---- ------ ---- ------ know --- ---<br>-------- --- -----,546248.1000000089,546243,545857.919,545865.700000003,545874.586,546257.927,,40,know
screen,html.Screen,2_3_1_0_1_41,2022-05-02T13:53:19.753Z,,,,,,,,,,,,,,,,,40,,,,,,,,,,,,,,335.07299999997485,,response,,,,9,G,,,,,,Space,keypress(Space),,,,instrumental,,,,------ -- ------- ---- ---- ---- - -------- ----- --- --<br>----- ----- ------ -- ---- -- --- - ---- -- - ----- -----<br>------ ---- ------ ---- - -------- ------- -- --- --------<br>-------- ----------- ---- ------ ---- ------ ---- how ---<br>-------- --- -----,546598.400000006,546593,546241.26,546248.400000006,546257.927,546607.934,,41,how
screen,html.Screen,2_3_1_0_1_42,2022-05-02T13:53:20.098Z,,,,,,,,,,,,,,,,,40,,,,,,,,,,,,,,330.76600000297185,,response,,,,9,G,,,,,,Space,keypress(Space),,,,instrumental,,,,------ -- ------- ---- ---- ---- - -------- ----- --- --<br>----- ----- ------ -- ---- -- --- - ---- -- - ----- -----<br>------ ---- ------ ---- - -------- ------- -- --- --------<br>-------- ----------- ---- ------ ---- ------ ---- --- the<br>-------- --- -----,546943.6000000089,546938.700000003,546591.267,546598.6000000089,546607.934,546957.941,,42,the
screen,html.Screen,2_3_1_0_1_43,2022-05-02T13:53:20.544Z,,,,,,,,,,,,,,,,,40,,,,,,,,,,,,,,425.0590000000084,,response,,,,9,G,,,,,,Space,keypress(Space),,,,instrumental,,,,------ -- ------- ---- ---- ---- - -------- ----- --- --<br>----- ----- ------ -- ---- -- --- - ---- -- - ----- -----<br>------ ---- ------ ---- - -------- ------- -- --- --------<br>-------- ----------- ---- ------ ---- ------ ---- --- ---<br>lemonade --- -----,547389.400000006,547383,546941.274,546943.900000006,546957.941,547391.283,,43,lemonade
screen,html.Screen,2_3_1_0_1_44,2022-05-02T13:53:20.869Z,,,,,,,,,,,,,,,,,40,,,,,,,,,,,,,,318.51699999696575,,response,,,,9,G,,,,,,Space,keypress(Space),,,,instrumental,,,,------ -- ------- ---- ---- ---- - -------- ----- --- --<br>----- ----- ------ -- ---- -- --- - ---- -- - ----- -----<br>------ ---- ------ ---- - -------- ------- -- --- --------<br>-------- ----------- ---- ------ ---- ------ ---- --- ---<br>-------- was -----,547714.799999997,547709.799999997,547374.616,547389.6000000089,547391.283,547724.623,,44,was
screen,html.Screen,2_3_1_0_1_45,2022-05-02T13:53:21.336Z,,,,,,,,,,,,,,,,,40,,,,,,,,,,,,,,452.0770000029588,,response,,,,9,G,,,,,,Space,keypress(Space),,,,instrumental,,,,------ -- ------- ---- ---- ---- - -------- ----- --- --<br>----- ----- ------ -- ---- -- --- - ---- -- - ----- -----<br>------ ---- ------ ---- - -------- ------- -- --- --------<br>-------- ----------- ---- ------ ---- ------ ---- --- ---<br>-------- --- made.,548181.799999997,548176.700000003,547707.956,547715.1000000089,547724.623,548191.299,,45,made.
Item 9,flow.Loop,2_3_1_0_1,2022-05-02T13:53:21.337Z,,,,,,,,,,,,,,,,,,,,,,,,,,,,,,,22436.35300000303,,completion,,,,,,,,,,,,,,,,,,,,,548182.299999997,548176.700000003,525723.68,525726,525740.347,548191.299,,,
Question 1,html.Screen,2_3_1_0_2,2022-05-02T13:53:25.622Z,,,,,,,,,,,,,,,,,,,,,,,,,,,,true,FALSE,,4273.901000002981,,response,,,,9,G,,,,,,FALSE,click #choice-2,,,,instrumental,,,,,552467.799999997,552465.200000003,548174.632,548182.5,548191.299,552474.93,,,
Question 2,html.Screen,2_3_1_0_3,2022-05-02T13:53:33.687Z,,,,,,,,,,,,,,,,,,,,,,,,,,,,true,FALSE,,8056.6700000088895,,response,,,,9,G,,,,,,FALSE,click #choice-2,,,,instrumental,,,,,560532.6000000089,560531.6000000089,552458.263,552468.1000000089,552474.93,560558.646,,,
Item 9,flow.Sequence,2_3_1_0,2022-05-02T13:53:33.687Z,,,,,,,,,,,,,,,,,,,,,,,,,,,,,,,41791.740000008955,,completion,,,,,,,,,,,,,,,,,,,,,560532.700000003,560531.6000000089,518723.193,518726.40000000596,518739.86,560558.646,,,
