sender,sender_type,sender_id,timestamp,meta,,Blues,Classical,Country,Dance,Electronic,Folk,Gospel,Hip-Hop,Jazz,Latin,Musical/Film,New-age,Pop,Prolific_id,Provo_ID,R&B,Rap,Reggae,Religious,Rock,Soul,Swing,Traditional,age,artist_name,correct,correctResponse,distraction,duration,education,ended_on,familiarity,gender,headphone_check_performance,item,list,music_frequency,offensiveness,pleasantness,position_correct,preference,response,response_action,snippet_file,song_name,song_rating,sound,stimulus_1,stimulus_2,stimulus_3,text,time_commit,time_end,time_render,time_run,time_show,time_switch,url,word,word_ID
Prolific ID,html.Form,0,2022-04-27T15:15:55.552Z,"{""labjs_version"":""20.2.2"",""labjs_build"":{""flavor"":""production"",""commit"":""a25486e0c714a0ae2ce03ff94b7bb6896854dcfa""},""location"":""https://run.pavlovia.org/mvasilev/prolific3_music_c/"",""userAgent"":""Mozilla/5.0 (Windows NT 10.0; Win64; x64) AppleWebKit/537.36 (KHTML, like Gecko) Chrome/100.0.4896.127 Safari/537.36"",""platform"":""Win32"",""language"":""en-GB"",""locale"":""en-GB"",""timeZone"":""Europe/London"",""timezoneOffset"":-60,""screen_width"":1920,""screen_height"":1080,""scroll_width"":1920,""scroll_height"":921,""window_innerWidth"":1920,""window_innerHeight"":969,""devicePixelRatio"":1}",,,,,,,,,,,,,,,5a051341ff266c0001d1f915,,,,,,,,,,,,,,,89482.27000001192,,form submission,,,,,,,,,,,,,,,,,,,,,122454.5,122453.80000001192,32908.04,32907.40000000596,32971.53,122470.08,{},,
Introduction,html.Screen,1_0,2022-04-27T15:16:03.357Z,,,,,,,,,,,,,,,,,,,,,,,,,,,,,,,7785.919999999998,,response,,,,,,,,,,,continue,click button,,,,,,,,,130259.5,130256,122403.554,122455,122470.08,130262.861,,,
Volume calibration,html.Screen,1_1,2022-04-27T15:16:39.722Z,,,,,,,,,,,,,,,,,,,,,,,,,,,,,,,36362.93900001192,,response,,,,,,,,,,,continue,click button,,,,,,,,,166630.90000000596,166625.80000001192,130246.189,130259.69999998808,130262.861,166628.292,,,
Task instructions,html.Screen,1_2,2022-04-27T15:16:54.070Z,,,,,,,,,,,,,,,,,,,,,,,,,,,,,,,14349.508000011934,,response,,,,,,,,,,,continue,click button,,,,,,,,,180979.19999998808,180977.80000001192,166612.292,166631.09999999404,166628.292,180981.392,,,
Sounds,html.Screen,1_3_0_0,2022-04-27T15:16:58.313Z,,,,,,,,,,,,,,,,,,,,,,,,,,,,,,,4245.991000000009,,timeout,,,,,,,,,1,,,,,,,,S,O,I,,185222.40000000596,185210.671,180965.379,180979.40000000596,180981.392,185227.383,,,
Judgement,html.Screen,1_3_0_1,2022-04-27T15:17:02.816Z,,,,,,,,,,,,,,,,,,,,,,,,,,,,true,1,,4495.816999988077,,response,,,,,,,,,1,,1,click #choice-1,,,,,S,O,I,,189725,189723.19999998808,185210.671,185222.5,185227.383,189740.012,,,
Trial,flow.Sequence,1_3_0,2022-04-27T15:17:02.817Z,,,,,,,,,,,,,,,,,,,,,,,,,,,,,,,8741.807999988087,,completion,,,,,,,,,1,,,,,,,,S,O,I,,189726.69999998808,189723.19999998808,180965.379,180979.40000000596,180981.392,189740.012,,,
Sounds,html.Screen,1_3_1_0,2022-04-27T15:17:07.061Z,,,,,,,,,,,,,,,,,,,,,,,,,,,,,,,4245.649000000005,,timeout,,,,,,,,,3,,,,,,,,I,O,S,,193970,193969.082,189723.742,189726.80000001192,189740.012,193985.661,,,
Judgement,html.Screen,1_3_1_1,2022-04-27T15:17:07.846Z,,,,,,,,,,,,,,,,,,,,,,,,,,,,true,3,,767.5389999880863,,response,,,,,,,,,3,,3,click #choice-3,,,,,I,O,S,,194755,194753.19999998808,193969.082,193970.09999999404,193985.661,194768.621,,,
Trial,flow.Sequence,1_3_1,2022-04-27T15:17:07.846Z,,,,,,,,,,,,,,,,,,,,,,,,,,,,,,,5013.187999988091,,completion,,,,,,,,,3,,,,,,,,I,O,S,,194755.30000001192,194753.19999998808,189723.742,189726.80000001192,189740.012,194768.621,,,
Sounds,html.Screen,1_3_2_0,2022-04-27T15:17:12.091Z,,,,,,,,,,,,,,,,,,,,,,,,,,,,,,,4245.659999999974,,timeout,,,,,,,,,2,,,,,,,,O,S,I,,198999.90000000596,198997.628,194752.125,194755.40000000596,194768.621,199014.281,,,
Judgement,html.Screen,1_3_2_1,2022-04-27T15:17:13.180Z,,,,,,,,,,,,,,,,,,,,,,,,,,,,true,2,,1073.418999988091,,response,,,,,,,,,2,,2,click #choice-2,,,,,O,S,I,,200089,200087.69999998808,198997.628,199000.09999999404,199014.281,200096.563,,,
Trial,flow.Sequence,1_3_2,2022-04-27T15:17:13.180Z,,,,,,,,,,,,,,,,,,,,,,,,,,,,,,,5319.078999988065,,completion,,,,,,,,,2,,,,,,,,O,S,I,,200089.30000001192,200087.69999998808,194752.125,194755.40000000596,194768.621,200096.563,,,
Sounds,html.Screen,1_3_3_0,2022-04-27T15:17:17.418Z,,,,,,,,,,,,,,,,,,,,,,,,,,,,,,,4246.007000000012,,timeout,,,,,,,,,1,,,,,,,,S,I,O,,204326.90000000596,204325.951,200080.318,200089.40000000596,200096.563,204342.57,,,
Judgement,html.Screen,1_3_3_1,2022-04-27T15:17:18.506Z,,,,,,,,,,,,,,,,,,,,,,,,,,,,true,1,,1070.629999988072,,response,,,,,,,,,1,,1,click #choice-1,,,,,S,I,O,,205415.19999998808,205413.19999998808,204325.951,204327,204342.57,205425.244,,,
Trial,flow.Sequence,1_3_3,2022-04-27T15:17:18.506Z,,,,,,,,,,,,,,,,,,,,,,,,,,,,,,,5316.636999988084,,completion,,,,,,,,,1,,,,,,,,S,I,O,,205415.5,205413.19999998808,200080.318,200089.40000000596,200096.563,205425.244,,,
Sounds,html.Screen,1_3_4_0,2022-04-27T15:17:22.753Z,,,,,,,,,,,,,,,,,,,,,,,,,,,,,,,4246.101999999984,,timeout,,,,,,,,,3,,,,,,,,O,I,S,,209655.59999999404,209654.718,205408.349,205415.59999999404,205425.244,209671.346,,,
Judgement,html.Screen,1_3_4_1,2022-04-27T15:17:23.782Z,,,,,,,,,,,,,,,,,,,,,,,,,,,,true,3,,1011.7539999940491,,response,,,,,,,,,3,,3,click #choice-3,,,,,O,I,S,,210684.59999999404,210683.09999999404,209654.718,209655.69999998808,209671.346,210686.587,,,
Trial,flow.Sequence,1_3_4,2022-04-27T15:17:23.782Z,,,,,,,,,,,,,,,,,,,,,,,,,,,,,,,5257.8559999940335,,completion,,,,,,,,,3,,,,,,,,O,I,S,,210684.90000000596,210683.09999999404,205408.349,205415.59999999404,205425.244,210686.587,,,
Sounds,html.Screen,1_3_5_0,2022-04-27T15:17:28.020Z,,,,,,,,,,,,,,,,,,,,,,,,,,,,,,,4246.464000000007,,timeout,,,,,,,,,2,,,,,,,,I,S,O,,214923.09999999404,214916.455,210670.067,210685.09999999404,210686.587,214933.051,,,
Judgement,html.Screen,1_3_5_1,2022-04-27T15:17:29.088Z,,,,,,,,,,,,,,,,,,,,,,,,,,,,true,2,,1056.1489999880723,,response,,,,,,,,,2,,2,click #choice-2,,,,,I,S,O,,215991.09999999404,215989.19999998808,214916.455,214923.40000000596,214933.051,216031.523,,,
Trial,flow.Sequence,1_3_5,2022-04-27T15:17:29.089Z,,,,,,,,,,,,,,,,,,,,,,,,,,,,,,,5302.6129999880795,,completion,,,,,,,,,2,,,,,,,,I,S,O,,215991.40000000596,215989.19999998808,210670.067,210685,210686.587,216031.523,,,
Task,flow.Loop,1_3,2022-04-27T15:17:29.097Z,,,,,,,,,,,,,,,,,,,,,,,,,,,,,,,35007.80799998809,,completion,,,1,,,,,,,,,,,,,,,,,,215999.80000001192,215989.19999998808,180965.379,180979.40000000596,180981.392,216031.523,,,
Trap,html.Screen,1_4,2022-04-27T15:17:29.137Z,,,,,,,,,,,,,,,,,,,,,,,,,,,,,,,NaN,,skipped,,,,,,,,,,,,,,,,,,,,,216039.59999999404,215989.19999998808,,216039.40000000596,,216031.523,,,
Thanks,html.Screen,1_5,2022-04-27T15:17:33.019Z,,,,,,,,,,,,,,,,,,,,,,,,,,,,,,,3888.2770000119344,,response,,,,,,,,,,,continue,click button,,,,,,,,,219922,219919.80000001192,215982.1,216039.90000000596,216031.523,223774.193,,,
Headphone screening,flow.Sequence,1,2022-04-27T15:17:33.019Z,,,,,,,,,,,,,,,,,,,,,,,,,,,,,,,97449.72000001192,,completion,,,,,,,,,,,,,,,,,,,,,219922.09999999404,219919.80000001192,122403.554,122455,122470.08,223774.193,,,
Instructions,html.Page,2_0,2022-04-27T15:18:06.557Z,,,,,,,,,,,,,,,,,,,,,,,,,,,,,,,29684.70700000596,,form submission,,,,,,,,,,,,,,,,,,,,,253459.5,253458.90000000596,223757.589,223783,223774.193,253462.756,,,
Holding screen,html.Screen,2_1_0_0,2022-04-27T15:18:16.552Z,,,,,,,,,,,,,,,,,,,,,,,,,,,,,,,10057.125,,timeout,,,,,,,,,,,,,,,,,,,,,263454.8000000119,263453.878,253412.907,253459.69999998808,253462.756,263519.881,,,
screen,html.Screen,2_1_0_1_0,2022-04-27T15:18:17.865Z,,,,,,,,,,,,,,,,,53,,,,,,,,,,,,,,1243.8189999880851,,response,,,,99,,,,,,,Space,keypress(Space),,,,,,,,When -- ----- -- ------ - ------- --- ----------<br>------------- ------ ------ ---- ---- ------- ----- -- ----<br>-------- ------- -- ---------- --- - --- ----- ----- ----<br>---- --- --- ----- --- ---- ---- ------- ----- ---- -------<br>--- --- -- ----- -- --- ---- -- --- ---- -- ------ ------<br>--- ----- -- ----,264767.59999999404,264763.6999999881,263453.878,263455,263519.881,264796.178,,0,When
screen,html.Screen,2_1_0_1_1,2022-04-27T15:18:18.389Z,,,,,,,,,,,,,,,,,53,,,,,,,,,,,,,,494.4219999940251,,response,,,,99,,,,,,,Space,keypress(Space),,,,,,,,---- it ----- -- ------ - ------- --- ----------<br>------------- ------ ------ ---- ---- ------- ----- -- ----<br>-------- ------- -- ---------- --- - --- ----- ----- ----<br>---- --- --- ----- --- ---- ---- ------- ----- ---- -------<br>--- --- -- ----- -- --- ---- -- --- ---- -- ------ ------<br>--- ----- -- ----,265291.59999999404,265290.59999999404,264753.127,264767.90000000596,264796.178,265301.547,,1,it
screen,html.Screen,2_1_0_1_2,2022-04-27T15:18:18.655Z,,,,,,,,,,,,,,,,,53,,,,,,,,,,,,,,254.4529999999795,,response,,,,99,,,,,,,Space,keypress(Space),,,,,,,,---- -- comes -- ------ - ------- --- ----------<br>------------- ------ ------ ---- ---- ------- ----- -- ----<br>-------- ------- -- ---------- --- - --- ----- ----- ----<br>---- --- --- ----- --- ---- ---- ------- ----- ---- -------<br>--- --- -- ----- -- --- ---- -- --- ---- -- ------ ------<br>--- ----- -- ----,265557.3000000119,265556,265285.316,265291.8000000119,265301.547,265568.209,,2,comes
screen,html.Screen,2_1_0_1_3,2022-04-27T15:18:19.088Z,,,,,,,,,,,,,,,,,53,,,,,,,,,,,,,,421.191000005987,,response,,,,99,,,,,,,Space,keypress(Space),,,,,,,,---- -- ----- to ------ - ------- --- ----------<br>------------- ------ ------ ---- ---- ------- ----- -- ----<br>-------- ------- -- ---------- --- - --- ----- ----- ----<br>---- --- --- ----- --- ---- ---- ------- ----- ---- -------<br>--- --- -- ----- -- --- ---- -- --- ---- -- ------ ------<br>--- ----- -- ----,265990.3000000119,265989.40000000596,265551.976,265557.5,265568.209,266000.885,,3,to
screen,html.Screen,2_1_0_1_4,2022-04-27T15:18:19.493Z,,,,,,,,,,,,,,,,,53,,,,,,,,,,,,,,393.81499998806976,,response,,,,99,,,,,,,Space,keypress(Space),,,,,,,,---- -- ----- -- having - ------- --- ----------<br>------------- ------ ------ ---- ---- ------- ----- -- ----<br>-------- ------- -- ---------- --- - --- ----- ----- ----<br>---- --- --- ----- --- ---- ---- ------- ----- ---- -------<br>--- --- -- ----- -- --- ---- -- --- ---- -- ------ ------<br>--- ----- -- ----,266395.90000000596,266394.6999999881,265984.935,265990.5,266000.885,266400.595,,4,having
screen,html.Screen,2_1_0_1_5,2022-04-27T15:18:19.853Z,,,,,,,,,,,,,,,,,53,,,,,,,,,,,,,,354.3050000059884,,response,,,,99,,,,,,,Space,keypress(Space),,,,,,,,---- -- ----- -- ------ a ------- --- ----------<br>------------- ------ ------ ---- ---- ------- ----- -- ----<br>-------- ------- -- ---------- --- - --- ----- ----- ----<br>---- --- --- ----- --- ---- ---- ------- ----- ---- -------<br>--- --- -- ----- -- --- ---- -- --- ---- -- ------ ------<br>--- ----- -- ----,266756.09999999404,266754.90000000596,266384.175,266396,266400.595,266766.813,,5,a
screen,html.Screen,2_1_0_1_6,2022-04-27T15:18:20.255Z,,,,,,,,,,,,,,,,,53,,,,,,,,,,,,,,390.3869999880553,,response,,,,99,,,,,,,Space,keypress(Space),,,,,,,,---- -- ----- -- ------ - lasting --- ----------<br>------------- ------ ------ ---- ---- ------- ----- -- ----<br>-------- ------- -- ---------- --- - --- ----- ----- ----<br>---- --- --- ----- --- ---- ---- ------- ----- ---- -------<br>--- --- -- ----- -- --- ---- -- --- ---- -- ------ ------<br>--- ----- -- ----,267158.1999999881,267157.1999999881,266750.733,266756.3000000119,266766.813,267166.418,,6,lasting
screen,html.Screen,2_1_0_1_7,2022-04-27T15:18:20.483Z,,,,,,,,,,,,,,,,,53,,,,,,,,,,,,,,217.8820000119158,,response,,,,99,,,,,,,Space,keypress(Space),,,,,,,,---- -- ----- -- ------ - ------- and ----------<br>------------- ------ ------ ---- ---- ------- ----- -- ----<br>-------- ------- -- ---------- --- - --- ----- ----- ----<br>---- --- --- ----- --- ---- ---- ------- ----- ---- -------<br>--- --- -- ----- -- --- ---- -- --- ---- -- ------ ------<br>--- ----- -- ----,267385.59999999404,267384.3000000119,267150.51,267158.40000000596,267166.418,267399.536,,7,and
screen,html.Screen,2_1_0_1_8,2022-04-27T15:18:21.095Z,,,,,,,,,,,,,,,,,53,,,,,,,,,,,,,,597.1639999880572,,response,,,,99,,,,,,,Space,keypress(Space),,,,,,,,---- -- ----- -- ------ - ------- --- fulfilling<br>------------- ------ ------ ---- ---- ------- ----- -- ----<br>-------- ------- -- ---------- --- - --- ----- ----- ----<br>---- --- --- ----- --- ---- ---- ------- ----- ---- -------<br>--- --- -- ----- -- --- ---- -- --- ---- -- ------ ------<br>--- ----- -- ----,267997.8000000119,267996.6999999881,267383.126,267385.8000000119,267399.536,268018.529,,8,fulfilling
screen,html.Screen,2_1_0_1_9,2022-04-27T15:18:21.925Z,,,,,,,,,,,,,,,,,53,,,,,,,,,,,,,,808.37100000598,,response,,,,99,,,,,,,Space,keypress(Space),,,,,,,,"---- -- ----- -- ------ - ------- --- ----------<br>relationship, ------ ------ ---- ---- ------- ----- -- ----<br>-------- ------- -- ---------- --- - --- ----- ----- ----<br>---- --- --- ----- --- ---- ---- ------- ----- ---- -------<br>--- --- -- ----- -- --- ---- -- --- ---- -- ------ ------<br>--- ----- -- ----",268828.1999999881,268826.90000000596,267982.877,267998,268018.529,268831.52,,9,"relationship,"
screen,html.Screen,2_1_0_1_10,2022-04-27T15:18:22.360Z,,,,,,,,,,,,,,,,,53,,,,,,,,,,,,,,429.4799999999814,,response,,,,99,,,,,,,Space,keypress(Space),,,,,,,,---- -- ----- -- ------ - ------- --- ----------<br>------------- common ------ ---- ---- ------- ----- -- ----<br>-------- ------- -- ---------- --- - --- ----- ----- ----<br>---- --- --- ----- --- ---- ---- ------- ----- ---- -------<br>--- --- -- ----- -- --- ---- -- --- ---- -- ------ ------<br>--- ----- -- ----,269262.3000000119,269261,268815.574,268828.3000000119,268831.52,269264.416,,10,common
screen,html.Screen,2_1_0_1_11,2022-04-27T15:18:22.802Z,,,,,,,,,,,,,,,,,53,,,,,,,,,,,,,,443.183999994013,,response,,,,99,,,,,,,Space,keypress(Space),,,,,,,,---- -- ----- -- ------ - ------- --- ----------<br>------------- ------ wisdom ---- ---- ------- ----- -- ----<br>-------- ------- -- ---------- --- - --- ----- ----- ----<br>---- --- --- ----- --- ---- ---- ------- ----- ---- -------<br>--- --- -- ----- -- --- ---- -- --- ---- -- ------ ------<br>--- ----- -- ----,269708.8000000119,269707.59999999404,269248.516,269262.40000000596,269264.416,269714.027,,11,wisdom
screen,html.Screen,2_1_0_1_12,2022-04-27T15:18:23.109Z,,,,,,,,,,,,,,,,,53,,,,,,,,,,,,,,300.8730000059586,,response,,,,99,,,,,,,Space,keypress(Space),,,,,,,,---- -- ----- -- ------ - ------- --- ----------<br>------------- ------ ------ says ---- ------- ----- -- ----<br>-------- ------- -- ---------- --- - --- ----- ----- ----<br>---- --- --- ----- --- ---- ---- ------- ----- ---- -------<br>--- --- -- ----- -- --- ---- -- --- ---- -- ------ ------<br>--- ----- -- ----,270016,270014.90000000596,269698.03,269709,269714.027,270030.35,,12,says
screen,html.Screen,2_1_0_1_13,2022-04-27T15:18:23.332Z,,,,,,,,,,,,,,,,,53,,,,,,,,,,,,,,207.34999998810235,,response,,,,99,,,,,,,Space,keypress(Space),,,,,,,,---- -- ----- -- ------ - ------- --- ----------<br>------------- ------ ------ ---- that ------- ----- -- ----<br>-------- ------- -- ---------- --- - --- ----- ----- ----<br>---- --- --- ----- --- ---- ---- ------- ----- ---- -------<br>--- --- -- ----- -- --- ---- -- --- ---- -- ------ ------<br>--- ----- -- ----,270238.59999999404,270237.6999999881,270014.36,270016.1999999881,270030.35,270246.78,,13,that
screen,html.Screen,2_1_0_1_14,2022-04-27T15:18:23.767Z,,,,,,,,,,,,,,,,,53,,,,,,,,,,,,,,425.3199999940116,,response,,,,99,,,,,,,Space,keypress(Space),,,,,,,,---- -- ----- -- ------ - ------- --- ----------<br>------------- ------ ------ ---- ---- feeling ----- -- ----<br>-------- ------- -- ---------- --- - --- ----- ----- ----<br>---- --- --- ----- --- ---- ---- ------- ----- ---- -------<br>--- --- -- ----- -- --- ---- -- --- ---- -- ------ ------<br>--- ----- -- ----,270673.3000000119,270672.09999999404,270230.833,270238.6999999881,270246.78,270679.732,,14,feeling
screen,html.Screen,2_1_0_1_15,2022-04-27T15:18:24.290Z,,,,,,,,,,,,,,,,,53,,,,,,,,,,,,,,515.7679999999818,,response,,,,99,,,,,,,Space,keypress(Space),,,,,,,,---- -- ----- -- ------ - ------- --- ----------<br>------------- ------ ------ ---- ---- ------- close -- ----<br>-------- ------- -- ---------- --- - --- ----- ----- ----<br>---- --- --- ----- --- ---- ---- ------- ----- ---- -------<br>--- --- -- ----- -- --- ---- -- --- ---- -- ------ ------<br>--- ----- -- ----,271196.5,271195.5,270663.766,270673.5,270679.732,271212.909,,15,close
screen,html.Screen,2_1_0_1_16,2022-04-27T15:18:24.618Z,,,,,,,,,,,,,,,,,53,,,,,,,,,,,,,,310.39100001193583,,response,,,,99,,,,,,,Space,keypress(Space),,,,,,,,---- -- ----- -- ------ - ------- --- ----------<br>------------- ------ ------ ---- ---- ------- ----- to ----<br>-------- ------- -- ---------- --- - --- ----- ----- ----<br>---- --- --- ----- --- ---- ---- ------- ----- ---- -------<br>--- --- -- ----- -- --- ---- -- --- ---- -- ------ ------<br>--- ----- -- ----,271524.5,271523.3000000119,271196.437,271196.6999999881,271212.909,271528.956,,16,to
screen,html.Screen,2_1_0_1_17,2022-04-27T15:18:24.825Z,,,,,,,,,,,,,,,,,53,,,,,,,,,,,,,,201.14399999403395,,response,,,,99,,,,,,,Space,keypress(Space),,,,,,,,---- -- ----- -- ------ - ------- --- ----------<br>------------- ------ ------ ---- ---- ------- ----- -- your<br>-------- ------- -- ---------- --- - --- ----- ----- ----<br>---- --- --- ----- --- ---- ---- ------- ----- ---- -------<br>--- --- -- ----- -- --- ---- -- --- ---- -- ------ ------<br>--- ----- -- ----,271731.3000000119,271730.09999999404,271513.209,271524.6999999881,271528.956,271745.429,,17,your
screen,html.Screen,2_1_0_1_18,2022-04-27T15:18:25.417Z,,,,,,,,,,,,,,,,,53,,,,,,,,,,,,,,576.9710000059567,,response,,,,99,,,,,,,Space,keypress(Space),,,,,,,,---- -- ----- -- ------ - ------- --- ----------<br>------------- ------ ------ ---- ---- ------- ----- -- ----<br>romantic ------- -- ---------- --- - --- ----- ----- ----<br>---- --- --- ----- --- ---- ---- ------- ----- ---- -------<br>--- --- -- ----- -- --- ---- -- --- ---- -- ------ ------<br>--- ----- -- ----,272323.6999999881,272322.40000000596,271729.344,271731.6999999881,271745.429,272328.221,,18,romantic
screen,html.Screen,2_1_0_1_19,2022-04-27T15:18:25.715Z,,,,,,,,,,,,,,,,,53,,,,,,,,,,,,,,292.57900001190137,,response,,,,99,,,,,,,Space,keypress(Space),,,,,,,,---- -- ----- -- ------ - ------- --- ----------<br>------------- ------ ------ ---- ---- ------- ----- -- ----<br>-------- partner -- ---------- --- - --- ----- ----- ----<br>---- --- --- ----- --- ---- ---- ------- ----- ---- -------<br>--- --- -- ----- -- --- ---- -- --- ---- -- ------ ------<br>--- ----- -- ----,272621.8000000119,272620.8000000119,272312.63,272323.90000000596,272328.221,272627.915,,19,partner
screen,html.Screen,2_1_0_1_20,2022-04-27T15:18:26.008Z,,,,,,,,,,,,,,,,,53,,,,,,,,,,,,,,285.3850000119419,,response,,,,99,,,,,,,Space,keypress(Space),,,,,,,,---- -- ----- -- ------ - ------- --- ----------<br>------------- ------ ------ ---- ---- ------- ----- -- ----<br>-------- ------- is ---------- --- - --- ----- ----- ----<br>---- --- --- ----- --- ---- ---- ------- ----- ---- -------<br>--- --- -- ----- -- --- ---- -- --- ---- -- ------ ------<br>--- ----- -- ----,272914.5,272913.3000000119,272611.803,272622.09999999404,272627.915,272927.595,,20,is
screen,html.Screen,2_1_0_1_21,2022-04-27T15:18:26.301Z,,,,,,,,,,,,,,,,,53,,,,,,,,,,,,,,279.0049999940675,,response,,,,99,,,,,,,Space,keypress(Space),,,,,,,,---- -- ----- -- ------ - ------- --- ----------<br>------------- ------ ------ ---- ---- ------- ----- -- ----<br>-------- ------- -- paramount. --- - --- ----- ----- ----<br>---- --- --- ----- --- ---- ---- ------- ----- ---- -------<br>--- --- -- ----- -- --- ---- -- --- ---- -- ------ ------<br>--- ----- -- ----,273207.5,273206.59999999404,272911.508,272914.6999999881,272927.595,273210.739,,21,paramount.
screen,html.Screen,2_1_0_1_22,2022-04-27T15:18:27.040Z,,,,,,,,,,,,,,,,,53,,,,,,,,,,,,,,735.1610000059591,,response,,,,99,,,,,,,Space,keypress(Space),,,,,,,,---- -- ----- -- ------ - ------- --- ----------<br>------------- ------ ------ ---- ---- ------- ----- -- ----<br>-------- ------- -- ---------- But - --- ----- ----- ----<br>---- --- --- ----- --- ---- ---- ------- ----- ---- -------<br>--- --- -- ----- -- --- ---- -- --- ---- -- ------ ------<br>--- ----- -- ----,273946.8000000119,273945.90000000596,273194.305,273207.6999999881,273210.739,273960,,22,But
screen,html.Screen,2_1_0_1_23,2022-04-27T15:18:27.314Z,,,,,,,,,,,,,,,,,53,,,,,,,,,,,,,,258.5,,response,,,,99,,,,,,,Space,keypress(Space),,,,,,,,---- -- ----- -- ------ - ------- --- ----------<br>------------- ------ ------ ---- ---- ------- ----- -- ----<br>-------- ------- -- ---------- --- a --- ----- ----- ----<br>---- --- --- ----- --- ---- ---- ------- ----- ---- -------<br>--- --- -- ----- -- --- ---- -- --- ---- -- ------ ------<br>--- ----- -- ----,274220.8000000119,274218.5,273944.034,273947,273960,274226.426,,23,a
screen,html.Screen,2_1_0_1_24,2022-04-27T15:18:27.550Z,,,,,,,,,,,,,,,,,53,,,,,,,,,,,,,,229.27399998810142,,response,,,,99,,,,,,,Space,keypress(Space),,,,,,,,---- -- ----- -- ------ - ------- --- ----------<br>------------- ------ ------ ---- ---- ------- ----- -- ----<br>-------- ------- -- ---------- --- - new ----- ----- ----<br>---- --- --- ----- --- ---- ---- ------- ----- ---- -------<br>--- --- -- ----- -- --- ---- -- --- ---- -- ------ ------<br>--- ----- -- ----,274456.90000000596,274455.6999999881,274210.565,274221.3000000119,274226.426,274459.56,,24,new
screen,html.Screen,2_1_0_1_25,2022-04-27T15:18:27.891Z,,,,,,,,,,,,,,,,,53,,,,,,,,,,,,,,336.9400000000023,,response,,,,99,,,,,,,Space,keypress(Space),,,,,,,,---- -- ----- -- ------ - ------- --- ----------<br>------------- ------ ------ ---- ---- ------- ----- -- ----<br>-------- ------- -- ---------- --- - --- study ----- ----<br>---- --- --- ----- --- ---- ---- ------- ----- ---- -------<br>--- --- -- ----- -- --- ---- -- --- ---- -- ------ ------<br>--- ----- -- ----,274797.8000000119,274796.5,274443.322,274457.09999999404,274459.56,274809.227,,25,study
screen,html.Screen,2_1_0_1_26,2022-04-27T15:18:28.248Z,,,,,,,,,,,,,,,,,53,,,,,,,,,,,,,,344.37299999402603,,response,,,,99,,,,,,,Space,keypress(Space),,,,,,,,---- -- ----- -- ------ - ------- --- ----------<br>------------- ------ ------ ---- ---- ------- ----- -- ----<br>-------- ------- -- ---------- --- - --- ----- finds ----<br>---- --- --- ----- --- ---- ---- ------- ----- ---- -------<br>--- --- -- ----- -- --- ---- -- --- ---- -- ------ ------<br>--- ----- -- ----,275154.59999999404,275153.59999999404,274793.096,274798,274809.227,275158.88,,26,finds
screen,html.Screen,2_1_0_1_27,2022-04-27T15:18:28.703Z,,,,,,,,,,,,,,,,,53,,,,,,,,,,,,,,450.0200000059558,,response,,,,99,,,,,,,Space,keypress(Space),,,,,,,,---- -- ----- -- ------ - ------- --- ----------<br>------------- ------ ------ ---- ---- ------- ----- -- ----<br>-------- ------- -- ---------- --- - --- ----- ----- that<br>---- --- --- ----- --- ---- ---- ------- ----- ---- -------<br>--- --- -- ----- -- --- ---- -- --- ---- -- ------ ------<br>--- ----- -- ----,275610,275608.90000000596,275142.899,275154.8000000119,275158.88,275625.416,,27,that
screen,html.Screen,2_1_0_1_28,2022-04-27T15:18:29.083Z,,,,,,,,,,,,,,,,,53,,,,,,,,,,,,,,362.8840000118944,,response,,,,99,,,,,,,Space,keypress(Space),,,,,,,,---- -- ----- -- ------ - ------- --- ----------<br>------------- ------ ------ ---- ---- ------- ----- -- ----<br>-------- ------- -- ---------- --- - --- ----- ----- ----<br>it's --- --- ----- --- ---- ---- ------- ----- ---- -------<br>--- --- -- ----- -- --- ---- -- --- ---- -- ------ ------<br>--- ----- -- ----,275989.3000000119,275988.3000000119,275608.679,275610.1999999881,275625.416,275991.408,,28,it's
screen,html.Screen,2_1_0_1_29,2022-04-27T15:18:29.311Z,,,,,,,,,,,,,,,,,53,,,,,,,,,,,,,,225.49200000596466,,response,,,,99,,,,,,,Space,keypress(Space),,,,,,,,---- -- ----- -- ------ - ------- --- ----------<br>------------- ------ ------ ---- ---- ------- ----- -- ----<br>-------- ------- -- ---------- --- - --- ----- ----- ----<br>---- not --- ----- --- ---- ---- ------- ----- ---- -------<br>--- --- -- ----- -- --- ---- -- --- ---- -- ------ ------<br>--- ----- -- ----,276218.09999999404,276216.90000000596,275975.075,275989.40000000596,275991.408,276224.816,,29,not
screen,html.Screen,2_1_0_1_30,2022-04-27T15:18:29.746Z,,,,,,,,,,,,,,,,,53,,,,,,,,,,,,,,427.38399998808745,,response,,,,99,,,,,,,Space,keypress(Space),,,,,,,,---- -- ----- -- ------ - ------- --- ----------<br>------------- ------ ------ ---- ---- ------- ----- -- ----<br>-------- ------- -- ---------- --- - --- ----- ----- ----<br>---- --- how ----- --- ---- ---- ------- ----- ---- -------<br>--- --- -- ----- -- --- ---- -- --- ---- -- ------ ------<br>--- ----- -- ----,276653.1999999881,276652.1999999881,276208.333,276218.3000000119,276224.816,276657.462,,30,how
screen,html.Screen,2_1_0_1_31,2022-04-27T15:18:30.135Z,,,,,,,,,,,,,,,,,53,,,,,,,,,,,,,,383.73799998807954,,response,,,,99,,,,,,,Space,keypress(Space),,,,,,,,---- -- ----- -- ------ - ------- --- ----------<br>------------- ------ ------ ---- ---- ------- ----- -- ----<br>-------- ------- -- ---------- --- - --- ----- ----- ----<br>---- --- --- close --- ---- ---- ------- ----- ---- -------<br>--- --- -- ----- -- --- ---- -- --- ---- -- ------ ------<br>--- ----- -- ----,277042.1999999881,277041.1999999881,276641.435,276653.40000000596,276657.462,277057.49,,31,close
screen,html.Screen,2_1_0_1_32,2022-04-27T15:18:30.438Z,,,,,,,,,,,,,,,,,53,,,,,,,,,,,,,,286.10999999404885,,response,,,,99,,,,,,,Space,keypress(Space),,,,,,,,---- -- ----- -- ------ - ------- --- ----------<br>------------- ------ ------ ---- ---- ------- ----- -- ----<br>-------- ------- -- ---------- --- - --- ----- ----- ----<br>---- --- --- ----- you ---- ---- ------- ----- ---- -------<br>--- --- -- ----- -- --- ---- -- --- ---- -- ------ ------<br>--- ----- -- ----,277344.90000000596,277343.59999999404,277041.022,277042.40000000596,277057.49,277356.764,,32,you
screen,html.Screen,2_1_0_1_33,2022-04-27T15:18:31.258Z,,,,,,,,,,,,,,,,,53,,,,,,,,,,,,,,806.6360000059358,,response,,,,99,,,,,,,Space,keypress(Space),,,,,,,,---- -- ----- -- ------ - ------- --- ----------<br>------------- ------ ------ ---- ---- ------- ----- -- ----<br>-------- ------- -- ---------- --- - --- ----- ----- ----<br>---- --- --- ----- --- feel ---- ------- ----- ---- -------<br>--- --- -- ----- -- --- ---- -- --- ---- -- ------ ------<br>--- ----- -- ----,278164.59999999404,278163.40000000596,277340.967,277345.1999999881,277356.764,278172.671,,33,feel
screen,html.Screen,2_1_0_1_34,2022-04-27T15:18:31.822Z,,,,,,,,,,,,,,,,,53,,,,,,,,,,,,,,555.1290000119479,,response,,,,99,,,,,,,Space,keypress(Space),,,,,,,,---- -- ----- -- ------ - ------- --- ----------<br>------------- ------ ------ ---- ---- ------- ----- -- ----<br>-------- ------- -- ---------- --- - --- ----- ----- ----<br>---- --- --- ----- --- ---- that ------- ----- ---- -------<br>--- --- -- ----- -- --- ---- -- --- ---- -- ------ ------<br>--- ----- -- ----,278728.6999999881,278727.8000000119,278157.335,278164.8000000119,278172.671,278738.827,,34,that
screen,html.Screen,2_1_0_1_35,2022-04-27T15:18:32.132Z,,,,,,,,,,,,,,,,,53,,,,,,,,,,,,,,299.1730000000098,,response,,,,99,,,,,,,Space,keypress(Space),,,,,,,,---- -- ----- -- ------ - ------- --- ----------<br>------------- ------ ------ ---- ---- ------- ----- -- ----<br>-------- ------- -- ---------- --- - --- ----- ----- ----<br>---- --- --- ----- --- ---- ---- matters ----- ---- -------<br>--- --- -- ----- -- --- ---- -- --- ---- -- ------ ------<br>--- ----- -- ----,279039,279038,278722.689,278728.90000000596,278738.827,279055.608,,35,matters
screen,html.Screen,2_1_0_1_36,2022-04-27T15:18:32.721Z,,,,,,,,,,,,,,,,,53,,,,,,,,,,,,,,570.0919999880716,,response,,,,99,,,,,,,Space,keypress(Space),,,,,,,,"---- -- ----- -- ------ - ------- --- ----------<br>------------- ------ ------ ---- ---- ------- ----- -- ----<br>-------- ------- -- ---------- --- - --- ----- ----- ----<br>---- --- --- ----- --- ---- ---- ------- most, ---- -------<br>--- --- -- ----- -- --- ---- -- --- ---- -- ------ ------<br>--- ----- -- ----",279628,279625.6999999881,279038.83,279039.09999999404,279055.608,279637.928,,36,"most,"
screen,html.Screen,2_1_0_1_37,2022-04-27T15:18:33.215Z,,,,,,,,,,,,,,,,,53,,,,,,,,,,,,,,482.77199998806464,,response,,,,99,,,,,,,Space,keypress(Space),,,,,,,,---- -- ----- -- ------ - ------- --- ----------<br>------------- ------ ------ ---- ---- ------- ----- -- ----<br>-------- ------- -- ---------- --- - --- ----- ----- ----<br>---- --- --- ----- --- ---- ---- ------- ----- it's -------<br>--- --- -- ----- -- --- ---- -- --- ---- -- ------ ------<br>--- ----- -- ----,280122.09999999404,280120.6999999881,279622.313,279628.1999999881,279637.928,280137.464,,37,it's
screen,html.Screen,2_1_0_1_38,2022-04-27T15:18:33.427Z,,,,,,,,,,,,,,,,,53,,,,,,,,,,,,,,195.73599998810096,,response,,,,99,,,,,,,Space,keypress(Space),,,,,,,,---- -- ----- -- ------ - ------- --- ----------<br>------------- ------ ------ ---- ---- ------- ----- -- ----<br>-------- ------- -- ---------- --- - --- ----- ----- ----<br>---- --- --- ----- --- ---- ---- ------- ----- ---- whether<br>--- --- -- ----- -- --- ---- -- --- ---- -- ------ ------<br>--- ----- -- ----,280334.09999999404,280333.1999999881,280122.377,280122.3000000119,280137.464,280337.293,,38,whether
screen,html.Screen,2_1_0_1_39,2022-04-27T15:18:34.010Z,,,,,,,,,,,,,,,,,53,,,,,,,,,,,,,,578.5070000119158,,response,,,,99,,,,,,,Space,keypress(Space),,,,,,,,---- -- ----- -- ------ - ------- --- ----------<br>------------- ------ ------ ---- ---- ------- ----- -- ----<br>-------- ------- -- ---------- --- - --- ----- ----- ----<br>---- --- --- ----- --- ---- ---- ------- ----- ---- -------<br>you --- -- ----- -- --- ---- -- --- ---- -- ------ ------<br>--- ----- -- ----,280917,280915.8000000119,280320.794,280334.1999999881,280337.293,280920.065,,39,you
screen,html.Screen,2_1_0_1_40,2022-04-27T15:18:34.416Z,,,,,,,,,,,,,,,,,53,,,,,,,,,,,,,,401.33500000595814,,response,,,,99,,,,,,,Space,keypress(Space),,,,,,,,---- -- ----- -- ------ - ------- --- ----------<br>------------- ------ ------ ---- ---- ------- ----- -- ----<br>-------- ------- -- ---------- --- - --- ----- ----- ----<br>---- --- --- ----- --- ---- ---- ------- ----- ---- -------<br>--- are -- ----- -- --- ---- -- --- ---- -- ------ ------<br>--- ----- -- ----,281323,281321.40000000596,280903.963,280917.1999999881,280920.065,281336.346,,40,are
screen,html.Screen,2_1_0_1_41,2022-04-27T15:18:34.632Z,,,,,,,,,,,,,,,,,53,,,,,,,,,,,,,,200.95400001190137,,response,,,,99,,,,,,,Space,keypress(Space),,,,,,,,---- -- ----- -- ------ - ------- --- ----------<br>------------- ------ ------ ---- ---- ------- ----- -- ----<br>-------- ------- -- ---------- --- - --- ----- ----- ----<br>---- --- --- ----- --- ---- ---- ------- ----- ---- -------<br>--- --- as ----- -- --- ---- -- --- ---- -- ------ ------<br>--- ----- -- ----,281538.3000000119,281537.3000000119,281320.325,281323.1999999881,281336.346,281552.81,,41,as
screen,html.Screen,2_1_0_1_42,2022-04-27T15:18:34.976Z,,,,,,,,,,,,,,,,,53,,,,,,,,,,,,,,328.78999999404186,,response,,,,99,,,,,,,Space,keypress(Space),,,,,,,,---- -- ----- -- ------ - ------- --- ----------<br>------------- ------ ------ ---- ---- ------- ----- -- ----<br>-------- ------- -- ---------- --- - --- ----- ----- ----<br>---- --- --- ----- --- ---- ---- ------- ----- ---- -------<br>--- --- -- close -- --- ---- -- --- ---- -- ------ ------<br>--- ----- -- ----,281882.5,281881.59999999404,281536.911,281538.5,281552.81,281885.846,,42,close
screen,html.Screen,2_1_0_1_43,2022-04-27T15:18:35.259Z,,,,,,,,,,,,,,,,,53,,,,,,,,,,,,,,278.95400001190137,,response,,,,99,,,,,,,Space,keypress(Space),,,,,,,,---- -- ----- -- ------ - ------- --- ----------<br>------------- ------ ------ ---- ---- ------- ----- -- ----<br>-------- ------- -- ---------- --- - --- ----- ----- ----<br>---- --- --- ----- --- ---- ---- ------- ----- ---- -------<br>--- --- -- ----- as --- ---- -- --- ---- -- ------ ------<br>--- ----- -- ----,282165.6999999881,282164.8000000119,281869.436,281882.6999999881,281885.846,282168.88,,43,as
screen,html.Screen,2_1_0_1_44,2022-04-27T15:18:35.689Z,,,,,,,,,,,,,,,,,53,,,,,,,,,,,,,,425.3199999880744,,response,,,,99,,,,,,,Space,keypress(Space),,,,,,,,---- -- ----- -- ------ - ------- --- ----------<br>------------- ------ ------ ---- ---- ------- ----- -- ----<br>-------- ------- -- ---------- --- - --- ----- ----- ----<br>---- --- --- ----- --- ---- ---- ------- ----- ---- -------<br>--- --- -- ----- -- you ---- -- --- ---- -- ------ ------<br>--- ----- -- ----,282595.6999999881,282594.1999999881,282152.467,282165.90000000596,282168.88,282601.79,,44,you
screen,html.Screen,2_1_0_1_45,2022-04-27T15:18:36.074Z,,,,,,,,,,,,,,,,,53,,,,,,,,,,,,,,377.3099999940605,,response,,,,99,,,,,,,Space,keypress(Space),,,,,,,,---- -- ----- -- ------ - ------- --- ----------<br>------------- ------ ------ ---- ---- ------- ----- -- ----<br>-------- ------- -- ---------- --- - --- ----- ----- ----<br>---- --- --- ----- --- ---- ---- ------- ----- ---- -------<br>--- --- -- ----- -- --- want -- --- ---- -- ------ ------<br>--- ----- -- ----,282980.5,282979.09999999404,282585.812,282595.90000000596,282601.79,282985.31,,45,want
screen,html.Screen,2_1_0_1_46,2022-04-27T15:18:36.412Z,,,,,,,,,,,,,,,,,53,,,,,,,,,,,,,,332.3899999880814,,response,,,,99,,,,,,,Space,keypress(Space),,,,,,,,---- -- ----- -- ------ - ------- --- ----------<br>------------- ------ ------ ---- ---- ------- ----- -- ----<br>-------- ------- -- ---------- --- - --- ----- ----- ----<br>---- --- --- ----- --- ---- ---- ------- ----- ---- -------<br>--- --- -- ----- -- --- ---- to --- ---- -- ------ ------<br>--- ----- -- ----,283319,283317.6999999881,282968.749,282980.59999999404,282985.31,283334.758,,46,to
screen,html.Screen,2_1_0_1_47,2022-04-27T15:18:37.086Z,,,,,,,,,,,,,,,,,53,,,,,,,,,,,,,,656.9419999881065,,response,,,,99,,,,,,,Space,keypress(Space),,,,,,,,"---- -- ----- -- ------ - ------- --- ----------<br>------------- ------ ------ ---- ---- ------- ----- -- ----<br>-------- ------- -- ---------- --- - --- ----- ----- ----<br>---- --- --- ----- --- ---- ---- ------- ----- ---- -------<br>--- --- -- ----- -- --- ---- -- be, ---- -- ------ ------<br>--- ----- -- ----",283992.90000000596,283991.6999999881,283318.356,283319.3000000119,283334.758,284000.508,,47,"be,"
screen,html.Screen,2_1_0_1_48,2022-04-27T15:18:37.560Z,,,,,,,,,,,,,,,,,53,,,,,,,,,,,,,,464.89200000598794,,response,,,,99,,,,,,,Space,keypress(Space),,,,,,,,---- -- ----- -- ------ - ------- --- ----------<br>------------- ------ ------ ---- ---- ------- ----- -- ----<br>-------- ------- -- ---------- --- - --- ----- ----- ----<br>---- --- --- ----- --- ---- ---- ------- ----- ---- -------<br>--- --- -- ----- -- --- ---- -- --- even -- ------ ------<br>--- ----- -- ----,284466.59999999404,284465.40000000596,283985.018,283993.09999999404,284000.508,284500.343,,48,even
screen,html.Screen,2_1_0_1_49,2022-04-27T15:18:38.119Z,,,,,,,,,,,,,,,,,53,,,,,,,,,,,,,,524.9570000119274,,response,,,,99,,,,,,,Space,keypress(Space),,,,,,,,---- -- ----- -- ------ - ------- --- ----------<br>------------- ------ ------ ---- ---- ------- ----- -- ----<br>-------- ------- -- ---------- --- - --- ----- ----- ----<br>---- --- --- ----- --- ---- ---- ------- ----- ---- -------<br>--- --- -- ----- -- --- ---- -- --- ---- if ------ ------<br>--- ----- -- ----,285026.1999999881,285025.3000000119,284483.4,284466.6999999881,284500.343,285032.851,,49,if
screen,html.Screen,2_1_0_1_50,2022-04-27T15:18:38.571Z,,,,,,,,,,,,,,,,,53,,,,,,,,,,,,,,444.04900000593625,,response,,,,99,,,,,,,Space,keypress(Space),,,,,,,,---- -- ----- -- ------ - ------- --- ----------<br>------------- ------ ------ ---- ---- ------- ----- -- ----<br>-------- ------- -- ---------- --- - --- ----- ----- ----<br>---- --- --- ----- --- ---- ---- ------- ----- ---- -------<br>--- --- -- ----- -- --- ---- -- --- ---- -- that's ------<br>--- ----- -- ----,285478.1999999881,285476.90000000596,285016.686,285026.40000000596,285032.851,285482.465,,50,that's
screen,html.Screen,2_1_0_1_51,2022-04-27T15:18:38.804Z,,,,,,,,,,,,,,,,,53,,,,,,,,,,,,,,227.33500001189532,,response,,,,99,,,,,,,Space,keypress(Space),,,,,,,,---- -- ----- -- ------ - ------- --- ----------<br>------------- ------ ------ ---- ---- ------- ----- -- ----<br>-------- ------- -- ---------- --- - --- ----- ----- ----<br>---- --- --- ----- --- ---- ---- ------- ----- ---- -------<br>--- --- -- ----- -- --- ---- -- --- ---- -- ------ really<br>--- ----- -- ----,285711,285709.8000000119,285466.439,285478.3000000119,285482.465,285715.828,,51,really
screen,html.Screen,2_1_0_1_52,2022-04-27T15:18:39.471Z,,,,,,,,,,,,,,,,,53,,,,,,,,,,,,,,660.9720000119414,,response,,,,99,,,,,,,Space,keypress(Space),,,,,,,,---- -- ----- -- ------ - ------- --- ----------<br>------------- ------ ------ ---- ---- ------- ----- -- ----<br>-------- ------- -- ---------- --- - --- ----- ----- ----<br>---- --- --- ----- --- ---- ---- ------- ----- ---- -------<br>--- --- -- ----- -- --- ---- -- --- ---- -- ------ ------<br>not ----- -- ----,286378.09999999404,286376.8000000119,285699.106,285711.1999999881,285715.828,286381.553,,52,not
screen,html.Screen,2_1_0_1_53,2022-04-27T15:18:39.897Z,,,,,,,,,,,,,,,,,53,,,,,,,,,,,,,,420.7470000119065,,response,,,,99,,,,,,,Space,keypress(Space),,,,,,,,---- -- ----- -- ------ - ------- --- ----------<br>------------- ------ ------ ---- ---- ------- ----- -- ----<br>-------- ------- -- ---------- --- - --- ----- ----- ----<br>---- --- --- ----- --- ---- ---- ------- ----- ---- -------<br>--- --- -- ----- -- --- ---- -- --- ---- -- ------ ------<br>--- close -- ----,286803.5,286802.3000000119,286365.537,286379.90000000596,286381.553,286814.497,,53,close
screen,html.Screen,2_1_0_1_54,2022-04-27T15:18:40.120Z,,,,,,,,,,,,,,,,,53,,,,,,,,,,,,,,211.50300000002608,,response,,,,99,,,,,,,Space,keypress(Space),,,,,,,,---- -- ----- -- ------ - ------- --- ----------<br>------------- ------ ------ ---- ---- ------- ----- -- ----<br>-------- ------- -- ---------- --- - --- ----- ----- ----<br>---- --- --- ----- --- ---- ---- ------- ----- ---- -------<br>--- --- -- ----- -- --- ---- -- --- ---- -- ------ ------<br>--- ----- at ----,287026.90000000596,287026,286798.251,286803.6999999881,286814.497,287030.967,,54,at
screen,html.Screen,2_1_0_1_55,2022-04-27T15:18:41.156Z,,,,,,,,,,,,,,,,,53,,,,,,,,,,,,,,1030.2329999880749,,response,,,,99,,,,,,,Space,keypress(Space),,,,,,,,---- -- ----- -- ------ - ------- --- ----------<br>------------- ------ ------ ---- ---- ------- ----- -- ----<br>-------- ------- -- ---------- --- - --- ----- ----- ----<br>---- --- --- ----- --- ---- ---- ------- ----- ---- -------<br>--- --- -- ----- -- --- ---- -- --- ---- -- ------ ------<br>--- ----- -- all.,288062.5,288061.1999999881,287015.065,287027,287030.967,288079.971,,55,all.
Item 99,flow.Loop,2_1_0_1,2022-04-27T15:18:41.156Z,,,,,,,,,,,,,,,,,,,,,,,,,,,,,,,24541.318999988085,,completion,,,,,C,,,,,,,,,,,silence,,,,,288062.8000000119,288061.1999999881,263453.878,263454.90000000596,263519.881,288079.971,,,
Question 1,html.Screen,2_1_0_2,2022-04-27T15:18:45.668Z,,,,,,,,,,,,,,,,,,,,,,,,,,,,true,FALSE,,4493.02899999998,,response,,,,99,C,,,,,,FALSE,click #choice-2,,,,silence,,,,,292575.09999999404,292573,288047.472,288062.90000000596,288079.971,292575.698,,,
Question 2,html.Screen,2_1_0_3,2022-04-27T15:18:50.335Z,,,,,,,,,,,,,,,,,,,,,,,,,,,,true,TRUE,,4663.202000005986,,response,,,,99,C,,,,,,TRUE,click #choice-1,,,,silence,,,,,297241.40000000596,297238.90000000596,292559.769,292575.3000000119,292575.698,297255.228,,,
Item 99,flow.Sequence,2_1_0,2022-04-27T15:18:50.335Z,,,,,,,,,,,,,,,,,,,,,,,,,,,,,,,43776.14400000597,,completion,,,,,,,,,,,,,,,,,,,,,297242.09999999404,297238.90000000596,253412.907,253459.59999999404,253462.756,297255.228,,,
Holding screen,html.Screen,2_1_1_0,2022-04-27T15:19:00.339Z,,,,,,,,,,,,,,,,,,,,,,,,,,,,,,,10006.560999999987,,timeout,,,,,,,,,,,,,,,,,,,,,307246.09999999404,307245.159,297238.622,297242.3000000119,297255.228,307261.789,,,
screen,html.Screen,2_1_1_1_0,2022-04-27T15:19:01.052Z,,,,,,,,,,,,,,,,,54,,,,,,,,,,,,,,695.3109999940498,,response,,,,100,,,,,,,Space,keypress(Space),,,,,,,,At --- ---- --- ------ ----- ------- ---- -- --- ------- --<br>------- ---------- ------ -- ----- -- ----- -- ---- ------<br>--- ----- --- --- ------ -------- ----- --- ------ ----- --<br>----- ----- ---------- --- --- ------ ------ ---- -- ------<br>------- --- ------ ----- --- ---- ------- -- ---- --- --<br>------- ------,307958.3000000119,307957.09999999404,307245.159,307246.5,307261.789,307961.135,,0,At
screen,html.Screen,2_1_1_1_1,2022-04-27T15:19:01.555Z,,,,,,,,,,,,,,,,,54,,,,,,,,,,,,,,499.56499998806976,,response,,,,100,,,,,,,Space,keypress(Space),,,,,,,,-- the ---- --- ------ ----- ------- ---- -- --- ------- --<br>------- ---------- ------ -- ----- -- ----- -- ---- ------<br>--- ----- --- --- ------ -------- ----- --- ------ ----- --<br>----- ----- ---------- --- --- ------ ------ ---- -- ------<br>------- --- ------ ----- --- ---- ------- -- ---- --- --<br>------- ------,308461.8000000119,308460.6999999881,307945.692,307958.5,307961.135,308477.653,,1,the
screen,html.Screen,2_1_1_1_2,2022-04-27T15:19:01.924Z,,,,,,,,,,,,,,,,,54,,,,,,,,,,,,,,351.6470000119298,,response,,,,100,,,,,,,Space,keypress(Space),,,,,,,,-- --- time --- ------ ----- ------- ---- -- --- ------- --<br>------- ---------- ------ -- ----- -- ----- -- ---- ------<br>--- ----- --- --- ------ -------- ----- --- ------ ----- --<br>----- ----- ---------- --- --- ------ ------ ---- -- ------<br>------- --- ------ ----- --- ---- ------- -- ---- --- --<br>------- ------,308830.59999999404,308829.3000000119,308461.393,308462,308477.653,308843.635,,2,time
screen,html.Screen,2_1_1_1_3,2022-04-27T15:19:02.179Z,,,,,,,,,,,,,,,,,54,,,,,,,,,,,,,,241.16500001191162,,response,,,,100,,,,,,,Space,keypress(Space),,,,,,,,-- --- ---- the ------ ----- ------- ---- -- --- ------- --<br>------- ---------- ------ -- ----- -- ----- -- ---- ------<br>--- ----- --- --- ------ -------- ----- --- ------ ----- --<br>----- ----- ---------- --- --- ------ ------ ---- -- ------<br>------- --- ------ ----- --- ---- ------- -- ---- --- --<br>------- ------,309085.8000000119,309084.8000000119,308827.88,308830.6999999881,308843.635,309093.363,,3,the
screen,html.Screen,2_1_1_1_4,2022-04-27T15:19:02.536Z,,,,,,,,,,,,,,,,,54,,,,,,,,,,,,,,348.6369999999879,,response,,,,100,,,,,,,Space,keypress(Space),,,,,,,,-- --- ---- --- French ----- ------- ---- -- --- ------- --<br>------- ---------- ------ -- ----- -- ----- -- ---- ------<br>--- ----- --- --- ------ -------- ----- --- ------ ----- --<br>----- ----- ---------- --- --- ------ ------ ---- -- ------<br>------- --- ------ ----- --- ---- ------- -- ---- --- --<br>------- ------,309442.8000000119,309442,309077.552,309086,309093.363,309460.012,,4,French
screen,html.Screen,2_1_1_1_5,2022-04-27T15:19:02.768Z,,,,,,,,,,,,,,,,,54,,,,,,,,,,,,,,213.58799999405164,,response,,,,100,,,,,,,Space,keypress(Space),,,,,,,,-- --- ---- --- ------ crown ------- ---- -- --- ------- --<br>------- ---------- ------ -- ----- -- ----- -- ---- ------<br>--- ----- --- --- ------ -------- ----- --- ------ ----- --<br>----- ----- ---------- --- --- ------ ------ ---- -- ------<br>------- --- ------ ----- --- ---- ------- -- ---- --- --<br>------- ------,309674.5,309673.59999999404,309443.396,309443.09999999404,309460.012,309676.178,,5,crown
screen,html.Screen,2_1_1_1_6,2022-04-27T15:19:02.961Z,,,,,,,,,,,,,,,,,54,,,,,,,,,,,,,,190.22200000594603,,response,,,,100,,,,,,,Space,keypress(Space),,,,,,,,-- --- ---- --- ------ ----- secured ---- -- --- ------- --<br>------- ---------- ------ -- ----- -- ----- -- ---- ------<br>--- ----- --- --- ------ -------- ----- --- ------ ----- --<br>----- ----- ---------- --- --- ------ ------ ---- -- ------<br>------- --- ------ ----- --- ---- ------- -- ---- --- --<br>------- ------,309867.59999999404,309866.40000000596,309659.719,309674.6999999881,309676.178,309875.994,,6,secured
screen,html.Screen,2_1_1_1_7,2022-04-27T15:19:03.267Z,,,,,,,,,,,,,,,,,54,,,,,,,,,,,,,,295.8060000119149,,response,,,,100,,,,,,,Space,keypress(Space),,,,,,,,-- --- ---- --- ------ ----- ------- much -- --- ------- --<br>------- ---------- ------ -- ----- -- ----- -- ---- ------<br>--- ----- --- --- ------ -------- ----- --- ------ ----- --<br>----- ----- ---------- --- --- ------ ------ ---- -- ------<br>------- --- ------ ----- --- ---- ------- -- ---- --- --<br>------- ------,310173.3000000119,310171.8000000119,309859.541,309867.6999999881,309875.994,310175.694,,7,much
screen,html.Screen,2_1_1_1_8,2022-04-27T15:19:03.599Z,,,,,,,,,,,,,,,,,54,,,,,,,,,,,,,,328.3059999999823,,response,,,,100,,,,,,,Space,keypress(Space),,,,,,,,-- --- ---- --- ------ ----- ------- ---- of --- ------- --<br>------- ---------- ------ -- ----- -- ----- -- ---- ------<br>--- ----- --- --- ------ -------- ----- --- ------ ----- --<br>----- ----- ---------- --- --- ------ ------ ---- -- ------<br>------- --- ------ ----- --- ---- ------- -- ---- --- --<br>------- ------,310505.3000000119,310504,310159.308,310173.5,310175.694,310508.734,,8,of
screen,html.Screen,2_1_1_1_9,2022-04-27T15:19:03.937Z,,,,,,,,,,,,,,,,,54,,,,,,,,,,,,,,333.8659999940428,,response,,,,100,,,,,,,Space,keypress(Space),,,,,,,,-- --- ---- --- ------ ----- ------- ---- -- its ------- --<br>------- ---------- ------ -- ----- -- ----- -- ---- ------<br>--- ----- --- --- ------ -------- ----- --- ------ ----- --<br>----- ----- ---------- --- --- ------ ------ ---- -- ------<br>------- --- ------ ----- --- ---- ------- -- ---- --- --<br>------- ------,310843.90000000596,310842.59999999404,310492.613,310505.40000000596,310508.734,310858.392,,9,its
screen,html.Screen,2_1_1_1_10,2022-04-27T15:19:04.368Z,,,,,,,,,,,,,,,,,54,,,,,,,,,,,,,,414.10800000000745,,response,,,,100,,,,,,,Space,keypress(Space),,,,,,,,-- --- ---- --- ------ ----- ------- ---- -- --- revenue --<br>------- ---------- ------ -- ----- -- ----- -- ---- ------<br>--- ----- --- --- ------ -------- ----- --- ------ ----- --<br>----- ----- ---------- --- --- ------ ------ ---- -- ------<br>------- --- ------ ----- --- ---- ------- -- ---- --- --<br>------- ------,311274.59999999404,311272.5,310842.082,310844.09999999404,310858.392,311291.91,,10,revenue
screen,html.Screen,2_1_1_1_11,2022-04-27T15:19:04.862Z,,,,,,,,,,,,,,,,,54,,,,,,,,,,,,,,475.89000001194654,,response,,,,100,,,,,,,Space,keypress(Space),,,,,,,,-- --- ---- --- ------ ----- ------- ---- -- --- ------- by<br>------- ---------- ------ -- ----- -- ----- -- ---- ------<br>--- ----- --- --- ------ -------- ----- --- ------ ----- --<br>----- ----- ---------- --- --- ------ ------ ---- -- ------<br>------- --- ------ ----- --- ---- ------- -- ---- --- --<br>------- ------,311769,311767.8000000119,311258.837,311274.8000000119,311291.91,311774.201,,11,by
screen,html.Screen,2_1_1_1_12,2022-04-27T15:19:05.112Z,,,,,,,,,,,,,,,,,54,,,,,,,,,,,,,,244.09900001192,,response,,,,100,,,,,,,Space,keypress(Space),,,,,,,,-- --- ---- --- ------ ----- ------- ---- -- --- ------- --<br>issuing ---------- ------ -- ----- -- ----- -- ---- ------<br>--- ----- --- --- ------ -------- ----- --- ------ ----- --<br>----- ----- ---------- --- --- ------ ------ ---- -- ------<br>------- --- ------ ----- --- ---- ------- -- ---- --- --<br>------- ------,312019.1999999881,312018.3000000119,311757.988,311769.09999999404,311774.201,312023.98,,12,issuing
screen,html.Screen,2_1_1_1_13,2022-04-27T15:19:05.474Z,,,,,,,,,,,,,,,,,54,,,,,,,,,,,,,,355.61999999405816,,response,,,,100,,,,,,,Space,keypress(Space),,,,,,,,-- --- ---- --- ------ ----- ------- ---- -- --- ------- --<br>------- government ------ -- ----- -- ----- -- ---- ------<br>--- ----- --- --- ------ -------- ----- --- ------ ----- --<br>----- ----- ---------- --- --- ------ ------ ---- -- ------<br>------- --- ------ ----- --- ---- ------- -- ---- --- --<br>------- ------,312380.90000000596,312379.59999999404,312007.778,312019.40000000596,312023.98,312390.541,,13,government
screen,html.Screen,2_1_1_1_14,2022-04-27T15:19:06.234Z,,,,,,,,,,,,,,,,,54,,,,,,,,,,,,,,748.7590000118944,,response,,,,100,,,,,,,Space,keypress(Space),,,,,,,,-- --- ---- --- ------ ----- ------- ---- -- --- ------- --<br>------- ---------- bonds. -- ----- -- ----- -- ---- ------<br>--- ----- --- --- ------ -------- ----- --- ------ ----- --<br>----- ----- ---------- --- --- ------ ------ ---- -- ------<br>------- --- ------ ----- --- ---- ------- -- ---- --- --<br>------- ------,313141.09999999404,313139.3000000119,312373.928,312381.09999999404,312390.541,313156.193,,14,bonds.
screen,html.Screen,2_1_1_1_15,2022-04-27T15:19:06.836Z,,,,,,,,,,,,,,,,,54,,,,,,,,,,,,,,585.6070000118925,,response,,,,100,,,,,,,Space,keypress(Space),,,,,,,,-- --- ---- --- ------ ----- ------- ---- -- --- ------- --<br>------- ---------- ------ In ----- -- ----- -- ---- ------<br>--- ----- --- --- ------ -------- ----- --- ------ ----- --<br>----- ----- ---------- --- --- ------ ------ ---- -- ------<br>------- --- ------ ----- --- ---- ------- -- ---- --- --<br>------- ------,313743.09999999404,313741.8000000119,313140.808,313141.3000000119,313156.193,313755.699,,15,In
screen,html.Screen,2_1_1_1_16,2022-04-27T15:19:07.866Z,,,,,,,,,,,,,,,,,54,,,,,,,,,,,,,,1016.7010000059381,,response,,,,100,,,,,,,Space,keypress(Space),,,,,,,,"-- --- ---- --- ------ ----- ------- ---- -- --- ------- --<br>------- ---------- ------ -- 1727, -- ----- -- ---- ------<br>--- ----- --- --- ------ -------- ----- --- ------ ----- --<br>----- ----- ---------- --- --- ------ ------ ---- -- ------<br>------- --- ------ ----- --- ---- ------- -- ---- --- --<br>------- ------",314773.1999999881,314772.40000000596,313740.1,313743.1999999881,313755.699,314788.01,,16,"1727,"
screen,html.Screen,2_1_1_1_17,2022-04-27T15:19:08.267Z,,,,,,,,,,,,,,,,,54,,,,,,,,,,,,,,385.2900000119116,,response,,,,100,,,,,,,Space,keypress(Space),,,,,,,,-- --- ---- --- ------ ----- ------- ---- -- --- ------- --<br>------- ---------- ------ -- ----- in ----- -- ---- ------<br>--- ----- --- --- ------ -------- ----- --- ------ ----- --<br>----- ----- ---------- --- --- ------ ------ ---- -- ------<br>------- --- ------ ----- --- ---- ------- -- ---- --- --<br>------- ------,315174.1999999881,315173.3000000119,314772.306,314773.40000000596,314788.01,315187.631,,17,in
screen,html.Screen,2_1_1_1_18,2022-04-27T15:19:08.656Z,,,,,,,,,,,,,,,,,54,,,,,,,,,,,,,,373.669000011927,,response,,,,100,,,,,,,Space,keypress(Space),,,,,,,,-- --- ---- --- ------ ----- ------- ---- -- --- ------- --<br>------- ---------- ------ -- ----- -- order -- ---- ------<br>--- ----- --- --- ------ -------- ----- --- ------ ----- --<br>----- ----- ---------- --- --- ------ ------ ---- -- ------<br>------- --- ------ ----- --- ---- ------- -- ---- --- --<br>------- ------,315562.5,315561.3000000119,315171.355,315174.40000000596,315187.631,315570.594,,18,order
screen,html.Screen,2_1_1_1_19,2022-04-27T15:19:08.883Z,,,,,,,,,,,,,,,,,54,,,,,,,,,,,,,,218.40600000001723,,response,,,,100,,,,,,,Space,keypress(Space),,,,,,,,-- --- ---- --- ------ ----- ------- ---- -- --- ------- --<br>------- ---------- ------ -- ----- -- ----- to ---- ------<br>--- ----- --- --- ------ -------- ----- --- ------ ----- --<br>----- ----- ---------- --- --- ------ ------ ---- -- ------<br>------- --- ------ ----- --- ---- ------- -- ---- --- --<br>------- ------,315790.09999999404,315789,315554.841,315562.59999999404,315570.594,315803.718,,19,to
screen,html.Screen,2_1_1_1_20,2022-04-27T15:19:09.106Z,,,,,,,,,,,,,,,,,54,,,,,,,,,,,,,,208.28200000000652,,response,,,,100,,,,,,,Space,keypress(Space),,,,,,,,-- --- ---- --- ------ ----- ------- ---- -- --- ------- --<br>------- ---------- ------ -- ----- -- ----- -- save ------<br>--- ----- --- --- ------ -------- ----- --- ------ ----- --<br>----- ----- ---------- --- --- ------ ------ ---- -- ------<br>------- --- ------ ----- --- ---- ------- -- ---- --- --<br>------- ------,316012.90000000596,316012,315788.109,315790.40000000596,315803.718,316020.138,,20,save
screen,html.Screen,2_1_1_1_21,2022-04-27T15:19:09.625Z,,,,,,,,,,,,,,,,,54,,,,,,,,,,,,,,509.8620000000228,,response,,,,100,,,,,,,Space,keypress(Space),,,,,,,,"-- --- ---- --- ------ ----- ------- ---- -- --- ------- --<br>------- ---------- ------ -- ----- -- ----- -- ---- money,<br>--- ----- --- --- ------ -------- ----- --- ------ ----- --<br>----- ----- ---------- --- --- ------ ------ ---- -- ------<br>------- --- ------ ----- --- ---- ------- -- ---- --- --<br>------- ------",316532,316530,316003.691,316013.09999999404,316020.138,316536.358,,21,"money,"
screen,html.Screen,2_1_1_1_22,2022-04-27T15:19:10.093Z,,,,,,,,,,,,,,,,,54,,,,,,,,,,,,,,462.3419999880716,,response,,,,100,,,,,,,Space,keypress(Space),,,,,,,,-- --- ---- --- ------ ----- ------- ---- -- --- ------- --<br>------- ---------- ------ -- ----- -- ----- -- ---- ------<br>the ----- --- --- ------ -------- ----- --- ------ ----- --<br>----- ----- ---------- --- --- ------ ------ ---- -- ------<br>------- --- ------ ----- --- ---- ------- -- ---- --- --<br>------- ------,317000,316998.6999999881,316520.541,316532.1999999881,316536.358,317002.564,,22,the
screen,html.Screen,2_1_1_1_23,2022-04-27T15:19:10.483Z,,,,,,,,,,,,,,,,,54,,,,,,,,,,,,,,385.63599998806603,,response,,,,100,,,,,,,Space,keypress(Space),,,,,,,,-- --- ---- --- ------ ----- ------- ---- -- --- ------- --<br>------- ---------- ------ -- ----- -- ----- -- ---- ------<br>--- state --- --- ------ -------- ----- --- ------ ----- --<br>----- ----- ---------- --- --- ------ ------ ---- -- ------<br>------- --- ------ ----- --- ---- ------- -- ---- --- --<br>------- ------,317389.5,317388.1999999881,316986.367,317000.1999999881,317002.564,317402.175,,23,state
screen,html.Screen,2_1_1_1_24,2022-04-27T15:19:10.751Z,,,,,,,,,,,,,,,,,54,,,,,,,,,,,,,,254.82500000001164,,response,,,,100,,,,,,,Space,keypress(Space),,,,,,,,-- --- ---- --- ------ ----- ------- ---- -- --- ------- --<br>------- ---------- ------ -- ----- -- ----- -- ---- ------<br>--- ----- cut --- ------ -------- ----- --- ------ ----- --<br>----- ----- ---------- --- --- ------ ------ ---- -- ------<br>------- --- ------ ----- --- ---- ------- -- ---- --- --<br>------- ------,317658.1999999881,317657,317385.931,317389.8000000119,317402.175,317668.889,,24,cut
screen,html.Screen,2_1_1_1_25,2022-04-27T15:19:10.990Z,,,,,,,,,,,,,,,,,54,,,,,,,,,,,,,,226.71099999401486,,response,,,,100,,,,,,,Space,keypress(Space),,,,,,,,-- --- ---- --- ------ ----- ------- ---- -- --- ------- --<br>------- ---------- ------ -- ----- -- ----- -- ---- ------<br>--- ----- --- the ------ -------- ----- --- ------ ----- --<br>----- ----- ---------- --- --- ------ ------ ---- -- ------<br>------- --- ------ ----- --- ---- ------- -- ---- --- --<br>------- ------,317896.6999999881,317895.59999999404,317652.767,317658.3000000119,317668.889,317901.74,,25,the
screen,html.Screen,2_1_1_1_26,2022-04-27T15:19:11.269Z,,,,,,,,,,,,,,,,,54,,,,,,,,,,,,,,272.6600000059698,,response,,,,100,,,,,,,Space,keypress(Space),,,,,,,,-- --- ---- --- ------ ----- ------- ---- -- --- ------- --<br>------- ---------- ------ -- ----- -- ----- -- ---- ------<br>--- ----- --- --- bonds' -------- ----- --- ------ ----- --<br>----- ----- ---------- --- --- ------ ------ ---- -- ------<br>------- --- ------ ----- --- ---- ------- -- ---- --- --<br>------- ------,318175.6999999881,318174.40000000596,317885.197,317896.90000000596,317901.74,318184.81,,26,bonds'
screen,html.Screen,2_1_1_1_27,2022-04-27T15:19:11.813Z,,,,,,,,,,,,,,,,,54,,,,,,,,,,,,,,534.3899999880814,,response,,,,100,,,,,,,Space,keypress(Space),,,,,,,,-- --- ---- --- ------ ----- ------- ---- -- --- ------- --<br>------- ---------- ------ -- ----- -- ----- -- ---- ------<br>--- ----- --- --- ------ interest ----- --- ------ ----- --<br>----- ----- ---------- --- --- ------ ------ ---- -- ------<br>------- --- ------ ----- --- ---- ------- -- ---- --- --<br>------- ------,318720.1999999881,318719.1999999881,318168.592,318175.8000000119,318184.81,318734.277,,27,interest
screen,html.Screen,2_1_1_1_28,2022-04-27T15:19:12.351Z,,,,,,,,,,,,,,,,,54,,,,,,,,,,,,,,522.1230000059586,,response,,,,100,,,,,,,Space,keypress(Space),,,,,,,,-- --- ---- --- ------ ----- ------- ---- -- --- ------- --<br>------- ---------- ------ -- ----- -- ----- -- ---- ------<br>--- ----- --- --- ------ -------- rate. --- ------ ----- --<br>----- ----- ---------- --- --- ------ ------ ---- -- ------<br>------- --- ------ ----- --- ---- ------- -- ---- --- --<br>------- ------,319257.3000000119,319256.40000000596,318718.562,318720.40000000596,318734.277,319267.119,,28,rate.
screen,html.Screen,2_1_1_1_29,2022-04-27T15:19:12.895Z,,,,,,,,,,,,,,,,,54,,,,,,,,,,,,,,533.880999999994,,response,,,,100,,,,,,,Space,keypress(Space),,,,,,,,-- --- ---- --- ------ ----- ------- ---- -- --- ------- --<br>------- ---------- ------ -- ----- -- ----- -- ---- ------<br>--- ----- --- --- ------ -------- ----- The ------ ----- --<br>----- ----- ---------- --- --- ------ ------ ---- -- ------<br>------- --- ------ ----- --- ---- ------- -- ---- --- --<br>------- ------,319802.1999999881,319801,319251.492,319257.59999999404,319267.119,319816.581,,29,The
screen,html.Screen,2_1_1_1_30,2022-04-27T15:19:13.569Z,,,,,,,,,,,,,,,,,54,,,,,,,,,,,,,,658.4189999999944,,response,,,,100,,,,,,,Space,keypress(Space),,,,,,,,-- --- ---- --- ------ ----- ------- ---- -- --- ------- --<br>------- ---------- ------ -- ----- -- ----- -- ---- ------<br>--- ----- --- --- ------ -------- ----- --- market ----- --<br>----- ----- ---------- --- --- ------ ------ ---- -- ------<br>------- --- ------ ----- --- ---- ------- -- ---- --- --<br>------- ------,320476.1999999881,320475,319800.933,319802.40000000596,319816.581,320482.599,,30,market
screen,html.Screen,2_1_1_1_31,2022-04-27T15:19:14.003Z,,,,,,,,,,,,,,,,,54,,,,,,,,,,,,,,426.0009999940521,,response,,,,100,,,,,,,Space,keypress(Space),,,,,,,,-- --- ---- --- ------ ----- ------- ---- -- --- ------- --<br>------- ---------- ------ -- ----- -- ----- -- ---- ------<br>--- ----- --- --- ------ -------- ----- --- ------ value --<br>----- ----- ---------- --- --- ------ ------ ---- -- ------<br>------- --- ------ ----- --- ---- ------- -- ---- --- --<br>------- ------,320909.8000000119,320908.59999999404,320466.568,320476.40000000596,320482.599,320915.507,,31,value
screen,html.Screen,2_1_1_1_32,2022-04-27T15:19:14.298Z,,,,,,,,,,,,,,,,,54,,,,,,,,,,,,,,288.5929999940563,,response,,,,100,,,,,,,Space,keypress(Space),,,,,,,,-- --- ---- --- ------ ----- ------- ---- -- --- ------- --<br>------- ---------- ------ -- ----- -- ----- -- ---- ------<br>--- ----- --- --- ------ -------- ----- --- ------ ----- of<br>----- ----- ---------- --- --- ------ ------ ---- -- ------<br>------- --- ------ ----- --- ---- ------- -- ---- --- --<br>------- ------,321205,321204.09999999404,320899.558,320909.90000000596,320915.507,321215.562,,32,of
screen,html.Screen,2_1_1_1_33,2022-04-27T15:19:14.490Z,,,,,,,,,,,,,,,,,54,,,,,,,,,,,,,,180.43800000002375,,response,,,,100,,,,,,,Space,keypress(Space),,,,,,,,-- --- ---- --- ------ ----- ------- ---- -- --- ------- --<br>------- ---------- ------ -- ----- -- ----- -- ---- ------<br>--- ----- --- --- ------ -------- ----- --- ------ ----- --<br>these ----- ---------- --- --- ------ ------ ---- -- ------<br>------- --- ------ ----- --- ---- ------- -- ---- --- --<br>------- ------,321397,321396,321198.902,321205.1999999881,321215.562,321423.263,,33,these
screen,html.Screen,2_1_1_1_34,2022-04-27T15:19:14.821Z,,,,,,,,,,,,,,,,,54,,,,,,,,,,,,,,304.03700001194375,,response,,,,100,,,,,,,Space,keypress(Space),,,,,,,,-- --- ---- --- ------ ----- ------- ---- -- --- ------- --<br>------- ---------- ------ -- ----- -- ----- -- ---- ------<br>--- ----- --- --- ------ -------- ----- --- ------ ----- --<br>----- bonds ---------- --- --- ------ ------ ---- -- ------<br>------- --- ------ ----- --- ---- ------- -- ---- --- --<br>------- ------,321728.1999999881,321727.3000000119,321382.519,321397.3000000119,321423.263,321731.442,,34,bonds
screen,html.Screen,2_1_1_1_35,2022-04-27T15:19:15.126Z,,,,,,,,,,,,,,,,,54,,,,,,,,,,,,,,300.25799998809816,,response,,,,100,,,,,,,Space,keypress(Space),,,,,,,,"-- --- ---- --- ------ ----- ------- ---- -- --- ------- --<br>------- ---------- ------ -- ----- -- ----- -- ---- ------<br>--- ----- --- --- ------ -------- ----- --- ------ ----- --<br>----- ----- plummeted, --- --- ------ ------ ---- -- ------<br>------- --- ------ ----- --- ---- ------- -- ---- --- --<br>------- ------",322032.90000000596,322031.6999999881,321715.175,321728.40000000596,321731.442,322048.104,,35,"plummeted,"
screen,html.Screen,2_1_1_1_36,2022-04-27T15:19:15.641Z,,,,,,,,,,,,,,,,,54,,,,,,,,,,,,,,498.8960000000079,,response,,,,100,,,,,,,Space,keypress(Space),,,,,,,,-- --- ---- --- ------ ----- ------- ---- -- --- ------- --<br>------- ---------- ------ -- ----- -- ----- -- ---- ------<br>--- ----- --- --- ------ -------- ----- --- ------ ----- --<br>----- ----- ---------- and --- ------ ------ ---- -- ------<br>------- --- ------ ----- --- ---- ------- -- ---- --- --<br>------- ------,322548.09999999404,322547,322031.652,322033.09999999404,322048.104,322563.991,,36,and
screen,html.Screen,2_1_1_1_37,2022-04-27T15:19:16.118Z,,,,,,,,,,,,,,,,,54,,,,,,,,,,,,,,459.10899999405956,,response,,,,100,,,,,,,Space,keypress(Space),,,,,,,,-- --- ---- --- ------ ----- ------- ---- -- --- ------- --<br>------- ---------- ------ -- ----- -- ----- -- ---- ------<br>--- ----- --- --- ------ -------- ----- --- ------ ----- --<br>----- ----- ---------- --- the ------ ------ ---- -- ------<br>------- --- ------ ----- --- ---- ------- -- ---- --- --<br>------- ------,323024.5,323023.09999999404,322548.351,322548.3000000119,322563.991,323030.218,,37,the
screen,html.Screen,2_1_1_1_38,2022-04-27T15:19:16.553Z,,,,,,,,,,,,,,,,,54,,,,,,,,,,,,,,428.182000005967,,response,,,,100,,,,,,,Space,keypress(Space),,,,,,,,-- --- ---- --- ------ ----- ------- ---- -- --- ------- --<br>------- ---------- ------ -- ----- -- ----- -- ---- ------<br>--- ----- --- --- ------ -------- ----- --- ------ ----- --<br>----- ----- ---------- --- --- market ------ ---- -- ------<br>------- --- ------ ----- --- ---- ------- -- ---- --- --<br>------- ------,323459.6999999881,323458.40000000596,323014.532,323024.59999999404,323030.218,323463.16,,38,market
screen,html.Screen,2_1_1_1_39,2022-04-27T15:19:16.840Z,,,,,,,,,,,,,,,,,54,,,,,,,,,,,,,,283.0399999881047,,response,,,,100,,,,,,,Space,keypress(Space),,,,,,,,-- --- ---- --- ------ ----- ------- ---- -- --- ------- --<br>------- ---------- ------ -- ----- -- ----- -- ---- ------<br>--- ----- --- --- ------ -------- ----- --- ------ ----- --<br>----- ----- ---------- --- --- ------ became ---- -- ------<br>------- --- ------ ----- --- ---- ------- -- ---- --- --<br>------- ------,323747.09999999404,323746.1999999881,323447.119,323459.8000000119,323463.16,323763.112,,39,became
screen,html.Screen,2_1_1_1_40,2022-04-27T15:19:17.073Z,,,,,,,,,,,,,,,,,54,,,,,,,,,,,,,,215.78800000593765,,response,,,,100,,,,,,,Space,keypress(Space),,,,,,,,-- --- ---- --- ------ ----- ------- ---- -- --- ------- --<br>------- ---------- ------ -- ----- -- ----- -- ---- ------<br>--- ----- --- --- ------ -------- ----- --- ------ ----- --<br>----- ----- ---------- --- --- ------ ------ wary -- ------<br>------- --- ------ ----- --- ---- ------- -- ---- --- --<br>------- ------,323979.90000000596,323978.90000000596,323746.722,323747.3000000119,323763.112,323995.987,,40,wary
screen,html.Screen,2_1_1_1_41,2022-04-27T15:19:17.564Z,,,,,,,,,,,,,,,,,54,,,,,,,,,,,,,,473.41300000593765,,response,,,,100,,,,,,,Space,keypress(Space),,,,,,,,-- --- ---- --- ------ ----- ------- ---- -- --- ------- --<br>------- ---------- ------ -- ----- -- ----- -- ---- ------<br>--- ----- --- --- ------ -------- ----- --- ------ ----- --<br>----- ----- ---------- --- --- ------ ------ ---- of ------<br>------- --- ------ ----- --- ---- ------- -- ---- --- --<br>------- ------,324470.59999999404,324469.40000000596,323979.498,323980,323995.987,324478.78,,41,of
screen,html.Screen,2_1_1_1_42,2022-04-27T15:19:18.177Z,,,,,,,,,,,,,,,,,54,,,,,,,,,,,,,,603.6200000059325,,response,,,,100,,,,,,,Space,keypress(Space),,,,,,,,-- --- ---- --- ------ ----- ------- ---- -- --- ------- --<br>------- ---------- ------ -- ----- -- ----- -- ---- ------<br>--- ----- --- --- ------ -------- ----- --- ------ ----- --<br>----- ----- ---------- --- --- ------ ------ ---- -- French<br>------- --- ------ ----- --- ---- ------- -- ---- --- --<br>------- ------,325083.40000000596,325082.40000000596,324462.635,324470.8000000119,324478.78,325094.877,,42,French
screen,html.Screen,2_1_1_1_43,2022-04-27T15:19:18.636Z,,,,,,,,,,,,,,,,,54,,,,,,,,,,,,,,446.42300001194235,,response,,,,100,,,,,,,Space,keypress(Space),,,,,,,,-- --- ---- --- ------ ----- ------- ---- -- --- ------- --<br>------- ---------- ------ -- ----- -- ----- -- ---- ------<br>--- ----- --- --- ------ -------- ----- --- ------ ----- --<br>----- ----- ---------- --- --- ------ ------ ---- -- ------<br>credit. --- ------ ----- --- ---- ------- -- ---- --- --<br>------- ------,325542.59999999404,325541.3000000119,325079.221,325083.6999999881,325094.877,325544.467,,43,credit.
screen,html.Screen,2_1_1_1_44,2022-04-27T15:19:18.925Z,,,,,,,,,,,,,,,,,54,,,,,,,,,,,,,,286.4330000059563,,response,,,,100,,,,,,,Space,keypress(Space),,,,,,,,-- --- ---- --- ------ ----- ------- ---- -- --- ------- --<br>------- ---------- ------ -- ----- -- ----- -- ---- ------<br>--- ----- --- --- ------ -------- ----- --- ------ ----- --<br>----- ----- ---------- --- --- ------ ------ ---- -- ------<br>------- The ------ ----- --- ---- ------- -- ---- --- --<br>------- ------,325831.90000000596,325830.90000000596,325528.63,325542.6999999881,325544.467,325844.507,,44,The
screen,html.Screen,2_1_1_1_45,2022-04-27T15:19:19.131Z,,,,,,,,,,,,,,,,,54,,,,,,,,,,,,,,192.49300000001676,,response,,,,100,,,,,,,Space,keypress(Space),,,,,,,,-- --- ---- --- ------ ----- ------- ---- -- --- ------- --<br>------- ---------- ------ -- ----- -- ----- -- ---- ------<br>--- ----- --- --- ------ -------- ----- --- ------ ----- --<br>----- ----- ---------- --- --- ------ ------ ---- -- ------<br>------- --- French ----- --- ---- ------- -- ---- --- --<br>------- ------,326038,326037,325828.102,325832,325844.507,326044.01,,45,French
screen,html.Screen,2_1_1_1_46,2022-04-27T15:19:20.295Z,,,,,,,,,,,,,,,,,54,,,,,,,,,,,,,,1156.7900000119116,,response,,,,100,,,,,,,Space,keypress(Space),,,,,,,,-- --- ---- --- ------ ----- ------- ---- -- --- ------- --<br>------- ---------- ------ -- ----- -- ----- -- ---- ------<br>--- ----- --- --- ------ -------- ----- --- ------ ----- --<br>----- ----- ---------- --- --- ------ ------ ---- -- ------<br>------- --- ------ state --- ---- ------- -- ---- --- --<br>------- ------,327202,327200.8000000119,326028.105,326038.1999999881,326044.01,327209.55,,46,state
screen,html.Screen,2_1_1_1_47,2022-04-27T15:19:20.761Z,,,,,,,,,,,,,,,,,54,,,,,,,,,,,,,,456.8500000059721,,response,,,,100,,,,,,,Space,keypress(Space),,,,,,,,-- --- ---- --- ------ ----- ------- ---- -- --- ------- --<br>------- ---------- ------ -- ----- -- ----- -- ---- ------<br>--- ----- --- --- ------ -------- ----- --- ------ ----- --<br>----- ----- ---------- --- --- ------ ------ ---- -- ------<br>------- --- ------ ----- was ---- ------- -- ---- --- --<br>------- ------,327667.59999999404,327666.40000000596,327193.96,327202.1999999881,327209.55,327675.795,,47,was
screen,html.Screen,2_1_1_1_48,2022-04-27T15:19:21.018Z,,,,,,,,,,,,,,,,,54,,,,,,,,,,,,,,247.90499998809537,,response,,,,100,,,,,,,Space,keypress(Space),,,,,,,,-- --- ---- --- ------ ----- ------- ---- -- --- ------- --<br>------- ---------- ------ -- ----- -- ----- -- ---- ------<br>--- ----- --- --- ------ -------- ----- --- ------ ----- --<br>----- ----- ---------- --- --- ------ ------ ---- -- ------<br>------- --- ------ ----- --- left ------- -- ---- --- --<br>------- ------,327924.6999999881,327923.6999999881,327659.692,327667.8000000119,327675.795,327942.829,,48,left
screen,html.Screen,2_1_1_1_49,2022-04-27T15:19:21.246Z,,,,,,,,,,,,,,,,,54,,,,,,,,,,,,,,208.87099998805206,,response,,,,100,,,,,,,Space,keypress(Space),,,,,,,,-- --- ---- --- ------ ----- ------- ---- -- --- ------- --<br>------- ---------- ------ -- ----- -- ----- -- ---- ------<br>--- ----- --- --- ------ -------- ----- --- ------ ----- --<br>----- ----- ---------- --- --- ------ ------ ---- -- ------<br>------- --- ------ ----- --- ---- without -- ---- --- --<br>------- ------,328153.09999999404,328151.6999999881,327909.552,327924.90000000596,327942.829,328158.708,,49,without
screen,html.Screen,2_1_1_1_50,2022-04-27T15:19:21.765Z,,,,,,,,,,,,,,,,,54,,,,,,,,,,,,,,512.2920000000158,,response,,,,100,,,,,,,Space,keypress(Space),,,,,,,,-- --- ---- --- ------ ----- ------- ---- -- --- ------- --<br>------- ---------- ------ -- ----- -- ----- -- ---- ------<br>--- ----- --- --- ------ -------- ----- --- ------ ----- --<br>----- ----- ---------- --- --- ------ ------ ---- -- ------<br>------- --- ------ ----- --- ---- ------- an ---- --- --<br>------- ------,328672.09999999404,328671,328142.486,328153.40000000596,328158.708,328674.88,,50,an
screen,html.Screen,2_1_1_1_51,2022-04-27T15:19:22.183Z,,,,,,,,,,,,,,,,,54,,,,,,,,,,,,,,413.2199999940349,,response,,,,100,,,,,,,Space,keypress(Space),,,,,,,,-- --- ---- --- ------ ----- ------- ---- -- --- ------- --<br>------- ---------- ------ -- ----- -- ----- -- ---- ------<br>--- ----- --- --- ------ -------- ----- --- ------ ----- --<br>----- ----- ---------- --- --- ------ ------ ---- -- ------<br>------- --- ------ ----- --- ---- ------- -- easy --- --<br>------- ------,329089.3000000119,329088.09999999404,328658.929,328672.1999999881,328674.88,329091.09,,51,easy
screen,html.Screen,2_1_1_1_52,2022-04-27T15:19:22.551Z,,,,,,,,,,,,,,,,,54,,,,,,,,,,,,,,365.5099999940139,,response,,,,100,,,,,,,Space,keypress(Space),,,,,,,,-- --- ---- --- ------ ----- ------- ---- -- --- ------- --<br>------- ---------- ------ -- ----- -- ----- -- ---- ------<br>--- ----- --- --- ------ -------- ----- --- ------ ----- --<br>----- ----- ---------- --- --- ------ ------ ---- -- ------<br>------- --- ------ ----- --- ---- ------- -- ---- way --<br>------- ------,329457.8000000119,329456.59999999404,329075.091,329089.40000000596,329091.09,329474.412,,52,way
screen,html.Screen,2_1_1_1_53,2022-04-27T15:19:23.013Z,,,,,,,,,,,,,,,,,54,,,,,,,,,,,,,,440.18799999402836,,response,,,,100,,,,,,,Space,keypress(Space),,,,,,,,-- --- ---- --- ------ ----- ------- ---- -- --- ------- --<br>------- ---------- ------ -- ----- -- ----- -- ---- ------<br>--- ----- --- --- ------ -------- ----- --- ------ ----- --<br>----- ----- ---------- --- --- ------ ------ ---- -- ------<br>------- --- ------ ----- --- ---- ------- -- ---- --- of<br>------- ------,329915.90000000596,329914.59999999404,329457.804,329458,329474.412,329923.682,,53,of
screen,html.Screen,2_1_1_1_54,2022-04-27T15:19:23.486Z,,,,,,,,,,,,,,,,,54,,,,,,,,,,,,,,464.0179999881075,,response,,,,100,,,,,,,Space,keypress(Space),,,,,,,,-- --- ---- --- ------ ----- ------- ---- -- --- ------- --<br>------- ---------- ------ -- ----- -- ----- -- ---- ------<br>--- ----- --- --- ------ -------- ----- --- ------ ----- --<br>----- ----- ---------- --- --- ------ ------ ---- -- ------<br>------- --- ------ ----- --- ---- ------- -- ---- --- --<br>raising ------,330388.90000000596,330387.6999999881,329907.447,329916.1999999881,329923.682,330413.664,,54,raising
screen,html.Screen,2_1_1_1_55,2022-04-27T15:19:24.406Z,,,,,,,,,,,,,,,,,54,,,,,,,,,,,,,,893.3360000000102,,response,,,,100,,,,,,,Space,keypress(Space),,,,,,,,-- --- ---- --- ------ ----- ------- ---- -- --- ------- --<br>------- ---------- ------ -- ----- -- ----- -- ---- ------<br>--- ----- --- --- ------ -------- ----- --- ------ ----- --<br>----- ----- ---------- --- --- ------ ------ ---- -- ------<br>------- --- ------ ----- --- ---- ------- -- ---- --- --<br>------- money.,331308.6999999881,331307,330373.651,330389,330413.664,331322.682,,55,money.
Item 100,flow.Loop,2_1_1_1,2022-04-27T15:19:24.406Z,,,,,,,,,,,,,,,,,,,,,,,,,,,,,,,24045.21100000001,,completion,,,,,C,,,,,,,,,,,silence,,,,,331309.3000000119,331307,307245.159,307246.40000000596,307261.789,331322.682,,,
Question 1,html.Screen,2_1_1_2,2022-04-27T15:19:27.047Z,,,,,,,,,,,,,,,,,,,,,,,,,,,,true,TRUE,,2626.1180000119493,,response,,,,100,C,,,,,,TRUE,click #choice-1,,,,silence,,,,,333950.1999999881,333948.8000000119,331306.779,331309.40000000596,331322.682,333953.265,,,
Question 2,html.Screen,2_1_1_3,2022-04-27T15:19:29.595Z,,,,,,,,,,,,,,,,,,,,,,,,,,,,true,FALSE,,2542.3349999940256,,response,,,,100,C,,,,,,FALSE,click #choice-2,,,,silence,,,,,336497.40000000596,336495.59999999404,333936.646,333950.3000000119,333953.265,336500.8,,,
Item 100,flow.Sequence,2_1_1,2022-04-27T15:19:29.595Z,,,,,,,,,,,,,,,,,,,,,,,,,,,,,,,39240.37199999404,,completion,,,,,,,,,,,,,,,,,,,,,336497.59999999404,336495.59999999404,297238.622,297242.1999999881,297255.228,336500.8,,,
End of Practice,html.Page,2_1_2,2022-04-27T15:19:35.730Z,,,,,,,,,,,,,,,,,,,,,,,,,,,,,,,6131.200000000012,,form submission,,,,,,,,,,,,,,,,,,,,,342632.59999999404,342632,336484.791,336497.8000000119,336500.8,342644.955,,,
Practice,flow.Sequence,2_1,2022-04-27T15:19:35.730Z,,,,,,,,,,,,,,,,,,,,,,,,,,,,,,,89169.244,,completion,,,,,,,,,,,,,,,,,,,,,342632.6999999881,342632,253412.907,253459.59999999404,253462.756,342644.955,,,
Trap_instruction,html.Page,2_2_0,2022-04-27T15:19:41.433Z,,,,,,,,,,,,,,,,,,,,,,,,,,,,,,,5690.845000011905,,form submission,,,,,,,,,,,,,,,,,,,,,348336.1999999881,348335.8000000119,342628.44,342632.8000000119,342644.955,348406.187,,,
trap_trial,html.Screen,2_2_1,2022-04-27T15:19:44.978Z,,,,,,,,,,,,,,,,,,,,,,,,,,,,true,1,,3472.6130000119447,,response,,,,,,,,,,,1,click #choice-1,,,,,,,,,351880.5,351878.8000000119,348323.018,348336.40000000596,348406.187,351886.263,,,
end of trap trial,html.Page,2_2_2,2022-04-27T15:19:46.952Z,,,,,,,,,,,,,,,,,,,,,,,,,,,,,,,1967.936999988102,,form submission,,,,,,,,,,,,,,,,,,,,,353854.6999999881,353854.1999999881,351869.831,351880.6999999881,351886.263,353867.727,,,
Trap 1,flow.Sequence,2_2,2022-04-27T15:19:46.952Z,,,,,,,,,,,,,,,,,,,,,,,,,,,,,,,11209.244999988063,,completion,,,,,,,,,,,,,,,,,,,,,353855,353854.1999999881,342628.44,342632.8000000119,342644.955,353867.727,,,
Standby,html.Page,2_3_0,2022-04-27T15:19:54.942Z,,,,,,,,,,,,,,,,,,,,,,,,,,,,,,,7992.380999999994,,timeout,,,,,,,,,,,,,,,,,,,,,361844.59999999404,361843.453,353851.034,353855.09999999404,353867.727,361860.108,,,
Holding screen,html.Screen,2_3_1_0_0,2022-04-27T15:20:01.935Z,,,,,,,,,,,,,,,,,,,,,,,,,,,,,,,6993.369000000006,,timeout,,,,,,,,,,,,,,,,,,,,,368837.59999999404,368836.855,361843.453,361844.8000000119,361860.108,368853.477,,,
screen,html.Screen,2_3_1_0_1_0,2022-04-27T15:20:03.053Z,,,,,,,,,,,,,,,,,12,,,,,,,,,,,,,,1099.923000005947,,response,,,,5,C,,,,,,Space,keypress(Space),,,,instrumental,,,,Some ------ ------ ------- ------ --- ------- -----------<br>-- ----- --- ---- -- --- ------ ---- - ---- -- ----------<br>-- ------ ---- --- ---- --- --- --- ----- -- -------- ---<br>------ ------- -------- --- ---- -- ------- ------------ --<br>------ -- ---- -- --- ---- -- -------- -- --- ------ ------,369956.09999999404,369953.40000000596,368836.855,368837.90000000596,368853.477,369969.074,,0,Some
screen,html.Screen,2_3_1_0_1_1,2022-04-27T15:20:03.559Z,,,,,,,,,,,,,,,,,12,,,,,,,,,,,,,,491.42599999997765,,response,,,,5,C,,,,,,Space,keypress(Space),,,,instrumental,,,,---- months ------ ------- ------ --- ------- -----------<br>-- ----- --- ---- -- --- ------ ---- - ---- -- ----------<br>-- ------ ---- --- ---- --- --- --- ----- -- -------- ---<br>------ ------- -------- --- ---- -- ------- ------------ --<br>------ -- ---- -- --- ---- -- -------- -- --- ------ ------,370461.8000000119,370460.5,369953.458,369956.40000000596,369969.074,370468.59,,1,months
screen,html.Screen,2_3_1_0_1_2,2022-04-27T15:20:04.079Z,,,,,,,,,,,,,,,,,12,,,,,,,,,,,,,,512.0099999940139,,response,,,,5,C,,,,,,Space,keypress(Space),,,,instrumental,,,,"---- ------ later, ------- ------ --- ------- -----------<br>-- ----- --- ---- -- --- ------ ---- - ---- -- ----------<br>-- ------ ---- --- ---- --- --- --- ----- -- -------- ---<br>------ ------- -------- --- ---- -- ------- ------------ --<br>------ -- ---- -- --- ---- -- -------- -- --- ------ ------",370981.8000000119,370980.59999999404,370452.393,370461.90000000596,370468.59,370984.813,,2,"later,"
screen,html.Screen,2_3_1_0_1_3,2022-04-27T15:20:04.518Z,,,,,,,,,,,,,,,,,12,,,,,,,,,,,,,,434.2869999940158,,response,,,,5,C,,,,,,Space,keypress(Space),,,,instrumental,,,,---- ------ ------ Michael ------ --- ------- -----------<br>-- ----- --- ---- -- --- ------ ---- - ---- -- ----------<br>-- ------ ---- --- ---- --- --- --- ----- -- -------- ---<br>------ ------- -------- --- ---- -- ------- ------------ --<br>------ -- ---- -- --- ---- -- -------- -- --- ------ ------,371420.3000000119,371419.09999999404,370968.585,370982,370984.813,371434.375,,3,Michael
screen,html.Screen,2_3_1_0_1_4,2022-04-27T15:20:05.081Z,,,,,,,,,,,,,,,,,12,,,,,,,,,,,,,,548.5250000059605,,response,,,,5,C,,,,,,Space,keypress(Space),,,,instrumental,,,,---- ------ ------ ------- Larson --- ------- -----------<br>-- ----- --- ---- -- --- ------ ---- - ---- -- ----------<br>-- ------ ---- --- ---- --- --- --- ----- -- -------- ---<br>------ ------- -------- --- ---- -- ------- ------------ --<br>------ -- ---- -- --- ---- -- -------- -- --- ------ ------,371983.8000000119,371982.90000000596,371418.359,371420.5,371434.375,372017.182,,4,Larson
screen,html.Screen,2_3_1_0_1_5,2022-04-27T15:20:05.469Z,,,,,,,,,,,,,,,,,12,,,,,,,,,,,,,,353.3180000000284,,response,,,,5,C,,,,,,Space,keypress(Space),,,,instrumental,,,,---- ------ ------ ------- ------ saw ------- -----------<br>-- ----- --- ---- -- --- ------ ---- - ---- -- ----------<br>-- ------ ---- --- ---- --- --- --- ----- -- -------- ---<br>------ ------- -------- --- ---- -- ------- ------------ --<br>------ -- ---- -- --- ---- -- -------- -- --- ------ ------,372371.40000000596,372370.5,372001.116,371984,372017.182,372383.476,,5,saw
screen,html.Screen,2_3_1_0_1_6,2022-04-27T15:20:05.766Z,,,,,,,,,,,,,,,,,12,,,,,,,,,,,,,,284.92400000593625,,response,,,,5,C,,,,,,Space,keypress(Space),,,,instrumental,,,,---- ------ ------ ------- ------ --- another -----------<br>-- ----- --- ---- -- --- ------ ---- - ---- -- ----------<br>-- ------ ---- --- ---- --- --- --- ----- -- -------- ---<br>------ ------- -------- --- ---- -- ------- ------------ --<br>------ -- ---- -- --- ---- -- -------- -- --- ------ ------,372669.3000000119,372668.40000000596,372367.734,372371.59999999404,372383.476,372683.196,,6,another
screen,html.Screen,2_3_1_0_1_7,2022-04-27T15:20:06.253Z,,,,,,,,,,,,,,,,,12,,,,,,,,,,,,,,471.60400001192465,,response,,,,5,C,,,,,,Space,keypress(Space),,,,instrumental,,,,---- ------ ------ ------- ------ --- ------- opportunity<br>-- ----- --- ---- -- --- ------ ---- - ---- -- ----------<br>-- ------ ---- --- ---- --- --- --- ----- -- -------- ---<br>------ ------- -------- --- ---- -- ------- ------------ --<br>------ -- ---- -- --- ---- -- -------- -- --- ------ ------,373156,373154.8000000119,372666.788,372669.40000000596,372683.196,373166.358,,7,opportunity
screen,html.Screen,2_3_1_0_1_8,2022-04-27T15:20:06.718Z,,,,,,,,,,,,,,,,,12,,,,,,,,,,,,,,453.4420000119135,,response,,,,5,C,,,,,,Space,keypress(Space),,,,instrumental,,,,---- ------ ------ ------- ------ --- ------- -----------<br>to ----- --- ---- -- --- ------ ---- - ---- -- ----------<br>-- ------ ---- --- ---- --- --- --- ----- -- -------- ---<br>------ ------- -------- --- ---- -- ------- ------------ --<br>------ -- ---- -- --- ---- -- -------- -- --- ------ ------,373620.59999999404,373619.8000000119,373149.857,373156.1999999881,373166.358,373632.229,,8,to
screen,html.Screen,2_3_1_0_1_9,2022-04-27T15:20:06.952Z,,,,,,,,,,,,,,,,,12,,,,,,,,,,,,,,221.27100000000792,,response,,,,5,C,,,,,,Space,keypress(Space),,,,instrumental,,,,---- ------ ------ ------- ------ --- ------- -----------<br>-- stack --- ---- -- --- ------ ---- - ---- -- ----------<br>-- ------ ---- --- ---- --- --- --- ----- -- -------- ---<br>------ ------- -------- --- ---- -- ------- ------------ --<br>------ -- ---- -- --- ---- -- -------- -- --- ------ ------,373854.8000000119,373853.5,373616.42,373620.8000000119,373632.229,373865.429,,9,stack
screen,html.Screen,2_3_1_0_1_10,2022-04-27T15:20:07.170Z,,,,,,,,,,,,,,,,,12,,,,,,,,,,,,,,206.57099999999627,,response,,,,5,C,,,,,,Space,keypress(Space),,,,instrumental,,,,---- ------ ------ ------- ------ --- ------- -----------<br>-- ----- the ---- -- --- ------ ---- - ---- -- ----------<br>-- ------ ---- --- ---- --- --- --- ----- -- -------- ---<br>------ ------- -------- --- ---- -- ------- ------------ --<br>------ -- ---- -- --- ---- -- -------- -- --- ------ ------,374072.90000000596,374072,373849.358,373854.90000000596,373865.429,374081.854,,10,the
screen,html.Screen,2_3_1_0_1_11,2022-04-27T15:20:07.619Z,,,,,,,,,,,,,,,,,12,,,,,,,,,,,,,,438.44600001192885,,response,,,,5,C,,,,,,Space,keypress(Space),,,,instrumental,,,,---- ------ ------ ------- ------ --- ------- -----------<br>-- ----- --- odds -- --- ------ ---- - ---- -- ----------<br>-- ------ ---- --- ---- --- --- --- ----- -- -------- ---<br>------ ------- -------- --- ---- -- ------- ------------ --<br>------ -- ---- -- --- ---- -- -------- -- --- ------ ------,374521.3000000119,374520.3000000119,374065.944,374073.09999999404,374081.854,374531.896,,11,odds
screen,html.Screen,2_3_1_0_1_12,2022-04-27T15:20:08.044Z,,,,,,,,,,,,,,,,,12,,,,,,,,,,,,,,413.80399998807115,,response,,,,5,C,,,,,,Space,keypress(Space),,,,instrumental,,,,---- ------ ------ ------- ------ --- ------- -----------<br>-- ----- --- ---- in --- ------ ---- - ---- -- ----------<br>-- ------ ---- --- ---- --- --- --- ----- -- -------- ---<br>------ ------- -------- --- ---- -- ------- ------------ --<br>------ -- ---- -- --- ---- -- -------- -- --- ------ ------,374946.8000000119,374945.6999999881,374515.144,374521.5,374531.896,374974.547,,12,in
screen,html.Screen,2_3_1_0_1_13,2022-04-27T15:20:08.514Z,,,,,,,,,,,,,,,,,12,,,,,,,,,,,,,,441.1529999880586,,response,,,,5,C,,,,,,Space,keypress(Space),,,,instrumental,,,,---- ------ ------ ------- ------ --- ------- -----------<br>-- ----- --- ---- -- his ------ ---- - ---- -- ----------<br>-- ------ ---- --- ---- --- --- --- ----- -- -------- ---<br>------ ------- -------- --- ---- -- ------- ------------ --<br>------ -- ---- -- --- ---- -- -------- -- --- ------ ------,375416.6999999881,375415.6999999881,374931.441,374947,374974.547,375430.64,,13,his
screen,html.Screen,2_3_1_0_1_14,2022-04-27T15:20:08.969Z,,,,,,,,,,,,,,,,,12,,,,,,,,,,,,,,439.7600000059465,,response,,,,5,C,,,,,,Space,keypress(Space),,,,instrumental,,,,---- ------ ------ ------- ------ --- ------- -----------<br>-- ----- --- ---- -- --- favour ---- - ---- -- ----------<br>-- ------ ---- --- ---- --- --- --- ----- -- -------- ---<br>------ ------- -------- --- ---- -- ------- ------------ --<br>------ -- ---- -- --- ---- -- -------- -- --- ------ ------,375871.3000000119,375870.40000000596,375414.735,375416.90000000596,375430.64,375880.463,,14,favour
screen,html.Screen,2_3_1_0_1_15,2022-04-27T15:20:09.607Z,,,,,,,,,,,,,,,,,12,,,,,,,,,,,,,,628.2369999880902,,response,,,,5,C,,,,,,Space,keypress(Space),,,,instrumental,,,,---- ------ ------ ------- ------ --- ------- -----------<br>-- ----- --- ---- -- --- ------ with - ---- -- ----------<br>-- ------ ---- --- ---- --- --- --- ----- -- -------- ---<br>------ ------- -------- --- ---- -- ------- ------------ --<br>------ -- ---- -- --- ---- -- -------- -- --- ------ ------,376509.6999999881,376508.6999999881,375863.923,375871.5,375880.463,376512.885,,15,with
screen,html.Screen,2_3_1_0_1_16,2022-04-27T15:20:09.880Z,,,,,,,,,,,,,,,,,12,,,,,,,,,,,,,,268.9150000119116,,response,,,,5,C,,,,,,Space,keypress(Space),,,,instrumental,,,,---- ------ ------ ------- ------ --- ------- -----------<br>-- ----- --- ---- -- --- ------ ---- a ---- -- ----------<br>-- ------ ---- --- ---- --- --- --- ----- -- -------- ---<br>------ ------- -------- --- ---- -- ------- ------------ --<br>------ -- ---- -- --- ---- -- -------- -- --- ------ ------,376783,376781.8000000119,376496.993,376509.90000000596,376512.885,376796.007,,16,a
screen,html.Screen,2_3_1_0_1_17,2022-04-27T15:20:10.107Z,,,,,,,,,,,,,,,,,12,,,,,,,,,,,,,,212.49300000001676,,response,,,,5,C,,,,,,Space,keypress(Space),,,,instrumental,,,,---- ------ ------ ------- ------ --- ------- -----------<br>-- ----- --- ---- -- --- ------ ---- - dash -- ----------<br>-- ------ ---- --- ---- --- --- --- ----- -- -------- ---<br>------ ------- -------- --- ---- -- ------- ------------ --<br>------ -- ---- -- --- ---- -- -------- -- --- ------ ------,377009.5,377008.5,376779.532,376783.09999999404,376796.007,377012.418,,17,dash
screen,html.Screen,2_3_1_0_1_18,2022-04-27T15:20:10.538Z,,,,,,,,,,,,,,,,,12,,,,,,,,,,,,,,426.98200000595534,,response,,,,5,C,,,,,,Space,keypress(Space),,,,instrumental,,,,---- ------ ------ ------- ------ --- ------- -----------<br>-- ----- --- ---- -- --- ------ ---- - ---- of ----------<br>-- ------ ---- --- ---- --- --- --- ----- -- -------- ---<br>------ ------- -------- --- ---- -- ------- ------------ --<br>------ -- ---- -- --- ---- -- -------- -- --- ------ ------,377440.3000000119,377439.40000000596,376995.974,377009.59999999404,377012.418,377445.336,,18,of
screen,html.Screen,2_3_1_0_1_19,2022-04-27T15:20:10.974Z,,,,,,,,,,,,,,,,,12,,,,,,,,,,,,,,430.66399999998976,,response,,,,5,C,,,,,,Space,keypress(Space),,,,instrumental,,,,---- ------ ------ ------- ------ --- ------- -----------<br>-- ----- --- ---- -- --- ------ ---- - ---- -- ingenuity.<br>-- ------ ---- --- ---- --- --- --- ----- -- -------- ---<br>------ ------- -------- --- ---- -- ------- ------------ --<br>------ -- ---- -- --- ---- -- -------- -- --- ------ ------,377876.90000000596,377876,377429.138,377440.40000000596,377445.336,377898.063,,19,ingenuity.
screen,html.Screen,2_3_1_0_1_20,2022-04-27T15:20:11.559Z,,,,,,,,,,,,,,,,,12,,,,,,,,,,,,,,562.8370000059367,,response,,,,5,C,,,,,,Space,keypress(Space),,,,instrumental,,,,---- ------ ------ ------- ------ --- ------- -----------<br>-- ----- --- ---- -- --- ------ ---- - ---- -- ----------<br>He ------ ---- --- ---- --- --- --- ----- -- -------- ---<br>------ ------- -------- --- ---- -- ------- ------------ --<br>------ -- ---- -- --- ---- -- -------- -- --- ------ ------,378461.90000000596,378460.90000000596,377862.253,377877.09999999404,377898.063,378477.722,,20,He
screen,html.Screen,2_3_1_0_1_21,2022-04-27T15:20:11.965Z,,,,,,,,,,,,,,,,,12,,,,,,,,,,,,,,389.3779999940307,,response,,,,5,C,,,,,,Space,keypress(Space),,,,instrumental,,,,---- ------ ------ ------- ------ --- ------- -----------<br>-- ----- --- ---- -- --- ------ ---- - ---- -- ----------<br>-- walked ---- --- ---- --- --- --- ----- -- -------- ---<br>------ ------- -------- --- ---- -- ------- ------------ --<br>------ -- ---- -- --- ---- -- -------- -- --- ------ ------,378868.09999999404,378867.09999999404,378461.837,378462,378477.722,378877.346,,21,walked
screen,html.Screen,2_3_1_0_1_22,2022-04-27T15:20:12.464Z,,,,,,,,,,,,,,,,,12,,,,,,,,,,,,,,488.5540000059409,,response,,,,5,C,,,,,,Space,keypress(Space),,,,instrumental,,,,---- ------ ------ ------- ------ --- ------- -----------<br>-- ----- --- ---- -- --- ------ ---- - ---- -- ----------<br>-- ------ into --- ---- --- --- --- ----- -- -------- ---<br>------ ------- -------- --- ---- -- ------- ------------ --<br>------ -- ---- -- --- ---- -- -------- -- --- ------ ------,379366.6999999881,379365.90000000596,378861.5,378868.3000000119,378877.346,379376.853,,22,into
screen,html.Screen,2_3_1_0_1_23,2022-04-27T15:20:12.829Z,,,,,,,,,,,,,,,,,12,,,,,,,,,,,,,,353.74699999403674,,response,,,,5,C,,,,,,Space,keypress(Space),,,,instrumental,,,,---- ------ ------ ------- ------ --- ------- -----------<br>-- ----- --- ---- -- --- ------ ---- - ---- -- ----------<br>-- ------ ---- his ---- --- --- --- ----- -- -------- ---<br>------ ------- -------- --- ---- -- ------- ------------ --<br>------ -- ---- -- --- ---- -- -------- -- --- ------ ------,379731.5,379730.59999999404,379360.63,379366.90000000596,379376.853,379743.178,,23,his
screen,html.Screen,2_3_1_0_1_24,2022-04-27T15:20:13.159Z,,,,,,,,,,,,,,,,,12,,,,,,,,,,,,,,317.1220000119065,,response,,,,5,C,,,,,,Space,keypress(Space),,,,instrumental,,,,---- ------ ------ ------- ------ --- ------- -----------<br>-- ----- --- ---- -- --- ------ ---- - ---- -- ----------<br>-- ------ ---- --- bank --- --- --- ----- -- -------- ---<br>------ ------- -------- --- ---- -- ------- ------------ --<br>------ -- ---- -- --- ---- -- -------- -- --- ------ ------,380061.3000000119,380060.3000000119,379727.216,379731.8000000119,379743.178,380076.194,,24,bank
screen,html.Screen,2_3_1_0_1_25,2022-04-27T15:20:13.573Z,,,,,,,,,,,,,,,,,12,,,,,,,,,,,,,,398.0059999880614,,response,,,,5,C,,,,,,Space,keypress(Space),,,,instrumental,,,,---- ------ ------ ------- ------ --- ------- -----------<br>-- ----- --- ---- -- --- ------ ---- - ---- -- ----------<br>-- ------ ---- --- ---- one --- --- ----- -- -------- ---<br>------ ------- -------- --- ---- -- ------- ------------ --<br>------ -- ---- -- --- ---- -- -------- -- --- ------ ------,380476.09999999404,380474.1999999881,380059.832,380061.5,380076.194,380509.505,,25,one
screen,html.Screen,2_3_1_0_1_26,2022-04-27T15:20:14.043Z,,,,,,,,,,,,,,,,,12,,,,,,,,,,,,,,435.49499999999534,,response,,,,5,C,,,,,,Space,keypress(Space),,,,instrumental,,,,---- ------ ------ ------- ------ --- ------- -----------<br>-- ----- --- ---- -- --- ------ ---- - ---- -- ----------<br>-- ------ ---- --- ---- --- day --- ----- -- -------- ---<br>------ ------- -------- --- ---- -- ------- ------------ --<br>------ -- ---- -- --- ---- -- -------- -- --- ------ ------,380946.09999999404,380945,380492.862,380476.3000000119,380509.505,380958.658,,26,day
screen,html.Screen,2_3_1_0_1_27,2022-04-27T15:20:14.342Z,,,,,,,,,,,,,,,,,12,,,,,,,,,,,,,,284.74200000596466,,response,,,,5,C,,,,,,Space,keypress(Space),,,,instrumental,,,,---- ------ ------ ------- ------ --- ------- -----------<br>-- ----- --- ---- -- --- ------ ---- - ---- -- ----------<br>-- ------ ---- --- ---- --- --- and ----- -- -------- ---<br>------ ------- -------- --- ---- -- ------- ------------ --<br>------ -- ---- -- --- ---- -- -------- -- --- ------ ------,381244.40000000596,381243.40000000596,380942.121,380946.3000000119,380958.658,381258.402,,27,and
screen,html.Screen,2_3_1_0_1_28,2022-04-27T15:20:14.541Z,,,,,,,,,,,,,,,,,12,,,,,,,,,,,,,,183.9980000059586,,response,,,,5,C,,,,,,Space,keypress(Space),,,,instrumental,,,,---- ------ ------ ------- ------ --- ------- -----------<br>-- ----- --- ---- -- --- ------ ---- - ---- -- ----------<br>-- ------ ---- --- ---- --- --- --- asked -- -------- ---<br>------ ------- -------- --- ---- -- ------- ------------ --<br>------ -- ---- -- --- ---- -- -------- -- --- ------ ------,381443.5,381442.40000000596,381242.028,381246,381258.402,381458.668,,28,asked
screen,html.Screen,2_3_1_0_1_29,2022-04-27T15:20:14.988Z,,,,,,,,,,,,,,,,,12,,,,,,,,,,,,,,430.3319999999949,,response,,,,5,C,,,,,,Space,keypress(Space),,,,instrumental,,,,---- ------ ------ ------- ------ --- ------- -----------<br>-- ----- --- ---- -- --- ------ ---- - ---- -- ----------<br>-- ------ ---- --- ---- --- --- --- ----- to -------- ---<br>------ ------- -------- --- ---- -- ------- ------------ --<br>------ -- ---- -- --- ---- -- -------- -- --- ------ ------,381891.09999999404,381889,381441.711,381443.59999999404,381458.668,381907.823,,29,to
screen,html.Screen,2_3_1_0_1_30,2022-04-27T15:20:15.358Z,,,,,,,,,,,,,,,,,12,,,,,,,,,,,,,,351.7769999940647,,response,,,,5,C,,,,,,Space,keypress(Space),,,,instrumental,,,,---- ------ ------ ------- ------ --- ------- -----------<br>-- ----- --- ---- -- --- ------ ---- - ---- -- ----------<br>-- ------ ---- --- ---- --- --- --- ----- -- withdraw ---<br>------ ------- -------- --- ---- -- ------- ------------ --<br>------ -- ---- -- --- ---- -- -------- -- --- ------ ------,382260.8000000119,382259.59999999404,381891.559,381891.3000000119,381907.823,382274.106,,30,withdraw
screen,html.Screen,2_3_1_0_1_31,2022-04-27T15:20:15.783Z,,,,,,,,,,,,,,,,,12,,,,,,,,,,,,,,410.49399999401066,,response,,,,5,C,,,,,,Space,keypress(Space),,,,instrumental,,,,---- ------ ------ ------- ------ --- ------- -----------<br>-- ----- --- ---- -- --- ------ ---- - ---- -- ----------<br>-- ------ ---- --- ---- --- --- --- ----- -- -------- his<br>------ ------- -------- --- ---- -- ------- ------------ --<br>------ -- ---- -- --- ---- -- -------- -- --- ------ ------,382685.8000000119,382684.59999999404,382257.756,382261,382274.106,382690.389,,31,his
screen,html.Screen,2_3_1_0_1_32,2022-04-27T15:20:16.184Z,,,,,,,,,,,,,,,,,12,,,,,,,,,,,,,,395.91100001189625,,response,,,,5,C,,,,,,Space,keypress(Space),,,,instrumental,,,,---- ------ ------ ------- ------ --- ------- -----------<br>-- ----- --- ---- -- --- ------ ---- - ---- -- ----------<br>-- ------ ---- --- ---- --- --- --- ----- -- -------- ---<br>entire ------- -------- --- ---- -- ------- ------------ --<br>------ -- ---- -- --- ---- -- -------- -- --- ------ ------,383087.09999999404,383086.3000000119,382674.137,382686,382690.389,383090.102,,32,entire
screen,html.Screen,2_3_1_0_1_33,2022-04-27T15:20:16.462Z,,,,,,,,,,,,,,,,,12,,,,,,,,,,,,,,273.1980000119074,,response,,,,5,C,,,,,,Space,keypress(Space),,,,instrumental,,,,---- ------ ------ ------- ------ --- ------- -----------<br>-- ----- --- ---- -- --- ------ ---- - ---- -- ----------<br>-- ------ ---- --- ---- --- --- --- ----- -- -------- ---<br>------ account -------- --- ---- -- ------- ------------ --<br>------ -- ---- -- --- ---- -- -------- -- --- ------ ------,383364.6999999881,383363.3000000119,383073.72,383087.40000000596,383090.102,383373.071,,33,account
screen,html.Screen,2_3_1_0_1_34,2022-04-27T15:20:16.966Z,,,,,,,,,,,,,,,,,12,,,,,,,,,,,,,,494.8290000059642,,response,,,,5,C,,,,,,Space,keypress(Space),,,,instrumental,,,,"---- ------ ------ ------- ------ --- ------- -----------<br>-- ----- --- ---- -- --- ------ ---- - ---- -- ----------<br>-- ------ ---- --- ---- --- --- --- ----- -- -------- ---<br>------ ------- balance, --- ---- -- ------- ------------ --<br>------ -- ---- -- --- ---- -- -------- -- --- ------ ------",383869.1999999881,383867.90000000596,383356.417,383365,383373.071,383872.615,,34,"balance,"
screen,html.Screen,2_3_1_0_1_35,2022-04-27T15:20:17.579Z,,,,,,,,,,,,,,,,,12,,,,,,,,,,,,,,607.7850000059698,,response,,,,5,C,,,,,,Space,keypress(Space),,,,instrumental,,,,---- ------ ------ ------- ------ --- ------- -----------<br>-- ----- --- ---- -- --- ------ ---- - ---- -- ----------<br>-- ------ ---- --- ---- --- --- --- ----- -- -------- ---<br>------ ------- -------- but ---- -- ------- ------------ --<br>------ -- ---- -- --- ---- -- -------- -- --- ------ ------,384481.3000000119,384480.40000000596,383857.169,383869.40000000596,383872.615,384488.662,,35,but
screen,html.Screen,2_3_1_0_1_36,2022-04-27T15:20:18.055Z,,,,,,,,,,,,,,,,,12,,,,,,,,,,,,,,468.0379999880679,,response,,,,5,C,,,,,,Space,keypress(Space),,,,instrumental,,,,---- ------ ------ ------- ------ --- ------- -----------<br>-- ----- --- ---- -- --- ------ ---- - ---- -- ----------<br>-- ------ ---- --- ---- --- --- --- ----- -- -------- ---<br>------ ------- -------- --- with -- ------- ------------ --<br>------ -- ---- -- --- ---- -- -------- -- --- ------ ------,384957.6999999881,384956.6999999881,384472.732,384481.5,384488.662,384971.542,,36,with
screen,html.Screen,2_3_1_0_1_37,2022-04-27T15:20:18.480Z,,,,,,,,,,,,,,,,,12,,,,,,,,,,,,,,409.5579999940237,,response,,,,5,C,,,,,,Space,keypress(Space),,,,instrumental,,,,---- ------ ------ ------- ------ --- ------- -----------<br>-- ----- --- ---- -- --- ------ ---- - ---- -- ----------<br>-- ------ ---- --- ---- --- --- --- ----- -- -------- ---<br>------ ------- -------- --- ---- an ------- ------------ --<br>------ -- ---- -- --- ---- -- -------- -- --- ------ ------,385382.40000000596,385381.09999999404,384955.331,384957.90000000596,384971.542,385387.843,,37,an
screen,html.Screen,2_3_1_0_1_38,2022-04-27T15:20:18.884Z,,,,,,,,,,,,,,,,,12,,,,,,,,,,,,,,397.8569999880856,,response,,,,5,C,,,,,,Space,keypress(Space),,,,instrumental,,,,---- ------ ------ ------- ------ --- ------- -----------<br>-- ----- --- ---- -- --- ------ ---- - ---- -- ----------<br>-- ------ ---- --- ---- --- --- --- ----- -- -------- ---<br>------ ------- -------- --- ---- -- unusual ------------ --<br>------ -- ---- -- --- ---- -- -------- -- --- ------ ------,385786.6999999881,385785.6999999881,385371.543,385382.59999999404,385387.843,385804.71,,38,unusual
screen,html.Screen,2_3_1_0_1_39,2022-04-27T15:20:19.299Z,,,,,,,,,,,,,,,,,12,,,,,,,,,,,,,,395.78999999997905,,response,,,,5,C,,,,,,Space,keypress(Space),,,,instrumental,,,,---- ------ ------ ------- ------ --- ------- -----------<br>-- ----- --- ---- -- --- ------ ---- - ---- -- ----------<br>-- ------ ---- --- ---- --- --- --- ----- -- -------- ---<br>------ ------- -------- --- ---- -- ------- stipulation: --<br>------ -- ---- -- --- ---- -- -------- -- --- ------ ------,386201.8000000119,386200.5,385771.416,385786.90000000596,385804.71,386203.686,,39,stipulation:
screen,html.Screen,2_3_1_0_1_40,2022-04-27T15:20:20.144Z,,,,,,,,,,,,,,,,,12,,,,,,,,,,,,,,842.2140000059735,,response,,,,5,C,,,,,,Space,keypress(Space),,,,instrumental,,,,---- ------ ------ ------- ------ --- ------- -----------<br>-- ----- --- ---- -- --- ------ ---- - ---- -- ----------<br>-- ------ ---- --- ---- --- --- --- ----- -- -------- ---<br>------ ------- -------- --- ---- -- ------- ------------ He<br>------ -- ---- -- --- ---- -- -------- -- --- ------ ------,387046.8000000119,387045.90000000596,386187.417,386202,386203.686,387052.927,,40,He
screen,html.Screen,2_3_1_0_1_41,2022-04-27T15:20:20.456Z,,,,,,,,,,,,,,,,,12,,,,,,,,,,,,,,305.3730000118958,,response,,,,5,C,,,,,,Space,keypress(Space),,,,instrumental,,,,---- ------ ------ ------- ------ --- ------- -----------<br>-- ----- --- ---- -- --- ------ ---- - ---- -- ----------<br>-- ------ ---- --- ---- --- --- --- ----- -- -------- ---<br>------ ------- -------- --- ---- -- ------- ------------ --<br>wanted -- ---- -- --- ---- -- -------- -- --- ------ ------,387359.3000000119,387358.3000000119,387037.049,387047,387052.927,387369.577,,41,wanted
screen,html.Screen,2_3_1_0_1_42,2022-04-27T15:20:20.726Z,,,,,,,,,,,,,,,,,12,,,,,,,,,,,,,,257.9230000000098,,response,,,,5,C,,,,,,Space,keypress(Space),,,,instrumental,,,,---- ------ ------ ------- ------ --- ------- -----------<br>-- ----- --- ---- -- --- ------ ---- - ---- -- ----------<br>-- ------ ---- --- ---- --- --- --- ----- -- -------- ---<br>------ ------- -------- --- ---- -- ------- ------------ --<br>------ as ---- -- --- ---- -- -------- -- --- ------ ------,387628.5,387627.5,387353.149,387359.40000000596,387369.577,387635.644,,42,as
