sender,sender_type,sender_id,timestamp,meta,,Blues,Classical,Country,Dance,Electronic,Folk,Gospel,Hip-Hop,Jazz,Latin,Musical/Film,New-age,Pop,Prolific_id,Provo_ID,R&B,Rap,Reggae,Religious,Rock,Soul,Swing,Traditional,age,artist_name,correct,correctResponse,distraction,duration,education,ended_on,familiarity,gender,headphone_check_performance,item,list,music_frequency,offensiveness,pleasantness,position_correct,preference,response,response_action,snippet_file,song_name,song_rating,sound,stimulus_1,stimulus_2,stimulus_3,text,time_commit,time_end,time_render,time_run,time_show,time_switch,url,word,word_ID
Prolific ID,html.Form,0,2022-05-11T11:08:38.793Z,"{""labjs_version"":""20.2.2"",""labjs_build"":{""flavor"":""production"",""commit"":""a25486e0c714a0ae2ce03ff94b7bb6896854dcfa""},""location"":""https://run.pavlovia.org/mvasilev/prolific3_music_c/"",""userAgent"":""Mozilla/5.0 (Windows NT 10.0; Win64; x64) AppleWebKit/537.36 (KHTML, like Gecko) Chrome/101.0.4951.54 Safari/537.36"",""platform"":""Win32"",""language"":""en-GB"",""locale"":""en-GB"",""timeZone"":""Europe/London"",""timezoneOffset"":-60,""screen_width"":1366,""screen_height"":768,""scroll_width"":1366,""scroll_height"":587,""window_innerWidth"":1366,""window_innerHeight"":635,""devicePixelRatio"":1}",,,,,,,,,,,,,,,6148a319d305edbc6f55519c,,,,,,,,,,,,,,,3058.037999997019,,form submission,,,,,,,,,,,,,,,,,,,,,13297.90000000596,13297.29999999702,10222.597,10228.90000000596,10239.262,13855.869,{},,
Introduction,html.Screen,1_0,2022-05-11T11:09:20.460Z,,,,,,,,,,,,,,,,,,,,,,,,,,,,,,,41110.23099999404,,response,,,,,,,,,,,continue,click button,,,,,,,,,54969,54966.09999999404,13155.934,13298.20000000298,13855.869,54970.613,,,
Volume calibration,html.Screen,1_1,2022-05-11T11:09:47.852Z,,,,,,,,,,,,,,,,,,,,,,,,,,,,,,,27385.587000002983,,response,,,,,,,,,,,continue,click button,,,,,,,,,82360.70000000298,82356.20000000298,54953.948,54969.09999999404,54970.613,82369.451,,,
Task instructions,html.Screen,1_2,2022-05-11T11:10:07.981Z,,,,,,,,,,,,,,,,,,,,,,,,,,,,,,,20119.34899999702,,response,,,,,,,,,,,continue,click button,,,,,,,,,102489.90000000596,102488.79999999702,82352.786,82360.79999999702,82369.451,102501.977,,,
Sounds,html.Screen,1_3_0_0,2022-05-11T11:10:12.235Z,,,,,,,,,,,,,,,,,,,,,,,,,,,,,,,4249.699999999997,,timeout,,,,,,,,,3,,,,,,,,I,O,S,,106741.40000000596,106735.012,102485.312,102490.09999999404,102501.977,106751.677,,,
Judgement,html.Screen,1_3_0_1,2022-05-11T11:10:13.415Z,,,,,,,,,,,,,,,,,,,,,,,,,,,,true,3,,1168.9229999940435,,response,,,,,,,,,3,,3,click #choice-3,,,,,I,O,S,,107922.09999999404,107920.59999999404,106735.012,106741.40000000596,106751.677,107935.084,,,
Trial,flow.Sequence,1_3_0,2022-05-11T11:10:13.416Z,,,,,,,,,,,,,,,,,,,,,,,,,,,,,,,5418.622999994041,,completion,,,,,,,,,3,,,,,,,,I,O,S,,107922.29999999702,107920.59999999404,102485.312,102490.09999999404,102501.977,107935.084,,,
Sounds,html.Screen,1_3_1_0,2022-05-11T11:10:17.664Z,,,,,,,,,,,,,,,,,,,,,,,,,,,,,,,4249.607999999993,,timeout,,,,,,,,,3,,,,,,,,O,I,S,,112170.5,112168.027,107918.419,107922.59999999404,107935.084,112184.692,,,
Judgement,html.Screen,1_3_1_1,2022-05-11T11:10:18.291Z,,,,,,,,,,,,,,,,,,,,,,,,,,,,true,3,,611.6079999970243,,response,,,,,,,,,3,,3,click #choice-3,,,,,O,I,S,,112797.59999999404,112796.29999999702,112168.027,112170.70000000298,112184.692,112801.327,,,
Trial,flow.Sequence,1_3_1,2022-05-11T11:10:18.291Z,,,,,,,,,,,,,,,,,,,,,,,,,,,,,,,4861.215999997017,,completion,,,,,,,,,3,,,,,,,,O,I,S,,112797.79999999702,112796.29999999702,107918.419,107922.40000000596,107935.084,112801.327,,,
Sounds,html.Screen,1_3_2_0,2022-05-11T11:10:22.534Z,,,,,,,,,,,,,,,,,,,,,,,,,,,,,,,4249.815000000002,,timeout,,,,,,,,,2,,,,,,,,I,S,O,,117040.79999999702,117034.477,112784.662,112797.90000000596,112801.327,117051.142,,,
Judgement,html.Screen,1_3_2_1,2022-05-11T11:10:23.046Z,,,,,,,,,,,,,,,,,,,,,,,,,,,,true,2,,500.95799999403243,,response,,,,,,,,,2,,2,click #choice-2,,,,,I,S,O,,117553,117552.09999999404,117034.477,117040.90000000596,117051.142,117567.835,,,
Trial,flow.Sequence,1_3_2,2022-05-11T11:10:23.046Z,,,,,,,,,,,,,,,,,,,,,,,,,,,,,,,4750.772999994035,,completion,,,,,,,,,2,,,,,,,,I,S,O,,117553.20000000298,117552.09999999404,112784.662,112797.79999999702,112801.327,117567.835,,,
Sounds,html.Screen,1_3_3_0,2022-05-11T11:10:27.303Z,,,,,,,,,,,,,,,,,,,,,,,,,,,,,,,4249.694999999992,,timeout,,,,,,,,,1,,,,,,,,S,O,I,,121810.09999999404,121800.865,117551.17,117553.20000000298,117567.835,121817.53,,,
Judgement,html.Screen,1_3_3_1,2022-05-11T11:10:27.713Z,,,,,,,,,,,,,,,,,,,,,,,,,,,,true,1,,400.6700000029814,,response,,,,,,,,,1,,1,click #choice-1,,,,,S,O,I,,122219.79999999702,122218.20000000298,121800.865,121810.20000000298,121817.53,122234.107,,,
Trial,flow.Sequence,1_3_3,2022-05-11T11:10:27.713Z,,,,,,,,,,,,,,,,,,,,,,,,,,,,,,,4650.365000002974,,completion,,,,,,,,,1,,,,,,,,S,O,I,,122219.90000000596,122218.20000000298,117551.17,117553.20000000298,117567.835,122234.107,,,
Sounds,html.Screen,1_3_4_0,2022-05-11T11:10:31.964Z,,,,,,,,,,,,,,,,,,,,,,,,,,,,,,,4249.752999999997,,timeout,,,,,,,,,2,,,,,,,,O,S,I,,126470.40000000596,126467.195,122217.442,122219.90000000596,122234.107,126483.86,,,
Judgement,html.Screen,1_3_4_1,2022-05-11T11:10:32.545Z,,,,,,,,,,,,,,,,,,,,,,,,,,,,false,2,,566.4399999970192,,response,,,,,,,,,2,,3,click #choice-3,,,,,O,S,I,,127051.5,127050.29999999702,126467.195,126470.59999999404,126483.86,127067.393,,,
Trial,flow.Sequence,1_3_4,2022-05-11T11:10:32.545Z,,,,,,,,,,,,,,,,,,,,,,,,,,,,,,,4816.192999997016,,completion,,,,,,,,,2,,,,,,,,O,S,I,,127051.90000000596,127050.29999999702,122217.442,122219.90000000596,122234.107,127067.393,,,
Sounds,html.Screen,1_3_5_0,2022-05-11T11:10:36.804Z,,,,,,,,,,,,,,,,,,,,,,,,,,,,,,,4250.277000000016,,timeout,,,,,,,,,1,,,,,,,,S,I,O,,131310.59999999404,131301.005,127050.728,127052,127067.393,131317.67,,,
Judgement,html.Screen,1_3_5_1,2022-05-11T11:10:37.235Z,,,,,,,,,,,,,,,,,,,,,,,,,,,,true,1,,422.5300000029674,,response,,,,,,,,,1,,1,click #choice-1,,,,,S,I,O,,131741.40000000596,131740.20000000298,131301.005,131310.90000000596,131317.67,131750.371,,,
Trial,flow.Sequence,1_3_5,2022-05-11T11:10:37.235Z,,,,,,,,,,,,,,,,,,,,,,,,,,,,,,,4672.807000002984,,completion,,,,,,,,,1,,,,,,,,S,I,O,,131741.59999999404,131740.20000000298,127050.728,127052,127067.393,131750.371,,,
Task,flow.Loop,1_3,2022-05-11T11:10:37.239Z,,,,,,,,,,,,,,,,,,,,,,,,,,,,,,,29238.22300000298,,completion,,,0.8333333333333334,,,,,,,,,,,,,,,,,,131745.70000000298,131740.20000000298,102485.312,102490.09999999404,102501.977,131750.371,,,
Trap,html.Screen,1_4,2022-05-11T11:10:37.240Z,,,,,,,,,,,,,,,,,,,,,,,,,,,,,,,NaN,,skipped,,,,,,,,,,,,,,,,,,,,,131746.40000000596,131740.20000000298,,131746.29999999702,,131750.371,,,
Thanks,html.Screen,1_5,2022-05-11T11:10:39.556Z,,,,,,,,,,,,,,,,,,,,,,,,,,,,,,,2311.428999997006,,response,,,,,,,,,,,continue,click button,,,,,,,,,134062.79999999702,134061.79999999702,131733.706,131746.5,131750.371,136817.089,,,
Headphone screening,flow.Sequence,1,2022-05-11T11:10:39.556Z,,,,,,,,,,,,,,,,,,,,,,,,,,,,,,,120205.93099999701,,completion,,,,,,,,,,,,,,,,,,,,,134062.90000000596,134061.79999999702,13155.934,13298.20000000298,13855.869,136817.089,,,
Instructions,html.Page,2_0,2022-05-11T11:10:50.789Z,,,,,,,,,,,,,,,,,,,,,,,,,,,,,,,8478.410999999993,,form submission,,,,,,,,,,,,,,,,,,,,,145295.90000000596,145295.5,136700.183,136827.5,136817.089,145299.598,,,
Holding screen,html.Screen,2_1_0_0,2022-05-11T11:11:00.783Z,,,,,,,,,,,,,,,,,,,,,,,,,,,,,,,10066.236999999994,,timeout,,,,,,,,,,,,,,,,,,,,,155289.90000000596,155282.51,145282.933,145296.20000000298,145299.598,155365.835,,,
screen,html.Screen,2_1_0_1_0,2022-05-11T11:11:01.858Z,,,,,,,,,,,,,,,,,53,,,,,,,,,,,,,,997.2649999940477,,response,,,,99,,,,,,,Space,keypress(Space),,,,,,,,When -- ----- -- ------ - ------- --- ----------<br>------------- ------ ------ ---- ---- ------- ----- -- ----<br>-------- ------- -- ---------- --- - --- ----- ----- ----<br>---- --- --- ----- --- ---- ---- ------- ----- ---- -------<br>--- --- -- ----- -- --- ---- -- --- ---- -- ------ ------<br>--- ----- -- ----,156365,156363.09999999404,155282.51,155290.09999999404,155365.835,156365.82,,0,When
screen,html.Screen,2_1_0_1_1,2022-05-11T11:11:02.246Z,,,,,,,,,,,,,,,,,53,,,,,,,,,,,,,,385.4799999970128,,response,,,,99,,,,,,,Space,keypress(Space),,,,,,,,---- it ----- -- ------ - ------- --- ----------<br>------------- ------ ------ ---- ---- ------- ----- -- ----<br>-------- ------- -- ---------- --- - --- ----- ----- ----<br>---- --- --- ----- --- ---- ---- ------- ----- ---- -------<br>--- --- -- ----- -- --- ---- -- --- ---- -- ------ ------<br>--- ----- -- ----,156752.40000000596,156751.29999999702,156349.155,156365.20000000298,156365.82,156766.111,,1,it
screen,html.Screen,2_1_0_1_2,2022-05-11T11:11:02.681Z,,,,,,,,,,,,,,,,,53,,,,,,,,,,,,,,420.18899999701534,,response,,,,99,,,,,,,Space,keypress(Space),,,,,,,,---- -- comes -- ------ - ------- --- ----------<br>------------- ------ ------ ---- ---- ------- ----- -- ----<br>-------- ------- -- ---------- --- - --- ----- ----- ----<br>---- --- --- ----- --- ---- ---- ------- ----- ---- -------<br>--- --- -- ----- -- --- ---- -- --- ---- -- ------ ------<br>--- ----- -- ----,157187.5,157186.29999999702,156749.446,156752.70000000298,156766.111,157199.142,,2,comes
screen,html.Screen,2_1_0_1_3,2022-05-11T11:11:03.046Z,,,,,,,,,,,,,,,,,53,,,,,,,,,,,,,,352.457999994047,,response,,,,99,,,,,,,Space,keypress(Space),,,,,,,,---- -- ----- to ------ - ------- --- ----------<br>------------- ------ ------ ---- ---- ------- ----- -- ----<br>-------- ------- -- ---------- --- - --- ----- ----- ----<br>---- --- --- ----- --- ---- ---- ------- ----- ---- -------<br>--- --- -- ----- -- --- ---- -- --- ---- -- ------ ------<br>--- ----- -- ----,157552.20000000298,157551.59999999404,157182.477,157187.70000000298,157199.142,157566.147,,3,to
screen,html.Screen,2_1_0_1_4,2022-05-11T11:11:03.420Z,,,,,,,,,,,,,,,,,53,,,,,,,,,,,,,,359.15299999702256,,response,,,,99,,,,,,,Space,keypress(Space),,,,,,,,---- -- ----- -- having - ------- --- ----------<br>------------- ------ ------ ---- ---- ------- ----- -- ----<br>-------- ------- -- ---------- --- - --- ----- ----- ----<br>---- --- --- ----- --- ---- ---- ------- ----- ---- -------<br>--- --- -- ----- -- --- ---- -- --- ---- -- ------ ------<br>--- ----- -- ----,157926.5,157925.29999999702,157549.482,157552.29999999702,157566.147,157932.703,,4,having
screen,html.Screen,2_1_0_1_5,2022-05-11T11:11:03.783Z,,,,,,,,,,,,,,,,,53,,,,,,,,,,,,,,356.3969999940309,,response,,,,99,,,,,,,Space,keypress(Space),,,,,,,,---- -- ----- -- ------ a ------- --- ----------<br>------------- ------ ------ ---- ---- ------- ----- -- ----<br>-------- ------- -- ---------- --- - --- ----- ----- ----<br>---- --- --- ----- --- ---- ---- ------- ----- ---- -------<br>--- --- -- ----- -- --- ---- -- --- ---- -- ------ ------<br>--- ----- -- ----,158289.79999999702,158289.09999999404,157916.038,157926.70000000298,157932.703,158299.31,,5,a
screen,html.Screen,2_1_0_1_6,2022-05-11T11:11:04.165Z,,,,,,,,,,,,,,,,,53,,,,,,,,,,,,,,371.0900000059628,,response,,,,99,,,,,,,Space,keypress(Space),,,,,,,,---- -- ----- -- ------ - lasting --- ----------<br>------------- ------ ------ ---- ---- ------- ----- -- ----<br>-------- ------- -- ---------- --- - --- ----- ----- ----<br>---- --- --- ----- --- ---- ---- ------- ----- ---- -------<br>--- --- -- ----- -- --- ---- -- --- ---- -- ------ ------<br>--- ----- -- ----,158671.59999999404,158670.40000000596,158282.645,158289.79999999702,158299.31,158682.674,,6,lasting
screen,html.Screen,2_1_0_1_7,2022-05-11T11:11:04.555Z,,,,,,,,,,,,,,,,,53,,,,,,,,,,,,,,378.2260000059614,,response,,,,99,,,,,,,Space,keypress(Space),,,,,,,,---- -- ----- -- ------ - ------- and ----------<br>------------- ------ ------ ---- ---- ------- ----- -- ----<br>-------- ------- -- ---------- --- - --- ----- ----- ----<br>---- --- --- ----- --- ---- ---- ------- ----- ---- -------<br>--- --- -- ----- -- --- ---- -- --- ---- -- ------ ------<br>--- ----- -- ----,159061.90000000596,159060.90000000596,158666.009,158671.70000000298,158682.674,159066.053,,7,and
screen,html.Screen,2_1_0_1_8,2022-05-11T11:11:05.097Z,,,,,,,,,,,,,,,,,53,,,,,,,,,,,,,,537.2469999970053,,response,,,,99,,,,,,,Space,keypress(Space),,,,,,,,---- -- ----- -- ------ - ------- --- fulfilling<br>------------- ------ ------ ---- ---- ------- ----- -- ----<br>-------- ------- -- ---------- --- - --- ----- ----- ----<br>---- --- --- ----- --- ---- ---- ------- ----- ---- -------<br>--- --- -- ----- -- --- ---- -- --- ---- -- ------ ------<br>--- ----- -- ----,159604.09999999404,159603.29999999702,159049.388,159062,159066.053,159615.95,,8,fulfilling
screen,html.Screen,2_1_0_1_9,2022-05-11T11:11:05.783Z,,,,,,,,,,,,,,,,,53,,,,,,,,,,,,,,672.3499999970081,,response,,,,99,,,,,,,Space,keypress(Space),,,,,,,,"---- -- ----- -- ------ - ------- --- ----------<br>relationship, ------ ------ ---- ---- ------- ----- -- ----<br>-------- ------- -- ---------- --- - --- ----- ----- ----<br>---- --- --- ----- --- ---- ---- ------- ----- ---- -------<br>--- --- -- ----- -- --- ---- -- --- ---- -- ------ ------<br>--- ----- -- ----",160289.59999999404,160288.29999999702,159599.285,159604.29999999702,159615.95,160299.226,,9,"relationship,"
screen,html.Screen,2_1_0_1_10,2022-05-11T11:11:06.250Z,,,,,,,,,,,,,,,,,53,,,,,,,,,,,,,,456.57399999702466,,response,,,,99,,,,,,,Space,keypress(Space),,,,,,,,---- -- ----- -- ------ - ------- --- ----------<br>------------- common ------ ---- ---- ------- ----- -- ----<br>-------- ------- -- ---------- --- - --- ----- ----- ----<br>---- --- --- ----- --- ---- ---- ------- ----- ---- -------<br>--- --- -- ----- -- --- ---- -- --- ---- -- ------ ------<br>--- ----- -- ----,160756.70000000298,160755.79999999702,160282.561,160289.70000000298,160299.226,160765.86,,10,common
screen,html.Screen,2_1_0_1_11,2022-05-11T11:11:06.649Z,,,,,,,,,,,,,,,,,53,,,,,,,,,,,,,,389.04000000597443,,response,,,,99,,,,,,,Space,keypress(Space),,,,,,,,---- -- ----- -- ------ - ------- --- ----------<br>------------- ------ wisdom ---- ---- ------- ----- -- ----<br>-------- ------- -- ---------- --- - --- ----- ----- ----<br>---- --- --- ----- --- ---- ---- ------- ----- ---- -------<br>--- --- -- ----- -- --- ---- -- --- ---- -- ------ ------<br>--- ----- -- ----,161155.79999999702,161154.90000000596,160749.195,160756.79999999702,160765.86,161165.893,,11,wisdom
screen,html.Screen,2_1_0_1_12,2022-05-11T11:11:07.035Z,,,,,,,,,,,,,,,,,53,,,,,,,,,,,,,,374.9069999970088,,response,,,,99,,,,,,,Space,keypress(Space),,,,,,,,---- -- ----- -- ------ - ------- --- ----------<br>------------- ------ ------ says ---- ------- ----- -- ----<br>-------- ------- -- ---------- --- - --- ----- ----- ----<br>---- --- --- ----- --- ---- ---- ------- ----- ---- -------<br>--- --- -- ----- -- --- ---- -- --- ---- -- ------ ------<br>--- ----- -- ----,161541.90000000596,161540.79999999702,161149.228,161155.90000000596,161165.893,161549.404,,12,says
screen,html.Screen,2_1_0_1_13,2022-05-11T11:11:07.406Z,,,,,,,,,,,,,,,,,53,,,,,,,,,,,,,,362.69599999403,,response,,,,99,,,,,,,Space,keypress(Space),,,,,,,,---- -- ----- -- ------ - ------- --- ----------<br>------------- ------ ------ ---- that ------- ----- -- ----<br>-------- ------- -- ---------- --- - --- ----- ----- ----<br>---- --- --- ----- --- ---- ---- ------- ----- ---- -------<br>--- --- -- ----- -- --- ---- -- --- ---- -- ------ ------<br>--- ----- -- ----,161913.20000000298,161912.09999999404,161532.739,161541.90000000596,161549.404,161915.91,,13,that
screen,html.Screen,2_1_0_1_14,2022-05-11T11:11:07.780Z,,,,,,,,,,,,,,,,,53,,,,,,,,,,,,,,369.79000000297674,,response,,,,99,,,,,,,Space,keypress(Space),,,,,,,,---- -- ----- -- ------ - ------- --- ----------<br>------------- ------ ------ ---- ---- feeling ----- -- ----<br>-------- ------- -- ---------- --- - --- ----- ----- ----<br>---- --- --- ----- --- ---- ---- ------- ----- ---- -------<br>--- --- -- ----- -- --- ---- -- --- ---- -- ------ ------<br>--- ----- -- ----,162286.79999999702,162285.70000000298,161899.245,161913.29999999702,161915.91,162299.154,,14,feeling
screen,html.Screen,2_1_0_1_15,2022-05-11T11:11:08.161Z,,,,,,,,,,,,,,,,,53,,,,,,,,,,,,,,367.2460000059509,,response,,,,99,,,,,,,Space,keypress(Space),,,,,,,,---- -- ----- -- ------ - ------- --- ----------<br>------------- ------ ------ ---- ---- ------- close -- ----<br>-------- ------- -- ---------- --- - --- ----- ----- ----<br>---- --- --- ----- --- ---- ---- ------- ----- ---- -------<br>--- --- -- ----- -- --- ---- -- --- ---- -- ------ ------<br>--- ----- -- ----,162667.59999999404,162666.40000000596,162282.489,162287,162299.154,162682.496,,15,close
screen,html.Screen,2_1_0_1_16,2022-05-11T11:11:08.536Z,,,,,,,,,,,,,,,,,53,,,,,,,,,,,,,,358.80399999700603,,response,,,,99,,,,,,,Space,keypress(Space),,,,,,,,---- -- ----- -- ------ - ------- --- ----------<br>------------- ------ ------ ---- ---- ------- ----- to ----<br>-------- ------- -- ---------- --- - --- ----- ----- ----<br>---- --- --- ----- --- ---- ---- ------- ----- ---- -------<br>--- --- -- ----- -- --- ---- -- --- ---- -- ------ ------<br>--- ----- -- ----,163042.20000000298,163041.29999999702,162665.831,162667.70000000298,162682.496,163049.126,,16,to
screen,html.Screen,2_1_0_1_17,2022-05-11T11:11:08.907Z,,,,,,,,,,,,,,,,,53,,,,,,,,,,,,,,369.07400000299094,,response,,,,99,,,,,,,Space,keypress(Space),,,,,,,,---- -- ----- -- ------ - ------- --- ----------<br>------------- ------ ------ ---- ---- ------- ----- -- your<br>-------- ------- -- ---------- --- - --- ----- ----- ----<br>---- --- --- ----- --- ---- ---- ------- ----- ---- -------<br>--- --- -- ----- -- --- ---- -- --- ---- -- ------ ------<br>--- ----- -- ----,163419.09999999404,163418.20000000298,163032.461,163042.40000000596,163049.126,163432.547,,17,your
screen,html.Screen,2_1_0_1_18,2022-05-11T11:11:09.434Z,,,,,,,,,,,,,,,,,53,,,,,,,,,,,,,,513.0529999940482,,response,,,,99,,,,,,,Space,keypress(Space),,,,,,,,---- -- ----- -- ------ - ------- --- ----------<br>------------- ------ ------ ---- ---- ------- ----- -- ----<br>romantic ------- -- ---------- --- - --- ----- ----- ----<br>---- --- --- ----- --- ---- ---- ------- ----- ---- -------<br>--- --- -- ----- -- --- ---- -- --- ---- -- ------ ------<br>--- ----- -- ----,163946.40000000596,163945.59999999404,163415.882,163419.20000000298,163432.547,163948.893,,18,romantic
screen,html.Screen,2_1_0_1_19,2022-05-11T11:11:09.907Z,,,,,,,,,,,,,,,,,53,,,,,,,,,,,,,,469.10699999998906,,response,,,,99,,,,,,,Space,keypress(Space),,,,,,,,---- -- ----- -- ------ - ------- --- ----------<br>------------- ------ ------ ---- ---- ------- ----- -- ----<br>-------- partner -- ---------- --- - --- ----- ----- ----<br>---- --- --- ----- --- ---- ---- ------- ----- ---- -------<br>--- --- -- ----- -- --- ---- -- --- ---- -- ------ ------<br>--- ----- -- ----,164419.20000000298,164418,163932.228,163946.59999999404,163948.893,164432.394,,19,partner
screen,html.Screen,2_1_0_1_20,2022-05-11T11:11:10.142Z,,,,,,,,,,,,,,,,,53,,,,,,,,,,,,,,220.50600000596023,,response,,,,99,,,,,,,Space,keypress(Space),,,,,,,,---- -- ----- -- ------ - ------- --- ----------<br>------------- ------ ------ ---- ---- ------- ----- -- ----<br>-------- ------- is ---------- --- - --- ----- ----- ----<br>---- --- --- ----- --- ---- ---- ------- ----- ---- -------<br>--- --- -- ----- -- --- ---- -- --- ---- -- ------ ------<br>--- ----- -- ----,164653.90000000596,164652.90000000596,164415.729,164419.29999999702,164432.394,164665.729,,20,is
screen,html.Screen,2_1_0_1_21,2022-05-11T11:11:10.978Z,,,,,,,,,,,,,,,,,53,,,,,,,,,,,,,,823.2710000000079,,response,,,,99,,,,,,,Space,keypress(Space),,,,,,,,---- -- ----- -- ------ - ------- --- ----------<br>------------- ------ ------ ---- ---- ------- ----- -- ----<br>-------- ------- -- paramount. --- - --- ----- ----- ----<br>---- --- --- ----- --- ---- ---- ------- ----- ---- -------<br>--- --- -- ----- -- --- ---- -- --- ---- -- ------ ------<br>--- ----- -- ----,165490.09999999404,165489,164649.064,164654,164665.729,165498.998,,21,paramount.
screen,html.Screen,2_1_0_1_22,2022-05-11T11:11:11.380Z,,,,,,,,,,,,,,,,,53,,,,,,,,,,,,,,392.6019999940472,,response,,,,99,,,,,,,Space,keypress(Space),,,,,,,,---- -- ----- -- ------ - ------- --- ----------<br>------------- ------ ------ ---- ---- ------- ----- -- ----<br>-------- ------- -- ---------- But - --- ----- ----- ----<br>---- --- --- ----- --- ---- ---- ------- ----- ---- -------<br>--- --- -- ----- -- --- ---- -- --- ---- -- ------ ------<br>--- ----- -- ----,165892.59999999404,165891.59999999404,165482.333,165490.29999999702,165498.998,165899.03,,22,But
screen,html.Screen,2_1_0_1_23,2022-05-11T11:11:11.758Z,,,,,,,,,,,,,,,,,53,,,,,,,,,,,,,,370.0699999940407,,response,,,,99,,,,,,,Space,keypress(Space),,,,,,,,---- -- ----- -- ------ - ------- --- ----------<br>------------- ------ ------ ---- ---- ------- ----- -- ----<br>-------- ------- -- ---------- --- a --- ----- ----- ----<br>---- --- --- ----- --- ---- ---- ------- ----- ---- -------<br>--- --- -- ----- -- --- ---- -- --- ---- -- ------ ------<br>--- ----- -- ----,166270.09999999404,166269.09999999404,165882.365,165892.79999999702,165899.03,166282.029,,23,a
screen,html.Screen,2_1_0_1_24,2022-05-11T11:11:12.137Z,,,,,,,,,,,,,,,,,53,,,,,,,,,,,,,,366.3710000059509,,response,,,,99,,,,,,,Space,keypress(Space),,,,,,,,---- -- ----- -- ------ - ------- --- ----------<br>------------- ------ ------ ---- ---- ------- ----- -- ----<br>-------- ------- -- ---------- --- - new ----- ----- ----<br>---- --- --- ----- --- ---- ---- ------- ----- ---- -------<br>--- --- -- ----- -- --- ---- -- --- ---- -- ------ ------<br>--- ----- -- ----,166649.40000000596,166648.40000000596,166265.364,166270.29999999702,166282.029,166665.641,,24,new
screen,html.Screen,2_1_0_1_25,2022-05-11T11:11:12.523Z,,,,,,,,,,,,,,,,,53,,,,,,,,,,,,,,368.85899999999674,,response,,,,99,,,,,,,Space,keypress(Space),,,,,,,,---- -- ----- -- ------ - ------- --- ----------<br>------------- ------ ------ ---- ---- ------- ----- -- ----<br>-------- ------- -- ---------- --- - --- study ----- ----<br>---- --- --- ----- --- ---- ---- ------- ----- ---- -------<br>--- --- -- ----- -- --- ---- -- --- ---- -- ------ ------<br>--- ----- -- ----,167035.5,167034.5,166648.976,166649.59999999404,166665.641,167048.924,,25,study
screen,html.Screen,2_1_0_1_26,2022-05-11T11:11:12.893Z,,,,,,,,,,,,,,,,,53,,,,,,,,,,,,,,355.77600000298116,,response,,,,99,,,,,,,Space,keypress(Space),,,,,,,,---- -- ----- -- ------ - ------- --- ----------<br>------------- ------ ------ ---- ---- ------- ----- -- ----<br>-------- ------- -- ---------- --- - --- ----- finds ----<br>---- --- --- ----- --- ---- ---- ------- ----- ---- -------<br>--- --- -- ----- -- --- ---- -- --- ---- -- ------ ------<br>--- ----- -- ----,167405.5,167404.70000000298,167032.259,167035.59999999404,167048.924,167415.606,,26,finds
screen,html.Screen,2_1_0_1_27,2022-05-11T11:11:13.215Z,,,,,,,,,,,,,,,,,53,,,,,,,,,,,,,,310.19399999702,,response,,,,99,,,,,,,Space,keypress(Space),,,,,,,,---- -- ----- -- ------ - ------- --- ----------<br>------------- ------ ------ ---- ---- ------- ----- -- ----<br>-------- ------- -- ---------- --- - --- ----- ----- that<br>---- --- --- ----- --- ---- ---- ------- ----- ---- -------<br>--- --- -- ----- -- --- ---- -- --- ---- -- ------ ------<br>--- ----- -- ----,167727.09999999404,167725.79999999702,167398.941,167405.59999999404,167415.606,167732.163,,27,that
screen,html.Screen,2_1_0_1_28,2022-05-11T11:11:13.683Z,,,,,,,,,,,,,,,,,53,,,,,,,,,,,,,,462.1369999970193,,response,,,,99,,,,,,,Space,keypress(Space),,,,,,,,---- -- ----- -- ------ - ------- --- ----------<br>------------- ------ ------ ---- ---- ------- ----- -- ----<br>-------- ------- -- ---------- --- - --- ----- ----- ----<br>it's --- --- ----- --- ---- ---- ------- ----- ---- -------<br>--- --- -- ----- -- --- ---- -- --- ---- -- ------ ------<br>--- ----- -- ----,168195.29999999702,168194.29999999702,167715.498,167727.29999999702,167732.163,168199.008,,28,it's
screen,html.Screen,2_1_0_1_29,2022-05-11T11:11:14.064Z,,,,,,,,,,,,,,,,,53,,,,,,,,,,,,,,376.0919999940379,,response,,,,99,,,,,,,Space,keypress(Space),,,,,,,,---- -- ----- -- ------ - ------- --- ----------<br>------------- ------ ------ ---- ---- ------- ----- -- ----<br>-------- ------- -- ---------- --- - --- ----- ----- ----<br>---- not --- ----- --- ---- ---- ------- ----- ---- -------<br>--- --- -- ----- -- --- ---- -- --- ---- -- ------ ------<br>--- ----- -- ----,168575.90000000596,168575.09999999404,168182.343,168195.40000000596,168199.008,168582.082,,29,not
screen,html.Screen,2_1_0_1_30,2022-05-11T11:11:14.412Z,,,,,,,,,,,,,,,,,53,,,,,,,,,,,,,,339.7179999970249,,response,,,,99,,,,,,,Space,keypress(Space),,,,,,,,---- -- ----- -- ------ - ------- --- ----------<br>------------- ------ ------ ---- ---- ------- ----- -- ----<br>-------- ------- -- ---------- --- - --- ----- ----- ----<br>---- --- how ----- --- ---- ---- ------- ----- ---- -------<br>--- --- -- ----- -- --- ---- -- --- ---- -- ------ ------<br>--- ----- -- ----,168924.70000000298,168921.79999999702,168565.417,168576.09999999404,168582.082,168931.915,,30,how
screen,html.Screen,2_1_0_1_31,2022-05-11T11:11:14.722Z,,,,,,,,,,,,,,,,,53,,,,,,,,,,,,,,301.2850000029721,,response,,,,99,,,,,,,Space,keypress(Space),,,,,,,,---- -- ----- -- ------ - ------- --- ----------<br>------------- ------ ------ ---- ---- ------- ----- -- ----<br>-------- ------- -- ---------- --- - --- ----- ----- ----<br>---- --- --- close --- ---- ---- ------- ----- ---- -------<br>--- --- -- ----- -- --- ---- -- --- ---- -- ------ ------<br>--- ----- -- ----,169234.40000000596,169233.20000000298,168915.25,168924.90000000596,168931.915,169248.69,,31,close
screen,html.Screen,2_1_0_1_32,2022-05-11T11:11:15.341Z,,,,,,,,,,,,,,,,,53,,,,,,,,,,,,,,603.1099999970174,,response,,,,99,,,,,,,Space,keypress(Space),,,,,,,,---- -- ----- -- ------ - ------- --- ----------<br>------------- ------ ------ ---- ---- ------- ----- -- ----<br>-------- ------- -- ---------- --- - --- ----- ----- ----<br>---- --- --- ----- you ---- ---- ------- ----- ---- -------<br>--- --- -- ----- -- --- ---- -- --- ---- -- ------ ------<br>--- ----- -- ----,169852.90000000596,169851.79999999702,169232.025,169234.70000000298,169248.69,169865.357,,32,you
screen,html.Screen,2_1_0_1_33,2022-05-11T11:11:15.737Z,,,,,,,,,,,,,,,,,53,,,,,,,,,,,,,,383.3430000029912,,response,,,,99,,,,,,,Space,keypress(Space),,,,,,,,---- -- ----- -- ------ - ------- --- ----------<br>------------- ------ ------ ---- ---- ------- ----- -- ----<br>-------- ------- -- ---------- --- - --- ----- ----- ----<br>---- --- --- ----- --- feel ---- ------- ----- ---- -------<br>--- --- -- ----- -- --- ---- -- --- ---- -- ------ ------<br>--- ----- -- ----,170249.70000000298,170248.70000000298,169848.692,169853.09999999404,169865.357,170265.471,,33,feel
screen,html.Screen,2_1_0_1_34,2022-05-11T11:11:16.093Z,,,,,,,,,,,,,,,,,53,,,,,,,,,,,,,,338.52900000000955,,response,,,,99,,,,,,,Space,keypress(Space),,,,,,,,---- -- ----- -- ------ - ------- --- ----------<br>------------- ------ ------ ---- ---- ------- ----- -- ----<br>-------- ------- -- ---------- --- - --- ----- ----- ----<br>---- --- --- ----- --- ---- that ------- ----- ---- -------<br>--- --- -- ----- -- --- ---- -- --- ---- -- ------ ------<br>--- ----- -- ----,170605,170604,170248.806,170249.79999999702,170265.471,170615.528,,34,that
screen,html.Screen,2_1_0_1_35,2022-05-11T11:11:16.449Z,,,,,,,,,,,,,,,,,53,,,,,,,,,,,,,,344.8720000059693,,response,,,,99,,,,,,,Space,keypress(Space),,,,,,,,---- -- ----- -- ------ - ------- --- ----------<br>------------- ------ ------ ---- ---- ------- ----- -- ----<br>-------- ------- -- ---------- --- - --- ----- ----- ----<br>---- --- --- ----- --- ---- ---- matters ----- ---- -------<br>--- --- -- ----- -- --- ---- -- --- ---- -- ------ ------<br>--- ----- -- ----,170961.59999999404,170960.40000000596,170598.863,170605.09999999404,170615.528,170965.432,,35,matters
screen,html.Screen,2_1_0_1_36,2022-05-11T11:11:16.844Z,,,,,,,,,,,,,,,,,53,,,,,,,,,,,,,,389.5679999999993,,response,,,,99,,,,,,,Space,keypress(Space),,,,,,,,"---- -- ----- -- ------ - ------- --- ----------<br>------------- ------ ------ ---- ---- ------- ----- -- ----<br>-------- ------- -- ---------- --- - --- ----- ----- ----<br>---- --- --- ----- --- ---- ---- ------- most, ---- -------<br>--- --- -- ----- -- --- ---- -- --- ---- -- ------ ------<br>--- ----- -- ----",171356.20000000298,171355,170948.767,170961.70000000298,170965.432,171365.411,,36,"most,"
screen,html.Screen,2_1_0_1_37,2022-05-11T11:11:17.495Z,,,,,,,,,,,,,,,,,53,,,,,,,,,,,,,,640.5890000000072,,response,,,,99,,,,,,,Space,keypress(Space),,,,,,,,---- -- ----- -- ------ - ------- --- ----------<br>------------- ------ ------ ---- ---- ------- ----- -- ----<br>-------- ------- -- ---------- --- - --- ----- ----- ----<br>---- --- --- ----- --- ---- ---- ------- ----- it's -------<br>--- --- -- ----- -- --- ---- -- --- ---- -- ------ ------<br>--- ----- -- ----,172007.09999999404,172006,171348.746,171356.29999999702,171365.411,172015.363,,37,it's
screen,html.Screen,2_1_0_1_38,2022-05-11T11:11:17.894Z,,,,,,,,,,,,,,,,,53,,,,,,,,,,,,,,390.1369999999879,,response,,,,99,,,,,,,Space,keypress(Space),,,,,,,,---- -- ----- -- ------ - ------- --- ----------<br>------------- ------ ------ ---- ---- ------- ----- -- ----<br>-------- ------- -- ---------- --- - --- ----- ----- ----<br>---- --- --- ----- --- ---- ---- ------- ----- ---- whether<br>--- --- -- ----- -- --- ---- -- --- ---- -- ------ ------<br>--- ----- -- ----,172406.59999999404,172405.5,171998.698,172007.29999999702,172015.363,172415.522,,38,whether
screen,html.Screen,2_1_0_1_39,2022-05-11T11:11:18.299Z,,,,,,,,,,,,,,,,,53,,,,,,,,,,,,,,391.9780000000028,,response,,,,99,,,,,,,Space,keypress(Space),,,,,,,,---- -- ----- -- ------ - ------- --- ----------<br>------------- ------ ------ ---- ---- ------- ----- -- ----<br>-------- ------- -- ---------- --- - --- ----- ----- ----<br>---- --- --- ----- --- ---- ---- ------- ----- ---- -------<br>you --- -- ----- -- --- ---- -- --- ---- -- ------ ------<br>--- ----- -- ----,172811.09999999404,172807.5,172398.857,172406.70000000298,172415.522,172815.176,,39,you
screen,html.Screen,2_1_0_1_40,2022-05-11T11:11:18.704Z,,,,,,,,,,,,,,,,,53,,,,,,,,,,,,,,400.0240000029735,,response,,,,99,,,,,,,Space,keypress(Space),,,,,,,,---- -- ----- -- ------ - ------- --- ----------<br>------------- ------ ------ ---- ---- ------- ----- -- ----<br>-------- ------- -- ---------- --- - --- ----- ----- ----<br>---- --- --- ----- --- ---- ---- ------- ----- ---- -------<br>--- are -- ----- -- --- ---- -- --- ---- -- ------ ------<br>--- ----- -- ----,173216.29999999702,173215.20000000298,172798.511,172811.40000000596,172815.176,173231.994,,40,are
screen,html.Screen,2_1_0_1_41,2022-05-11T11:11:19.109Z,,,,,,,,,,,,,,,,,53,,,,,,,,,,,,,,388.3059999970137,,response,,,,99,,,,,,,Space,keypress(Space),,,,,,,,---- -- ----- -- ------ - ------- --- ----------<br>------------- ------ ------ ---- ---- ------- ----- -- ----<br>-------- ------- -- ---------- --- - --- ----- ----- ----<br>---- --- --- ----- --- ---- ---- ------- ----- ---- -------<br>--- --- as ----- -- --- ---- -- --- ---- -- ------ ------<br>--- ----- -- ----,173621.20000000298,173620.29999999702,173215.329,173216.5,173231.994,173631.711,,41,as
screen,html.Screen,2_1_0_1_42,2022-05-11T11:11:19.476Z,,,,,,,,,,,,,,,,,53,,,,,,,,,,,,,,355.1890000059502,,response,,,,99,,,,,,,Space,keypress(Space),,,,,,,,---- -- ----- -- ------ - ------- --- ----------<br>------------- ------ ------ ---- ---- ------- ----- -- ----<br>-------- ------- -- ---------- --- - --- ----- ----- ----<br>---- --- --- ----- --- ---- ---- ------- ----- ---- -------<br>--- --- -- close -- --- ---- -- --- ---- -- ------ ------<br>--- ----- -- ----,173988.09999999404,173986.90000000596,173615.046,173621.29999999702,173631.711,173998.344,,42,close
screen,html.Screen,2_1_0_1_43,2022-05-11T11:11:19.792Z,,,,,,,,,,,,,,,,,53,,,,,,,,,,,,,,304.85600000296836,,response,,,,99,,,,,,,Space,keypress(Space),,,,,,,,---- -- ----- -- ------ - ------- --- ----------<br>------------- ------ ------ ---- ---- ------- ----- -- ----<br>-------- ------- -- ---------- --- - --- ----- ----- ----<br>---- --- --- ----- --- ---- ---- ------- ----- ---- -------<br>--- --- -- ----- as --- ---- -- --- ---- -- ------ ------<br>--- ----- -- ----,174304.09999999404,174303.20000000298,173981.679,173988.20000000298,173998.344,174315.225,,43,as
screen,html.Screen,2_1_0_1_44,2022-05-11T11:11:20.120Z,,,,,,,,,,,,,,,,,53,,,,,,,,,,,,,,315.9750000029744,,response,,,,99,,,,,,,Space,keypress(Space),,,,,,,,---- -- ----- -- ------ - ------- --- ----------<br>------------- ------ ------ ---- ---- ------- ----- -- ----<br>-------- ------- -- ---------- --- - --- ----- ----- ----<br>---- --- --- ----- --- ---- ---- ------- ----- ---- -------<br>--- --- -- ----- -- you ---- -- --- ---- -- ------ ------<br>--- ----- -- ----,174632.29999999702,174631.20000000298,174298.56,174304.29999999702,174315.225,174648.709,,44,you
screen,html.Screen,2_1_0_1_45,2022-05-11T11:11:20.466Z,,,,,,,,,,,,,,,,,53,,,,,,,,,,,,,,328.29099999999744,,response,,,,99,,,,,,,Space,keypress(Space),,,,,,,,---- -- ----- -- ------ - ------- --- ----------<br>------------- ------ ------ ---- ---- ------- ----- -- ----<br>-------- ------- -- ---------- --- - --- ----- ----- ----<br>---- --- --- ----- --- ---- ---- ------- ----- ---- -------<br>--- --- -- ----- -- --- want -- --- ---- -- ------ ------<br>--- ----- -- ----,174978,174977,174632.044,174632.40000000596,174648.709,174981.629,,45,want
screen,html.Screen,2_1_0_1_46,2022-05-11T11:11:20.857Z,,,,,,,,,,,,,,,,,53,,,,,,,,,,,,,,386.6709999970335,,response,,,,99,,,,,,,Space,keypress(Space),,,,,,,,---- -- ----- -- ------ - ------- --- ----------<br>------------- ------ ------ ---- ---- ------- ----- -- ----<br>-------- ------- -- ---------- --- - --- ----- ----- ----<br>---- --- --- ----- --- ---- ---- ------- ----- ---- -------<br>--- --- -- ----- -- --- ---- to --- ---- -- ------ ------<br>--- ----- -- ----,175369.20000000298,175368.29999999702,174964.964,174978.09999999404,174981.629,175381.713,,46,to
screen,html.Screen,2_1_0_1_47,2022-05-11T11:11:21.721Z,,,,,,,,,,,,,,,,,53,,,,,,,,,,,,,,850.8869999940507,,response,,,,99,,,,,,,Space,keypress(Space),,,,,,,,"---- -- ----- -- ------ - ------- --- ----------<br>------------- ------ ------ ---- ---- ------- ----- -- ----<br>-------- ------- -- ---------- --- - --- ----- ----- ----<br>---- --- --- ----- --- ---- ---- ------- ----- ---- -------<br>--- --- -- ----- -- --- ---- -- be, ---- -- ------ ------<br>--- ----- -- ----",176233.70000000298,176232.59999999404,175365.048,175369.29999999702,175381.713,176248.299,,47,"be,"
screen,html.Screen,2_1_0_1_48,2022-05-11T11:11:22.072Z,,,,,,,,,,,,,,,,,53,,,,,,,,,,,,,,334.30099999404047,,response,,,,99,,,,,,,Space,keypress(Space),,,,,,,,---- -- ----- -- ------ - ------- --- ----------<br>------------- ------ ------ ---- ---- ------- ----- -- ----<br>-------- ------- -- ---------- --- - --- ----- ----- ----<br>---- --- --- ----- --- ---- ---- ------- ----- ---- -------<br>--- --- -- ----- -- --- ---- -- --- even -- ------ ------<br>--- ----- -- ----,176583.79999999702,176582.59999999404,176231.634,176233.79999999702,176248.299,176598.366,,48,even
screen,html.Screen,2_1_0_1_49,2022-05-11T11:11:22.386Z,,,,,,,,,,,,,,,,,53,,,,,,,,,,,,,,299.0340000059514,,response,,,,99,,,,,,,Space,keypress(Space),,,,,,,,---- -- ----- -- ------ - ------- --- ----------<br>------------- ------ ------ ---- ---- ------- ----- -- ----<br>-------- ------- -- ---------- --- - --- ----- ----- ----<br>---- --- --- ----- --- ---- ---- ------- ----- ---- -------<br>--- --- -- ----- -- --- ---- -- --- ---- if ------ ------<br>--- ----- -- ----,176898.5,176897.40000000596,176581.701,176583.90000000596,176598.366,176915.167,,49,if
screen,html.Screen,2_1_0_1_50,2022-05-11T11:11:22.687Z,,,,,,,,,,,,,,,,,53,,,,,,,,,,,,,,282.83300000001327,,response,,,,99,,,,,,,Space,keypress(Space),,,,,,,,---- -- ----- -- ------ - ------- --- ----------<br>------------- ------ ------ ---- ---- ------- ----- -- ----<br>-------- ------- -- ---------- --- - --- ----- ----- ----<br>---- --- --- ----- --- ---- ---- ------- ----- ---- -------<br>--- --- -- ----- -- --- ---- -- --- ---- -- that's ------<br>--- ----- -- ----,177198.90000000596,177198,176898.502,176898.70000000298,176915.167,177214.969,,50,that's
screen,html.Screen,2_1_0_1_51,2022-05-11T11:11:23.052Z,,,,,,,,,,,,,,,,,53,,,,,,,,,,,,,,348.5309999999881,,response,,,,99,,,,,,,Space,keypress(Space),,,,,,,,---- -- ----- -- ------ - ------- --- ----------<br>------------- ------ ------ ---- ---- ------- ----- -- ----<br>-------- ------- -- ---------- --- - --- ----- ----- ----<br>---- --- --- ----- --- ---- ---- ------- ----- ---- -------<br>--- --- -- ----- -- --- ---- -- --- ---- -- ------ really<br>--- ----- -- ----,177564.40000000596,177563.5,177198.304,177199,177214.969,177581.789,,51,really
screen,html.Screen,2_1_0_1_52,2022-05-11T11:11:23.417Z,,,,,,,,,,,,,,,,,53,,,,,,,,,,,,,,346.51099999703,,response,,,,99,,,,,,,Space,keypress(Space),,,,,,,,---- -- ----- -- ------ - ------- --- ----------<br>------------- ------ ------ ---- ---- ------- ----- -- ----<br>-------- ------- -- ---------- --- - --- ----- ----- ----<br>---- --- --- ----- --- ---- ---- ------- ----- ---- -------<br>--- --- -- ----- -- --- ---- -- --- ---- -- ------ ------<br>not ----- -- ----,177929.40000000596,177928.29999999702,177565.124,177564.59999999404,177581.789,177931.775,,52,not
screen,html.Screen,2_1_0_1_53,2022-05-11T11:11:23.820Z,,,,,,,,,,,,,,,,,53,,,,,,,,,,,,,,399.5249999970256,,response,,,,99,,,,,,,Space,keypress(Space),,,,,,,,---- -- ----- -- ------ - ------- --- ----------<br>------------- ------ ------ ---- ---- ------- ----- -- ----<br>-------- ------- -- ---------- --- - --- ----- ----- ----<br>---- --- --- ----- --- ---- ---- ------- ----- ---- -------<br>--- --- -- ----- -- --- ---- -- --- ---- -- ------ ------<br>--- close -- ----,178332.5,178331.29999999702,177915.11,177929.59999999404,177931.775,178348.273,,53,close
screen,html.Screen,2_1_0_1_54,2022-05-11T11:11:24.226Z,,,,,,,,,,,,,,,,,53,,,,,,,,,,,,,,388.42700000299374,,response,,,,99,,,,,,,Space,keypress(Space),,,,,,,,---- -- ----- -- ------ - ------- --- ----------<br>------------- ------ ------ ---- ---- ------- ----- -- ----<br>-------- ------- -- ---------- --- - --- ----- ----- ----<br>---- --- --- ----- --- ---- ---- ------- ----- ---- -------<br>--- --- -- ----- -- --- ---- -- --- ---- -- ------ ------<br>--- ----- at ----,178737.79999999702,178736.70000000298,178331.608,178332.59999999404,178348.273,178748.353,,54,at
screen,html.Screen,2_1_0_1_55,2022-05-11T11:11:25.006Z,,,,,,,,,,,,,,,,,53,,,,,,,,,,,,,,769.1469999999972,,response,,,,99,,,,,,,Space,keypress(Space),,,,,,,,---- -- ----- -- ------ - ------- --- ----------<br>------------- ------ ------ ---- ---- ------- ----- -- ----<br>-------- ------- -- ---------- --- - --- ----- ----- ----<br>---- --- --- ----- --- ---- ---- ------- ----- ---- -------<br>--- --- -- ----- -- --- ---- -- --- ---- -- ------ ------<br>--- ----- -- all.,179518.5,179517.5,178731.688,178738,178748.353,179531.379,,55,all.
Item 99,flow.Loop,2_1_0_1,2022-05-11T11:11:25.006Z,,,,,,,,,,,,,,,,,,,,,,,,,,,,,,,24151.665000000008,,completion,,,,,C,,,,,,,,,,,silence,,,,,179518.79999999702,179517.5,155282.51,155290.09999999404,155365.835,179531.379,,,
Question 1,html.Screen,2_1_0_2,2022-05-11T11:11:29.652Z,,,,,,,,,,,,,,,,,,,,,,,,,,,,false,FALSE,,4631.521000005974,,response,,,,99,C,,,,,,TRUE,click #choice-1,,,,silence,,,,,184164.70000000298,184162.90000000596,179514.714,179518.90000000596,179531.379,184164.825,,,
Question 2,html.Screen,2_1_0_3,2022-05-11T11:11:33.655Z,,,,,,,,,,,,,,,,,,,,,,,,,,,,true,TRUE,,4000.774999994028,,response,,,,99,C,,,,,,TRUE,click #choice-1,,,,silence,,,,,188166.90000000596,188165.59999999404,184148.16,184164.79999999702,184164.825,188181.221,,,
Item 99,flow.Sequence,2_1_0,2022-05-11T11:11:33.655Z,,,,,,,,,,,,,,,,,,,,,,,,,,,,,,,42866.00199999404,,completion,,,,,,,,,,,,,,,,,,,,,188167,188165.59999999404,145282.933,145296.09999999404,145299.598,188181.221,,,
Holding screen,html.Screen,2_1_1_0,2022-05-11T11:11:43.659Z,,,,,,,,,,,,,,,,,,,,,,,,,,,,,,,9999.401000000013,,timeout,,,,,,,,,,,,,,,,,,,,,198171.70000000298,198163.957,188164.556,188167.09999999404,188181.221,198180.622,,,
screen,html.Screen,2_1_1_1_0,2022-05-11T11:11:44.828Z,,,,,,,,,,,,,,,,,54,,,,,,,,,,,,,,1158.5780000029772,,response,,,,100,,,,,,,Space,keypress(Space),,,,,,,,At --- ---- --- ------ ----- ------- ---- -- --- ------- --<br>------- ---------- ------ -- ----- -- ----- -- ---- ------<br>--- ----- --- --- ------ -------- ----- --- ------ ----- --<br>----- ----- ---------- --- --- ------ ------ ---- -- ------<br>------- --- ------ ----- --- ---- ------- -- ---- --- --<br>------- ------,199340.29999999702,199339.20000000298,198163.957,198171.90000000596,198180.622,199347.116,,0,At
screen,html.Screen,2_1_1_1_1,2022-05-11T11:11:45.202Z,,,,,,,,,,,,,,,,,54,,,,,,,,,,,,,,365.8839999999909,,response,,,,100,,,,,,,Space,keypress(Space),,,,,,,,-- the ---- --- ------ ----- ------- ---- -- --- ------- --<br>------- ---------- ------ -- ----- -- ----- -- ---- ------<br>--- ----- --- --- ------ -------- ----- --- ------ ----- --<br>----- ----- ---------- --- --- ------ ------ ---- -- ------<br>------- --- ------ ----- --- ---- ------- -- ---- --- --<br>------- ------,199714,199713,199330.451,199340.5,199347.116,199730.745,,1,the
screen,html.Screen,2_1_1_1_2,2022-05-11T11:11:45.525Z,,,,,,,,,,,,,,,,,54,,,,,,,,,,,,,,305.3549999940442,,response,,,,100,,,,,,,Space,keypress(Space),,,,,,,,-- --- time --- ------ ----- ------- ---- -- --- ------- --<br>------- ---------- ------ -- ----- -- ----- -- ---- ------<br>--- ----- --- --- ------ -------- ----- --- ------ ----- --<br>----- ----- ---------- --- --- ------ ------ ---- -- ------<br>------- --- ------ ----- --- ---- ------- -- ---- --- --<br>------- ------,200036.70000000298,200036.09999999404,199714.08,199714.20000000298,199730.745,200047.465,,2,time
screen,html.Screen,2_1_1_1_3,2022-05-11T11:11:45.883Z,,,,,,,,,,,,,,,,,54,,,,,,,,,,,,,,346.7350000029837,,response,,,,100,,,,,,,Space,keypress(Space),,,,,,,,-- --- ---- the ------ ----- ------- ---- -- --- ------- --<br>------- ---------- ------ -- ----- -- ----- -- ---- ------<br>--- ----- --- --- ------ -------- ----- --- ------ ----- --<br>----- ----- ---------- --- --- ------ ------ ---- -- ------<br>------- --- ------ ----- --- ---- ------- -- ---- --- --<br>------- ------,200395.29999999702,200394.20000000298,200030.8,200036.90000000596,200047.465,200397.409,,3,the
screen,html.Screen,2_1_1_1_4,2022-05-11T11:11:46.150Z,,,,,,,,,,,,,,,,,54,,,,,,,,,,,,,,263.99100000594626,,response,,,,100,,,,,,,Space,keypress(Space),,,,,,,,-- --- ---- --- French ----- ------- ---- -- --- ------- --<br>------- ---------- ------ -- ----- -- ----- -- ---- ------<br>--- ----- --- --- ------ -------- ----- --- ------ ----- --<br>----- ----- ---------- --- --- ------ ------ ---- -- ------<br>------- --- ------ ----- --- ---- ------- -- ---- --- --<br>------- ------,200662.29999999702,200661.40000000596,200380.744,200395.5,200397.409,200664.049,,4,French
screen,html.Screen,2_1_1_1_5,2022-05-11T11:11:46.597Z,,,,,,,,,,,,,,,,,54,,,,,,,,,,,,,,444.7509999970207,,response,,,,100,,,,,,,Space,keypress(Space),,,,,,,,-- --- ---- --- ------ crown ------- ---- -- --- ------- --<br>------- ---------- ------ -- ----- -- ----- -- ---- ------<br>--- ----- --- --- ------ -------- ----- --- ------ ----- --<br>----- ----- ---------- --- --- ------ ------ ---- -- ------<br>------- --- ------ ----- --- ---- ------- -- ---- --- --<br>------- ------,201109.59999999404,201108.79999999702,200647.384,200662.5,200664.049,201113.737,,5,crown
screen,html.Screen,2_1_1_1_6,2022-05-11T11:11:47.130Z,,,,,,,,,,,,,,,,,54,,,,,,,,,,,,,,527.6630000059668,,response,,,,100,,,,,,,Space,keypress(Space),,,,,,,,-- --- ---- --- ------ ----- secured ---- -- --- ------- --<br>------- ---------- ------ -- ----- -- ----- -- ---- ------<br>--- ----- --- --- ------ -------- ----- --- ------ ----- --<br>----- ----- ---------- --- --- ------ ------ ---- -- ------<br>------- --- ------ ----- --- ---- ------- -- ---- --- --<br>------- ------,201642.20000000298,201641.40000000596,201097.072,201109.79999999702,201113.737,201647.446,,6,secured
screen,html.Screen,2_1_1_1_7,2022-05-11T11:11:47.526Z,,,,,,,,,,,,,,,,,54,,,,,,,,,,,,,,389.5540000000037,,response,,,,100,,,,,,,Space,keypress(Space),,,,,,,,-- --- ---- --- ------ ----- ------- much -- --- ------- --<br>------- ---------- ------ -- ----- -- ----- -- ---- ------<br>--- ----- --- --- ------ -------- ----- --- ------ ----- --<br>----- ----- ---------- --- --- ------ ------ ---- -- ------<br>------- --- ------ ----- --- ---- ------- -- ---- --- --<br>------- ------,202038.29999999702,202037,201630.781,201642.5,201647.446,202047.286,,7,much
screen,html.Screen,2_1_1_1_8,2022-05-11T11:11:47.918Z,,,,,,,,,,,,,,,,,54,,,,,,,,,,,,,,382.31399999404675,,response,,,,100,,,,,,,Space,keypress(Space),,,,,,,,-- --- ---- --- ------ ----- ------- ---- of --- ------- --<br>------- ---------- ------ -- ----- -- ----- -- ---- ------<br>--- ----- --- --- ------ -------- ----- --- ------ ----- --<br>----- ----- ---------- --- --- ------ ------ ---- -- ------<br>------- --- ------ ----- --- ---- ------- -- ---- --- --<br>------- ------,202430.59999999404,202429.59999999404,202030.621,202038.40000000596,202047.286,202447.297,,8,of
screen,html.Screen,2_1_1_1_9,2022-05-11T11:11:48.190Z,,,,,,,,,,,,,,,,,54,,,,,,,,,,,,,,254.30299999404815,,response,,,,100,,,,,,,Space,keypress(Space),,,,,,,,-- --- ---- --- ------ ----- ------- ---- -- its ------- --<br>------- ---------- ------ -- ----- -- ----- -- ---- ------<br>--- ----- --- --- ------ -------- ----- --- ------ ----- --<br>----- ----- ---------- --- --- ------ ------ ---- -- ------<br>------- --- ------ ----- --- ---- ------- -- ---- --- --<br>------- ------,202702.59999999404,202701.59999999404,202430.632,202430.79999999702,202447.297,202713.939,,9,its
screen,html.Screen,2_1_1_1_10,2022-05-11T11:11:48.564Z,,,,,,,,,,,,,,,,,54,,,,,,,,,,,,,,360.86099999700673,,response,,,,100,,,,,,,Space,keypress(Space),,,,,,,,-- --- ---- --- ------ ----- ------- ---- -- --- revenue --<br>------- ---------- ------ -- ----- -- ----- -- ---- ------<br>--- ----- --- --- ------ -------- ----- --- ------ ----- --<br>----- ----- ---------- --- --- ------ ------ ---- -- ------<br>------- --- ------ ----- --- ---- ------- -- ---- --- --<br>------- ------,203075.79999999702,203074.79999999702,202697.274,202702.79999999702,202713.939,203080.462,,10,revenue
screen,html.Screen,2_1_1_1_11,2022-05-11T11:11:48.960Z,,,,,,,,,,,,,,,,,54,,,,,,,,,,,,,,390.53800000000047,,response,,,,100,,,,,,,Space,keypress(Space),,,,,,,,-- --- ---- --- ------ ----- ------- ---- -- --- ------- by<br>------- ---------- ------ -- ----- -- ----- -- ---- ------<br>--- ----- --- --- ------ -------- ----- --- ------ ----- --<br>----- ----- ---------- --- --- ------ ------ ---- -- ------<br>------- --- ------ ----- --- ---- ------- -- ---- --- --<br>------- ------,203471.90000000596,203471,203063.797,203076,203080.462,203480.449,,11,by
screen,html.Screen,2_1_1_1_12,2022-05-11T11:11:49.347Z,,,,,,,,,,,,,,,,,54,,,,,,,,,,,,,,378.05100000000675,,response,,,,100,,,,,,,Space,keypress(Space),,,,,,,,-- --- ---- --- ------ ----- ------- ---- -- --- ------- --<br>issuing ---------- ------ -- ----- -- ----- -- ---- ------<br>--- ----- --- --- ------ -------- ----- --- ------ ----- --<br>----- ----- ---------- --- --- ------ ------ ---- -- ------<br>------- --- ------ ----- --- ---- ------- -- ---- --- --<br>------- ------,203859.5,203858.5,203463.784,203472.09999999404,203480.449,203863.917,,12,issuing
screen,html.Screen,2_1_1_1_13,2022-05-11T11:11:49.758Z,,,,,,,,,,,,,,,,,54,,,,,,,,,,,,,,404.98300000597374,,response,,,,100,,,,,,,Space,keypress(Space),,,,,,,,-- --- ---- --- ------ ----- ------- ---- -- --- ------- --<br>------- government ------ -- ----- -- ----- -- ---- ------<br>--- ----- --- --- ------ -------- ----- --- ------ ----- --<br>----- ----- ---------- --- --- ------ ------ ---- -- ------<br>------- --- ------ ----- --- ---- ------- -- ---- --- --<br>------- ------,204269.79999999702,204268.90000000596,203847.252,203859.59999999404,203863.917,204280.536,,13,government
screen,html.Screen,2_1_1_1_14,2022-05-11T11:11:50.086Z,,,,,,,,,,,,,,,,,54,,,,,,,,,,,,,,316.8640000059677,,response,,,,100,,,,,,,Space,keypress(Space),,,,,,,,-- --- ---- --- ------ ----- ------- ---- -- --- ------- --<br>------- ---------- bonds. -- ----- -- ----- -- ---- ------<br>--- ----- --- --- ------ -------- ----- --- ------ ----- --<br>----- ----- ---------- --- --- ------ ------ ---- -- ------<br>------- --- ------ ----- --- ---- ------- -- ---- --- --<br>------- ------,204598.40000000596,204597.40000000596,204263.871,204270,204280.536,204613.825,,14,bonds.
screen,html.Screen,2_1_1_1_15,2022-05-11T11:11:50.474Z,,,,,,,,,,,,,,,,,54,,,,,,,,,,,,,,371.4749999970081,,response,,,,100,,,,,,,Space,keypress(Space),,,,,,,,-- --- ---- --- ------ ----- ------- ---- -- --- ------- --<br>------- ---------- ------ In ----- -- ----- -- ---- ------<br>--- ----- --- --- ------ -------- ----- --- ------ ----- --<br>----- ----- ---------- --- --- ------ ------ ---- -- ------<br>------- --- ------ ----- --- ---- ------- -- ---- --- --<br>------- ------,204986.09999999404,204985.29999999702,204597.16,204598.59999999404,204613.825,204997.154,,15,In
screen,html.Screen,2_1_1_1_16,2022-05-11T11:11:50.803Z,,,,,,,,,,,,,,,,,54,,,,,,,,,,,,,,317.2460000059509,,response,,,,100,,,,,,,Space,keypress(Space),,,,,,,,"-- --- ---- --- ------ ----- ------- ---- -- --- ------- --<br>------- ---------- ------ -- 1727, -- ----- -- ---- ------<br>--- ----- --- --- ------ -------- ----- --- ------ ----- --<br>----- ----- ---------- --- --- ------ ------ ---- -- ------<br>------- --- ------ ----- --- ---- ------- -- ---- --- --<br>------- ------",205315.5,205314.40000000596,204980.489,204986.20000000298,204997.154,205330.497,,16,"1727,"
screen,html.Screen,2_1_1_1_17,2022-05-11T11:11:51.136Z,,,,,,,,,,,,,,,,,54,,,,,,,,,,,,,,316.2030000029772,,response,,,,100,,,,,,,Space,keypress(Space),,,,,,,,-- --- ---- --- ------ ----- ------- ---- -- --- ------- --<br>------- ---------- ------ -- ----- in ----- -- ---- ------<br>--- ----- --- --- ------ -------- ----- --- ------ ----- --<br>----- ----- ---------- --- --- ------ ------ ---- -- ------<br>------- --- ------ ----- --- ---- ------- -- ---- --- --<br>------- ------,205647.79999999702,205646.70000000298,205313.832,205315.59999999404,205330.497,205663.807,,17,in
screen,html.Screen,2_1_1_1_18,2022-05-11T11:11:51.439Z,,,,,,,,,,,,,,,,,54,,,,,,,,,,,,,,286.79299999403884,,response,,,,100,,,,,,,Space,keypress(Space),,,,,,,,-- --- ---- --- ------ ----- ------- ---- -- --- ------- --<br>------- ---------- ------ -- ----- -- order -- ---- ------<br>--- ----- --- --- ------ -------- ----- --- ------ ----- --<br>----- ----- ---------- --- --- ------ ------ ---- -- ------<br>------- --- ------ ----- --- ---- ------- -- ---- --- --<br>------- ------,205951.70000000298,205950.59999999404,205647.142,205647.90000000596,205663.807,205963.855,,18,order
screen,html.Screen,2_1_1_1_19,2022-05-11T11:11:51.805Z,,,,,,,,,,,,,,,,,54,,,,,,,,,,,,,,352.04500000595,,response,,,,100,,,,,,,Space,keypress(Space),,,,,,,,-- --- ---- --- ------ ----- ------- ---- -- --- ------- --<br>------- ---------- ------ -- ----- -- ----- to ---- ------<br>--- ----- --- --- ------ -------- ----- --- ------ ----- --<br>----- ----- ---------- --- --- ------ ------ ---- -- ------<br>------- --- ------ ----- --- ---- ------- -- ---- --- --<br>------- ------,206316.70000000298,206315.90000000596,205947.19,205951.79999999702,205963.855,206330.453,,19,to
screen,html.Screen,2_1_1_1_20,2022-05-11T11:11:52.073Z,,,,,,,,,,,,,,,,,54,,,,,,,,,,,,,,253.44700000595185,,response,,,,100,,,,,,,Space,keypress(Space),,,,,,,,-- --- ---- --- ------ ----- ------- ---- -- --- ------- --<br>------- ---------- ------ -- ----- -- ----- -- save ------<br>--- ----- --- --- ------ -------- ----- --- ------ ----- --<br>----- ----- ---------- --- --- ------ ------ ---- -- ------<br>------- --- ------ ----- --- ---- ------- -- ---- --- --<br>------- ------,206584.79999999702,206583.90000000596,206313.788,206316.79999999702,206330.453,206597.094,,20,save
screen,html.Screen,2_1_1_1_21,2022-05-11T11:11:52.398Z,,,,,,,,,,,,,,,,,54,,,,,,,,,,,,,,312.10600000296836,,response,,,,100,,,,,,,Space,keypress(Space),,,,,,,,"-- --- ---- --- ------ ----- ------- ---- -- --- ------- --<br>------- ---------- ------ -- ----- -- ----- -- ---- money,<br>--- ----- --- --- ------ -------- ----- --- ------ ----- --<br>----- ----- ---------- --- --- ------ ------ ---- -- ------<br>------- --- ------ ----- --- ---- ------- -- ---- --- --<br>------- ------",206910.40000000596,206909.20000000298,206580.429,206584.90000000596,206597.094,206913.74,,21,"money,"
screen,html.Screen,2_1_1_1_22,2022-05-11T11:11:52.710Z,,,,,,,,,,,,,,,,,54,,,,,,,,,,,,,,307.35999999404885,,response,,,,100,,,,,,,Space,keypress(Space),,,,,,,,-- --- ---- --- ------ ----- ------- ---- -- --- ------- --<br>------- ---------- ------ -- ----- -- ----- -- ---- ------<br>the ----- --- --- ------ -------- ----- --- ------ ----- --<br>----- ----- ---------- --- --- ------ ------ ---- -- ------<br>------- --- ------ ----- --- ---- ------- -- ---- --- --<br>------- ------,207222.20000000298,207221.09999999404,206897.075,206910.5,206913.74,207230.242,,22,the
screen,html.Screen,2_1_1_1_23,2022-05-11T11:11:53.039Z,,,,,,,,,,,,,,,,,54,,,,,,,,,,,,,,320.25800000000163,,response,,,,100,,,,,,,Space,keypress(Space),,,,,,,,-- --- ---- --- ------ ----- ------- ---- -- --- ------- --<br>------- ---------- ------ -- ----- -- ----- -- ---- ------<br>--- state --- --- ------ -------- ----- --- ------ ----- --<br>----- ----- ---------- --- --- ------ ------ ---- -- ------<br>------- --- ------ ----- --- ---- ------- -- ---- --- --<br>------- ------,207551.40000000596,207550.5,207213.577,207222.40000000596,207230.242,207563.719,,23,state
screen,html.Screen,2_1_1_1_24,2022-05-11T11:11:53.344Z,,,,,,,,,,,,,,,,,54,,,,,,,,,,,,,,291.7809999999881,,response,,,,100,,,,,,,Space,keypress(Space),,,,,,,,-- --- ---- --- ------ ----- ------- ---- -- --- ------- --<br>------- ---------- ------ -- ----- -- ----- -- ---- ------<br>--- ----- cut --- ------ -------- ----- --- ------ ----- --<br>----- ----- ---------- --- --- ------ ------ ---- -- ------<br>------- --- ------ ----- --- ---- ------- -- ---- --- --<br>------- ------,207856.40000000596,207855.5,207547.054,207551.5,207563.719,207863.71,,24,cut
screen,html.Screen,2_1_1_1_25,2022-05-11T11:11:53.626Z,,,,,,,,,,,,,,,,,54,,,,,,,,,,,,,,273.9900000029884,,response,,,,100,,,,,,,Space,keypress(Space),,,,,,,,-- --- ---- --- ------ ----- ------- ---- -- --- ------- --<br>------- ---------- ------ -- ----- -- ----- -- ---- ------<br>--- ----- --- the ------ -------- ----- --- ------ ----- --<br>----- ----- ---------- --- --- ------ ------ ---- -- ------<br>------- --- ------ ----- --- ---- ------- -- ---- --- --<br>------- ------,208138.59999999404,208137.70000000298,207847.045,207856.5,207863.71,208147.027,,25,the
screen,html.Screen,2_1_1_1_26,2022-05-11T11:11:53.935Z,,,,,,,,,,,,,,,,,54,,,,,,,,,,,,,,299.2729999970179,,response,,,,100,,,,,,,Space,keypress(Space),,,,,,,,-- --- ---- --- ------ ----- ------- ---- -- --- ------- --<br>------- ---------- ------ -- ----- -- ----- -- ---- ------<br>--- ----- --- --- bonds' -------- ----- --- ------ ----- --<br>----- ----- ---------- --- --- ------ ------ ---- -- ------<br>------- --- ------ ----- --- ---- ------- -- ---- --- --<br>------- ------,208447.40000000596,208446.29999999702,208130.362,208138.79999999702,208147.027,208463.671,,26,bonds'
screen,html.Screen,2_1_1_1_27,2022-05-11T11:11:54.207Z,,,,,,,,,,,,,,,,,54,,,,,,,,,,,,,,254.72900000595837,,response,,,,100,,,,,,,Space,keypress(Space),,,,,,,,-- --- ---- --- ------ ----- ------- ---- -- --- ------- --<br>------- ---------- ------ -- ----- -- ----- -- ---- ------<br>--- ----- --- --- ------ interest ----- --- ------ ----- --<br>----- ----- ---------- --- --- ------ ------ ---- -- ------<br>------- --- ------ ----- --- ---- ------- -- ---- --- --<br>------- ------,208719.5,208718.40000000596,208447.006,208447.40000000596,208463.671,208730.438,,27,interest
screen,html.Screen,2_1_1_1_28,2022-05-11T11:11:54.537Z,,,,,,,,,,,,,,,,,54,,,,,,,,,,,,,,316.4620000059658,,response,,,,100,,,,,,,Space,keypress(Space),,,,,,,,-- --- ---- --- ------ ----- ------- ---- -- --- ------- --<br>------- ---------- ------ -- ----- -- ----- -- ---- ------<br>--- ----- --- --- ------ -------- rate. --- ------ ----- --<br>----- ----- ---------- --- --- ------ ------ ---- -- ------<br>------- --- ------ ----- --- ---- ------- -- ---- --- --<br>------- ------,209048.90000000596,209046.90000000596,208713.773,208719.59999999404,208730.438,209063.726,,28,rate.
screen,html.Screen,2_1_1_1_29,2022-05-11T11:11:54.954Z,,,,,,,,,,,,,,,,,54,,,,,,,,,,,,,,401.7740000000049,,response,,,,100,,,,,,,Space,keypress(Space),,,,,,,,-- --- ---- --- ------ ----- ------- ---- -- --- ------- --<br>------- ---------- ------ -- ----- -- ----- -- ---- ------<br>--- ----- --- --- ------ -------- ----- The ------ ----- --<br>----- ----- ---------- --- --- ------ ------ ---- -- ------<br>------- --- ------ ----- --- ---- ------- -- ---- --- --<br>------- ------,209466.5,209465.5,209047.061,209049.09999999404,209063.726,209480.253,,29,The
screen,html.Screen,2_1_1_1_30,2022-05-11T11:11:55.298Z,,,,,,,,,,,,,,,,,54,,,,,,,,,,,,,,328.747000000003,,response,,,,100,,,,,,,Space,keypress(Space),,,,,,,,-- --- ---- --- ------ ----- ------- ---- -- --- ------- --<br>------- ---------- ------ -- ----- -- ----- -- ---- ------<br>--- ----- --- --- ------ -------- ----- --- market ----- --<br>----- ----- ---------- --- --- ------ ------ ---- -- ------<br>------- --- ------ ----- --- ---- ------- -- ---- --- --<br>------- ------,209810,209809,209463.588,209466.59999999404,209480.253,209813.583,,30,market
screen,html.Screen,2_1_1_1_31,2022-05-11T11:11:55.592Z,,,,,,,,,,,,,,,,,54,,,,,,,,,,,,,,289.41699999998673,,response,,,,100,,,,,,,Space,keypress(Space),,,,,,,,-- --- ---- --- ------ ----- ------- ---- -- --- ------- --<br>------- ---------- ------ -- ----- -- ----- -- ---- ------<br>--- ----- --- --- ------ -------- ----- --- ------ value --<br>----- ----- ---------- --- --- ------ ------ ---- -- ------<br>------- --- ------ ----- --- ---- ------- -- ---- --- --<br>------- ------,210104.20000000298,210103,209796.918,209810.09999999404,209813.583,210113.587,,31,value
screen,html.Screen,2_1_1_1_32,2022-05-11T11:11:56.219Z,,,,,,,,,,,,,,,,,54,,,,,,,,,,,,,,616.2129999970202,,response,,,,100,,,,,,,Space,keypress(Space),,,,,,,,-- --- ---- --- ------ ----- ------- ---- -- --- ------- --<br>------- ---------- ------ -- ----- -- ----- -- ---- ------<br>--- ----- --- --- ------ -------- ----- --- ------ ----- of<br>----- ----- ---------- --- --- ------ ------ ---- -- ------<br>------- --- ------ ----- --- ---- ------- -- ---- --- --<br>------- ------,210730.90000000596,210729.79999999702,210096.922,210104.40000000596,210113.587,210746.895,,32,of
screen,html.Screen,2_1_1_1_33,2022-05-11T11:11:56.551Z,,,,,,,,,,,,,,,,,54,,,,,,,,,,,,,,315.1050000000105,,response,,,,100,,,,,,,Space,keypress(Space),,,,,,,,-- --- ---- --- ------ ----- ------- ---- -- --- ------- --<br>------- ---------- ------ -- ----- -- ----- -- ---- ------<br>--- ----- --- --- ------ -------- ----- --- ------ ----- --<br>these ----- ---------- --- --- ------ ------ ---- -- ------<br>------- --- ------ ----- --- ---- ------- -- ---- --- --<br>------- ------,211063.09999999404,211062,210730.23,210731.09999999404,210746.895,211080.213,,33,these
screen,html.Screen,2_1_1_1_34,2022-05-11T11:11:56.855Z,,,,,,,,,,,,,,,,,54,,,,,,,,,,,,,,286.3869999940507,,response,,,,100,,,,,,,Space,keypress(Space),,,,,,,,-- --- ---- --- ------ ----- ------- ---- -- --- ------- --<br>------- ---------- ------ -- ----- -- ----- -- ---- ------<br>--- ----- --- --- ------ -------- ----- --- ------ ----- --<br>----- bonds ---------- --- --- ------ ------ ---- -- ------<br>------- --- ------ ----- --- ---- ------- -- ---- --- --<br>------- ------,211367.70000000298,211366.59999999404,211063.548,211063.20000000298,211080.213,211380.258,,34,bonds
screen,html.Screen,2_1_1_1_35,2022-05-11T11:11:57.162Z,,,,,,,,,,,,,,,,,54,,,,,,,,,,,,,,292.8419999940379,,response,,,,100,,,,,,,Space,keypress(Space),,,,,,,,"-- --- ---- --- ------ ----- ------- ---- -- --- ------- --<br>------- ---------- ------ -- ----- -- ----- -- ---- ------<br>--- ----- --- --- ------ -------- ----- --- ------ ----- --<br>----- ----- plummeted, --- --- ------ ------ ---- -- ------<br>------- --- ------ ----- --- ---- ------- -- ---- --- --<br>------- ------",211674.09999999404,211673.09999999404,211363.593,211367.79999999702,211380.258,211680.206,,35,"plummeted,"
screen,html.Screen,2_1_1_1_36,2022-05-11T11:11:57.483Z,,,,,,,,,,,,,,,,,54,,,,,,,,,,,,,,313.89399999403395,,response,,,,100,,,,,,,Space,keypress(Space),,,,,,,,-- --- ---- --- ------ ----- ------- ---- -- --- ------- --<br>------- ---------- ------ -- ----- -- ----- -- ---- ------<br>--- ----- --- --- ------ -------- ----- --- ------ ----- --<br>----- ----- ---------- and --- ------ ------ ---- -- ------<br>------- --- ------ ----- --- ---- ------- -- ---- --- --<br>------- ------,211995.20000000298,211994.09999999404,211663.541,211674.20000000298,211680.206,211996.851,,36,and
screen,html.Screen,2_1_1_1_37,2022-05-11T11:11:57.787Z,,,,,,,,,,,,,,,,,54,,,,,,,,,,,,,,300.7489999940444,,response,,,,100,,,,,,,Space,keypress(Space),,,,,,,,-- --- ---- --- ------ ----- ------- ---- -- --- ------- --<br>------- ---------- ------ -- ----- -- ----- -- ---- ------<br>--- ----- --- --- ------ -------- ----- --- ------ ----- --<br>----- ----- ---------- --- the ------ ------ ---- -- ------<br>------- --- ------ ----- --- ---- ------- -- ---- --- --<br>------- ------,212298.70000000298,212297.59999999404,211980.186,211995.40000000596,211996.851,212313.442,,37,the
screen,html.Screen,2_1_1_1_38,2022-05-11T11:11:58.058Z,,,,,,,,,,,,,,,,,54,,,,,,,,,,,,,,255.65799999402952,,response,,,,100,,,,,,,Space,keypress(Space),,,,,,,,-- --- ---- --- ------ ----- ------- ---- -- --- ------- --<br>------- ---------- ------ -- ----- -- ----- -- ---- ------<br>--- ----- --- --- ------ -------- ----- --- ------ ----- --<br>----- ----- ---------- --- --- market ------ ---- -- ------<br>------- --- ------ ----- --- ---- ------- -- ---- --- --<br>------- ------,212569.79999999702,212569.09999999404,212296.777,212298.90000000596,212313.442,212580.288,,38,market
screen,html.Screen,2_1_1_1_39,2022-05-11T11:11:58.339Z,,,,,,,,,,,,,,,,,54,,,,,,,,,,,,,,270.0119999970193,,response,,,,100,,,,,,,Space,keypress(Space),,,,,,,,-- --- ---- --- ------ ----- ------- ---- -- --- ------- --<br>------- ---------- ------ -- ----- -- ----- -- ---- ------<br>--- ----- --- --- ------ -------- ----- --- ------ ----- --<br>----- ----- ---------- --- --- ------ became ---- -- ------<br>------- --- ------ ----- --- ---- ------- -- ---- --- --<br>------- ------,212851.20000000298,212850.29999999702,212563.623,212570.09999999404,212580.288,212863.505,,39,became
screen,html.Screen,2_1_1_1_40,2022-05-11T11:11:58.627Z,,,,,,,,,,,,,,,,,54,,,,,,,,,,,,,,274.7949999970151,,response,,,,100,,,,,,,Space,keypress(Space),,,,,,,,-- --- ---- --- ------ ----- ------- ---- -- --- ------- --<br>------- ---------- ------ -- ----- -- ----- -- ---- ------<br>--- ----- --- --- ------ -------- ----- --- ------ ----- --<br>----- ----- ---------- --- --- ------ ------ wary -- ------<br>------- --- ------ ----- --- ---- ------- -- ---- --- --<br>------- ------,213139.59999999404,213138.29999999702,212846.84,212851.40000000596,212863.505,213146.812,,40,wary
screen,html.Screen,2_1_1_1_41,2022-05-11T11:11:58.939Z,,,,,,,,,,,,,,,,,54,,,,,,,,,,,,,,302.8880000029749,,response,,,,100,,,,,,,Space,keypress(Space),,,,,,,,-- --- ---- --- ------ ----- ------- ---- -- --- ------- --<br>------- ---------- ------ -- ----- -- ----- -- ---- ------<br>--- ----- --- --- ------ -------- ----- --- ------ ----- --<br>----- ----- ---------- --- --- ------ ------ ---- of ------<br>------- --- ------ ----- --- ---- ------- -- ---- --- --<br>------- ------,213450.90000000596,213449.70000000298,213130.147,213139.90000000596,213146.812,213463.458,,41,of
screen,html.Screen,2_1_1_1_42,2022-05-11T11:11:59.243Z,,,,,,,,,,,,,,,,,54,,,,,,,,,,,,,,290.3419999970065,,response,,,,100,,,,,,,Space,keypress(Space),,,,,,,,-- --- ---- --- ------ ----- ------- ---- -- --- ------- --<br>------- ---------- ------ -- ----- -- ----- -- ---- ------<br>--- ----- --- --- ------ -------- ----- --- ------ ----- --<br>----- ----- ---------- --- --- ------ ------ ---- -- French<br>------- --- ------ ----- --- ---- ------- -- ---- --- --<br>------- ------,213755,213753.79999999702,213446.793,213450.90000000596,213463.458,213763.219,,42,French
screen,html.Screen,2_1_1_1_43,2022-05-11T11:11:59.602Z,,,,,,,,,,,,,,,,,54,,,,,,,,,,,,,,349.5809999970079,,response,,,,100,,,,,,,Space,keypress(Space),,,,,,,,-- --- ---- --- ------ ----- ------- ---- -- --- ------- --<br>------- ---------- ------ -- ----- -- ----- -- ---- ------<br>--- ----- --- --- ------ -------- ----- --- ------ ----- --<br>----- ----- ---------- --- --- ------ ------ ---- -- ------<br>credit. --- ------ ----- --- ---- ------- -- ---- --- --<br>------- ------,214114.09999999404,214112.79999999702,213746.554,213755.09999999404,213763.219,214130.184,,43,credit.
screen,html.Screen,2_1_1_1_44,2022-05-11T11:12:00.263Z,,,,,,,,,,,,,,,,,54,,,,,,,,,,,,,,643.8159999999916,,response,,,,100,,,,,,,Space,keypress(Space),,,,,,,,-- --- ---- --- ------ ----- ------- ---- -- --- ------- --<br>------- ---------- ------ -- ----- -- ----- -- ---- ------<br>--- ----- --- --- ------ -------- ----- --- ------ ----- --<br>----- ----- ---------- --- --- ------ ------ ---- -- ------<br>------- The ------ ----- --- ---- ------- -- ---- --- --<br>------- ------,214775,214774,214113.519,214114.20000000298,214130.184,214780.006,,44,The
screen,html.Screen,2_1_1_1_45,2022-05-11T11:12:00.623Z,,,,,,,,,,,,,,,,,54,,,,,,,,,,,,,,354.1940000029863,,response,,,,100,,,,,,,Space,keypress(Space),,,,,,,,-- --- ---- --- ------ ----- ------- ---- -- --- ------- --<br>------- ---------- ------ -- ----- -- ----- -- ---- ------<br>--- ----- --- --- ------ -------- ----- --- ------ ----- --<br>----- ----- ---------- --- --- ------ ------ ---- -- ------<br>------- --- French ----- --- ---- ------- -- ---- --- --<br>------- ------,215135,215134.20000000298,214763.341,214775.09999999404,214780.006,215146.675,,45,French
screen,html.Screen,2_1_1_1_46,2022-05-11T11:12:00.938Z,,,,,,,,,,,,,,,,,54,,,,,,,,,,,,,,302.32500000001164,,response,,,,100,,,,,,,Space,keypress(Space),,,,,,,,-- --- ---- --- ------ ----- ------- ---- -- --- ------- --<br>------- ---------- ------ -- ----- -- ----- -- ---- ------<br>--- ----- --- --- ------ -------- ----- --- ------ ----- --<br>----- ----- ---------- --- --- ------ ------ ---- -- ------<br>------- --- ------ state --- ---- ------- -- ---- --- --<br>------- ------,215450.20000000298,215449,215130.01,215135.09999999404,215146.675,215463.076,,46,state
screen,html.Screen,2_1_1_1_47,2022-05-11T11:12:01.295Z,,,,,,,,,,,,,,,,,54,,,,,,,,,,,,,,343.32400000595953,,response,,,,100,,,,,,,Space,keypress(Space),,,,,,,,-- --- ---- --- ------ ----- ------- ---- -- --- ------- --<br>------- ---------- ------ -- ----- -- ----- -- ---- ------<br>--- ----- --- --- ------ -------- ----- --- ------ ----- --<br>----- ----- ---------- --- --- ------ ------ ---- -- ------<br>------- --- ------ ----- was ---- ------- -- ---- --- --<br>------- ------,215807.59999999404,215806.40000000596,215446.411,215450.40000000596,215463.076,215813.059,,47,was
screen,html.Screen,2_1_1_1_48,2022-05-11T11:12:01.621Z,,,,,,,,,,,,,,,,,54,,,,,,,,,,,,,,318.64100000297185,,response,,,,100,,,,,,,Space,keypress(Space),,,,,,,,-- --- ---- --- ------ ----- ------- ---- -- --- ------- --<br>------- ---------- ------ -- ----- -- ----- -- ---- ------<br>--- ----- --- --- ------ -------- ----- --- ------ ----- --<br>----- ----- ---------- --- --- ------ ------ ---- -- ------<br>------- --- ------ ----- --- left ------- -- ---- --- --<br>------- ------,216132.90000000596,216131.70000000298,215796.394,215807.70000000298,215813.059,216146.703,,48,left
screen,html.Screen,2_1_1_1_49,2022-05-11T11:12:01.952Z,,,,,,,,,,,,,,,,,54,,,,,,,,,,,,,,316.3969999940309,,response,,,,100,,,,,,,Space,keypress(Space),,,,,,,,-- --- ---- --- ------ ----- ------- ---- -- --- ------- --<br>------- ---------- ------ -- ----- -- ----- -- ---- ------<br>--- ----- --- --- ------ -------- ----- --- ------ ----- --<br>----- ----- ---------- --- --- ------ ------ ---- -- ------<br>------- --- ------ ----- --- ---- without -- ---- --- --<br>------- ------,216463.79999999702,216463.09999999404,216130.038,216133.09999999404,216146.703,216479.778,,49,without
screen,html.Screen,2_1_1_1_50,2022-05-11T11:12:02.311Z,,,,,,,,,,,,,,,,,54,,,,,,,,,,,,,,342.4220000029891,,response,,,,100,,,,,,,Space,keypress(Space),,,,,,,,-- --- ---- --- ------ ----- ------- ---- -- --- ------- --<br>------- ---------- ------ -- ----- -- ----- -- ---- ------<br>--- ----- --- --- ------ -------- ----- --- ------ ----- --<br>----- ----- ---------- --- --- ------ ------ ---- -- ------<br>------- --- ------ ----- --- ---- ------- an ---- --- --<br>------- ------,216823.09999999404,216822.20000000298,216463.113,216464,216479.778,216829.951,,50,an
screen,html.Screen,2_1_1_1_51,2022-05-11T11:12:02.613Z,,,,,,,,,,,,,,,,,54,,,,,,,,,,,,,,294.34899999701884,,response,,,,100,,,,,,,Space,keypress(Space),,,,,,,,-- --- ---- --- ------ ----- ------- ---- -- --- ------- --<br>------- ---------- ------ -- ----- -- ----- -- ---- ------<br>--- ----- --- --- ------ -------- ----- --- ------ ----- --<br>----- ----- ---------- --- --- ------ ------ ---- -- ------<br>------- --- ------ ----- --- ---- ------- -- easy --- --<br>------- ------,217125.59999999404,217124.29999999702,216813.286,216823.20000000298,216829.951,217129.683,,51,easy
screen,html.Screen,2_1_1_1_52,2022-05-11T11:12:02.943Z,,,,,,,,,,,,,,,,,54,,,,,,,,,,,,,,324.81700000001,,response,,,,100,,,,,,,Space,keypress(Space),,,,,,,,-- --- ---- --- ------ ----- ------- ---- -- --- ------- --<br>------- ---------- ------ -- ----- -- ----- -- ---- ------<br>--- ----- --- --- ------ -------- ----- --- ------ ----- --<br>----- ----- ---------- --- --- ------ ------ ---- -- ------<br>------- --- ------ ----- --- ---- ------- -- ---- way --<br>------- ------,217455.40000000596,217454.5,217113.018,217125.79999999702,217129.683,217463.369,,52,way
screen,html.Screen,2_1_1_1_53,2022-05-11T11:12:03.288Z,,,,,,,,,,,,,,,,,54,,,,,,,,,,,,,,336.0310000059544,,response,,,,100,,,,,,,Space,keypress(Space),,,,,,,,-- --- ---- --- ------ ----- ------- ---- -- --- ------- --<br>------- ---------- ------ -- ----- -- ----- -- ---- ------<br>--- ----- --- --- ------ -------- ----- --- ------ ----- --<br>----- ----- ---------- --- --- ------ ------ ---- -- ------<br>------- --- ------ ----- --- ---- ------- -- ---- --- of<br>------- ------,217800.40000000596,217799.40000000596,217446.704,217455.59999999404,217463.369,217812.982,,53,of
screen,html.Screen,2_1_1_1_54,2022-05-11T11:12:03.678Z,,,,,,,,,,,,,,,,,54,,,,,,,,,,,,,,375.7180000029912,,response,,,,100,,,,,,,Space,keypress(Space),,,,,,,,-- --- ---- --- ------ ----- ------- ---- -- --- ------- --<br>------- ---------- ------ -- ----- -- ----- -- ---- ------<br>--- ----- --- --- ------ -------- ----- --- ------ ----- --<br>----- ----- ---------- --- --- ------ ------ ---- -- ------<br>------- --- ------ ----- --- ---- ------- -- ---- --- --<br>raising ------,218189.90000000596,218188.70000000298,217796.317,217800.5,217812.982,218196.575,,54,raising
screen,html.Screen,2_1_1_1_55,2022-05-11T11:12:04.089Z,,,,,,,,,,,,,,,,,54,,,,,,,,,,,,,,403.6250000029686,,response,,,,100,,,,,,,Space,keypress(Space),,,,,,,,-- --- ---- --- ------ ----- ------- ---- -- --- ------- --<br>------- ---------- ------ -- ----- -- ----- -- ---- ------<br>--- ----- --- --- ------ -------- ----- --- ------ ----- --<br>----- ----- ---------- --- --- ------ ------ ---- -- ------<br>------- --- ------ ----- --- ---- ------- -- ---- --- --<br>------- money.,218601,218600.20000000298,218179.91,218190,218196.575,218613.205,,55,money.
Item 100,flow.Loop,2_1_1_1,2022-05-11T11:12:04.089Z,,,,,,,,,,,,,,,,,,,,,,,,,,,,,,,20419.578000002977,,completion,,,,,C,,,,,,,,,,,silence,,,,,218601.20000000298,218600.20000000298,198163.957,198171.79999999702,198180.622,218613.205,,,
Question 1,html.Screen,2_1_1_2,2022-05-11T11:12:06.673Z,,,,,,,,,,,,,,,,,,,,,,,,,,,,true,TRUE,,2570.5949999970326,,response,,,,100,C,,,,,,TRUE,click #choice-1,,,,silence,,,,,221185.09999999404,221183.79999999702,218596.54,218601.40000000596,218613.205,221196.369,,,
Question 2,html.Screen,2_1_1_3,2022-05-11T11:12:08.770Z,,,,,,,,,,,,,,,,,,,,,,,,,,,,true,FALSE,,2084.9309999970137,,response,,,,100,C,,,,,,FALSE,click #choice-2,,,,silence,,,,,223282.29999999702,223281.29999999702,221179.704,221185.20000000298,221196.369,223296.162,,,
Item 100,flow.Sequence,2_1_1,2022-05-11T11:12:08.770Z,,,,,,,,,,,,,,,,,,,,,,,,,,,,,,,35100.07899999703,,completion,,,,,,,,,,,,,,,,,,,,,223282.5,223281.29999999702,188164.556,188167.09999999404,188181.221,223296.162,,,
End of Practice,html.Page,2_1_2,2022-05-11T11:12:12.557Z,,,,,,,,,,,,,,,,,,,,,,,,,,,,,,,3769.538000002969,,form submission,,,,,,,,,,,,,,,,,,,,,227066,227065.70000000298,223279.497,223282.59999999404,223296.162,227079.259,,,
Practice,flow.Sequence,2_1,2022-05-11T11:12:12.557Z,,,,,,,,,,,,,,,,,,,,,,,,,,,,,,,81766.10200000298,,completion,,,,,,,,,,,,,,,,,,,,,227066.09999999404,227065.70000000298,145282.933,145296.09999999404,145299.598,227079.259,,,
Trap_instruction,html.Page,2_2_0,2022-05-11T11:12:14.565Z,,,,,,,,,,,,,,,,,,,,,,,,,,,,,,,1994.241000000009,,form submission,,,,,,,,,,,,,,,,,,,,,229073.90000000596,229073.5,227062.594,227066.20000000298,227079.259,229195.923,,,
trap_trial,html.Screen,2_2_1,2022-05-11T11:12:19.201Z,,,,,,,,,,,,,,,,,,,,,,,,,,,,true,1,,4512.57699999999,,response,,,,,,,,,,,1,click #choice-1,,,,,,,,,233709.70000000298,233708.5,229062.603,229073.90000000596,229195.923,233828.674,,,
end of trap trial,html.Page,2_2_2,2022-05-11T11:12:20.825Z,,,,,,,,,,,,,,,,,,,,,,,,,,,,,,,1504.4259999940405,,form submission,,,,,,,,,,,,,,,,,,,,,235333.40000000596,235333.09999999404,233695.354,233709.90000000596,233828.674,235345.458,,,
Trap 1,flow.Sequence,2_2,2022-05-11T11:12:20.825Z,,,,,,,,,,,,,,,,,,,,,,,,,,,,,,,8253.840999994049,,completion,,,,,,,,,,,,,,,,,,,,,235333.40000000596,235333.09999999404,227062.594,227066.20000000298,227079.259,235345.458,,,
Standby,html.Page,2_3_0,2022-05-11T11:12:28.827Z,,,,,,,,,,,,,,,,,,,,,,,,,,,,,,,7999.263999999996,,timeout,,,,,,,,,,,,,,,,,,,,,243335.29999999702,243328.057,235328.793,235333.5,235345.458,243344.722,,,
Holding screen,html.Screen,2_3_1_0_0,2022-05-11T11:12:35.827Z,,,,,,,,,,,,,,,,,,,,,,,,,,,,,,,7000.207999999984,,timeout,,,,,,,,,,,,,,,,,,,,,250336.09999999404,250328.265,243328.057,243336.20000000298,243344.722,250344.93,,,
screen,html.Screen,2_3_1_0_1_0,2022-05-11T11:12:36.498Z,,,,,,,,,,,,,,,,,40,,,,,,,,,,,,,,660.8699999970268,,response,,,,9,C,,,,,,Space,keypress(Space),,,,instrumental,,,,Police -- ------- ---- ---- ---- - -------- ----- --- --<br>----- ----- ------ -- ---- -- --- - ---- -- - ----- -----<br>------ ---- ------ ---- - -------- ------- -- --- --------<br>-------- ----------- ---- ------ ---- ------ ---- --- ---<br>-------- --- -----,251006.70000000298,251005.79999999702,250328.265,250336.40000000596,250344.93,251011.678,,0,Police
screen,html.Screen,2_3_1_0_1_1,2022-05-11T11:12:36.772Z,,,,,,,,,,,,,,,,,40,,,,,,,,,,,,,,268.32199999998556,,response,,,,9,C,,,,,,Space,keypress(Space),,,,instrumental,,,,------ in ------- ---- ---- ---- - -------- ----- --- --<br>----- ----- ------ -- ---- -- --- - ---- -- - ----- -----<br>------ ---- ------ ---- - -------- ------- -- --- --------<br>-------- ----------- ---- ------ ---- ------ ---- --- ---<br>-------- --- -----,251280.90000000596,251280,250995.013,251006.90000000596,251011.678,251295.011,,1,in
screen,html.Screen,2_3_1_0_1_2,2022-05-11T11:12:37.101Z,,,,,,,,,,,,,,,,,40,,,,,,,,,,,,,,313.08899999404093,,response,,,,9,C,,,,,,Space,keypress(Space),,,,instrumental,,,,------ -- Georgia ---- ---- ---- - -------- ----- --- --<br>----- ----- ------ -- ---- -- --- - ---- -- - ----- -----<br>------ ---- ------ ---- - -------- ------- -- --- --------<br>-------- ----------- ---- ------ ---- ------ ---- --- ---<br>-------- --- -----,251609.20000000298,251608.09999999404,251278.346,251281,251295.011,251611.395,,2,Georgia
screen,html.Screen,2_3_1_0_1_3,2022-05-11T11:12:37.418Z,,,,,,,,,,,,,,,,,40,,,,,,,,,,,,,,314.50500000597094,,response,,,,9,C,,,,,,Space,keypress(Space),,,,instrumental,,,,------ -- ------- have ---- ---- - -------- ----- --- --<br>----- ----- ------ -- ---- -- --- - ---- -- - ----- -----<br>------ ---- ------ ---- - -------- ------- -- --- --------<br>-------- ----------- ---- ------ ---- ------ ---- --- ---<br>-------- --- -----,251926.79999999702,251925.90000000596,251594.73,251609.29999999702,251611.395,251928.32,,3,have
screen,html.Screen,2_3_1_0_1_4,2022-05-11T11:12:37.682Z,,,,,,,,,,,,,,,,,40,,,,,,,,,,,,,,261.5800000059535,,response,,,,9,C,,,,,,Space,keypress(Space),,,,instrumental,,,,------ -- ------- ---- shut ---- - -------- ----- --- --<br>----- ----- ------ -- ---- -- --- - ---- -- - ----- -----<br>------ ---- ------ ---- - -------- ------- -- --- --------<br>-------- ----------- ---- ------ ---- ------ ---- --- ---<br>-------- --- -----,252191.09999999404,252189.90000000596,251911.655,251927,251928.32,252194.975,,4,shut
screen,html.Screen,2_3_1_0_1_5,2022-05-11T11:12:38.005Z,,,,,,,,,,,,,,,,,40,,,,,,,,,,,,,,317.5249999999942,,response,,,,9,C,,,,,,Space,keypress(Space),,,,instrumental,,,,------ -- ------- ---- ---- down - -------- ----- --- --<br>----- ----- ------ -- ---- -- --- - ---- -- - ----- -----<br>------ ---- ------ ---- - -------- ------- -- --- --------<br>-------- ----------- ---- ------ ---- ------ ---- --- ---<br>-------- --- -----,252513.59999999404,252512.5,252178.31,252191.20000000298,252194.975,252528.242,,5,down
screen,html.Screen,2_3_1_0_1_6,2022-05-11T11:12:38.334Z,,,,,,,,,,,,,,,,,40,,,,,,,,,,,,,,313.45800000298186,,response,,,,9,C,,,,,,Space,keypress(Space),,,,instrumental,,,,------ -- ------- ---- ---- ---- a -------- ----- --- --<br>----- ----- ------ -- ---- -- --- - ---- -- - ----- -----<br>------ ---- ------ ---- - -------- ------- -- --- --------<br>-------- ----------- ---- ------ ---- ------ ---- --- ---<br>-------- --- -----,252842.59999999404,252841.70000000298,252511.577,252513.70000000298,252528.242,252844.852,,6,a
screen,html.Screen,2_3_1_0_1_7,2022-05-11T11:12:38.623Z,,,,,,,,,,,,,,,,,40,,,,,,,,,,,,,,286.04800000594696,,response,,,,9,C,,,,,,Space,keypress(Space),,,,instrumental,,,,------ -- ------- ---- ---- ---- - lemonade ----- --- --<br>----- ----- ------ -- ---- -- --- - ---- -- - ----- -----<br>------ ---- ------ ---- - -------- ------- -- --- --------<br>-------- ----------- ---- ------ ---- ------ ---- --- ---<br>-------- --- -----,253132,253130.90000000596,252828.187,252842.79999999702,252844.852,253144.897,,7,lemonade
screen,html.Screen,2_3_1_0_1_8,2022-05-11T11:12:39.013Z,,,,,,,,,,,,,,,,,40,,,,,,,,,,,,,,375.70299999404233,,response,,,,9,C,,,,,,Space,keypress(Space),,,,instrumental,,,,------ -- ------- ---- ---- ---- - -------- stand --- --<br>----- ----- ------ -- ---- -- --- - ---- -- - ----- -----<br>------ ---- ------ ---- - -------- ------- -- --- --------<br>-------- ----------- ---- ------ ---- ------ ---- --- ---<br>-------- --- -----,253521.79999999702,253520.59999999404,253128.232,253132.20000000298,253144.897,253527.987,,8,stand
screen,html.Screen,2_3_1_0_1_9,2022-05-11T11:12:39.344Z,,,,,,,,,,,,,,,,,40,,,,,,,,,,,,,,323.6129999940458,,response,,,,9,C,,,,,,Space,keypress(Space),,,,instrumental,,,,------ -- ------- ---- ---- ---- - -------- ----- run --<br>----- ----- ------ -- ---- -- --- - ---- -- - ----- -----<br>------ ---- ------ ---- - -------- ------- -- --- --------<br>-------- ----------- ---- ------ ---- ------ ---- --- ---<br>-------- --- -----,253852.29999999702,253851.59999999404,253511.322,253521.90000000596,253527.987,253861.4,,9,run
screen,html.Screen,2_3_1_0_1_10,2022-05-11T11:12:39.690Z,,,,,,,,,,,,,,,,,40,,,,,,,,,,,,,,336.3999999970256,,response,,,,9,C,,,,,,Space,keypress(Space),,,,instrumental,,,,------ -- ------- ---- ---- ---- - -------- ----- --- by<br>----- ----- ------ -- ---- -- --- - ---- -- - ----- -----<br>------ ---- ------ ---- - -------- ------- -- --- --------<br>-------- ----------- ---- ------ ---- ------ ---- --- ---<br>-------- --- -----,254198.59999999404,254197.79999999702,253844.735,253852.5,253861.4,254211.528,,10,by
screen,html.Screen,2_3_1_0_1_11,2022-05-11T11:12:40.008Z,,,,,,,,,,,,,,,,,40,,,,,,,,,,,,,,303.47200000000885,,response,,,,9,C,,,,,,Space,keypress(Space),,,,instrumental,,,,------ -- ------- ---- ---- ---- - -------- ----- --- --<br>three ----- ------ -- ---- -- --- - ---- -- - ----- -----<br>------ ---- ------ ---- - -------- ------- -- --- --------<br>-------- ----------- ---- ------ ---- ------ ---- --- ---<br>-------- --- -----,254516.29999999702,254515,254194.863,254198.79999999702,254211.528,254528.651,,11,three
screen,html.Screen,2_3_1_0_1_12,2022-05-11T11:12:40.326Z,,,,,,,,,,,,,,,,,40,,,,,,,,,,,,,,304.54900000296766,,response,,,,9,C,,,,,,Space,keypress(Space),,,,instrumental,,,,------ -- ------- ---- ---- ---- - -------- ----- --- --<br>----- girls ------ -- ---- -- --- - ---- -- - ----- -----<br>------ ---- ------ ---- - -------- ------- -- --- --------<br>-------- ----------- ---- ------ ---- ------ ---- --- ---<br>-------- --- -----,254834.40000000596,254833.20000000298,254511.986,254516.40000000596,254528.651,254844.852,,12,girls
screen,html.Screen,2_3_1_0_1_13,2022-05-11T11:12:40.619Z,,,,,,,,,,,,,,,,,40,,,,,,,,,,,,,,281.74799999402603,,response,,,,9,C,,,,,,Space,keypress(Space),,,,instrumental,,,,------ -- ------- ---- ---- ---- - -------- ----- --- --<br>----- ----- trying -- ---- -- --- - ---- -- - ----- -----<br>------ ---- ------ ---- - -------- ------- -- --- --------<br>-------- ----------- ---- ------ ---- ------ ---- --- ---<br>-------- --- -----,255127.90000000596,255126.59999999404,254828.187,254834.40000000596,254844.852,255144.69,,13,trying
screen,html.Screen,2_3_1_0_1_14,2022-05-11T11:12:40.891Z,,,,,,,,,,,,,,,,,40,,,,,,,,,,,,,,254.0100000029779,,response,,,,9,C,,,,,,Space,keypress(Space),,,,instrumental,,,,------ -- ------- ---- ---- ---- - -------- ----- --- --<br>----- ----- ------ to ---- -- --- - ---- -- - ----- -----<br>------ ---- ------ ---- - -------- ------- -- --- --------<br>-------- ----------- ---- ------ ---- ------ ---- --- ---<br>-------- --- -----,255399.5,255398.70000000298,255128.025,255128,255144.69,255411.214,,14,to
screen,html.Screen,2_3_1_0_1_15,2022-05-11T11:12:41.174Z,,,,,,,,,,,,,,,,,40,,,,,,,,,,,,,,270.68600000595325,,response,,,,9,C,,,,,,Space,keypress(Space),,,,instrumental,,,,------ -- ------- ---- ---- ---- - -------- ----- --- --<br>----- ----- ------ -- save -- --- - ---- -- - ----- -----<br>------ ---- ------ ---- - -------- ------- -- --- --------<br>-------- ----------- ---- ------ ---- ------ ---- --- ---<br>-------- --- -----,255682.90000000596,255681.90000000596,255394.549,255399.79999999702,255411.214,255694.604,,15,save
screen,html.Screen,2_3_1_0_1_16,2022-05-11T11:12:41.450Z,,,,,,,,,,,,,,,,,40,,,,,,,,,,,,,,262.59600000298815,,response,,,,9,C,,,,,,Space,keypress(Space),,,,instrumental,,,,------ -- ------- ---- ---- ---- - -------- ----- --- --<br>----- ----- ------ -- ---- up --- - ---- -- - ----- -----<br>------ ---- ------ ---- - -------- ------- -- --- --------<br>-------- ----------- ---- ------ ---- ------ ---- --- ---<br>-------- --- -----,255958.29999999702,255957.20000000298,255677.939,255683.09999999404,255694.604,255961.541,,16,up
screen,html.Screen,2_3_1_0_1_17,2022-05-11T11:12:41.752Z,,,,,,,,,,,,,,,,,40,,,,,,,,,,,,,,297.95900000000256,,response,,,,9,C,,,,,,Space,keypress(Space),,,,instrumental,,,,------ -- ------- ---- ---- ---- - -------- ----- --- --<br>----- ----- ------ -- ---- -- for - ---- -- - ----- -----<br>------ ---- ------ ---- - -------- ------- -- --- --------<br>-------- ----------- ---- ------ ---- ------ ---- --- ---<br>-------- --- -----,256260.90000000596,256259.5,255944.876,255958.40000000596,255961.541,256277.842,,17,for
screen,html.Screen,2_3_1_0_1_18,2022-05-11T11:12:42.029Z,,,,,,,,,,,,,,,,,40,,,,,,,,,,,,,,259.0580000059563,,response,,,,9,C,,,,,,Space,keypress(Space),,,,instrumental,,,,------ -- ------- ---- ---- ---- - -------- ----- --- --<br>----- ----- ------ -- ---- -- --- a ---- -- - ----- -----<br>------ ---- ------ ---- - -------- ------- -- --- --------<br>-------- ----------- ---- ------ ---- ------ ---- --- ---<br>-------- --- -----,256537.90000000596,256536.90000000596,256261.177,256261,256277.842,256544.654,,18,a
screen,html.Screen,2_3_1_0_1_19,2022-05-11T11:12:42.343Z,,,,,,,,,,,,,,,,,40,,,,,,,,,,,,,,306.0460000029707,,response,,,,9,C,,,,,,Space,keypress(Space),,,,instrumental,,,,------ -- ------- ---- ---- ---- - -------- ----- --- --<br>----- ----- ------ -- ---- -- --- - trip -- - ----- -----<br>------ ---- ------ ---- - -------- ------- -- --- --------<br>-------- ----------- ---- ------ ---- ------ ---- --- ---<br>-------- --- -----,256851.90000000596,256850.70000000298,256527.989,256538.09999999404,256544.654,256861.307,,19,trip
screen,html.Screen,2_3_1_0_1_20,2022-05-11T11:12:42.634Z,,,,,,,,,,,,,,,,,40,,,,,,,,,,,,,,280.59300000595977,,response,,,,9,C,,,,,,Space,keypress(Space),,,,instrumental,,,,------ -- ------- ---- ---- ---- - -------- ----- --- --<br>----- ----- ------ -- ---- -- --- - ---- to - ----- -----<br>------ ---- ------ ---- - -------- ------- -- --- --------<br>-------- ----------- ---- ------ ---- ------ ---- --- ---<br>-------- --- -----,257142.59999999404,257141.90000000596,256844.642,256852,256861.307,257144.755,,20,to
screen,html.Screen,2_3_1_0_1_21,2022-05-11T11:12:42.942Z,,,,,,,,,,,,,,,,,40,,,,,,,,,,,,,,305.0449999970151,,response,,,,9,C,,,,,,Space,keypress(Space),,,,instrumental,,,,------ -- ------- ---- ---- ---- - -------- ----- --- --<br>----- ----- ------ -- ---- -- --- - ---- -- a ----- -----<br>------ ---- ------ ---- - -------- ------- -- --- --------<br>-------- ----------- ---- ------ ---- ------ ---- --- ---<br>-------- --- -----,257451.09999999404,257449.79999999702,257128.09,257142.79999999702,257144.755,257461.466,,21,a
screen,html.Screen,2_3_1_0_1_22,2022-05-11T11:12:43.227Z,,,,,,,,,,,,,,,,,40,,,,,,,,,,,,,,273.43400000597467,,response,,,,9,C,,,,,,Space,keypress(Space),,,,instrumental,,,,------ -- ------- ---- ---- ---- - -------- ----- --- --<br>----- ----- ------ -- ---- -- --- - ---- -- - water -----<br>------ ---- ------ ---- - -------- ------- -- --- --------<br>-------- ----------- ---- ------ ---- ------ ---- --- ---<br>-------- --- -----,257735.90000000596,257734.90000000596,257444.801,257451.20000000298,257461.466,257744.783,,22,water
screen,html.Screen,2_3_1_0_1_23,2022-05-11T11:12:43.549Z,,,,,,,,,,,,,,,,,40,,,,,,,,,,,,,,311.51699999702396,,response,,,,9,C,,,,,,Space,keypress(Space),,,,instrumental,,,,"------ -- ------- ---- ---- ---- - -------- ----- --- --<br>----- ----- ------ -- ---- -- --- - ---- -- - ----- park,<br>------ ---- ------ ---- - -------- ------- -- --- --------<br>-------- ----------- ---- ------ ---- ------ ---- --- ---<br>-------- --- -----",258057.29999999702,258056.29999999702,257728.118,257736,257744.783,258061.342,,23,"park,"
screen,html.Screen,2_3_1_0_1_24,2022-05-11T11:12:43.892Z,,,,,,,,,,,,,,,,,40,,,,,,,,,,,,,,338.35800000297604,,response,,,,9,C,,,,,,Space,keypress(Space),,,,instrumental,,,,------ -- ------- ---- ---- ---- - -------- ----- --- --<br>----- ----- ------ -- ---- -- --- - ---- -- - ----- -----<br>saying ---- ------ ---- - -------- ------- -- --- --------<br>-------- ----------- ---- ------ ---- ------ ---- --- ---<br>-------- --- -----,258400.5,258399.70000000298,258044.677,258057.5,258061.342,258411.212,,24,saying
screen,html.Screen,2_3_1_0_1_25,2022-05-11T11:12:44.172Z,,,,,,,,,,,,,,,,,40,,,,,,,,,,,,,,268.28800000000047,,response,,,,9,C,,,,,,Space,keypress(Space),,,,instrumental,,,,------ -- ------- ---- ---- ---- - -------- ----- --- --<br>----- ----- ------ -- ---- -- --- - ---- -- - ----- -----<br>------ they ------ ---- - -------- ------- -- --- --------<br>-------- ----------- ---- ------ ---- ------ ---- --- ---<br>-------- --- -----,258680.5,258679.5,258394.547,258400.70000000298,258411.212,258694.519,,25,they
screen,html.Screen,2_3_1_0_1_26,2022-05-11T11:12:44.443Z,,,,,,,,,,,,,,,,,40,,,,,,,,,,,,,,255.98099999999977,,response,,,,9,C,,,,,,Space,keypress(Space),,,,instrumental,,,,------ -- ------- ---- ---- ---- - -------- ----- --- --<br>----- ----- ------ -- ---- -- --- - ---- -- - ----- -----<br>------ ---- didn't ---- - -------- ------- -- --- --------<br>-------- ----------- ---- ------ ---- ------ ---- --- ---<br>-------- --- -----,258951.40000000596,258950.5,258677.854,258680.59999999404,258694.519,258961.328,,26,didn't
screen,html.Screen,2_3_1_0_1_27,2022-05-11T11:12:44.719Z,,,,,,,,,,,,,,,,,40,,,,,,,,,,,,,,264.8720000029716,,response,,,,9,C,,,,,,Space,keypress(Space),,,,instrumental,,,,------ -- ------- ---- ---- ---- - -------- ----- --- --<br>----- ----- ------ -- ---- -- --- - ---- -- - ----- -----<br>------ ---- ------ have - -------- ------- -- --- --------<br>-------- ----------- ---- ------ ---- ------ ---- --- ---<br>-------- --- -----,259227.29999999702,259226.20000000298,258944.663,258951.5,258961.328,259244.375,,27,have
screen,html.Screen,2_3_1_0_1_28,2022-05-11T11:12:44.959Z,,,,,,,,,,,,,,,,,40,,,,,,,,,,,,,,222.22499999403954,,response,,,,9,C,,,,,,Space,keypress(Space),,,,instrumental,,,,------ -- ------- ---- ---- ---- - -------- ----- --- --<br>----- ----- ------ -- ---- -- --- - ---- -- - ----- -----<br>------ ---- ------ ---- a -------- ------- -- --- --------<br>-------- ----------- ---- ------ ---- ------ ---- --- ---<br>-------- --- -----,259467.5,259466.59999999404,259227.71,259227.40000000596,259244.375,259478.003,,28,a
screen,html.Screen,2_3_1_0_1_29,2022-05-11T11:12:45.234Z,,,,,,,,,,,,,,,,,40,,,,,,,,,,,,,,263.69700000298326,,response,,,,9,C,,,,,,Space,keypress(Space),,,,instrumental,,,,------ -- ------- ---- ---- ---- - -------- ----- --- --<br>----- ----- ------ -- ---- -- --- - ---- -- - ----- -----<br>------ ---- ------ ---- - business ------- -- --- --------<br>-------- ----------- ---- ------ ---- ------ ---- --- ---<br>-------- --- -----,259742.5,259741.70000000298,259461.338,259467.70000000298,259478.003,259744.363,,29,business
screen,html.Screen,2_3_1_0_1_30,2022-05-11T11:12:45.505Z,,,,,,,,,,,,,,,,,40,,,,,,,,,,,,,,268.1369999999879,,response,,,,9,C,,,,,,Space,keypress(Space),,,,instrumental,,,,------ -- ------- ---- ---- ---- - -------- ----- --- --<br>----- ----- ------ -- ---- -- --- - ---- -- - ----- -----<br>------ ---- ------ ---- - -------- license -- --- --------<br>-------- ----------- ---- ------ ---- ------ ---- --- ---<br>-------- --- -----,260013.59999999404,260012.5,259727.698,259742.59999999404,259744.363,260027.776,,30,license
screen,html.Screen,2_3_1_0_1_31,2022-05-11T11:12:45.783Z,,,,,,,,,,,,,,,,,40,,,,,,,,,,,,,,262.82399999402696,,response,,,,9,C,,,,,,Space,keypress(Space),,,,instrumental,,,,------ -- ------- ---- ---- ---- - -------- ----- --- --<br>----- ----- ------ -- ---- -- --- - ---- -- - ----- -----<br>------ ---- ------ ---- - -------- ------- or --- --------<br>-------- ----------- ---- ------ ---- ------ ---- --- ---<br>-------- --- -----,260291.59999999404,260290.59999999404,260011.111,260013.70000000298,260027.776,260294.585,,31,or
screen,html.Screen,2_3_1_0_1_32,2022-05-11T11:12:46.061Z,,,,,,,,,,,,,,,,,40,,,,,,,,,,,,,,274.3150000059686,,response,,,,9,C,,,,,,Space,keypress(Space),,,,instrumental,,,,------ -- ------- ---- ---- ---- - -------- ----- --- --<br>----- ----- ------ -- ---- -- --- - ---- -- - ----- -----<br>------ ---- ------ ---- - -------- ------- -- the --------<br>-------- ----------- ---- ------ ---- ------ ---- --- ---<br>-------- --- -----,260569.79999999702,260568.90000000596,260277.92,260291.79999999702,260294.585,260577.837,,32,the
screen,html.Screen,2_3_1_0_1_33,2022-05-11T11:12:46.367Z,,,,,,,,,,,,,,,,,40,,,,,,,,,,,,,,297.06300000596093,,response,,,,9,C,,,,,,Space,keypress(Space),,,,instrumental,,,,------ -- ------- ---- ---- ---- - -------- ----- --- --<br>----- ----- ------ -- ---- -- --- - ---- -- - ----- -----<br>------ ---- ------ ---- - -------- ------- -- --- required<br>-------- ----------- ---- ------ ---- ------ ---- --- ---<br>-------- --- -----,260875.79999999702,260874.90000000596,260561.172,260569.90000000596,260577.837,260877.898,,33,required
screen,html.Screen,2_3_1_0_1_34,2022-05-11T11:12:46.631Z,,,,,,,,,,,,,,,,,40,,,,,,,,,,,,,,260.30200000299374,,response,,,,9,C,,,,,,Space,keypress(Space),,,,instrumental,,,,------ -- ------- ---- ---- ---- - -------- ----- --- --<br>----- ----- ------ -- ---- -- --- - ---- -- - ----- -----<br>------ ---- ------ ---- - -------- ------- -- --- --------<br>permits. ----------- ---- ------ ---- ------ ---- --- ---<br>-------- --- -----,261139.20000000298,261138.20000000298,260861.233,260875.90000000596,260877.898,261144.407,,34,permits.
screen,html.Screen,2_3_1_0_1_35,2022-05-11T11:12:46.929Z,,,,,,,,,,,,,,,,,40,,,,,,,,,,,,,,292.0929999999935,,response,,,,9,C,,,,,,Space,keypress(Space),,,,instrumental,,,,------ -- ------- ---- ---- ---- - -------- ----- --- --<br>----- ----- ------ -- ---- -- --- - ---- -- - ----- -----<br>------ ---- ------ ---- - -------- ------- -- --- --------<br>-------- Morningstar ---- ------ ---- ------ ---- --- ---<br>-------- --- -----,261437.70000000298,261436.5,261127.742,261139.29999999702,261144.407,261444.263,,35,Morningstar
screen,html.Screen,2_3_1_0_1_36,2022-05-11T11:12:47.229Z,,,,,,,,,,,,,,,,,40,,,,,,,,,,,,,,292.43700000297395,,response,,,,9,C,,,,,,Space,keypress(Space),,,,instrumental,,,,------ -- ------- ---- ---- ---- - -------- ----- --- --<br>----- ----- ------ -- ---- -- --- - ---- -- - ----- -----<br>------ ---- ------ ---- - -------- ------- -- --- --------<br>-------- ----------- says ------ ---- ------ ---- --- ---<br>-------- --- -----,261737.59999999404,261736.70000000298,261427.598,261437.90000000596,261444.263,261744.409,,36,says
screen,html.Screen,2_3_1_0_1_37,2022-05-11T11:12:47.505Z,,,,,,,,,,,,,,,,,40,,,,,,,,,,,,,,268.5909999999858,,response,,,,9,C,,,,,,Space,keypress(Space),,,,instrumental,,,,------ -- ------- ---- ---- ---- - -------- ----- --- --<br>----- ----- ------ -- ---- -- --- - ---- -- - ----- -----<br>------ ---- ------ ---- - -------- ------- -- --- --------<br>-------- ----------- ---- police ---- ------ ---- --- ---<br>-------- --- -----,262013.90000000596,262013,261727.744,261737.59999999404,261744.409,262027.843,,37,police
screen,html.Screen,2_3_1_0_1_38,2022-05-11T11:12:47.788Z,,,,,,,,,,,,,,,,,40,,,,,,,,,,,,,,267.4569999970263,,response,,,,9,C,,,,,,Space,keypress(Space),,,,instrumental,,,,------ -- ------- ---- ---- ---- - -------- ----- --- --<br>----- ----- ------ -- ---- -- --- - ---- -- - ----- -----<br>------ ---- ------ ---- - -------- ------- -- --- --------<br>-------- ----------- ---- ------ also ------ ---- --- ---<br>-------- --- -----,262296.5,262295.299999997,262011.178,262014.09999999404,262027.843,262311.069,,38,also
screen,html.Screen,2_3_1_0_1_39,2022-05-11T11:12:48.107Z,,,,,,,,,,,,,,,,,40,,,,,,,,,,,,,,304.03099999402184,,response,,,,9,C,,,,,,Space,keypress(Space),,,,instrumental,,,,------ -- ------- ---- ---- ---- - -------- ----- --- --<br>----- ----- ------ -- ---- -- --- - ---- -- - ----- -----<br>------ ---- ------ ---- - -------- ------- -- --- --------<br>-------- ----------- ---- ------ ---- didn't ---- --- ---<br>-------- --- -----,262615.90000000596,262615.09999999404,262294.404,262296.700000003,262311.069,262627.701,,39,didn't
screen,html.Screen,2_3_1_0_1_40,2022-05-11T11:12:48.370Z,,,,,,,,,,,,,,,,,40,,,,,,,,,,,,,,249.59899999701884,,response,,,,9,C,,,,,,Space,keypress(Space),,,,instrumental,,,,------ -- ------- ---- ---- ---- - -------- ----- --- --<br>----- ----- ------ -- ---- -- --- - ---- -- - ----- -----<br>------ ---- ------ ---- - -------- ------- -- --- --------<br>-------- ----------- ---- ------ ---- ------ know --- ---<br>-------- --- -----,262878.299999997,262877.299999997,262611.036,262616.09999999404,262627.701,262894.335,,40,know
screen,html.Screen,2_3_1_0_1_41,2022-05-11T11:12:48.639Z,,,,,,,,,,,,,,,,,40,,,,,,,,,,,,,,252.0650000059395,,response,,,,9,C,,,,,,Space,keypress(Space),,,,instrumental,,,,------ -- ------- ---- ---- ---- - -------- ----- --- --<br>----- ----- ------ -- ---- -- --- - ---- -- - ----- -----<br>------ ---- ------ ---- - -------- ------- -- --- --------<br>-------- ----------- ---- ------ ---- ------ ---- how ---<br>-------- --- -----,263147.299999997,263146.40000000596,262877.67,262878.299999997,262894.335,263161.041,,41,how
screen,html.Screen,2_3_1_0_1_42,2022-05-11T11:12:48.939Z,,,,,,,,,,,,,,,,,40,,,,,,,,,,,,,,286.058999994013,,response,,,,9,C,,,,,,Space,keypress(Space),,,,instrumental,,,,------ -- ------- ---- ---- ---- - -------- ----- --- --<br>----- ----- ------ -- ---- -- --- - ---- -- - ----- -----<br>------ ---- ------ ---- - -------- ------- -- --- --------<br>-------- ----------- ---- ------ ---- ------ ---- --- the<br>-------- --- -----,263448,263447.09999999404,263144.376,263147.5,263161.041,263460.998,,42,the
screen,html.Screen,2_3_1_0_1_43,2022-05-11T11:12:49.222Z,,,,,,,,,,,,,,,,,40,,,,,,,,,,,,,,268.6019999940181,,response,,,,9,C,,,,,,Space,keypress(Space),,,,instrumental,,,,------ -- ------- ---- ---- ---- - -------- ----- --- --<br>----- ----- ------ -- ---- -- --- - ---- -- - ----- -----<br>------ ---- ------ ---- - -------- ------- -- --- --------<br>-------- ----------- ---- ------ ---- ------ ---- --- ---<br>lemonade --- -----,263730.299999997,263729.59999999404,263444.333,263448.200000003,263460.998,263744.31,,43,lemonade
screen,html.Screen,2_3_1_0_1_44,2022-05-11T11:12:49.582Z,,,,,,,,,,,,,,,,,40,,,,,,,,,,,,,,345.89000000298256,,response,,,,9,C,,,,,,Space,keypress(Space),,,,instrumental,,,,------ -- ------- ---- ---- ---- - -------- ----- --- --<br>----- ----- ------ -- ---- -- --- - ---- -- - ----- -----<br>------ ---- ------ ---- - -------- ------- -- --- --------<br>-------- ----------- ---- ------ ---- ------ ---- --- ---<br>-------- was -----,264090.700000003,264090.200000003,263727.645,263730.5,263744.31,264094.318,,44,was
screen,html.Screen,2_3_1_0_1_45,2022-05-11T11:12:49.923Z,,,,,,,,,,,,,,,,,40,,,,,,,,,,,,,,336.58200000593206,,response,,,,9,C,,,,,,Space,keypress(Space),,,,instrumental,,,,------ -- ------- ---- ---- ---- - -------- ----- --- --<br>----- ----- ------ -- ---- -- --- - ---- -- - ----- -----<br>------ ---- ------ ---- - -------- ------- -- --- --------<br>-------- ----------- ---- ------ ---- ------ ---- --- ---<br>-------- --- made.,264432.200000003,264430.90000000596,264077.653,264090.90000000596,264094.318,264444.11,,45,made.
Item 9,flow.Loop,2_3_1_0_1,2022-05-11T11:12:49.924Z,,,,,,,,,,,,,,,,,,,,,,,,,,,,,,,14085.970000005967,,completion,,,,,,,,,,,,,,,,,,,,,264432.40000000596,264430.90000000596,250328.265,250336.29999999702,250344.93,264444.11,,,
