sender,sender_type,sender_id,timestamp,meta,,Blues,Classical,Country,Dance,Electronic,Folk,Gospel,Hip-Hop,Jazz,Latin,Musical/Film,New-age,Pop,Prolific_id,Provo_ID,R&B,Rap,Reggae,Religious,Rock,Soul,Swing,Traditional,age,artist_name,correct,correctResponse,distraction,duration,education,ended_on,familiarity,gender,headphone_check_performance,item,list,music_frequency,offensiveness,pleasantness,position_correct,preference,response,response_action,snippet_file,song_name,song_rating,sound,stimulus_1,stimulus_2,stimulus_3,text,time_commit,time_end,time_render,time_run,time_show,time_switch,url,word,word_ID
Prolific ID,html.Form,0,2022-05-02T15:15:06.047Z,"{""labjs_version"":""20.2.2"",""labjs_build"":{""flavor"":""production"",""commit"":""a25486e0c714a0ae2ce03ff94b7bb6896854dcfa""},""location"":""https://run.pavlovia.org/mvasilev/prolific3_music_g/"",""userAgent"":""Mozilla/5.0 (Windows NT 10.0; Win64; x64) AppleWebKit/537.36 (KHTML, like Gecko) Chrome/100.0.4896.127 Safari/537.36"",""platform"":""Win32"",""language"":""en-GB"",""locale"":""en-GB"",""timeZone"":""Europe/London"",""timezoneOffset"":-60,""screen_width"":1536,""screen_height"":864,""scroll_width"":1396,""scroll_height"":608,""window_innerWidth"":1396,""window_innerHeight"":656,""devicePixelRatio"":1.375}",,,,,,,,,,,,,,,5d30559f95d88f0019378e9c,,,,,,,,,,,,,,,7940.901999976159,,form submission,,,,,,,,,,,,,,,,,,,,,21118.69999998808,21117.899999976158,13127.988,13133,13176.998,21242.064,{},,
Introduction,html.Screen,1_0,2022-05-02T15:15:21.384Z,,,,,,,,,,,,,,,,,,,,,,,,,,,,,,,15211.63599998808,,response,,,,,,,,,,,continue,click button,,,,,,,,,36455.39999997616,36453.69999998808,21108.803,21119.30000001192,21242.064,36472.378,,,
Volume calibration,html.Screen,1_1,2022-05-02T15:15:43.317Z,,,,,,,,,,,,,,,,,,,,,,,,,,,,,,,21914.52199997616,,response,,,,,,,,,,,continue,click button,,,,,,,,,58388.19999998808,58386.89999997616,36439.221,36455.59999996424,36472.378,58401.396,,,
Task instructions,html.Screen,1_2,2022-05-02T15:15:46.171Z,,,,,,,,,,,,,,,,,,,,,,,,,,,,,,,2839.4040000119203,,response,,,,,,,,,,,continue,click button,,,,,,,,,61241.80000001192,61240.80000001192,58384.717,58388.5,58401.396,61250.797,,,
Sounds,html.Screen,1_3_0_0,2022-05-02T15:15:50.416Z,,,,,,,,,,,,,,,,,,,,,,,,,,,,,,,4249.279000000002,,timeout,,,,,,,,,1,,,,,,,,S,I,O,,65487.39999997616,65483.294,61234.301,61242,61250.797,65500.076,,,
Judgement,html.Screen,1_3_0_1,2022-05-02T15:15:53.859Z,,,,,,,,,,,,,,,,,,,,,,,,,,,,true,1,,3428.823999976157,,response,,,,,,,,,1,,1,click #choice-1,,,,,S,I,O,,68930.39999997616,68928.89999997616,65483.294,65487.59999996424,65500.076,68934.228,,,
Trial,flow.Sequence,1_3_0,2022-05-02T15:15:53.861Z,,,,,,,,,,,,,,,,,,,,,,,,,,,,,,,7678.1029999761595,,completion,,,,,,,,,1,,,,,,,,S,I,O,,68932.19999998808,68928.89999997616,61234.301,61242,61250.797,68934.228,,,
Sounds,html.Screen,1_3_1_0,2022-05-02T15:15:58.096Z,,,,,,,,,,,,,,,,,,,,,,,,,,,,,,,4247.808999999994,,timeout,,,,,,,,,2,,,,,,,,O,S,I,,73167,73165.357,68915.966,68932.39999997616,68934.228,73182.037,,,
Judgement,html.Screen,1_3_1_1,2022-05-02T15:15:59.327Z,,,,,,,,,,,,,,,,,,,,,,,,,,,,true,2,,1213.9630000000034,,response,,,,,,,,,2,,2,click #choice-2,,,,,O,S,I,,74397.69999998808,74396,73165.357,73167.30000001192,73182.037,74398.24,,,
Trial,flow.Sequence,1_3_1,2022-05-02T15:15:59.328Z,,,,,,,,,,,,,,,,,,,,,,,,,,,,,,,5461.771999999997,,completion,,,,,,,,,2,,,,,,,,O,S,I,,74398.69999998808,74396,68915.966,68932.30000001192,68934.228,74398.24,,,
Sounds,html.Screen,1_3_2_0,2022-05-02T15:16:03.562Z,,,,,,,,,,,,,,,,,,,,,,,,,,,,,,,4249.187999999995,,timeout,,,,,,,,,3,,,,,,,,O,I,S,,78633.30000001192,78630.99,74381.596,74399.09999996424,74398.24,78647.428,,,
Judgement,html.Screen,1_3_2_1,2022-05-02T15:16:04.501Z,,,,,,,,,,,,,,,,,,,,,,,,,,,,true,3,,923.2719999880792,,response,,,,,,,,,3,,3,click #choice-3,,,,,O,I,S,,79572.39999997616,79570.69999998808,78630.99,78633.5,78647.428,79580.511,,,
Trial,flow.Sequence,1_3_2,2022-05-02T15:16:04.502Z,,,,,,,,,,,,,,,,,,,,,,,,,,,,,,,5172.459999988074,,completion,,,,,,,,,3,,,,,,,,O,I,S,,79572.59999996424,79570.69999998808,74381.596,74399,74398.24,79580.511,,,
Sounds,html.Screen,1_3_3_0,2022-05-02T15:16:08.743Z,,,,,,,,,,,,,,,,,,,,,,,,,,,,,,,4249.141000000003,,timeout,,,,,,,,,2,,,,,,,,I,S,O,,83814.30000001192,83813.145,79563.866,79572.80000001192,79580.511,83829.652,,,
Judgement,html.Screen,1_3_3_1,2022-05-02T15:16:09.792Z,,,,,,,,,,,,,,,,,,,,,,,,,,,,true,2,,1031.3479999999981,,response,,,,,,,,,2,,2,click #choice-2,,,,,I,S,O,,84862.59999996424,84861,83813.145,83814.5,83829.652,84862.846,,,
Trial,flow.Sequence,1_3_3,2022-05-02T15:16:09.792Z,,,,,,,,,,,,,,,,,,,,,,,,,,,,,,,5280.489000000001,,completion,,,,,,,,,2,,,,,,,,I,S,O,,84863,84861,79563.866,79572.80000001192,79580.511,84862.846,,,
Sounds,html.Screen,1_3_4_0,2022-05-02T15:16:14.026Z,,,,,,,,,,,,,,,,,,,,,,,,,,,,,,,4249.284,,timeout,,,,,,,,,1,,,,,,,,S,O,I,,89097.30000001192,89095.295,84846.402,84863.5,84862.846,89112.13,,,
Judgement,html.Screen,1_3_4_1,2022-05-02T15:16:14.903Z,,,,,,,,,,,,,,,,,,,,,,,,,,,,true,1,,860.5699999880744,,response,,,,,,,,,1,,1,click #choice-1,,,,,S,O,I,,89974,89972.69999998808,89095.295,89097.5,89112.13,89979.565,,,
Trial,flow.Sequence,1_3_4,2022-05-02T15:16:14.903Z,,,,,,,,,,,,,,,,,,,,,,,,,,,,,,,5109.853999988074,,completion,,,,,,,,,1,,,,,,,,S,O,I,,89974.30000001192,89972.69999998808,84846.402,84863.19999998808,84862.846,89979.565,,,
Sounds,html.Screen,1_3_5_0,2022-05-02T15:16:19.141Z,,,,,,,,,,,,,,,,,,,,,,,,,,,,,,,4248.114999999991,,timeout,,,,,,,,,3,,,,,,,,I,O,S,,94212.09999996424,94211.073,89962.056,89974.5,89979.565,94227.68,,,
Judgement,html.Screen,1_3_5_1,2022-05-02T15:16:19.951Z,,,,,,,,,,,,,,,,,,,,,,,,,,,,true,3,,792.9199999642442,,response,,,,,,,,,3,,3,click #choice-3,,,,,I,O,S,,95022.39999997616,95020.59999996424,94211.073,94212.19999998808,94227.68,95028.834,,,
Trial,flow.Sequence,1_3_5,2022-05-02T15:16:19.953Z,,,,,,,,,,,,,,,,,,,,,,,,,,,,,,,5041.034999964235,,completion,,,,,,,,,3,,,,,,,,I,O,S,,95023.59999996424,95020.59999996424,89962.056,89974.39999997616,89979.565,95028.834,,,
Task,flow.Loop,1_3,2022-05-02T15:16:19.960Z,,,,,,,,,,,,,,,,,,,,,,,,,,,,,,,33769.80299996424,,completion,,,1,,,,,,,,,,,,,,,,,,95031.39999997616,95020.59999996424,61234.301,61242,61250.797,95028.834,,,
Trap,html.Screen,1_4,2022-05-02T15:16:19.962Z,,,,,,,,,,,,,,,,,,,,,,,,,,,,,,,NaN,,skipped,,,,,,,,,,,,,,,,,,,,,95033.09999996424,95020.59999996424,,95032.80000001192,,95028.834,,,
Thanks,html.Screen,1_5,2022-05-02T15:16:26.242Z,,,,,,,,,,,,,,,,,,,,,,,,,,,,,,,6283.466000011918,,response,,,,,,,,,,,continue,click button,,,,,,,,,101313.30000001192,101312.30000001192,95010.962,95033.30000001192,95028.834,104208.938,,,
Headphone screening,flow.Sequence,1,2022-05-02T15:16:26.242Z,,,,,,,,,,,,,,,,,,,,,,,,,,,,,,,80070.23600001192,,completion,,,,,,,,,,,,,,,,,,,,,101313.5,101312.30000001192,21108.803,21119.19999998808,21242.064,104208.938,,,
Instructions,html.Page,2_0,2022-05-02T15:16:49.460Z,,,,,,,,,,,,,,,,,,,,,,,,,,,,,,,20321.862000011926,,form submission,,,,,,,,,,,,,,,,,,,,,124531.09999996424,124530.80000001192,104175.603,104207.30000001192,104208.938,124554.921,,,
Holding screen,html.Screen,2_1_0_0,2022-05-02T15:16:59.466Z,,,,,,,,,,,,,,,,,,,,,,,,,,,,,,,10081.464999999997,,timeout,,,,,,,,,,,,,,,,,,,,,134537.39999997616,134536.531,124538.233,124531.39999997616,124554.921,134636.386,,,
screen,html.Screen,2_1_0_1_0,2022-05-02T15:17:00.482Z,,,,,,,,,,,,,,,,,53,,,,,,,,,,,,,,913.7139999642386,,response,,,,99,,,,,,,Space,keypress(Space),,,,,,,,When -- ----- -- ------ - ------- --- ----------<br>------------- ------ ------ ---- ---- ------- ----- -- ----<br>-------- ------- -- ---------- --- - --- ----- ----- ----<br>---- --- --- ----- --- ---- ---- ------- ----- ---- -------<br>--- --- -- ----- -- --- ---- -- --- ---- -- ------ ------<br>--- ----- -- ----,135553,135550.09999996424,134536.531,134537.59999996424,134636.386,135569.602,,0,When
screen,html.Screen,2_1_0_1_1,2022-05-02T15:17:00.932Z,,,,,,,,,,,,,,,,,53,,,,,,,,,,,,,,432.29799997614464,,response,,,,99,,,,,,,Space,keypress(Space),,,,,,,,---- it ----- -- ------ - ------- --- ----------<br>------------- ------ ------ ---- ---- ------- ----- -- ----<br>-------- ------- -- ---------- --- - --- ----- ----- ----<br>---- --- --- ----- --- ---- ---- ------- ----- ---- -------<br>--- --- -- ----- -- --- ---- -- --- ---- -- ------ ------<br>--- ----- -- ----,136003.19999998808,136001.89999997616,135552.861,135553.19999998808,135569.602,136019.463,,1,it
screen,html.Screen,2_1_0_1_2,2022-05-02T15:17:01.366Z,,,,,,,,,,,,,,,,,53,,,,,,,,,,,,,,417.1369999642484,,response,,,,99,,,,,,,Space,keypress(Space),,,,,,,,---- -- comes -- ------ - ------- --- ----------<br>------------- ------ ------ ---- ---- ------- ----- -- ----<br>-------- ------- -- ---------- --- - --- ----- ----- ----<br>---- --- --- ----- --- ---- ---- ------- ----- ---- -------<br>--- --- -- ----- -- --- ---- -- --- ---- -- ------ ------<br>--- ----- -- ----,136437.59999996424,136436.59999996424,136002.977,136003.30000001192,136019.463,136452.855,,2,comes
screen,html.Screen,2_1_0_1_3,2022-05-02T15:17:01.895Z,,,,,,,,,,,,,,,,,53,,,,,,,,,,,,,,512.0449999761477,,response,,,,99,,,,,,,Space,keypress(Space),,,,,,,,---- -- ----- to ------ - ------- --- ----------<br>------------- ------ ------ ---- ---- ------- ----- -- ----<br>-------- ------- -- ---------- --- - --- ----- ----- ----<br>---- --- --- ----- --- ---- ---- ------- ----- ---- -------<br>--- --- -- ----- -- --- ---- -- --- ---- -- ------ ------<br>--- ----- -- ----,136966.19999998808,136964.89999997616,136436.22,136437.69999998808,136452.855,136986.012,,3,to
screen,html.Screen,2_1_0_1_4,2022-05-02T15:17:02.331Z,,,,,,,,,,,,,,,,,53,,,,,,,,,,,,,,414.9880000000121,,response,,,,99,,,,,,,Space,keypress(Space),,,,,,,,---- -- ----- -- having - ------- --- ----------<br>------------- ------ ------ ---- ---- ------- ----- -- ----<br>-------- ------- -- ---------- --- - --- ----- ----- ----<br>---- --- --- ----- --- ---- ---- ------- ----- ---- -------<br>--- --- -- ----- -- --- ---- -- --- ---- -- ------ ------<br>--- ----- -- ----,137401.80000001192,137401,136969.682,136966.30000001192,136986.012,137435.732,,4,having
screen,html.Screen,2_1_0_1_5,2022-05-02T15:17:02.742Z,,,,,,,,,,,,,,,,,53,,,,,,,,,,,,,,375.86799996424816,,response,,,,99,,,,,,,Space,keypress(Space),,,,,,,,---- -- ----- -- ------ a ------- --- ----------<br>------------- ------ ------ ---- ---- ------- ----- -- ----<br>-------- ------- -- ---------- --- - --- ----- ----- ----<br>---- --- --- ----- --- ---- ---- ------- ----- ---- -------<br>--- --- -- ----- -- --- ---- -- --- ---- -- ------ ------<br>--- ----- -- ----,137812.69999998808,137811.59999996424,137419.042,137402,137435.732,137819.829,,5,a
screen,html.Screen,2_1_0_1_6,2022-05-02T15:17:03.230Z,,,,,,,,,,,,,,,,,53,,,,,,,,,,,,,,479.971000011923,,response,,,,99,,,,,,,Space,keypress(Space),,,,,,,,---- -- ----- -- ------ - lasting --- ----------<br>------------- ------ ------ ---- ---- ------- ----- -- ----<br>-------- ------- -- ---------- --- - --- ----- ----- ----<br>---- --- --- ----- --- ---- ---- ------- ----- ---- -------<br>--- --- -- ----- -- --- ---- -- --- ---- -- ------ ------<br>--- ----- -- ----,138300.89999997616,138299.80000001192,137802.345,137812.80000001192,137819.829,138319.26,,6,lasting
screen,html.Screen,2_1_0_1_7,2022-05-02T15:17:03.620Z,,,,,,,,,,,,,,,,,53,,,,,,,,,,,,,,370.8399999642279,,response,,,,99,,,,,,,Space,keypress(Space),,,,,,,,---- -- ----- -- ------ - ------- and ----------<br>------------- ------ ------ ---- ---- ------- ----- -- ----<br>-------- ------- -- ---------- --- - --- ----- ----- ----<br>---- --- --- ----- --- ---- ---- ------- ----- ---- -------<br>--- --- -- ----- -- --- ---- -- --- ---- -- ------ ------<br>--- ----- -- ----,138690.89999997616,138690.09999996424,138304.8,138301.09999996424,138319.26,138702.394,,7,and
screen,html.Screen,2_1_0_1_8,2022-05-02T15:17:04.045Z,,,,,,,,,,,,,,,,,53,,,,,,,,,,,,,,412.5059999761579,,response,,,,99,,,,,,,Space,keypress(Space),,,,,,,,---- -- ----- -- ------ - ------- --- fulfilling<br>------------- ------ ------ ---- ---- ------- ----- -- ----<br>-------- ------- -- ---------- --- - --- ----- ----- ----<br>---- --- --- ----- --- ---- ---- ------- ----- ---- -------<br>--- --- -- ----- -- --- ---- -- --- ---- -- ------ ------<br>--- ----- -- ----,139115.89999997616,139114.89999997616,138685.775,138691.09999996424,138702.394,139118.686,,8,fulfilling
screen,html.Screen,2_1_0_1_9,2022-05-02T15:17:04.762Z,,,,,,,,,,,,,,,,,53,,,,,,,,,,,,,,713.4139999642503,,response,,,,99,,,,,,,Space,keypress(Space),,,,,,,,"---- -- ----- -- ------ - ------- --- ----------<br>relationship, ------ ------ ---- ---- ------- ----- -- ----<br>-------- ------- -- ---------- --- - --- ----- ----- ----<br>---- --- --- ----- --- ---- ---- ------- ----- ---- -------<br>--- --- -- ----- -- --- ---- -- --- ---- -- ------ ------<br>--- ----- -- ----",139832.89999997616,139832.09999996424,139102.342,139116.09999996424,139118.686,139835.322,,9,"relationship,"
screen,html.Screen,2_1_0_1_10,2022-05-02T15:17:05.184Z,,,,,,,,,,,,,,,,,53,,,,,,,,,,,,,,418.97800001193536,,response,,,,99,,,,,,,Space,keypress(Space),,,,,,,,---- -- ----- -- ------ - ------- --- ----------<br>------------- common ------ ---- ---- ------- ----- -- ----<br>-------- ------- -- ---------- --- - --- ----- ----- ----<br>---- --- --- ----- --- ---- ---- ------- ----- ---- -------<br>--- --- -- ----- -- --- ---- -- --- ---- -- ------ ------<br>--- ----- -- ----,140255.39999997616,140254.30000001192,139818.942,139833,139835.322,140268.757,,10,common
screen,html.Screen,2_1_0_1_11,2022-05-02T15:17:05.602Z,,,,,,,,,,,,,,,,,53,,,,,,,,,,,,,,403.74299999998766,,response,,,,99,,,,,,,Space,keypress(Space),,,,,,,,---- -- ----- -- ------ - ------- --- ----------<br>------------- ------ wisdom ---- ---- ------- ----- -- ----<br>-------- ------- -- ---------- --- - --- ----- ----- ----<br>---- --- --- ----- --- ---- ---- ------- ----- ---- -------<br>--- --- -- ----- -- --- ---- -- --- ---- -- ------ ------<br>--- ----- -- ----,140673.30000001192,140672.5,140252.146,140255.5,140268.757,140685.177,,11,wisdom
screen,html.Screen,2_1_0_1_12,2022-05-02T15:17:05.952Z,,,,,,,,,,,,,,,,,53,,,,,,,,,,,,,,336.92299996424117,,response,,,,99,,,,,,,Space,keypress(Space),,,,,,,,---- -- ----- -- ------ - ------- --- ----------<br>------------- ------ ------ says ---- ------- ----- -- ----<br>-------- ------- -- ---------- --- - --- ----- ----- ----<br>---- --- --- ----- --- ---- ---- ------- ----- ---- -------<br>--- --- -- ----- -- --- ---- -- --- ---- -- ------ ------<br>--- ----- -- ----,141023.09999996424,141022.09999996424,140668.704,140673.39999997616,140685.177,141035.288,,12,says
screen,html.Screen,2_1_0_1_13,2022-05-02T15:17:06.297Z,,,,,,,,,,,,,,,,,53,,,,,,,,,,,,,,331.81199996423675,,response,,,,99,,,,,,,Space,keypress(Space),,,,,,,,---- -- ----- -- ------ - ------- --- ----------<br>------------- ------ ------ ---- that ------- ----- -- ----<br>-------- ------- -- ---------- --- - --- ----- ----- ----<br>---- --- --- ----- --- ---- ---- ------- ----- ---- -------<br>--- --- -- ----- -- --- ---- -- --- ---- -- ------ ------<br>--- ----- -- ----,141368.39999997616,141367.09999996424,141018.465,141023.19999998808,141035.288,141385.28,,13,that
screen,html.Screen,2_1_0_1_14,2022-05-02T15:17:06.739Z,,,,,,,,,,,,,,,,,53,,,,,,,,,,,,,,424.22000000000116,,response,,,,99,,,,,,,Space,keypress(Space),,,,,,,,---- -- ----- -- ------ - ------- --- ----------<br>------------- ------ ------ ---- ---- feeling ----- -- ----<br>-------- ------- -- ---------- --- - --- ----- ----- ----<br>---- --- --- ----- --- ---- ---- ------- ----- ---- -------<br>--- --- -- ----- -- --- ---- -- --- ---- -- ------ ------<br>--- ----- -- ----,141810.39999997616,141809.5,141368.287,141368.5,141385.28,141818.206,,14,feeling
screen,html.Screen,2_1_0_1_15,2022-05-02T15:17:06.958Z,,,,,,,,,,,,,,,,,53,,,,,,,,,,,,,,209.89399996423163,,response,,,,99,,,,,,,Space,keypress(Space),,,,,,,,---- -- ----- -- ------ - ------- --- ----------<br>------------- ------ ------ ---- ---- ------- close -- ----<br>-------- ------- -- ---------- --- - --- ----- ----- ----<br>---- --- --- ----- --- ---- ---- ------- ----- ---- -------<br>--- --- -- ----- -- --- ---- -- --- ---- -- ------ ------<br>--- ----- -- ----,142028.80000001192,142028.09999996424,141801.848,141810.59999996424,141818.206,142034.826,,15,close
screen,html.Screen,2_1_0_1_16,2022-05-02T15:17:07.293Z,,,,,,,,,,,,,,,,,53,,,,,,,,,,,,,,328.47400001192,,response,,,,99,,,,,,,Space,keypress(Space),,,,,,,,---- -- ----- -- ------ - ------- --- ----------<br>------------- ------ ------ ---- ---- ------- ----- to ----<br>-------- ------- -- ---------- --- - --- ----- ----- ----<br>---- --- --- ----- --- ---- ---- ------- ----- ---- -------<br>--- --- -- ----- -- --- ---- -- --- ---- -- ------ ------<br>--- ----- -- ----,142364.59999996424,142363.30000001192,142018.141,142028.89999997616,142034.826,142368.228,,16,to
screen,html.Screen,2_1_0_1_17,2022-05-02T15:17:07.543Z,,,,,,,,,,,,,,,,,53,,,,,,,,,,,,,,244.57200001191813,,response,,,,99,,,,,,,Space,keypress(Space),,,,,,,,---- -- ----- -- ------ - ------- --- ----------<br>------------- ------ ------ ---- ---- ------- ----- -- your<br>-------- ------- -- ---------- --- - --- ----- ----- ----<br>---- --- --- ----- --- ---- ---- ------- ----- ---- -------<br>--- --- -- ----- -- --- ---- -- --- ---- -- ------ ------<br>--- ----- -- ----,142613.69999998808,142612.80000001192,142351.733,142364.69999998808,142368.228,142617.986,,17,your
screen,html.Screen,2_1_0_1_18,2022-05-02T15:17:08.034Z,,,,,,,,,,,,,,,,,53,,,,,,,,,,,,,,486.4139999761537,,response,,,,99,,,,,,,Space,keypress(Space),,,,,,,,---- -- ----- -- ------ - ------- --- ----------<br>------------- ------ ------ ---- ---- ------- ----- -- ----<br>romantic ------- -- ---------- --- - --- ----- ----- ----<br>---- --- --- ----- --- ---- ---- ------- ----- ---- -------<br>--- --- -- ----- -- --- ---- -- --- ---- -- ------ ------<br>--- ----- -- ----,143105.19999998808,143104.39999997616,142601.638,142613.89999997616,142617.986,143117.956,,18,romantic
screen,html.Screen,2_1_0_1_19,2022-05-02T15:17:08.505Z,,,,,,,,,,,,,,,,,53,,,,,,,,,,,,,,457.0439999999944,,response,,,,99,,,,,,,Space,keypress(Space),,,,,,,,---- -- ----- -- ------ - ------- --- ----------<br>------------- ------ ------ ---- ---- ------- ----- -- ----<br>-------- partner -- ---------- --- - --- ----- ----- ----<br>---- --- --- ----- --- ---- ---- ------- ----- ---- -------<br>--- --- -- ----- -- --- ---- -- --- ---- -- ------ ------<br>--- ----- -- ----,143575.80000001192,143575,143101.444,143105.39999997616,143117.956,143584.765,,19,partner
screen,html.Screen,2_1_0_1_20,2022-05-02T15:17:08.827Z,,,,,,,,,,,,,,,,,53,,,,,,,,,,,,,,312.53500001190696,,response,,,,99,,,,,,,Space,keypress(Space),,,,,,,,---- -- ----- -- ------ - ------- --- ----------<br>------------- ------ ------ ---- ---- ------- ----- -- ----<br>-------- ------- is ---------- --- - --- ----- ----- ----<br>---- --- --- ----- --- ---- ---- ------- ----- ---- -------<br>--- --- -- ----- -- --- ---- -- --- ---- -- ------ ------<br>--- ----- -- ----,143898.69999998808,143897.30000001192,143568.132,143576,143584.765,143917.761,,20,is
screen,html.Screen,2_1_0_1_21,2022-05-02T15:17:09.093Z,,,,,,,,,,,,,,,,,53,,,,,,,,,,,,,,245.53900001192233,,response,,,,99,,,,,,,Space,keypress(Space),,,,,,,,---- -- ----- -- ------ - ------- --- ----------<br>------------- ------ ------ ---- ---- ------- ----- -- ----<br>-------- ------- -- paramount. --- - --- ----- ----- ----<br>---- --- --- ----- --- ---- ---- ------- ----- ---- -------<br>--- --- -- ----- -- --- ---- -- --- ---- -- ------ ------<br>--- ----- -- ----,144164,144163.30000001192,143901.847,143898.69999998808,143917.761,144167.699,,21,paramount.
screen,html.Screen,2_1_0_1_22,2022-05-02T15:17:09.639Z,,,,,,,,,,,,,,,,,53,,,,,,,,,,,,,,540.8010000000068,,response,,,,99,,,,,,,Space,keypress(Space),,,,,,,,---- -- ----- -- ------ - ------- --- ----------<br>------------- ------ ------ ---- ---- ------- ----- -- ----<br>-------- ------- -- ---------- But - --- ----- ----- ----<br>---- --- --- ----- --- ---- ---- ------- ----- ---- -------<br>--- --- -- ----- -- --- ---- -- --- ---- -- ------ ------<br>--- ----- -- ----,144709.80000001192,144708.5,144151.092,144164.19999998808,144167.699,144717.797,,22,But
screen,html.Screen,2_1_0_1_23,2022-05-02T15:17:09.894Z,,,,,,,,,,,,,,,,,53,,,,,,,,,,,,,,246.40299998808769,,response,,,,99,,,,,,,Space,keypress(Space),,,,,,,,---- -- ----- -- ------ - ------- --- ----------<br>------------- ------ ------ ---- ---- ------- ----- -- ----<br>-------- ------- -- ---------- --- a --- ----- ----- ----<br>---- --- --- ----- --- ---- ---- ------- ----- ---- -------<br>--- --- -- ----- -- --- ---- -- --- ---- -- ------ ------<br>--- ----- -- ----,144965.09999996424,144964.19999998808,144701.248,144710,144717.797,144967.521,,23,a
screen,html.Screen,2_1_0_1_24,2022-05-02T15:17:10.127Z,,,,,,,,,,,,,,,,,53,,,,,,,,,,,,,,230.0789999642293,,response,,,,99,,,,,,,Space,keypress(Space),,,,,,,,---- -- ----- -- ------ - ------- --- ----------<br>------------- ------ ------ ---- ---- ------- ----- -- ----<br>-------- ------- -- ---------- --- - new ----- ----- ----<br>---- --- --- ----- --- ---- ---- ------- ----- ---- -------<br>--- --- -- ----- -- --- ---- -- --- ---- -- ------ ------<br>--- ----- -- ----,145198.59999996424,145197.59999996424,144950.901,144965.30000001192,144967.521,145200.827,,24,new
screen,html.Screen,2_1_0_1_25,2022-05-02T15:17:10.374Z,,,,,,,,,,,,,,,,,53,,,,,,,,,,,,,,243.4730000119307,,response,,,,99,,,,,,,Space,keypress(Space),,,,,,,,---- -- ----- -- ------ - ------- --- ----------<br>------------- ------ ------ ---- ---- ------- ----- -- ----<br>-------- ------- -- ---------- --- - --- study ----- ----<br>---- --- --- ----- --- ---- ---- ------- ----- ---- -------<br>--- --- -- ----- -- --- ---- -- --- ---- -- ------ ------<br>--- ----- -- ----,145445.39999997616,145444.30000001192,145184.455,145198.89999997616,145200.827,145450.972,,25,study
screen,html.Screen,2_1_0_1_26,2022-05-02T15:17:10.674Z,,,,,,,,,,,,,,,,,53,,,,,,,,,,,,,,293.2279999880702,,response,,,,99,,,,,,,Space,keypress(Space),,,,,,,,---- -- ----- -- ------ - ------- --- ----------<br>------------- ------ ------ ---- ---- ------- ----- -- ----<br>-------- ------- -- ---------- --- - --- ----- finds ----<br>---- --- --- ----- --- ---- ---- ------- ----- ---- -------<br>--- --- -- ----- -- --- ---- -- --- ---- -- ------ ------<br>--- ----- -- ----,145745.39999997616,145744.19999998808,145434.282,145445.59999996424,145450.972,145752.065,,26,finds
screen,html.Screen,2_1_0_1_27,2022-05-02T15:17:10.986Z,,,,,,,,,,,,,,,,,53,,,,,,,,,,,,,,304.13499998807674,,response,,,,99,,,,,,,Space,keypress(Space),,,,,,,,---- -- ----- -- ------ - ------- --- ----------<br>------------- ------ ------ ---- ---- ------- ----- -- ----<br>-------- ------- -- ---------- --- - --- ----- ----- that<br>---- --- --- ----- --- ---- ---- ------- ----- ---- -------<br>--- --- -- ----- -- --- ---- -- --- ---- -- ------ ------<br>--- ----- -- ----,146057.09999996424,146056.19999998808,145734.642,145745.5,145752.065,146067.605,,27,that
screen,html.Screen,2_1_0_1_28,2022-05-02T15:17:11.270Z,,,,,,,,,,,,,,,,,53,,,,,,,,,,,,,,273.0949999880686,,response,,,,99,,,,,,,Space,keypress(Space),,,,,,,,---- -- ----- -- ------ - ------- --- ----------<br>------------- ------ ------ ---- ---- ------- ----- -- ----<br>-------- ------- -- ---------- --- - --- ----- ----- ----<br>it's --- --- ----- --- ---- ---- ------- ----- ---- -------<br>--- --- -- ----- -- --- ---- -- --- ---- -- ------ ------<br>--- ----- -- ----,146341.69999998808,146340.69999998808,146050.969,146057.19999998808,146067.605,146350.93,,28,it's
screen,html.Screen,2_1_0_1_29,2022-05-02T15:17:11.532Z,,,,,,,,,,,,,,,,,53,,,,,,,,,,,,,,250.6699999642442,,response,,,,99,,,,,,,Space,keypress(Space),,,,,,,,---- -- ----- -- ------ - ------- --- ----------<br>------------- ------ ------ ---- ---- ------- ----- -- ----<br>-------- ------- -- ---------- --- - --- ----- ----- ----<br>---- not --- ----- --- ---- ---- ------- ----- ---- -------<br>--- --- -- ----- -- --- ---- -- --- ---- -- ------ ------<br>--- ----- -- ----,146603,146601.59999996424,146334.234,146341.80000001192,146350.93,146617.522,,29,not
screen,html.Screen,2_1_0_1_30,2022-05-02T15:17:11.769Z,,,,,,,,,,,,,,,,,53,,,,,,,,,,,,,,221.67799998808187,,response,,,,99,,,,,,,Space,keypress(Space),,,,,,,,---- -- ----- -- ------ - ------- --- ----------<br>------------- ------ ------ ---- ---- ------- ----- -- ----<br>-------- ------- -- ---------- --- - --- ----- ----- ----<br>---- --- how ----- --- ---- ---- ------- ----- ---- -------<br>--- --- -- ----- -- --- ---- -- --- ---- -- ------ ------<br>--- ----- -- ----,146840,146839.19999998808,146600.578,146603,146617.522,146850.672,,30,how
screen,html.Screen,2_1_0_1_31,2022-05-02T15:17:12.016Z,,,,,,,,,,,,,,,,,53,,,,,,,,,,,,,,234.72799997616676,,response,,,,99,,,,,,,Space,keypress(Space),,,,,,,,---- -- ----- -- ------ - ------- --- ----------<br>------------- ------ ------ ---- ---- ------- ----- -- ----<br>-------- ------- -- ---------- --- - --- ----- ----- ----<br>---- --- --- close --- ---- ---- ------- ----- ---- -------<br>--- --- -- ----- -- --- ---- -- --- ---- -- ------ ------<br>--- ----- -- ----,147086.69999998808,147085.39999997616,146834.107,146840.19999998808,146850.672,147100.683,,31,close
screen,html.Screen,2_1_0_1_32,2022-05-02T15:17:12.264Z,,,,,,,,,,,,,,,,,53,,,,,,,,,,,,,,233.11700001193094,,response,,,,99,,,,,,,Space,keypress(Space),,,,,,,,---- -- ----- -- ------ - ------- --- ----------<br>------------- ------ ------ ---- ---- ------- ----- -- ----<br>-------- ------- -- ---------- --- - --- ----- ----- ----<br>---- --- --- ----- you ---- ---- ------- ----- ---- -------<br>--- --- -- ----- -- --- ---- -- --- ---- -- ------ ------<br>--- ----- -- ----,147334.69999998808,147333.80000001192,147084.097,147086.89999997616,147100.683,147350.73,,32,you
screen,html.Screen,2_1_0_1_33,2022-05-02T15:17:12.490Z,,,,,,,,,,,,,,,,,53,,,,,,,,,,,,,,209.16999997614766,,response,,,,99,,,,,,,Space,keypress(Space),,,,,,,,---- -- ----- -- ------ - ------- --- ----------<br>------------- ------ ------ ---- ---- ------- ----- -- ----<br>-------- ------- -- ---------- --- - --- ----- ----- ----<br>---- --- --- ----- --- feel ---- ------- ----- ---- -------<br>--- --- -- ----- -- --- ---- -- --- ---- -- ------ ------<br>--- ----- -- ----,147561.30000001192,147559.89999997616,147334.02,147334.89999997616,147350.73,147568.211,,33,feel
screen,html.Screen,2_1_0_1_34,2022-05-02T15:17:12.761Z,,,,,,,,,,,,,,,,,53,,,,,,,,,,,,,,262.4889999880688,,response,,,,99,,,,,,,Space,keypress(Space),,,,,,,,---- -- ----- -- ------ - ------- --- ----------<br>------------- ------ ------ ---- ---- ------- ----- -- ----<br>-------- ------- -- ---------- --- - --- ----- ----- ----<br>---- --- --- ----- --- ---- that ------- ----- ---- -------<br>--- --- -- ----- -- --- ---- -- --- ---- -- ------ ------<br>--- ----- -- ----,147832,147830.69999998808,147550.476,147561.5,147568.211,147850.627,,34,that
screen,html.Screen,2_1_0_1_35,2022-05-02T15:17:13.287Z,,,,,,,,,,,,,,,,,53,,,,,,,,,,,,,,506.3729999999923,,response,,,,99,,,,,,,Space,keypress(Space),,,,,,,,---- -- ----- -- ------ - ------- --- ----------<br>------------- ------ ------ ---- ---- ------- ----- -- ----<br>-------- ------- -- ---------- --- - --- ----- ----- ----<br>---- --- --- ----- --- ---- ---- matters ----- ---- -------<br>--- --- -- ----- -- --- ---- -- --- ---- -- ------ ------<br>--- ----- -- ----,148357.89999997616,148357,147834.702,147832.09999996424,147850.627,148366.833,,35,matters
screen,html.Screen,2_1_0_1_36,2022-05-02T15:17:14.353Z,,,,,,,,,,,,,,,,,53,,,,,,,,,,,,,,1056.0669999761449,,response,,,,99,,,,,,,Space,keypress(Space),,,,,,,,"---- -- ----- -- ------ - ------- --- ----------<br>------------- ------ ------ ---- ---- ------- ----- -- ----<br>-------- ------- -- ---------- --- - --- ----- ----- ----<br>---- --- --- ----- --- ---- ---- ------- most, ---- -------<br>--- --- -- ----- -- --- ---- -- --- ---- -- ------ ------<br>--- ----- -- ----",149423.80000001192,149422.89999997616,148350.543,148358.19999998808,148366.833,149433.293,,36,"most,"
screen,html.Screen,2_1_0_1_37,2022-05-02T15:17:14.680Z,,,,,,,,,,,,,,,,,53,,,,,,,,,,,,,,317.106999976153,,response,,,,99,,,,,,,Space,keypress(Space),,,,,,,,---- -- ----- -- ------ - ------- --- ----------<br>------------- ------ ------ ---- ---- ------- ----- -- ----<br>-------- ------- -- ---------- --- - --- ----- ----- ----<br>---- --- --- ----- --- ---- ---- ------- ----- it's -------<br>--- --- -- ----- -- --- ---- -- --- ---- -- ------ ------<br>--- ----- -- ----,149751.59999996424,149750.39999997616,149416.791,149423.89999997616,149433.293,149766.989,,37,it's
screen,html.Screen,2_1_0_1_38,2022-05-02T15:17:15.020Z,,,,,,,,,,,,,,,,,53,,,,,,,,,,,,,,323.5109999999986,,response,,,,99,,,,,,,Space,keypress(Space),,,,,,,,---- -- ----- -- ------ - ------- --- ----------<br>------------- ------ ------ ---- ---- ------- ----- -- ----<br>-------- ------- -- ---------- --- - --- ----- ----- ----<br>---- --- --- ----- --- ---- ---- ------- ----- ---- whether<br>--- --- -- ----- -- --- ---- -- --- ---- -- ------ ------<br>--- ----- -- ----,150091.30000001192,150090.5,149749.963,149751.69999998808,149766.989,150099.84,,38,whether
screen,html.Screen,2_1_0_1_39,2022-05-02T15:17:15.487Z,,,,,,,,,,,,,,,,,53,,,,,,,,,,,,,,457.55999997616163,,response,,,,99,,,,,,,Space,keypress(Space),,,,,,,,---- -- ----- -- ------ - ------- --- ----------<br>------------- ------ ------ ---- ---- ------- ----- -- ----<br>-------- ------- -- ---------- --- - --- ----- ----- ----<br>---- --- --- ----- --- ---- ---- ------- ----- ---- -------<br>you --- -- ----- -- --- ---- -- --- ---- -- ------ ------<br>--- ----- -- ----,150558.09999996424,150557.39999997616,150083.22,150091.59999996424,150099.84,150566.398,,39,you
screen,html.Screen,2_1_0_1_40,2022-05-02T15:17:15.954Z,,,,,,,,,,,,,,,,,53,,,,,,,,,,,,,,458.50199997617165,,response,,,,99,,,,,,,Space,keypress(Space),,,,,,,,---- -- ----- -- ------ - ------- --- ----------<br>------------- ------ ------ ---- ---- ------- ----- -- ----<br>-------- ------- -- ---------- --- - --- ----- ----- ----<br>---- --- --- ----- --- ---- ---- ------- ----- ---- -------<br>--- are -- ----- -- --- ---- -- --- ---- -- ------ ------<br>--- ----- -- ----,151025.59999996424,151024.89999997616,150550.098,150558.19999998808,150566.398,151033.04,,40,are
screen,html.Screen,2_1_0_1_41,2022-05-02T15:17:16.378Z,,,,,,,,,,,,,,,,,53,,,,,,,,,,,,,,415.05999996422906,,response,,,,99,,,,,,,Space,keypress(Space),,,,,,,,---- -- ----- -- ------ - ------- --- ----------<br>------------- ------ ------ ---- ---- ------- ----- -- ----<br>-------- ------- -- ---------- --- - --- ----- ----- ----<br>---- --- --- ----- --- ---- ---- ------- ----- ---- -------<br>--- --- as ----- -- --- ---- -- --- ---- -- ------ ------<br>--- ----- -- ----,151449.59999996424,151448.09999996424,151016.355,151025.80000001192,151033.04,151471.529,,41,as
screen,html.Screen,2_1_0_1_42,2022-05-02T15:17:16.730Z,,,,,,,,,,,,,,,,,53,,,,,,,,,,,,,,328.47099999999045,,response,,,,99,,,,,,,Space,keypress(Space),,,,,,,,---- -- ----- -- ------ - ------- --- ----------<br>------------- ------ ------ ---- ---- ------- ----- -- ----<br>-------- ------- -- ---------- --- - --- ----- ----- ----<br>---- --- --- ----- --- ---- ---- ------- ----- ---- -------<br>--- --- -- close -- --- ---- -- --- ---- -- ------ ------<br>--- ----- -- ----,151800.80000001192,151800,151449.945,151449.69999998808,151471.529,151816.483,,42,close
screen,html.Screen,2_1_0_1_43,2022-05-02T15:17:17.038Z,,,,,,,,,,,,,,,,,53,,,,,,,,,,,,,,291.7169999880716,,response,,,,99,,,,,,,Space,keypress(Space),,,,,,,,---- -- ----- -- ------ - ------- --- ----------<br>------------- ------ ------ ---- ---- ------- ----- -- ----<br>-------- ------- -- ---------- --- - --- ----- ----- ----<br>---- --- --- ----- --- ---- ---- ------- ----- ---- -------<br>--- --- -- ----- as --- ---- -- --- ---- -- ------ ------<br>--- ----- -- ----,152109.5,152108.19999998808,151799.547,151801,151816.483,152117.178,,43,as
screen,html.Screen,2_1_0_1_44,2022-05-02T15:17:17.350Z,,,,,,,,,,,,,,,,,53,,,,,,,,,,,,,,303.4219999642228,,response,,,,99,,,,,,,Space,keypress(Space),,,,,,,,---- -- ----- -- ------ - ------- --- ----------<br>------------- ------ ------ ---- ---- ------- ----- -- ----<br>-------- ------- -- ---------- --- - --- ----- ----- ----<br>---- --- --- ----- --- ---- ---- ------- ----- ---- -------<br>--- --- -- ----- -- you ---- -- --- ---- -- ------ ------<br>--- ----- -- ----,152421.39999997616,152420.59999996424,152099.513,152109.59999996424,152117.178,152432.729,,44,you
screen,html.Screen,2_1_0_1_45,2022-05-02T15:17:17.628Z,,,,,,,,,,,,,,,,,53,,,,,,,,,,,,,,265.17099997616606,,response,,,,99,,,,,,,Space,keypress(Space),,,,,,,,---- -- ----- -- ------ - ------- --- ----------<br>------------- ------ ------ ---- ---- ------- ----- -- ----<br>-------- ------- -- ---------- --- - --- ----- ----- ----<br>---- --- --- ----- --- ---- ---- ------- ----- ---- -------<br>--- --- -- ----- -- --- want -- --- ---- -- ------ ------<br>--- ----- -- ----,152699.19999998808,152697.89999997616,152416.28,152421.59999996424,152432.729,152716.187,,45,want
screen,html.Screen,2_1_0_1_46,2022-05-02T15:17:17.874Z,,,,,,,,,,,,,,,,,53,,,,,,,,,,,,,,227.81299999999464,,response,,,,99,,,,,,,Space,keypress(Space),,,,,,,,---- -- ----- -- ------ - ------- --- ----------<br>------------- ------ ------ ---- ---- ------- ----- -- ----<br>-------- ------- -- ---------- --- - --- ----- ----- ----<br>---- --- --- ----- --- ---- ---- ------- ----- ---- -------<br>--- --- -- ----- -- --- ---- to --- ---- -- ------ ------<br>--- ----- -- ----,152945,152944,152699.36,152699.39999997616,152716.187,152949.302,,46,to
screen,html.Screen,2_1_0_1_47,2022-05-02T15:17:18.107Z,,,,,,,,,,,,,,,,,53,,,,,,,,,,,,,,227.4980000119249,,response,,,,99,,,,,,,Space,keypress(Space),,,,,,,,"---- -- ----- -- ------ - ------- --- ----------<br>------------- ------ ------ ---- ---- ------- ----- -- ----<br>-------- ------- -- ---------- --- - --- ----- ----- ----<br>---- --- --- ----- --- ---- ---- ------- ----- ---- -------<br>--- --- -- ----- -- --- ---- -- be, ---- -- ------ ------<br>--- ----- -- ----",153178,153176.80000001192,152932.822,152945.09999996424,152949.302,153184.918,,47,"be,"
screen,html.Screen,2_1_0_1_48,2022-05-02T15:17:18.368Z,,,,,,,,,,,,,,,,,53,,,,,,,,,,,,,,253.58199999999488,,response,,,,99,,,,,,,Space,keypress(Space),,,,,,,,---- -- ----- -- ------ - ------- --- ----------<br>------------- ------ ------ ---- ---- ------- ----- -- ----<br>-------- ------- -- ---------- --- - --- ----- ----- ----<br>---- --- --- ----- --- ---- ---- ------- ----- ---- -------<br>--- --- -- ----- -- --- ---- -- --- even -- ------ ------<br>--- ----- -- ----,153439.39999997616,153438.5,153166.09,153178.09999996424,153184.918,153449.329,,48,even
screen,html.Screen,2_1_0_1_49,2022-05-02T15:17:18.671Z,,,,,,,,,,,,,,,,,53,,,,,,,,,,,,,,291.7709999642393,,response,,,,99,,,,,,,Space,keypress(Space),,,,,,,,---- -- ----- -- ------ - ------- --- ----------<br>------------- ------ ------ ---- ---- ------- ----- -- ----<br>-------- ------- -- ---------- --- - --- ----- ----- ----<br>---- --- --- ----- --- ---- ---- ------- ----- ---- -------<br>--- --- -- ----- -- --- ---- -- --- ---- if ------ ------<br>--- ----- -- ----,153742,153741.09999996424,153432.884,153439.5,153449.329,153749.349,,49,if
screen,html.Screen,2_1_0_1_50,2022-05-02T15:17:18.990Z,,,,,,,,,,,,,,,,,53,,,,,,,,,,,,,,311.1510000000126,,response,,,,99,,,,,,,Space,keypress(Space),,,,,,,,---- -- ----- -- ------ - ------- --- ----------<br>------------- ------ ------ ---- ---- ------- ----- -- ----<br>-------- ------- -- ---------- --- - --- ----- ----- ----<br>---- --- --- ----- --- ---- ---- ------- ----- ---- -------<br>--- --- -- ----- -- --- ---- -- --- ---- -- that's ------<br>--- ----- -- ----,154061.39999997616,154060.5,153732.757,153742.09999996424,153749.349,154065.738,,50,that's
screen,html.Screen,2_1_0_1_51,2022-05-02T15:17:19.519Z,,,,,,,,,,,,,,,,,53,,,,,,,,,,,,,,523.161999976146,,response,,,,99,,,,,,,Space,keypress(Space),,,,,,,,---- -- ----- -- ------ - ------- --- ----------<br>------------- ------ ------ ---- ---- ------- ----- -- ----<br>-------- ------- -- ---------- --- - --- ----- ----- ----<br>---- --- --- ----- --- ---- ---- ------- ----- ---- -------<br>--- --- -- ----- -- --- ---- -- --- ---- -- ------ really<br>--- ----- -- ----,154589.80000001192,154588.89999997616,154049.398,154061.5,154065.738,154599.209,,51,really
screen,html.Screen,2_1_0_1_52,2022-05-02T15:17:19.972Z,,,,,,,,,,,,,,,,,53,,,,,,,,,,,,,,442.79099999999744,,response,,,,99,,,,,,,Space,keypress(Space),,,,,,,,---- -- ----- -- ------ - ------- --- ----------<br>------------- ------ ------ ---- ---- ------- ----- -- ----<br>-------- ------- -- ---------- --- - --- ----- ----- ----<br>---- --- --- ----- --- ---- ---- ------- ----- ---- -------<br>--- --- -- ----- -- --- ---- -- --- ---- -- ------ ------<br>not ----- -- ----,155042.59999996424,155042,154582.368,154590.09999996424,154599.209,155048.818,,52,not
screen,html.Screen,2_1_0_1_53,2022-05-02T15:17:20.517Z,,,,,,,,,,,,,,,,,53,,,,,,,,,,,,,,538.1820000000007,,response,,,,99,,,,,,,Space,keypress(Space),,,,,,,,---- -- ----- -- ------ - ------- --- ----------<br>------------- ------ ------ ---- ---- ------- ----- -- ----<br>-------- ------- -- ---------- --- - --- ----- ----- ----<br>---- --- --- ----- --- ---- ---- ------- ----- ---- -------<br>--- --- -- ----- -- --- ---- -- --- ---- -- ------ ------<br>--- close -- ----,155588.19999998808,155587,155032.271,155042.80000001192,155048.818,155598.872,,53,close
screen,html.Screen,2_1_0_1_54,2022-05-02T15:17:20.891Z,,,,,,,,,,,,,,,,,53,,,,,,,,,,,,,,362.2279999642342,,response,,,,99,,,,,,,Space,keypress(Space),,,,,,,,---- -- ----- -- ------ - ------- --- ----------<br>------------- ------ ------ ---- ---- ------- ----- -- ----<br>-------- ------- -- ---------- --- - --- ----- ----- ----<br>---- --- --- ----- --- ---- ---- ------- ----- ---- -------<br>--- --- -- ----- -- --- ---- -- --- ---- -- ------ ------<br>--- ----- at ----,155962.5,155961.09999996424,155582.53,155588.30000001192,155598.872,155966.645,,54,at
screen,html.Screen,2_1_0_1_55,2022-05-02T15:17:21.463Z,,,,,,,,,,,,,,,,,53,,,,,,,,,,,,,,566.2549999761686,,response,,,,99,,,,,,,Space,keypress(Space),,,,,,,,---- -- ----- -- ------ - ------- --- ----------<br>------------- ------ ------ ---- ---- ------- ----- -- ----<br>-------- ------- -- ---------- --- - --- ----- ----- ----<br>---- --- --- ----- --- ---- ---- ------- ----- ---- -------<br>--- --- -- ----- -- --- ---- -- --- ---- -- ------ ------<br>--- ----- -- all.,156534.19999998808,156532.89999997616,155948.734,155962.59999996424,155966.645,156548.697,,55,all.
Item 99,flow.Loop,2_1_0_1,2022-05-02T15:17:21.463Z,,,,,,,,,,,,,,,,,,,,,,,,,,,,,,,21896.51399997616,,completion,,,,,G,,,,,,,,,,,silence,,,,,156534.5,156532.89999997616,134536.531,134537.59999996424,134636.386,156548.697,,,
Question 1,html.Screen,2_1_0_2,2022-05-02T15:17:25.564Z,,,,,,,,,,,,,,,,,,,,,,,,,,,,true,FALSE,,4084.7029999761726,,response,,,,99,G,,,,,,FALSE,click #choice-2,,,,silence,,,,,160634.80000001192,160633.39999997616,156531.981,156534.5,156548.697,160647.972,,,
Question 2,html.Screen,2_1_0_3,2022-05-02T15:17:31.246Z,,,,,,,,,,,,,,,,,,,,,,,,,,,,true,TRUE,,5667.627999964228,,response,,,,99,G,,,,,,TRUE,click #choice-1,,,,silence,,,,,166316.69999998808,166315.59999996424,160631.539,160634.89999997616,160647.972,166331.435,,,
Item 99,flow.Sequence,2_1_0,2022-05-02T15:17:31.246Z,,,,,,,,,,,,,,,,,,,,,,,,,,,,,,,41760.678999964235,,completion,,,,,,,,,,,,,,,,,,,,,166317,166315.59999996424,124538.233,124531.30000001192,124554.921,166331.435,,,
Holding screen,html.Screen,2_1_1_0,2022-05-02T15:17:41.241Z,,,,,,,,,,,,,,,,,,,,,,,,,,,,,,,9996.929999999993,,timeout,,,,,,,,,,,,,,,,,,,,,176312.30000001192,176311.645,166313.346,166317.09999996424,166331.435,176328.365,,,
screen,html.Screen,2_1_1_1_0,2022-05-02T15:17:42.026Z,,,,,,,,,,,,,,,,,54,,,,,,,,,,,,,,768.0349999761675,,response,,,,100,,,,,,,Space,keypress(Space),,,,,,,,At --- ---- --- ------ ----- ------- ---- -- --- ------- --<br>------- ---------- ------ -- ----- -- ----- -- ---- ------<br>--- ----- --- --- ------ -------- ----- --- ------ ----- --<br>----- ----- ---------- --- --- ------ ------ ---- -- ------<br>------- --- ------ ----- --- ---- ------- -- ---- --- --<br>------- ------,177097.19999998808,177096.39999997616,176311.645,176312.5,176328.365,177111.354,,0,At
screen,html.Screen,2_1_1_1_1,2022-05-02T15:17:42.539Z,,,,,,,,,,,,,,,,,54,,,,,,,,,,,,,,497.74599996424513,,response,,,,100,,,,,,,Space,keypress(Space),,,,,,,,-- the ---- --- ------ ----- ------- ---- -- --- ------- --<br>------- ---------- ------ -- ----- -- ----- -- ---- ------<br>--- ----- --- --- ------ -------- ----- --- ------ ----- --<br>----- ----- ---------- --- --- ------ ------ ---- -- ------<br>------- --- ------ ----- --- ---- ------- -- ---- --- --<br>------- ------,177610.19999998808,177609.09999996424,177094.912,177097.39999997616,177111.354,177628.086,,1,the
screen,html.Screen,2_1_1_1_2,2022-05-02T15:17:43.026Z,,,,,,,,,,,,,,,,,54,,,,,,,,,,,,,,468.3139999761479,,response,,,,100,,,,,,,Space,keypress(Space),,,,,,,,-- --- time --- ------ ----- ------- ---- -- --- ------- --<br>------- ---------- ------ -- ----- -- ----- -- ---- ------<br>--- ----- --- --- ------ -------- ----- --- ------ ----- --<br>----- ----- ---------- --- --- ------ ------ ---- -- ------<br>------- --- ------ ----- --- ---- ------- -- ---- --- --<br>------- ------,178097.39999997616,178096.39999997616,177613.066,177610.30000001192,177628.086,178111.248,,2,time
screen,html.Screen,2_1_1_1_3,2022-05-02T15:17:43.489Z,,,,,,,,,,,,,,,,,54,,,,,,,,,,,,,,447.95199998808675,,response,,,,100,,,,,,,Space,keypress(Space),,,,,,,,-- --- ---- the ------ ----- ------- ---- -- --- ------- --<br>------- ---------- ------ -- ----- -- ----- -- ---- ------<br>--- ----- --- --- ------ -------- ----- --- ------ ----- --<br>----- ----- ---------- --- --- ------ ------ ---- -- ------<br>------- --- ------ ----- --- ---- ------- -- ---- --- --<br>------- ------,178560.39999997616,178559.19999998808,178094.635,178097.59999996424,178111.248,178594.218,,3,the
screen,html.Screen,2_1_1_1_4,2022-05-02T15:17:43.953Z,,,,,,,,,,,,,,,,,54,,,,,,,,,,,,,,428.68199997616466,,response,,,,100,,,,,,,Space,keypress(Space),,,,,,,,-- --- ---- --- French ----- ------- ---- -- --- ------- --<br>------- ---------- ------ -- ----- -- ----- -- ---- ------<br>--- ----- --- --- ------ -------- ----- --- ------ ----- --<br>----- ----- ---------- --- --- ------ ------ ---- -- ------<br>------- --- ------ ----- --- ---- ------- -- ---- --- --<br>------- ------,179023.80000001192,179022.89999997616,178577.812,178560.59999996424,178594.218,179027.701,,4,French
screen,html.Screen,2_1_1_1_5,2022-05-02T15:17:44.647Z,,,,,,,,,,,,,,,,,54,,,,,,,,,,,,,,689.6989999761572,,response,,,,100,,,,,,,Space,keypress(Space),,,,,,,,-- --- ---- --- ------ crown ------- ---- -- --- ------- --<br>------- ---------- ------ -- ----- -- ----- -- ---- ------<br>--- ----- --- --- ------ -------- ----- --- ------ ----- --<br>----- ----- ---------- --- --- ------ ------ ---- -- ------<br>------- --- ------ ----- --- ---- ------- -- ---- --- --<br>------- ------,179718.30000001192,179717.39999997616,179011.146,179024,179027.701,179727.62,,5,crown
screen,html.Screen,2_1_1_1_6,2022-05-02T15:17:45.017Z,,,,,,,,,,,,,,,,,54,,,,,,,,,,,,,,359.38000000000466,,response,,,,100,,,,,,,Space,keypress(Space),,,,,,,,-- --- ---- --- ------ ----- secured ---- -- --- ------- --<br>------- ---------- ------ -- ----- -- ----- -- ---- ------<br>--- ----- --- --- ------ -------- ----- --- ------ ----- --<br>----- ----- ---------- --- --- ------ ------ ---- -- ------<br>------- --- ------ ----- --- ---- ------- -- ---- --- --<br>------- ------,180088.19999998808,180087,179710.91,179718.39999997616,179727.62,180095.178,,6,secured
screen,html.Screen,2_1_1_1_7,2022-05-02T15:17:45.386Z,,,,,,,,,,,,,,,,,54,,,,,,,,,,,,,,360.7219999761437,,response,,,,100,,,,,,,Space,keypress(Space),,,,,,,,-- --- ---- --- ------ ----- ------- much -- --- ------- --<br>------- ---------- ------ -- ----- -- ----- -- ---- ------<br>--- ----- --- --- ------ -------- ----- --- ------ ----- --<br>----- ----- ---------- --- --- ------ ------ ---- -- ------<br>------- --- ------ ----- --- ---- ------- -- ---- --- --<br>------- ------,180456.89999997616,180455.89999997616,180077.556,180088.19999998808,180095.178,180460.482,,7,much
screen,html.Screen,2_1_1_1_8,2022-05-02T15:17:45.780Z,,,,,,,,,,,,,,,,,54,,,,,,,,,,,,,,390.01800000001094,,response,,,,100,,,,,,,Space,keypress(Space),,,,,,,,-- --- ---- --- ------ ----- ------- ---- of --- ------- --<br>------- ---------- ------ -- ----- -- ----- -- ---- ------<br>--- ----- --- --- ------ -------- ----- --- ------ ----- --<br>----- ----- ---------- --- --- ------ ------ ---- -- ------<br>------- --- ------ ----- --- ---- ------- -- ---- --- --<br>------- ------,180851.39999997616,180850.5,180443.878,180457,180460.482,180860.728,,8,of
screen,html.Screen,2_1_1_1_9,2022-05-02T15:17:46.089Z,,,,,,,,,,,,,,,,,54,,,,,,,,,,,,,,297.9719999880763,,response,,,,100,,,,,,,Space,keypress(Space),,,,,,,,-- --- ---- --- ------ ----- ------- ---- -- its ------- --<br>------- ---------- ------ -- ----- -- ----- -- ---- ------<br>--- ----- --- --- ------ -------- ----- --- ------ ----- --<br>----- ----- ---------- --- --- ------ ------ ---- -- ------<br>------- --- ------ ----- --- ---- ------- -- ---- --- --<br>------- ------,181159.69999998808,181158.69999998808,180843.985,180851.59999996424,180860.728,181193.753,,9,its
screen,html.Screen,2_1_1_1_10,2022-05-02T15:17:46.552Z,,,,,,,,,,,,,,,,,54,,,,,,,,,,,,,,428.247000000003,,response,,,,100,,,,,,,Space,keypress(Space),,,,,,,,-- --- ---- --- ------ ----- ------- ---- -- --- revenue --<br>------- ---------- ------ -- ----- -- ----- -- ---- ------<br>--- ----- --- --- ------ -------- ----- --- ------ ----- --<br>----- ----- ---------- --- --- ------ ------ ---- -- ------<br>------- --- ------ ----- --- ---- ------- -- ---- --- --<br>------- ------,181623.19999998808,181622,181177.297,181159.89999997616,181193.753,181627.417,,10,revenue
screen,html.Screen,2_1_1_1_11,2022-05-02T15:17:47.008Z,,,,,,,,,,,,,,,,,54,,,,,,,,,,,,,,450.08300000001327,,response,,,,100,,,,,,,Space,keypress(Space),,,,,,,,-- --- ---- --- ------ ----- ------- ---- -- --- ------- by<br>------- ---------- ------ -- ----- -- ----- -- ---- ------<br>--- ----- --- --- ------ -------- ----- --- ------ ----- --<br>----- ----- ---------- --- --- ------ ------ ---- -- ------<br>------- --- ------ ----- --- ---- ------- -- ---- --- --<br>------- ------,182078.80000001192,182077.5,181610.344,181623.19999998808,181627.417,182093.891,,11,by
screen,html.Screen,2_1_1_1_12,2022-05-02T15:17:47.377Z,,,,,,,,,,,,,,,,,54,,,,,,,,,,,,,,353.60899999999674,,response,,,,100,,,,,,,Space,keypress(Space),,,,,,,,-- --- ---- --- ------ ----- ------- ---- -- --- ------- --<br>issuing ---------- ------ -- ----- -- ----- -- ---- ------<br>--- ----- --- --- ------ -------- ----- --- ------ ----- --<br>----- ----- ---------- --- --- ------ ------ ---- -- ------<br>------- --- ------ ----- --- ---- ------- -- ---- --- --<br>------- ------,182448.19999998808,182447.5,182077.357,182078.89999997616,182093.891,182460.096,,12,issuing
screen,html.Screen,2_1_1_1_13,2022-05-02T15:17:47.670Z,,,,,,,,,,,,,,,,,54,,,,,,,,,,,,,,279.50399996424676,,response,,,,100,,,,,,,Space,keypress(Space),,,,,,,,-- --- ---- --- ------ ----- ------- ---- -- --- ------- --<br>------- government ------ -- ----- -- ----- -- ---- ------<br>--- ----- --- --- ------ -------- ----- --- ------ ----- --<br>----- ----- ---------- --- --- ------ ------ ---- -- ------<br>------- --- ------ ----- --- ---- ------- -- ---- --- --<br>------- ------,182741,182739.59999996424,182443.756,182448.30000001192,182460.096,182760.039,,13,government
screen,html.Screen,2_1_1_1_14,2022-05-02T15:17:48.075Z,,,,,,,,,,,,,,,,,54,,,,,,,,,,,,,,385.6609999880893,,response,,,,100,,,,,,,Space,keypress(Space),,,,,,,,-- --- ---- --- ------ ----- ------- ---- -- --- ------- --<br>------- ---------- bonds. -- ----- -- ----- -- ---- ------<br>--- ----- --- --- ------ -------- ----- --- ------ ----- --<br>----- ----- ---------- --- --- ------ ------ ---- -- ------<br>------- --- ------ ----- --- ---- ------- -- ---- --- --<br>------- ------,183147,183145.69999998808,182743.903,182741.09999996424,182760.039,183160.186,,14,bonds.
screen,html.Screen,2_1_1_1_15,2022-05-02T15:17:48.556Z,,,,,,,,,,,,,,,,,54,,,,,,,,,,,,,,466.2139999761712,,response,,,,100,,,,,,,Space,keypress(Space),,,,,,,,-- --- ---- --- ------ ----- ------- ---- -- --- ------- --<br>------- ---------- ------ In ----- -- ----- -- ---- ------<br>--- ----- --- --- ------ -------- ----- --- ------ ----- --<br>----- ----- ---------- --- --- ------ ------ ---- -- ------<br>------- --- ------ ----- --- ---- ------- -- ---- --- --<br>------- ------,183627.5,183626.39999997616,183143.618,183147.09999996424,183160.186,183643.434,,15,In
screen,html.Screen,2_1_1_1_16,2022-05-02T15:17:48.933Z,,,,,,,,,,,,,,,,,54,,,,,,,,,,,,,,360.46599997614976,,response,,,,100,,,,,,,Space,keypress(Space),,,,,,,,"-- --- ---- --- ------ ----- ------- ---- -- --- ------- --<br>------- ---------- ------ -- 1727, -- ----- -- ---- ------<br>--- ----- --- --- ------ -------- ----- --- ------ ----- --<br>----- ----- ---------- --- --- ------ ------ ---- -- ------<br>------- --- ------ ----- --- ---- ------- -- ---- --- --<br>------- ------",184004.69999998808,184003.89999997616,183627.019,183627.59999996424,183643.434,184009.753,,16,"1727,"
screen,html.Screen,2_1_1_1_17,2022-05-02T15:17:49.227Z,,,,,,,,,,,,,,,,,54,,,,,,,,,,,,,,287.14699997616117,,response,,,,100,,,,,,,Space,keypress(Space),,,,,,,,-- --- ---- --- ------ ----- ------- ---- -- --- ------- --<br>------- ---------- ------ -- ----- in ----- -- ---- ------<br>--- ----- --- --- ------ -------- ----- --- ------ ----- --<br>----- ----- ---------- --- --- ------ ------ ---- -- ------<br>------- --- ------ ----- --- ---- ------- -- ---- --- --<br>------- ------,184298.19999998808,184296.89999997616,183993.485,184004.89999997616,184009.753,184309.929,,17,in
screen,html.Screen,2_1_1_1_18,2022-05-02T15:17:49.750Z,,,,,,,,,,,,,,,,,54,,,,,,,,,,,,,,511.1709999642335,,response,,,,100,,,,,,,Space,keypress(Space),,,,,,,,-- --- ---- --- ------ ----- ------- ---- -- --- ------- --<br>------- ---------- ------ -- ----- -- order -- ---- ------<br>--- ----- --- --- ------ -------- ----- --- ------ ----- --<br>----- ----- ---------- --- --- ------ ------ ---- -- ------<br>------- --- ------ ----- --- ---- ------- -- ---- --- --<br>------- ------,184821.89999997616,184821.09999996424,184293.367,184298.30000001192,184309.929,184826.483,,18,order
screen,html.Screen,2_1_1_1_19,2022-05-02T15:17:50.071Z,,,,,,,,,,,,,,,,,54,,,,,,,,,,,,,,315.7169999880716,,response,,,,100,,,,,,,Space,keypress(Space),,,,,,,,-- --- ---- --- ------ ----- ------- ---- -- --- ------- --<br>------- ---------- ------ -- ----- -- ----- to ---- ------<br>--- ----- --- --- ------ -------- ----- --- ------ ----- --<br>----- ----- ---------- --- --- ------ ------ ---- -- ------<br>------- --- ------ ----- --- ---- ------- -- ---- --- --<br>------- ------,185143.09999996424,185142.19999998808,184810.021,184822.09999996424,184826.483,185159.563,,19,to
screen,html.Screen,2_1_1_1_20,2022-05-02T15:17:50.289Z,,,,,,,,,,,,,,,,,54,,,,,,,,,,,,,,199.73700001192628,,response,,,,100,,,,,,,Space,keypress(Space),,,,,,,,-- --- ---- --- ------ ----- ------- ---- -- --- ------- --<br>------- ---------- ------ -- ----- -- ----- -- save ------<br>--- ----- --- --- ------ -------- ----- --- ------ ----- --<br>----- ----- ---------- --- --- ------ ------ ---- -- ------<br>------- --- ------ ----- --- ---- ------- -- ---- --- --<br>------- ------,185360.19999998808,185359.30000001192,185142.95,185143.19999998808,185159.563,185376.504,,20,save
screen,html.Screen,2_1_1_1_21,2022-05-02T15:17:50.726Z,,,,,,,,,,,,,,,,,54,,,,,,,,,,,,,,419.99600000001374,,response,,,,100,,,,,,,Space,keypress(Space),,,,,,,,"-- --- ---- --- ------ ----- ------- ---- -- --- ------- --<br>------- ---------- ------ -- ----- -- ----- -- ---- money,<br>--- ----- --- --- ------ -------- ----- --- ------ ----- --<br>----- ----- ---------- --- --- ------ ------ ---- -- ------<br>------- --- ------ ----- --- ---- ------- -- ---- --- --<br>------- ------",185797.5,185796.5,185359.529,185360.39999997616,185376.504,185809.497,,21,"money,"
screen,html.Screen,2_1_1_1_22,2022-05-02T15:17:51.107Z,,,,,,,,,,,,,,,,,54,,,,,,,,,,,,,,368.1029999642342,,response,,,,100,,,,,,,Space,keypress(Space),,,,,,,,-- --- ---- --- ------ ----- ------- ---- -- --- ------- --<br>------- ---------- ------ -- ----- -- ----- -- ---- ------<br>the ----- --- --- ------ -------- ----- --- ------ ----- --<br>----- ----- ---------- --- --- ------ ------ ---- -- ------<br>------- --- ------ ----- --- ---- ------- -- ---- --- --<br>------- ------,186178.5,186177.59999996424,185792.992,185797.69999998808,185809.497,186192.981,,22,the
screen,html.Screen,2_1_1_1_23,2022-05-02T15:17:51.414Z,,,,,,,,,,,,,,,,,54,,,,,,,,,,,,,,291.2189999880793,,response,,,,100,,,,,,,Space,keypress(Space),,,,,,,,-- --- ---- --- ------ ----- ------- ---- -- --- ------- --<br>------- ---------- ------ -- ----- -- ----- -- ---- ------<br>--- state --- --- ------ -------- ----- --- ------ ----- --<br>----- ----- ---------- --- --- ------ ------ ---- -- ------<br>------- --- ------ ----- --- ---- ------- -- ---- --- --<br>------- ------,186485.5,186484.19999998808,186176.406,186178.59999996424,186192.981,186493.736,,23,state
screen,html.Screen,2_1_1_1_24,2022-05-02T15:17:51.720Z,,,,,,,,,,,,,,,,,54,,,,,,,,,,,,,,296.8639999642328,,response,,,,100,,,,,,,Space,keypress(Space),,,,,,,,-- --- ---- --- ------ ----- ------- ---- -- --- ------- --<br>------- ---------- ------ -- ----- -- ----- -- ---- ------<br>--- ----- cut --- ------ -------- ----- --- ------ ----- --<br>----- ----- ---------- --- --- ------ ------ ---- -- ------<br>------- --- ------ ----- --- ---- ------- -- ---- --- --<br>------- ------,186791.39999997616,186790.59999996424,186476.377,186485.59999996424,186493.736,186809.823,,24,cut
screen,html.Screen,2_1_1_1_25,2022-05-02T15:17:52.003Z,,,,,,,,,,,,,,,,,54,,,,,,,,,,,,,,264.27699996423326,,response,,,,100,,,,,,,Space,keypress(Space),,,,,,,,-- --- ---- --- ------ ----- ------- ---- -- --- ------- --<br>------- ---------- ------ -- ----- -- ----- -- ---- ------<br>--- ----- --- the ------ -------- ----- --- ------ ----- --<br>----- ----- ---------- --- --- ------ ------ ---- -- ------<br>------- --- ------ ----- --- ---- ------- -- ---- --- --<br>------- ------,187074.89999997616,187074.09999996424,186776.254,186791.5,186809.823,187092.778,,25,the
screen,html.Screen,2_1_1_1_26,2022-05-02T15:17:52.396Z,,,,,,,,,,,,,,,,,54,,,,,,,,,,,,,,374.0220000119298,,response,,,,100,,,,,,,Space,keypress(Space),,,,,,,,-- --- ---- --- ------ ----- ------- ---- -- --- ------- --<br>------- ---------- ------ -- ----- -- ----- -- ---- ------<br>--- ----- --- --- bonds' -------- ----- --- ------ ----- --<br>----- ----- ---------- --- --- ------ ------ ---- -- ------<br>------- --- ------ ----- --- ---- ------- -- ---- --- --<br>------- ------,187468,187466.80000001192,187059.571,187075.09999996424,187092.778,187475.867,,26,bonds'
screen,html.Screen,2_1_1_1_27,2022-05-02T15:17:52.905Z,,,,,,,,,,,,,,,,,54,,,,,,,,,,,,,,500.3329999880807,,response,,,,100,,,,,,,Space,keypress(Space),,,,,,,,-- --- ---- --- ------ ----- ------- ---- -- --- ------- --<br>------- ---------- ------ -- ----- -- ----- -- ---- ------<br>--- ----- --- --- ------ interest ----- --- ------ ----- --<br>----- ----- ---------- --- --- ------ ------ ---- -- ------<br>------- --- ------ ----- --- ---- ------- -- ---- --- --<br>------- ------,187977.09999996424,187976.19999998808,187459.143,187468.19999998808,187475.867,187992.34,,27,interest
screen,html.Screen,2_1_1_1_28,2022-05-02T15:17:53.434Z,,,,,,,,,,,,,,,,,54,,,,,,,,,,,,,,511.85999998808256,,response,,,,100,,,,,,,Space,keypress(Space),,,,,,,,-- --- ---- --- ------ ----- ------- ---- -- --- ------- --<br>------- ---------- ------ -- ----- -- ----- -- ---- ------<br>--- ----- --- --- ------ -------- rate. --- ------ ----- --<br>----- ----- ---------- --- --- ------ ------ ---- -- ------<br>------- --- ------ ----- --- ---- ------- -- ---- --- --<br>------- ------,188505.39999997616,188504.19999998808,187976.033,187977.09999996424,187992.34,188509.079,,28,rate.
screen,html.Screen,2_1_1_1_29,2022-05-02T15:17:54.075Z,,,,,,,,,,,,,,,,,54,,,,,,,,,,,,,,636.8209999761602,,response,,,,100,,,,,,,Space,keypress(Space),,,,,,,,-- --- ---- --- ------ ----- ------- ---- -- --- ------- --<br>------- ---------- ------ -- ----- -- ----- -- ---- ------<br>--- ----- --- --- ------ -------- ----- The ------ ----- --<br>----- ----- ---------- --- --- ------ ------ ---- -- ------<br>------- --- ------ ----- --- ---- ------- -- ---- --- --<br>------- ------,189147,189145.89999997616,188492.301,188505.59999996424,188509.079,189159.049,,29,The
screen,html.Screen,2_1_1_1_30,2022-05-02T15:17:54.532Z,,,,,,,,,,,,,,,,,54,,,,,,,,,,,,,,444.15099998808,,response,,,,100,,,,,,,Space,keypress(Space),,,,,,,,-- --- ---- --- ------ ----- ------- ---- -- --- ------- --<br>------- ---------- ------ -- ----- -- ----- -- ---- ------<br>--- ----- --- --- ------ -------- ----- --- market ----- --<br>----- ----- ---------- --- --- ------ ------ ---- -- ------<br>------- --- ------ ----- --- ---- ------- -- ---- --- --<br>------- ------,189604,189603.19999998808,189142.501,189147.09999996424,189159.049,189608.837,,30,market
screen,html.Screen,2_1_1_1_31,2022-05-02T15:17:54.915Z,,,,,,,,,,,,,,,,,54,,,,,,,,,,,,,,376.66300000000047,,response,,,,100,,,,,,,Space,keypress(Space),,,,,,,,-- --- ---- --- ------ ----- ------- ---- -- --- ------- --<br>------- ---------- ------ -- ----- -- ----- -- ---- ------<br>--- ----- --- --- ------ -------- ----- --- ------ value --<br>----- ----- ---------- --- --- ------ ------ ---- -- ------<br>------- --- ------ ----- --- ---- ------- -- ---- --- --<br>------- ------,189987,189985.5,189592.517,189604.19999998808,189608.837,189992.343,,31,value
screen,html.Screen,2_1_1_1_32,2022-05-02T15:17:55.356Z,,,,,,,,,,,,,,,,,54,,,,,,,,,,,,,,434.25699996424373,,response,,,,100,,,,,,,Space,keypress(Space),,,,,,,,-- --- ---- --- ------ ----- ------- ---- -- --- ------- --<br>------- ---------- ------ -- ----- -- ----- -- ---- ------<br>--- ----- --- --- ------ -------- ----- --- ------ ----- of<br>----- ----- ---------- --- --- ------ ------ ---- -- ------<br>------- --- ------ ----- --- ---- ------- -- ---- --- --<br>------- ------,190427.19999998808,190426.59999996424,189975.596,189987,189992.343,190441.98,,32,of
screen,html.Screen,2_1_1_1_33,2022-05-02T15:17:55.866Z,,,,,,,,,,,,,,,,,54,,,,,,,,,,,,,,493.91999997614766,,response,,,,100,,,,,,,Space,keypress(Space),,,,,,,,-- --- ---- --- ------ ----- ------- ---- -- --- ------- --<br>------- ---------- ------ -- ----- -- ----- -- ---- ------<br>--- ----- --- --- ------ -------- ----- --- ------ ----- --<br>these ----- ---------- --- --- ------ ------ ---- -- ------<br>------- --- ------ ----- --- ---- ------- -- ---- --- --<br>------- ------,190937.39999997616,190935.89999997616,190425.384,190427.39999997616,190441.98,190975.106,,33,these
screen,html.Screen,2_1_1_1_34,2022-05-02T15:17:56.310Z,,,,,,,,,,,,,,,,,54,,,,,,,,,,,,,,404.89400000000023,,response,,,,100,,,,,,,Space,keypress(Space),,,,,,,,-- --- ---- --- ------ ----- ------- ---- -- --- ------- --<br>------- ---------- ------ -- ----- -- ----- -- ---- ------<br>--- ----- --- --- ------ -------- ----- --- ------ ----- --<br>----- bonds ---------- --- --- ------ ------ ---- -- ------<br>------- --- ------ ----- --- ---- ------- -- ---- --- --<br>------- ------,191381.09999996424,191380,190973.519,190937.59999996424,190975.106,191392.003,,34,bonds
screen,html.Screen,2_1_1_1_35,2022-05-02T15:17:56.717Z,,,,,,,,,,,,,,,,,54,,,,,,,,,,,,,,395.1969999880821,,response,,,,100,,,,,,,Space,keypress(Space),,,,,,,,"-- --- ---- --- ------ ----- ------- ---- -- --- ------- --<br>------- ---------- ------ -- ----- -- ----- -- ---- ------<br>--- ----- --- --- ------ -------- ----- --- ------ ----- --<br>----- ----- plummeted, --- --- ------ ------ ---- -- ------<br>------- --- ------ ----- --- ---- ------- -- ---- --- --<br>------- ------",191788.39999997616,191787.19999998808,191375.315,191381.30000001192,191392.003,191792.305,,35,"plummeted,"
screen,html.Screen,2_1_1_1_36,2022-05-02T15:17:57.214Z,,,,,,,,,,,,,,,,,54,,,,,,,,,,,,,,492.7949999642442,,response,,,,100,,,,,,,Space,keypress(Space),,,,,,,,-- --- ---- --- ------ ----- ------- ---- -- --- ------- --<br>------- ---------- ------ -- ----- -- ----- -- ---- ------<br>--- ----- --- --- ------ -------- ----- --- ------ ----- --<br>----- ----- ---------- and --- ------ ------ ---- -- ------<br>------- --- ------ ----- --- ---- ------- -- ---- --- --<br>------- ------,192286.09999996424,192285.09999996424,191775.26,191788.5,191792.305,192291.463,,36,and
screen,html.Screen,2_1_1_1_37,2022-05-02T15:17:57.781Z,,,,,,,,,,,,,,,,,54,,,,,,,,,,,,,,560.3370000119321,,response,,,,100,,,,,,,Space,keypress(Space),,,,,,,,-- --- ---- --- ------ ----- ------- ---- -- --- ------- --<br>------- ---------- ------ -- ----- -- ----- -- ---- ------<br>--- ----- --- --- ------ -------- ----- --- ------ ----- --<br>----- ----- ---------- --- the ------ ------ ---- -- ------<br>------- --- ------ ----- --- ---- ------- -- ---- --- --<br>------- ------,192853,192851.80000001192,192275.191,192286.19999998808,192291.463,192859.16,,37,the
screen,html.Screen,2_1_1_1_38,2022-05-02T15:17:58.289Z,,,,,,,,,,,,,,,,,54,,,,,,,,,,,,,,500.8399999999965,,response,,,,100,,,,,,,Space,keypress(Space),,,,,,,,-- --- ---- --- ------ ----- ------- ---- -- --- ------- --<br>------- ---------- ------ -- ----- -- ----- -- ---- ------<br>--- ----- --- --- ------ -------- ----- --- ------ ----- --<br>----- ----- ---------- --- --- market ------ ---- -- ------<br>------- --- ------ ----- --- ---- ------- -- ---- --- --<br>------- ------,193360.89999997616,193360,192841.698,192853.09999996424,192859.16,193374.635,,38,market
screen,html.Screen,2_1_1_1_39,2022-05-02T15:17:58.526Z,,,,,,,,,,,,,,,,,54,,,,,,,,,,,,,,222.3649999999907,,response,,,,100,,,,,,,Space,keypress(Space),,,,,,,,-- --- ---- --- ------ ----- ------- ---- -- --- ------- --<br>------- ---------- ------ -- ----- -- ----- -- ---- ------<br>--- ----- --- --- ------ -------- ----- --- ------ ----- --<br>----- ----- ---------- --- --- ------ became ---- -- ------<br>------- --- ------ ----- --- ---- ------- -- ---- --- --<br>------- ------,193597.89999997616,193597,193358.306,193361,193374.635,193608.033,,39,became
screen,html.Screen,2_1_1_1_40,2022-05-02T15:17:58.958Z,,,,,,,,,,,,,,,,,54,,,,,,,,,,,,,,420.36699997616233,,response,,,,100,,,,,,,Space,keypress(Space),,,,,,,,-- --- ---- --- ------ ----- ------- ---- -- --- ------- --<br>------- ---------- ------ -- ----- -- ----- -- ---- ------<br>--- ----- --- --- ------ -------- ----- --- ------ ----- --<br>----- ----- ---------- --- --- ------ ------ wary -- ------<br>------- --- ------ ----- --- ---- ------- -- ---- --- --<br>------- ------,194029.80000001192,194028.39999997616,193591.353,193598,193608.033,194041.455,,40,wary
screen,html.Screen,2_1_1_1_41,2022-05-02T15:17:59.310Z,,,,,,,,,,,,,,,,,54,,,,,,,,,,,,,,338.84500001193373,,response,,,,100,,,,,,,Space,keypress(Space),,,,,,,,-- --- ---- --- ------ ----- ------- ---- -- --- ------- --<br>------- ---------- ------ -- ----- -- ----- -- ---- ------<br>--- ----- --- --- ------ -------- ----- --- ------ ----- --<br>----- ----- ---------- --- --- ------ ------ ---- of ------<br>------- --- ------ ----- --- ---- ------- -- ---- --- --<br>------- ------,194381.30000001192,194380.30000001192,194024.823,194030,194041.455,194391.224,,41,of
screen,html.Screen,2_1_1_1_42,2022-05-02T15:17:59.579Z,,,,,,,,,,,,,,,,,54,,,,,,,,,,,,,,258.0760000119335,,response,,,,100,,,,,,,Space,keypress(Space),,,,,,,,-- --- ---- --- ------ ----- ------- ---- -- --- ------- --<br>------- ---------- ------ -- ----- -- ----- -- ---- ------<br>--- ----- --- --- ------ -------- ----- --- ------ ----- --<br>----- ----- ---------- --- --- ------ ------ ---- -- French<br>------- --- ------ ----- --- ---- ------- -- ---- --- --<br>------- ------,194650.30000001192,194649.30000001192,194374.747,194381.5,194391.224,194657.64,,42,French
screen,html.Screen,2_1_1_1_43,2022-05-02T15:18:00.045Z,,,,,,,,,,,,,,,,,54,,,,,,,,,,,,,,458.2599999761442,,response,,,,100,,,,,,,Space,keypress(Space),,,,,,,,-- --- ---- --- ------ ----- ------- ---- -- --- ------- --<br>------- ---------- ------ -- ----- -- ----- -- ---- ------<br>--- ----- --- --- ------ -------- ----- --- ------ ----- --<br>----- ----- ---------- --- --- ------ ------ ---- -- ------<br>credit. --- ------ ----- --- ---- ------- -- ---- --- --<br>------- ------,195116.59999996424,195115.89999997616,194641.257,194650.59999996424,194657.64,195124.433,,43,credit.
screen,html.Screen,2_1_1_1_44,2022-05-02T15:18:00.373Z,,,,,,,,,,,,,,,,,54,,,,,,,,,,,,,,318.36700001193094,,response,,,,100,,,,,,,Space,keypress(Space),,,,,,,,-- --- ---- --- ------ ----- ------- ---- -- --- ------- --<br>------- ---------- ------ -- ----- -- ----- -- ---- ------<br>--- ----- --- --- ------ -------- ----- --- ------ ----- --<br>----- ----- ---------- --- --- ------ ------ ---- -- ------<br>------- The ------ ----- --- ---- ------- -- ---- --- --<br>------- ------,195444.39999997616,195442.80000001192,195107.923,195116.80000001192,195124.433,195457.903,,44,The
screen,html.Screen,2_1_1_1_45,2022-05-02T15:18:00.638Z,,,,,,,,,,,,,,,,,54,,,,,,,,,,,,,,251.29699998808792,,response,,,,100,,,,,,,Space,keypress(Space),,,,,,,,-- --- ---- --- ------ ----- ------- ---- -- --- ------- --<br>------- ---------- ------ -- ----- -- ----- -- ---- ------<br>--- ----- --- --- ------ -------- ----- --- ------ ----- --<br>----- ----- ---------- --- --- ------ ------ ---- -- ------<br>------- --- French ----- --- ---- ------- -- ---- --- --<br>------- ------,195710,195709.19999998808,195440.993,195444.5,195457.903,195724.168,,45,French
screen,html.Screen,2_1_1_1_46,2022-05-02T15:18:01.012Z,,,,,,,,,,,,,,,,,54,,,,,,,,,,,,,,357.731999976153,,response,,,,100,,,,,,,Space,keypress(Space),,,,,,,,-- --- ---- --- ------ ----- ------- ---- -- --- ------- --<br>------- ---------- ------ -- ----- -- ----- -- ---- ------<br>--- ----- --- --- ------ -------- ----- --- ------ ----- --<br>----- ----- ---------- --- --- ------ ------ ---- -- ------<br>------- --- ------ state --- ---- ------- -- ---- --- --<br>------- ------,196083.09999996424,196081.89999997616,195707.639,195710.19999998808,195724.168,196091.076,,46,state
screen,html.Screen,2_1_1_1_47,2022-05-02T15:18:01.391Z,,,,,,,,,,,,,,,,,54,,,,,,,,,,,,,,370.22400001192,,response,,,,100,,,,,,,Space,keypress(Space),,,,,,,,-- --- ---- --- ------ ----- ------- ---- -- --- ------- --<br>------- ---------- ------ -- ----- -- ----- -- ---- ------<br>--- ----- --- --- ------ -------- ----- --- ------ ----- --<br>----- ----- ---------- --- --- ------ ------ ---- -- ------<br>------- --- ------ ----- was ---- ------- -- ---- --- --<br>------- ------,196463,196461.30000001192,196074.428,196083.19999998808,196091.076,196474.318,,47,was
screen,html.Screen,2_1_1_1_48,2022-05-02T15:18:01.663Z,,,,,,,,,,,,,,,,,54,,,,,,,,,,,,,,259.58199997615884,,response,,,,100,,,,,,,Space,keypress(Space),,,,,,,,-- --- ---- --- ------ ----- ------- ---- -- --- ------- --<br>------- ---------- ------ -- ----- -- ----- -- ---- ------<br>--- ----- --- --- ------ -------- ----- --- ------ ----- --<br>----- ----- ---------- --- --- ------ ------ ---- -- ------<br>------- --- ------ ----- --- left ------- -- ---- --- --<br>------- ------,196734.80000001192,196733.89999997616,196457.364,196463.19999998808,196474.318,196740.787,,48,left
screen,html.Screen,2_1_1_1_49,2022-05-02T15:18:01.900Z,,,,,,,,,,,,,,,,,54,,,,,,,,,,,,,,229.51300001190975,,response,,,,100,,,,,,,Space,keypress(Space),,,,,,,,-- --- ---- --- ------ ----- ------- ---- -- --- ------- --<br>------- ---------- ------ -- ----- -- ----- -- ---- ------<br>--- ----- --- --- ------ -------- ----- --- ------ ----- --<br>----- ----- ---------- --- --- ------ ------ ---- -- ------<br>------- --- ------ ----- --- ---- without -- ---- --- --<br>------- ------,196971.59999996424,196970.30000001192,196723.968,196734.89999997616,196740.787,196974.297,,49,without
screen,html.Screen,2_1_1_1_50,2022-05-02T15:18:02.156Z,,,,,,,,,,,,,,,,,54,,,,,,,,,,,,,,252.80299996424583,,response,,,,100,,,,,,,Space,keypress(Space),,,,,,,,-- --- ---- --- ------ ----- ------- ---- -- --- ------- --<br>------- ---------- ------ -- ----- -- ----- -- ---- ------<br>--- ----- --- --- ------ -------- ----- --- ------ ----- --<br>----- ----- ---------- --- --- ------ ------ ---- -- ------<br>------- --- ------ ----- --- ---- ------- an ---- --- --<br>------- ------,197227.80000001192,197227.09999996424,196957.515,196971.69999998808,196974.297,197240.843,,50,an
screen,html.Screen,2_1_1_1_51,2022-05-02T15:18:02.445Z,,,,,,,,,,,,,,,,,54,,,,,,,,,,,,,,274.3569999880856,,response,,,,100,,,,,,,Space,keypress(Space),,,,,,,,-- --- ---- --- ------ ----- ------- ---- -- --- ------- --<br>------- ---------- ------ -- ----- -- ----- -- ---- ------<br>--- ----- --- --- ------ -------- ----- --- ------ ----- --<br>----- ----- ---------- --- --- ------ ------ ---- -- ------<br>------- --- ------ ----- --- ---- ------- -- easy --- --<br>------- ------,197516.5,197515.19999998808,197224.144,197228,197240.843,197524.306,,51,easy
screen,html.Screen,2_1_1_1_52,2022-05-02T15:18:02.823Z,,,,,,,,,,,,,,,,,54,,,,,,,,,,,,,,369.59399997614673,,response,,,,100,,,,,,,Space,keypress(Space),,,,,,,,-- --- ---- --- ------ ----- ------- ---- -- --- ------- --<br>------- ---------- ------ -- ----- -- ----- -- ---- ------<br>--- ----- --- --- ------ -------- ----- --- ------ ----- --<br>----- ----- ---------- --- --- ------ ------ ---- -- ------<br>------- --- ------ ----- --- ---- ------- -- ---- way --<br>------- ------,197894.80000001192,197893.89999997616,197507.306,197516.69999998808,197524.306,197907.339,,52,way
screen,html.Screen,2_1_1_1_53,2022-05-02T15:18:03.289Z,,,,,,,,,,,,,,,,,54,,,,,,,,,,,,,,452.6609999999928,,response,,,,100,,,,,,,Space,keypress(Space),,,,,,,,-- --- ---- --- ------ ----- ------- ---- -- --- ------- --<br>------- ---------- ------ -- ----- -- ----- -- ---- ------<br>--- ----- --- --- ------ -------- ----- --- ------ ----- --<br>----- ----- ---------- --- --- ------ ------ ---- -- ------<br>------- --- ------ ----- --- ---- ------- -- ---- --- of<br>------- ------,198360.80000001192,198360,197890.393,197895,197907.339,198373.927,,53,of
screen,html.Screen,2_1_1_1_54,2022-05-02T15:18:03.756Z,,,,,,,,,,,,,,,,,54,,,,,,,,,,,,,,452.9729999761621,,response,,,,100,,,,,,,Space,keypress(Space),,,,,,,,-- --- ---- --- ------ ----- ------- ---- -- --- ------- --<br>------- ---------- ------ -- ----- -- ----- -- ---- ------<br>--- ----- --- --- ------ -------- ----- --- ------ ----- --<br>----- ----- ---------- --- --- ------ ------ ---- -- ------<br>------- --- ------ ----- --- ---- ------- -- ---- --- --<br>raising ------,198827.59999996424,198826.89999997616,198357.146,198361,198373.927,198840.323,,54,raising
screen,html.Screen,2_1_1_1_55,2022-05-02T15:18:04.193Z,,,,,,,,,,,,,,,,,54,,,,,,,,,,,,,,423.0769999761542,,response,,,,100,,,,,,,Space,keypress(Space),,,,,,,,-- --- ---- --- ------ ----- ------- ---- -- --- ------- --<br>------- ---------- ------ -- ----- -- ----- -- ---- ------<br>--- ----- --- --- ------ -------- ----- --- ------ ----- --<br>----- ----- ---------- --- --- ------ ------ ---- -- ------<br>------- --- ------ ----- --- ---- ------- -- ---- --- --<br>------- money.,199264.69999998808,199263.39999997616,198823.871,198827.80000001192,198840.323,199290.344,,55,money.
Item 100,flow.Loop,2_1_1_1,2022-05-02T15:18:04.193Z,,,,,,,,,,,,,,,,,,,,,,,,,,,,,,,22935.034999976167,,completion,,,,,G,,,,,,,,,,,silence,,,,,199264.89999997616,199263.39999997616,176311.645,176312.39999997616,176328.365,199290.344,,,
Question 1,html.Screen,2_1_1_2,2022-05-02T15:18:07.764Z,,,,,,,,,,,,,,,,,,,,,,,,,,,,true,TRUE,,3544.155999999988,,response,,,,100,G,,,,,,TRUE,click #choice-1,,,,silence,,,,,202835.69999998808,202834.5,199277.273,199265,199290.344,202839.38,,,
Question 2,html.Screen,2_1_1_3,2022-05-02T15:18:11.191Z,,,,,,,,,,,,,,,,,,,,,,,,,,,,true,FALSE,,3421.9200000119163,,response,,,,100,G,,,,,,FALSE,click #choice-2,,,,silence,,,,,206262.80000001192,206261.30000001192,202822.716,202836,202839.38,206272.053,,,
Item 100,flow.Sequence,2_1_1,2022-05-02T15:18:11.191Z,,,,,,,,,,,,,,,,,,,,,,,,,,,,,,,39929.86500001192,,completion,,,,,,,,,,,,,,,,,,,,,206263,206261.30000001192,166313.346,166317,166331.435,206272.053,,,
End of Practice,html.Page,2_1_2,2022-05-02T15:18:16.825Z,,,,,,,,,,,,,,,,,,,,,,,,,,,,,,,5623.646999988065,,form submission,,,,,,,,,,,,,,,,,,,,,211896.09999996424,211895.69999998808,206255.667,206263,206272.053,211904.527,,,
Practice,flow.Sequence,2_1,2022-05-02T15:18:16.825Z,,,,,,,,,,,,,,,,,,,,,,,,,,,,,,,87340.77899998808,,completion,,,,,,,,,,,,,,,,,,,,,211896.30000001192,211895.69999998808,124538.233,124531.30000001192,124554.921,211904.527,,,
Trap_instruction,html.Page,2_2_0,2022-05-02T15:18:23.259Z,,,,,,,,,,,,,,,,,,,,,,,,,,,,,,,6425.372999976156,,form submission,,,,,,,,,,,,,,,,,,,,,218330.30000001192,218329.89999997616,211887.595,211896.5,211904.527,218402.937,,,
trap_trial,html.Screen,2_2_1,2022-05-02T15:18:26.859Z,,,,,,,,,,,,,,,,,,,,,,,,,,,,true,1,,3526.8630000119156,,response,,,,,,,,,,,1,click #choice-1,,,,,,,,,221931,221929.80000001192,218319.965,218330.5,218402.937,221935.597,,,
end of trap trial,html.Page,2_2_2,2022-05-02T15:18:29.879Z,,,,,,,,,,,,,,,,,,,,,,,,,,,,,,,3015.10299998807,,form submission,,,,,,,,,,,,,,,,,,,,,224951,224950.69999998808,221918.995,221931.19999998808,221935.597,224951.639,,,
Trap 1,flow.Sequence,2_2,2022-05-02T15:18:29.880Z,,,,,,,,,,,,,,,,,,,,,,,,,,,,,,,13046.172999988077,,completion,,,,,,,,,,,,,,,,,,,,,224951.19999998808,224950.69999998808,211887.595,211896.39999997616,211904.527,224951.639,,,
Standby,html.Page,2_3_0,2022-05-02T15:18:37.863Z,,,,,,,,,,,,,,,,,,,,,,,,,,,,,,,7998.565000000002,,timeout,,,,,,,,,,,,,,,,,,,,,232934.59999996424,232933.723,224935.253,224951.39999997616,224951.639,232950.204,,,
Holding screen,html.Screen,2_3_1_0_0,2022-05-02T15:18:44.861Z,,,,,,,,,,,,,,,,,,,,,,,,,,,,,,,6999.07699999999,,timeout,,,,,,,,,,,,,,,,,,,,,239933,239932.31,232933.723,232934.80000001192,232950.204,239949.281,,,
screen,html.Screen,2_3_1_0_1_0,2022-05-02T15:18:46.987Z,,,,,,,,,,,,,,,,,51,,,,,,,,,,,,,,2107.519000011933,,response,,,,13,G,,,,,,Space,keypress(Space),,,,instrumental,,,,American -------- --- --- ---- --- --- ------ -- --------<br>---- --------- --- ------- ------------ ---------- ---------<br>--- ---------- ------- ---------- ------- -- -------- ----<br>---- --- ------ ----- ------ -- ---- --- ----- -- - -------<br>-------- -- --- --- -- ----- ----------- ----- -----------<br>---- --- ---------- --- ---- --- -- ----------,242058.30000001192,242056.80000001192,239932.31,239933.30000001192,239949.281,242072.528,,0,American
screen,html.Screen,2_3_1_0_1_1,2022-05-02T15:18:47.654Z,,,,,,,,,,,,,,,,,51,,,,,,,,,,,,,,652.2720000119298,,response,,,,13,G,,,,,,Space,keypress(Space),,,,instrumental,,,,-------- industry --- --- ---- --- --- ------ -- --------<br>---- --------- --- ------- ------------ ---------- ---------<br>--- ---------- ------- ---------- ------- -- -------- ----<br>---- --- ------ ----- ------ -- ---- --- ----- -- - -------<br>-------- -- --- --- -- ----- ----------- ----- -----------<br>---- --- ---------- --- ---- --- -- ----------,242725.69999998808,242724.80000001192,242048.7,242058.5,242072.528,242731.458,,1,industry
screen,html.Screen,2_3_1_0_1_2,2022-05-02T15:18:48.211Z,,,,,,,,,,,,,,,,,51,,,,,,,,,,,,,,550.6419999642239,,response,,,,13,G,,,,,,Space,keypress(Space),,,,instrumental,,,,-------- -------- may --- ---- --- --- ------ -- --------<br>---- --------- --- ------- ------------ ---------- ---------<br>--- ---------- ------- ---------- ------- -- -------- ----<br>---- --- ------ ----- ------ -- ---- --- ----- -- - -------<br>-------- -- --- --- -- ----- ----------- ----- -----------<br>---- --- ---------- --- ---- --- -- ----------,243283.09999996424,243282.09999996424,242714.889,242725.80000001192,242731.458,243298.319,,2,may
screen,html.Screen,2_3_1_0_1_3,2022-05-02T15:18:48.655Z,,,,,,,,,,,,,,,,,51,,,,,,,,,,,,,,426.7809999642486,,response,,,,13,G,,,,,,Space,keypress(Space),,,,instrumental,,,,-------- -------- --- not ---- --- --- ------ -- --------<br>---- --------- --- ------- ------------ ---------- ---------<br>--- ---------- ------- ---------- ------- -- -------- ----<br>---- --- ------ ----- ------ -- ---- --- ----- -- - -------<br>-------- -- --- --- -- ----- ----------- ----- -----------<br>---- --- ---------- --- ---- --- -- ----------,243726.09999996424,243725.09999996424,243281.73,243283.19999998808,243298.319,243732.646,,3,not
screen,html.Screen,2_3_1_0_1_4,2022-05-02T15:18:49.104Z,,,,,,,,,,,,,,,,,51,,,,,,,,,,,,,,442.2539999761502,,response,,,,13,G,,,,,,Space,keypress(Space),,,,instrumental,,,,-------- -------- --- --- know --- --- ------ -- --------<br>---- --------- --- ------- ------------ ---------- ---------<br>--- ---------- ------- ---------- ------- -- -------- ----<br>---- --- ------ ----- ------ -- ---- --- ----- -- - -------<br>-------- -- --- --- -- ----- ----------- ----- -----------<br>---- --- ---------- --- ---- --- -- ----------,244176,244174.89999997616,243714.926,243726.19999998808,243732.646,244182.932,,4,know
screen,html.Screen,2_3_1_0_1_5,2022-05-02T15:18:49.502Z,,,,,,,,,,,,,,,,,51,,,,,,,,,,,,,,389.7679999880784,,response,,,,13,G,,,,,,Space,keypress(Space),,,,instrumental,,,,"-------- -------- --- --- ---- it, --- ------ -- --------<br>---- --------- --- ------- ------------ ---------- ---------<br>--- ---------- ------- ---------- ------- -- -------- ----<br>---- --- ------ ----- ------ -- ---- --- ----- -- - -------<br>-------- -- --- --- -- ----- ----------- ----- -----------<br>---- --- ---------- --- ---- --- -- ----------",244573.59999996424,244572.69999998808,244164.752,244176.19999998808,244182.932,244581.074,,5,"it,"
screen,html.Screen,2_3_1_0_1_6,2022-05-02T15:18:49.923Z,,,,,,,,,,,,,,,,,51,,,,,,,,,,,,,,412.6259999880858,,response,,,,13,G,,,,,,Space,keypress(Space),,,,instrumental,,,,-------- -------- --- --- ---- --- but ------ -- --------<br>---- --------- --- ------- ------------ ---------- ---------<br>--- ---------- ------- ---------- ------- -- -------- ----<br>---- --- ------ ----- ------ -- ---- --- ----- -- - -------<br>-------- -- --- --- -- ----- ----------- ----- -----------<br>---- --- ---------- --- ---- --- -- ----------,244995,244993.69999998808,244564.492,244573.80000001192,244581.074,244997.842,,6,but
screen,html.Screen,2_3_1_0_1_7,2022-05-02T15:18:50.251Z,,,,,,,,,,,,,,,,,51,,,,,,,,,,,,,,323.6579999999958,,response,,,,13,G,,,,,,Space,keypress(Space),,,,instrumental,,,,-------- -------- --- --- ---- --- --- debate -- --------<br>---- --------- --- ------- ------------ ---------- ---------<br>--- ---------- ------- ---------- ------- -- -------- ----<br>---- --- ------ ----- ------ -- ---- --- ----- -- - -------<br>-------- -- --- --- -- ----- ----------- ----- -----------<br>---- --- ---------- --- ---- --- -- ----------,245322.19999998808,245321.5,244981.109,244995.19999998808,244997.842,245331.214,,7,debate
screen,html.Screen,2_3_1_0_1_8,2022-05-02T15:18:50.615Z,,,,,,,,,,,,,,,,,51,,,,,,,,,,,,,,354.48599998807185,,response,,,,13,G,,,,,,Space,keypress(Space),,,,instrumental,,,,-------- -------- --- --- ---- --- --- ------ in --------<br>---- --------- --- ------- ------------ ---------- ---------<br>--- ---------- ------- ---------- ------- -- -------- ----<br>---- --- ------ ----- ------ -- ---- --- ----- -- - -------<br>-------- -- --- --- -- ----- ----------- ----- -----------<br>---- --- ---------- --- ---- --- -- ----------,245686.5,245685.69999998808,245314.626,245322.39999997616,245331.214,245697.905,,8,in
screen,html.Screen,2_3_1_0_1_9,2022-05-02T15:18:51.126Z,,,,,,,,,,,,,,,,,51,,,,,,,,,,,,,,499.09500000000116,,response,,,,13,G,,,,,,Space,keypress(Space),,,,instrumental,,,,-------- -------- --- --- ---- --- --- ------ -- Congress<br>---- --------- --- ------- ------------ ---------- ---------<br>--- ---------- ------- ---------- ------- -- -------- ----<br>---- --- ------ ----- ------ -- ---- --- ----- -- - -------<br>-------- -- --- --- -- ----- ----------- ----- -----------<br>---- --- ---------- --- ---- --- -- ----------,246197.80000001192,246197,245680.956,245686.69999998808,245697.905,246214.132,,9,Congress
screen,html.Screen,2_3_1_0_1_10,2022-05-02T15:18:51.605Z,,,,,,,,,,,,,,,,,51,,,,,,,,,,,,,,461.2679999761458,,response,,,,13,G,,,,,,Space,keypress(Space),,,,instrumental,,,,-------- -------- --- --- ---- --- --- ------ -- --------<br>over --------- --- ------- ------------ ---------- ---------<br>--- ---------- ------- ---------- ------- -- -------- ----<br>---- --- ------ ----- ------ -- ---- --- ----- -- - -------<br>-------- -- --- --- -- ----- ----------- ----- -----------<br>---- --- ---------- --- ---- --- -- ----------,246676.5,246675.39999997616,246197.835,246198,246214.132,246682.902,,10,over
screen,html.Screen,2_3_1_0_1_11,2022-05-02T15:18:52.002Z,,,,,,,,,,,,,,,,,51,,,,,,,,,,,,,,389.2979999880772,,response,,,,13,G,,,,,,Space,keypress(Space),,,,instrumental,,,,-------- -------- --- --- ---- --- --- ------ -- --------<br>---- reforming --- ------- ------------ ---------- ---------<br>--- ---------- ------- ---------- ------- -- -------- ----<br>---- --- ------ ----- ------ -- ---- --- ----- -- - -------<br>-------- -- --- --- -- ----- ----------- ----- -----------<br>---- --- ---------- --- ---- --- -- ----------,247073.30000001192,247072.19999998808,246664.071,246676.59999996424,246682.902,247082.112,,11,reforming
screen,html.Screen,2_3_1_0_1_12,2022-05-02T15:18:52.262Z,,,,,,,,,,,,,,,,,51,,,,,,,,,,,,,,250.78799997616443,,response,,,,13,G,,,,,,Space,keypress(Space),,,,instrumental,,,,-------- -------- --- --- ---- --- --- ------ -- --------<br>---- --------- the ------- ------------ ---------- ---------<br>--- ---------- ------- ---------- ------- -- -------- ----<br>---- --- ------ ----- ------ -- ---- --- ----- -- - -------<br>-------- -- --- --- -- ----- ----------- ----- -----------<br>---- --- ---------- --- ---- --- -- ----------,247333.80000001192,247332.89999997616,247064.018,247074.19999998808,247082.112,247347.531,,12,the
screen,html.Screen,2_3_1_0_1_13,2022-05-02T15:18:52.730Z,,,,,,,,,,,,,,,,,51,,,,,,,,,,,,,,452.86899997617,,response,,,,13,G,,,,,,Space,keypress(Space),,,,instrumental,,,,-------- -------- --- --- ---- --- --- ------ -- --------<br>---- --------- --- federal ------------ ---------- ---------<br>--- ---------- ------- ---------- ------- -- -------- ----<br>---- --- ------ ----- ------ -- ---- --- ----- -- - -------<br>-------- -- --- --- -- ----- ----------- ----- -----------<br>---- --- ---------- --- ---- --- -- ----------,247801.59999996424,247800.39999997616,247330.719,247334,247347.531,247814.381,,13,federal
screen,html.Screen,2_3_1_0_1_14,2022-05-02T15:18:53.087Z,,,,,,,,,,,,,,,,,51,,,,,,,,,,,,,,343.419000011927,,response,,,,13,G,,,,,,Space,keypress(Space),,,,instrumental,,,,-------- -------- --- --- ---- --- --- ------ -- --------<br>---- --------- --- ------- government's ---------- ---------<br>--- ---------- ------- ---------- ------- -- -------- ----<br>---- --- ------ ----- ------ -- ---- --- ----- -- - -------<br>-------- -- --- --- -- ----- ----------- ----- -----------<br>---- --- ---------- --- ---- --- -- ----------,248158.69999998808,248157.80000001192,247797.191,247801.80000001192,247814.381,248164.465,,14,government's
screen,html.Screen,2_3_1_0_1_15,2022-05-02T15:18:53.509Z,,,,,,,,,,,,,,,,,51,,,,,,,,,,,,,,414.8350000119244,,response,,,,13,G,,,,,,Space,keypress(Space),,,,instrumental,,,,-------- -------- --- --- ---- --- --- ------ -- --------<br>---- --------- --- ------- ------------ regulatory ---------<br>--- ---------- ------- ---------- ------- -- -------- ----<br>---- --- ------ ----- ------ -- ---- --- ----- -- - -------<br>-------- -- --- --- -- ----- ----------- ----- -----------<br>---- --- ---------- --- ---- --- -- ----------,248580.5,248579.30000001192,248147.386,248158.80000001192,248164.465,248597.327,,15,regulatory
screen,html.Screen,2_3_1_0_1_16,2022-05-02T15:18:54.046Z,,,,,,,,,,,,,,,,,51,,,,,,,,,,,,,,519.3729999880888,,response,,,,13,G,,,,,,Space,keypress(Space),,,,instrumental,,,,-------- -------- --- --- ---- --- --- ------ -- --------<br>---- --------- --- ------- ------------ ---------- apparatus<br>--- ---------- ------- ---------- ------- -- -------- ----<br>---- --- ------ ----- ------ -- ---- --- ----- -- - -------<br>-------- -- --- --- -- ----- ----------- ----- -----------<br>---- --- ---------- --- ---- --- -- ----------,249117.89999997616,249116.69999998808,248580.525,248580.59999996424,248597.327,249130.212,,16,apparatus
screen,html.Screen,2_3_1_0_1_17,2022-05-02T15:18:54.526Z,,,,,,,,,,,,,,,,,51,,,,,,,,,,,,,,466.8879999642377,,response,,,,13,G,,,,,,Space,keypress(Space),,,,instrumental,,,,-------- -------- --- --- ---- --- --- ------ -- --------<br>---- --------- --- ------- ------------ ---------- ---------<br>may ---------- ------- ---------- ------- -- -------- ----<br>---- --- ------ ----- ------ -- ---- --- ----- -- - -------<br>-------- -- --- --- -- ----- ----------- ----- -----------<br>---- --- ---------- --- ---- --- -- ----------,249597.69999998808,249597.09999996424,249113.594,249118,249130.212,249613.449,,17,may
screen,html.Screen,2_3_1_0_1_18,2022-05-02T15:18:54.772Z,,,,,,,,,,,,,,,,,51,,,,,,,,,,,,,,229.25099998808582,,response,,,,13,G,,,,,,Space,keypress(Space),,,,instrumental,,,,-------- -------- --- --- ---- --- --- ------ -- --------<br>---- --------- --- ------- ------------ ---------- ---------<br>--- profoundly ------- ---------- ------- -- -------- ----<br>---- --- ------ ----- ------ -- ---- --- ----- -- - -------<br>-------- -- --- --- -- ----- ----------- ----- -----------<br>---- --- ---------- --- ---- --- -- ----------,249843.5,249842.69999998808,249597.086,249597.89999997616,249613.449,249847.922,,18,profoundly
screen,html.Screen,2_3_1_0_1_19,2022-05-02T15:18:55.211Z,,,,,,,,,,,,,,,,,51,,,,,,,,,,,,,,433.37800001192954,,response,,,,13,G,,,,,,Space,keypress(Space),,,,instrumental,,,,-------- -------- --- --- ---- --- --- ------ -- --------<br>---- --------- --- ------- ------------ ---------- ---------<br>--- ---------- improve ---------- ------- -- -------- ----<br>---- --- ------ ----- ------ -- ---- --- ----- -- - -------<br>-------- -- --- --- -- ----- ----------- ----- -----------<br>---- --- ---------- --- ---- --- -- ----------,250282.09999996424,250281.30000001192,249830.167,249843.69999998808,249847.922,250296.65,,19,improve
screen,html.Screen,2_3_1_0_1_20,2022-05-02T15:18:55.804Z,,,,,,,,,,,,,,,,,51,,,,,,,,,,,,,,576.749999976164,,response,,,,13,G,,,,,,Space,keypress(Space),,,,instrumental,,,,-------- -------- --- --- ---- --- --- ------ -- --------<br>---- --------- --- ------- ------------ ---------- ---------<br>--- ---------- ------- companies' ------- -- -------- ----<br>---- --- ------ ----- ------ -- ---- --- ----- -- - -------<br>-------- -- --- --- -- ----- ----------- ----- -----------<br>---- --- ---------- --- ---- --- -- ----------,250875.30000001192,250873.39999997616,250280.017,250282.30000001192,250296.65,250882.001,,20,companies'
screen,html.Screen,2_3_1_0_1_21,2022-05-02T15:18:56.092Z,,,,,,,,,,,,,,,,,51,,,,,,,,,,,,,,280.4990000000107,,response,,,,13,G,,,,,,Space,keypress(Space),,,,instrumental,,,,-------- -------- --- --- ---- --- --- ------ -- --------<br>---- --------- --- ------- ------------ ---------- ---------<br>--- ---------- ------- ---------- ability -- -------- ----<br>---- --- ------ ----- ------ -- ---- --- ----- -- - -------<br>-------- -- --- --- -- ----- ----------- ----- -----------<br>---- --- ---------- --- ---- --- -- ----------,251163.19999998808,251162.5,250863.545,250875.39999997616,250882.001,251179.899,,21,ability
screen,html.Screen,2_3_1_0_1_22,2022-05-02T15:18:56.398Z,,,,,,,,,,,,,,,,,51,,,,,,,,,,,,,,288.8009999880742,,response,,,,13,G,,,,,,Space,keypress(Space),,,,instrumental,,,,-------- -------- --- --- ---- --- --- ------ -- --------<br>---- --------- --- ------- ------------ ---------- ---------<br>--- ---------- ------- ---------- ------- to -------- ----<br>---- --- ------ ----- ------ -- ---- --- ----- -- - -------<br>-------- -- --- --- -- ----- ----------- ----- -----------<br>---- --- ---------- --- ---- --- -- ----------,251469.89999997616,251468.69999998808,251163.443,251163.39999997616,251179.899,251479.74,,22,to
screen,html.Screen,2_3_1_0_1_23,2022-05-02T15:18:56.675Z,,,,,,,,,,,,,,,,,51,,,,,,,,,,,,,,265.8599999642465,,response,,,,13,G,,,,,,Space,keypress(Space),,,,instrumental,,,,-------- -------- --- --- ---- --- --- ------ -- --------<br>---- --------- --- ------- ------------ ---------- ---------<br>--- ---------- ------- ---------- ------- -- survive. ----<br>---- --- ------ ----- ------ -- ---- --- ----- -- - -------<br>-------- -- --- --- -- ----- ----------- ----- -----------<br>---- --- ---------- --- ---- --- -- ----------,251746.5,251745.59999996424,251463.364,251470.09999996424,251479.74,251763.324,,23,survive.
screen,html.Screen,2_3_1_0_1_24,2022-05-02T15:18:57.020Z,,,,,,,,,,,,,,,,,51,,,,,,,,,,,,,,327.67600000000675,,response,,,,13,G,,,,,,Space,keypress(Space),,,,instrumental,,,,-------- -------- --- --- ---- --- --- ------ -- --------<br>---- --------- --- ------- ------------ ---------- ---------<br>--- ---------- ------- ---------- ------- -- -------- This<br>---- --- ------ ----- ------ -- ---- --- ----- -- - -------<br>-------- -- --- --- -- ----- ----------- ----- -----------<br>---- --- ---------- --- ---- --- -- ----------,252091.80000001192,252091,251746.379,251746.69999998808,251763.324,252096.431,,24,This
screen,html.Screen,2_3_1_0_1_25,2022-05-02T15:18:57.434Z,,,,,,,,,,,,,,,,,51,,,,,,,,,,,,,,407.8690000119095,,response,,,,13,G,,,,,,Space,keypress(Space),,,,instrumental,,,,-------- -------- --- --- ---- --- --- ------ -- --------<br>---- --------- --- ------- ------------ ---------- ---------<br>--- ---------- ------- ---------- ------- -- -------- ----<br>week --- ------ ----- ------ -- ---- --- ----- -- - -------<br>-------- -- --- --- -- ----- ----------- ----- -----------<br>---- --- ---------- --- ---- --- -- ----------,252505.69999998808,252504.30000001192,252079.641,252092,252096.431,252512.942,,25,week
screen,html.Screen,2_3_1_0_1_26,2022-05-02T15:18:57.659Z,,,,,,,,,,,,,,,,,51,,,,,,,,,,,,,,217.45799997614813,,response,,,,13,G,,,,,,Space,keypress(Space),,,,instrumental,,,,-------- -------- --- --- ---- --- --- ------ -- --------<br>---- --------- --- ------- ------------ ---------- ---------<br>--- ---------- ------- ---------- ------- -- -------- ----<br>---- the ------ ----- ------ -- ---- --- ----- -- - -------<br>-------- -- --- --- -- ----- ----------- ----- -----------<br>---- --- ---------- --- ---- --- -- ----------,252731,252730.39999997616,252496.343,252505.80000001192,252512.942,252746.14,,26,the
screen,html.Screen,2_3_1_0_1_27,2022-05-02T15:18:58.014Z,,,,,,,,,,,,,,,,,51,,,,,,,,,,,,,,337.16000001190696,,response,,,,13,G,,,,,,Space,keypress(Space),,,,instrumental,,,,-------- -------- --- --- ---- --- --- ------ -- --------<br>---- --------- --- ------- ------------ ---------- ---------<br>--- ---------- ------- ---------- ------- -- -------- ----<br>---- --- Senate ----- ------ -- ---- --- ----- -- - -------<br>-------- -- --- --- -- ----- ----------- ----- -----------<br>---- --- ---------- --- ---- --- -- ----------,253085.39999997616,253083.30000001192,252729.502,252731.09999996424,252746.14,253096.32,,27,Senate
screen,html.Screen,2_3_1_0_1_28,2022-05-02T15:18:58.297Z,,,,,,,,,,,,,,,,,51,,,,,,,,,,,,,,271.57999997615116,,response,,,,13,G,,,,,,Space,keypress(Space),,,,instrumental,,,,-------- -------- --- --- ---- --- --- ------ -- --------<br>---- --------- --- ------- ------------ ---------- ---------<br>--- ---------- ------- ---------- ------- -- -------- ----<br>---- --- ------ seems ------ -- ---- --- ----- -- - -------<br>-------- -- --- --- -- ----- ----------- ----- -----------<br>---- --- ---------- --- ---- --- -- ----------,253368.69999998808,253367.89999997616,253079.452,253085.5,253096.32,253379.681,,28,seems
screen,html.Screen,2_3_1_0_1_29,2022-05-02T15:18:58.820Z,,,,,,,,,,,,,,,,,51,,,,,,,,,,,,,,511.4189999642258,,response,,,,13,G,,,,,,Space,keypress(Space),,,,instrumental,,,,-------- -------- --- --- ---- --- --- ------ -- --------<br>---- --------- --- ------- ------------ ---------- ---------<br>--- ---------- ------- ---------- ------- -- -------- ----<br>---- --- ------ ----- poised -- ---- --- ----- -- - -------<br>-------- -- --- --- -- ----- ----------- ----- -----------<br>---- --- ---------- --- ---- --- -- ----------,253891.89999997616,253891.09999996424,253362.861,253368.89999997616,253379.681,253895.907,,29,poised
screen,html.Screen,2_3_1_0_1_30,2022-05-02T15:18:59.096Z,,,,,,,,,,,,,,,,,51,,,,,,,,,,,,,,270.3930000119144,,response,,,,13,G,,,,,,Space,keypress(Space),,,,instrumental,,,,-------- -------- --- --- ---- --- --- ------ -- --------<br>---- --------- --- ------- ------------ ---------- ---------<br>--- ---------- ------- ---------- ------- -- -------- ----<br>---- --- ------ ----- ------ to ---- --- ----- -- - -------<br>-------- -- --- --- -- ----- ----------- ----- -----------<br>---- --- ---------- --- ---- --- -- ----------,254167.69999998808,254166.30000001192,253879.618,253892,253895.907,254179.222,,30,to
screen,html.Screen,2_3_1_0_1_31,2022-05-02T15:18:59.342Z,,,,,,,,,,,,,,,,,51,,,,,,,,,,,,,,233.6779999761493,,response,,,,13,G,,,,,,Space,keypress(Space),,,,instrumental,,,,-------- -------- --- --- ---- --- --- ------ -- --------<br>---- --------- --- ------- ------------ ---------- ---------<br>--- ---------- ------- ---------- ------- -- -------- ----<br>---- --- ------ ----- ------ -- join --- ----- -- - -------<br>-------- -- --- --- -- ----- ----------- ----- -----------<br>---- --- ---------- --- ---- --- -- ----------,254414,254412.89999997616,254162.778,254167.80000001192,254179.222,254429.471,,31,join
screen,html.Screen,2_3_1_0_1_32,2022-05-02T15:18:59.671Z,,,,,,,,,,,,,,,,,51,,,,,,,,,,,,,,311.7289999880886,,response,,,,13,G,,,,,,Space,keypress(Space),,,,instrumental,,,,-------- -------- --- --- ---- --- --- ------ -- --------<br>---- --------- --- ------- ------------ ---------- ---------<br>--- ---------- ------- ---------- ------- -- -------- ----<br>---- --- ------ ----- ------ -- ---- the ----- -- - -------<br>-------- -- --- --- -- ----- ----------- ----- -----------<br>---- --- ---------- --- ---- --- -- ----------,254742.69999998808,254741.19999998808,254412.816,254414.19999998808,254429.471,254747.702,,32,the
screen,html.Screen,2_3_1_0_1_33,2022-05-02T15:18:59.976Z,,,,,,,,,,,,,,,,,51,,,,,,,,,,,,,,299.5980000119307,,response,,,,13,G,,,,,,Space,keypress(Space),,,,instrumental,,,,-------- -------- --- --- ---- --- --- ------ -- --------<br>---- --------- --- ------- ------------ ---------- ---------<br>--- ---------- ------- ---------- ------- -- -------- ----<br>---- --- ------ ----- ------ -- ---- --- House -- - -------<br>-------- -- --- --- -- ----- ----------- ----- -----------<br>---- --- ---------- --- ---- --- -- ----------,255048.09999996424,255047.30000001192,254729.12,254742.89999997616,254747.702,255062.793,,33,House
screen,html.Screen,2_3_1_0_1_34,2022-05-02T15:19:00.217Z,,,,,,,,,,,,,,,,,51,,,,,,,,,,,,,,225.10699997615302,,response,,,,13,G,,,,,,Space,keypress(Space),,,,instrumental,,,,-------- -------- --- --- ---- --- --- ------ -- --------<br>---- --------- --- ------- ------------ ---------- ---------<br>--- ---------- ------- ---------- ------- -- -------- ----<br>---- --- ------ ----- ------ -- ---- --- ----- in - -------<br>-------- -- --- --- -- ----- ----------- ----- -----------<br>---- --- ---------- --- ---- --- -- ----------,255288.59999996424,255287.89999997616,255045.744,255048.19999998808,255062.793,255295.636,,34,in
screen,html.Screen,2_3_1_0_1_35,2022-05-02T15:19:00.497Z,,,,,,,,,,,,,,,,,51,,,,,,,,,,,,,,271.9639999642386,,response,,,,13,G,,,,,,Space,keypress(Space),,,,instrumental,,,,-------- -------- --- --- ---- --- --- ------ -- --------<br>---- --------- --- ------- ------------ ---------- ---------<br>--- ---------- ------- ---------- ------- -- -------- ----<br>---- --- ------ ----- ------ -- ---- --- ----- -- a -------<br>-------- -- --- --- -- ----- ----------- ----- -----------<br>---- --- ---------- --- ---- --- -- ----------,255568.89999997616,255567.59999996424,255279.149,255288.80000001192,255295.636,255579.039,,35,a
screen,html.Screen,2_3_1_0_1_36,2022-05-02T15:19:00.699Z,,,,,,,,,,,,,,,,,51,,,,,,,,,,,,,,190.56099996424746,,response,,,,13,G,,,,,,Space,keypress(Space),,,,instrumental,,,,-------- -------- --- --- ---- --- --- ------ -- --------<br>---- --------- --- ------- ------------ ---------- ---------<br>--- ---------- ------- ---------- ------- -- -------- ----<br>---- --- ------ ----- ------ -- ---- --- ----- -- - massive<br>-------- -- --- --- -- ----- ----------- ----- -----------<br>---- --- ---------- --- ---- --- -- ----------,255770.5,255769.59999996424,255562.293,255569,255579.039,255778.846,,36,massive
screen,html.Screen,2_3_1_0_1_37,2022-05-02T15:19:01.257Z,,,,,,,,,,,,,,,,,51,,,,,,,,,,,,,,548.9540000119305,,response,,,,13,G,,,,,,Space,keypress(Space),,,,instrumental,,,,-------- -------- --- --- ---- --- --- ------ -- --------<br>---- --------- --- ------- ------------ ---------- ---------<br>--- ---------- ------- ---------- ------- -- -------- ----<br>---- --- ------ ----- ------ -- ---- --- ----- -- - -------<br>overhaul -- --- --- -- ----- ----------- ----- -----------<br>---- --- ---------- --- ---- --- -- ----------,256328.80000001192,256327.80000001192,255762.514,255770.69999998808,255778.846,256345.611,,37,overhaul
screen,html.Screen,2_3_1_0_1_38,2022-05-02T15:19:01.746Z,,,,,,,,,,,,,,,,,51,,,,,,,,,,,,,,471.08899998807465,,response,,,,13,G,,,,,,Space,keypress(Space),,,,instrumental,,,,-------- -------- --- --- ---- --- --- ------ -- --------<br>---- --------- --- ------- ------------ ---------- ---------<br>--- ---------- ------- ---------- ------- -- -------- ----<br>---- --- ------ ----- ------ -- ---- --- ----- -- - -------<br>-------- of --- --- -- ----- ----------- ----- -----------<br>---- --- ---------- --- ---- --- -- ----------,256817.69999998808,256816.69999998808,256328.845,256329,256345.611,256828.686,,38,of
