sender,sender_type,sender_id,timestamp,meta,,Blues,Classical,Country,Dance,Electronic,Folk,Gospel,Hip-Hop,Jazz,Latin,Musical/Film,New-age,Pop,Prolific_id,Provo_ID,R&B,Rap,Reggae,Religious,Rock,Soul,Swing,Traditional,age,artist_name,correct,correctResponse,distraction,duration,education,ended_on,familiarity,gender,headphone_check_performance,item,list,music_frequency,offensiveness,pleasantness,position_correct,preference,response,response_action,snippet_file,song_name,song_rating,sound,stimulus_1,stimulus_2,stimulus_3,text,time_commit,time_end,time_render,time_run,time_show,time_switch,url,word,word_ID
Prolific ID,html.Form,0,2022-05-03T18:08:59.130Z,"{""labjs_version"":""20.2.2"",""labjs_build"":{""flavor"":""production"",""commit"":""a25486e0c714a0ae2ce03ff94b7bb6896854dcfa""},""location"":""https://run.pavlovia.org/mvasilev/prolific3_music_a/"",""userAgent"":""Mozilla/5.0 (Windows NT 10.0; Win64; x64) AppleWebKit/537.36 (KHTML, like Gecko) Chrome/100.0.4896.127 Safari/537.36"",""platform"":""Win32"",""language"":""en-GB"",""locale"":""en-US"",""timeZone"":""Europe/London"",""timezoneOffset"":-60,""screen_width"":1366,""screen_height"":768,""scroll_width"":1366,""scroll_height"":601,""window_innerWidth"":1366,""window_innerHeight"":649,""devicePixelRatio"":1}",,,,,,,,,,,,,,,5d8cef3c28e183001a335ab0,,,,,,,,,,,,,,,18073.167999999976,,form submission,,,,,,,,,,,,,,,,,,,,,56058.5,56055.09999999998,37848.032,37792.29999999999,37981.932,56114.424,{},,
Introduction,html.Screen,1_0,2022-05-03T18:09:02.908Z,,,,,,,,,,,,,,,,,,,,,,,,,,,,,,,3718.975999999966,,response,,,,,,,,,,,continue,click button,,,,,,,,,59836.399999999965,59833.399999999965,56031.076,56058.899999999965,56114.424,59880.903,,,
Volume calibration,html.Screen,1_1,2022-05-03T18:09:11.494Z,,,,,,,,,,,,,,,,,,,,,,,,,,,,,,,8519.097000000002,,response,,,,,,,,,,,continue,click button,,,,,,,,,68422.20000000001,68400,59830.887,59836.5,59880.903,68430.775,,,
Task instructions,html.Screen,1_2,2022-05-03T18:09:15.781Z,,,,,,,,,,,,,,,,,,,,,,,,,,,,,,,4277.624999999971,,response,,,,,,,,,,,continue,click button,,,,,,,,,72709.70000000001,72708.39999999997,68397.188,68422.20000000001,68430.775,72714.346,,,
Sounds,html.Screen,1_3_0_0,2022-05-03T18:09:20.025Z,,,,,,,,,,,,,,,,,,,,,,,,,,,,,,,4249.053999999989,,timeout,,,,,,,,,1,,,,,,,,S,I,O,,76953,76946.744,72696.948,72709.89999999997,72714.346,76963.4,,,
Judgement,html.Screen,1_3_0_1,2022-05-03T18:09:21.996Z,,,,,,,,,,,,,,,,,,,,,,,,,,,,true,1,,1959.3999999999942,,response,,,,,,,,,1,,1,click #choice-1,,,,,S,I,O,,78924,78922.79999999999,76946.744,76953.20000000001,76963.4,78929.986,,,
Trial,flow.Sequence,1_3_0,2022-05-03T18:09:21.996Z,,,,,,,,,,,,,,,,,,,,,,,,,,,,,,,6208.453999999983,,completion,,,,,,,,,1,,,,,,,,S,I,O,,78924.70000000001,78922.79999999999,72696.948,72709.89999999997,72714.346,78929.986,,,
Sounds,html.Screen,1_3_1_0,2022-05-03T18:09:26.237Z,,,,,,,,,,,,,,,,,,,,,,,,,,,,,,,4249.868000000002,,timeout,,,,,,,,,3,,,,,,,,O,I,S,,83164.79999999999,83163.114,78913.311,78925,78929.986,83179.854,,,
Judgement,html.Screen,1_3_1_1,2022-05-03T18:09:26.945Z,,,,,,,,,,,,,,,,,,,,,,,,,,,,true,3,,691.1459999999934,,response,,,,,,,,,3,,3,click #choice-3,,,,,O,I,S,,83872.89999999997,83871,83163.114,83165,83179.854,83879.723,,,
Trial,flow.Sequence,1_3_1,2022-05-03T18:09:26.945Z,,,,,,,,,,,,,,,,,,,,,,,,,,,,,,,4941.013999999996,,completion,,,,,,,,,3,,,,,,,,O,I,S,,83873.39999999997,83871,78913.311,78925,78929.986,83879.723,,,
Sounds,html.Screen,1_3_2_0,2022-05-03T18:09:31.187Z,,,,,,,,,,,,,,,,,,,,,,,,,,,,,,,4250.838000000003,,timeout,,,,,,,,,1,,,,,,,,S,O,I,,88115.09999999998,88112.93,83863.082,83873.59999999998,83879.723,88130.561,,,
Judgement,html.Screen,1_3_2_1,2022-05-03T18:09:31.877Z,,,,,,,,,,,,,,,,,,,,,,,,,,,,true,1,,673.8389999999636,,response,,,,,,,,,1,,1,click #choice-1,,,,,S,O,I,,88805.79999999999,88804.39999999997,88112.93,88115.29999999999,88130.561,88812.817,,,
Trial,flow.Sequence,1_3_2,2022-05-03T18:09:31.878Z,,,,,,,,,,,,,,,,,,,,,,,,,,,,,,,4924.676999999967,,completion,,,,,,,,,1,,,,,,,,S,O,I,,88806.09999999998,88804.39999999997,83863.082,83873.5,83879.723,88812.817,,,
Sounds,html.Screen,1_3_3_0,2022-05-03T18:09:36.119Z,,,,,,,,,,,,,,,,,,,,,,,,,,,,,,,4258.0320000000065,,timeout,,,,,,,,,3,,,,,,,,I,O,S,,93047.20000000001,93045.974,88796.195,88806.29999999999,88812.817,93070.849,,,
Judgement,html.Screen,1_3_3_1,2022-05-03T18:09:36.860Z,,,,,,,,,,,,,,,,,,,,,,,,,,,,true,3,,715.9509999999864,,response,,,,,,,,,3,,3,click #choice-3,,,,,I,O,S,,93788.29999999999,93786.79999999999,93045.974,93047.39999999997,93070.849,93795.915,,,
Trial,flow.Sequence,1_3_3,2022-05-03T18:09:36.860Z,,,,,,,,,,,,,,,,,,,,,,,,,,,,,,,4973.982999999993,,completion,,,,,,,,,3,,,,,,,,I,O,S,,93788.5,93786.79999999999,88796.195,88806.29999999999,88812.817,93795.915,,,
Sounds,html.Screen,1_3_4_0,2022-05-03T18:09:41.102Z,,,,,,,,,,,,,,,,,,,,,,,,,,,,,,,4249.814000000013,,timeout,,,,,,,,,2,,,,,,,,I,S,O,,98029.89999999997,98029.072,93779.401,93788.70000000001,93795.915,98045.729,,,
Judgement,html.Screen,1_3_4_1,2022-05-03T18:09:41.725Z,,,,,,,,,,,,,,,,,,,,,,,,,,,,true,2,,605.971000000005,,response,,,,,,,,,2,,2,click #choice-2,,,,,I,S,O,,98653.29999999999,98651.70000000001,98029.072,98030,98045.729,98662.627,,,
Trial,flow.Sequence,1_3_4,2022-05-03T18:09:41.725Z,,,,,,,,,,,,,,,,,,,,,,,,,,,,,,,4855.785000000018,,completion,,,,,,,,,2,,,,,,,,I,S,O,,98653.39999999997,98651.70000000001,93779.401,93788.70000000001,93795.915,98662.627,,,
Sounds,html.Screen,1_3_5_0,2022-05-03T18:09:45.968Z,,,,,,,,,,,,,,,,,,,,,,,,,,,,,,,4249.835000000006,,timeout,,,,,,,,,2,,,,,,,,O,S,I,,102896.29999999999,102895.507,98645.754,98653.5,98662.627,102912.462,,,
Judgement,html.Screen,1_3_5_1,2022-05-03T18:09:46.595Z,,,,,,,,,,,,,,,,,,,,,,,,,,,,true,2,,608.9379999999655,,response,,,,,,,,,2,,2,click #choice-2,,,,,O,S,I,,103523.29999999999,103521.39999999997,102895.507,102896.39999999997,102912.462,103528.884,,,
Trial,flow.Sequence,1_3_5,2022-05-03T18:09:46.595Z,,,,,,,,,,,,,,,,,,,,,,,,,,,,,,,4858.772999999972,,completion,,,,,,,,,2,,,,,,,,O,S,I,,103523.5,103521.39999999997,98645.754,98653.5,98662.627,103528.884,,,
Task,flow.Loop,1_3,2022-05-03T18:09:46.603Z,,,,,,,,,,,,,,,,,,,,,,,,,,,,,,,30807.05399999996,,completion,,,1,,,,,,,,,,,,,,,,,,103531.09999999998,103521.39999999997,72696.948,72709.89999999997,72714.346,103528.884,,,
Trap,html.Screen,1_4,2022-05-03T18:09:46.606Z,,,,,,,,,,,,,,,,,,,,,,,,,,,,,,,NaN,,skipped,,,,,,,,,,,,,,,,,,,,,103534.29999999999,103521.39999999997,,103534.09999999998,,103528.884,,,
Thanks,html.Screen,1_5,2022-05-03T18:09:49.444Z,,,,,,,,,,,,,,,,,,,,,,,,,,,,,,,2841.5159999999596,,response,,,,,,,,,,,continue,click button,,,,,,,,,106371.89999999997,106370.39999999997,103512.151,103534.5,103528.884,109895.206,,,
Headphone screening,flow.Sequence,1,2022-05-03T18:09:49.444Z,,,,,,,,,,,,,,,,,,,,,,,,,,,,,,,50255.975999999966,,completion,,,,,,,,,,,,,,,,,,,,,106372.20000000001,106370.39999999997,56031.076,56058.899999999965,56114.424,109895.206,,,
Instructions,html.Page,2_0,2022-05-03T18:10:06.246Z,,,,,,,,,,,,,,,,,,,,,,,,,,,,,,,13278.293999999994,,form submission,,,,,,,,,,,,,,,,,,,,,123173.89999999997,123173.5,109812.611,109885.5,109895.206,123177.883,,,
Holding screen,html.Screen,2_1_0_0,2022-05-03T18:10:16.233Z,,,,,,,,,,,,,,,,,,,,,,,,,,,,,,,10016.182,,timeout,,,,,,,,,,,,,,,,,,,,,133161.3,133160.717,123161.206,123174.20000000001,123177.883,133194.065,,,
screen,html.Screen,2_1_0_1_0,2022-05-03T18:10:17.152Z,,,,,,,,,,,,,,,,,53,,,,,,,,,,,,,,883.4349999999977,,response,,,,99,,,,,,,Space,keypress(Space),,,,,,,,When -- ----- -- ------ - ------- --- ----------<br>------------- ------ ------ ---- ---- ------- ----- -- ----<br>-------- ------- -- ---------- --- - --- ----- ----- ----<br>---- --- --- ----- --- ---- ---- ------- ----- ---- -------<br>--- --- -- ----- -- --- ---- -- --- ---- -- ------ ------<br>--- ----- -- ----,134080.2,134077.5,133160.717,133161.39999999997,133194.065,134093.991,,0,When
screen,html.Screen,2_1_0_1_1,2022-05-03T18:10:17.524Z,,,,,,,,,,,,,,,,,53,,,,,,,,,,,,,,357.10899999996764,,response,,,,99,,,,,,,Space,keypress(Space),,,,,,,,---- it ----- -- ------ - ------- --- ----------<br>------------- ------ ------ ---- ---- ------- ----- -- ----<br>-------- ------- -- ---------- --- - --- ----- ----- ----<br>---- --- --- ----- --- ---- ---- ------- ----- ---- -------<br>--- --- -- ----- -- --- ---- -- --- ---- -- ------ ------<br>--- ----- -- ----,134452,134451.09999999998,134077.327,134080.3,134093.991,134460.641,,1,it
screen,html.Screen,2_1_0_1_2,2022-05-03T18:10:17.810Z,,,,,,,,,,,,,,,,,53,,,,,,,,,,,,,,276.1589999999851,,response,,,,99,,,,,,,Space,keypress(Space),,,,,,,,---- -- comes -- ------ - ------- --- ----------<br>------------- ------ ------ ---- ---- ------- ----- -- ----<br>-------- ------- -- ---------- --- - --- ----- ----- ----<br>---- --- --- ----- --- ---- ---- ------- ----- ---- -------<br>--- --- -- ----- -- --- ---- -- --- ---- -- ------ ------<br>--- ----- -- ----,134737.59999999998,134736.8,134444.037,134453,134460.641,134744.034,,2,comes
screen,html.Screen,2_1_0_1_3,2022-05-03T18:10:18.132Z,,,,,,,,,,,,,,,,,53,,,,,,,,,,,,,,315.3659999999509,,response,,,,99,,,,,,,Space,keypress(Space),,,,,,,,---- -- ----- to ------ - ------- --- ----------<br>------------- ------ ------ ---- ---- ------- ----- -- ----<br>-------- ------- -- ---------- --- - --- ----- ----- ----<br>---- --- --- ----- --- ---- ---- ------- ----- ---- -------<br>--- --- -- ----- -- --- ---- -- --- ---- -- ------ ------<br>--- ----- -- ----,135060.3,135059.39999999997,134727.312,134737.8,134744.034,135077.32,,3,to
screen,html.Screen,2_1_0_1_4,2022-05-03T18:10:18.444Z,,,,,,,,,,,,,,,,,53,,,,,,,,,,,,,,292.9799999999814,,response,,,,99,,,,,,,Space,keypress(Space),,,,,,,,---- -- ----- -- having - ------- --- ----------<br>------------- ------ ------ ---- ---- ------- ----- -- ----<br>-------- ------- -- ---------- --- - --- ----- ----- ----<br>---- --- --- ----- --- ---- ---- ------- ----- ---- -------<br>--- --- -- ----- -- --- ---- -- --- ---- -- ------ ------<br>--- ----- -- ----,135372,135370.3,135060.636,135060.5,135077.32,135377.252,,4,having
screen,html.Screen,2_1_0_1_5,2022-05-03T18:10:18.691Z,,,,,,,,,,,,,,,,,53,,,,,,,,,,,,,,241.34799999996903,,response,,,,99,,,,,,,Space,keypress(Space),,,,,,,,---- -- ----- -- ------ a ------- --- ----------<br>------------- ------ ------ ---- ---- ------- ----- -- ----<br>-------- ------- -- ---------- --- - --- ----- ----- ----<br>---- --- --- ----- --- ---- ---- ------- ----- ---- -------<br>--- --- -- ----- -- --- ---- -- --- ---- -- ------ ------<br>--- ----- -- ----,135619.39999999997,135618.59999999998,135360.64,135372.09999999998,135377.252,135627.258,,5,a
screen,html.Screen,2_1_0_1_6,2022-05-03T18:10:19.009Z,,,,,,,,,,,,,,,,,53,,,,,,,,,,,,,,309.14199999996345,,response,,,,99,,,,,,,Space,keypress(Space),,,,,,,,---- -- ----- -- ------ - lasting --- ----------<br>------------- ------ ------ ---- ---- ------- ----- -- ----<br>-------- ------- -- ---------- --- - --- ----- ----- ----<br>---- --- --- ----- --- ---- ---- ------- ----- ---- -------<br>--- --- -- ----- -- --- ---- -- --- ---- -- ------ ------<br>--- ----- -- ----,135937.3,135936.39999999997,135610.608,135619.59999999998,135627.258,135943.955,,6,lasting
screen,html.Screen,2_1_0_1_7,2022-05-03T18:10:19.263Z,,,,,,,,,,,,,,,,,53,,,,,,,,,,,,,,245.84500000000116,,response,,,,99,,,,,,,Space,keypress(Space),,,,,,,,---- -- ----- -- ------ - ------- and ----------<br>------------- ------ ------ ---- ---- ------- ----- -- ----<br>-------- ------- -- ---------- --- - --- ----- ----- ----<br>---- --- --- ----- --- ---- ---- ------- ----- ---- -------<br>--- --- -- ----- -- --- ---- -- --- ---- -- ------ ------<br>--- ----- -- ----,136190.59999999998,136189.8,135927.263,135937.39999999997,135943.955,136193.916,,7,and
screen,html.Screen,2_1_0_1_8,2022-05-03T18:10:19.558Z,,,,,,,,,,,,,,,,,53,,,,,,,,,,,,,,291.58400000000256,,response,,,,99,,,,,,,Space,keypress(Space),,,,,,,,---- -- ----- -- ------ - ------- --- fulfilling<br>------------- ------ ------ ---- ---- ------- ----- -- ----<br>-------- ------- -- ---------- --- - --- ----- ----- ----<br>---- --- --- ----- --- ---- ---- ------- ----- ---- -------<br>--- --- -- ----- -- --- ---- -- --- ---- -- ------ ------<br>--- ----- -- ----,136486.39999999997,136485.5,136177.25,136190.8,136193.916,136494.084,,8,fulfilling
screen,html.Screen,2_1_0_1_9,2022-05-03T18:10:19.922Z,,,,,,,,,,,,,,,,,53,,,,,,,,,,,,,,355.41599999999744,,response,,,,99,,,,,,,Space,keypress(Space),,,,,,,,"---- -- ----- -- ------ - ------- --- ----------<br>relationship, ------ ------ ---- ---- ------- ----- -- ----<br>-------- ------- -- ---------- --- - --- ----- ----- ----<br>---- --- --- ----- --- ---- ---- ------- ----- ---- -------<br>--- --- -- ----- -- --- ---- -- --- ---- -- ------ ------<br>--- ----- -- ----",136850.39999999997,136849.5,136477.28,136486.59999999998,136494.084,136860.567,,9,"relationship,"
screen,html.Screen,2_1_0_1_10,2022-05-03T18:10:20.232Z,,,,,,,,,,,,,,,,,53,,,,,,,,,,,,,,298.73299999997835,,response,,,,99,,,,,,,Space,keypress(Space),,,,,,,,---- -- ----- -- ------ - ------- --- ----------<br>------------- common ------ ---- ---- ------- ----- -- ----<br>-------- ------- -- ---------- --- - --- ----- ----- ----<br>---- --- --- ----- --- ---- ---- ------- ----- ---- -------<br>--- --- -- ----- -- --- ---- -- --- ---- -- ------ ------<br>--- ----- -- ----,137160.09999999998,137159.3,136843.891,136850.5,136860.567,137177.258,,10,common
screen,html.Screen,2_1_0_1_11,2022-05-03T18:10:20.511Z,,,,,,,,,,,,,,,,,53,,,,,,,,,,,,,,260.44200000001,,response,,,,99,,,,,,,Space,keypress(Space),,,,,,,,---- -- ----- -- ------ - ------- --- ----------<br>------------- ------ wisdom ---- ---- ------- ----- -- ----<br>-------- ------- -- ---------- --- - --- ----- ----- ----<br>---- --- --- ----- --- ---- ---- ------- ----- ---- -------<br>--- --- -- ----- -- --- ---- -- --- ---- -- ------ ------<br>--- ----- -- ----,137438.59999999998,137437.7,137160.539,137160.3,137177.258,137443.913,,11,wisdom
screen,html.Screen,2_1_0_1_12,2022-05-03T18:10:21.010Z,,,,,,,,,,,,,,,,,53,,,,,,,,,,,,,,493.58699999999953,,response,,,,99,,,,,,,Space,keypress(Space),,,,,,,,---- -- ----- -- ------ - ------- --- ----------<br>------------- ------ ------ says ---- ------- ----- -- ----<br>-------- ------- -- ---------- --- - --- ----- ----- ----<br>---- --- --- ----- --- ---- ---- ------- ----- ---- -------<br>--- --- -- ----- -- --- ---- -- --- ---- -- ------ ------<br>--- ----- -- ----,137938.3,137937.5,137427.198,137438.7,137443.913,137943.795,,12,says
screen,html.Screen,2_1_0_1_13,2022-05-03T18:10:21.338Z,,,,,,,,,,,,,,,,,53,,,,,,,,,,,,,,321.40499999999884,,response,,,,99,,,,,,,Space,keypress(Space),,,,,,,,---- -- ----- -- ------ - ------- --- ----------<br>------------- ------ ------ ---- that ------- ----- -- ----<br>-------- ------- -- ---------- --- - --- ----- ----- ----<br>---- --- --- ----- --- ---- ---- ------- ----- ---- -------<br>--- --- -- ----- -- --- ---- -- --- ---- -- ------ ------<br>--- ----- -- ----,138266.3,138265.2,137927.165,137938.5,137943.795,138277.179,,13,that
screen,html.Screen,2_1_0_1_14,2022-05-03T18:10:21.576Z,,,,,,,,,,,,,,,,,53,,,,,,,,,,,,,,226.420999999973,,response,,,,99,,,,,,,Space,keypress(Space),,,,,,,,---- -- ----- -- ------ - ------- --- ----------<br>------------- ------ ------ ---- ---- feeling ----- -- ----<br>-------- ------- -- ---------- --- - --- ----- ----- ----<br>---- --- --- ----- --- ---- ---- ------- ----- ---- -------<br>--- --- -- ----- -- --- ---- -- --- ---- -- ------ ------<br>--- ----- -- ----,138504.5,138503.59999999998,138260.486,138266.39999999997,138277.179,138510.449,,14,feeling
screen,html.Screen,2_1_0_1_15,2022-05-03T18:10:21.858Z,,,,,,,,,,,,,,,,,53,,,,,,,,,,,,,,274.7510000000184,,response,,,,99,,,,,,,Space,keypress(Space),,,,,,,,---- -- ----- -- ------ - ------- --- ----------<br>------------- ------ ------ ---- ---- ------- close -- ----<br>-------- ------- -- ---------- --- - --- ----- ----- ----<br>---- --- --- ----- --- ---- ---- ------- ----- ---- -------<br>--- --- -- ----- -- --- ---- -- --- ---- -- ------ ------<br>--- ----- -- ----,138786,138785.2,138493.82,138504.59999999998,138510.449,138793.77,,15,close
screen,html.Screen,2_1_0_1_16,2022-05-03T18:10:22.127Z,,,,,,,,,,,,,,,,,53,,,,,,,,,,,,,,260.8299999999872,,response,,,,99,,,,,,,Space,keypress(Space),,,,,,,,---- -- ----- -- ------ - ------- --- ----------<br>------------- ------ ------ ---- ---- ------- ----- to ----<br>-------- ------- -- ---------- --- - --- ----- ----- ----<br>---- --- --- ----- --- ---- ---- ------- ----- ---- -------<br>--- --- -- ----- -- --- ---- -- --- ---- -- ------ ------<br>--- ----- -- ----,139055.39999999997,139054.59999999998,138777.138,138786.2,138793.77,139060.431,,16,to
screen,html.Screen,2_1_0_1_17,2022-05-03T18:10:22.425Z,,,,,,,,,,,,,,,,,53,,,,,,,,,,,,,,291.76900000000023,,response,,,,99,,,,,,,Space,keypress(Space),,,,,,,,---- -- ----- -- ------ - ------- --- ----------<br>------------- ------ ------ ---- ---- ------- ----- -- your<br>-------- ------- -- ---------- --- - --- ----- ----- ----<br>---- --- --- ----- --- ---- ---- ------- ----- ---- -------<br>--- --- -- ----- -- --- ---- -- --- ---- -- ------ ------<br>--- ----- -- ----,139353.39999999997,139352.2,139043.777,139055.5,139060.431,139360.666,,17,your
screen,html.Screen,2_1_0_1_18,2022-05-03T18:10:22.707Z,,,,,,,,,,,,,,,,,53,,,,,,,,,,,,,,273.1339999999909,,response,,,,99,,,,,,,Space,keypress(Space),,,,,,,,---- -- ----- -- ------ - ------- --- ----------<br>------------- ------ ------ ---- ---- ------- ----- -- ----<br>romantic ------- -- ---------- --- - --- ----- ----- ----<br>---- --- --- ----- --- ---- ---- ------- ----- ---- -------<br>--- --- -- ----- -- --- ---- -- --- ---- -- ------ ------<br>--- ----- -- ----,139634.7,139633.8,139343.764,139353.59999999998,139360.666,139643.758,,18,romantic
screen,html.Screen,2_1_0_1_19,2022-05-03T18:10:22.910Z,,,,,,,,,,,,,,,,,53,,,,,,,,,,,,,,193.24199999999837,,response,,,,99,,,,,,,Space,keypress(Space),,,,,,,,---- -- ----- -- ------ - ------- --- ----------<br>------------- ------ ------ ---- ---- ------- ----- -- ----<br>-------- partner -- ---------- --- - --- ----- ----- ----<br>---- --- --- ----- --- ---- ---- ------- ----- ---- -------<br>--- --- -- ----- -- --- ---- -- --- ---- -- ------ ------<br>--- ----- -- ----,139837.8,139837,139627.107,139634.8,139643.758,139843.765,,19,partner
screen,html.Screen,2_1_0_1_20,2022-05-03T18:10:23.072Z,,,,,,,,,,,,,,,,,53,,,,,,,,,,,,,,155.0349999999744,,response,,,,99,,,,,,,Space,keypress(Space),,,,,,,,---- -- ----- -- ------ - ------- --- ----------<br>------------- ------ ------ ---- ---- ------- ----- -- ----<br>-------- ------- is ---------- --- - --- ----- ----- ----<br>---- --- --- ----- --- ---- ---- ------- ----- ---- -------<br>--- --- -- ----- -- --- ---- -- --- ---- -- ------ ------<br>--- ----- -- ----,139999.7,139998.8,139827.073,139837.89999999997,139843.765,140010.374,,20,is
screen,html.Screen,2_1_0_1_21,2022-05-03T18:10:23.303Z,,,,,,,,,,,,,,,,,53,,,,,,,,,,,,,,219.82600000000093,,response,,,,99,,,,,,,Space,keypress(Space),,,,,,,,---- -- ----- -- ------ - ------- --- ----------<br>------------- ------ ------ ---- ---- ------- ----- -- ----<br>-------- ------- -- paramount. --- - --- ----- ----- ----<br>---- --- --- ----- --- ---- ---- ------- ----- ---- -------<br>--- --- -- ----- -- --- ---- -- --- ---- -- ------ ------<br>--- ----- -- ----,140231.09999999998,140230.2,139993.729,139999.89999999997,140010.374,140243.761,,21,paramount.
screen,html.Screen,2_1_0_1_22,2022-05-03T18:10:23.602Z,,,,,,,,,,,,,,,,,53,,,,,,,,,,,,,,285.03899999998976,,response,,,,99,,,,,,,Space,keypress(Space),,,,,,,,---- -- ----- -- ------ - ------- --- ----------<br>------------- ------ ------ ---- ---- ------- ----- -- ----<br>-------- ------- -- ---------- But - --- ----- ----- ----<br>---- --- --- ----- --- ---- ---- ------- ----- ---- -------<br>--- --- -- ----- -- --- ---- -- --- ---- -- ------ ------<br>--- ----- -- ----,140529.8,140528.8,140227.073,140231.2,140243.761,140543.752,,22,But
screen,html.Screen,2_1_0_1_23,2022-05-03T18:10:23.815Z,,,,,,,,,,,,,,,,,53,,,,,,,,,,,,,,198.34799999996903,,response,,,,99,,,,,,,Space,keypress(Space),,,,,,,,---- -- ----- -- ------ - ------- --- ----------<br>------------- ------ ------ ---- ---- ------- ----- -- ----<br>-------- ------- -- ---------- --- a --- ----- ----- ----<br>---- --- --- ----- --- ---- ---- ------- ----- ---- -------<br>--- --- -- ----- -- --- ---- -- --- ---- -- ------ ------<br>--- ----- -- ----,140742.89999999997,140742.09999999998,140527.042,140530,140543.752,140768.47,,23,a
screen,html.Screen,2_1_0_1_24,2022-05-03T18:10:24.018Z,,,,,,,,,,,,,,,,,53,,,,,,,,,,,,,,176.73000000001048,,response,,,,99,,,,,,,Space,keypress(Space),,,,,,,,---- -- ----- -- ------ - ------- --- ----------<br>------------- ------ ------ ---- ---- ------- ----- -- ----<br>-------- ------- -- ---------- --- - new ----- ----- ----<br>---- --- --- ----- --- ---- ---- ------- ----- ---- -------<br>--- --- -- ----- -- --- ---- -- --- ---- -- ------ ------<br>--- ----- -- ----,140946,140945.2,140727.035,140743.09999999998,140768.47,140960.367,,24,new
screen,html.Screen,2_1_0_1_25,2022-05-03T18:10:24.208Z,,,,,,,,,,,,,,,,,53,,,,,,,,,,,,,,170.93299999999,,response,,,,99,,,,,,,Space,keypress(Space),,,,,,,,---- -- ----- -- ------ - ------- --- ----------<br>------------- ------ ------ ---- ---- ------- ----- -- ----<br>-------- ------- -- ---------- --- - --- study ----- ----<br>---- --- --- ----- --- ---- ---- ------- ----- ---- -------<br>--- --- -- ----- -- --- ---- -- --- ---- -- ------ ------<br>--- ----- -- ----,141135.89999999997,141131.3,140943.651,140946.2,140960.367,141143.75,,25,study
screen,html.Screen,2_1_0_1_26,2022-05-03T18:10:24.398Z,,,,,,,,,,,,,,,,,53,,,,,,,,,,,,,,181.54999999998836,,response,,,,99,,,,,,,Space,keypress(Space),,,,,,,,---- -- ----- -- ------ - ------- --- ----------<br>------------- ------ ------ ---- ---- ------- ----- -- ----<br>-------- ------- -- ---------- --- - --- ----- finds ----<br>---- --- --- ----- --- ---- ---- ------- ----- ---- -------<br>--- --- -- ----- -- --- ---- -- --- ---- -- ------ ------<br>--- ----- -- ----,141326.09999999998,141325.3,141126.993,141136.09999999998,141143.75,141349.695,,26,finds
screen,html.Screen,2_1_0_1_27,2022-05-03T18:10:24.576Z,,,,,,,,,,,,,,,,,53,,,,,,,,,,,,,,153.60499999998137,,response,,,,99,,,,,,,Space,keypress(Space),,,,,,,,---- -- ----- -- ------ - ------- --- ----------<br>------------- ------ ------ ---- ---- ------- ----- -- ----<br>-------- ------- -- ---------- --- - --- ----- ----- that<br>---- --- --- ----- --- ---- ---- ------- ----- ---- -------<br>--- --- -- ----- -- --- ---- -- --- ---- -- ------ ------<br>--- ----- -- ----,141504.09999999998,141503.3,141310.378,141326.3,141349.695,141510.308,,27,that
screen,html.Screen,2_1_0_1_28,2022-05-03T18:10:24.783Z,,,,,,,,,,,,,,,,,53,,,,,,,,,,,,,,199.99199999999837,,response,,,,99,,,,,,,Space,keypress(Space),,,,,,,,---- -- ----- -- ------ - ------- --- ----------<br>------------- ------ ------ ---- ---- ------- ----- -- ----<br>-------- ------- -- ---------- --- - --- ----- ----- ----<br>it's --- --- ----- --- ---- ---- ------- ----- ---- -------<br>--- --- -- ----- -- --- ---- -- --- ---- -- ------ ------<br>--- ----- -- ----,141711.3,141710.3,141493.655,141504.3,141510.308,141726.972,,28,it's
screen,html.Screen,2_1_0_1_29,2022-05-03T18:10:25.117Z,,,,,,,,,,,,,,,,,53,,,,,,,,,,,,,,317.3279999999795,,response,,,,99,,,,,,,Space,keypress(Space),,,,,,,,---- -- ----- -- ------ - ------- --- ----------<br>------------- ------ ------ ---- ---- ------- ----- -- ----<br>-------- ------- -- ---------- --- - --- ----- ----- ----<br>---- not --- ----- --- ---- ---- ------- ----- ---- -------<br>--- --- -- ----- -- --- ---- -- --- ---- -- ------ ------<br>--- ----- -- ----,142045.09999999998,142044.3,141710.314,141711.3,141726.972,142060.373,,29,not
screen,html.Screen,2_1_0_1_30,2022-05-03T18:10:25.313Z,,,,,,,,,,,,,,,,,53,,,,,,,,,,,,,,180.02699999997276,,response,,,,99,,,,,,,Space,keypress(Space),,,,,,,,---- -- ----- -- ------ - ------- --- ----------<br>------------- ------ ------ ---- ---- ------- ----- -- ----<br>-------- ------- -- ---------- --- - --- ----- ----- ----<br>---- --- how ----- --- ---- ---- ------- ----- ---- -------<br>--- --- -- ----- -- --- ---- -- --- ---- -- ------ ------<br>--- ----- -- ----,142241.3,142240.39999999997,142043.604,142045.2,142060.373,142243.634,,30,how
screen,html.Screen,2_1_0_1_31,2022-05-03T18:10:25.512Z,,,,,,,,,,,,,,,,,53,,,,,,,,,,,,,,195.76599999997416,,response,,,,99,,,,,,,Space,keypress(Space),,,,,,,,---- -- ----- -- ------ - ------- --- ----------<br>------------- ------ ------ ---- ---- ------- ----- -- ----<br>-------- ------- -- ---------- --- - --- ----- ----- ----<br>---- --- --- close --- ---- ---- ------- ----- ---- -------<br>--- --- -- ----- -- --- ---- -- --- ---- -- ------ ------<br>--- ----- -- ----,142440.3,142439.39999999997,142226.94,142241.39999999997,142243.634,142443.896,,31,close
screen,html.Screen,2_1_0_1_32,2022-05-03T18:10:25.698Z,,,,,,,,,,,,,,,,,53,,,,,,,,,,,,,,181.60399999999208,,response,,,,99,,,,,,,Space,keypress(Space),,,,,,,,---- -- ----- -- ------ - ------- --- ----------<br>------------- ------ ------ ---- ---- ------- ----- -- ----<br>-------- ------- -- ---------- --- - --- ----- ----- ----<br>---- --- --- ----- you ---- ---- ------- ----- ---- -------<br>--- --- -- ----- -- --- ---- -- --- ---- -- ------ ------<br>--- ----- -- ----,142626.39999999997,142625.5,142426.942,142440.39999999997,142443.896,142660.318,,32,you
screen,html.Screen,2_1_0_1_33,2022-05-03T18:10:25.870Z,,,,,,,,,,,,,,,,,53,,,,,,,,,,,,,,137.1820000000007,,response,,,,99,,,,,,,Space,keypress(Space),,,,,,,,---- -- ----- -- ------ - ------- --- ----------<br>------------- ------ ------ ---- ---- ------- ----- -- ----<br>-------- ------- -- ---------- --- - --- ----- ----- ----<br>---- --- --- ----- --- feel ---- ------- ----- ---- -------<br>--- --- -- ----- -- --- ---- -- --- ---- -- ------ ------<br>--- ----- -- ----,142798.3,142797.5,142643.649,142626.5,142660.318,142810.279,,33,feel
screen,html.Screen,2_1_0_1_34,2022-05-03T18:10:26.049Z,,,,,,,,,,,,,,,,,53,,,,,,,,,,,,,,166.32099999996717,,response,,,,99,,,,,,,Space,keypress(Space),,,,,,,,---- -- ----- -- ------ - ------- --- ----------<br>------------- ------ ------ ---- ---- ------- ----- -- ----<br>-------- ------- -- ---------- --- - --- ----- ----- ----<br>---- --- --- ----- --- ---- that ------- ----- ---- -------<br>--- --- -- ----- -- --- ---- -- --- ---- -- ------ ------<br>--- ----- -- ----,142977.39999999997,142976.59999999998,142793.637,142798.5,142810.279,142993.636,,34,that
screen,html.Screen,2_1_0_1_35,2022-05-03T18:10:26.245Z,,,,,,,,,,,,,,,,,53,,,,,,,,,,,,,,176.8640000000014,,response,,,,99,,,,,,,Space,keypress(Space),,,,,,,,---- -- ----- -- ------ - ------- --- ----------<br>------------- ------ ------ ---- ---- ------- ----- -- ----<br>-------- ------- -- ---------- --- - --- ----- ----- ----<br>---- --- --- ----- --- ---- ---- matters ----- ---- -------<br>--- --- -- ----- -- --- ---- -- --- ---- -- ------ ------<br>--- ----- -- ----,143173.2,143170.5,142976.993,142977.5,142993.636,143193.677,,35,matters
screen,html.Screen,2_1_0_1_36,2022-05-03T18:10:26.478Z,,,,,,,,,,,,,,,,,53,,,,,,,,,,,,,,209.22299999996903,,response,,,,99,,,,,,,Space,keypress(Space),,,,,,,,"---- -- ----- -- ------ - ------- --- ----------<br>------------- ------ ------ ---- ---- ------- ----- -- ----<br>-------- ------- -- ---------- --- - --- ----- ----- ----<br>---- --- --- ----- --- ---- ---- ------- most, ---- -------<br>--- --- -- ----- -- --- ---- -- --- ---- -- ------ ------<br>--- ----- -- ----",143405.8,143402.89999999997,143176.912,143178.39999999997,143193.677,143410.263,,36,"most,"
screen,html.Screen,2_1_0_1_37,2022-05-03T18:10:26.706Z,,,,,,,,,,,,,,,,,53,,,,,,,,,,,,,,222.7369999999937,,response,,,,99,,,,,,,Space,keypress(Space),,,,,,,,---- -- ----- -- ------ - ------- --- ----------<br>------------- ------ ------ ---- ---- ------- ----- -- ----<br>-------- ------- -- ---------- --- - --- ----- ----- ----<br>---- --- --- ----- --- ---- ---- ------- ----- it's -------<br>--- --- -- ----- -- --- ---- -- --- ---- -- ------ ------<br>--- ----- -- ----,143633.89999999997,143633,143393.59,143405.89999999997,143410.263,143643.589,,37,it's
screen,html.Screen,2_1_0_1_38,2022-05-03T18:10:26.988Z,,,,,,,,,,,,,,,,,53,,,,,,,,,,,,,,271.0109999999695,,response,,,,99,,,,,,,Space,keypress(Space),,,,,,,,---- -- ----- -- ------ - ------- --- ----------<br>------------- ------ ------ ---- ---- ------- ----- -- ----<br>-------- ------- -- ---------- --- - --- ----- ----- ----<br>---- --- --- ----- --- ---- ---- ------- ----- ---- whether<br>--- --- -- ----- -- --- ---- -- --- ---- -- ------ ------<br>--- ----- -- ----,143915.5,143914.59999999998,143626.892,143634.09999999998,143643.589,143926.936,,38,whether
screen,html.Screen,2_1_0_1_39,2022-05-03T18:10:27.211Z,,,,,,,,,,,,,,,,,53,,,,,,,,,,,,,,211.3640000000014,,response,,,,99,,,,,,,Space,keypress(Space),,,,,,,,---- -- ----- -- ------ - ------- --- ----------<br>------------- ------ ------ ---- ---- ------- ----- -- ----<br>-------- ------- -- ---------- --- - --- ----- ----- ----<br>---- --- --- ----- --- ---- ---- ------- ----- ---- -------<br>you --- -- ----- -- --- ---- -- --- ---- -- ------ ------<br>--- ----- -- ----,144139.2,144138.3,143910.256,143915.59999999998,143926.936,144143.605,,39,you
screen,html.Screen,2_1_0_1_40,2022-05-03T18:10:27.391Z,,,,,,,,,,,,,,,,,53,,,,,,,,,,,,,,174.2949999999546,,response,,,,99,,,,,,,Space,keypress(Space),,,,,,,,---- -- ----- -- ------ - ------- --- ----------<br>------------- ------ ------ ---- ---- ------- ----- -- ----<br>-------- ------- -- ---------- --- - --- ----- ----- ----<br>---- --- --- ----- --- ---- ---- ------- ----- ---- -------<br>--- are -- ----- -- --- ---- -- --- ---- -- ------ ------<br>--- ----- -- ----,144318.8,144317.89999999997,144126.902,144139.39999999997,144143.605,144326.905,,40,are
screen,html.Screen,2_1_0_1_41,2022-05-03T18:10:27.586Z,,,,,,,,,,,,,,,,,53,,,,,,,,,,,,,,186.09500000000116,,response,,,,99,,,,,,,Space,keypress(Space),,,,,,,,---- -- ----- -- ------ - ------- --- ----------<br>------------- ------ ------ ---- ---- ------- ----- -- ----<br>-------- ------- -- ---------- --- - --- ----- ----- ----<br>---- --- --- ----- --- ---- ---- ------- ----- ---- -------<br>--- --- as ----- -- --- ---- -- --- ---- -- ------ ------<br>--- ----- -- ----,144513.89999999997,144513,144310.187,144318.89999999997,144326.905,144526.859,,41,as
screen,html.Screen,2_1_0_1_42,2022-05-03T18:10:27.781Z,,,,,,,,,,,,,,,,,53,,,,,,,,,,,,,,181.3410000000149,,response,,,,99,,,,,,,Space,keypress(Space),,,,,,,,---- -- ----- -- ------ - ------- --- ----------<br>------------- ------ ------ ---- ---- ------- ----- -- ----<br>-------- ------- -- ---------- --- - --- ----- ----- ----<br>---- --- --- ----- --- ---- ---- ------- ----- ---- -------<br>--- --- -- close -- --- ---- -- --- ---- -- ------ ------<br>--- ----- -- ----,144708.89999999997,144708.2,144510.215,144514.09999999998,144526.859,144731.41,,42,close
screen,html.Screen,2_1_0_1_43,2022-05-03T18:10:27.978Z,,,,,,,,,,,,,,,,,53,,,,,,,,,,,,,,173.79000000000815,,response,,,,99,,,,,,,Space,keypress(Space),,,,,,,,---- -- ----- -- ------ - ------- --- ----------<br>------------- ------ ------ ---- ---- ------- ----- -- ----<br>-------- ------- -- ---------- --- - --- ----- ----- ----<br>---- --- --- ----- --- ---- ---- ------- ----- ---- -------<br>--- --- -- ----- as --- ---- -- --- ---- -- ------ ------<br>--- ----- -- ----,144906,144905.2,144693.533,144709.09999999998,144731.41,144910.243,,43,as
screen,html.Screen,2_1_0_1_44,2022-05-03T18:10:28.182Z,,,,,,,,,,,,,,,,,53,,,,,,,,,,,,,,199.15699999997742,,response,,,,99,,,,,,,Space,keypress(Space),,,,,,,,---- -- ----- -- ------ - ------- --- ----------<br>------------- ------ ------ ---- ---- ------- ----- -- ----<br>-------- ------- -- ---------- --- - --- ----- ----- ----<br>---- --- --- ----- --- ---- ---- ------- ----- ---- -------<br>--- --- -- ----- -- you ---- -- --- ---- -- ------ ------<br>--- ----- -- ----,145110.3,145109.39999999997,144893.499,144906.2,144910.243,145126.828,,44,you
screen,html.Screen,2_1_0_1_45,2022-05-03T18:10:28.395Z,,,,,,,,,,,,,,,,,53,,,,,,,,,,,,,,195.67199999999139,,response,,,,99,,,,,,,Space,keypress(Space),,,,,,,,---- -- ----- -- ------ - ------- --- ----------<br>------------- ------ ------ ---- ---- ------- ----- -- ----<br>-------- ------- -- ---------- --- - --- ----- ----- ----<br>---- --- --- ----- --- ---- ---- ------- ----- ---- -------<br>--- --- -- ----- -- --- want -- --- ---- -- ------ ------<br>--- ----- -- ----,145323.3,145322.5,145110.125,145110.39999999997,145126.828,145326.805,,45,want
screen,html.Screen,2_1_0_1_46,2022-05-03T18:10:28.584Z,,,,,,,,,,,,,,,,,53,,,,,,,,,,,,,,184.69500000000698,,response,,,,99,,,,,,,Space,keypress(Space),,,,,,,,---- -- ----- -- ------ - ------- --- ----------<br>------------- ------ ------ ---- ---- ------- ----- -- ----<br>-------- ------- -- ---------- --- - --- ----- ----- ----<br>---- --- --- ----- --- ---- ---- ------- ----- ---- -------<br>--- --- -- ----- -- --- ---- to --- ---- -- ------ ------<br>--- ----- -- ----,145512.39999999997,145511.5,145310.122,145323.39999999997,145326.805,145526.828,,46,to
screen,html.Screen,2_1_0_1_47,2022-05-03T18:10:28.760Z,,,,,,,,,,,,,,,,,53,,,,,,,,,,,,,,160.7719999999681,,response,,,,99,,,,,,,Space,keypress(Space),,,,,,,,"---- -- ----- -- ------ - ------- --- ----------<br>------------- ------ ------ ---- ---- ------- ----- -- ----<br>-------- ------- -- ---------- --- - --- ----- ----- ----<br>---- --- --- ----- --- ---- ---- ------- ----- ---- -------<br>--- --- -- ----- -- --- ---- -- be, ---- -- ------ ------<br>--- ----- -- ----",145688.39999999997,145687.59999999998,145510.113,145512.5,145526.828,145693.447,,47,"be,"
screen,html.Screen,2_1_0_1_48,2022-05-03T18:10:28.944Z,,,,,,,,,,,,,,,,,53,,,,,,,,,,,,,,178.05300000001444,,response,,,,99,,,,,,,Space,keypress(Space),,,,,,,,---- -- ----- -- ------ - ------- --- ----------<br>------------- ------ ------ ---- ---- ------- ----- -- ----<br>-------- ------- -- ---------- --- - --- ----- ----- ----<br>---- --- --- ----- --- ---- ---- ------- ----- ---- -------<br>--- --- -- ----- -- --- ---- -- --- even -- ------ ------<br>--- ----- -- ----,145872.3,145871.5,145676.768,145688.5,145693.447,145876.856,,48,even
screen,html.Screen,2_1_0_1_49,2022-05-03T18:10:29.130Z,,,,,,,,,,,,,,,,,53,,,,,,,,,,,,,,180.84400000001187,,response,,,,99,,,,,,,Space,keypress(Space),,,,,,,,---- -- ----- -- ------ - ------- --- ----------<br>------------- ------ ------ ---- ---- ------- ----- -- ----<br>-------- ------- -- ---------- --- - --- ----- ----- ----<br>---- --- --- ----- --- ---- ---- ------- ----- ---- -------<br>--- --- -- ----- -- --- ---- -- --- ---- if ------ ------<br>--- ----- -- ----,146058.5,146057.7,145860.108,145872.39999999997,145876.856,146060.093,,49,if
screen,html.Screen,2_1_0_1_50,2022-05-03T18:10:29.325Z,,,,,,,,,,,,,,,,,53,,,,,,,,,,,,,,191.60700000001816,,response,,,,99,,,,,,,Space,keypress(Space),,,,,,,,---- -- ----- -- ------ - ------- --- ----------<br>------------- ------ ------ ---- ---- ------- ----- -- ----<br>-------- ------- -- ---------- --- - --- ----- ----- ----<br>---- --- --- ----- --- ---- ---- ------- ----- ---- -------<br>--- --- -- ----- -- --- ---- -- --- ---- -- that's ------<br>--- ----- -- ----,146252.5,146251.7,146043.419,146058.59999999998,146060.093,146260.075,,50,that's
screen,html.Screen,2_1_0_1_51,2022-05-03T18:10:29.513Z,,,,,,,,,,,,,,,,,53,,,,,,,,,,,,,,179.72499999997672,,response,,,,99,,,,,,,Space,keypress(Space),,,,,,,,---- -- ----- -- ------ - ------- --- ----------<br>------------- ------ ------ ---- ---- ------- ----- -- ----<br>-------- ------- -- ---------- --- - --- ----- ----- ----<br>---- --- --- ----- --- ---- ---- ------- ----- ---- -------<br>--- --- -- ----- -- --- ---- -- --- ---- -- ------ really<br>--- ----- -- ----,146440.7,146439.8,146243.413,146252.7,146260.075,146443.433,,51,really
screen,html.Screen,2_1_0_1_52,2022-05-03T18:10:29.923Z,,,,,,,,,,,,,,,,,53,,,,,,,,,,,,,,406.56700000001,,response,,,,99,,,,,,,Space,keypress(Space),,,,,,,,---- -- ----- -- ------ - ------- --- ----------<br>------------- ------ ------ ---- ---- ------- ----- -- ----<br>-------- ------- -- ---------- --- - --- ----- ----- ----<br>---- --- --- ----- --- ---- ---- ------- ----- ---- -------<br>--- --- -- ----- -- --- ---- -- --- ---- -- ------ ------<br>not ----- -- ----,146850.89999999997,146850,146426.767,146440.8,146443.433,146860.044,,52,not
screen,html.Screen,2_1_0_1_53,2022-05-03T18:10:30.074Z,,,,,,,,,,,,,,,,,53,,,,,,,,,,,,,,140.9560000000056,,response,,,,99,,,,,,,Space,keypress(Space),,,,,,,,---- -- ----- -- ------ - ------- --- ----------<br>------------- ------ ------ ---- ---- ------- ----- -- ----<br>-------- ------- -- ---------- --- - --- ----- ----- ----<br>---- --- --- ----- --- ---- ---- ------- ----- ---- -------<br>--- --- -- ----- -- --- ---- -- --- ---- -- ------ ------<br>--- close -- ----,147001.8,147001,146843.408,146851.09999999998,146860.044,147010.042,,53,close
screen,html.Screen,2_1_0_1_54,2022-05-03T18:10:30.401Z,,,,,,,,,,,,,,,,,53,,,,,,,,,,,,,,317.75800000000163,,response,,,,99,,,,,,,Space,keypress(Space),,,,,,,,---- -- ----- -- ------ - ------- --- ----------<br>------------- ------ ------ ---- ---- ------- ----- -- ----<br>-------- ------- -- ---------- --- - --- ----- ----- ----<br>---- --- --- ----- --- ---- ---- ------- ----- ---- -------<br>--- --- -- ----- -- --- ---- -- --- ---- -- ------ ------<br>--- ----- at ----,147328.59999999998,147327.8,146993.426,147002,147010.042,147343.366,,54,at
screen,html.Screen,2_1_0_1_55,2022-05-03T18:10:30.707Z,,,,,,,,,,,,,,,,,53,,,,,,,,,,,,,,291.1339999999909,,response,,,,99,,,,,,,Space,keypress(Space),,,,,,,,---- -- ----- -- ------ - ------- --- ----------<br>------------- ------ ------ ---- ---- ------- ----- -- ----<br>-------- ------- -- ---------- --- - --- ----- ----- ----<br>---- --- --- ----- --- ---- ---- ------- ----- ---- -------<br>--- --- -- ----- -- --- ---- -- --- ---- -- ------ ------<br>--- ----- -- all.,147635.3,147634.5,147326.717,147328.8,147343.366,147643.379,,55,all.
Item 99,flow.Loop,2_1_0_1,2022-05-03T18:10:30.708Z,,,,,,,,,,,,,,,,,,,,,,,,,,,,,,,14440.434999999998,,completion,,,,,A,,,,,,,,,,,silence,,,,,147635.59999999998,147634.5,133160.717,133161.39999999997,133194.065,147643.379,,,
Question 1,html.Screen,2_1_0_2,2022-05-03T18:10:33.424Z,,,,,,,,,,,,,,,,,,,,,,,,,,,,true,FALSE,,2707.8210000000254,,response,,,,99,A,,,,,,FALSE,click #choice-2,,,,silence,,,,,150352.39999999997,150351.2,147626.695,147635.7,147643.379,150360.567,,,
Question 2,html.Screen,2_1_0_3,2022-05-03T18:10:36.685Z,,,,,,,,,,,,,,,,,,,,,,,,,,,,true,TRUE,,3250.5329999999667,,response,,,,99,A,,,,,,TRUE,click #choice-1,,,,silence,,,,,153612.59999999998,153611.09999999998,150343.259,150352.59999999998,150360.567,153627.223,,,
Item 99,flow.Sequence,2_1_0,2022-05-03T18:10:36.685Z,,,,,,,,,,,,,,,,,,,,,,,,,,,,,,,30433.216999999975,,completion,,,,,,,,,,,,,,,,,,,,,153612.8,153611.09999999998,123161.206,123174.09999999998,123177.883,153627.223,,,
Holding screen,html.Screen,2_1_1_0,2022-05-03T18:10:46.682Z,,,,,,,,,,,,,,,,,,,,,,,,,,,,,,,9998.733000000007,,timeout,,,,,,,,,,,,,,,,,,,,,163609.89999999997,163609.279,153609.755,153612.89999999997,153627.223,163625.956,,,
screen,html.Screen,2_1_1_1_0,2022-05-03T18:10:47.291Z,,,,,,,,,,,,,,,,,54,,,,,,,,,,,,,,592.244000000006,,response,,,,100,,,,,,,Space,keypress(Space),,,,,,,,At --- ---- --- ------ ----- ------- ---- -- --- ------- --<br>------- ---------- ------ -- ----- -- ----- -- ---- ------<br>--- ----- --- --- ------ -------- ----- --- ------ ----- --<br>----- ----- ---------- --- --- ------ ------ ---- -- ------<br>------- --- ------ ----- --- ---- ------- -- ---- --- --<br>------- ------,164219.3,164218.2,163609.279,163610,163625.956,164225.882,,0,At
screen,html.Screen,2_1_1_1_1,2022-05-03T18:10:47.637Z,,,,,,,,,,,,,,,,,54,,,,,,,,,,,,,,337.917999999976,,response,,,,100,,,,,,,Space,keypress(Space),,,,,,,,-- the ---- --- ------ ----- ------- ---- -- --- ------- --<br>------- ---------- ------ -- ----- -- ----- -- ---- ------<br>--- ----- --- --- ------ -------- ----- --- ------ ----- --<br>----- ----- ---------- --- --- ------ ------ ---- -- ------<br>------- --- ------ ----- --- ---- ------- -- ---- --- --<br>------- ------,164564.5,164563.8,164209.238,164219.39999999997,164225.882,164575.89,,1,the
screen,html.Screen,2_1_1_1_2,2022-05-03T18:10:47.904Z,,,,,,,,,,,,,,,,,54,,,,,,,,,,,,,,255.30999999999767,,response,,,,100,,,,,,,Space,keypress(Space),,,,,,,,-- --- time --- ------ ----- ------- ---- -- --- ------- --<br>------- ---------- ------ -- ----- -- ----- -- ---- ------<br>--- ----- --- --- ------ -------- ----- --- ------ ----- --<br>----- ----- ---------- --- --- ------ ------ ---- -- ------<br>------- --- ------ ----- --- ---- ------- -- ---- --- --<br>------- ------,164832.09999999998,164831.2,164559.226,164564.7,164575.89,164842.54,,2,time
screen,html.Screen,2_1_1_1_3,2022-05-03T18:10:48.163Z,,,,,,,,,,,,,,,,,54,,,,,,,,,,,,,,247.1600000000035,,response,,,,100,,,,,,,Space,keypress(Space),,,,,,,,-- --- ---- the ------ ----- ------- ---- -- --- ------- --<br>------- ---------- ------ -- ----- -- ----- -- ---- ------<br>--- ----- --- --- ------ -------- ----- --- ------ ----- --<br>----- ----- ---------- --- --- ------ ------ ---- -- ------<br>------- --- ------ ----- --- ---- ------- -- ---- --- --<br>------- ------,165090.59999999998,165089.7,164825.878,164832.3,164842.54,165092.524,,3,the
screen,html.Screen,2_1_1_1_4,2022-05-03T18:10:48.363Z,,,,,,,,,,,,,,,,,54,,,,,,,,,,,,,,197.17600000000675,,response,,,,100,,,,,,,Space,keypress(Space),,,,,,,,-- --- ---- --- French ----- ------- ---- -- --- ------- --<br>------- ---------- ------ -- ----- -- ----- -- ---- ------<br>--- ----- --- --- ------ -------- ----- --- ------ ----- --<br>----- ----- ---------- --- --- ------ ------ ---- -- ------<br>------- --- ------ ----- --- ---- ------- -- ---- --- --<br>------- ------,165290.59999999998,165289.7,165075.875,165090.7,165092.524,165292.518,,4,French
screen,html.Screen,2_1_1_1_5,2022-05-03T18:10:48.582Z,,,,,,,,,,,,,,,,,54,,,,,,,,,,,,,,216.48199999998906,,response,,,,100,,,,,,,Space,keypress(Space),,,,,,,,-- --- ---- --- ------ crown ------- ---- -- --- ------- --<br>------- ---------- ------ -- ----- -- ----- -- ---- ------<br>--- ----- --- --- ------ -------- ----- --- ------ ----- --<br>----- ----- ---------- --- --- ------ ------ ---- -- ------<br>------- --- ------ ----- --- ---- ------- -- ---- --- --<br>------- ------,165510,165509,165275.854,165290.7,165292.518,165525.885,,5,crown
screen,html.Screen,2_1_1_1_6,2022-05-03T18:10:48.768Z,,,,,,,,,,,,,,,,,54,,,,,,,,,,,,,,169.2149999999674,,response,,,,100,,,,,,,Space,keypress(Space),,,,,,,,-- --- ---- --- ------ ----- secured ---- -- --- ------- --<br>------- ---------- ------ -- ----- -- ----- -- ---- ------<br>--- ----- --- --- ------ -------- ----- --- ------ ----- --<br>----- ----- ---------- --- --- ------ ------ ---- -- ------<br>------- --- ------ ----- --- ---- ------- -- ---- --- --<br>------- ------,165696,165695.09999999998,165509.184,165510.2,165525.885,165709.193,,6,secured
screen,html.Screen,2_1_1_1_7,2022-05-03T18:10:49.041Z,,,,,,,,,,,,,,,,,54,,,,,,,,,,,,,,258.4069999999774,,response,,,,100,,,,,,,Space,keypress(Space),,,,,,,,-- --- ---- --- ------ ----- ------- much -- --- ------- --<br>------- ---------- ------ -- ----- -- ----- -- ---- ------<br>--- ----- --- --- ------ -------- ----- --- ------ ----- --<br>----- ----- ---------- --- --- ------ ------ ---- -- ------<br>------- --- ------ ----- --- ---- ------- -- ---- --- --<br>------- ------,165968.59999999998,165967.59999999998,165692.501,165696.09999999998,165709.193,165975.808,,7,much
screen,html.Screen,2_1_1_1_8,2022-05-03T18:10:49.256Z,,,,,,,,,,,,,,,,,54,,,,,,,,,,,,,,207.0919999999751,,response,,,,100,,,,,,,Space,keypress(Space),,,,,,,,-- --- ---- --- ------ ----- ------- ---- of --- ------- --<br>------- ---------- ------ -- ----- -- ----- -- ---- ------<br>--- ----- --- --- ------ -------- ----- --- ------ ----- --<br>----- ----- ---------- --- --- ------ ------ ---- -- ------<br>------- --- ------ ----- --- ---- ------- -- ---- --- --<br>------- ------,166183.7,166182.89999999997,165959.161,165968.7,165975.808,166192.475,,8,of
screen,html.Screen,2_1_1_1_9,2022-05-03T18:10:49.449Z,,,,,,,,,,,,,,,,,54,,,,,,,,,,,,,,183.42499999995925,,response,,,,100,,,,,,,Space,keypress(Space),,,,,,,,-- --- ---- --- ------ ----- ------- ---- -- its ------- --<br>------- ---------- ------ -- ----- -- ----- -- ---- ------<br>--- ----- --- --- ------ -------- ----- --- ------ ----- --<br>----- ----- ---------- --- --- ------ ------ ---- -- ------<br>------- --- ------ ----- --- ---- ------- -- ---- --- --<br>------- ------,166376.8,166375.89999999997,166175.815,166183.89999999997,166192.475,166392.516,,9,its
screen,html.Screen,2_1_1_1_10,2022-05-03T18:10:49.639Z,,,,,,,,,,,,,,,,,54,,,,,,,,,,,,,,173.48399999999674,,response,,,,100,,,,,,,Space,keypress(Space),,,,,,,,-- --- ---- --- ------ ----- ------- ---- -- --- revenue --<br>------- ---------- ------ -- ----- -- ----- -- ---- ------<br>--- ----- --- --- ------ -------- ----- --- ------ ----- --<br>----- ----- ---------- --- --- ------ ------ ---- -- ------<br>------- --- ------ ----- --- ---- ------- -- ---- --- --<br>------- ------,166566.89999999997,166566,166375.805,166377,166392.516,166575.779,,10,revenue
screen,html.Screen,2_1_1_1_11,2022-05-03T18:10:49.905Z,,,,,,,,,,,,,,,,,54,,,,,,,,,,,,,,256.82099999996717,,response,,,,100,,,,,,,Space,keypress(Space),,,,,,,,-- --- ---- --- ------ ----- ------- ---- -- --- ------- by<br>------- ---------- ------ -- ----- -- ----- -- ---- ------<br>--- ----- --- --- ------ -------- ----- --- ------ ----- --<br>----- ----- ---------- --- --- ------ ------ ---- -- ------<br>------- --- ------ ----- --- ---- ------- -- ---- --- --<br>------- ------,166833.39999999997,166832.59999999998,166559.128,166567.89999999997,166575.779,166842.453,,11,by
screen,html.Screen,2_1_1_1_12,2022-05-03T18:10:50.170Z,,,,,,,,,,,,,,,,,54,,,,,,,,,,,,,,254.54699999999139,,response,,,,100,,,,,,,Space,keypress(Space),,,,,,,,-- --- ---- --- ------ ----- ------- ---- -- --- ------- --<br>issuing ---------- ------ -- ----- -- ----- -- ---- ------<br>--- ----- --- --- ------ -------- ----- --- ------ ----- --<br>----- ----- ---------- --- --- ------ ------ ---- -- ------<br>------- --- ------ ----- --- ---- ------- -- ---- --- --<br>------- ------,167097.89999999997,167097,166825.789,166833.5,166842.453,167109.149,,12,issuing
screen,html.Screen,2_1_1_1_13,2022-05-03T18:10:50.365Z,,,,,,,,,,,,,,,,,54,,,,,,,,,,,,,,182.05100000000675,,response,,,,100,,,,,,,Space,keypress(Space),,,,,,,,-- --- ---- --- ------ ----- ------- ---- -- --- ------- --<br>------- government ------ -- ----- -- ----- -- ---- ------<br>--- ----- --- --- ------ -------- ----- --- ------ ----- --<br>----- ----- ---------- --- --- ------ ------ ---- -- ------<br>------- --- ------ ----- --- ---- ------- -- ---- --- --<br>------- ------,167293,167291.2,167092.441,167098.09999999998,167109.149,167309.135,,13,government
screen,html.Screen,2_1_1_1_14,2022-05-03T18:10:50.644Z,,,,,,,,,,,,,,,,,54,,,,,,,,,,,,,,261.5650000000023,,response,,,,100,,,,,,,Space,keypress(Space),,,,,,,,-- --- ---- --- ------ ----- ------- ---- -- --- ------- --<br>------- ---------- bonds. -- ----- -- ----- -- ---- ------<br>--- ----- --- --- ------ -------- ----- --- ------ ----- --<br>----- ----- ---------- --- --- ------ ------ ---- -- ------<br>------- --- ------ ----- --- ---- ------- -- ---- --- --<br>------- ------,167571.5,167570.7,167292.439,167293.09999999998,167309.135,167575.941,,14,bonds.
screen,html.Screen,2_1_1_1_15,2022-05-03T18:10:50.843Z,,,,,,,,,,,,,,,,,54,,,,,,,,,,,,,,194.05900000000838,,response,,,,100,,,,,,,Space,keypress(Space),,,,,,,,-- --- ---- --- ------ ----- ------- ---- -- --- ------- --<br>------- ---------- ------ In ----- -- ----- -- ---- ------<br>--- ----- --- --- ------ -------- ----- --- ------ ----- --<br>----- ----- ---------- --- --- ------ ------ ---- -- ------<br>------- --- ------ ----- --- ---- ------- -- ---- --- --<br>------- ------,167771.09999999998,167770,167559.088,167571.7,167575.941,167775.74,,15,In
screen,html.Screen,2_1_1_1_16,2022-05-03T18:10:51.064Z,,,,,,,,,,,,,,,,,54,,,,,,,,,,,,,,215.35999999998603,,response,,,,100,,,,,,,Space,keypress(Space),,,,,,,,"-- --- ---- --- ------ ----- ------- ---- -- --- ------- --<br>------- ---------- ------ -- 1727, -- ----- -- ---- ------<br>--- ----- --- --- ------ -------- ----- --- ------ ----- --<br>----- ----- ---------- --- --- ------ ------ ---- -- ------<br>------- --- ------ ----- --- ---- ------- -- ---- --- --<br>------- ------",167991.89999999997,167991.09999999998,167759.09,167771.3,167775.74,168009.091,,16,"1727,"
screen,html.Screen,2_1_1_1_17,2022-05-03T18:10:51.256Z,,,,,,,,,,,,,,,,,54,,,,,,,,,,,,,,174.00899999999092,,response,,,,100,,,,,,,Space,keypress(Space),,,,,,,,-- --- ---- --- ------ ----- ------- ---- -- --- ------- --<br>------- ---------- ------ -- ----- in ----- -- ---- ------<br>--- ----- --- --- ------ -------- ----- --- ------ ----- --<br>----- ----- ---------- --- --- ------ ------ ---- -- ------<br>------- --- ------ ----- --- ---- ------- -- ---- --- --<br>------- ------,168184.3,168183.09999999998,167992.398,167992.09999999998,168009.091,168192.369,,17,in
screen,html.Screen,2_1_1_1_18,2022-05-03T18:10:51.465Z,,,,,,,,,,,,,,,,,54,,,,,,,,,,,,,,199.9309999999823,,response,,,,100,,,,,,,Space,keypress(Space),,,,,,,,-- --- ---- --- ------ ----- ------- ---- -- --- ------- --<br>------- ---------- ------ -- ----- -- order -- ---- ------<br>--- ----- --- --- ------ -------- ----- --- ------ ----- --<br>----- ----- ---------- --- --- ------ ------ ---- -- ------<br>------- --- ------ ----- --- ---- ------- -- ---- --- --<br>------- ------,168393.09999999998,168392.3,168175.726,168184.39999999997,168192.369,168409.074,,18,order
screen,html.Screen,2_1_1_1_19,2022-05-03T18:10:51.948Z,,,,,,,,,,,,,,,,,54,,,,,,,,,,,,,,465.92600000000675,,response,,,,100,,,,,,,Space,keypress(Space),,,,,,,,-- --- ---- --- ------ ----- ------- ---- -- --- ------- --<br>------- ---------- ------ -- ----- -- ----- to ---- ------<br>--- ----- --- --- ------ -------- ----- --- ------ ----- --<br>----- ----- ---------- --- --- ------ ------ ---- -- ------<br>------- --- ------ ----- --- ---- ------- -- ---- --- --<br>------- ------,168875.89999999997,168875,168392.376,168393.3,168409.074,168892.38,,19,to
screen,html.Screen,2_1_1_1_20,2022-05-03T18:10:52.148Z,,,,,,,,,,,,,,,,,54,,,,,,,,,,,,,,182.82000000000698,,response,,,,100,,,,,,,Space,keypress(Space),,,,,,,,-- --- ---- --- ------ ----- ------- ---- -- --- ------- --<br>------- ---------- ------ -- ----- -- ----- -- save ------<br>--- ----- --- --- ------ -------- ----- --- ------ ----- --<br>----- ----- ---------- --- --- ------ ------ ---- -- ------<br>------- --- ------ ----- --- ---- ------- -- ---- --- --<br>------- ------,169076.2,169075.2,168875.688,168876,168892.38,169092.407,,20,save
screen,html.Screen,2_1_1_1_21,2022-05-03T18:10:52.267Z,,,,,,,,,,,,,,,,,54,,,,,,,,,,,,,,101.29300000000512,,response,,,,100,,,,,,,Space,keypress(Space),,,,,,,,"-- --- ---- --- ------ ----- ------- ---- -- --- ------- --<br>------- ---------- ------ -- ----- -- ----- -- ---- money,<br>--- ----- --- --- ------ -------- ----- --- ------ ----- --<br>----- ----- ---------- --- --- ------ ------ ---- -- ------<br>------- --- ------ ----- --- ---- ------- -- ---- --- --<br>------- ------",169195.2,169193.7,169075.678,169076.3,169092.407,169209.034,,21,"money,"
screen,html.Screen,2_1_1_1_22,2022-05-03T18:10:52.494Z,,,,,,,,,,,,,,,,,54,,,,,,,,,,,,,,211.9659999999858,,response,,,,100,,,,,,,Space,keypress(Space),,,,,,,,-- --- ---- --- ------ ----- ------- ---- -- --- ------- --<br>------- ---------- ------ -- ----- -- ----- -- ---- ------<br>the ----- --- --- ------ -------- ----- --- ------ ----- --<br>----- ----- ---------- --- --- ------ ------ ---- -- ------<br>------- --- ------ ----- --- ---- ------- -- ---- --- --<br>------- ------,169421.7,169421,169192.337,169195.3,169209.034,169425.848,,22,the
screen,html.Screen,2_1_1_1_23,2022-05-03T18:10:52.812Z,,,,,,,,,,,,,,,,,54,,,,,,,,,,,,,,312.9519999999902,,response,,,,100,,,,,,,Space,keypress(Space),,,,,,,,-- --- ---- --- ------ ----- ------- ---- -- --- ------- --<br>------- ---------- ------ -- ----- -- ----- -- ---- ------<br>--- state --- --- ------ -------- ----- --- ------ ----- --<br>----- ----- ---------- --- --- ------ ------ ---- -- ------<br>------- --- ------ ----- --- ---- ------- -- ---- --- --<br>------- ------,169740,169738.8,169408.999,169421.89999999997,169425.848,169742.309,,23,state
screen,html.Screen,2_1_1_1_24,2022-05-03T18:10:53.061Z,,,,,,,,,,,,,,,,,54,,,,,,,,,,,,,,245.69099999999162,,response,,,,100,,,,,,,Space,keypress(Space),,,,,,,,-- --- ---- --- ------ ----- ------- ---- -- --- ------- --<br>------- ---------- ------ -- ----- -- ----- -- ---- ------<br>--- ----- cut --- ------ -------- ----- --- ------ ----- --<br>----- ----- ---------- --- --- ------ ------ ---- -- ------<br>------- --- ------ ----- --- ---- ------- -- ---- --- --<br>------- ------,169989,169988,169725.645,169740.09999999998,169742.309,169992.567,,24,cut
screen,html.Screen,2_1_1_1_25,2022-05-03T18:10:53.293Z,,,,,,,,,,,,,,,,,54,,,,,,,,,,,,,,227.83299999995506,,response,,,,100,,,,,,,Space,keypress(Space),,,,,,,,-- --- ---- --- ------ ----- ------- ---- -- --- ------- --<br>------- ---------- ------ -- ----- -- ----- -- ---- ------<br>--- ----- --- the ------ -------- ----- --- ------ ----- --<br>----- ----- ---------- --- --- ------ ------ ---- -- ------<br>------- --- ------ ----- --- ---- ------- -- ---- --- --<br>------- ------,170221.2,170220.39999999997,169975.631,169989.2,169992.567,170225.628,,25,the
screen,html.Screen,2_1_1_1_26,2022-05-03T18:10:53.512Z,,,,,,,,,,,,,,,,,54,,,,,,,,,,,,,,213.97199999997974,,response,,,,100,,,,,,,Space,keypress(Space),,,,,,,,-- --- ---- --- ------ ----- ------- ---- -- --- ------- --<br>------- ---------- ------ -- ----- -- ----- -- ---- ------<br>--- ----- --- --- bonds' -------- ----- --- ------ ----- --<br>----- ----- ---------- --- --- ------ ------ ---- -- ------<br>------- --- ------ ----- --- ---- ------- -- ---- --- --<br>------- ------,170440.5,170439.59999999998,170208.955,170221.3,170225.628,170442.256,,26,bonds'
screen,html.Screen,2_1_1_1_27,2022-05-03T18:10:53.725Z,,,,,,,,,,,,,,,,,54,,,,,,,,,,,,,,209.4440000000177,,response,,,,100,,,,,,,Space,keypress(Space),,,,,,,,-- --- ---- --- ------ ----- ------- ---- -- --- ------- --<br>------- ---------- ------ -- ----- -- ----- -- ---- ------<br>--- ----- --- --- ------ interest ----- --- ------ ----- --<br>----- ----- ---------- --- --- ------ ------ ---- -- ------<br>------- --- ------ ----- --- ---- ------- -- ---- --- --<br>------- ------,170652.59999999998,170651.7,170425.614,170440.59999999998,170442.256,170658.925,,27,interest
screen,html.Screen,2_1_1_1_28,2022-05-03T18:10:53.990Z,,,,,,,,,,,,,,,,,54,,,,,,,,,,,,,,258.2750000000233,,response,,,,100,,,,,,,Space,keypress(Space),,,,,,,,-- --- ---- --- ------ ----- ------- ---- -- --- ------- --<br>------- ---------- ------ -- ----- -- ----- -- ---- ------<br>--- ----- --- --- ------ -------- rate. --- ------ ----- --<br>----- ----- ---------- --- --- ------ ------ ---- -- ------<br>------- --- ------ ----- --- ---- ------- -- ---- --- --<br>------- ------,170918.09999999998,170917.2,170642.263,170652.8,170658.925,170925.584,,28,rate.
screen,html.Screen,2_1_1_1_29,2022-05-03T18:10:54.291Z,,,,,,,,,,,,,,,,,54,,,,,,,,,,,,,,292.41599999999744,,response,,,,100,,,,,,,Space,keypress(Space),,,,,,,,-- --- ---- --- ------ ----- ------- ---- -- --- ------- --<br>------- ---------- ------ -- ----- -- ----- -- ---- ------<br>--- ----- --- --- ------ -------- ----- The ------ ----- --<br>----- ----- ---------- --- --- ------ ------ ---- -- ------<br>------- --- ------ ----- --- ---- ------- -- ---- --- --<br>------- ------,171218.8,171218,170908.934,170918.3,170925.584,171225.582,,29,The
screen,html.Screen,2_1_1_1_30,2022-05-03T18:10:54.559Z,,,,,,,,,,,,,,,,,54,,,,,,,,,,,,,,260.8179999999702,,response,,,,100,,,,,,,Space,keypress(Space),,,,,,,,-- --- ---- --- ------ ----- ------- ---- -- --- ------- --<br>------- ---------- ------ -- ----- -- ----- -- ---- ------<br>--- ----- --- --- ------ -------- ----- --- market ----- --<br>----- ----- ---------- --- --- ------ ------ ---- -- ------<br>------- --- ------ ----- --- ---- ------- -- ---- --- --<br>------- ------,171487.3,171486.39999999997,171208.906,171219,171225.582,171492.23,,30,market
screen,html.Screen,2_1_1_1_31,2022-05-03T18:10:54.858Z,,,,,,,,,,,,,,,,,54,,,,,,,,,,,,,,292.86999999996624,,response,,,,100,,,,,,,Space,keypress(Space),,,,,,,,-- --- ---- --- ------ ----- ------- ---- -- --- ------- --<br>------- ---------- ------ -- ----- -- ----- -- ---- ------<br>--- ----- --- --- ------ -------- ----- --- ------ value --<br>----- ----- ---------- --- --- ------ ------ ---- -- ------<br>------- --- ------ ----- --- ---- ------- -- ---- --- --<br>------- ------,171786,171785.09999999998,171475.561,171487.39999999997,171492.23,171792.18,,31,value
screen,html.Screen,2_1_1_1_32,2022-05-03T18:10:55.157Z,,,,,,,,,,,,,,,,,54,,,,,,,,,,,,,,291.71999999997206,,response,,,,100,,,,,,,Space,keypress(Space),,,,,,,,-- --- ---- --- ------ ----- ------- ---- -- --- ------- --<br>------- ---------- ------ -- ----- -- ----- -- ---- ------<br>--- ----- --- --- ------ -------- ----- --- ------ ----- of<br>----- ----- ---------- --- --- ------ ------ ---- -- ------<br>------- --- ------ ----- --- ---- ------- -- ---- --- --<br>------- ------,172084.7,172083.89999999997,171775.547,171786.2,171792.18,172092.178,,32,of
screen,html.Screen,2_1_1_1_33,2022-05-03T18:10:55.346Z,,,,,,,,,,,,,,,,,54,,,,,,,,,,,,,,180.62199999997392,,response,,,,100,,,,,,,Space,keypress(Space),,,,,,,,-- --- ---- --- ------ ----- ------- ---- -- --- ------- --<br>------- ---------- ------ -- ----- -- ----- -- ---- ------<br>--- ----- --- --- ------ -------- ----- --- ------ ----- --<br>these ----- ---------- --- --- ------ ------ ---- -- ------<br>------- --- ------ ----- --- ---- ------- -- ---- --- --<br>------- ------,172273.8,172272.8,172075.533,172084.89999999997,172092.178,172275.509,,33,these
screen,html.Screen,2_1_1_1_34,2022-05-03T18:10:55.555Z,,,,,,,,,,,,,,,,,54,,,,,,,,,,,,,,206.49100000000908,,response,,,,100,,,,,,,Space,keypress(Space),,,,,,,,-- --- ---- --- ------ ----- ------- ---- -- --- ------- --<br>------- ---------- ------ -- ----- -- ----- -- ---- ------<br>--- ----- --- --- ------ -------- ----- --- ------ ----- --<br>----- bonds ---------- --- --- ------ ------ ---- -- ------<br>------- --- ------ ----- --- ---- ------- -- ---- --- --<br>------- ------,172483,172482,172258.854,172273.89999999997,172275.509,172492.16,,34,bonds
screen,html.Screen,2_1_1_1_35,2022-05-03T18:10:55.780Z,,,,,,,,,,,,,,,,,54,,,,,,,,,,,,,,215.13999999998487,,response,,,,100,,,,,,,Space,keypress(Space),,,,,,,,"-- --- ---- --- ------ ----- ------- ---- -- --- ------- --<br>------- ---------- ------ -- ----- -- ----- -- ---- ------<br>--- ----- --- --- ------ -------- ----- --- ------ ----- --<br>----- ----- plummeted, --- --- ------ ------ ---- -- ------<br>------- --- ------ ----- --- ---- ------- -- ---- --- --<br>------- ------",172708.09999999998,172707.3,172475.512,172483.09999999998,172492.16,172742.263,,35,"plummeted,"
screen,html.Screen,2_1_1_1_36,2022-05-03T18:10:55.973Z,,,,,,,,,,,,,,,,,54,,,,,,,,,,,,,,158.1369999999588,,response,,,,100,,,,,,,Space,keypress(Space),,,,,,,,-- --- ---- --- ------ ----- ------- ---- -- --- ------- --<br>------- ---------- ------ -- ----- -- ----- -- ---- ------<br>--- ----- --- --- ------ -------- ----- --- ------ ----- --<br>----- ----- ---------- and --- ------ ------ ---- -- ------<br>------- --- ------ ----- --- ---- ------- -- ---- --- --<br>------- ------,172901.3,172900.39999999997,172725.504,172708.2,172742.263,172908.81,,36,and
screen,html.Screen,2_1_1_1_37,2022-05-03T18:10:56.164Z,,,,,,,,,,,,,,,,,54,,,,,,,,,,,,,,182.5899999999674,,response,,,,100,,,,,,,Space,keypress(Space),,,,,,,,-- --- ---- --- ------ ----- ------- ---- -- --- ------- --<br>------- ---------- ------ -- ----- -- ----- -- ---- ------<br>--- ----- --- --- ------ -------- ----- --- ------ ----- --<br>----- ----- ---------- --- the ------ ------ ---- -- ------<br>------- --- ------ ----- --- ---- ------- -- ---- --- --<br>------- ------,173092.3,173091.39999999997,172892.154,172901.39999999997,172908.81,173108.826,,37,the
screen,html.Screen,2_1_1_1_38,2022-05-03T18:10:56.393Z,,,,,,,,,,,,,,,,,54,,,,,,,,,,,,,,210.8740000000107,,response,,,,100,,,,,,,Space,keypress(Space),,,,,,,,-- --- ---- --- ------ ----- ------- ---- -- --- ------- --<br>------- ---------- ------ -- ----- -- ----- -- ---- ------<br>--- ----- --- --- ------ -------- ----- --- ------ ----- --<br>----- ----- ---------- --- --- market ------ ---- -- ------<br>------- --- ------ ----- --- ---- ------- -- ---- --- --<br>------- ------,173320.7,173319.7,173092.146,173092.5,173108.826,173325.481,,38,market
screen,html.Screen,2_1_1_1_39,2022-05-03T18:10:56.608Z,,,,,,,,,,,,,,,,,54,,,,,,,,,,,,,,209.51900000000023,,response,,,,100,,,,,,,Space,keypress(Space),,,,,,,,-- --- ---- --- ------ ----- ------- ---- -- --- ------- --<br>------- ---------- ------ -- ----- -- ----- -- ---- ------<br>--- ----- --- --- ------ -------- ----- --- ------ ----- --<br>----- ----- ---------- --- --- ------ became ---- -- ------<br>------- --- ------ ----- --- ---- ------- -- ---- --- --<br>------- ------,173535.8,173535,173308.808,173320.8,173325.481,173542.13,,39,became
screen,html.Screen,2_1_1_1_40,2022-05-03T18:10:56.825Z,,,,,,,,,,,,,,,,,54,,,,,,,,,,,,,,210.07000000000698,,response,,,,100,,,,,,,Space,keypress(Space),,,,,,,,-- --- ---- --- ------ ----- ------- ---- -- --- ------- --<br>------- ---------- ------ -- ----- -- ----- -- ---- ------<br>--- ----- --- --- ------ -------- ----- --- ------ ----- --<br>----- ----- ---------- --- --- ------ ------ wary -- ------<br>------- --- ------ ----- --- ---- ------- -- ---- --- --<br>------- ------,173753,173752.2,173525.465,173535.89999999997,173542.13,173758.781,,40,wary
screen,html.Screen,2_1_1_1_41,2022-05-03T18:10:57.087Z,,,,,,,,,,,,,,,,,54,,,,,,,,,,,,,,255.91900000002352,,response,,,,100,,,,,,,Space,keypress(Space),,,,,,,,-- --- ---- --- ------ ----- ------- ---- -- --- ------- --<br>------- ---------- ------ -- ----- -- ----- -- ---- ------<br>--- ----- --- --- ------ -------- ----- --- ------ ----- --<br>----- ----- ---------- --- --- ------ ------ ---- of ------<br>------- --- ------ ----- --- ---- ------- -- ---- --- --<br>------- ------,174015.39999999997,174014.7,173742.121,173753.2,173758.781,174025.428,,41,of
screen,html.Screen,2_1_1_1_42,2022-05-03T18:10:57.307Z,,,,,,,,,,,,,,,,,54,,,,,,,,,,,,,,208.87199999997392,,response,,,,100,,,,,,,Space,keypress(Space),,,,,,,,-- --- ---- --- ------ ----- ------- ---- -- --- ------- --<br>------- ---------- ------ -- ----- -- ----- -- ---- ------<br>--- ----- --- --- ------ -------- ----- --- ------ ----- --<br>----- ----- ---------- --- --- ------ ------ ---- -- French<br>------- --- ------ ----- --- ---- ------- -- ---- --- --<br>------- ------,174235.09999999998,174234.3,174008.785,174015.59999999998,174025.428,174242.077,,42,French
screen,html.Screen,2_1_1_1_43,2022-05-03T18:10:57.518Z,,,,,,,,,,,,,,,,,54,,,,,,,,,,,,,,203.0229999999865,,response,,,,100,,,,,,,Space,keypress(Space),,,,,,,,-- --- ---- --- ------ ----- ------- ---- -- --- ------- --<br>------- ---------- ------ -- ----- -- ----- -- ---- ------<br>--- ----- --- --- ------ -------- ----- --- ------ ----- --<br>----- ----- ---------- --- --- ------ ------ ---- -- ------<br>credit. --- ------ ----- --- ---- ------- -- ---- --- --<br>------- ------,174446,174445.09999999998,174225.436,174235.2,174242.077,174458.752,,43,credit.
screen,html.Screen,2_1_1_1_44,2022-05-03T18:10:57.718Z,,,,,,,,,,,,,,,,,54,,,,,,,,,,,,,,186.34799999996903,,response,,,,100,,,,,,,Space,keypress(Space),,,,,,,,-- --- ---- --- ------ ----- ------- ---- -- --- ------- --<br>------- ---------- ------ -- ----- -- ----- -- ---- ------<br>--- ----- --- --- ------ -------- ----- --- ------ ----- --<br>----- ----- ---------- --- --- ------ ------ ---- -- ------<br>------- The ------ ----- --- ---- ------- -- ---- --- --<br>------- ------,174645.89999999997,174645.09999999998,174442.089,174446.09999999998,174458.752,174658.748,,44,The
screen,html.Screen,2_1_1_1_45,2022-05-03T18:10:57.935Z,,,,,,,,,,,,,,,,,54,,,,,,,,,,,,,,203.65199999997276,,response,,,,100,,,,,,,Space,keypress(Space),,,,,,,,-- --- ---- --- ------ ----- ------- ---- -- --- ------- --<br>------- ---------- ------ -- ----- -- ----- -- ---- ------<br>--- ----- --- --- ------ -------- ----- --- ------ ----- --<br>----- ----- ---------- --- --- ------ ------ ---- -- ------<br>------- --- French ----- --- ---- ------- -- ---- --- --<br>------- ------,174863.09999999998,174862.39999999997,174642.074,174646,174658.748,174875.395,,45,French
screen,html.Screen,2_1_1_1_46,2022-05-03T18:10:58.145Z,,,,,,,,,,,,,,,,,54,,,,,,,,,,,,,,197.10500000001048,,response,,,,100,,,,,,,Space,keypress(Space),,,,,,,,-- --- ---- --- ------ ----- ------- ---- -- --- ------- --<br>------- ---------- ------ -- ----- -- ----- -- ---- ------<br>--- ----- --- --- ------ -------- ----- --- ------ ----- --<br>----- ----- ---------- --- --- ------ ------ ---- -- ------<br>------- --- ------ state --- ---- ------- -- ---- --- --<br>------- ------,175073.39999999997,175072.5,174858.735,174863.3,174875.395,175107.114,,46,state
screen,html.Screen,2_1_1_1_47,2022-05-03T18:10:58.334Z,,,,,,,,,,,,,,,,,54,,,,,,,,,,,,,,154.58600000001024,,response,,,,100,,,,,,,Space,keypress(Space),,,,,,,,-- --- ---- --- ------ ----- ------- ---- -- --- ------- --<br>------- ---------- ------ -- ----- -- ----- -- ---- ------<br>--- ----- --- --- ------ -------- ----- --- ------ ----- --<br>----- ----- ---------- --- --- ------ ------ ---- -- ------<br>------- --- ------ ----- was ---- ------- -- ---- --- --<br>------- ------,175262.5,175261.7,175058.717,175074.3,175107.114,175275.377,,47,was
screen,html.Screen,2_1_1_1_48,2022-05-03T18:10:58.534Z,,,,,,,,,,,,,,,,,54,,,,,,,,,,,,,,185.32300000000396,,response,,,,100,,,,,,,Space,keypress(Space),,,,,,,,-- --- ---- --- ------ ----- ------- ---- -- --- ------- --<br>------- ---------- ------ -- ----- -- ----- -- ---- ------<br>--- ----- --- --- ------ -------- ----- --- ------ ----- --<br>----- ----- ---------- --- --- ------ ------ ---- -- ------<br>------- --- ------ ----- --- left ------- -- ---- --- --<br>------- ------,175461.59999999998,175460.7,175258.719,175262.59999999998,175275.377,175475.378,,48,left
screen,html.Screen,2_1_1_1_49,2022-05-03T18:10:58.728Z,,,,,,,,,,,,,,,,,54,,,,,,,,,,,,,,179.42199999999139,,response,,,,100,,,,,,,Space,keypress(Space),,,,,,,,-- --- ---- --- ------ ----- ------- ---- -- --- ------- --<br>------- ---------- ------ -- ----- -- ----- -- ---- ------<br>--- ----- --- --- ------ -------- ----- --- ------ ----- --<br>----- ----- ---------- --- --- ------ ------ ---- -- ------<br>------- --- ------ ----- --- ---- without -- ---- --- --<br>------- ------,175655.7,175654.8,175458.7,175461.7,175475.378,175658.938,,49,without
screen,html.Screen,2_1_1_1_50,2022-05-03T18:10:58.910Z,,,,,,,,,,,,,,,,,54,,,,,,,,,,,,,,177.8619999999937,,response,,,,100,,,,,,,Space,keypress(Space),,,,,,,,-- --- ---- --- ------ ----- ------- ---- -- --- ------- --<br>------- ---------- ------ -- ----- -- ----- -- ---- ------<br>--- ----- --- --- ------ -------- ----- --- ------ ----- --<br>----- ----- ---------- --- --- ------ ------ ---- -- ------<br>------- --- ------ ----- --- ---- ------- an ---- --- --<br>------- ------,175837.59999999998,175836.8,175642.022,175655.8,175658.938,175842.061,,50,an
screen,html.Screen,2_1_1_1_51,2022-05-03T18:10:59.113Z,,,,,,,,,,,,,,,,,54,,,,,,,,,,,,,,197.8389999999781,,response,,,,100,,,,,,,Space,keypress(Space),,,,,,,,-- --- ---- --- ------ ----- ------- ---- -- --- ------- --<br>------- ---------- ------ -- ----- -- ----- -- ---- ------<br>--- ----- --- --- ------ -------- ----- --- ------ ----- --<br>----- ----- ---------- --- --- ------ ------ ---- -- ------<br>------- --- ------ ----- --- ---- ------- -- easy --- --<br>------- ------,176040.8,176039.89999999997,175825.355,175837.8,175842.061,176070.561,,51,easy
screen,html.Screen,2_1_1_1_52,2022-05-03T18:10:59.355Z,,,,,,,,,,,,,,,,,54,,,,,,,,,,,,,,211.7390000000014,,response,,,,100,,,,,,,Space,keypress(Space),,,,,,,,-- --- ---- --- ------ ----- ------- ---- -- --- ------- --<br>------- ---------- ------ -- ----- -- ----- -- ---- ------<br>--- ----- --- --- ------ -------- ----- --- ------ ----- --<br>----- ----- ---------- --- --- ------ ------ ---- -- ------<br>------- --- ------ ----- --- ---- ------- -- ---- way --<br>------- ------,176283.09999999998,176282.3,176025.338,176041,176070.561,176291.994,,52,way
screen,html.Screen,2_1_1_1_53,2022-05-03T18:10:59.685Z,,,,,,,,,,,,,,,,,54,,,,,,,,,,,,,,320.2060000000056,,response,,,,100,,,,,,,Space,keypress(Space),,,,,,,,-- --- ---- --- ------ ----- ------- ---- -- --- ------- --<br>------- ---------- ------ -- ----- -- ----- -- ---- ------<br>--- ----- --- --- ------ -------- ----- --- ------ ----- --<br>----- ----- ---------- --- --- ------ ------ ---- -- ------<br>------- --- ------ ----- --- ---- ------- -- ---- --- of<br>------- ------,176613.2,176612.2,176275.335,176283.3,176291.994,176625.361,,53,of
screen,html.Screen,2_1_1_1_54,2022-05-03T18:11:00.007Z,,,,,,,,,,,,,,,,,54,,,,,,,,,,,,,,308.6389999999956,,response,,,,100,,,,,,,Space,keypress(Space),,,,,,,,-- --- ---- --- ------ ----- ------- ---- -- --- ------- --<br>------- ---------- ------ -- ----- -- ----- -- ---- ------<br>--- ----- --- --- ------ -------- ----- --- ------ ----- --<br>----- ----- ---------- --- --- ------ ------ ---- -- ------<br>------- --- ------ ----- --- ---- ------- -- ---- --- --<br>raising ------,176934.89999999997,176934,176608.649,176613.39999999997,176625.361,176941.957,,54,raising
screen,html.Screen,2_1_1_1_55,2022-05-03T18:11:00.410Z,,,,,,,,,,,,,,,,,54,,,,,,,,,,,,,,395.24300000001676,,response,,,,100,,,,,,,Space,keypress(Space),,,,,,,,-- --- ---- --- ------ ----- ------- ---- -- --- ------- --<br>------- ---------- ------ -- ----- -- ----- -- ---- ------<br>--- ----- --- --- ------ -------- ----- --- ------ ----- --<br>----- ----- ---------- --- --- ------ ------ ---- -- ------<br>------- --- ------ ----- --- ---- ------- -- ---- --- --<br>------- money.,177338,177337.2,176925.304,176935.09999999998,176941.957,177341.964,,55,money.
Item 100,flow.Loop,2_1_1_1,2022-05-03T18:11:00.410Z,,,,,,,,,,,,,,,,,,,,,,,,,,,,,,,13711.244000000006,,completion,,,,,A,,,,,,,,,,,silence,,,,,177338.3,177337.2,163609.279,163610,163625.956,177341.964,,,
Question 1,html.Screen,2_1_1_2,2022-05-03T18:11:02.292Z,,,,,,,,,,,,,,,,,,,,,,,,,,,,true,TRUE,,1876.7360000000044,,response,,,,100,A,,,,,,TRUE,click #choice-1,,,,silence,,,,,179219.89999999997,179218.7,177325.282,177338.39999999997,177341.964,179225.782,,,
Question 2,html.Screen,2_1_1_3,2022-05-03T18:11:05.261Z,,,,,,,,,,,,,,,,,,,,,,,,,,,,true,FALSE,,2962.31799999997,,response,,,,100,A,,,,,,FALSE,click #choice-2,,,,silence,,,,,182189.5,182188.09999999998,179208.533,179220.2,179225.782,182191.719,,,
Item 100,flow.Sequence,2_1_1,2022-05-03T18:11:05.262Z,,,,,,,,,,,,,,,,,,,,,,,,,,,,,,,28560.87699999998,,completion,,,,,,,,,,,,,,,,,,,,,182189.7,182188.09999999998,153609.755,153612.89999999997,153627.223,182191.719,,,
End of Practice,html.Page,2_1_2,2022-05-03T18:11:09.639Z,,,,,,,,,,,,,,,,,,,,,,,,,,,,,,,4375.0809999999765,,form submission,,,,,,,,,,,,,,,,,,,,,186567,186566.8,182175.052,182189.8,182191.719,186574.811,,,
Practice,flow.Sequence,2_1,2022-05-03T18:11:09.639Z,,,,,,,,,,,,,,,,,,,,,,,,,,,,,,,63388.91699999999,,completion,,,,,,,,,,,,,,,,,,,,,186567.3,186566.8,123161.206,123174,123177.883,186574.811,,,
Trap_instruction,html.Page,2_2_0,2022-05-03T18:11:11.766Z,,,,,,,,,,,,,,,,,,,,,,,,,,,,,,,2119.189000000013,,form submission,,,,,,,,,,,,,,,,,,,,,188694.2,188694,186558.183,186567.39999999997,186574.811,188724.741,,,
trap_trial,html.Screen,2_2_1,2022-05-03T18:11:16.103Z,,,,,,,,,,,,,,,,,,,,,,,,,,,,true,1,,4305.459000000003,,response,,,,,,,,,,,1,click #choice-1,,,,,,,,,193031.39999999997,193030.2,188691.408,188694.3,188724.741,193041.229,,,
end of trap trial,html.Page,2_2_2,2022-05-03T18:11:17.860Z,,,,,,,,,,,,,,,,,,,,,,,,,,,,,,,1746.170999999973,,form submission,,,,,,,,,,,,,,,,,,,,,194787.7,194787.39999999997,193024.555,193031.59999999998,193041.229,194791.106,,,
Trap 1,flow.Sequence,2_2,2022-05-03T18:11:17.860Z,,,,,,,,,,,,,,,,,,,,,,,,,,,,,,,8212.588999999978,,completion,,,,,,,,,,,,,,,,,,,,,194787.89999999997,194787.39999999997,186558.183,186567.3,186574.811,194791.106,,,
Standby,html.Page,2_3_0,2022-05-03T18:11:25.847Z,,,,,,,,,,,,,,,,,,,,,,,,,,,,,,,7999.635999999999,,timeout,,,,,,,,,,,,,,,,,,,,,202774.8,202774.067,194774.457,194788,194791.106,202790.742,,,
Holding screen,html.Screen,2_3_1_0_0,2022-05-03T18:11:32.846Z,,,,,,,,,,,,,,,,,,,,,,,,,,,,,,,6999.704999999987,,timeout,,,,,,,,,,,,,,,,,,,,,209774.39999999997,209773.771,202774.067,202774.99999999994,202790.742,209790.447,,,
screen,html.Screen,2_3_1_0_1_0,2022-05-03T18:11:33.640Z,,,,,,,,,,,,,,,,,12,,,,,,,,,,,,,,776.1530000000494,,response,,,,5,A,,,,,,Space,keypress(Space),,,,silence,,,,Some ------ ------ ------- ------ --- ------- -----------<br>-- ----- --- ---- -- --- ------ ---- - ---- -- ----------<br>-- ------ ---- --- ---- --- --- --- ----- -- -------- ---<br>------ ------- -------- --- ---- -- ------- ------------ --<br>------ -- ---- -- --- ---- -- -------- -- --- ------ ------,210567.89999999997,210566.60000000003,209773.771,209774.60000000003,209790.447,210573.677,,0,Some
screen,html.Screen,2_3_1_0_1_1,2022-05-03T18:11:33.965Z,,,,,,,,,,,,,,,,,12,,,,,,,,,,,,,,318.4230000000389,,response,,,,5,A,,,,,,Space,keypress(Space),,,,silence,,,,---- months ------ ------- ------ --- ------- -----------<br>-- ----- --- ---- -- --- ------ ---- - ---- -- ----------<br>-- ------ ---- --- ---- --- --- --- ----- -- -------- ---<br>------ ------- -------- --- ---- -- ------- ------------ --<br>------ -- ---- -- --- ---- -- -------- -- --- ------ ------,210892.99999999994,210892.10000000003,210557.036,210568.10000000003,210573.677,210907.04,,1,months
screen,html.Screen,2_3_1_0_1_2,2022-05-03T18:11:34.256Z,,,,,,,,,,,,,,,,,12,,,,,,,,,,,,,,275.1600000000035,,response,,,,5,A,,,,,,Space,keypress(Space),,,,silence,,,,"---- ------ later, ------- ------ --- ------- -----------<br>-- ----- --- ---- -- --- ------ ---- - ---- -- ----------<br>-- ------ ---- --- ---- --- --- --- ----- -- -------- ---<br>------ ------- -------- --- ---- -- ------- ------------ --<br>------ -- ---- -- --- ---- -- -------- -- --- ------ ------",211184.10000000003,211182.2,210890.352,210893.2,210907.04,211190.409,,2,"later,"
screen,html.Screen,2_3_1_0_1_3,2022-05-03T18:11:34.566Z,,,,,,,,,,,,,,,,,12,,,,,,,,,,,,,,303.0909999999276,,response,,,,5,A,,,,,,Space,keypress(Space),,,,silence,,,,---- ------ ------ Michael ------ --- ------- -----------<br>-- ----- --- ---- -- --- ------ ---- - ---- -- ----------<br>-- ------ ---- --- ---- --- --- --- ----- -- -------- ---<br>------ ------- -------- --- ---- -- ------- ------------ --<br>------ -- ---- -- --- ---- -- -------- -- --- ------ ------,211494.39999999997,211493.49999999994,211173.657,211184.49999999994,211190.409,211507.046,,3,Michael
screen,html.Screen,2_3_1_0_1_4,2022-05-03T18:11:34.862Z,,,,,,,,,,,,,,,,,12,,,,,,,,,,,,,,282.15400000000955,,response,,,,5,A,,,,,,Space,keypress(Space),,,,silence,,,,---- ------ ------ ------- Larson --- ------- -----------<br>-- ----- --- ---- -- --- ------ ---- - ---- -- ----------<br>-- ------ ---- --- ---- --- --- --- ----- -- -------- ---<br>------ ------- -------- --- ---- -- ------- ------------ --<br>------ -- ---- -- --- ---- -- -------- -- --- ------ ------,211790.10000000003,211789.2,211490.388,211494.60000000003,211507.046,211807.035,,4,Larson
screen,html.Screen,2_3_1_0_1_5,2022-05-03T18:11:35.155Z,,,,,,,,,,,,,,,,,12,,,,,,,,,,,,,,273.8649999999616,,response,,,,5,A,,,,,,Space,keypress(Space),,,,silence,,,,---- ------ ------ ------- ------ saw ------- -----------<br>-- ----- --- ---- -- --- ------ ---- - ---- -- ----------<br>-- ------ ---- --- ---- --- --- --- ----- -- -------- ---<br>------ ------- -------- --- ---- -- ------- ------------ --<br>------ -- ---- -- --- ---- -- -------- -- --- ------ ------,212082.8,212080.89999999997,211790.309,211790.3,211807.035,212090.42,,5,saw
screen,html.Screen,2_3_1_0_1_6,2022-05-03T18:11:35.449Z,,,,,,,,,,,,,,,,,12,,,,,,,,,,,,,,284.97999999995227,,response,,,,5,A,,,,,,Space,keypress(Space),,,,silence,,,,---- ------ ------ ------- ------ --- another -----------<br>-- ----- --- ---- -- --- ------ ---- - ---- -- ----------<br>-- ------ ---- --- ---- --- --- --- ----- -- -------- ---<br>------ ------- -------- --- ---- -- ------- ------------ --<br>------ -- ---- -- --- ---- -- -------- -- --- ------ ------,212377.10000000003,212375.39999999997,212073.63,212083.2,212090.42,212390.424,,6,another
screen,html.Screen,2_3_1_0_1_7,2022-05-03T18:11:35.729Z,,,,,,,,,,,,,,,,,12,,,,,,,,,,,,,,265.67600000003586,,response,,,,5,A,,,,,,Space,keypress(Space),,,,silence,,,,---- ------ ------ ------- ------ --- ------- opportunity<br>-- ----- --- ---- -- --- ------ ---- - ---- -- ----------<br>-- ------ ---- --- ---- --- --- --- ----- -- -------- ---<br>------ ------- -------- --- ---- -- ------- ------------ --<br>------ -- ---- -- --- ---- -- -------- -- --- ------ ------,212657.10000000003,212656.10000000003,212373.761,212377.60000000003,212390.424,212673.664,,7,opportunity
screen,html.Screen,2_3_1_0_1_8,2022-05-03T18:11:36.023Z,,,,,,,,,,,,,,,,,12,,,,,,,,,,,,,,276.1359999999986,,response,,,,5,A,,,,,,Space,keypress(Space),,,,silence,,,,---- ------ ------ ------- ------ --- ------- -----------<br>to ----- --- ---- -- --- ------ ---- - ---- -- ----------<br>-- ------ ---- --- ---- --- --- --- ----- -- -------- ---<br>------ ------- -------- --- ---- -- ------- ------------ --<br>------ -- ---- -- --- ---- -- -------- -- --- ------ ------,212950.7,212949.8,212656.966,212657.2,212673.664,212957.078,,8,to
screen,html.Screen,2_3_1_0_1_9,2022-05-03T18:11:36.302Z,,,,,,,,,,,,,,,,,12,,,,,,,,,,,,,,271.32199999995646,,response,,,,5,A,,,,,,Space,keypress(Space),,,,silence,,,,---- ------ ------ ------- ------ --- ------- -----------<br>-- stack --- ---- -- --- ------ ---- - ---- -- ----------<br>-- ------ ---- --- ---- --- --- --- ----- -- -------- ---<br>------ ------- -------- --- ---- -- ------- ------------ --<br>------ -- ---- -- --- ---- -- -------- -- --- ------ ------,213230.2,213228.39999999997,212940.256,212950.89999999997,212957.078,213240.47,,9,stack
screen,html.Screen,2_3_1_0_1_10,2022-05-03T18:11:36.586Z,,,,,,,,,,,,,,,,,12,,,,,,,,,,,,,,272.63000000003376,,response,,,,5,A,,,,,,Space,keypress(Space),,,,silence,,,,---- ------ ------ ------- ------ --- ------- -----------<br>-- ----- the ---- -- --- ------ ---- - ---- -- ----------<br>-- ------ ---- --- ---- --- --- --- ----- -- -------- ---<br>------ ------- -------- --- ---- -- ------- ------------ --<br>------ -- ---- -- --- ---- -- -------- -- --- ------ ------,213513.99999999994,213513.10000000003,213223.562,213230.60000000003,213240.47,213523.6,,10,the
screen,html.Screen,2_3_1_0_1_11,2022-05-03T18:11:36.867Z,,,,,,,,,,,,,,,,,12,,,,,,,,,,,,,,271.1000000000058,,response,,,,5,A,,,,,,Space,keypress(Space),,,,silence,,,,---- ------ ------ ------- ------ --- ------- -----------<br>-- ----- --- odds -- --- ------ ---- - ---- -- ----------<br>-- ------ ---- --- ---- --- --- --- ----- -- -------- ---<br>------ ------- -------- --- ---- -- ------- ------------ --<br>------ -- ---- -- --- ---- -- -------- -- --- ------ ------,213795.60000000003,213794.7,213507.18,213514.10000000003,213523.6,213806.933,,11,odds
screen,html.Screen,2_3_1_0_1_12,2022-05-03T18:11:37.132Z,,,,,,,,,,,,,,,,,12,,,,,,,,,,,,,,251.36699999999837,,response,,,,5,A,,,,,,Space,keypress(Space),,,,silence,,,,---- ------ ------ ------- ------ --- ------- -----------<br>-- ----- --- ---- in --- ------ ---- - ---- -- ----------<br>-- ------ ---- --- ---- --- --- --- ----- -- -------- ---<br>------ ------- -------- --- ---- -- ------- ------------ --<br>------ -- ---- -- --- ---- -- -------- -- --- ------ ------,214060.10000000003,214058.3,213790.244,213795.7,213806.933,214073.85,,12,in
screen,html.Screen,2_3_1_0_1_13,2022-05-03T18:11:37.371Z,,,,,,,,,,,,,,,,,12,,,,,,,,,,,,,,223.7500000000291,,response,,,,5,A,,,,,,Space,keypress(Space),,,,silence,,,,---- ------ ------ ------- ------ --- ------- -----------<br>-- ----- --- ---- -- his ------ ---- - ---- -- ----------<br>-- ------ ---- --- ---- --- --- --- ----- -- -------- ---<br>------ ------- -------- --- ---- -- ------- ------------ --<br>------ -- ---- -- --- ---- -- -------- -- --- ------ ------,214299.3,214297.60000000003,214056.871,214060.49999999994,214073.85,214306.898,,13,his
screen,html.Screen,2_3_1_0_1_14,2022-05-03T18:11:37.626Z,,,,,,,,,,,,,,,,,12,,,,,,,,,,,,,,246.20200000004843,,response,,,,5,A,,,,,,Space,keypress(Space),,,,silence,,,,---- ------ ------ ------- ------ --- ------- -----------<br>-- ----- --- ---- -- --- favour ---- - ---- -- ----------<br>-- ------ ---- --- ---- --- --- --- ----- -- -------- ---<br>------ ------- -------- --- ---- -- ------- ------------ --<br>------ -- ---- -- --- ---- -- -------- -- --- ------ ------,214553.99999999994,214553.10000000003,214290.305,214299.60000000003,214306.898,214556.83,,14,favour
screen,html.Screen,2_3_1_0_1_15,2022-05-03T18:11:37.844Z,,,,,,,,,,,,,,,,,12,,,,,,,,,,,,,,214.47000000000116,,response,,,,5,A,,,,,,Space,keypress(Space),,,,silence,,,,---- ------ ------ ------- ------ --- ------- -----------<br>-- ----- --- ---- -- --- ------ with - ---- -- ----------<br>-- ------ ---- --- ---- --- --- --- ----- -- -------- ---<br>------ ------- -------- --- ---- -- ------- ------------ --<br>------ -- ---- -- --- ---- -- -------- -- --- ------ ------,214772.2,214771.3,214540.436,214554.10000000003,214556.83,214801.104,,15,with
screen,html.Screen,2_3_1_0_1_16,2022-05-03T18:11:38.055Z,,,,,,,,,,,,,,,,,12,,,,,,,,,,,,,,181.49600000004284,,response,,,,5,A,,,,,,Space,keypress(Space),,,,silence,,,,---- ------ ------ ------- ------ --- ------- -----------<br>-- ----- --- ---- -- --- ------ ---- a ---- -- ----------<br>-- ------ ---- --- ---- --- --- --- ----- -- -------- ---<br>------ ------- -------- --- ---- -- ------- ------------ --<br>------ -- ---- -- --- ---- -- -------- -- --- ------ ------,214983.39999999997,214982.60000000003,214756.836,214772.3,214801.104,214990.143,,16,a
screen,html.Screen,2_3_1_0_1_17,2022-05-03T18:11:38.249Z,,,,,,,,,,,,,,,,,12,,,,,,,,,,,,,,184.75699999995413,,response,,,,5,A,,,,,,Space,keypress(Space),,,,silence,,,,---- ------ ------ ------- ------ --- ------- -----------<br>-- ----- --- ---- -- --- ------ ---- - dash -- ----------<br>-- ------ ---- --- ---- --- --- --- ----- -- -------- ---<br>------ ------- -------- --- ---- -- ------- ------------ --<br>------ -- ---- -- --- ---- -- -------- -- --- ------ ------,215176.7,215174.89999999997,214973.524,214983.49999999994,214990.143,215190.449,,17,dash
screen,html.Screen,2_3_1_0_1_18,2022-05-03T18:11:38.457Z,,,,,,,,,,,,,,,,,12,,,,,,,,,,,,,,193.05099999994854,,response,,,,5,A,,,,,,Space,keypress(Space),,,,silence,,,,---- ------ ------ ------- ------ --- ------- -----------<br>-- ----- --- ---- -- --- ------ ---- - ---- of ----------<br>-- ------ ---- --- ---- --- --- --- ----- -- -------- ---<br>------ ------- -------- --- ---- -- ------- ------------ --<br>------ -- ---- -- --- ---- -- -------- -- --- ------ ------,215385.49999999994,215383.49999999994,215173.462,215177.2,215190.449,215390.193,,18,of
screen,html.Screen,2_3_1_0_1_19,2022-05-03T18:11:38.821Z,,,,,,,,,,,,,,,,,12,,,,,,,,,,,,,,357.8069999999425,,response,,,,5,A,,,,,,Space,keypress(Space),,,,silence,,,,---- ------ ------ ------- ------ --- ------- -----------<br>-- ----- --- ---- -- --- ------ ---- - ---- -- ingenuity.<br>-- ------ ---- --- ---- --- --- --- ----- -- -------- ---<br>------ ------- -------- --- ---- -- ------- ------------ --<br>------ -- ---- -- --- ---- -- -------- -- --- ------ ------,215748.8,215747.99999999994,215373.727,215385.8,215390.193,215756.787,,19,ingenuity.
screen,html.Screen,2_3_1_0_1_20,2022-05-03T18:11:39.264Z,,,,,,,,,,,,,,,,,12,,,,,,,,,,,,,,434.1129999999539,,response,,,,5,A,,,,,,Space,keypress(Space),,,,silence,,,,---- ------ ------ ------- ------ --- ------- -----------<br>-- ----- --- ---- -- --- ------ ---- - ---- -- ----------<br>He ------ ---- --- ---- --- --- --- ----- -- -------- ---<br>------ ------- -------- --- ---- -- ------- ------------ --<br>------ -- ---- -- --- ---- -- -------- -- --- ------ ------,216192.49999999994,216190.89999999997,215740.12,215748.99999999994,215756.787,216207.074,,20,He
screen,html.Screen,2_3_1_0_1_21,2022-05-03T18:11:39.540Z,,,,,,,,,,,,,,,,,12,,,,,,,,,,,,,,260.0260000000417,,response,,,,5,A,,,,,,Space,keypress(Space),,,,silence,,,,---- ------ ------ ------- ------ --- ------- -----------<br>-- ----- --- ---- -- --- ------ ---- - ---- -- ----------<br>-- walked ---- --- ---- --- --- --- ----- -- -------- ---<br>------ ------- -------- --- ---- -- ------- ------------ --<br>------ -- ---- -- --- ---- -- -------- -- --- ------ ------,216467.99999999994,216467.10000000003,216190.131,216192.89999999997,216207.074,216473.432,,21,walked
screen,html.Screen,2_3_1_0_1_22,2022-05-03T18:11:39.734Z,,,,,,,,,,,,,,,,,12,,,,,,,,,,,,,,187.66800000003423,,response,,,,5,A,,,,,,Space,keypress(Space),,,,silence,,,,---- ------ ------ ------- ------ --- ------- -----------<br>-- ----- --- ---- -- --- ------ ---- - ---- -- ----------<br>-- ------ into --- ---- --- --- --- ----- -- -------- ---<br>------ ------- -------- --- ---- -- ------- ------------ --<br>------ -- ---- -- --- ---- -- -------- -- --- ------ ------,216661.99999999994,216661.10000000003,216456.813,216468.2,216473.432,216673.465,,22,into
screen,html.Screen,2_3_1_0_1_23,2022-05-03T18:11:39.970Z,,,,,,,,,,,,,,,,,12,,,,,,,,,,,,,,224.13500000003842,,response,,,,5,A,,,,,,Space,keypress(Space),,,,silence,,,,---- ------ ------ ------- ------ --- ------- -----------<br>-- ----- --- ---- -- --- ------ ---- - ---- -- ----------<br>-- ------ ---- his ---- --- --- --- ----- -- -------- ---<br>------ ------- -------- --- ---- -- ------- ------------ --<br>------ -- ---- -- --- ---- -- -------- -- --- ------ ------,216898.49999999994,216897.60000000003,216656.773,216662.10000000003,216673.465,216906.741,,23,his
screen,html.Screen,2_3_1_0_1_24,2022-05-03T18:11:40.164Z,,,,,,,,,,,,,,,,,12,,,,,,,,,,,,,,183.158999999956,,response,,,,5,A,,,,,,Space,keypress(Space),,,,silence,,,,---- ------ ------ ------- ------ --- ------- -----------<br>-- ----- --- ---- -- --- ------ ---- - ---- -- ----------<br>-- ------ ---- --- bank --- --- --- ----- -- -------- ---<br>------ ------- -------- --- ---- -- ------- ------------ --<br>------ -- ---- -- --- ---- -- -------- -- --- ------ ------,217091.8,217089.89999999997,216890.069,216898.60000000003,216906.741,217107.025,,24,bank
screen,html.Screen,2_3_1_0_1_25,2022-05-03T18:11:40.356Z,,,,,,,,,,,,,,,,,12,,,,,,,,,,,,,,175.17500000001746,,response,,,,5,A,,,,,,Space,keypress(Space),,,,silence,,,,---- ------ ------ ------- ------ --- ------- -----------<br>-- ----- --- ---- -- --- ------ ---- - ---- -- ----------<br>-- ------ ---- --- ---- one --- --- ----- -- -------- ---<br>------ ------- -------- --- ---- -- ------- ------------ --<br>------ -- ---- -- --- ---- -- -------- -- --- ------ ------,217284.10000000003,217282.2,217090.071,217092.2,217107.025,217290.117,,25,one
screen,html.Screen,2_3_1_0_1_26,2022-05-03T18:11:40.562Z,,,,,,,,,,,,,,,,,12,,,,,,,,,,,,,,198.88299999994342,,response,,,,5,A,,,,,,Space,keypress(Space),,,,silence,,,,---- ------ ------ ------- ------ --- ------- -----------<br>-- ----- --- ---- -- --- ------ ---- - ---- -- ----------<br>-- ------ ---- --- ---- --- day --- ----- -- -------- ---<br>------ ------- -------- --- ---- -- ------- ------------ --<br>------ -- ---- -- --- ---- -- -------- -- --- ------ ------,217490.2,217488.99999999994,217273.642,217284.49999999994,217290.117,217506.784,,26,day
screen,html.Screen,2_3_1_0_1_27,2022-05-03T18:11:40.729Z,,,,,,,,,,,,,,,,,12,,,,,,,,,,,,,,150.01599999997416,,response,,,,5,A,,,,,,Space,keypress(Space),,,,silence,,,,---- ------ ------ ------- ------ --- ------- -----------<br>-- ----- --- ---- -- --- ------ ---- - ---- -- ----------<br>-- ------ ---- --- ---- --- --- and ----- -- -------- ---<br>------ ------- -------- --- ---- -- ------- ------------ --<br>------ -- ---- -- --- ---- -- -------- -- --- ------ ------,217657.7,217656.8,217490.116,217490.3,217506.784,217673.417,,27,and
screen,html.Screen,2_3_1_0_1_28,2022-05-03T18:11:40.930Z,,,,,,,,,,,,,,,,,12,,,,,,,,,,,,,,183.58299999995506,,response,,,,5,A,,,,,,Space,keypress(Space),,,,silence,,,,---- ------ ------ ------- ------ --- ------- -----------<br>-- ----- --- ---- -- --- ------ ---- - ---- -- ----------<br>-- ------ ---- --- ---- --- --- --- asked -- -------- ---<br>------ ------- -------- --- ---- -- ------- ------------ --<br>------ -- ---- -- --- ---- -- -------- -- --- ------ ------,217857.8,217856.99999999994,217656.687,217657.8,217673.417,217873.39,,28,asked
screen,html.Screen,2_3_1_0_1_29,2022-05-03T18:11:41.148Z,,,,,,,,,,,,,,,,,12,,,,,,,,,,,,,,201.21000000002095,,response,,,,5,A,,,,,,Space,keypress(Space),,,,silence,,,,---- ------ ------ ------- ------ --- ------- -----------<br>-- ----- --- ---- -- --- ------ ---- - ---- -- ----------<br>-- ------ ---- --- ---- --- --- --- ----- to -------- ---<br>------ ------- -------- --- ---- -- ------- ------------ --<br>------ -- ---- -- --- ---- -- -------- -- --- ------ ------,218076.3,218074.60000000003,217856.69,217857.99999999994,217873.39,218090.314,,29,to
screen,html.Screen,2_3_1_0_1_30,2022-05-03T18:11:41.377Z,,,,,,,,,,,,,,,,,12,,,,,,,,,,,,,,213.18599999992875,,response,,,,5,A,,,,,,Space,keypress(Space),,,,silence,,,,---- ------ ------ ------- ------ --- ------- -----------<br>-- ----- --- ---- -- --- ------ ---- - ---- -- ----------<br>-- ------ ---- --- ---- --- --- --- ----- -- withdraw ---<br>------ ------- -------- --- ---- -- ------- ------------ --<br>------ -- ---- -- --- ---- -- -------- -- --- ------ ------,218305.49999999994,218303.49999999994,218073.341,218076.7,218090.314,218340.293,,30,withdraw
screen,html.Screen,2_3_1_0_1_31,2022-05-03T18:11:41.635Z,,,,,,,,,,,,,,,,,12,,,,,,,,,,,,,,221.70699999993667,,response,,,,5,A,,,,,,Space,keypress(Space),,,,silence,,,,---- ------ ------ ------- ------ --- ------- -----------<br>-- ----- --- ---- -- --- ------ ---- - ---- -- ----------<br>-- ------ ---- --- ---- --- --- --- ----- -- -------- his<br>------ ------- -------- --- ---- -- ------- ------------ --<br>------ -- ---- -- --- ---- -- -------- -- --- ------ ------,218562.89999999997,218561.99999999994,218323.64,218305.89999999997,218340.293,218573.351,,31,his
screen,html.Screen,2_3_1_0_1_32,2022-05-03T18:11:41.888Z,,,,,,,,,,,,,,,,,12,,,,,,,,,,,,,,242.04899999996996,,response,,,,5,A,,,,,,Space,keypress(Space),,,,silence,,,,---- ------ ------ ------- ------ --- ------- -----------<br>-- ----- --- ---- -- --- ------ ---- - ---- -- ----------<br>-- ------ ---- --- ---- --- --- --- ----- -- -------- ---<br>entire ------- -------- --- ---- -- ------- ------------ --<br>------ -- ---- -- --- ---- -- -------- -- --- ------ ------,218816.3,218815.39999999997,218556.736,218562.99999999994,218573.351,218823.283,,32,entire
screen,html.Screen,2_3_1_0_1_33,2022-05-03T18:11:42.090Z,,,,,,,,,,,,,,,,,12,,,,,,,,,,,,,,193.51699999999255,,response,,,,5,A,,,,,,Space,keypress(Space),,,,silence,,,,---- ------ ------ ------- ------ --- ------- -----------<br>-- ----- --- ---- -- --- ------ ---- - ---- -- ----------<br>-- ------ ---- --- ---- --- --- --- ----- -- -------- ---<br>------ account -------- --- ---- -- ------- ------------ --<br>------ -- ---- -- --- ---- -- -------- -- --- ------ ------,219018.49999999994,219016.8,218806.669,218816.39999999997,218823.283,219023.342,,33,account
screen,html.Screen,2_3_1_0_1_34,2022-05-03T18:11:42.288Z,,,,,,,,,,,,,,,,,12,,,,,,,,,,,,,,191.35800000000745,,response,,,,5,A,,,,,,Space,keypress(Space),,,,silence,,,,"---- ------ ------ ------- ------ --- ------- -----------<br>-- ----- --- ---- -- --- ------ ---- - ---- -- ----------<br>-- ------ ---- --- ---- --- --- --- ----- -- -------- ---<br>------ ------- balance, --- ---- -- ------- ------------ --<br>------ -- ---- -- --- ---- -- -------- -- --- ------ ------",219216.60000000003,219214.7,219006.629,219018.89999999997,219023.342,219223.361,,34,"balance,"
screen,html.Screen,2_3_1_0_1_35,2022-05-03T18:11:42.475Z,,,,,,,,,,,,,,,,,12,,,,,,,,,,,,,,178.13899999993737,,response,,,,5,A,,,,,,Space,keypress(Space),,,,silence,,,,---- ------ ------ ------- ------ --- ------- -----------<br>-- ----- --- ---- -- --- ------ ---- - ---- -- ----------<br>-- ------ ---- --- ---- --- --- --- ----- -- -------- ---<br>------ ------- -------- but ---- -- ------- ------------ --<br>------ -- ---- -- --- ---- -- -------- -- --- ------ ------,219403.39999999997,219401.49999999994,219206.598,219217.10000000003,219223.361,219406.646,,35,but
screen,html.Screen,2_3_1_0_1_36,2022-05-03T18:11:42.694Z,,,,,,,,,,,,,,,,,12,,,,,,,,,,,,,,214.454000000027,,response,,,,5,A,,,,,,Space,keypress(Space),,,,silence,,,,---- ------ ------ ------- ------ --- ------- -----------<br>-- ----- --- ---- -- --- ------ ---- - ---- -- ----------<br>-- ------ ---- --- ---- --- --- --- ----- -- -------- ---<br>------ ------- -------- --- with -- ------- ------------ --<br>------ -- ---- -- --- ---- -- -------- -- --- ------ ------,219621.89999999997,219621.10000000003,219390.205,219403.8,219406.646,219644.338,,36,with
screen,html.Screen,2_3_1_0_1_37,2022-05-03T18:11:42.905Z,,,,,,,,,,,,,,,,,12,,,,,,,,,,,,,,187.86200000002282,,response,,,,5,A,,,,,,Space,keypress(Space),,,,silence,,,,---- ------ ------ ------- ------ --- ------- -----------<br>-- ----- --- ---- -- --- ------ ---- - ---- -- ----------<br>-- ------ ---- --- ---- --- --- --- ----- -- -------- ---<br>------ ------- -------- --- ---- an ------- ------------ --<br>------ -- ---- -- --- ---- -- -------- -- --- ------ ------,219833.10000000003,219832.2,219606.645,219621.99999999994,219644.338,219839.906,,37,an
screen,html.Screen,2_3_1_0_1_38,2022-05-03T18:11:43.111Z,,,,,,,,,,,,,,,,,12,,,,,,,,,,,,,,197.39400000000023,,response,,,,5,A,,,,,,Space,keypress(Space),,,,silence,,,,---- ------ ------ ------- ------ --- ------- -----------<br>-- ----- --- ---- -- --- ------ ---- - ---- -- ----------<br>-- ------ ---- --- ---- --- --- --- ----- -- -------- ---<br>------ ------- -------- --- ---- -- unusual ------------ --<br>------ -- ---- -- --- ---- -- -------- -- --- ------ ------,220039.10000000003,220037.3,219823.258,219833.3,219839.906,220056.663,,38,unusual
screen,html.Screen,2_3_1_0_1_39,2022-05-03T18:11:43.287Z,,,,,,,,,,,,,,,,,12,,,,,,,,,,,,,,157.03700000001118,,response,,,,5,A,,,,,,Space,keypress(Space),,,,silence,,,,---- ------ ------ ------- ------ --- ------- -----------<br>-- ----- --- ---- -- --- ------ ---- - ---- -- ----------<br>-- ------ ---- --- ---- --- --- --- ----- -- -------- ---<br>------ ------- -------- --- ---- -- ------- stipulation: --<br>------ -- ---- -- --- ---- -- -------- -- --- ------ ------,220215.49999999994,220213.7,220039.909,220039.49999999994,220056.663,220223.294,,39,stipulation:
screen,html.Screen,2_3_1_0_1_40,2022-05-03T18:11:43.529Z,,,,,,,,,,,,,,,,,12,,,,,,,,,,,,,,232.90600000001723,,response,,,,5,A,,,,,,Space,keypress(Space),,,,silence,,,,---- ------ ------ ------- ------ --- ------- -----------<br>-- ----- --- ---- -- --- ------ ---- - ---- -- ----------<br>-- ------ ---- --- ---- --- --- --- ----- -- -------- ---<br>------ ------- -------- --- ---- -- ------- ------------ He<br>------ -- ---- -- --- ---- -- -------- -- --- ------ ------,220456.99999999994,220456.2,220206.678,220215.8,220223.294,220473.286,,40,He
screen,html.Screen,2_3_1_0_1_41,2022-05-03T18:11:43.918Z,,,,,,,,,,,,,,,,,12,,,,,,,,,,,,,,370.6139999999723,,response,,,,5,A,,,,,,Space,keypress(Space),,,,silence,,,,---- ------ ------ ------- ------ --- ------- -----------<br>-- ----- --- ---- -- --- ------ ---- - ---- -- ----------<br>-- ------ ---- --- ---- --- --- --- ----- -- -------- ---<br>------ ------- -------- --- ---- -- ------- ------------ --<br>wanted -- ---- -- --- ---- -- -------- -- --- ------ ------,220845.89999999997,220843.89999999997,220456.824,220457.2,220473.286,220856.565,,41,wanted
screen,html.Screen,2_3_1_0_1_42,2022-05-03T18:11:44.097Z,,,,,,,,,,,,,,,,,12,,,,,,,,,,,,,,167.5350000000326,,response,,,,5,A,,,,,,Space,keypress(Space),,,,silence,,,,---- ------ ------ ------- ------ --- ------- -----------<br>-- ----- --- ---- -- --- ------ ---- - ---- -- ----------<br>-- ------ ---- --- ---- --- --- --- ----- -- -------- ---<br>------ ------- -------- --- ---- -- ------- ------------ --<br>------ as ---- -- --- ---- -- -------- -- --- ------ ------,221024.8,221024.10000000003,220839.907,220845.99999999994,220856.565,221039.892,,42,as
screen,html.Screen,2_3_1_0_1_43,2022-05-03T18:11:44.338Z,,,,,,,,,,,,,,,,,12,,,,,,,,,,,,,,224.3080000000191,,response,,,,5,A,,,,,,Space,keypress(Space),,,,silence,,,,---- ------ ------ ------- ------ --- ------- -----------<br>-- ----- --- ---- -- --- ------ ---- - ---- -- ----------<br>-- ------ ---- --- ---- --- --- --- ----- -- -------- ---<br>------ ------- -------- --- ---- -- ------- ------------ --<br>------ -- much -- --- ---- -- -------- -- --- ------ ------,221266.10000000003,221264.2,221023.302,221024.99999999994,221039.892,221273.529,,43,much
screen,html.Screen,2_3_1_0_1_44,2022-05-03T18:11:44.529Z,,,,,,,,,,,,,,,,,12,,,,,,,,,,,,,,182.87099999995553,,response,,,,5,A,,,,,,Space,keypress(Space),,,,silence,,,,---- ------ ------ ------- ------ --- ------- -----------<br>-- ----- --- ---- -- --- ------ ---- - ---- -- ----------<br>-- ------ ---- --- ---- --- --- --- ----- -- -------- ---<br>------ ------- -------- --- ---- -- ------- ------------ --<br>------ -- ---- of --- ---- -- -------- -- --- ------ ------,221457.3,221456.39999999997,221256.57,221266.39999999997,221273.529,221473.269,,44,of
screen,html.Screen,2_3_1_0_1_45,2022-05-03T18:11:44.854Z,,,,,,,,,,,,,,,,,12,,,,,,,,,,,,,,307.9310000000114,,response,,,,5,A,,,,,,Space,keypress(Space),,,,silence,,,,---- ------ ------ ------- ------ --- ------- -----------<br>-- ----- --- ---- -- --- ------ ---- - ---- -- ----------<br>-- ------ ---- --- ---- --- --- --- ----- -- -------- ---<br>------ ------- -------- --- ---- -- ------- ------------ --<br>------ -- ---- -- the ---- -- -------- -- --- ------ ------,221782.10000000003,221781.2,221456.772,221457.39999999997,221473.269,221789.842,,45,the
