sender,sender_type,sender_id,timestamp,meta,,Blues,Classical,Country,Dance,Electronic,Folk,Gospel,Hip-Hop,Jazz,Latin,Musical/Film,New-age,Pop,Prolific_id,Provo_ID,R&B,Rap,Reggae,Religious,Rock,Soul,Swing,Traditional,age,artist_name,correct,correctResponse,distraction,duration,education,ended_on,familiarity,gender,headphone_check_performance,item,list,music_frequency,offensiveness,pleasantness,position_correct,preference,response,response_action,snippet_file,song_name,song_rating,sound,stimulus_1,stimulus_2,stimulus_3,text,time_commit,time_end,time_render,time_run,time_show,time_switch,url,word,word_ID
Prolific ID,html.Form,0,2022-04-28T09:43:11.151Z,"{""labjs_version"":""20.2.2"",""labjs_build"":{""flavor"":""production"",""commit"":""a25486e0c714a0ae2ce03ff94b7bb6896854dcfa""},""location"":""https://run.pavlovia.org/mvasilev/prolific3_music_d/"",""userAgent"":""Mozilla/5.0 (Macintosh; Intel Mac OS X 10_13_5) AppleWebKit/537.36 (KHTML, like Gecko) Chrome/100.0.4896.127 Safari/537.36"",""platform"":""MacIntel"",""language"":""en-GB"",""locale"":""en-GB"",""timeZone"":""Europe/London"",""timezoneOffset"":-60,""screen_width"":1920,""screen_height"":1200,""scroll_width"":1669,""scroll_height"":902,""window_innerWidth"":1669,""window_innerHeight"":950,""devicePixelRatio"":1}",,,,,,,,,,,,,,,60f154e3b41e8202276ccc73,,,,,,,,,,,,,,,8687.527999999907,,form submission,,,,,,,,,,,,,,,,,,,,,28442.09999999986,28441.399999999907,19720.294,19718.199999999953,19753.872,28451.13,{},,
Introduction,html.Screen,1_0,2022-04-28T09:43:17.837Z,,,,,,,,,,,,,,,,,,,,,,,,,,,,,,,6671.369999999999,,response,,,,,,,,,,,continue,click button,,,,,,,,,35128.5,35122.5,28434.341,28443,28451.13,35133.152,,,
Volume calibration,html.Screen,1_1,2022-04-28T09:43:38.439Z,,,,,,,,,,,,,,,,,,,,,,,,,,,,,,,20589.148000000045,,response,,,,,,,,,,,continue,click button,,,,,,,,,55730.80000000005,55722.30000000005,35116.363,35128.80000000005,35133.152,55734.195,,,
Task instructions,html.Screen,1_2,2022-04-28T09:43:46.722Z,,,,,,,,,,,,,,,,,,,,,,,,,,,,,,,8276.305,,response,,,,,,,,,,,continue,click button,,,,,,,,,64014.19999999995,64010.5,55717.406,55730.89999999991,55734.195,64028.311,,,
Sounds,html.Screen,1_3_0_0,2022-04-28T09:43:50.973Z,,,,,,,,,,,,,,,,,,,,,,,,,,,,,,,4247.616999999998,,timeout,,,,,,,,,3,,,,,,,,I,O,S,,68265.30000000005,68259.139,64011.522,64014.59999999986,64028.311,68275.928,,,
Judgement,html.Screen,1_3_0_1,2022-04-28T09:43:51.770Z,,,,,,,,,,,,,,,,,,,,,,,,,,,,true,3,,782.5720000000001,,response,,,,,,,,,3,,3,click #choice-3,,,,,I,O,S,,69062,69058.5,68259.139,68265.59999999986,68275.928,69065.376,,,
Trial,flow.Sequence,1_3_0,2022-04-28T09:43:51.770Z,,,,,,,,,,,,,,,,,,,,,,,,,,,,,,,5030.1889999999985,,completion,,,,,,,,,3,,,,,,,,I,O,S,,69062.5,69058.5,64011.522,64014.5,64028.311,69065.376,,,
Sounds,html.Screen,1_3_1_0,2022-04-28T09:43:56.006Z,,,,,,,,,,,,,,,,,,,,,,,,,,,,,,,4247.616999999998,,timeout,,,,,,,,,2,,,,,,,,I,S,O,,73298.30000000005,73296.204,69048.587,69063,69065.376,73312.993,,,
Judgement,html.Screen,1_3_1_1,2022-04-28T09:43:56.674Z,,,,,,,,,,,,,,,,,,,,,,,,,,,,true,2,,649.6069999998581,,response,,,,,,,,,2,,2,click #choice-2,,,,,I,S,O,,73966.09999999986,73962.59999999986,73296.204,73298.69999999995,73312.993,73967.764,,,
Trial,flow.Sequence,1_3_1,2022-04-28T09:43:56.674Z,,,,,,,,,,,,,,,,,,,,,,,,,,,,,,,4897.2239999998565,,completion,,,,,,,,,2,,,,,,,,I,S,O,,73966.59999999986,73962.59999999986,69048.587,69062.69999999995,69065.376,73967.764,,,
Sounds,html.Screen,1_3_2_0,2022-04-28T09:44:00.910Z,,,,,,,,,,,,,,,,,,,,,,,,,,,,,,,4247.616999999998,,timeout,,,,,,,,,2,,,,,,,,O,S,I,,78202.19999999995,78198.592,73950.975,73966.8999999999,73967.764,78215.381,,,
Judgement,html.Screen,1_3_2_1,2022-04-28T09:44:01.433Z,,,,,,,,,,,,,,,,,,,,,,,,,,,,true,2,,507.11900000000605,,response,,,,,,,,,2,,2,click #choice-2,,,,,O,S,I,,78725.8999999999,78722.5,78198.592,78202.59999999986,78215.381,78735.84,,,
Trial,flow.Sequence,1_3_2,2022-04-28T09:44:01.434Z,,,,,,,,,,,,,,,,,,,,,,,,,,,,,,,4754.736000000004,,completion,,,,,,,,,2,,,,,,,,O,S,I,,78726.30000000005,78722.5,73950.975,73966.69999999995,73967.764,78735.84,,,
Sounds,html.Screen,1_3_3_0,2022-04-28T09:44:05.677Z,,,,,,,,,,,,,,,,,,,,,,,,,,,,,,,4247.616999999998,,timeout,,,,,,,,,3,,,,,,,,O,I,S,,82969.30000000005,82966.668,78719.051,78726.59999999986,78735.84,82983.457,,,
Judgement,html.Screen,1_3_3_1,2022-04-28T09:44:06.145Z,,,,,,,,,,,,,,,,,,,,,,,,,,,,true,3,,451.0430000000051,,response,,,,,,,,,3,,3,click #choice-3,,,,,O,I,S,,83437.69999999995,83434.5,82966.668,82969.5,82983.457,83453.89,,,
Trial,flow.Sequence,1_3_3,2022-04-28T09:44:06.145Z,,,,,,,,,,,,,,,,,,,,,,,,,,,,,,,4698.6600000000035,,completion,,,,,,,,,3,,,,,,,,O,I,S,,83438.09999999986,83434.5,78719.051,78726.3999999999,78735.84,83453.89,,,
Sounds,html.Screen,1_3_4_0,2022-04-28T09:44:10.394Z,,,,,,,,,,,,,,,,,,,,,,,,,,,,,,,4247.616999999998,,timeout,,,,,,,,,1,,,,,,,,S,O,I,,87686.30000000005,87684.718,83437.101,83438.3999999999,83453.89,87701.507,,,
Judgement,html.Screen,1_3_4_1,2022-04-28T09:44:11.049Z,,,,,,,,,,,,,,,,,,,,,,,,,,,,true,1,,636.8929999999091,,response,,,,,,,,,1,,1,click #choice-1,,,,,S,O,I,,88341.69999999995,88338.3999999999,87684.718,87686.3999999999,87701.507,88356.278,,,
Trial,flow.Sequence,1_3_4,2022-04-28T09:44:11.049Z,,,,,,,,,,,,,,,,,,,,,,,,,,,,,,,4884.509999999907,,completion,,,,,,,,,1,,,,,,,,S,O,I,,88341.8999999999,88338.3999999999,83437.101,83438.30000000005,83453.89,88356.278,,,
Sounds,html.Screen,1_3_5_0,2022-04-28T09:44:15.296Z,,,,,,,,,,,,,,,,,,,,,,,,,,,,,,,4247.616999999998,,timeout,,,,,,,,,1,,,,,,,,S,I,O,,92588.8999999999,92587.106,88339.489,88342.19999999995,88356.278,92603.895,,,
Judgement,html.Screen,1_3_5_1,2022-04-28T09:44:15.761Z,,,,,,,,,,,,,,,,,,,,,,,,,,,,true,1,,446.7049999998562,,response,,,,,,,,,1,,1,click #choice-1,,,,,S,I,O,,93054.30000000005,93050.59999999986,92587.106,92589.09999999986,92603.895,93057.198,,,
Trial,flow.Sequence,1_3_5,2022-04-28T09:44:15.762Z,,,,,,,,,,,,,,,,,,,,,,,,,,,,,,,4694.321999999855,,completion,,,,,,,,,1,,,,,,,,S,I,O,,93054.69999999995,93050.59999999986,88339.489,88342.09999999986,88356.278,93057.198,,,
Task,flow.Loop,1_3,2022-04-28T09:44:15.771Z,,,,,,,,,,,,,,,,,,,,,,,,,,,,,,,29022.28899999986,,completion,,,1,,,,,,,,,,,,,,,,,,93063.5,93050.59999999986,64011.522,64014.39999999991,64028.311,93057.198,,,
Trap,html.Screen,1_4,2022-04-28T09:44:15.772Z,,,,,,,,,,,,,,,,,,,,,,,,,,,,,,,NaN,,skipped,,,,,,,,,,,,,,,,,,,,,93065.09999999986,93050.59999999986,,93064.8999999999,,93057.198,,,
Thanks,html.Screen,1_5,2022-04-28T09:44:21.552Z,,,,,,,,,,,,,,,,,,,,,,,,,,,,,,,5785.201999999903,,response,,,,,,,,,,,continue,click button,,,,,,,,,98844.8999999999,98842.3999999999,93040.409,93065.3999999999,93057.198,103315.719,,,
Headphone screening,flow.Sequence,1,2022-04-28T09:44:21.552Z,,,,,,,,,,,,,,,,,,,,,,,,,,,,,,,70391.2699999999,,completion,,,,,,,,,,,,,,,,,,,,,98845.30000000005,98842.3999999999,28434.341,28443,28451.13,103315.719,,,
Instructions,html.Page,2_0,2022-04-28T09:44:46.733Z,,,,,,,,,,,,,,,,,,,,,,,,,,,,,,,20710.08100000005,,form submission,,,,,,,,,,,,,,,,,,,,,124026.30000000005,124025.80000000005,103298.93,103315.3999999999,103315.719,124033.612,,,
Holding screen,html.Screen,2_1_0_0,2022-04-28T09:44:56.733Z,,,,,,,,,,,,,,,,,,,,,,,,,,,,,,,10006.99000000002,,timeout,,,,,,,,,,,,,,,,,,,,,134026.3999999999,134023.813,124016.823,124026.69999999995,124033.612,134040.602,,,
screen,html.Screen,2_1_0_1_0,2022-04-28T09:44:57.770Z,,,,,,,,,,,,,,,,,53,,,,,,,,,,,,,,1016.6980000000331,,response,,,,99,,,,,,,Space,keypress(Space),,,,,,,,When -- ----- -- ------ - ------- --- ----------<br>------------- ------ ------ ---- ---- ------- ----- -- ----<br>-------- ------- -- ---------- --- - --- ----- ----- ----<br>---- --- --- ----- --- ---- ---- ------- ----- ---- -------<br>--- --- -- ----- -- --- ---- -- --- ---- -- ------ ------<br>--- ----- -- ----,135064.19999999995,135057.30000000005,134023.813,134026.8999999999,134040.602,135064.731,,0,When
screen,html.Screen,2_1_0_1_1,2022-04-28T09:44:58.263Z,,,,,,,,,,,,,,,,,53,,,,,,,,,,,,,,488.86899999986053,,response,,,,99,,,,,,,Space,keypress(Space),,,,,,,,---- it ----- -- ------ - ------- --- ----------<br>------------- ------ ------ ---- ---- ------- ----- -- ----<br>-------- ------- -- ---------- --- - --- ----- ----- ----<br>---- --- --- ----- --- ---- ---- ------- ----- ---- -------<br>--- --- -- ----- -- --- ---- -- --- ---- -- ------ ------<br>--- ----- -- ----,135557.09999999986,135553.59999999986,135047.942,135064.3999999999,135064.731,135568.698,,1,it
screen,html.Screen,2_1_0_1_2,2022-04-28T09:44:58.631Z,,,,,,,,,,,,,,,,,53,,,,,,,,,,,,,,352.90199999985634,,response,,,,99,,,,,,,Space,keypress(Space),,,,,,,,---- -- comes -- ------ - ------- --- ----------<br>------------- ------ ------ ---- ---- ------- ----- -- ----<br>-------- ------- -- ---------- --- - --- ----- ----- ----<br>---- --- --- ----- --- ---- ---- ------- ----- ---- -------<br>--- --- -- ----- -- --- ---- -- --- ---- -- ------ ------<br>--- ----- -- ----,135924.8999999999,135921.59999999986,135551.909,135557.30000000005,135568.698,135938.056,,2,comes
screen,html.Screen,2_1_0_1_3,2022-04-28T09:44:58.991Z,,,,,,,,,,,,,,,,,53,,,,,,,,,,,,,,343.34399999989546,,response,,,,99,,,,,,,Space,keypress(Space),,,,,,,,---- -- ----- to ------ - ------- --- ----------<br>------------- ------ ------ ---- ---- ------- ----- -- ----<br>-------- ------- -- ---------- --- - --- ----- ----- ----<br>---- --- --- ----- --- ---- ---- ------- ----- ---- -------<br>--- --- -- ----- -- --- ---- -- --- ---- -- ------ ------<br>--- ----- -- ----,136284.8999999999,136281.3999999999,135921.267,135925.09999999986,135938.056,136290.625,,3,to
screen,html.Screen,2_1_0_1_4,2022-04-28T09:44:59.335Z,,,,,,,,,,,,,,,,,53,,,,,,,,,,,,,,334.77499999990687,,response,,,,99,,,,,,,Space,keypress(Space),,,,,,,,---- -- ----- -- having - ------- --- ----------<br>------------- ------ ------ ---- ---- ------- ----- -- ----<br>-------- ------- -- ---------- --- - --- ----- ----- ----<br>---- --- --- ----- --- ---- ---- ------- ----- ---- -------<br>--- --- -- ----- -- --- ---- -- --- ---- -- ------ ------<br>--- ----- -- ----,136628.5,136625.3999999999,136273.836,136285,136290.625,136643.194,,4,having
screen,html.Screen,2_1_0_1_5,2022-04-28T09:44:59.703Z,,,,,,,,,,,,,,,,,53,,,,,,,,,,,,,,350.2059999999183,,response,,,,99,,,,,,,Space,keypress(Space),,,,,,,,---- -- ----- -- ------ a ------- --- ----------<br>------------- ------ ------ ---- ---- ------- ----- -- ----<br>-------- ------- -- ---------- --- - --- ----- ----- ----<br>---- --- --- ----- --- ---- ---- ------- ----- ---- -------<br>--- --- -- ----- -- --- ---- -- --- ---- -- ------ ------<br>--- ----- -- ----,136996.80000000005,136993.3999999999,136626.405,136628.69999999995,136643.194,137012.552,,5,a
screen,html.Screen,2_1_0_1_6,2022-04-28T09:45:00.055Z,,,,,,,,,,,,,,,,,53,,,,,,,,,,,,,,332.7480000000505,,response,,,,99,,,,,,,Space,keypress(Space),,,,,,,,---- -- ----- -- ------ - lasting --- ----------<br>------------- ------ ------ ---- ---- ------- ----- -- ----<br>-------- ------- -- ---------- --- - --- ----- ----- ----<br>---- --- --- ----- --- ---- ---- ------- ----- ---- -------<br>--- --- -- ----- -- --- ---- -- --- ---- -- ------ ------<br>--- ----- -- ----,137349,137345.30000000005,136995.763,136997,137012.552,137365.121,,6,lasting
screen,html.Screen,2_1_0_1_7,2022-04-28T09:45:00.423Z,,,,,,,,,,,,,,,,,53,,,,,,,,,,,,,,348.37899999998626,,response,,,,99,,,,,,,Space,keypress(Space),,,,,,,,---- -- ----- -- ------ - ------- and ----------<br>------------- ------ ------ ---- ---- ------- ----- -- ----<br>-------- ------- -- ---------- --- - --- ----- ----- ----<br>---- --- --- ----- --- ---- ---- ------- ----- ---- -------<br>--- --- -- ----- -- --- ---- -- --- ---- -- ------ ------<br>--- ----- -- ----,137716.59999999986,137713.5,137348.332,137349.19999999995,137365.121,137717.69,,7,and
screen,html.Screen,2_1_0_1_8,2022-04-28T09:45:00.975Z,,,,,,,,,,,,,,,,,53,,,,,,,,,,,,,,547.8099999999977,,response,,,,99,,,,,,,Space,keypress(Space),,,,,,,,---- -- ----- -- ------ - ------- --- fulfilling<br>------------- ------ ------ ---- ---- ------- ----- -- ----<br>-------- ------- -- ---------- --- - --- ----- ----- ----<br>---- --- --- ----- --- ---- ---- ------- ----- ---- -------<br>--- --- -- ----- -- --- ---- -- --- ---- -- ------ ------<br>--- ----- -- ----,138268.80000000005,138265.5,137700.901,137716.80000000005,137717.69,138271.727,,8,fulfilling
screen,html.Screen,2_1_0_1_9,2022-04-28T09:45:01.431Z,,,,,,,,,,,,,,,,,53,,,,,,,,,,,,,,449.7729999999865,,response,,,,99,,,,,,,Space,keypress(Space),,,,,,,,"---- -- ----- -- ------ - ------- --- ----------<br>relationship, ------ ------ ---- ---- ------- ----- -- ----<br>-------- ------- -- ---------- --- - --- ----- ----- ----<br>---- --- --- ----- --- ---- ---- ------- ----- ---- -------<br>--- --- -- ----- -- --- ---- -- --- ---- -- ------ ------<br>--- ----- -- ----",138724.69999999995,138721.5,138254.938,138269,138271.727,138741.819,,9,"relationship,"
screen,html.Screen,2_1_0_1_10,2022-04-28T09:45:01.783Z,,,,,,,,,,,,,,,,,53,,,,,,,,,,,,,,331.6810000000114,,response,,,,99,,,,,,,Space,keypress(Space),,,,,,,,---- -- ----- -- ------ - ------- --- ----------<br>------------- common ------ ---- ---- ------- ----- -- ----<br>-------- ------- -- ---------- --- - --- ----- ----- ----<br>---- --- --- ----- --- ---- ---- ------- ----- ---- -------<br>--- --- -- ----- -- --- ---- -- --- ---- -- ------ ------<br>--- ----- -- ----,139076.80000000005,139073.5,138725.03,138724.80000000005,138741.819,139094.388,,10,common
screen,html.Screen,2_1_0_1_11,2022-04-28T09:45:02.151Z,,,,,,,,,,,,,,,,,53,,,,,,,,,,,,,,347.1119999999937,,response,,,,99,,,,,,,Space,keypress(Space),,,,,,,,---- -- ----- -- ------ - ------- --- ----------<br>------------- ------ wisdom ---- ---- ------- ----- -- ----<br>-------- ------- -- ---------- --- - --- ----- ----- ----<br>---- --- --- ----- --- ---- ---- ------- ----- ---- -------<br>--- --- -- ----- -- --- ---- -- --- ---- -- ------ ------<br>--- ----- -- ----,139444.69999999995,139441.5,139077.599,139077.09999999986,139094.388,139446.957,,11,wisdom
screen,html.Screen,2_1_0_1_12,2022-04-28T09:45:02.528Z,,,,,,,,,,,,,,,,,53,,,,,,,,,,,,,,370.442999999912,,response,,,,99,,,,,,,Space,keypress(Space),,,,,,,,---- -- ----- -- ------ - ------- --- ----------<br>------------- ------ ------ says ---- ------- ----- -- ----<br>-------- ------- -- ---------- --- - --- ----- ----- ----<br>---- --- --- ----- --- ---- ---- ------- ----- ---- -------<br>--- --- -- ----- -- --- ---- -- --- ---- -- ------ ------<br>--- ----- -- ----,139822,139817.3999999999,139430.168,139444.8999999999,139446.957,139833.104,,12,says
screen,html.Screen,2_1_0_1_13,2022-04-28T09:45:02.870Z,,,,,,,,,,,,,,,,,53,,,,,,,,,,,,,,328.3960000000079,,response,,,,99,,,,,,,Space,keypress(Space),,,,,,,,---- -- ----- -- ------ - ------- --- ----------<br>------------- ------ ------ ---- that ------- ----- -- ----<br>-------- ------- -- ---------- --- - --- ----- ----- ----<br>---- --- --- ----- --- ---- ---- ------- ----- ---- -------<br>--- --- -- ----- -- --- ---- -- --- ---- -- ------ ------<br>--- ----- -- ----,140164.09999999986,140161.5,139816.315,139822.30000000005,139833.104,140185.673,,13,that
screen,html.Screen,2_1_0_1_14,2022-04-28T09:45:03.271Z,,,,,,,,,,,,,,,,,53,,,,,,,,,,,,,,375.8269999999902,,response,,,,99,,,,,,,Space,keypress(Space),,,,,,,,---- -- ----- -- ------ - ------- --- ----------<br>------------- ------ ------ ---- ---- feeling ----- -- ----<br>-------- ------- -- ---------- --- - --- ----- ----- ----<br>---- --- --- ----- --- ---- ---- ------- ----- ---- -------<br>--- --- -- ----- -- --- ---- -- --- ---- -- ------ ------<br>--- ----- -- ----,140564.69999999995,140561.5,140168.884,140164.30000000005,140185.673,140571.82,,14,feeling
screen,html.Screen,2_1_0_1_15,2022-04-28T09:45:03.607Z,,,,,,,,,,,,,,,,,53,,,,,,,,,,,,,,325.5799999998999,,response,,,,99,,,,,,,Space,keypress(Space),,,,,,,,---- -- ----- -- ------ - ------- --- ----------<br>------------- ------ ------ ---- ---- ------- close -- ----<br>-------- ------- -- ---------- --- - --- ----- ----- ----<br>---- --- --- ----- --- ---- ---- ------- ----- ---- -------<br>--- --- -- ----- -- --- ---- -- --- ---- -- ------ ------<br>--- ----- -- ----,140900.59999999986,140897.3999999999,140555.031,140564.8999999999,140571.82,140907.6,,15,close
screen,html.Screen,2_1_0_1_16,2022-04-28T09:45:03.927Z,,,,,,,,,,,,,,,,,53,,,,,,,,,,,,,,309.8999999999942,,response,,,,99,,,,,,,Space,keypress(Space),,,,,,,,---- -- ----- -- ------ - ------- --- ----------<br>------------- ------ ------ ---- ---- ------- ----- to ----<br>-------- ------- -- ---------- --- - --- ----- ----- ----<br>---- --- --- ----- --- ---- ---- ------- ----- ---- -------<br>--- --- -- ----- -- --- ---- -- --- ---- -- ------ ------<br>--- ----- -- ----,141220.69999999995,141217.5,140890.811,140900.8999999999,140907.6,141226.591,,16,to
screen,html.Screen,2_1_0_1_17,2022-04-28T09:45:04.311Z,,,,,,,,,,,,,,,,,53,,,,,,,,,,,,,,374.9090000000142,,response,,,,99,,,,,,,Space,keypress(Space),,,,,,,,---- -- ----- -- ------ - ------- --- ----------<br>------------- ------ ------ ---- ---- ------- ----- -- your<br>-------- ------- -- ---------- --- - --- ----- ----- ----<br>---- --- --- ----- --- ---- ---- ------- ----- ---- -------<br>--- --- -- ----- -- --- ---- -- --- ---- -- ------ ------<br>--- ----- -- ----,141604.59999999986,141601.5,141209.802,141220.80000000005,141226.591,141612.738,,17,your
screen,html.Screen,2_1_0_1_18,2022-04-28T09:45:04.703Z,,,,,,,,,,,,,,,,,53,,,,,,,,,,,,,,380.7619999999879,,response,,,,99,,,,,,,Space,keypress(Space),,,,,,,,---- -- ----- -- ------ - ------- --- ----------<br>------------- ------ ------ ---- ---- ------- ----- -- ----<br>romantic ------- -- ---------- --- - --- ----- ----- ----<br>---- --- --- ----- --- ---- ---- ------- ----- ---- -------<br>--- --- -- ----- -- --- ---- -- --- ---- -- ------ ------<br>--- ----- -- ----,141997,141993.5,141595.949,141604.8999999999,141612.738,141998.885,,18,romantic
screen,html.Screen,2_1_0_1_19,2022-04-28T09:45:05.047Z,,,,,,,,,,,,,,,,,53,,,,,,,,,,,,,,338.51499999989755,,response,,,,99,,,,,,,Space,keypress(Space),,,,,,,,---- -- ----- -- ------ - ------- --- ----------<br>------------- ------ ------ ---- ---- ------- ----- -- ----<br>-------- partner -- ---------- --- - --- ----- ----- ----<br>---- --- --- ----- --- ---- ---- ------- ----- ---- -------<br>--- --- -- ----- -- --- ---- -- --- ---- -- ------ ------<br>--- ----- -- ----,142341.09999999986,142337.3999999999,141982.096,141997.19999999995,141998.885,142351.454,,19,partner
screen,html.Screen,2_1_0_1_20,2022-04-28T09:45:05.415Z,,,,,,,,,,,,,,,,,53,,,,,,,,,,,,,,354.0460000000021,,response,,,,99,,,,,,,Space,keypress(Space),,,,,,,,---- -- ----- -- ------ - ------- --- ----------<br>------------- ------ ------ ---- ---- ------- ----- -- ----<br>-------- ------- is ---------- --- - --- ----- ----- ----<br>---- --- --- ----- --- ---- ---- ------- ----- ---- -------<br>--- --- -- ----- -- --- ---- -- --- ---- -- ------ ------<br>--- ----- -- ----,142709,142705.5,142334.665,142341.19999999995,142351.454,142720.812,,20,is
screen,html.Screen,2_1_0_1_21,2022-04-28T09:45:05.750Z,,,,,,,,,,,,,,,,,53,,,,,,,,,,,,,,320.68799999999464,,response,,,,99,,,,,,,Space,keypress(Space),,,,,,,,---- -- ----- -- ------ - ------- --- ----------<br>------------- ------ ------ ---- ---- ------- ----- -- ----<br>-------- ------- -- paramount. --- - --- ----- ----- ----<br>---- --- --- ----- --- ---- ---- ------- ----- ---- -------<br>--- --- -- ----- -- --- ---- -- --- ---- -- ------ ------<br>--- ----- -- ----,143044.59999999986,143041.5,142704.023,142709.19999999995,142720.812,143056.592,,21,paramount.
screen,html.Screen,2_1_0_1_22,2022-04-28T09:45:06.319Z,,,,,,,,,,,,,,,,,53,,,,,,,,,,,,,,552.9079999999958,,response,,,,99,,,,,,,Space,keypress(Space),,,,,,,,---- -- ----- -- ------ - ------- --- ----------<br>------------- ------ ------ ---- ---- ------- ----- -- ----<br>-------- ------- -- ---------- But - --- ----- ----- ----<br>---- --- --- ----- --- ---- ---- ------- ----- ---- -------<br>--- --- -- ----- -- --- ---- -- --- ---- -- ------ ------<br>--- ----- -- ----,143612.80000000005,143609.5,143039.803,143044.80000000005,143056.592,143627.418,,22,But
screen,html.Screen,2_1_0_1_23,2022-04-28T09:45:06.695Z,,,,,,,,,,,,,,,,,53,,,,,,,,,,,,,,357.98199999990175,,response,,,,99,,,,,,,Space,keypress(Space),,,,,,,,---- -- ----- -- ------ - ------- --- ----------<br>------------- ------ ------ ---- ---- ------- ----- -- ----<br>-------- ------- -- ---------- --- a --- ----- ----- ----<br>---- --- --- ----- --- ---- ---- ------- ----- ---- -------<br>--- --- -- ----- -- --- ---- -- --- ---- -- ------ ------<br>--- ----- -- ----,143988.80000000005,143985.3999999999,143610.629,143613,143627.418,143996.776,,23,a
screen,html.Screen,2_1_0_1_24,2022-04-28T09:45:07.031Z,,,,,,,,,,,,,,,,,53,,,,,,,,,,,,,,324.7239999999874,,response,,,,99,,,,,,,Space,keypress(Space),,,,,,,,---- -- ----- -- ------ - ------- --- ----------<br>------------- ------ ------ ---- ---- ------- ----- -- ----<br>-------- ------- -- ---------- --- - new ----- ----- ----<br>---- --- --- ----- --- ---- ---- ------- ----- ---- -------<br>--- --- -- ----- -- --- ---- -- --- ---- -- ------ ------<br>--- ----- -- ----,144324.8999999999,144321.5,143979.987,143988.8999999999,143996.776,144332.556,,24,new
screen,html.Screen,2_1_0_1_25,2022-04-28T09:45:07.383Z,,,,,,,,,,,,,,,,,53,,,,,,,,,,,,,,340.9439999999886,,response,,,,99,,,,,,,Space,keypress(Space),,,,,,,,---- -- ----- -- ------ - ------- --- ----------<br>------------- ------ ------ ---- ---- ------- ----- -- ----<br>-------- ------- -- ---------- --- - --- study ----- ----<br>---- --- --- ----- --- ---- ---- ------- ----- ---- -------<br>--- --- -- ----- -- --- ---- -- --- ---- -- ------ ------<br>--- ----- -- ----,144676.69999999995,144673.5,144315.767,144325.19999999995,144332.556,144685.125,,25,study
screen,html.Screen,2_1_0_1_26,2022-04-28T09:45:07.783Z,,,,,,,,,,,,,,,,,53,,,,,,,,,,,,,,388.27499999990687,,response,,,,99,,,,,,,Space,keypress(Space),,,,,,,,---- -- ----- -- ------ - ------- --- ----------<br>------------- ------ ------ ---- ---- ------- ----- -- ----<br>-------- ------- -- ---------- --- - --- ----- finds ----<br>---- --- --- ----- --- ---- ---- ------- ----- ---- -------<br>--- --- -- ----- -- --- ---- -- --- ---- -- ------ ------<br>--- ----- -- ----,145077,145073.3999999999,144668.336,144676.80000000005,144685.125,145088.339,,26,finds
screen,html.Screen,2_1_0_1_27,2022-04-28T09:45:08.223Z,,,,,,,,,,,,,,,,,53,,,,,,,,,,,,,,425.1609999999928,,response,,,,99,,,,,,,Space,keypress(Space),,,,,,,,---- -- ----- -- ------ - ------- --- ----------<br>------------- ------ ------ ---- ---- ------- ----- -- ----<br>-------- ------- -- ---------- --- - --- ----- ----- that<br>---- --- --- ----- --- ---- ---- ------- ----- ---- -------<br>--- --- -- ----- -- --- ---- -- --- ---- -- ------ ------<br>--- ----- -- ----,145516.80000000005,145513.5,145071.55,145077.19999999995,145088.339,145524.853,,27,that
screen,html.Screen,2_1_0_1_28,2022-04-28T09:45:08.639Z,,,,,,,,,,,,,,,,,53,,,,,,,,,,,,,,404.6469999999972,,response,,,,99,,,,,,,Space,keypress(Space),,,,,,,,---- -- ----- -- ------ - ------- --- ----------<br>------------- ------ ------ ---- ---- ------- ----- -- ----<br>-------- ------- -- ---------- --- - --- ----- ----- ----<br>it's --- --- ----- --- ---- ---- ------- ----- ---- -------<br>--- --- -- ----- -- --- ---- -- --- ---- -- ------ ------<br>--- ----- -- ----,145932.8999999999,145929.5,145508.064,145516.8999999999,145524.853,145944.578,,28,it's
screen,html.Screen,2_1_0_1_29,2022-04-28T09:45:08.991Z,,,,,,,,,,,,,,,,,53,,,,,,,,,,,,,,336.9219999999914,,response,,,,99,,,,,,,Space,keypress(Space),,,,,,,,---- -- ----- -- ------ - ------- --- ----------<br>------------- ------ ------ ---- ---- ------- ----- -- ----<br>-------- ------- -- ---------- --- - --- ----- ----- ----<br>---- not --- ----- --- ---- ---- ------- ----- ---- -------<br>--- --- -- ----- -- --- ---- -- --- ---- -- ------ ------<br>--- ----- -- ----,146285,146281.5,145927.789,145933,145944.578,146297.147,,29,not
screen,html.Screen,2_1_0_1_30,2022-04-28T09:45:09.351Z,,,,,,,,,,,,,,,,,53,,,,,,,,,,,,,,344.3530000000028,,response,,,,99,,,,,,,Space,keypress(Space),,,,,,,,---- -- ----- -- ------ - ------- --- ----------<br>------------- ------ ------ ---- ---- ------- ----- -- ----<br>-------- ------- -- ---------- --- - --- ----- ----- ----<br>---- --- how ----- --- ---- ---- ------- ----- ---- -------<br>--- --- -- ----- -- --- ---- -- --- ---- -- ------ ------<br>--- ----- -- ----,146644.69999999995,146641.5,146280.358,146285.19999999995,146297.147,146649.716,,30,how
screen,html.Screen,2_1_0_1_31,2022-04-28T09:45:09.687Z,,,,,,,,,,,,,,,,,53,,,,,,,,,,,,,,327.8839999998745,,response,,,,99,,,,,,,Space,keypress(Space),,,,,,,,---- -- ----- -- ------ - ------- --- ----------<br>------------- ------ ------ ---- ---- ------- ----- -- ----<br>-------- ------- -- ---------- --- - --- ----- ----- ----<br>---- --- --- close --- ---- ---- ------- ----- ---- -------<br>--- --- -- ----- -- --- ---- -- --- ---- -- ------ ------<br>--- ----- -- ----,146980.80000000005,146977.59999999986,146632.927,146644.8999999999,146649.716,146985.496,,31,close
screen,html.Screen,2_1_0_1_32,2022-04-28T09:45:10.079Z,,,,,,,,,,,,,,,,,53,,,,,,,,,,,,,,384.10399999984656,,response,,,,99,,,,,,,Space,keypress(Space),,,,,,,,---- -- ----- -- ------ - ------- --- ----------<br>------------- ------ ------ ---- ---- ------- ----- -- ----<br>-------- ------- -- ---------- --- - --- ----- ----- ----<br>---- --- --- ----- you ---- ---- ------- ----- ---- -------<br>--- --- -- ----- -- --- ---- -- --- ---- -- ------ ------<br>--- ----- -- ----,147372.8999999999,147369.59999999986,146968.707,146981,146985.496,147388.432,,32,you
screen,html.Screen,2_1_0_1_33,2022-04-28T09:45:10.431Z,,,,,,,,,,,,,,,,,53,,,,,,,,,,,,,,333.0679999999993,,response,,,,99,,,,,,,Space,keypress(Space),,,,,,,,---- -- ----- -- ------ - ------- --- ----------<br>------------- ------ ------ ---- ---- ------- ----- -- ----<br>-------- ------- -- ---------- --- - --- ----- ----- ----<br>---- --- --- ----- --- feel ---- ------- ----- ---- -------<br>--- --- -- ----- -- --- ---- -- --- ---- -- ------ ------<br>--- ----- -- ----,147724.80000000005,147721.5,147371.643,147373.09999999986,147388.432,147741.001,,33,feel
screen,html.Screen,2_1_0_1_34,2022-04-28T09:45:10.807Z,,,,,,,,,,,,,,,,,53,,,,,,,,,,,,,,356.3989999999176,,response,,,,99,,,,,,,Space,keypress(Space),,,,,,,,---- -- ----- -- ------ - ------- --- ----------<br>------------- ------ ------ ---- ---- ------- ----- -- ----<br>-------- ------- -- ---------- --- - --- ----- ----- ----<br>---- --- --- ----- --- ---- that ------- ----- ---- -------<br>--- --- -- ----- -- --- ---- -- --- ---- -- ------ ------<br>--- ----- -- ----,148100.8999999999,148097.3999999999,147724.212,147724.8999999999,147741.001,148110.359,,34,that
screen,html.Screen,2_1_0_1_35,2022-04-28T09:45:11.182Z,,,,,,,,,,,,,,,,,53,,,,,,,,,,,,,,363.0409999999101,,response,,,,99,,,,,,,Space,keypress(Space),,,,,,,,---- -- ----- -- ------ - ------- --- ----------<br>------------- ------ ------ ---- ---- ------- ----- -- ----<br>-------- ------- -- ---------- --- - --- ----- ----- ----<br>---- --- --- ----- --- ---- ---- matters ----- ---- -------<br>--- --- -- ----- -- --- ---- -- --- ---- -- ------ ------<br>--- ----- -- ----,148476.59999999986,148473.3999999999,148093.57,148101.09999999986,148110.359,148479.717,,35,matters
screen,html.Screen,2_1_0_1_36,2022-04-28T09:45:11.558Z,,,,,,,,,,,,,,,,,53,,,,,,,,,,,,,,369.7829999999958,,response,,,,99,,,,,,,Space,keypress(Space),,,,,,,,"---- -- ----- -- ------ - ------- --- ----------<br>------------- ------ ------ ---- ---- ------- ----- -- ----<br>-------- ------- -- ---------- --- - --- ----- ----- ----<br>---- --- --- ----- --- ---- ---- ------- most, ---- -------<br>--- --- -- ----- -- --- ---- -- --- ---- -- ------ ------<br>--- ----- -- ----",148852,148849.5,148462.928,148476.69999999995,148479.717,148865.864,,36,"most,"
screen,html.Screen,2_1_0_1_37,2022-04-28T09:45:11.926Z,,,,,,,,,,,,,,,,,53,,,,,,,,,,,,,,351.6359999999986,,response,,,,99,,,,,,,Space,keypress(Space),,,,,,,,---- -- ----- -- ------ - ------- --- ----------<br>------------- ------ ------ ---- ---- ------- ----- -- ----<br>-------- ------- -- ---------- --- - --- ----- ----- ----<br>---- --- --- ----- --- ---- ---- ------- ----- it's -------<br>--- --- -- ----- -- --- ---- -- --- ---- -- ------ ------<br>--- ----- -- ----,149220,149217.5,148849.075,148852.19999999995,148865.864,149235.222,,37,it's
screen,html.Screen,2_1_0_1_38,2022-04-28T09:45:12.359Z,,,,,,,,,,,,,,,,,53,,,,,,,,,,,,,,414.177999999898,,response,,,,99,,,,,,,Space,keypress(Space),,,,,,,,---- -- ----- -- ------ - ------- --- ----------<br>------------- ------ ------ ---- ---- ------- ----- -- ----<br>-------- ------- -- ---------- --- - --- ----- ----- ----<br>---- --- --- ----- --- ---- ---- ------- ----- ---- whether<br>--- --- -- ----- -- --- ---- -- --- ---- -- ------ ------<br>--- ----- -- ----,149653,149649.3999999999,149218.433,149220,149235.222,149654.947,,38,whether
screen,html.Screen,2_1_0_1_39,2022-04-28T09:45:12.703Z,,,,,,,,,,,,,,,,,53,,,,,,,,,,,,,,338.55300000001444,,response,,,,99,,,,,,,Space,keypress(Space),,,,,,,,---- -- ----- -- ------ - ------- --- ----------<br>------------- ------ ------ ---- ---- ------- ----- -- ----<br>-------- ------- -- ---------- --- - --- ----- ----- ----<br>---- --- --- ----- --- ---- ---- ------- ----- ---- -------<br>you --- -- ----- -- --- ---- -- --- ---- -- ------ ------<br>--- ----- -- ----,149996.8999999999,149993.5,149638.158,149653.09999999986,149654.947,150007.516,,39,you
screen,html.Screen,2_1_0_1_40,2022-04-28T09:45:13.014Z,,,,,,,,,,,,,,,,,53,,,,,,,,,,,,,,297.98399999999674,,response,,,,99,,,,,,,Space,keypress(Space),,,,,,,,---- -- ----- -- ------ - ------- --- ----------<br>------------- ------ ------ ---- ---- ------- ----- -- ----<br>-------- ------- -- ---------- --- - --- ----- ----- ----<br>---- --- --- ----- --- ---- ---- ------- ----- ---- -------<br>--- are -- ----- -- --- ---- -- --- ---- -- ------ ------<br>--- ----- -- ----,150308.69999999995,150305.5,149990.727,149997.09999999986,150007.516,150309.718,,40,are
screen,html.Screen,2_1_0_1_41,2022-04-28T09:45:13.326Z,,,,,,,,,,,,,,,,,53,,,,,,,,,,,,,,307.6819999999134,,response,,,,99,,,,,,,Space,keypress(Space),,,,,,,,---- -- ----- -- ------ - ------- --- ----------<br>------------- ------ ------ ---- ---- ------- ----- -- ----<br>-------- ------- -- ---------- --- - --- ----- ----- ----<br>---- --- --- ----- --- ---- ---- ------- ----- ---- -------<br>--- --- as ----- -- --- ---- -- --- ---- -- ------ ------<br>--- ----- -- ----,150620.69999999995,150617.3999999999,150292.929,150308.80000000005,150309.718,150628.709,,41,as
screen,html.Screen,2_1_0_1_42,2022-04-28T09:45:13.694Z,,,,,,,,,,,,,,,,,53,,,,,,,,,,,,,,356.79099999999744,,response,,,,99,,,,,,,Space,keypress(Space),,,,,,,,---- -- ----- -- ------ - ------- --- ----------<br>------------- ------ ------ ---- ---- ------- ----- -- ----<br>-------- ------- -- ---------- --- - --- ----- ----- ----<br>---- --- --- ----- --- ---- ---- ------- ----- ---- -------<br>--- --- -- close -- --- ---- -- --- ---- -- ------ ------<br>--- ----- -- ----,150988.30000000005,150985.5,150611.92,150621,150628.709,150998.067,,42,close
screen,html.Screen,2_1_0_1_43,2022-04-28T09:45:14.055Z,,,,,,,,,,,,,,,,,53,,,,,,,,,,,,,,347.43299999999,,response,,,,99,,,,,,,Space,keypress(Space),,,,,,,,---- -- ----- -- ------ - ------- --- ----------<br>------------- ------ ------ ---- ---- ------- ----- -- ----<br>-------- ------- -- ---------- --- - --- ----- ----- ----<br>---- --- --- ----- --- ---- ---- ------- ----- ---- -------<br>--- --- -- ----- as --- ---- -- --- ---- -- ------ ------<br>--- ----- -- ----,151349.69999999995,151345.5,150981.278,150988.3999999999,150998.067,151350.636,,43,as
screen,html.Screen,2_1_0_1_44,2022-04-28T09:45:14.422Z,,,,,,,,,,,,,,,,,53,,,,,,,,,,,,,,362.76399999990826,,response,,,,99,,,,,,,Space,keypress(Space),,,,,,,,---- -- ----- -- ------ - ------- --- ----------<br>------------- ------ ------ ---- ---- ------- ----- -- ----<br>-------- ------- -- ---------- --- - --- ----- ----- ----<br>---- --- --- ----- --- ---- ---- ------- ----- ---- -------<br>--- --- -- ----- -- you ---- -- --- ---- -- ------ ------<br>--- ----- -- ----,151716.69999999995,151713.3999999999,151333.847,151349.80000000005,151350.636,151719.994,,44,you
screen,html.Screen,2_1_0_1_45,2022-04-28T09:45:14.798Z,,,,,,,,,,,,,,,,,53,,,,,,,,,,,,,,369.3060000000405,,response,,,,99,,,,,,,Space,keypress(Space),,,,,,,,---- -- ----- -- ------ - ------- --- ----------<br>------------- ------ ------ ---- ---- ------- ----- -- ----<br>-------- ------- -- ---------- --- - --- ----- ----- ----<br>---- --- --- ----- --- ---- ---- ------- ----- ---- -------<br>--- --- -- ----- -- --- want -- --- ---- -- ------ ------<br>--- ----- -- ----,152092.59999999986,152089.30000000005,151703.205,151716.8999999999,151719.994,152106.141,,45,want
screen,html.Screen,2_1_0_1_46,2022-04-28T09:45:15.158Z,,,,,,,,,,,,,,,,,53,,,,,,,,,,,,,,343.2589999999036,,response,,,,99,,,,,,,Space,keypress(Space),,,,,,,,---- -- ----- -- ------ - ------- --- ----------<br>------------- ------ ------ ---- ---- ------- ----- -- ----<br>-------- ------- -- ---------- --- - --- ----- ----- ----<br>---- --- --- ----- --- ---- ---- ------- ----- ---- -------<br>--- --- -- ----- -- --- ---- to --- ---- -- ------ ------<br>--- ----- -- ----,152452.5,152449.3999999999,152089.352,152092.69999999995,152106.141,152458.71,,46,to
screen,html.Screen,2_1_0_1_47,2022-04-28T09:45:15.567Z,,,,,,,,,,,,,,,,,53,,,,,,,,,,,,,,398.689999999915,,response,,,,99,,,,,,,Space,keypress(Space),,,,,,,,"---- -- ----- -- ------ - ------- --- ----------<br>------------- ------ ------ ---- ---- ------- ----- -- ----<br>-------- ------- -- ---------- --- - --- ----- ----- ----<br>---- --- --- ----- --- ---- ---- ------- ----- ---- -------<br>--- --- -- ----- -- --- ---- -- be, ---- -- ------ ------<br>--- ----- -- ----",152861.5,152857.3999999999,152441.921,152452.69999999995,152458.71,152878.435,,47,"be,"
screen,html.Screen,2_1_0_1_48,2022-04-28T09:45:15.944Z,,,,,,,,,,,,,,,,,53,,,,,,,,,,,,,,354.9649999999092,,response,,,,99,,,,,,,Space,keypress(Space),,,,,,,,---- -- ----- -- ------ - ------- --- ----------<br>------------- ------ ------ ---- ---- ------- ----- -- ----<br>-------- ------- -- ---------- --- - --- ----- ----- ----<br>---- --- --- ----- --- ---- ---- ------- ----- ---- -------<br>--- --- -- ----- -- --- ---- -- --- even -- ------ ------<br>--- ----- -- ----,153238,153233.3999999999,152861.646,152861.59999999986,152878.435,153247.793,,48,even
screen,html.Screen,2_1_0_1_49,2022-04-28T09:45:16.342Z,,,,,,,,,,,,,,,,,53,,,,,,,,,,,,,,385.7069999999949,,response,,,,99,,,,,,,Space,keypress(Space),,,,,,,,---- -- ----- -- ------ - ------- --- ----------<br>------------- ------ ------ ---- ---- ------- ----- -- ----<br>-------- ------- -- ---------- --- - --- ----- ----- ----<br>---- --- --- ----- --- ---- ---- ------- ----- ---- -------<br>--- --- -- ----- -- --- ---- -- --- ---- if ------ ------<br>--- ----- -- ----,153636.5,153633.5,153231.004,153238.09999999986,153247.793,153650.729,,49,if
screen,html.Screen,2_1_0_1_50,2022-04-28T09:45:16.758Z,,,,,,,,,,,,,,,,,53,,,,,,,,,,,,,,398.7710000000079,,response,,,,99,,,,,,,Space,keypress(Space),,,,,,,,---- -- ----- -- ------ - ------- --- ----------<br>------------- ------ ------ ---- ---- ------- ----- -- ----<br>-------- ------- -- ---------- --- - --- ----- ----- ----<br>---- --- --- ----- --- ---- ---- ------- ----- ---- -------<br>--- --- -- ----- -- --- ---- -- --- ---- -- that's ------<br>--- ----- -- ----,154052.59999999986,154049.5,153633.94,153636.59999999986,153650.729,154053.665,,50,that's
screen,html.Screen,2_1_0_1_51,2022-04-28T09:45:17.143Z,,,,,,,,,,,,,,,,,53,,,,,,,,,,,,,,379.93499999985215,,response,,,,99,,,,,,,Space,keypress(Space),,,,,,,,---- -- ----- -- ------ - ------- --- ----------<br>------------- ------ ------ ---- ---- ------- ----- -- ----<br>-------- ------- -- ---------- --- - --- ----- ----- ----<br>---- --- --- ----- --- ---- ---- ------- ----- ---- -------<br>--- --- -- ----- -- --- ---- -- --- ---- -- ------ really<br>--- ----- -- ----,154436.8999999999,154433.59999999986,154036.876,154052.80000000005,154053.665,154439.812,,51,really
screen,html.Screen,2_1_0_1_52,2022-04-28T09:45:17.542Z,,,,,,,,,,,,,,,,,53,,,,,,,,,,,,,,393.68799999999464,,response,,,,99,,,,,,,Space,keypress(Space),,,,,,,,---- -- ----- -- ------ - ------- --- ----------<br>------------- ------ ------ ---- ---- ------- ----- -- ----<br>-------- ------- -- ---------- --- - --- ----- ----- ----<br>---- --- --- ----- --- ---- ---- ------- ----- ---- -------<br>--- --- -- ----- -- --- ---- -- --- ---- -- ------ ------<br>not ----- -- ----,154836.8999999999,154833.5,154423.023,154437.09999999986,154439.812,154842.748,,52,not
screen,html.Screen,2_1_0_1_53,2022-04-28T09:45:17.895Z,,,,,,,,,,,,,,,,,53,,,,,,,,,,,,,,342.7520000000077,,response,,,,99,,,,,,,Space,keypress(Space),,,,,,,,---- -- ----- -- ------ - ------- --- ----------<br>------------- ------ ------ ---- ---- ------- ----- -- ----<br>-------- ------- -- ---------- --- - --- ----- ----- ----<br>---- --- --- ----- --- ---- ---- ------- ----- ---- -------<br>--- --- -- ----- -- --- ---- -- --- ---- -- ------ ------<br>--- close -- ----,155189.19999999995,155185.5,154825.959,154837,154842.748,155195.734,,53,close
screen,html.Screen,2_1_0_1_54,2022-04-28T09:45:18.310Z,,,,,,,,,,,,,,,,,53,,,,,,,,,,,,,,405.6659999999101,,response,,,,99,,,,,,,Space,keypress(Space),,,,,,,,---- -- ----- -- ------ - ------- --- ----------<br>------------- ------ ------ ---- ---- ------- ----- -- ----<br>-------- ------- -- ---------- --- - --- ----- ----- ----<br>---- --- --- ----- --- ---- ---- ------- ----- ---- -------<br>--- --- -- ----- -- --- ---- -- --- ---- -- ------ ------<br>--- ----- at ----,155604.59999999986,155601.3999999999,155178.945,155189.30000000005,155195.734,155615.459,,54,at
screen,html.Screen,2_1_0_1_55,2022-04-28T09:45:19.590Z,,,,,,,,,,,,,,,,,53,,,,,,,,,,,,,,1266.0409999999974,,response,,,,99,,,,,,,Space,keypress(Space),,,,,,,,---- -- ----- -- ------ - ------- --- ----------<br>------------- ------ ------ ---- ---- ------- ----- -- ----<br>-------- ------- -- ---------- --- - --- ----- ----- ----<br>---- --- --- ----- --- ---- ---- ------- ----- ---- -------<br>--- --- -- ----- -- --- ---- -- --- ---- -- ------ ------<br>--- ----- -- all.,156884.80000000005,156881.5,155598.67,155604.8999999999,155615.459,156891.423,,55,all.
Item 99,flow.Loop,2_1_0_1,2022-04-28T09:45:19.591Z,,,,,,,,,,,,,,,,,,,,,,,,,,,,,,,22840.897999999986,,completion,,,,,D,,,,,,,,,,,silence,,,,,156885.19999999995,156881.5,134023.813,134026.69999999995,134040.602,156891.423,,,
Question 1,html.Screen,2_1_0_2,2022-04-28T09:45:26.135Z,,,,,,,,,,,,,,,,,,,,,,,,,,,,false,FALSE,,6534.976999999897,,response,,,,99,D,,,,,,TRUE,click #choice-1,,,,silence,,,,,163429.69999999995,163426.3999999999,156874.634,156885.30000000005,156891.423,163439.133,,,
Question 2,html.Screen,2_1_0_3,2022-04-28T09:45:33.367Z,,,,,,,,,,,,,,,,,,,,,,,,,,,,true,TRUE,,7219.366999999998,,response,,,,99,D,,,,,,TRUE,click #choice-1,,,,silence,,,,,170661.80000000005,170658.5,163422.344,163429.8999999999,163439.133,170675.458,,,
Item 99,flow.Sequence,2_1_0,2022-04-28T09:45:33.367Z,,,,,,,,,,,,,,,,,,,,,,,,,,,,,,,46624.888000000006,,completion,,,,,,,,,,,,,,,,,,,,,170662.19999999995,170658.5,124016.823,124026.59999999986,124033.612,170675.458,,,
Holding screen,html.Screen,2_1_1_0,2022-04-28T09:45:43.373Z,,,,,,,,,,,,,,,,,,,,,,,,,,,,,,,10006.649999999994,,timeout,,,,,,,,,,,,,,,,,,,,,180667.8999999999,180665.319,170658.669,170662.5,170675.458,180682.108,,,
screen,html.Screen,2_1_1_1_0,2022-04-28T09:45:43.974Z,,,,,,,,,,,,,,,,,54,,,,,,,,,,,,,,583.2919999998994,,response,,,,100,,,,,,,Space,keypress(Space),,,,,,,,At --- ---- --- ------ ----- ------- ---- -- --- ------- --<br>------- ---------- ------ -- ----- -- ----- -- ---- ------<br>--- ----- --- --- ------ -------- ----- --- ------ ----- --<br>----- ----- ---------- --- --- ------ ------ ---- -- ------<br>------- --- ------ ----- --- ---- ------- -- ---- --- --<br>------- ------,181269,181265.3999999999,180665.319,180668.19999999995,180682.108,181269.723,,0,At
screen,html.Screen,2_1_1_1_1,2022-04-28T09:45:44.318Z,,,,,,,,,,,,,,,,,54,,,,,,,,,,,,,,339.67699999990873,,response,,,,100,,,,,,,Space,keypress(Space),,,,,,,,-- the ---- --- ------ ----- ------- ---- -- --- ------- --<br>------- ---------- ------ -- ----- -- ----- -- ---- ------<br>--- ----- --- --- ------ -------- ----- --- ------ ----- --<br>----- ----- ---------- --- --- ------ ------ ---- -- ------<br>------- --- ------ ----- --- ---- ------- -- ---- --- --<br>------- ------,181612.80000000005,181609.3999999999,181252.934,181269.09999999986,181269.723,181622.292,,1,the
screen,html.Screen,2_1_1_1_2,2022-04-28T09:45:44.646Z,,,,,,,,,,,,,,,,,54,,,,,,,,,,,,,,315.3079999998736,,response,,,,100,,,,,,,Space,keypress(Space),,,,,,,,-- --- time --- ------ ----- ------- ---- -- --- ------- --<br>------- ---------- ------ -- ----- -- ----- -- ---- ------<br>--- ----- --- --- ------ -------- ----- --- ------ ----- --<br>----- ----- ---------- --- --- ------ ------ ---- -- ------<br>------- --- ------ ----- --- ---- ------- -- ---- --- --<br>------- ------,181941.19999999995,181937.59999999986,181605.503,181612.8999999999,181622.292,181958.072,,2,time
screen,html.Screen,2_1_1_1_3,2022-04-28T09:45:45.006Z,,,,,,,,,,,,,,,,,54,,,,,,,,,,,,,,339.42800000001444,,response,,,,100,,,,,,,Space,keypress(Space),,,,,,,,-- --- ---- the ------ ----- ------- ---- -- --- ------- --<br>------- ---------- ------ -- ----- -- ----- -- ---- ------<br>--- ----- --- --- ------ -------- ----- --- ------ ----- --<br>----- ----- ---------- --- --- ------ ------ ---- -- ------<br>------- --- ------ ----- --- ---- ------- -- ---- --- --<br>------- ------,182300.59999999986,182297.5,181941.283,181941.3999999999,181958.072,182310.641,,3,the
screen,html.Screen,2_1_1_1_4,2022-04-28T09:45:45.406Z,,,,,,,,,,,,,,,,,54,,,,,,,,,,,,,,386.85899999999674,,response,,,,100,,,,,,,Space,keypress(Space),,,,,,,,-- --- ---- --- French ----- ------- ---- -- --- ------- --<br>------- ---------- ------ -- ----- -- ----- -- ---- ------<br>--- ----- --- --- ------ -------- ----- --- ------ ----- --<br>----- ----- ---------- --- --- ------ ------ ---- -- ------<br>------- --- ------ ----- --- ---- ------- -- ---- --- --<br>------- ------,182700.69999999995,182697.5,182293.852,182300.8999999999,182310.641,182713.577,,4,French
screen,html.Screen,2_1_1_1_5,2022-04-28T09:45:45.782Z,,,,,,,,,,,,,,,,,54,,,,,,,,,,,,,,359.82299999991665,,response,,,,100,,,,,,,Space,keypress(Space),,,,,,,,-- --- ---- --- ------ crown ------- ---- -- --- ------- --<br>------- ---------- ------ -- ----- -- ----- -- ---- ------<br>--- ----- --- --- ------ -------- ----- --- ------ ----- --<br>----- ----- ---------- --- --- ------ ------ ---- -- ------<br>------- --- ------ ----- --- ---- ------- -- ---- --- --<br>------- ------,183076.59999999986,183073.3999999999,182696.788,182700.80000000005,182713.577,183082.935,,5,crown
screen,html.Screen,2_1_1_1_6,2022-04-28T09:45:46.142Z,,,,,,,,,,,,,,,,,54,,,,,,,,,,,,,,350.5650000000023,,response,,,,100,,,,,,,Space,keypress(Space),,,,,,,,-- --- ---- --- ------ ----- secured ---- -- --- ------- --<br>------- ---------- ------ -- ----- -- ----- -- ---- ------<br>--- ----- --- --- ------ -------- ----- --- ------ ----- --<br>----- ----- ---------- --- --- ------ ------ ---- -- ------<br>------- --- ------ ----- --- ---- ------- -- ---- --- --<br>------- ------,183436.80000000005,183433.5,183066.146,183076.80000000005,183082.935,183452.293,,6,secured
screen,html.Screen,2_1_1_1_7,2022-04-28T09:45:46.558Z,,,,,,,,,,,,,,,,,54,,,,,,,,,,,,,,397.2069999999949,,response,,,,100,,,,,,,Space,keypress(Space),,,,,,,,-- --- ---- --- ------ ----- ------- much -- --- ------- --<br>------- ---------- ------ -- ----- -- ----- -- ---- ------<br>--- ----- --- --- ------ -------- ----- --- ------ ----- --<br>----- ----- ---------- --- --- ------ ------ ---- -- ------<br>------- --- ------ ----- --- ---- ------- -- ---- --- --<br>------- ------,183852.80000000005,183849.5,183435.504,183437,183452.293,183855.229,,7,much
screen,html.Screen,2_1_1_1_8,2022-04-28T09:45:46.926Z,,,,,,,,,,,,,,,,,54,,,,,,,,,,,,,,362.2710000000079,,response,,,,100,,,,,,,Space,keypress(Space),,,,,,,,-- --- ---- --- ------ ----- ------- ---- of --- ------- --<br>------- ---------- ------ -- ----- -- ----- -- ---- ------<br>--- ----- --- --- ------ -------- ----- --- ------ ----- --<br>----- ----- ---------- --- --- ------ ------ ---- -- ------<br>------- --- ------ ----- --- ---- ------- -- ---- --- --<br>------- ------,184220.59999999986,184217.5,183838.44,183852.8999999999,183855.229,184224.587,,8,of
screen,html.Screen,2_1_1_1_9,2022-04-28T09:45:47.342Z,,,,,,,,,,,,,,,,,54,,,,,,,,,,,,,,408.91300000000047,,response,,,,100,,,,,,,Space,keypress(Space),,,,,,,,-- --- ---- --- ------ ----- ------- ---- -- its ------- --<br>------- ---------- ------ -- ----- -- ----- -- ---- ------<br>--- ----- --- --- ------ -------- ----- --- ------ ----- --<br>----- ----- ---------- --- --- ------ ------ ---- -- ------<br>------- --- ------ ----- --- ---- ------- -- ---- --- --<br>------- ------,184636.69999999995,184633.5,184207.798,184220.80000000005,184224.587,184644.312,,9,its
screen,html.Screen,2_1_1_1_10,2022-04-28T09:45:47.742Z,,,,,,,,,,,,,,,,,54,,,,,,,,,,,,,,389.0879999999015,,response,,,,100,,,,,,,Space,keypress(Space),,,,,,,,-- --- ---- --- ------ ----- ------- ---- -- --- revenue --<br>------- ---------- ------ -- ----- -- ----- -- ---- ------<br>--- ----- --- --- ------ -------- ----- --- ------ ----- --<br>----- ----- ---------- --- --- ------ ------ ---- -- ------<br>------- --- ------ ----- --- ---- ------- -- ---- --- --<br>------- ------,185036.80000000005,185033.3999999999,184627.523,184636.80000000005,184644.312,185047.248,,10,revenue
screen,html.Screen,2_1_1_1_11,2022-04-28T09:45:48.134Z,,,,,,,,,,,,,,,,,54,,,,,,,,,,,,,,378.2520000000077,,response,,,,100,,,,,,,Space,keypress(Space),,,,,,,,-- --- ---- --- ------ ----- ------- ---- -- --- ------- by<br>------- ---------- ------ -- ----- -- ----- -- ---- ------<br>--- ----- --- --- ------ -------- ----- --- ------ ----- --<br>----- ----- ---------- --- --- ------ ------ ---- -- ------<br>------- --- ------ ----- --- ---- ------- -- ---- --- --<br>------- ------,185428.59999999986,185425.5,185030.459,185037,185047.248,185433.395,,11,by
screen,html.Screen,2_1_1_1_12,2022-04-28T09:45:48.533Z,,,,,,,,,,,,,,,,,54,,,,,,,,,,,,,,392.1050000000105,,response,,,,100,,,,,,,Space,keypress(Space),,,,,,,,-- --- ---- --- ------ ----- ------- ---- -- --- ------- --<br>issuing ---------- ------ -- ----- -- ----- -- ---- ------<br>--- ----- --- --- ------ -------- ----- --- ------ ----- --<br>----- ----- ---------- --- --- ------ ------ ---- -- ------<br>------- --- ------ ----- --- ---- ------- -- ---- --- --<br>------- ------,185828.09999999986,185825.5,185416.606,185428.8999999999,185433.395,185836.331,,12,issuing
screen,html.Screen,2_1_1_1_13,2022-04-28T09:45:48.902Z,,,,,,,,,,,,,,,,,54,,,,,,,,,,,,,,357.2689999998547,,response,,,,100,,,,,,,Space,keypress(Space),,,,,,,,-- --- ---- --- ------ ----- ------- ---- -- --- ------- --<br>------- government ------ -- ----- -- ----- -- ---- ------<br>--- ----- --- --- ------ -------- ----- --- ------ ----- --<br>----- ----- ---------- --- --- ------ ------ ---- -- ------<br>------- --- ------ ----- --- ---- ------- -- ---- --- --<br>------- ------,186197,186193.59999999986,185819.542,185828.30000000005,185836.331,186205.689,,13,government
screen,html.Screen,2_1_1_1_14,2022-04-28T09:45:49.294Z,,,,,,,,,,,,,,,,,54,,,,,,,,,,,,,,379.81099999998696,,response,,,,100,,,,,,,Space,keypress(Space),,,,,,,,-- --- ---- --- ------ ----- ------- ---- -- --- ------- --<br>------- ---------- bonds. -- ----- -- ----- -- ---- ------<br>--- ----- --- --- ------ -------- ----- --- ------ ----- --<br>----- ----- ---------- --- --- ------ ------ ---- -- ------<br>------- --- ------ ----- --- ---- ------- -- ---- --- --<br>------- ------,186588.80000000005,186585.5,186188.9,186197.09999999986,186205.689,186592.157,,14,bonds.
screen,html.Screen,2_1_1_1_15,2022-04-28T09:45:49.734Z,,,,,,,,,,,,,,,,,54,,,,,,,,,,,,,,433.24299999990035,,response,,,,100,,,,,,,Space,keypress(Space),,,,,,,,-- --- ---- --- ------ ----- ------- ---- -- --- ------- --<br>------- ---------- ------ In ----- -- ----- -- ---- ------<br>--- ----- --- --- ------ -------- ----- --- ------ ----- --<br>----- ----- ---------- --- --- ------ ------ ---- -- ------<br>------- --- ------ ----- --- ---- ------- -- ---- --- --<br>------- ------,187028.80000000005,187025.3999999999,186575.368,186588.8999999999,186592.157,187045.46,,15,In
screen,html.Screen,2_1_1_1_16,2022-04-28T09:45:50.086Z,,,,,,,,,,,,,,,,,54,,,,,,,,,,,,,,332.04000000000815,,response,,,,100,,,,,,,Space,keypress(Space),,,,,,,,"-- --- ---- --- ------ ----- ------- ---- -- --- ------- --<br>------- ---------- ------ -- 1727, -- ----- -- ---- ------<br>--- ----- --- --- ------ -------- ----- --- ------ ----- --<br>----- ----- ---------- --- --- ------ ------ ---- -- ------<br>------- --- ------ ----- --- ---- ------- -- ---- --- --<br>------- ------",187380.80000000005,187377.5,187028.671,187029,187045.46,187398.029,,16,"1727,"
screen,html.Screen,2_1_1_1_17,2022-04-28T09:45:50.878Z,,,,,,,,,,,,,,,,,54,,,,,,,,,,,,,,771.4709999999905,,response,,,,100,,,,,,,Space,keypress(Space),,,,,,,,-- --- ---- --- ------ ----- ------- ---- -- --- ------- --<br>------- ---------- ------ -- ----- in ----- -- ---- ------<br>--- ----- --- --- ------ -------- ----- --- ------ ----- --<br>----- ----- ---------- --- --- ------ ------ ---- -- ------<br>------- --- ------ ----- --- ---- ------- -- ---- --- --<br>------- ------,188172.80000000005,188169.5,187381.24,187380.8999999999,187398.029,188187.112,,17,in
screen,html.Screen,2_1_1_1_18,2022-04-28T09:45:51.389Z,,,,,,,,,,,,,,,,,54,,,,,,,,,,,,,,494.3880000000063,,response,,,,100,,,,,,,Space,keypress(Space),,,,,,,,-- --- ---- --- ------ ----- ------- ---- -- --- ------- --<br>------- ---------- ------ -- ----- -- order -- ---- ------<br>--- ----- --- --- ------ -------- ----- --- ------ ----- --<br>----- ----- ---------- --- --- ------ ------ ---- -- ------<br>------- --- ------ ----- --- ---- ------- -- ---- --- --<br>------- ------,188684.69999999995,188681.5,188170.323,188172.8999999999,188187.112,188690.782,,18,order
screen,html.Screen,2_1_1_1_19,2022-04-28T09:45:51.765Z,,,,,,,,,,,,,,,,,54,,,,,,,,,,,,,,366.7179999999935,,response,,,,100,,,,,,,Space,keypress(Space),,,,,,,,-- --- ---- --- ------ ----- ------- ---- -- --- ------- --<br>------- ---------- ------ -- ----- -- ----- to ---- ------<br>--- ----- --- --- ------ -------- ----- --- ------ ----- --<br>----- ----- ---------- --- --- ------ ------ ---- -- ------<br>------- --- ------ ----- --- ---- ------- -- ---- --- --<br>------- ------,189060.59999999986,189057.5,188673.993,188684.80000000005,188690.782,189076.929,,19,to
screen,html.Screen,2_1_1_1_20,2022-04-28T09:45:52.150Z,,,,,,,,,,,,,,,,,54,,,,,,,,,,,,,,364.5709999999963,,response,,,,100,,,,,,,Space,keypress(Space),,,,,,,,-- --- ---- --- ------ ----- ------- ---- -- --- ------- --<br>------- ---------- ------ -- ----- -- ----- -- save ------<br>--- ----- --- --- ------ -------- ----- --- ------ ----- --<br>----- ----- ---------- --- --- ------ ------ ---- -- ------<br>------- --- ------ ----- --- ---- ------- -- ---- --- --<br>------- ------,189444.80000000005,189441.5,189060.14,189060.69999999995,189076.929,189446.287,,20,save
screen,html.Screen,2_1_1_1_21,2022-04-28T09:45:52.678Z,,,,,,,,,,,,,,,,,54,,,,,,,,,,,,,,523.2129999999888,,response,,,,100,,,,,,,Space,keypress(Space),,,,,,,,"-- --- ---- --- ------ ----- ------- ---- -- --- ------- --<br>------- ---------- ------ -- ----- -- ----- -- ---- money,<br>--- ----- --- --- ------ -------- ----- --- ------ ----- --<br>----- ----- ---------- --- --- ------ ------ ---- -- ------<br>------- --- ------ ----- --- ---- ------- -- ---- --- --<br>------- ------",189972.80000000005,189969.5,189429.498,189445,189446.287,189983.535,,21,"money,"
screen,html.Screen,2_1_1_1_22,2022-04-28T09:45:53.069Z,,,,,,,,,,,,,,,,,54,,,,,,,,,,,,,,377.9649999999965,,response,,,,100,,,,,,,Space,keypress(Space),,,,,,,,-- --- ---- --- ------ ----- ------- ---- -- --- ------- --<br>------- ---------- ------ -- ----- -- ----- -- ---- ------<br>the ----- --- --- ------ -------- ----- --- ------ ----- --<br>----- ----- ---------- --- --- ------ ------ ---- -- ------<br>------- --- ------ ----- --- ---- ------- -- ---- --- --<br>------- ------,190364.69999999995,190361.5,189966.746,189973,189983.535,190369.682,,22,the
screen,html.Screen,2_1_1_1_23,2022-04-28T09:45:53.397Z,,,,,,,,,,,,,,,,,54,,,,,,,,,,,,,,319.71799999990617,,response,,,,100,,,,,,,Space,keypress(Space),,,,,,,,-- --- ---- --- ------ ----- ------- ---- -- --- ------- --<br>------- ---------- ------ -- ----- -- ----- -- ---- ------<br>--- state --- --- ------ -------- ----- --- ------ ----- --<br>----- ----- ---------- --- --- ------ ------ ---- -- ------<br>------- --- ------ ----- --- ---- ------- -- ---- --- --<br>------- ------,190692.80000000005,190689.3999999999,190352.893,190364.80000000005,190369.682,190705.462,,23,state
screen,html.Screen,2_1_1_1_24,2022-04-28T09:45:53.733Z,,,,,,,,,,,,,,,,,54,,,,,,,,,,,,,,319.83800000004703,,response,,,,100,,,,,,,Space,keypress(Space),,,,,,,,-- --- ---- --- ------ ----- ------- ---- -- --- ------- --<br>------- ---------- ------ -- ----- -- ----- -- ---- ------<br>--- ----- cut --- ------ -------- ----- --- ------ ----- --<br>----- ----- ---------- --- --- ------ ------ ---- -- ------<br>------- --- ------ ----- --- ---- ------- -- ---- --- --<br>------- ------,191027.80000000005,191025.30000000005,190688.673,190693,190705.462,191041.242,,24,cut
screen,html.Screen,2_1_1_1_25,2022-04-28T09:45:54.062Z,,,,,,,,,,,,,,,,,54,,,,,,,,,,,,,,312.1579999999085,,response,,,,100,,,,,,,Space,keypress(Space),,,,,,,,-- --- ---- --- ------ ----- ------- ---- -- --- ------- --<br>------- ---------- ------ -- ----- -- ----- -- ---- ------<br>--- ----- --- the ------ -------- ----- --- ------ ----- --<br>----- ----- ---------- --- --- ------ ------ ---- -- ------<br>------- --- ------ ----- --- ---- ------- -- ---- --- --<br>------- ------,191357.30000000005,191353.3999999999,191024.453,191028,191041.242,191360.233,,25,the
screen,html.Screen,2_1_1_1_26,2022-04-28T09:45:54.414Z,,,,,,,,,,,,,,,,,54,,,,,,,,,,,,,,345.26699999999255,,response,,,,100,,,,,,,Space,keypress(Space),,,,,,,,-- --- ---- --- ------ ----- ------- ---- -- --- ------- --<br>------- ---------- ------ -- ----- -- ----- -- ---- ------<br>--- ----- --- --- bonds' -------- ----- --- ------ ----- --<br>----- ----- ---------- --- --- ------ ------ ---- -- ------<br>------- --- ------ ----- --- ---- ------- -- ---- --- --<br>------- ------,191709.09999999986,191705.5,191343.444,191357.3999999999,191360.233,191712.802,,26,bonds'
screen,html.Screen,2_1_1_1_27,2022-04-28T09:45:54.837Z,,,,,,,,,,,,,,,,,54,,,,,,,,,,,,,,416.69800000000396,,response,,,,100,,,,,,,Space,keypress(Space),,,,,,,,-- --- ---- --- ------ ----- ------- ---- -- --- ------- --<br>------- ---------- ------ -- ----- -- ----- -- ---- ------<br>--- ----- --- --- ------ interest ----- --- ------ ----- --<br>----- ----- ---------- --- --- ------ ------ ---- -- ------<br>------- --- ------ ----- --- ---- ------- -- ---- --- --<br>------- ------,192132.80000000005,192129.5,191696.013,191709.19999999995,191712.802,192149.316,,27,interest
screen,html.Screen,2_1_1_1_28,2022-04-28T09:45:55.205Z,,,,,,,,,,,,,,,,,54,,,,,,,,,,,,,,348.1840000000084,,response,,,,100,,,,,,,Space,keypress(Space),,,,,,,,-- --- ---- --- ------ ----- ------- ---- -- --- ------- --<br>------- ---------- ------ -- ----- -- ----- -- ---- ------<br>--- ----- --- --- ------ -------- rate. --- ------ ----- --<br>----- ----- ---------- --- --- ------ ------ ---- -- ------<br>------- --- ------ ----- --- ---- ------- -- ---- --- --<br>------- ------,192500.59999999986,192497.5,192132.527,192133,192149.316,192501.885,,28,rate.
screen,html.Screen,2_1_1_1_29,2022-04-28T09:45:55.646Z,,,,,,,,,,,,,,,,,54,,,,,,,,,,,,,,435.6149999999907,,response,,,,100,,,,,,,Space,keypress(Space),,,,,,,,-- --- ---- --- ------ ----- ------- ---- -- --- ------- --<br>------- ---------- ------ -- ----- -- ----- -- ---- ------<br>--- ----- --- --- ------ -------- ----- The ------ ----- --<br>----- ----- ---------- --- --- ------ ------ ---- -- ------<br>------- --- ------ ----- --- ---- ------- -- ---- --- --<br>------- ------,192941,192937.5,192485.096,192500.80000000005,192501.885,192955.188,,29,The
screen,html.Screen,2_1_1_1_30,2022-04-28T09:45:56.054Z,,,,,,,,,,,,,,,,,54,,,,,,,,,,,,,,390.31200000000536,,response,,,,100,,,,,,,Space,keypress(Space),,,,,,,,-- --- ---- --- ------ ----- ------- ---- -- --- ------- --<br>------- ---------- ------ -- ----- -- ----- -- ---- ------<br>--- ----- --- --- ------ -------- ----- --- market ----- --<br>----- ----- ---------- --- --- ------ ------ ---- -- ------<br>------- --- ------ ----- --- ---- ------- -- ---- --- --<br>------- ------,193348.8999999999,193345.5,192938.399,192941.19999999995,192955.188,193358.124,,30,market
screen,html.Screen,2_1_1_1_31,2022-04-28T09:45:56.622Z,,,,,,,,,,,,,,,,,54,,,,,,,,,,,,,,555.4759999998496,,response,,,,100,,,,,,,Space,keypress(Space),,,,,,,,-- --- ---- --- ------ ----- ------- ---- -- --- ------- --<br>------- ---------- ------ -- ----- -- ----- -- ---- ------<br>--- ----- --- --- ------ -------- ----- --- ------ value --<br>----- ----- ---------- --- --- ------ ------ ---- -- ------<br>------- --- ------ ----- --- ---- ------- -- ---- --- --<br>------- ------,193916.80000000005,193913.59999999986,193341.335,193349.09999999986,193358.124,193928.95,,31,value
screen,html.Screen,2_1_1_1_32,2022-04-28T09:45:57.029Z,,,,,,,,,,,,,,,,,54,,,,,,,,,,,,,,392.3500000000349,,response,,,,100,,,,,,,Space,keypress(Space),,,,,,,,-- --- ---- --- ------ ----- ------- ---- -- --- ------- --<br>------- ---------- ------ -- ----- -- ----- -- ---- ------<br>--- ----- --- --- ------ -------- ----- --- ------ ----- of<br>----- ----- ---------- --- --- ------ ------ ---- -- ------<br>------- --- ------ ----- --- ---- ------- -- ---- --- --<br>------- ------,194324.5,194321.30000000005,193912.161,193917,193928.95,194331.886,,32,of
screen,html.Screen,2_1_1_1_33,2022-04-28T09:45:57.389Z,,,,,,,,,,,,,,,,,54,,,,,,,,,,,,,,349.51399999990826,,response,,,,100,,,,,,,Space,keypress(Space),,,,,,,,-- --- ---- --- ------ ----- ------- ---- -- --- ------- --<br>------- ---------- ------ -- ----- -- ----- -- ---- ------<br>--- ----- --- --- ------ -------- ----- --- ------ ----- --<br>these ----- ---------- --- --- ------ ------ ---- -- ------<br>------- --- ------ ----- --- ---- ------- -- ---- --- --<br>------- ------,194684.59999999986,194681.3999999999,194315.097,194324.59999999986,194331.886,194701.244,,33,these
screen,html.Screen,2_1_1_1_34,2022-04-28T09:45:57.773Z,,,,,,,,,,,,,,,,,54,,,,,,,,,,,,,,364.25599999999395,,response,,,,100,,,,,,,Space,keypress(Space),,,,,,,,-- --- ---- --- ------ ----- ------- ---- -- --- ------- --<br>------- ---------- ------ -- ----- -- ----- -- ---- ------<br>--- ----- --- --- ------ -------- ----- --- ------ ----- --<br>----- bonds ---------- --- --- ------ ------ ---- -- ------<br>------- --- ------ ----- --- ---- ------- -- ---- --- --<br>------- ------,195068.59999999986,195065.5,194684.455,194684.69999999995,194701.244,195070.602,,34,bonds
screen,html.Screen,2_1_1_1_35,2022-04-28T09:45:58.149Z,,,,,,,,,,,,,,,,,54,,,,,,,,,,,,,,370.69800000003306,,response,,,,100,,,,,,,Space,keypress(Space),,,,,,,,"-- --- ---- --- ------ ----- ------- ---- -- --- ------- --<br>------- ---------- ------ -- ----- -- ----- -- ---- ------<br>--- ----- --- --- ------ -------- ----- --- ------ ----- --<br>----- ----- plummeted, --- --- ------ ------ ---- -- ------<br>------- --- ------ ----- --- ---- ------- -- ---- --- --<br>------- ------",195444.80000000005,195441.30000000005,195053.813,195068.80000000005,195070.602,195456.749,,35,"plummeted,"
screen,html.Screen,2_1_1_1_36,2022-04-28T09:45:58.525Z,,,,,,,,,,,,,,,,,54,,,,,,,,,,,,,,360.65099999989616,,response,,,,100,,,,,,,Space,keypress(Space),,,,,,,,-- --- ---- --- ------ ----- ------- ---- -- --- ------- --<br>------- ---------- ------ -- ----- -- ----- -- ---- ------<br>--- ----- --- --- ------ -------- ----- --- ------ ----- --<br>----- ----- ---------- and --- ------ ------ ---- -- ------<br>------- --- ------ ----- --- ---- ------- -- ---- --- --<br>------- ------,195820.69999999995,195817.3999999999,195439.96,195445,195456.749,195826.107,,36,and
screen,html.Screen,2_1_1_1_37,2022-04-28T09:45:58.901Z,,,,,,,,,,,,,,,,,54,,,,,,,,,,,,,,367.39300000001094,,response,,,,100,,,,,,,Space,keypress(Space),,,,,,,,-- --- ---- --- ------ ----- ------- ---- -- --- ------- --<br>------- ---------- ------ -- ----- -- ----- -- ---- ------<br>--- ----- --- --- ------ -------- ----- --- ------ ----- --<br>----- ----- ---------- --- the ------ ------ ---- -- ------<br>------- --- ------ ----- --- ---- ------- -- ---- --- --<br>------- ------,196196.69999999995,196193.5,195809.318,195820.8999999999,195826.107,196212.254,,37,the
screen,html.Screen,2_1_1_1_38,2022-04-28T09:45:59.286Z,,,,,,,,,,,,,,,,,54,,,,,,,,,,,,,,365.24600000001374,,response,,,,100,,,,,,,Space,keypress(Space),,,,,,,,-- --- ---- --- ------ ----- ------- ---- -- --- ------- --<br>------- ---------- ------ -- ----- -- ----- -- ---- ------<br>--- ----- --- --- ------ -------- ----- --- ------ ----- --<br>----- ----- ---------- --- --- market ------ ---- -- ------<br>------- --- ------ ----- --- ---- ------- -- ---- --- --<br>------- ------,196580.8999999999,196577.5,196195.465,196196.8999999999,196212.254,196598.401,,38,market
screen,html.Screen,2_1_1_1_39,2022-04-28T09:45:59.637Z,,,,,,,,,,,,,,,,,54,,,,,,,,,,,,,,331.0989999999874,,response,,,,100,,,,,,,Space,keypress(Space),,,,,,,,-- --- ---- --- ------ ----- ------- ---- -- --- ------- --<br>------- ---------- ------ -- ----- -- ----- -- ---- ------<br>--- ----- --- --- ------ -------- ----- --- ------ ----- --<br>----- ----- ---------- --- --- ------ became ---- -- ------<br>------- --- ------ ----- --- ---- ------- -- ---- --- --<br>------- ------,196932.69999999995,196929.5,196581.612,196581.19999999995,196598.401,196934.537,,39,became
screen,html.Screen,2_1_1_1_40,2022-04-28T09:46:00.005Z,,,,,,,,,,,,,,,,,54,,,,,,,,,,,,,,362.7630000000354,,response,,,,100,,,,,,,Space,keypress(Space),,,,,,,,-- --- ---- --- ------ ----- ------- ---- -- --- ------- --<br>------- ---------- ------ -- ----- -- ----- -- ---- ------<br>--- ----- --- --- ------ -------- ----- --- ------ ----- --<br>----- ----- ---------- --- --- ------ ------ wary -- ------<br>------- --- ------ ----- --- ---- ------- -- ---- --- --<br>------- ------,197300,197297.30000000005,196917.748,196932.8999999999,196934.537,197303.895,,40,wary
screen,html.Screen,2_1_1_1_41,2022-04-28T09:46:00.437Z,,,,,,,,,,,,,,,,,54,,,,,,,,,,,,,,425.6050000000105,,response,,,,100,,,,,,,Space,keypress(Space),,,,,,,,-- --- ---- --- ------ ----- ------- ---- -- --- ------- --<br>------- ---------- ------ -- ----- -- ----- -- ---- ------<br>--- ----- --- --- ------ -------- ----- --- ------ ----- --<br>----- ----- ---------- --- --- ------ ------ ---- of ------<br>------- --- ------ ----- --- ---- ------- -- ---- --- --<br>------- ------,197732.5,197729.5,197287.106,197300.19999999995,197303.895,197740.409,,41,of
screen,html.Screen,2_1_1_1_42,2022-04-28T09:46:00.941Z,,,,,,,,,,,,,,,,,54,,,,,,,,,,,,,,493.0909999999858,,response,,,,100,,,,,,,Space,keypress(Space),,,,,,,,-- --- ---- --- ------ ----- ------- ---- -- --- ------- --<br>------- ---------- ------ -- ----- -- ----- -- ---- ------<br>--- ----- --- --- ------ -------- ----- --- ------ ----- --<br>----- ----- ---------- --- --- ------ ------ ---- -- French<br>------- --- ------ ----- --- ---- ------- -- ---- --- --<br>------- ------,198236.69999999995,198233.5,197723.62,197732.59999999986,197740.409,198244.079,,42,French
screen,html.Screen,2_1_1_1_43,2022-04-28T09:46:01.845Z,,,,,,,,,,,,,,,,,54,,,,,,,,,,,,,,893.2210000000487,,response,,,,100,,,,,,,Space,keypress(Space),,,,,,,,-- --- ---- --- ------ ----- ------- ---- -- --- ------- --<br>------- ---------- ------ -- ----- -- ----- -- ---- ------<br>--- ----- --- --- ------ -------- ----- --- ------ ----- --<br>----- ----- ---------- --- --- ------ ------ ---- -- ------<br>credit. --- ------ ----- --- ---- ------- -- ---- --- --<br>------- ------,199140.30000000005,199137.30000000005,198227.29,198236.80000000005,198244.079,199150.685,,43,credit.
screen,html.Screen,2_1_1_1_44,2022-04-28T09:46:02.238Z,,,,,,,,,,,,,,,,,54,,,,,,,,,,,,,,378.91499999986263,,response,,,,100,,,,,,,Space,keypress(Space),,,,,,,,-- --- ---- --- ------ ----- ------- ---- -- --- ------- --<br>------- ---------- ------ -- ----- -- ----- -- ---- ------<br>--- ----- --- --- ------ -------- ----- --- ------ ----- --<br>----- ----- ---------- --- --- ------ ------ ---- -- ------<br>------- The ------ ----- --- ---- ------- -- ---- --- --<br>------- ------,199533.09999999986,199529.59999999986,199133.896,199140.5,199150.685,199536.832,,44,The
screen,html.Screen,2_1_1_1_45,2022-04-28T09:46:02.589Z,,,,,,,,,,,,,,,,,54,,,,,,,,,,,,,,344.6680000000051,,response,,,,100,,,,,,,Space,keypress(Space),,,,,,,,-- --- ---- --- ------ ----- ------- ---- -- --- ------- --<br>------- ---------- ------ -- ----- -- ----- -- ---- ------<br>--- ----- --- --- ------ -------- ----- --- ------ ----- --<br>----- ----- ---------- --- --- ------ ------ ---- -- ------<br>------- --- French ----- --- ---- ------- -- ---- --- --<br>------- ------,199884.59999999986,199881.5,199520.043,199533.30000000005,199536.832,199889.401,,45,French
screen,html.Screen,2_1_1_1_46,2022-04-28T09:46:03.005Z,,,,,,,,,,,,,,,,,54,,,,,,,,,,,,,,408.0989999999874,,response,,,,100,,,,,,,Space,keypress(Space),,,,,,,,-- --- ---- --- ------ ----- ------- ---- -- --- ------- --<br>------- ---------- ------ -- ----- -- ----- -- ---- ------<br>--- ----- --- --- ------ -------- ----- --- ------ ----- --<br>----- ----- ---------- --- --- ------ ------ ---- -- ------<br>------- --- ------ state --- ---- ------- -- ---- --- --<br>------- ------,200300.8999999999,200297.5,199872.612,199884.8999999999,199889.401,200309.126,,46,state
screen,html.Screen,2_1_1_1_47,2022-04-28T09:46:03.365Z,,,,,,,,,,,,,,,,,54,,,,,,,,,,,,,,348.3740000000107,,response,,,,100,,,,,,,Space,keypress(Space),,,,,,,,-- --- ---- --- ------ ----- ------- ---- -- --- ------- --<br>------- ---------- ------ -- ----- -- ----- -- ---- ------<br>--- ----- --- --- ------ -------- ----- --- ------ ----- --<br>----- ----- ---------- --- --- ------ ------ ---- -- ------<br>------- --- ------ ----- was ---- ------- -- ---- --- --<br>------- ------,200660.09999999986,200657.5,200292.337,200301.09999999986,200309.126,200661.695,,47,was
screen,html.Screen,2_1_1_1_48,2022-04-28T09:46:03.717Z,,,,,,,,,,,,,,,,,54,,,,,,,,,,,,,,347.7049999998999,,response,,,,100,,,,,,,Space,keypress(Space),,,,,,,,-- --- ---- --- ------ ----- ------- ---- -- --- ------- --<br>------- ---------- ------ -- ----- -- ----- -- ---- ------<br>--- ----- --- --- ------ -------- ----- --- ------ ----- --<br>----- ----- ---------- --- --- ------ ------ ---- -- ------<br>------- --- ------ ----- --- left ------- -- ---- --- --<br>------- ------,201012.69999999995,201009.3999999999,200644.906,200660.19999999995,200661.695,201014.264,,48,left
screen,html.Screen,2_1_1_1_49,2022-04-28T09:46:04.086Z,,,,,,,,,,,,,,,,,54,,,,,,,,,,,,,,363.2360000000044,,response,,,,100,,,,,,,Space,keypress(Space),,,,,,,,-- --- ---- --- ------ ----- ------- ---- -- --- ------- --<br>------- ---------- ------ -- ----- -- ----- -- ---- ------<br>--- ----- --- --- ------ -------- ----- --- ------ ----- --<br>----- ----- ---------- --- --- ------ ------ ---- -- ------<br>------- --- ------ ----- --- ---- without -- ---- --- --<br>------- ------,201381,201377.5,200997.475,201012.80000000005,201014.264,201383.622,,49,without
screen,html.Screen,2_1_1_1_50,2022-04-28T09:46:04.461Z,,,,,,,,,,,,,,,,,54,,,,,,,,,,,,,,369.877999999997,,response,,,,100,,,,,,,Space,keypress(Space),,,,,,,,-- --- ---- --- ------ ----- ------- ---- -- --- ------- --<br>------- ---------- ------ -- ----- -- ----- -- ---- ------<br>--- ----- --- --- ------ -------- ----- --- ------ ----- --<br>----- ----- ---------- --- --- ------ ------ ---- -- ------<br>------- --- ------ ----- --- ---- ------- an ---- --- --<br>------- ------,201756.80000000005,201753.5,201366.833,201381.19999999995,201383.622,201769.769,,50,an
screen,html.Screen,2_1_1_1_51,2022-04-28T09:46:04.885Z,,,,,,,,,,,,,,,,,54,,,,,,,,,,,,,,407.63099999990663,,response,,,,100,,,,,,,Space,keypress(Space),,,,,,,,-- --- ---- --- ------ ----- ------- ---- -- --- ------- --<br>------- ---------- ------ -- ----- -- ----- -- ---- ------<br>--- ----- --- --- ------ -------- ----- --- ------ ----- --<br>----- ----- ---------- --- --- ------ ------ ---- -- ------<br>------- --- ------ ----- --- ---- ------- -- easy --- --<br>------- ------,202180.8999999999,202177.3999999999,201752.98,201757.19999999995,201769.769,202189.494,,51,easy
screen,html.Screen,2_1_1_1_52,2022-04-28T09:46:05.285Z,,,,,,,,,,,,,,,,,54,,,,,,,,,,,,,,387.9059999999008,,response,,,,100,,,,,,,Space,keypress(Space),,,,,,,,-- --- ---- --- ------ ----- ------- ---- -- --- ------- --<br>------- ---------- ------ -- ----- -- ----- -- ---- ------<br>--- ----- --- --- ------ -------- ----- --- ------ ----- --<br>----- ----- ---------- --- --- ------ ------ ---- -- ------<br>------- --- ------ ----- --- ---- ------- -- ---- way --<br>------- ------,202580.5,202577.3999999999,202172.705,202181.09999999986,202189.494,202592.43,,52,way
screen,html.Screen,2_1_1_1_53,2022-04-28T09:46:05.717Z,,,,,,,,,,,,,,,,,54,,,,,,,,,,,,,,417.070000000007,,response,,,,100,,,,,,,Space,keypress(Space),,,,,,,,-- --- ---- --- ------ ----- ------- ---- -- --- ------- --<br>------- ---------- ------ -- ----- -- ----- -- ---- ------<br>--- ----- --- --- ------ -------- ----- --- ------ ----- --<br>----- ----- ---------- --- --- ------ ------ ---- -- ------<br>------- --- ------ ----- --- ---- ------- -- ---- --- of<br>------- ------,203012.8999999999,203009.5,202575.641,202580.59999999986,202592.43,203028.944,,53,of
screen,html.Screen,2_1_1_1_54,2022-04-28T09:46:06.165Z,,,,,,,,,,,,,,,,,54,,,,,,,,,,,,,,428.356000000058,,response,,,,100,,,,,,,Space,keypress(Space),,,,,,,,-- --- ---- --- ------ ----- ------- ---- -- --- ------- --<br>------- ---------- ------ -- ----- -- ----- -- ---- ------<br>--- ----- --- --- ------ -------- ----- --- ------ ----- --<br>----- ----- ---------- --- --- ------ ------ ---- -- ------<br>------- --- ------ ----- --- ---- ------- -- ---- --- --<br>raising ------,203460.69999999995,203457.30000000005,203012.155,203013.09999999986,203028.944,203465.458,,54,raising
screen,html.Screen,2_1_1_1_55,2022-04-28T09:46:06.613Z,,,,,,,,,,,,,,,,,54,,,,,,,,,,,,,,439.8420000000333,,response,,,,100,,,,,,,Space,keypress(Space),,,,,,,,-- --- ---- --- ------ ----- ------- ---- -- --- ------- --<br>------- ---------- ------ -- ----- -- ----- -- ---- ------<br>--- ----- --- --- ------ -------- ----- --- ------ ----- --<br>----- ----- ---------- --- --- ------ ------ ---- -- ------<br>------- --- ------ ----- --- ---- ------- -- ---- --- --<br>------- money.,203908.69999999995,203905.30000000005,203448.669,203460.8999999999,203465.458,203918.761,,55,money.
Item 100,flow.Loop,2_1_1_1,2022-04-28T09:46:06.613Z,,,,,,,,,,,,,,,,,,,,,,,,,,,,,,,23223.19200000004,,completion,,,,,D,,,,,,,,,,,silence,,,,,203908.8999999999,203905.30000000005,180665.319,180668.09999999986,180682.108,203918.761,,,
Question 1,html.Screen,2_1_1_2,2022-04-28T09:46:09.454Z,,,,,,,,,,,,,,,,,,,,,,,,,,,,true,TRUE,,2827.8389999998617,,response,,,,100,D,,,,,,TRUE,click #choice-1,,,,silence,,,,,206749.8999999999,206746.59999999986,203901.972,203909.09999999986,203918.761,206756.102,,,
Question 2,html.Screen,2_1_1_3,2022-04-28T09:46:11.806Z,,,,,,,,,,,,,,,,,,,,,,,,,,,,true,FALSE,,2342.3979999999865,,response,,,,100,D,,,,,,FALSE,click #choice-2,,,,silence,,,,,209101.69999999995,209098.5,206739.313,206750,206756.102,209106.891,,,
Item 100,flow.Sequence,2_1_1,2022-04-28T09:46:11.806Z,,,,,,,,,,,,,,,,,,,,,,,,,,,,,,,38423.04199999999,,completion,,,,,,,,,,,,,,,,,,,,,209102.09999999986,209098.5,170658.669,170662.3999999999,170675.458,209106.891,,,
End of Practice,html.Page,2_1_2,2022-04-28T09:46:16.574Z,,,,,,,,,,,,,,,,,,,,,,,,,,,,,,,4763.008999999904,,form submission,,,,,,,,,,,,,,,,,,,,,213870.30000000005,213869.8999999999,209090.102,209102.19999999995,209106.891,213874.967,,,
Practice,flow.Sequence,2_1,2022-04-28T09:46:16.576Z,,,,,,,,,,,,,,,,,,,,,,,,,,,,,,,89836.28799999991,,completion,,,,,,,,,,,,,,,,,,,,,213871.59999999986,213869.8999999999,124016.823,124026.59999999986,124033.612,213874.967,,,
Trap_instruction,html.Page,2_2_0,2022-04-28T09:46:21.223Z,,,,,,,,,,,,,,,,,,,,,,,,,,,,,,,4643.232999999949,,form submission,,,,,,,,,,,,,,,,,,,,,218518.59999999986,218518.19999999995,213858.178,213871.80000000005,213874.967,218542.309,,,
trap_trial,html.Screen,2_2_1,2022-04-28T09:46:24.262Z,,,,,,,,,,,,,,,,,,,,,,,,,,,,true,1,,3012.290999999852,,response,,,,,,,,,,,1,click #choice-1,,,,,,,,,221557.69999999995,221554.59999999986,218508.731,218518.69999999995,218542.309,221564.677,,,
end of trap trial,html.Page,2_2_2,2022-04-28T09:46:25.958Z,,,,,,,,,,,,,,,,,,,,,,,,,,,,,,,1688.7229999999108,,form submission,,,,,,,,,,,,,,,,,,,,,223253.80000000005,223253.3999999999,221547.888,221557.8999999999,221564.677,223260.366,,,
Trap 1,flow.Sequence,2_2,2022-04-28T09:46:25.958Z,,,,,,,,,,,,,,,,,,,,,,,,,,,,,,,9378.432999999903,,completion,,,,,,,,,,,,,,,,,,,,,223254,223253.3999999999,213858.178,213871.69999999995,213874.967,223260.366,,,
Standby,html.Page,2_3_0,2022-04-28T09:46:33.958Z,,,,,,,,,,,,,,,,,,,,,,,,,,,,,,,8008.353000000003,,timeout,,,,,,,,,,,,,,,,,,,,,231254.3999999999,231251.93,223243.577,223254.09999999986,223260.366,231268.719,,,
Holding screen,html.Screen,2_3_1_0_0,2022-04-28T09:46:40.959Z,,,,,,,,,,,,,,,,,,,,,,,,,,,,,,,7001.468999999983,,timeout,,,,,,,,,,,,,,,,,,,,,238255.30000000005,238253.399,231251.93,231254.80000000005,231268.719,238270.188,,,
screen,html.Screen,2_3_1_0_1_0,2022-04-28T09:46:41.581Z,,,,,,,,,,,,,,,,,12,,,,,,,,,,,,,,603.3120000000054,,response,,,,5,D,,,,,,Space,keypress(Space),,,,speech,,,,Some ------ ------ ------- ------ --- ------- -----------<br>-- ----- --- ---- -- --- ------ ---- - ---- -- ----------<br>-- ------ ---- --- ---- --- --- --- ----- -- -------- ---<br>------ ------- -------- --- ---- -- ------- ------------ --<br>------ -- ---- -- --- ---- -- -------- -- --- ------ ------,238877.3999999999,238873.5,238253.399,238255.59999999986,238270.188,238891.381,,0,Some
screen,html.Screen,2_3_1_0_1_1,2022-04-28T09:46:42.196Z,,,,,,,,,,,,,,,,,12,,,,,,,,,,,,,,598.0189999999129,,response,,,,5,D,,,,,,Space,keypress(Space),,,,speech,,,,---- months ------ ------- ------ --- ------- -----------<br>-- ----- --- ---- -- --- ------ ---- - ---- -- ----------<br>-- ------ ---- --- ---- --- --- --- ----- -- -------- ---<br>------ ------- -------- --- ---- -- ------- ------------ --<br>------ -- ---- -- --- ---- -- -------- -- --- ------ ------,239492.80000000005,239489.3999999999,238874.592,238877.5,238891.381,239495.785,,1,months
screen,html.Screen,2_3_1_0_1_2,2022-04-28T09:46:42.612Z,,,,,,,,,,,,,,,,,12,,,,,,,,,,,,,,409.7149999999965,,response,,,,5,D,,,,,,Space,keypress(Space),,,,speech,,,,"---- ------ later, ------- ------ --- ------- -----------<br>-- ----- --- ---- -- --- ------ ---- - ---- -- ----------<br>-- ------ ---- --- ---- --- --- --- ----- -- -------- ---<br>------ ------- -------- --- ---- -- ------- ------------ --<br>------ -- ---- -- --- ---- -- -------- -- --- ------ ------",239908.8999999999,239905.5,239478.996,239493,239495.785,239915.51,,2,"later,"
screen,html.Screen,2_3_1_0_1_3,2022-04-28T09:46:43.300Z,,,,,,,,,,,,,,,,,12,,,,,,,,,,,,,,677.7900000000373,,response,,,,5,D,,,,,,Space,keypress(Space),,,,speech,,,,---- ------ ------ Michael ------ --- ------- -----------<br>-- ----- --- ---- -- --- ------ ---- - ---- -- ----------<br>-- ------ ---- --- ---- --- --- --- ----- -- -------- ---<br>------ ------- -------- --- ---- -- ------- ------------ --<br>------ -- ---- -- --- ---- -- -------- -- --- ------ ------,240596.09999999986,240593.30000000005,239898.721,239909,239915.51,240603.859,,3,Michael
screen,html.Screen,2_3_1_0_1_4,2022-04-28T09:46:44.020Z,,,,,,,,,,,,,,,,,12,,,,,,,,,,,,,,709.5409999999101,,response,,,,5,D,,,,,,Space,keypress(Space),,,,speech,,,,---- ------ ------ ------- Larson --- ------- -----------<br>-- ----- --- ---- -- --- ------ ---- - ---- -- ----------<br>-- ------ ---- --- ---- --- --- --- ----- -- -------- ---<br>------ ------- -------- --- ---- -- ------- ------------ --<br>------ -- ---- -- --- ---- -- -------- -- --- ------ ------,241316.59999999986,241313.3999999999,240587.07,240596.19999999995,240603.859,241325.786,,4,Larson
screen,html.Screen,2_3_1_0_1_5,2022-04-28T09:46:45.300Z,,,,,,,,,,,,,,,,,12,,,,,,,,,,,,,,1267.7140000000072,,response,,,,5,D,,,,,,Space,keypress(Space),,,,speech,,,,---- ------ ------ ------- ------ saw ------- -----------<br>-- ----- --- ---- -- --- ------ ---- - ---- -- ----------<br>-- ------ ---- --- ---- --- --- --- ----- -- -------- ---<br>------ ------- -------- --- ---- -- ------- ------------ --<br>------ -- ---- -- --- ---- -- -------- -- --- ------ ------,242596.80000000005,242593.5,241308.997,241316.80000000005,241325.786,242601.75,,5,saw
screen,html.Screen,2_3_1_0_1_6,2022-04-28T09:46:45.724Z,,,,,,,,,,,,,,,,,12,,,,,,,,,,,,,,415.64999999990687,,response,,,,5,D,,,,,,Space,keypress(Space),,,,speech,,,,---- ------ ------ ------- ------ --- another -----------<br>-- ----- --- ---- -- --- ------ ---- - ---- -- ----------<br>-- ------ ---- --- ---- --- --- --- ----- -- -------- ---<br>------ ------- -------- --- ---- -- ------- ------------ --<br>------ -- ---- -- --- ---- -- -------- -- --- ------ ------,243021,243017.3999999999,242584.961,242596.8999999999,242601.75,243038.588,,6,another
screen,html.Screen,2_3_1_0_1_7,2022-04-28T09:46:46.780Z,,,,,,,,,,,,,,,,,12,,,,,,,,,,,,,,1034.9120000000112,,response,,,,5,D,,,,,,Space,keypress(Space),,,,speech,,,,---- ------ ------ ------- ------ --- ------- opportunity<br>-- ----- --- ---- -- --- ------ ---- - ---- -- ----------<br>-- ------ ---- --- ---- --- --- --- ----- -- -------- ---<br>------ ------- -------- --- ---- -- ------- ------------ --<br>------ -- ---- -- --- ---- -- -------- -- --- ------ ------,244076.5,244073.5,243021.799,243021.09999999986,243038.588,244079.506,,7,opportunity
screen,html.Screen,2_3_1_0_1_8,2022-04-28T09:46:47.277Z,,,,,,,,,,,,,,,,,12,,,,,,,,,,,,,,490.09399999986636,,response,,,,5,D,,,,,,Space,keypress(Space),,,,speech,,,,---- ------ ------ ------- ------ --- ------- -----------<br>to ----- --- ---- -- --- ------ ---- - ---- -- ----------<br>-- ------ ---- --- ---- --- --- --- ----- -- -------- ---<br>------ ------- -------- --- ---- -- ------- ------------ --<br>------ -- ---- -- --- ---- -- -------- -- --- ------ ------,244573.19999999995,244569.59999999986,244062.717,244076.69999999995,244079.506,244583.176,,8,to
screen,html.Screen,2_3_1_0_1_9,2022-04-28T09:46:47.748Z,,,,,,,,,,,,,,,,,12,,,,,,,,,,,,,,458.32399999999325,,response,,,,5,D,,,,,,Space,keypress(Space),,,,speech,,,,---- ------ ------ ------- ------ --- ------- -----------<br>-- stack --- ---- -- --- ------ ---- - ---- -- ----------<br>-- ------ ---- --- ---- --- --- --- ----- -- -------- ---<br>------ ------- -------- --- ---- -- ------- ------------ --<br>------ -- ---- -- --- ---- -- -------- -- --- ------ ------,245044.30000000005,245041.5,244566.387,244573.5,244583.176,245053.268,,9,stack
screen,html.Screen,2_3_1_0_1_10,2022-04-28T09:46:48.180Z,,,,,,,,,,,,,,,,,12,,,,,,,,,,,,,,420.23199999998906,,response,,,,5,D,,,,,,Space,keypress(Space),,,,speech,,,,---- ------ ------ ------- ------ --- ------- -----------<br>-- ----- the ---- -- --- ------ ---- - ---- -- ----------<br>-- ------ ---- --- ---- --- --- --- ----- -- -------- ---<br>------ ------- -------- --- ---- -- ------- ------------ --<br>------ -- ---- -- --- ---- -- -------- -- --- ------ ------,245476.80000000005,245473.5,245036.479,245044.3999999999,245053.268,245489.782,,10,the
screen,html.Screen,2_3_1_0_1_11,2022-04-28T09:46:48.548Z,,,,,,,,,,,,,,,,,12,,,,,,,,,,,,,,351.61799999990035,,response,,,,5,D,,,,,,Space,keypress(Space),,,,speech,,,,---- ------ ------ ------- ------ --- ------- -----------<br>-- ----- --- odds -- --- ------ ---- - ---- -- ----------<br>-- ------ ---- --- ---- --- --- --- ----- -- -------- ---<br>------ ------- -------- --- ---- -- ------- ------------ --<br>------ -- ---- -- --- ---- -- -------- -- --- ------ ------,245844.5,245841.3999999999,245472.993,245477,245489.782,245859.14,,11,odds
screen,html.Screen,2_3_1_0_1_12,2022-04-28T09:46:48.964Z,,,,,,,,,,,,,,,,,12,,,,,,,,,,,,,,398.35999999998603,,response,,,,5,D,,,,,,Space,keypress(Space),,,,speech,,,,---- ------ ------ ------- ------ --- ------- -----------<br>-- ----- --- ---- in --- ------ ---- - ---- -- ----------<br>-- ------ ---- --- ---- --- --- --- ----- -- -------- ---<br>------ ------- -------- --- ---- -- ------- ------------ --<br>------ -- ---- -- --- ---- -- -------- -- --- ------ ------,246261.09999999986,246257.5,245842.351,245844.59999999986,245859.14,246262.076,,12,in
screen,html.Screen,2_3_1_0_1_13,2022-04-28T09:46:49.333Z,,,,,,,,,,,,,,,,,12,,,,,,,,,,,,,,363.42399999999907,,response,,,,5,D,,,,,,Space,keypress(Space),,,,speech,,,,---- ------ ------ ------- ------ --- ------- -----------<br>-- ----- --- ---- -- his ------ ---- - ---- -- ----------<br>-- ------ ---- --- ---- --- --- --- ----- -- -------- ---<br>------ ------- -------- --- ---- -- ------- ------------ --<br>------ -- ---- -- --- ---- -- -------- -- --- ------ ------,246629.59999999986,246625.5,246245.287,246261.30000000005,246262.076,246631.434,,13,his
screen,html.Screen,2_3_1_0_1_14,2022-04-28T09:46:49.700Z,,,,,,,,,,,,,,,,,12,,,,,,,,,,,,,,362.0659999999916,,response,,,,5,D,,,,,,Space,keypress(Space),,,,speech,,,,---- ------ ------ ------- ------ --- ------- -----------<br>-- ----- --- ---- -- --- favour ---- - ---- -- ----------<br>-- ------ ---- --- ---- --- --- --- ----- -- -------- ---<br>------ ------- -------- --- ---- -- ------- ------------ --<br>------ -- ---- -- --- ---- -- -------- -- --- ------ ------,246997.09999999986,246993.5,246614.645,246629.69999999995,246631.434,247000.792,,14,favour
screen,html.Screen,2_3_1_0_1_15,2022-04-28T09:46:50.100Z,,,,,,,,,,,,,,,,,12,,,,,,,,,,,,,,392.70800000001327,,response,,,,5,D,,,,,,Space,keypress(Space),,,,speech,,,,---- ------ ------ ------- ------ --- ------- -----------<br>-- ----- --- ---- -- --- ------ with - ---- -- ----------<br>-- ------ ---- --- ---- --- --- --- ----- -- -------- ---<br>------ ------- -------- --- ---- -- ------- ------------ --<br>------ -- ---- -- --- ---- -- -------- -- --- ------ ------,247397.09999999986,247393.5,246984.003,246997.30000000005,247000.792,247403.728,,15,with
screen,html.Screen,2_3_1_0_1_16,2022-04-28T09:46:50.444Z,,,,,,,,,,,,,,,,,12,,,,,,,,,,,,,,333.7719999999972,,response,,,,5,D,,,,,,Space,keypress(Space),,,,speech,,,,---- ------ ------ ------- ------ --- ------- -----------<br>-- ----- --- ---- -- --- ------ ---- a ---- -- ----------<br>-- ------ ---- --- ---- --- --- --- ----- -- -------- ---<br>------ ------- -------- --- ---- -- ------- ------------ --<br>------ -- ---- -- --- ---- -- -------- -- --- ------ ------,247740.80000000005,247737.5,247386.939,247397.30000000005,247403.728,247756.297,,16,a
screen,html.Screen,2_3_1_0_1_17,2022-04-28T09:46:50.916Z,,,,,,,,,,,,,,,,,12,,,,,,,,,,,,,,453.1029999999155,,response,,,,5,D,,,,,,Space,keypress(Space),,,,speech,,,,---- ------ ------ ------- ------ --- ------- -----------<br>-- ----- --- ---- -- --- ------ ---- - dash -- ----------<br>-- ------ ---- --- ---- --- --- --- ----- -- -------- ---<br>------ ------- -------- --- ---- -- ------- ------------ --<br>------ -- ---- -- --- ---- -- -------- -- --- ------ ------,248212.8999999999,248209.3999999999,247739.508,247740.8999999999,247756.297,248226.389,,17,dash
screen,html.Screen,2_3_1_0_1_18,2022-04-28T09:46:51.292Z,,,,,,,,,,,,,,,,,12,,,,,,,,,,,,,,359.1110000000044,,response,,,,5,D,,,,,,Space,keypress(Space),,,,speech,,,,---- ------ ------ ------- ------ --- ------- -----------<br>-- ----- --- ---- -- --- ------ ---- - ---- of ----------<br>-- ------ ---- --- ---- --- --- --- ----- -- -------- ---<br>------ ------- -------- --- ---- -- ------- ------------ --<br>------ -- ---- -- --- ---- -- -------- -- --- ------ ------,248588.8999999999,248585.5,248209.6,248213,248226.389,248595.747,,18,of
screen,html.Screen,2_3_1_0_1_19,2022-04-28T09:46:52.061Z,,,,,,,,,,,,,,,,,12,,,,,,,,,,,,,,757.5530000000435,,response,,,,5,D,,,,,,Space,keypress(Space),,,,speech,,,,---- ------ ------ ------- ------ --- ------- -----------<br>-- ----- --- ---- -- --- ------ ---- - ---- -- ingenuity.<br>-- ------ ---- --- ---- --- --- --- ----- -- -------- ---<br>------ ------- -------- --- ---- -- ------- ------------ --<br>------ -- ---- -- --- ---- -- -------- -- --- ------ ------,249357.19999999995,249353.30000000005,248578.958,248589.19999999995,248595.747,249368.041,,19,ingenuity.
screen,html.Screen,2_3_1_0_1_20,2022-04-28T09:46:52.428Z,,,,,,,,,,,,,,,,,12,,,,,,,,,,,,,,353.45900000000256,,response,,,,5,D,,,,,,Space,keypress(Space),,,,speech,,,,---- ------ ------ ------- ------ --- ------- -----------<br>-- ----- --- ---- -- --- ------ ---- - ---- -- ----------<br>He ------ ---- --- ---- --- --- --- ----- -- -------- ---<br>------ ------- -------- --- ---- -- ------- ------------ --<br>------ -- ---- -- --- ---- -- -------- -- --- ------ ------,249724.8999999999,249721.5,249351.252,249357.3999999999,249368.041,249737.399,,20,He
screen,html.Screen,2_3_1_0_1_21,2022-04-28T09:46:52.876Z,,,,,,,,,,,,,,,,,12,,,,,,,,,,,,,,432.1009999999951,,response,,,,5,D,,,,,,Space,keypress(Space),,,,speech,,,,---- ------ ------ ------- ------ --- ------- -----------<br>-- ----- --- ---- -- --- ------ ---- - ---- -- ----------<br>-- walked ---- --- ---- --- --- --- ----- -- -------- ---<br>------ ------- -------- --- ---- -- ------- ------------ --<br>------ -- ---- -- --- ---- -- -------- -- --- ------ ------,250172.69999999995,250169.5,249720.61,249725,249737.399,250173.913,,21,walked
screen,html.Screen,2_3_1_0_1_22,2022-04-28T09:46:53.276Z,,,,,,,,,,,,,,,,,12,,,,,,,,,,,,,,395.58699999999953,,response,,,,5,D,,,,,,Space,keypress(Space),,,,speech,,,,---- ------ ------ ------- ------ --- ------- -----------<br>-- ----- --- ---- -- --- ------ ---- - ---- -- ----------<br>-- ------ into --- ---- --- --- --- ----- -- -------- ---<br>------ ------- -------- --- ---- -- ------- ------------ --<br>------ -- ---- -- --- ---- -- -------- -- --- ------ ------,250572.69999999995,250569.5,250157.124,250172.8999999999,250173.913,250576.849,,22,into
screen,html.Screen,2_3_1_0_1_23,2022-04-28T09:46:53.652Z,,,,,,,,,,,,,,,,,12,,,,,,,,,,,,,,368.6510000000126,,response,,,,5,D,,,,,,Space,keypress(Space),,,,speech,,,,---- ------ ------ ------- ------ --- ------- -----------<br>-- ----- --- ---- -- --- ------ ---- - ---- -- ----------<br>-- ------ ---- his ---- --- --- --- ----- -- -------- ---<br>------ ------- -------- --- ---- -- ------- ------------ --<br>------ -- ---- -- --- ---- -- -------- -- --- ------ ------,250948.59999999986,250945.5,250560.06,250572.8999999999,250576.849,250962.996,,23,his
screen,html.Screen,2_3_1_0_1_24,2022-04-28T09:46:54.012Z,,,,,,,,,,,,,,,,,12,,,,,,,,,,,,,,342.50399999998626,,response,,,,5,D,,,,,,Space,keypress(Space),,,,speech,,,,---- ------ ------ ------- ------ --- ------- -----------<br>-- ----- --- ---- -- --- ------ ---- - ---- -- ----------<br>-- ------ ---- --- bank --- --- --- ----- -- -------- ---<br>------ ------- -------- --- ---- -- ------- ------------ --<br>------ -- ---- -- --- ---- -- -------- -- --- ------ ------,251308.69999999995,251305.5,250946.207,250948.8999999999,250962.996,251315.565,,24,bank
screen,html.Screen,2_3_1_0_1_25,2022-04-28T09:46:54.364Z,,,,,,,,,,,,,,,,,12,,,,,,,,,,,,,,341.9349999999977,,response,,,,5,D,,,,,,Space,keypress(Space),,,,speech,,,,---- ------ ------ ------- ------ --- ------- -----------<br>-- ----- --- ---- -- --- ------ ---- - ---- -- ----------<br>-- ------ ---- --- ---- one --- --- ----- -- -------- ---<br>------ ------- -------- --- ---- -- ------- ------------ --<br>------ -- ---- -- --- ---- -- -------- -- --- ------ ------,251660.8999999999,251657.5,251298.776,251309,251315.565,251668.134,,25,one
screen,html.Screen,2_3_1_0_1_26,2022-04-28T09:46:54.756Z,,,,,,,,,,,,,,,,,12,,,,,,,,,,,,,,381.26599999991595,,response,,,,5,D,,,,,,Space,keypress(Space),,,,speech,,,,---- ------ ------ ------- ------ --- ------- -----------<br>-- ----- --- ---- -- --- ------ ---- - ---- -- ----------<br>-- ------ ---- --- ---- --- day --- ----- -- -------- ---<br>------ ------- -------- --- ---- -- ------- ------------ --<br>------ -- ---- -- --- ---- -- -------- -- --- ------ ------,252052.8999999999,252049.3999999999,251651.345,251661.09999999986,251668.134,252054.281,,26,day
screen,html.Screen,2_3_1_0_1_27,2022-04-28T09:46:55.156Z,,,,,,,,,,,,,,,,,12,,,,,,,,,,,,,,395.2190000000119,,response,,,,5,D,,,,,,Space,keypress(Space),,,,speech,,,,---- ------ ------ ------- ------ --- ------- -----------<br>-- ----- --- ---- -- --- ------ ---- - ---- -- ----------<br>-- ------ ---- --- ---- --- --- and ----- -- -------- ---<br>------ ------- -------- --- ---- -- ------- ------------ --<br>------ -- ---- -- --- ---- -- -------- -- --- ------ ------,252452.59999999986,252449.5,252037.492,252053,252054.281,252457.546,,27,and
screen,html.Screen,2_3_1_0_1_28,2022-04-28T09:46:55.540Z,,,,,,,,,,,,,,,,,12,,,,,,,,,,,,,,375.9539999999979,,response,,,,5,D,,,,,,Space,keypress(Space),,,,speech,,,,---- ------ ------ ------- ------ --- ------- -----------<br>-- ----- --- ---- -- --- ------ ---- - ---- -- ----------<br>-- ------ ---- --- ---- --- --- --- asked -- -------- ---<br>------ ------- -------- --- ---- -- ------- ------------ --<br>------ -- ---- -- --- ---- -- -------- -- --- ------ ------,252836.59999999986,252833.5,252440.757,252452.80000000005,252457.546,252843.693,,28,asked
screen,html.Screen,2_3_1_0_1_29,2022-04-28T09:46:55.900Z,,,,,,,,,,,,,,,,,12,,,,,,,,,,,,,,349.8070000000007,,response,,,,5,D,,,,,,Space,keypress(Space),,,,speech,,,,---- ------ ------ ------- ------ --- ------- -----------<br>-- ----- --- ---- -- --- ------ ---- - ---- -- ----------<br>-- ------ ---- --- ---- --- --- --- ----- to -------- ---<br>------ ------- -------- --- ---- -- ------- ------------ --<br>------ -- ---- -- --- ---- -- -------- -- --- ------ ------,253196.3999999999,253193.5,252826.904,252836.69999999995,252843.693,253213.051,,29,to
screen,html.Screen,2_3_1_0_1_30,2022-04-28T09:46:56.356Z,,,,,,,,,,,,,,,,,12,,,,,,,,,,,,,,436.3489999999001,,response,,,,5,D,,,,,,Space,keypress(Space),,,,speech,,,,---- ------ ------ ------- ------ --- ------- -----------<br>-- ----- --- ---- -- --- ------ ---- - ---- -- ----------<br>-- ------ ---- --- ---- --- --- --- ----- -- withdraw ---<br>------ ------- -------- --- ---- -- ------- ------------ --<br>------ -- ---- -- --- ---- -- -------- -- --- ------ ------,253652.5,253649.3999999999,253196.262,253196.5,253213.051,253666.354,,30,withdraw
screen,html.Screen,2_3_1_0_1_31,2022-04-28T09:46:56.716Z,,,,,,,,,,,,,,,,,12,,,,,,,,,,,,,,343.1460000000079,,response,,,,5,D,,,,,,Space,keypress(Space),,,,speech,,,,---- ------ ------ ------- ------ --- ------- -----------<br>-- ----- --- ---- -- --- ------ ---- - ---- -- ----------<br>-- ------ ---- --- ---- --- --- --- ----- -- -------- his<br>------ ------- -------- --- ---- -- ------- ------------ --<br>------ -- ---- -- --- ---- -- -------- -- --- ------ ------,254012.69999999995,254009.5,253649.565,253652.59999999986,253666.354,254018.923,,31,his
screen,html.Screen,2_3_1_0_1_32,2022-04-28T09:46:57.107Z,,,,,,,,,,,,,,,,,12,,,,,,,,,,,,,,382.5769999999902,,response,,,,5,D,,,,,,Space,keypress(Space),,,,speech,,,,---- ------ ------ ------- ------ --- ------- -----------<br>-- ----- --- ---- -- --- ------ ---- - ---- -- ----------<br>-- ------ ---- --- ---- --- --- --- ----- -- -------- ---<br>entire ------- -------- --- ---- -- ------- ------------ --<br>------ -- ---- -- --- ---- -- -------- -- --- ------ ------,254404.30000000005,254401.5,254002.134,254012.80000000005,254018.923,254405.07,,32,entire
screen,html.Screen,2_3_1_0_1_33,2022-04-28T09:46:57.468Z,,,,,,,,,,,,,,,,,12,,,,,,,,,,,,,,356.429999999993,,response,,,,5,D,,,,,,Space,keypress(Space),,,,speech,,,,---- ------ ------ ------- ------ --- ------- -----------<br>-- ----- --- ---- -- --- ------ ---- - ---- -- ----------<br>-- ------ ---- --- ---- --- --- --- ----- -- -------- ---<br>------ account -------- --- ---- -- ------- ------------ --<br>------ -- ---- -- --- ---- -- -------- -- --- ------ ------,254764.80000000005,254761.5,254388.281,254404.5,254405.07,254774.428,,33,account
screen,html.Screen,2_3_1_0_1_34,2022-04-28T09:46:57.876Z,,,,,,,,,,,,,,,,,12,,,,,,,,,,,,,,395.07199999998556,,response,,,,5,D,,,,,,Space,keypress(Space),,,,speech,,,,"---- ------ ------ ------- ------ --- ------- -----------<br>-- ----- --- ---- -- --- ------ ---- - ---- -- ----------<br>-- ------ ---- --- ---- --- --- --- ----- -- -------- ---<br>------ ------- balance, --- ---- -- ------- ------------ --<br>------ -- ---- -- --- ---- -- -------- -- --- ------ ------",255173,255169.5,254757.639,254764.8999999999,254774.428,255177.364,,34,"balance,"
screen,html.Screen,2_3_1_0_1_35,2022-04-28T09:46:58.236Z,,,,,,,,,,,,,,,,,12,,,,,,,,,,,,,,352.1359999999986,,response,,,,5,D,,,,,,Space,keypress(Space),,,,speech,,,,---- ------ ------ ------- ------ --- ------- -----------<br>-- ----- --- ---- -- --- ------ ---- - ---- -- ----------<br>-- ------ ---- --- ---- --- --- --- ----- -- -------- ---<br>------ ------- -------- but ---- -- ------- ------------ --<br>------ -- ---- -- --- ---- -- -------- -- --- ------ ------,255532.8999999999,255529.5,255160.575,255173.09999999986,255177.364,255546.722,,35,but
screen,html.Screen,2_3_1_0_1_36,2022-04-28T09:46:58.596Z,,,,,,,,,,,,,,,,,12,,,,,,,,,,,,,,342.77799999999115,,response,,,,5,D,,,,,,Space,keypress(Space),,,,speech,,,,---- ------ ------ ------- ------ --- ------- -----------<br>-- ----- --- ---- -- --- ------ ---- - ---- -- ----------<br>-- ------ ---- --- ---- --- --- --- ----- -- -------- ---<br>------ ------- -------- --- with -- ------- ------------ --<br>------ -- ---- -- --- ---- -- -------- -- --- ------ ------,255892.8999999999,255889.5,255529.933,255533.09999999986,255546.722,255899.291,,36,with
screen,html.Screen,2_3_1_0_1_37,2022-04-28T09:46:58.988Z,,,,,,,,,,,,,,,,,12,,,,,,,,,,,,,,382.20900000000256,,response,,,,5,D,,,,,,Space,keypress(Space),,,,speech,,,,---- ------ ------ ------- ------ --- ------- -----------<br>-- ----- --- ---- -- --- ------ ---- - ---- -- ----------<br>-- ------ ---- --- ---- --- --- --- ----- -- -------- ---<br>------ ------- -------- --- ---- an ------- ------------ --<br>------ -- ---- -- --- ---- -- -------- -- --- ------ ------,256285,256281.5,255882.502,255893,255899.291,256302.227,,37,an
screen,html.Screen,2_3_1_0_1_38,2022-04-28T09:46:59.444Z,,,,,,,,,,,,,,,,,12,,,,,,,,,,,,,,435.17299999989336,,response,,,,5,D,,,,,,Space,keypress(Space),,,,speech,,,,---- ------ ------ ------- ------ --- ------- -----------<br>-- ----- --- ---- -- --- ------ ---- - ---- -- ----------<br>-- ------ ---- --- ---- --- --- --- ----- -- -------- ---<br>------ ------- -------- --- ---- -- unusual ------------ --<br>------ -- ---- -- --- ---- -- -------- -- --- ------ ------,256740.3999999999,256737.3999999999,256285.438,256285.09999999986,256302.227,256755.53,,38,unusual
screen,html.Screen,2_3_1_0_1_39,2022-04-28T09:47:00.068Z,,,,,,,,,,,,,,,,,12,,,,,,,,,,,,,,606.0699999998615,,response,,,,5,D,,,,,,Space,keypress(Space),,,,speech,,,,---- ------ ------ ------- ------ --- ------- -----------<br>-- ----- --- ---- -- --- ------ ---- - ---- -- ----------<br>-- ------ ---- --- ---- --- --- --- ----- -- -------- ---<br>------ ------- -------- --- ---- -- ------- stipulation: --<br>------ -- ---- -- --- ---- -- -------- -- --- ------ ------,257364.8999999999,257361.59999999986,256738.741,256740.5,256755.53,257376.723,,39,stipulation:
screen,html.Screen,2_3_1_0_1_40,2022-04-28T09:47:00.955Z,,,,,,,,,,,,,,,,,12,,,,,,,,,,,,,,872.7770000000019,,response,,,,5,D,,,,,,Space,keypress(Space),,,,speech,,,,---- ------ ------ ------- ------ --- ------- -----------<br>-- ----- --- ---- -- --- ------ ---- - ---- -- ----------<br>-- ------ ---- --- ---- --- --- --- ----- -- -------- ---<br>------ ------- -------- --- ---- -- ------- ------------ He<br>------ -- ---- -- --- ---- -- -------- -- --- ------ ------,258252.30000000005,258249.5,257359.934,257365.09999999986,257376.723,258266.54,,40,He
screen,html.Screen,2_3_1_0_1_41,2022-04-28T09:47:01.316Z,,,,,,,,,,,,,,,,,12,,,,,,,,,,,,,,342.8599999998987,,response,,,,5,D,,,,,,Space,keypress(Space),,,,speech,,,,---- ------ ------ ------- ------ --- ------- -----------<br>-- ----- --- ---- -- --- ------ ---- - ---- -- ----------<br>-- ------ ---- --- ---- --- --- --- ----- -- -------- ---<br>------ ------- -------- --- ---- -- ------- ------------ --<br>wanted -- ---- -- --- ---- -- -------- -- --- ------ ------,258613.09999999986,258609.3999999999,258249.751,258252.5,258266.54,258619.109,,41,wanted
screen,html.Screen,2_3_1_0_1_42,2022-04-28T09:47:01.731Z,,,,,,,,,,,,,,,,,12,,,,,,,,,,,,,,406.39100000000326,,response,,,,5,D,,,,,,Space,keypress(Space),,,,speech,,,,---- ------ ------ ------- ------ --- ------- -----------<br>-- ----- --- ---- -- --- ------ ---- - ---- -- ----------<br>-- ------ ---- --- ---- --- --- --- ----- -- -------- ---<br>------ ------- -------- --- ---- -- ------- ------------ --<br>------ as ---- -- --- ---- -- -------- -- --- ------ ------,259028.3999999999,259025.5,258602.32,258613.19999999995,258619.109,259038.834,,42,as
screen,html.Screen,2_3_1_0_1_43,2022-04-28T09:47:02.132Z,,,,,,,,,,,,,,,,,12,,,,,,,,,,,,,,386.5659999999043,,response,,,,5,D,,,,,,Space,keypress(Space),,,,speech,,,,---- ------ ------ ------- ------ --- ------- -----------<br>-- ----- --- ---- -- --- ------ ---- - ---- -- ----------<br>-- ------ ---- --- ---- --- --- --- ----- -- -------- ---<br>------ ------- -------- --- ---- -- ------- ------------ --<br>------ -- much -- --- ---- -- -------- -- --- ------ ------,259428.8999999999,259425.3999999999,259022.045,259028.5,259038.834,259441.77,,43,much
screen,html.Screen,2_3_1_0_1_44,2022-04-28T09:47:02.500Z,,,,,,,,,,,,,,,,,12,,,,,,,,,,,,,,351.62999999991735,,response,,,,5,D,,,,,,Space,keypress(Space),,,,speech,,,,---- ------ ------ ------- ------ --- ------- -----------<br>-- ----- --- ---- -- --- ------ ---- - ---- -- ----------<br>-- ------ ---- --- ---- --- --- --- ----- -- -------- ---<br>------ ------- -------- --- ---- -- ------- ------------ --<br>------ -- ---- of --- ---- -- -------- -- --- ------ ------,259796.80000000005,259793.3999999999,259424.981,259429,259441.77,259811.128,,44,of
