sender,sender_type,sender_id,timestamp,meta,,Blues,Classical,Country,Dance,Electronic,Folk,Gospel,Hip-Hop,Jazz,Latin,Musical/Film,New-age,Pop,Prolific_id,Provo_ID,R&B,Rap,Reggae,Religious,Rock,Soul,Swing,Traditional,age,artist_name,correct,correctResponse,distraction,duration,education,ended_on,familiarity,gender,headphone_check_performance,item,list,music_frequency,offensiveness,pleasantness,position_correct,preference,response,response_action,snippet_file,song_name,song_rating,sound,stimulus_1,stimulus_2,stimulus_3,text,time_commit,time_end,time_render,time_run,time_show,time_switch,url,word,word_ID
Prolific ID,html.Form,0,2022-04-27T19:55:26.644Z,"{""labjs_version"":""20.2.2"",""labjs_build"":{""flavor"":""production"",""commit"":""a25486e0c714a0ae2ce03ff94b7bb6896854dcfa""},""location"":""https://run.pavlovia.org/mvasilev/prolific3_music_c/"",""userAgent"":""Mozilla/5.0 (Windows NT 10.0; Win64; x64) AppleWebKit/537.36 (KHTML, like Gecko) Chrome/100.0.4896.127 Safari/537.36"",""platform"":""Win32"",""language"":""en-US"",""locale"":""en-US"",""timeZone"":""Europe/London"",""timezoneOffset"":-60,""screen_width"":2560,""screen_height"":1440,""scroll_width"":2498,""scroll_height"":1321,""window_innerWidth"":2498,""window_innerHeight"":1369,""devicePixelRatio"":1.5}",,,,,,,,,,,,,,,5e1f075fdbc6702388d86951,,,,,,,,,,,,,,,9226.364,,form submission,,,,,,,,,,,,,,,,,,,,,17432.299999952316,17432,8188.931,8198.799999952316,8205.636,17439.371,{},,
Introduction,html.Screen,1_0,2022-04-27T19:55:32.344Z,,,,,,,,,,,,,,,,,,,,,,,,,,,,,,,5692.629000000001,,response,,,,,,,,,,,continue,click button,,,,,,,,,23132.699999928474,23132,17422.665,17432.5,17439.371,23139.577,,,
Volume calibration,html.Screen,1_1,2022-04-27T19:55:48.031Z,,,,,,,,,,,,,,,,,,,,,,,,,,,,,,,15679.422999999999,,response,,,,,,,,,,,continue,click button,,,,,,,,,38819.39999997616,38819,23122.905,23132.699999928474,23139.577,38823.514,,,
Task instructions,html.Screen,1_2,2022-04-27T19:55:54.165Z,,,,,,,,,,,,,,,,,,,,,,,,,,,,,,,6129.385999976155,,response,,,,,,,,,,,continue,click button,,,,,,,,,44953.5,44952.89999997616,38806.823,38819.59999990463,38823.514,44957.079,,,
Sounds,html.Screen,1_3_0_0,2022-04-27T19:55:58.403Z,,,,,,,,,,,,,,,,,,,,,,,,,,,,,,,4250.188000000002,,timeout,,,,,,,,,1,,,,,,,,S,I,O,,49191.199999928474,49190.67,44940.399,44953.59999990463,44957.079,49207.267,,,
Judgement,html.Screen,1_3_0_1,2022-04-27T19:55:59.151Z,,,,,,,,,,,,,,,,,,,,,,,,,,,,true,1,,731.6329999761583,,response,,,,,,,,,1,,1,click #choice-1,,,,,S,I,O,,49939.699999928474,49938.89999997616,49190.67,49191.299999952316,49207.267,49957.274,,,
Trial,flow.Sequence,1_3_0,2022-04-27T19:55:59.151Z,,,,,,,,,,,,,,,,,,,,,,,,,,,,,,,4981.82099997616,,completion,,,,,,,,,1,,,,,,,,S,I,O,,49939.89999997616,49938.89999997616,44940.399,44953.59999990463,44957.079,49957.274,,,
Sounds,html.Screen,1_3_1_0,2022-04-27T19:56:03.403Z,,,,,,,,,,,,,,,,,,,,,,,,,,,,,,,4250.154999999999,,timeout,,,,,,,,,2,,,,,,,,O,S,I,,54191.09999990463,54190.766,49941.173,49939.89999997616,49957.274,54207.429,,,
Judgement,html.Screen,1_3_1_1,2022-04-27T19:56:03.877Z,,,,,,,,,,,,,,,,,,,,,,,,,,,,true,2,,457.37099995231983,,response,,,,,,,,,2,,2,click #choice-2,,,,,O,S,I,,54665.299999952316,54664.799999952316,54190.766,54191.299999952316,54207.429,54674.116,,,
Trial,flow.Sequence,1_3_1,2022-04-27T19:56:03.877Z,,,,,,,,,,,,,,,,,,,,,,,,,,,,,,,4707.525999952319,,completion,,,,,,,,,2,,,,,,,,O,S,I,,54665.39999997616,54664.799999952316,49941.173,49939.89999997616,49957.274,54674.116,,,
Sounds,html.Screen,1_3_2_0,2022-04-27T19:56:08.120Z,,,,,,,,,,,,,,,,,,,,,,,,,,,,,,,4250.170999999995,,timeout,,,,,,,,,1,,,,,,,,S,O,I,,58908.5,58907.614,54657.464,54665.699999928474,54674.116,58924.287,,,
Judgement,html.Screen,1_3_2_1,2022-04-27T19:56:10.282Z,,,,,,,,,,,,,,,,,,,,,,,,,,,,true,1,,2145.6129999761615,,response,,,,,,,,,1,,1,click #choice-1,,,,,S,O,I,,61070.5,61069.89999997616,58907.614,58908.59999990463,58924.287,61074.395,,,
Trial,flow.Sequence,1_3_2,2022-04-27T19:56:10.282Z,,,,,,,,,,,,,,,,,,,,,,,,,,,,,,,6395.783999976156,,completion,,,,,,,,,1,,,,,,,,S,O,I,,61070.699999928474,61069.89999997616,54657.464,54665.5,54674.116,61074.395,,,
Sounds,html.Screen,1_3_3_0,2022-04-27T19:56:14.520Z,,,,,,,,,,,,,,,,,,,,,,,,,,,,,,,4250.155000000006,,timeout,,,,,,,,,3,,,,,,,,O,I,S,,65308.299999952316,65307.872,61057.726,61070.799999952316,61074.395,65324.55,,,
Judgement,html.Screen,1_3_3_1,2022-04-27T19:56:14.930Z,,,,,,,,,,,,,,,,,,,,,,,,,,,,true,3,,393.34999997615523,,response,,,,,,,,,3,,3,click #choice-3,,,,,O,I,S,,65718.39999997616,65717.89999997616,65307.872,65308.299999952316,65324.55,65741.218,,,
Trial,flow.Sequence,1_3_3,2022-04-27T19:56:14.930Z,,,,,,,,,,,,,,,,,,,,,,,,,,,,,,,4643.504999976161,,completion,,,,,,,,,3,,,,,,,,O,I,S,,65718.5,65717.89999997616,61057.726,61070.699999928474,61074.395,65741.218,,,
Sounds,html.Screen,1_3_4_0,2022-04-27T19:56:19.187Z,,,,,,,,,,,,,,,,,,,,,,,,,,,,,,,4250.165000000008,,timeout,,,,,,,,,3,,,,,,,,I,O,S,,69975.09999990463,69974.725,65724.551,65718.5,65741.218,69991.383,,,
Judgement,html.Screen,1_3_4_1,2022-04-27T19:56:19.544Z,,,,,,,,,,,,,,,,,,,,,,,,,,,,true,3,,340.5169999761565,,response,,,,,,,,,3,,3,click #choice-3,,,,,I,O,S,,70332.5,70331.89999997616,69974.725,69975.19999992847,69991.383,70341.401,,,
Trial,flow.Sequence,1_3_4,2022-04-27T19:56:19.544Z,,,,,,,,,,,,,,,,,,,,,,,,,,,,,,,4590.681999976165,,completion,,,,,,,,,3,,,,,,,,I,O,S,,70332.69999992847,70331.89999997616,65724.551,65718.5,65741.218,70341.401,,,
Sounds,html.Screen,1_3_5_0,2022-04-27T19:56:23.787Z,,,,,,,,,,,,,,,,,,,,,,,,,,,,,,,4250.1630000000005,,timeout,,,,,,,,,2,,,,,,,,I,S,O,,74575.29999995232,74574.915,70324.733,70332.69999992847,70341.401,74591.564,,,
Judgement,html.Screen,1_3_5_1,2022-04-27T19:56:24.540Z,,,,,,,,,,,,,,,,,,,,,,,,,,,,true,2,,736.1359999284759,,response,,,,,,,,,2,,2,click #choice-2,,,,,I,S,O,,75328.5,75327.69999992847,74574.915,74575.39999997616,74591.564,75341.597,,,
Trial,flow.Sequence,1_3_5,2022-04-27T19:56:24.540Z,,,,,,,,,,,,,,,,,,,,,,,,,,,,,,,4986.298999928476,,completion,,,,,,,,,2,,,,,,,,I,S,O,,75328.59999990463,75327.69999992847,70324.733,70332.69999992847,70341.401,75341.597,,,
Task,flow.Loop,1_3,2022-04-27T19:56:24.543Z,,,,,,,,,,,,,,,,,,,,,,,,,,,,,,,30370.620999928477,,completion,,,1,,,,,,,,,,,,,,,,,,75330.89999997616,75327.69999992847,44940.399,44953.59999990463,44957.079,75341.597,,,
Trap,html.Screen,1_4,2022-04-27T19:56:24.543Z,,,,,,,,,,,,,,,,,,,,,,,,,,,,,,,NaN,,skipped,,,,,,,,,,,,,,,,,,,,,75331.5,75327.69999992847,,75331.39999997616,,75341.597,,,
Thanks,html.Screen,1_5,2022-04-27T19:56:27.785Z,,,,,,,,,,,,,,,,,,,,,,,,,,,,,,,3231.302999976164,,response,,,,,,,,,,,continue,click button,,,,,,,,,78573.59999990463,78572.89999997616,75324.961,75331.5,75341.597,81258.558,,,
Headphone screening,flow.Sequence,1,2022-04-27T19:56:27.785Z,,,,,,,,,,,,,,,,,,,,,,,,,,,,,,,61133.52899997616,,completion,,,,,,,,,,,,,,,,,,,,,78573.69999992847,78572.89999997616,17422.665,17432.399999976158,17439.371,81258.558,,,
Instructions,html.Page,2_0,2022-04-27T19:56:42.254Z,,,,,,,,,,,,,,,,,,,,,,,,,,,,,,,11783.241999952312,,form submission,,,,,,,,,,,,,,,,,,,,,93042.09999990463,93041.79999995232,81241.848,81256,81258.558,93072.54,,,
Holding screen,html.Screen,2_1_0_0,2022-04-27T19:56:52.272Z,,,,,,,,,,,,,,,,,,,,,,,,,,,,,,,10003.49900000001,,timeout,,,,,,,,,,,,,,,,,,,,,103060,103059.388,93025.639,93042.19999992847,93072.54,103076.039,,,
screen,html.Screen,2_1_0_1_0,2022-04-27T19:56:53.380Z,,,,,,,,,,,,,,,,,53,,,,,,,,,,,,,,1091.1609999284701,,response,,,,99,,,,,,,Space,keypress(Space),,,,,,,,When -- ----- -- ------ - ------- --- ----------<br>------------- ------ ------ ---- ---- ------- ----- -- ----<br>-------- ------- -- ---------- --- - --- ----- ----- ----<br>---- --- --- ----- --- ---- ---- ------- ----- ---- -------<br>--- --- -- ----- -- --- ---- -- --- ---- -- ------ ------<br>--- ----- -- ----,104168.5,104167.19999992847,103059.388,103060.09999990463,103076.039,104176.068,,0,When
screen,html.Screen,2_1_0_1_1,2022-04-27T19:56:53.926Z,,,,,,,,,,,,,,,,,53,,,,,,,,,,,,,,537.9320000000007,,response,,,,99,,,,,,,Space,keypress(Space),,,,,,,,---- it ----- -- ------ - ------- --- ----------<br>------------- ------ ------ ---- ---- ------- ----- -- ----<br>-------- ------- -- ---------- --- - --- ----- ----- ----<br>---- --- --- ----- --- ---- ---- ------- ----- ---- -------<br>--- --- -- ----- -- --- ---- -- --- ---- -- ------ ------<br>--- ----- -- ----,104714.5,104714,104159.436,104168.59999990463,104176.068,104726.103,,1,it
screen,html.Screen,2_1_0_1_2,2022-04-27T19:56:54.378Z,,,,,,,,,,,,,,,,,53,,,,,,,,,,,,,,439.1969999523135,,response,,,,99,,,,,,,Space,keypress(Space),,,,,,,,---- -- comes -- ------ - ------- --- ----------<br>------------- ------ ------ ---- ---- ------- ----- -- ----<br>-------- ------- -- ---------- --- - --- ----- ----- ----<br>---- --- --- ----- --- ---- ---- ------- ----- ---- -------<br>--- --- -- ----- -- --- ---- -- --- ---- -- ------ ------<br>--- ----- -- ----,105165.79999995232,105165.29999995232,104709.454,104714.59999990463,104726.103,105176.127,,2,comes
screen,html.Screen,2_1_0_1_3,2022-04-27T19:56:54.728Z,,,,,,,,,,,,,,,,,53,,,,,,,,,,,,,,339.67299995232315,,response,,,,99,,,,,,,Space,keypress(Space),,,,,,,,---- -- ----- to ------ - ------- --- ----------<br>------------- ------ ------ ---- ---- ------- ----- -- ----<br>-------- ------- -- ---------- --- - --- ----- ----- ----<br>---- --- --- ----- --- ---- ---- ------- ----- ---- -------<br>--- --- -- ----- -- --- ---- -- --- ---- -- ------ ------<br>--- ----- -- ----,105516.39999997616,105515.79999995232,105159.471,105165.89999997616,105176.127,105526.135,,3,to
screen,html.Screen,2_1_0_1_4,2022-04-27T19:56:55.066Z,,,,,,,,,,,,,,,,,53,,,,,,,,,,,,,,327.36500000000524,,response,,,,99,,,,,,,Space,keypress(Space),,,,,,,,---- -- ----- -- having - ------- --- ----------<br>------------- ------ ------ ---- ---- ------- ----- -- ----<br>-------- ------- -- ---------- --- - --- ----- ----- ----<br>---- --- --- ----- --- ---- ---- ------- ----- ---- -------<br>--- --- -- ----- -- --- ---- -- --- ---- -- ------ ------<br>--- ----- -- ----,105854,105853.5,105509.488,105516.39999997616,105526.135,105859.466,,4,having
screen,html.Screen,2_1_0_1_5,2022-04-27T19:56:55.375Z,,,,,,,,,,,,,,,,,53,,,,,,,,,,,,,,303.33399995231593,,response,,,,99,,,,,,,Space,keypress(Space),,,,,,,,---- -- ----- -- ------ a ------- --- ----------<br>------------- ------ ------ ---- ---- ------- ----- -- ----<br>-------- ------- -- ---------- --- - --- ----- ----- ----<br>---- --- --- ----- --- ---- ---- ------- ----- ---- -------<br>--- --- -- ----- -- --- ---- -- --- ---- -- ------ ------<br>--- ----- -- ----,106163.29999995232,106162.79999995232,105842.813,105854.09999990463,105859.466,106176.147,,5,a
screen,html.Screen,2_1_0_1_6,2022-04-27T19:56:55.809Z,,,,,,,,,,,,,,,,,53,,,,,,,,,,,,,,420.25299997616094,,response,,,,99,,,,,,,Space,keypress(Space),,,,,,,,---- -- ----- -- ------ - lasting --- ----------<br>------------- ------ ------ ---- ---- ------- ----- -- ----<br>-------- ------- -- ---------- --- - --- ----- ----- ----<br>---- --- --- ----- --- ---- ---- ------- ----- ---- -------<br>--- --- -- ----- -- --- ---- -- --- ---- -- ------ ------<br>--- ----- -- ----,106596.89999997616,106596.39999997616,106159.51,106163.39999997616,106176.147,106609.512,,6,lasting
screen,html.Screen,2_1_0_1_7,2022-04-27T19:56:56.167Z,,,,,,,,,,,,,,,,,53,,,,,,,,,,,,,,345.28799995231384,,response,,,,99,,,,,,,Space,keypress(Space),,,,,,,,---- -- ----- -- ------ - ------- and ----------<br>------------- ------ ------ ---- ---- ------- ----- -- ----<br>-------- ------- -- ---------- --- - --- ----- ----- ----<br>---- --- --- ----- --- ---- ---- ------- ----- ---- -------<br>--- --- -- ----- -- --- ---- -- --- ---- -- ------ ------<br>--- ----- -- ----,106955.29999995232,106954.79999995232,106592.95,106597.09999990463,106609.512,106959.501,,7,and
screen,html.Screen,2_1_0_1_8,2022-04-27T19:56:56.568Z,,,,,,,,,,,,,,,,,53,,,,,,,,,,,,,,396.29899995231244,,response,,,,99,,,,,,,Space,keypress(Space),,,,,,,,---- -- ----- -- ------ - ------- --- fulfilling<br>------------- ------ ------ ---- ---- ------- ----- -- ----<br>-------- ------- -- ---------- --- - --- ----- ----- ----<br>---- --- --- ----- --- ---- ---- ------- ----- ---- -------<br>--- --- -- ----- -- --- ---- -- --- ---- -- ------ ------<br>--- ----- -- ----,107356.29999995232,107355.79999995232,106943.202,106955.29999995232,106959.501,107359.572,,8,fulfilling
screen,html.Screen,2_1_0_1_9,2022-04-27T19:56:56.974Z,,,,,,,,,,,,,,,,,53,,,,,,,,,,,,,,402.327999976158,,response,,,,99,,,,,,,Space,keypress(Space),,,,,,,,"---- -- ----- -- ------ - ------- --- ----------<br>relationship, ------ ------ ---- ---- ------- ----- -- ----<br>-------- ------- -- ---------- --- - --- ----- ----- ----<br>---- --- --- ----- --- ---- ---- ------- ----- ---- -------<br>--- --- -- ----- -- --- ---- -- --- ---- -- ------ ------<br>--- ----- -- ----",107762.39999997616,107761.89999997616,107343.364,107356.39999997616,107359.572,107776.224,,9,"relationship,"
screen,html.Screen,2_1_0_1_10,2022-04-27T19:56:57.356Z,,,,,,,,,,,,,,,,,53,,,,,,,,,,,,,,367.5759999523143,,response,,,,99,,,,,,,Space,keypress(Space),,,,,,,,---- -- ----- -- ------ - ------- --- ----------<br>------------- common ------ ---- ---- ------- ----- -- ----<br>-------- ------- -- ---------- --- - --- ----- ----- ----<br>---- --- --- ----- --- ---- ---- ------- ----- ---- -------<br>--- --- -- ----- -- --- ---- -- --- ---- -- ------ ------<br>--- ----- -- ----,108144.19999992847,108143.79999995232,107759.583,107762.39999997616,107776.224,108176.251,,10,common
screen,html.Screen,2_1_0_1_11,2022-04-27T19:56:57.675Z,,,,,,,,,,,,,,,,,53,,,,,,,,,,,,,,286.6489999761543,,response,,,,99,,,,,,,Space,keypress(Space),,,,,,,,---- -- ----- -- ------ - ------- --- ----------<br>------------- ------ wisdom ---- ---- ------- ----- -- ----<br>-------- ------- -- ---------- --- - --- ----- ----- ----<br>---- --- --- ----- --- ---- ---- ------- ----- ---- -------<br>--- --- -- ----- -- --- ---- -- --- ---- -- ------ ------<br>--- ----- -- ----,108463.29999995232,108462.89999997616,108159.581,108144.29999995232,108176.251,108476.251,,11,wisdom
screen,html.Screen,2_1_0_1_12,2022-04-27T19:56:57.991Z,,,,,,,,,,,,,,,,,53,,,,,,,,,,,,,,302.3489999046287,,response,,,,99,,,,,,,Space,keypress(Space),,,,,,,,---- -- ----- -- ------ - ------- --- ----------<br>------------- ------ ------ says ---- ------- ----- -- ----<br>-------- ------- -- ---------- --- - --- ----- ----- ----<br>---- --- --- ----- --- ---- ---- ------- ----- ---- -------<br>--- --- -- ----- -- --- ---- -- --- ---- -- ------ ------<br>--- ----- -- ----,108778.89999997616,108778.59999990463,108459.742,108463.29999995232,108476.251,108792.932,,12,says
screen,html.Screen,2_1_0_1_13,2022-04-27T19:56:58.245Z,,,,,,,,,,,,,,,,,53,,,,,,,,,,,,,,239.86799995231559,,response,,,,99,,,,,,,Space,keypress(Space),,,,,,,,---- -- ----- -- ------ - ------- --- ----------<br>------------- ------ ------ ---- that ------- ----- -- ----<br>-------- ------- -- ---------- --- - --- ----- ----- ----<br>---- --- --- ----- --- ---- ---- ------- ----- ---- -------<br>--- --- -- ----- -- --- ---- -- --- ---- -- ------ ------<br>--- ----- -- ----,109033.19999992847,109032.79999995232,108776.281,108779,108792.932,109042.926,,13,that
screen,html.Screen,2_1_0_1_14,2022-04-27T19:56:58.550Z,,,,,,,,,,,,,,,,,53,,,,,,,,,,,,,,294.9739999761514,,response,,,,99,,,,,,,Space,keypress(Space),,,,,,,,---- -- ----- -- ------ - ------- --- ----------<br>------------- ------ ------ ---- ---- feeling ----- -- ----<br>-------- ------- -- ---------- --- - --- ----- ----- ----<br>---- --- --- ----- --- ---- ---- ------- ----- ---- -------<br>--- --- -- ----- -- --- ---- -- --- ---- -- ------ ------<br>--- ----- -- ----,109338.39999997616,109337.89999997616,109026.268,109033.19999992847,109042.926,109342.943,,14,feeling
screen,html.Screen,2_1_0_1_15,2022-04-27T19:56:58.878Z,,,,,,,,,,,,,,,,,53,,,,,,,,,,,,,,322.856999952317,,response,,,,99,,,,,,,Space,keypress(Space),,,,,,,,---- -- ----- -- ------ - ------- --- ----------<br>------------- ------ ------ ---- ---- ------- close -- ----<br>-------- ------- -- ---------- --- - --- ----- ----- ----<br>---- --- --- ----- --- ---- ---- ------- ----- ---- -------<br>--- --- -- ----- -- --- ---- -- --- ---- -- ------ ------<br>--- ----- -- ----,109666.29999995232,109665.79999995232,109326.295,109338.5,109342.943,109676.304,,15,close
screen,html.Screen,2_1_0_1_16,2022-04-27T19:56:59.192Z,,,,,,,,,,,,,,,,,53,,,,,,,,,,,,,,303.6959999999963,,response,,,,99,,,,,,,Space,keypress(Space),,,,,,,,---- -- ----- -- ------ - ------- --- ----------<br>------------- ------ ------ ---- ---- ------- ----- to ----<br>-------- ------- -- ---------- --- - --- ----- ----- ----<br>---- --- --- ----- --- ---- ---- ------- ----- ---- -------<br>--- --- -- ----- -- --- ---- -- --- ---- -- ------ ------<br>--- ----- -- ----,109980.5,109980,109659.608,109666.39999997616,109676.304,109992.963,,16,to
screen,html.Screen,2_1_0_1_17,2022-04-27T19:56:59.543Z,,,,,,,,,,,,,,,,,53,,,,,,,,,,,,,,337.8369999523129,,response,,,,99,,,,,,,Space,keypress(Space),,,,,,,,---- -- ----- -- ------ - ------- --- ----------<br>------------- ------ ------ ---- ---- ------- ----- -- your<br>-------- ------- -- ---------- --- - --- ----- ----- ----<br>---- --- --- ----- --- ---- ---- ------- ----- ---- -------<br>--- --- -- ----- -- --- ---- -- --- ---- -- ------ ------<br>--- ----- -- ----,110331.29999995232,110330.79999995232,109976.328,109980.5,109992.963,110342.993,,17,your
screen,html.Screen,2_1_0_1_18,2022-04-27T19:56:59.939Z,,,,,,,,,,,,,,,,,53,,,,,,,,,,,,,,384.0069999999978,,response,,,,99,,,,,,,Space,keypress(Space),,,,,,,,---- -- ----- -- ------ - ------- --- ----------<br>------------- ------ ------ ---- ---- ------- ----- -- ----<br>romantic ------- -- ---------- --- - --- ----- ----- ----<br>---- --- --- ----- --- ---- ---- ------- ----- ---- -------<br>--- --- -- ----- -- --- ---- -- --- ---- -- ------ ------<br>--- ----- -- ----,110727.5,110727,110326.819,110331.29999995232,110342.993,110742.993,,18,romantic
screen,html.Screen,2_1_0_1_19,2022-04-27T19:57:00.230Z,,,,,,,,,,,,,,,,,53,,,,,,,,,,,,,,274.8069999523141,,response,,,,99,,,,,,,Space,keypress(Space),,,,,,,,---- -- ----- -- ------ - ------- --- ----------<br>------------- ------ ------ ---- ---- ------- ----- -- ----<br>-------- partner -- ---------- --- - --- ----- ----- ----<br>---- --- --- ----- --- ---- ---- ------- ----- ---- -------<br>--- --- -- ----- -- --- ---- -- --- ---- -- ------ ------<br>--- ----- -- ----,111018.19999992847,111017.79999995232,110726.345,110727.5,110742.993,111026.368,,19,partner
screen,html.Screen,2_1_0_1_20,2022-04-27T19:57:00.508Z,,,,,,,,,,,,,,,,,53,,,,,,,,,,,,,,269.4319999523141,,response,,,,99,,,,,,,Space,keypress(Space),,,,,,,,---- -- ----- -- ------ - ------- --- ----------<br>------------- ------ ------ ---- ---- ------- ----- -- ----<br>-------- ------- is ---------- --- - --- ----- ----- ----<br>---- --- --- ----- --- ---- ---- ------- ----- ---- -------<br>--- --- -- ----- -- --- ---- -- --- ---- -- ------ ------<br>--- ----- -- ----,111296.09999990463,111295.79999995232,111009.697,111018.29999995232,111026.368,111309.718,,20,is
screen,html.Screen,2_1_0_1_21,2022-04-27T19:57:00.781Z,,,,,,,,,,,,,,,,,53,,,,,,,,,,,,,,259.18199997616466,,response,,,,99,,,,,,,Space,keypress(Space),,,,,,,,---- -- ----- -- ------ - ------- --- ----------<br>------------- ------ ------ ---- ---- ------- ----- -- ----<br>-------- ------- -- paramount. --- - --- ----- ----- ----<br>---- --- --- ----- --- ---- ---- ------- ----- ---- -------<br>--- --- -- ----- -- --- ---- -- --- ---- -- ------ ------<br>--- ----- -- ----,111569.29999995232,111568.89999997616,111293.027,111296.19999992847,111309.718,111576.373,,21,paramount.
screen,html.Screen,2_1_0_1_22,2022-04-27T19:57:01.220Z,,,,,,,,,,,,,,,,,53,,,,,,,,,,,,,,431.2269999046257,,response,,,,99,,,,,,,Space,keypress(Space),,,,,,,,---- -- ----- -- ------ - ------- --- ----------<br>------------- ------ ------ ---- ---- ------- ----- -- ----<br>-------- ------- -- ---------- But - --- ----- ----- ----<br>---- --- --- ----- --- ---- ---- ------- ----- ---- -------<br>--- --- -- ----- -- --- ---- -- --- ---- -- ------ ------<br>--- ----- -- ----,112008.09999990463,112007.59999990463,111559.713,111569.39999997616,111576.373,112009.766,,22,But
screen,html.Screen,2_1_0_1_23,2022-04-27T19:57:01.437Z,,,,,,,,,,,,,,,,,53,,,,,,,,,,,,,,215.13399997615488,,response,,,,99,,,,,,,Space,keypress(Space),,,,,,,,---- -- ----- -- ------ - ------- --- ----------<br>------------- ------ ------ ---- ---- ------- ----- -- ----<br>-------- ------- -- ---------- --- a --- ----- ----- ----<br>---- --- --- ----- --- ---- ---- ------- ----- ---- -------<br>--- --- -- ----- -- --- ---- -- --- ---- -- ------ ------<br>--- ----- -- ----,112225.29999995232,112224.89999997616,111993.06,112008.19999992847,112009.766,112258.589,,23,a
screen,html.Screen,2_1_0_1_24,2022-04-27T19:57:01.665Z,,,,,,,,,,,,,,,,,53,,,,,,,,,,,,,,194.31099997615092,,response,,,,99,,,,,,,Space,keypress(Space),,,,,,,,---- -- ----- -- ------ - ------- --- ----------<br>------------- ------ ------ ---- ---- ------- ----- -- ----<br>-------- ------- -- ---------- --- - new ----- ----- ----<br>---- --- --- ----- --- ---- ---- ------- ----- ---- -------<br>--- --- -- ----- -- --- ---- -- --- ---- -- ------ ------<br>--- ----- -- ----,112453.29999995232,112452.89999997616,112209.734,112225.39999997616,112258.589,112459.739,,24,new
screen,html.Screen,2_1_0_1_25,2022-04-27T19:57:01.888Z,,,,,,,,,,,,,,,,,53,,,,,,,,,,,,,,216.16099997615675,,response,,,,99,,,,,,,Space,keypress(Space),,,,,,,,---- -- ----- -- ------ - ------- --- ----------<br>------------- ------ ------ ---- ---- ------- ----- -- ----<br>-------- ------- -- ---------- --- - --- study ----- ----<br>---- --- --- ----- --- ---- ---- ------- ----- ---- -------<br>--- --- -- ----- -- --- ---- -- --- ---- -- ------ ------<br>--- ----- -- ----,112676.39999997616,112675.89999997616,112443.099,112453.39999997616,112459.739,112693.09,,25,study
screen,html.Screen,2_1_0_1_26,2022-04-27T19:57:02.111Z,,,,,,,,,,,,,,,,,53,,,,,,,,,,,,,,205.9100000000035,,response,,,,99,,,,,,,Space,keypress(Space),,,,,,,,---- -- ----- -- ------ - ------- --- ----------<br>------------- ------ ------ ---- ---- ------- ----- -- ----<br>-------- ------- -- ---------- --- - --- ----- finds ----<br>---- --- --- ----- --- ---- ---- ------- ----- ---- -------<br>--- --- -- ----- -- --- ---- -- --- ---- -- ------ ------<br>--- ----- -- ----,112899.39999997616,112899,112676.511,112676.39999997616,112693.09,112909.779,,26,finds
screen,html.Screen,2_1_0_1_27,2022-04-27T19:57:02.370Z,,,,,,,,,,,,,,,,,53,,,,,,,,,,,,,,248.221000000005,,response,,,,99,,,,,,,Space,keypress(Space),,,,,,,,---- -- ----- -- ------ - ------- --- ----------<br>------------- ------ ------ ---- ---- ------- ----- -- ----<br>-------- ------- -- ---------- --- - --- ----- ----- that<br>---- --- --- ----- --- ---- ---- ------- ----- ---- -------<br>--- --- -- ----- -- --- ---- -- --- ---- -- ------ ------<br>--- ----- -- ----,113158.39999997616,113158,112893.108,112899.39999997616,112909.779,113159.821,,27,that
screen,html.Screen,2_1_0_1_28,2022-04-27T19:57:02.616Z,,,,,,,,,,,,,,,,,53,,,,,,,,,,,,,,243.87899992847815,,response,,,,99,,,,,,,Space,keypress(Space),,,,,,,,---- -- ----- -- ------ - ------- --- ----------<br>------------- ------ ------ ---- ---- ------- ----- -- ----<br>-------- ------- -- ---------- --- - --- ----- ----- ----<br>it's --- --- ----- --- ---- ---- ------- ----- ---- -------<br>--- --- -- ----- -- --- ---- -- --- ---- -- ------ ------<br>--- ----- -- ----,113404.19999992847,113403.69999992847,113143.645,113158.5,113159.821,113409.766,,28,it's
screen,html.Screen,2_1_0_1_29,2022-04-27T19:57:02.919Z,,,,,,,,,,,,,,,,,53,,,,,,,,,,,,,,295.1339999761549,,response,,,,99,,,,,,,Space,keypress(Space),,,,,,,,---- -- ----- -- ------ - ------- --- ----------<br>------------- ------ ------ ---- ---- ------- ----- -- ----<br>-------- ------- -- ---------- --- - --- ----- ----- ----<br>---- not --- ----- --- ---- ---- ------- ----- ---- -------<br>--- --- -- ----- -- --- ---- -- --- ---- -- ------ ------<br>--- ----- -- ----,113705.39999997616,113704.89999997616,113393.111,113404.29999995232,113409.766,113709.783,,29,not
screen,html.Screen,2_1_0_1_30,2022-04-27T19:57:03.168Z,,,,,,,,,,,,,,,,,53,,,,,,,,,,,,,,245.11699997616233,,response,,,,99,,,,,,,Space,keypress(Space),,,,,,,,---- -- ----- -- ------ - ------- --- ----------<br>------------- ------ ------ ---- ---- ------- ----- -- ----<br>-------- ------- -- ---------- --- - --- ----- ----- ----<br>---- --- how ----- --- ---- ---- ------- ----- ---- -------<br>--- --- -- ----- -- --- ---- -- --- ---- -- ------ ------<br>--- ----- -- ----,113955.19999992847,113954.89999997616,113693.129,113705.5,113709.783,113959.809,,30,how
screen,html.Screen,2_1_0_1_31,2022-04-27T19:57:03.424Z,,,,,,,,,,,,,,,,,53,,,,,,,,,,,,,,250.69100000000617,,response,,,,99,,,,,,,Space,keypress(Space),,,,,,,,---- -- ----- -- ------ - ------- --- ----------<br>------------- ------ ------ ---- ---- ------- ----- -- ----<br>-------- ------- -- ---------- --- - --- ----- ----- ----<br>---- --- --- close --- ---- ---- ------- ----- ---- -------<br>--- --- -- ----- -- --- ---- -- --- ---- -- ------ ------<br>--- ----- -- ----,114210.89999997616,114210.5,113943.159,113955.39999997616,113959.809,114226.479,,31,close
screen,html.Screen,2_1_0_1_32,2022-04-27T19:57:03.729Z,,,,,,,,,,,,,,,,,53,,,,,,,,,,,,,,288.4209999761515,,response,,,,99,,,,,,,Space,keypress(Space),,,,,,,,---- -- ----- -- ------ - ------- --- ----------<br>------------- ------ ------ ---- ---- ------- ----- -- ----<br>-------- ------- -- ---------- --- - --- ----- ----- ----<br>---- --- --- ----- you ---- ---- ------- ----- ---- -------<br>--- --- -- ----- -- --- ---- -- --- ---- -- ------ ------<br>--- ----- -- ----,114515.89999997616,114514.89999997616,114209.813,114211,114226.479,114526.478,,32,you
screen,html.Screen,2_1_0_1_33,2022-04-27T19:57:03.979Z,,,,,,,,,,,,,,,,,53,,,,,,,,,,,,,,239.42199997615535,,response,,,,99,,,,,,,Space,keypress(Space),,,,,,,,---- -- ----- -- ------ - ------- --- ----------<br>------------- ------ ------ ---- ---- ------- ----- -- ----<br>-------- ------- -- ---------- --- - --- ----- ----- ----<br>---- --- --- ----- --- feel ---- ------- ----- ---- -------<br>--- --- -- ----- -- --- ---- -- --- ---- -- ------ ------<br>--- ----- -- ----,114766.29999995232,114765.89999997616,114509.842,114515.89999997616,114526.478,114776.498,,33,feel
screen,html.Screen,2_1_0_1_34,2022-04-27T19:57:04.215Z,,,,,,,,,,,,,,,,,53,,,,,,,,,,,,,,225.30199995230942,,response,,,,99,,,,,,,Space,keypress(Space),,,,,,,,---- -- ----- -- ------ - ------- --- ----------<br>------------- ------ ------ ---- ---- ------- ----- -- ----<br>-------- ------- -- ---------- --- - --- ----- ----- ----<br>---- --- --- ----- --- ---- that ------- ----- ---- -------<br>--- --- -- ----- -- --- ---- -- --- ---- -- ------ ------<br>--- ----- -- ----,115002.09999990463,115001.79999995232,114759.827,114766.5,114776.498,115026.53,,34,that
screen,html.Screen,2_1_0_1_35,2022-04-27T19:57:04.457Z,,,,,,,,,,,,,,,,,53,,,,,,,,,,,,,,217.26999995231745,,response,,,,99,,,,,,,Space,keypress(Space),,,,,,,,---- -- ----- -- ------ - ------- --- ----------<br>------------- ------ ------ ---- ---- ------- ----- -- ----<br>-------- ------- -- ---------- --- - --- ----- ----- ----<br>---- --- --- ----- --- ---- ---- matters ----- ---- -------<br>--- --- -- ----- -- --- ---- -- --- ---- -- ------ ------<br>--- ----- -- ----,115244.19999992847,115243.79999995232,115009.841,115002.19999992847,115026.53,115259.852,,35,matters
screen,html.Screen,2_1_0_1_36,2022-04-27T19:57:04.736Z,,,,,,,,,,,,,,,,,53,,,,,,,,,,,,,,262.5479999761592,,response,,,,99,,,,,,,Space,keypress(Space),,,,,,,,"---- -- ----- -- ------ - ------- --- ----------<br>------------- ------ ------ ---- ---- ------- ----- -- ----<br>-------- ------- -- ---------- --- - --- ----- ----- ----<br>---- --- --- ----- --- ---- ---- ------- most, ---- -------<br>--- --- -- ----- -- --- ---- -- --- ---- -- ------ ------<br>--- ----- -- ----",115522.89999997616,115522.39999997616,115243.686,115244.29999995232,115259.852,115526.52,,36,"most,"
screen,html.Screen,2_1_0_1_37,2022-04-27T19:57:05.012Z,,,,,,,,,,,,,,,,,53,,,,,,,,,,,,,,272.37999997615407,,response,,,,99,,,,,,,Space,keypress(Space),,,,,,,,---- -- ----- -- ------ - ------- --- ----------<br>------------- ------ ------ ---- ---- ------- ----- -- ----<br>-------- ------- -- ---------- --- - --- ----- ----- ----<br>---- --- --- ----- --- ---- ---- ------- ----- it's -------<br>--- --- -- ----- -- --- ---- -- --- ---- -- ------ ------<br>--- ----- -- ----,115799.29999995232,115798.89999997616,115510.476,115523,115526.52,115809.945,,37,it's
screen,html.Screen,2_1_0_1_38,2022-04-27T19:57:05.276Z,,,,,,,,,,,,,,,,,53,,,,,,,,,,,,,,252.8549999523093,,response,,,,99,,,,,,,Space,keypress(Space),,,,,,,,---- -- ----- -- ------ - ------- --- ----------<br>------------- ------ ------ ---- ---- ------- ----- -- ----<br>-------- ------- -- ---------- --- - --- ----- ----- ----<br>---- --- --- ----- --- ---- ---- ------- ----- ---- whether<br>--- --- -- ----- -- --- ---- -- --- ---- -- ------ ------<br>--- ----- -- ----,116063.19999992847,116062.79999995232,115793.225,115799.29999995232,115809.945,116076.567,,38,whether
screen,html.Screen,2_1_0_1_39,2022-04-27T19:57:05.541Z,,,,,,,,,,,,,,,,,53,,,,,,,,,,,,,,251.0329999046371,,response,,,,99,,,,,,,Space,keypress(Space),,,,,,,,---- -- ----- -- ------ - ------- --- ----------<br>------------- ------ ------ ---- ---- ------- ----- -- ----<br>-------- ------- -- ---------- --- - --- ----- ----- ----<br>---- --- --- ----- --- ---- ---- ------- ----- ---- -------<br>you --- -- ----- -- --- ---- -- --- ---- -- ------ ------<br>--- ----- -- ----,116328.09999990463,116327.59999990463,116059.991,116063.29999995232,116076.567,116343.227,,39,you
screen,html.Screen,2_1_0_1_40,2022-04-27T19:57:05.805Z,,,,,,,,,,,,,,,,,53,,,,,,,,,,,,,,248.57299995231733,,response,,,,99,,,,,,,Space,keypress(Space),,,,,,,,---- -- ----- -- ------ - ------- --- ----------<br>------------- ------ ------ ---- ---- ------- ----- -- ----<br>-------- ------- -- ---------- --- - --- ----- ----- ----<br>---- --- --- ----- --- ---- ---- ------- ----- ---- -------<br>--- are -- ----- -- --- ---- -- --- ---- -- ------ ------<br>--- ----- -- ----,116592.19999992847,116591.79999995232,116326.681,116328.19999992847,116343.227,116609.924,,40,are
screen,html.Screen,2_1_0_1_41,2022-04-27T19:57:06.050Z,,,,,,,,,,,,,,,,,53,,,,,,,,,,,,,,226.97599997615907,,response,,,,99,,,,,,,Space,keypress(Space),,,,,,,,---- -- ----- -- ------ - ------- --- ----------<br>------------- ------ ------ ---- ---- ------- ----- -- ----<br>-------- ------- -- ---------- --- - --- ----- ----- ----<br>---- --- --- ----- --- ---- ---- ------- ----- ---- -------<br>--- --- as ----- -- --- ---- -- --- ---- -- ------ ------<br>--- ----- -- ----,116837.19999992847,116836.89999997616,116593.232,116592.29999995232,116609.924,116843.227,,41,as
screen,html.Screen,2_1_0_1_42,2022-04-27T19:57:06.342Z,,,,,,,,,,,,,,,,,53,,,,,,,,,,,,,,285.57299995231733,,response,,,,99,,,,,,,Space,keypress(Space),,,,,,,,---- -- ----- -- ------ - ------- --- ----------<br>------------- ------ ------ ---- ---- ------- ----- -- ----<br>-------- ------- -- ---------- --- - --- ----- ----- ----<br>---- --- --- ----- --- ---- ---- ------- ----- ---- -------<br>--- --- -- close -- --- ---- -- --- ---- -- ------ ------<br>--- ----- -- ----,117129.29999995232,117128.79999995232,116826.588,116837.29999995232,116843.227,117143.27,,42,close
screen,html.Screen,2_1_0_1_43,2022-04-27T19:57:06.629Z,,,,,,,,,,,,,,,,,53,,,,,,,,,,,,,,272.5299999523122,,response,,,,99,,,,,,,Space,keypress(Space),,,,,,,,---- -- ----- -- ------ - ------- --- ----------<br>------------- ------ ------ ---- ---- ------- ----- -- ----<br>-------- ------- -- ---------- --- - --- ----- ----- ----<br>---- --- --- ----- --- ---- ---- ------- ----- ---- -------<br>--- --- -- ----- as --- ---- -- --- ---- -- ------ ------<br>--- ----- -- ----,117416.29999995232,117415.79999995232,117126.573,117129.29999995232,117143.27,117426.603,,43,as
screen,html.Screen,2_1_0_1_44,2022-04-27T19:57:06.938Z,,,,,,,,,,,,,,,,,53,,,,,,,,,,,,,,298.1969999523135,,response,,,,99,,,,,,,Space,keypress(Space),,,,,,,,---- -- ----- -- ------ - ------- --- ----------<br>------------- ------ ------ ---- ---- ------- ----- -- ----<br>-------- ------- -- ---------- --- - --- ----- ----- ----<br>---- --- --- ----- --- ---- ---- ------- ----- ---- -------<br>--- --- -- ----- -- you ---- -- --- ---- -- ------ ------<br>--- ----- -- ----,117725.19999992847,117724.79999995232,117409.942,117416.29999995232,117426.603,117726.617,,44,you
screen,html.Screen,2_1_0_1_45,2022-04-27T19:57:07.254Z,,,,,,,,,,,,,,,,,53,,,,,,,,,,,,,,313.2829999761598,,response,,,,99,,,,,,,Space,keypress(Space),,,,,,,,---- -- ----- -- ------ - ------- --- ----------<br>------------- ------ ------ ---- ---- ------- ----- -- ----<br>-------- ------- -- ---------- --- - --- ----- ----- ----<br>---- --- --- ----- --- ---- ---- ------- ----- ---- -------<br>--- --- -- ----- -- --- want -- --- ---- -- ------ ------<br>--- ----- -- ----,118040.39999997616,118039.89999997616,117709.981,117725.19999992847,117726.617,118043.289,,45,want
screen,html.Screen,2_1_0_1_46,2022-04-27T19:57:07.527Z,,,,,,,,,,,,,,,,,53,,,,,,,,,,,,,,269.61099997615383,,response,,,,99,,,,,,,Space,keypress(Space),,,,,,,,---- -- ----- -- ------ - ------- --- ----------<br>------------- ------ ------ ---- ---- ------- ----- -- ----<br>-------- ------- -- ---------- --- - --- ----- ----- ----<br>---- --- --- ----- --- ---- ---- ------- ----- ---- -------<br>--- --- -- ----- -- --- ---- to --- ---- -- ------ ------<br>--- ----- -- ----,118313.39999997616,118312.89999997616,118026.627,118040.5,118043.289,118326.639,,46,to
screen,html.Screen,2_1_0_1_47,2022-04-27T19:57:07.837Z,,,,,,,,,,,,,,,,,53,,,,,,,,,,,,,,296.76099997616257,,response,,,,99,,,,,,,Space,keypress(Space),,,,,,,,"---- -- ----- -- ------ - ------- --- ----------<br>------------- ------ ------ ---- ---- ------- ----- -- ----<br>-------- ------- -- ---------- --- - --- ----- ----- ----<br>---- --- --- ----- --- ---- ---- ------- ----- ---- -------<br>--- --- -- ----- -- --- ---- -- be, ---- -- ------ ------<br>--- ----- -- ----",118623.79999995232,118623.39999997616,118309.991,118313.39999997616,118326.639,118626.635,,47,"be,"
screen,html.Screen,2_1_0_1_48,2022-04-27T19:57:08.191Z,,,,,,,,,,,,,,,,,53,,,,,,,,,,,,,,351.1649999523215,,response,,,,99,,,,,,,Space,keypress(Space),,,,,,,,---- -- ----- -- ------ - ------- --- ----------<br>------------- ------ ------ ---- ---- ------- ----- -- ----<br>-------- ------- -- ---------- --- - --- ----- ----- ----<br>---- --- --- ----- --- ---- ---- ------- ----- ---- -------<br>--- --- -- ----- -- --- ---- -- --- even -- ------ ------<br>--- ----- -- ----,118978.19999992847,118977.79999995232,118609.99,118623.89999997616,118626.635,118993.337,,48,even
screen,html.Screen,2_1_0_1_49,2022-04-27T19:57:08.509Z,,,,,,,,,,,,,,,,,53,,,,,,,,,,,,,,302.5629999761586,,response,,,,99,,,,,,,Space,keypress(Space),,,,,,,,---- -- ----- -- ------ - ------- --- ----------<br>------------- ------ ------ ---- ---- ------- ----- -- ----<br>-------- ------- -- ---------- --- - --- ----- ----- ----<br>---- --- --- ----- --- ---- ---- ------- ----- ---- -------<br>--- --- -- ----- -- --- ---- -- --- ---- if ------ ------<br>--- ----- -- ----,119296.29999995232,119295.89999997616,118976.779,118978.29999995232,118993.337,119310.011,,49,if
screen,html.Screen,2_1_0_1_50,2022-04-27T19:57:08.775Z,,,,,,,,,,,,,,,,,53,,,,,,,,,,,,,,251.18899992847582,,response,,,,99,,,,,,,Space,keypress(Space),,,,,,,,---- -- ----- -- ------ - ------- --- ----------<br>------------- ------ ------ ---- ---- ------- ----- -- ----<br>-------- ------- -- ---------- --- - --- ----- ----- ----<br>---- --- --- ----- --- ---- ---- ------- ----- ---- -------<br>--- --- -- ----- -- --- ---- -- --- ---- -- that's ------<br>--- ----- -- ----,119561.59999990463,119561.19999992847,119293.423,119296.39999997616,119310.011,119576.676,,50,that's
screen,html.Screen,2_1_0_1_51,2022-04-27T19:57:09.124Z,,,,,,,,,,,,,,,,,53,,,,,,,,,,,,,,334.12399995230953,,response,,,,99,,,,,,,Space,keypress(Space),,,,,,,,---- -- ----- -- ------ - ------- --- ----------<br>------------- ------ ------ ---- ---- ------- ----- -- ----<br>-------- ------- -- ---------- --- - --- ----- ----- ----<br>---- --- --- ----- --- ---- ---- ------- ----- ---- -------<br>--- --- -- ----- -- --- ---- -- --- ---- -- ------ really<br>--- ----- -- ----,119911.29999995232,119910.79999995232,119560.023,119561.69999992847,119576.676,119926.702,,51,really
screen,html.Screen,2_1_0_1_52,2022-04-27T19:57:09.516Z,,,,,,,,,,,,,,,,,53,,,,,,,,,,,,,,376.0979999523115,,response,,,,99,,,,,,,Space,keypress(Space),,,,,,,,---- -- ----- -- ------ - ------- --- ----------<br>------------- ------ ------ ---- ---- ------- ----- -- ----<br>-------- ------- -- ---------- --- - --- ----- ----- ----<br>---- --- --- ----- --- ---- ---- ------- ----- ---- -------<br>--- --- -- ----- -- --- ---- -- --- ---- -- ------ ------<br>not ----- -- ----,120303.09999990463,120302.79999995232,119910.055,119911.29999995232,119926.702,120326.746,,52,not
screen,html.Screen,2_1_0_1_53,2022-04-27T19:57:09.931Z,,,,,,,,,,,,,,,,,53,,,,,,,,,,,,,,391.15399997615896,,response,,,,99,,,,,,,Space,keypress(Space),,,,,,,,---- -- ----- -- ------ - ------- --- ----------<br>------------- ------ ------ ---- ---- ------- ----- -- ----<br>-------- ------- -- ---------- --- - --- ----- ----- ----<br>---- --- --- ----- --- ---- ---- ------- ----- ---- -------<br>--- --- -- ----- -- --- ---- -- --- ---- -- ------ ------<br>--- close -- ----,120718.19999992847,120717.89999997616,120310.049,120303.29999995232,120326.746,120726.728,,53,close
screen,html.Screen,2_1_0_1_54,2022-04-27T19:57:10.305Z,,,,,,,,,,,,,,,,,53,,,,,,,,,,,,,,364.7719999999972,,response,,,,99,,,,,,,Space,keypress(Space),,,,,,,,---- -- ----- -- ------ - ------- --- ----------<br>------------- ------ ------ ---- ---- ------- ----- -- ----<br>-------- ------- -- ---------- --- - --- ----- ----- ----<br>---- --- --- ----- --- ---- ---- ------- ----- ---- -------<br>--- --- -- ----- -- --- ---- -- --- ---- -- ------ ------<br>--- ----- at ----,121092,121091.5,120710.546,120718.29999995232,120726.728,121093.449,,54,at
screen,html.Screen,2_1_0_1_55,2022-04-27T19:57:10.800Z,,,,,,,,,,,,,,,,,53,,,,,,,,,,,,,,493.4509999761649,,response,,,,99,,,,,,,Space,keypress(Space),,,,,,,,---- -- ----- -- ------ - ------- --- ----------<br>------------- ------ ------ ---- ---- ------- ----- -- ----<br>-------- ------- -- ---------- --- - --- ----- ----- ----<br>---- --- --- ----- --- ---- ---- ------- ----- ---- -------<br>--- --- -- ----- -- --- ---- -- --- ---- -- ------ ------<br>--- ----- -- all.,121587.29999995232,121586.89999997616,121076.764,121092.09999990463,121093.449,121593.441,,55,all.
Item 99,flow.Loop,2_1_0_1,2022-04-27T19:57:10.801Z,,,,,,,,,,,,,,,,,,,,,,,,,,,,,,,18510.860999976154,,completion,,,,,C,,,,,,,,,,,silence,,,,,121587.39999997616,121586.89999997616,103059.388,103060,103076.039,121593.441,,,
Question 1,html.Screen,2_1_0_2,2022-04-27T19:57:17.501Z,,,,,,,,,,,,,,,,,,,,,,,,,,,,true,FALSE,,6694.258999928468,,response,,,,99,C,,,,,,FALSE,click #choice-2,,,,silence,,,,,128288.19999992847,128287.69999992847,121576.827,121587.5,121593.441,128293.683,,,
Question 2,html.Screen,2_1_0_3,2022-04-27T19:57:26.323Z,,,,,,,,,,,,,,,,,,,,,,,,,,,,false,TRUE,,8815.216999976154,,response,,,,99,C,,,,,,FALSE,click #choice-2,,,,silence,,,,,137109.69999992847,137108.89999997616,128277.022,128288.29999995232,128293.683,137110.76,,,
Item 99,flow.Sequence,2_1_0,2022-04-27T19:57:26.323Z,,,,,,,,,,,,,,,,,,,,,,,,,,,,,,,44036.359999976165,,completion,,,,,,,,,,,,,,,,,,,,,137109.69999992847,137108.89999997616,93025.639,93042.19999992847,93072.54,137110.76,,,
Holding screen,html.Screen,2_1_1_0,2022-04-27T19:57:36.308Z,,,,,,,,,,,,,,,,,,,,,,,,,,,,,,,10000.350999999995,,timeout,,,,,,,,,,,,,,,,,,,,,147094.69999992847,147094.439,137094.056,137109.89999997616,137110.76,147111.111,,,
screen,html.Screen,2_1_1_1_0,2022-04-27T19:57:37.034Z,,,,,,,,,,,,,,,,,54,,,,,,,,,,,,,,709.4889999046281,,response,,,,100,,,,,,,Space,keypress(Space),,,,,,,,At --- ---- --- ------ ----- ------- ---- -- --- ------- --<br>------- ---------- ------ -- ----- -- ----- -- ---- ------<br>--- ----- --- --- ------ -------- ----- --- ------ ----- --<br>----- ----- ---------- --- --- ------ ------ ---- -- ------<br>------- --- ------ ----- --- ---- ------- -- ---- --- --<br>------- ------,147821.19999992847,147820.59999990463,147094.439,147094.89999997616,147111.111,147827.809,,0,At
screen,html.Screen,2_1_1_1_1,2022-04-27T19:57:37.357Z,,,,,,,,,,,,,,,,,54,,,,,,,,,,,,,,315.9909999523079,,response,,,,100,,,,,,,Space,keypress(Space),,,,,,,,-- the ---- --- ------ ----- ------- ---- -- --- ------- --<br>------- ---------- ------ -- ----- -- ----- -- ---- ------<br>--- ----- --- --- ------ -------- ----- --- ------ ----- --<br>----- ----- ---------- --- --- ------ ------ ---- -- ------<br>------- --- ------ ----- --- ---- ------- -- ---- --- --<br>------- ------,148144.09999990463,148143.79999995232,147811.148,147821.29999995232,147827.809,148163.349,,1,the
screen,html.Screen,2_1_1_1_2,2022-04-27T19:57:37.539Z,,,,,,,,,,,,,,,,,54,,,,,,,,,,,,,,162.45099995232886,,response,,,,100,,,,,,,Space,keypress(Space),,,,,,,,-- --- time --- ------ ----- ------- ---- -- --- ------- --<br>------- ---------- ------ -- ----- -- ----- -- ---- ------<br>--- ----- --- --- ------ -------- ----- --- ------ ----- --<br>----- ----- ---------- --- --- ------ ------ ---- -- ------<br>------- --- ------ ----- --- ---- ------- -- ---- --- --<br>------- ------,148326.29999995232,148325.79999995232,148127.814,148144.19999992847,148163.349,148327.811,,2,time
screen,html.Screen,2_1_1_1_3,2022-04-27T19:57:37.781Z,,,,,,,,,,,,,,,,,54,,,,,,,,,,,,,,239.58899997617118,,response,,,,100,,,,,,,Space,keypress(Space),,,,,,,,-- --- ---- the ------ ----- ------- ---- -- --- ------- --<br>------- ---------- ------ -- ----- -- ----- -- ---- ------<br>--- ----- --- --- ------ -------- ----- --- ------ ----- --<br>----- ----- ---------- --- --- ------ ------ ---- -- ------<br>------- --- ------ ----- --- ---- ------- -- ---- --- --<br>------- ------,148567.79999995232,148567.39999997616,148311.181,148326.29999995232,148327.811,148577.849,,3,the
screen,html.Screen,2_1_1_1_4,2022-04-27T19:57:38.077Z,,,,,,,,,,,,,,,,,54,,,,,,,,,,,,,,285.5509999761707,,response,,,,100,,,,,,,Space,keypress(Space),,,,,,,,-- --- ---- --- French ----- ------- ---- -- --- ------- --<br>------- ---------- ------ -- ----- -- ----- -- ---- ------<br>--- ----- --- --- ------ -------- ----- --- ------ ----- --<br>----- ----- ---------- --- --- ------ ------ ---- -- ------<br>------- --- ------ ----- --- ---- ------- -- ---- --- --<br>------- ------,148863.79999995232,148863.39999997616,148561.18,148567.89999997616,148577.849,148877.847,,4,French
screen,html.Screen,2_1_1_1_5,2022-04-27T19:57:38.341Z,,,,,,,,,,,,,,,,,54,,,,,,,,,,,,,,250.0529999761493,,response,,,,100,,,,,,,Space,keypress(Space),,,,,,,,-- --- ---- --- ------ crown ------- ---- -- --- ------- --<br>------- ---------- ------ -- ----- -- ----- -- ---- ------<br>--- ----- --- --- ------ -------- ----- --- ------ ----- --<br>----- ----- ---------- --- --- ------ ------ ---- -- ------<br>------- --- ------ ----- --- ---- ------- -- ---- --- --<br>------- ------,149128.29999995232,149127.89999997616,148861.202,148863.79999995232,148877.847,149144.801,,5,crown
screen,html.Screen,2_1_1_1_6,2022-04-27T19:57:38.651Z,,,,,,,,,,,,,,,,,54,,,,,,,,,,,,,,292.3989999284677,,response,,,,100,,,,,,,Space,keypress(Space),,,,,,,,-- --- ---- --- ------ ----- secured ---- -- --- ------- --<br>------- ---------- ------ -- ----- -- ----- -- ---- ------<br>--- ----- --- --- ------ -------- ----- --- ------ ----- --<br>----- ----- ---------- --- --- ------ ------ ---- -- ------<br>------- --- ------ ----- --- ---- ------- -- ---- --- --<br>------- ------,149437.79999995232,149437.19999992847,149127.848,149128.39999997616,149144.801,149444.544,,6,secured
screen,html.Screen,2_1_1_1_7,2022-04-27T19:57:38.934Z,,,,,,,,,,,,,,,,,54,,,,,,,,,,,,,,275.65599992848,,response,,,,100,,,,,,,Space,keypress(Space),,,,,,,,-- --- ---- --- ------ ----- ------- much -- --- ------- --<br>------- ---------- ------ -- ----- -- ----- -- ---- ------<br>--- ----- --- --- ------ -------- ----- --- ------ ----- --<br>----- ----- ---------- --- --- ------ ------ ---- -- ------<br>------- --- ------ ----- --- ---- ------- -- ---- --- --<br>------- ------,149720.79999995232,149720.19999992847,149427.865,149437.79999995232,149444.544,149727.878,,7,much
screen,html.Screen,2_1_1_1_8,2022-04-27T19:57:39.211Z,,,,,,,,,,,,,,,,,54,,,,,,,,,,,,,,270.02199997616117,,response,,,,100,,,,,,,Space,keypress(Space),,,,,,,,-- --- ---- --- ------ ----- ------- ---- of --- ------- --<br>------- ---------- ------ -- ----- -- ----- -- ---- ------<br>--- ----- --- --- ------ -------- ----- --- ------ ----- --<br>----- ----- ---------- --- --- ------ ------ ---- -- ------<br>------- --- ------ ----- --- ---- ------- -- ---- --- --<br>------- ------,149998.29999995232,149997.89999997616,149711.205,149720.89999997616,149727.878,150011.229,,8,of
screen,html.Screen,2_1_1_1_9,2022-04-27T19:57:39.426Z,,,,,,,,,,,,,,,,,54,,,,,,,,,,,,,,200.77100000000792,,response,,,,100,,,,,,,Space,keypress(Space),,,,,,,,-- --- ---- --- ------ ----- ------- ---- -- its ------- --<br>------- ---------- ------ -- ----- -- ----- -- ---- ------<br>--- ----- --- --- ------ -------- ----- --- ------ ----- --<br>----- ----- ---------- --- --- ------ ------ ---- -- ------<br>------- --- ------ ----- --- ---- ------- -- ---- --- --<br>------- ------,150212.39999997616,150212,149994.58,149998.39999997616,150011.229,150227.9,,9,its
screen,html.Screen,2_1_1_1_10,2022-04-27T19:57:39.607Z,,,,,,,,,,,,,,,,,54,,,,,,,,,,,,,,166.10000000000582,,response,,,,100,,,,,,,Space,keypress(Space),,,,,,,,-- --- ---- --- ------ ----- ------- ---- -- --- revenue --<br>------- ---------- ------ -- ----- -- ----- -- ---- ------<br>--- ----- --- --- ------ -------- ----- --- ------ ----- --<br>----- ----- ---------- --- --- ------ ------ ---- -- ------<br>------- --- ------ ----- --- ---- ------- -- ---- --- --<br>------- ------,150394.29999995232,150394,150211.233,150212.5,150227.9,150394.581,,10,revenue
screen,html.Screen,2_1_1_1_11,2022-04-27T19:57:39.959Z,,,,,,,,,,,,,,,,,54,,,,,,,,,,,,,,350.7189999523107,,response,,,,100,,,,,,,Space,keypress(Space),,,,,,,,-- --- ---- --- ------ ----- ------- ---- -- --- ------- by<br>------- ---------- ------ -- ----- -- ----- -- ---- ------<br>--- ----- --- --- ------ -------- ----- --- ------ ----- --<br>----- ----- ---------- --- --- ------ ------ ---- -- ------<br>------- --- ------ ----- --- ---- ------- -- ---- --- --<br>------- ------,150745.89999997616,150745.29999995232,150377.903,150394.39999997616,150394.581,150761.252,,11,by
screen,html.Screen,2_1_1_1_12,2022-04-27T19:57:40.250Z,,,,,,,,,,,,,,,,,54,,,,,,,,,,,,,,274.7479999999923,,response,,,,100,,,,,,,Space,keypress(Space),,,,,,,,-- --- ---- --- ------ ----- ------- ---- -- --- ------- --<br>issuing ---------- ------ -- ----- -- ----- -- ---- ------<br>--- ----- --- --- ------ -------- ----- --- ------ ----- --<br>----- ----- ---------- --- --- ------ ------ ---- -- ------<br>------- --- ------ ----- --- ---- ------- -- ---- --- --<br>------- ------,151036.39999997616,151036,150744.59,150745.89999997616,150761.252,151044.6,,12,issuing
screen,html.Screen,2_1_1_1_13,2022-04-27T19:57:40.541Z,,,,,,,,,,,,,,,,,54,,,,,,,,,,,,,,283.0999999284686,,response,,,,100,,,,,,,Space,keypress(Space),,,,,,,,-- --- ---- --- ------ ----- ------- ---- -- --- ------- --<br>------- government ------ -- ----- -- ----- -- ---- ------<br>--- ----- --- --- ------ -------- ----- --- ------ ----- --<br>----- ----- ---------- --- --- ------ ------ ---- -- ------<br>------- --- ------ ----- --- ---- ------- -- ---- --- --<br>------- ------,151328.29999995232,151327.69999992847,151027.954,151036.5,151044.6,151344.617,,13,government
screen,html.Screen,2_1_1_1_14,2022-04-27T19:57:40.792Z,,,,,,,,,,,,,,,,,54,,,,,,,,,,,,,,233.28299997615977,,response,,,,100,,,,,,,Space,keypress(Space),,,,,,,,-- --- ---- --- ------ ----- ------- ---- -- --- ------- --<br>------- ---------- bonds. -- ----- -- ----- -- ---- ------<br>--- ----- --- --- ------ -------- ----- --- ------ ----- --<br>----- ----- ---------- --- --- ------ ------ ---- -- ------<br>------- --- ------ ----- --- ---- ------- -- ---- --- --<br>------- ------,151578.39999997616,151577.89999997616,151327.941,151328.39999997616,151344.617,151594.62,,14,bonds.
screen,html.Screen,2_1_1_1_15,2022-04-27T19:57:41.064Z,,,,,,,,,,,,,,,,,54,,,,,,,,,,,,,,256.0799999284791,,response,,,,100,,,,,,,Space,keypress(Space),,,,,,,,-- --- ---- --- ------ ----- ------- ---- -- --- ------- --<br>------- ---------- ------ In ----- -- ----- -- ---- ------<br>--- ----- --- --- ------ -------- ----- --- ------ ----- --<br>----- ----- ---------- --- --- ------ ------ ---- -- ------<br>------- --- ------ ----- --- ---- ------- -- ---- --- --<br>------- ------,151851.19999992847,151850.69999992847,151577.972,151578.5,151594.62,151861.284,,15,In
screen,html.Screen,2_1_1_1_16,2022-04-27T19:57:41.347Z,,,,,,,,,,,,,,,,,54,,,,,,,,,,,,,,272.5159999523021,,response,,,,100,,,,,,,Space,keypress(Space),,,,,,,,"-- --- ---- --- ------ ----- ------- ---- -- --- ------- --<br>------- ---------- ------ -- 1727, -- ----- -- ---- ------<br>--- ----- --- --- ------ -------- ----- --- ------ ----- --<br>----- ----- ---------- --- --- ------ ------ ---- -- ------<br>------- --- ------ ----- --- ---- ------- -- ---- --- --<br>------- ------",152134.19999992847,152133.79999995232,151844.622,151851.19999992847,151861.284,152144.643,,16,"1727,"
screen,html.Screen,2_1_1_1_17,2022-04-27T19:57:41.616Z,,,,,,,,,,,,,,,,,54,,,,,,,,,,,,,,258.15699995230534,,response,,,,100,,,,,,,Space,keypress(Space),,,,,,,,-- --- ---- --- ------ ----- ------- ---- -- --- ------- --<br>------- ---------- ------ -- ----- in ----- -- ---- ------<br>--- ----- --- --- ------ -------- ----- --- ------ ----- --<br>----- ----- ---------- --- --- ------ ------ ---- -- ------<br>------- --- ------ ----- --- ---- ------- -- ---- --- --<br>------- ------,152403.09999990463,152402.79999995232,152128.426,152134.29999995232,152144.643,152411.319,,17,in
screen,html.Screen,2_1_1_1_18,2022-04-27T19:57:41.843Z,,,,,,,,,,,,,,,,,54,,,,,,,,,,,,,,218.38099992848583,,response,,,,100,,,,,,,Space,keypress(Space),,,,,,,,-- --- ---- --- ------ ----- ------- ---- -- --- ------- --<br>------- ---------- ------ -- ----- -- order -- ---- ------<br>--- ----- --- --- ------ -------- ----- --- ------ ----- --<br>----- ----- ---------- --- --- ------ ------ ---- -- ------<br>------- --- ------ ----- --- ---- ------- -- ---- --- --<br>------- ------,152630.09999990463,152629.69999992847,152394.664,152403.19999992847,152411.319,152644.66,,18,order
screen,html.Screen,2_1_1_1_19,2022-04-27T19:57:42.063Z,,,,,,,,,,,,,,,,,54,,,,,,,,,,,,,,204.23999997615465,,response,,,,100,,,,,,,Space,keypress(Space),,,,,,,,-- --- ---- --- ------ ----- ------- ---- -- --- ------- --<br>------- ---------- ------ -- ----- -- ----- to ---- ------<br>--- ----- --- --- ------ -------- ----- --- ------ ----- --<br>----- ----- ---------- --- --- ------ ------ ---- -- ------<br>------- --- ------ ----- --- ---- ------- -- ---- --- --<br>------- ------,152849.39999997616,152848.89999997616,152628.012,152630.19999992847,152644.66,152861.336,,19,to
screen,html.Screen,2_1_1_1_20,2022-04-27T19:57:42.272Z,,,,,,,,,,,,,,,,,54,,,,,,,,,,,,,,197.46399995230604,,response,,,,100,,,,,,,Space,keypress(Space),,,,,,,,-- --- ---- --- ------ ----- ------- ---- -- --- ------- --<br>------- ---------- ------ -- ----- -- ----- -- save ------<br>--- ----- --- --- ------ -------- ----- --- ------ ----- --<br>----- ----- ---------- --- --- ------ ------ ---- -- ------<br>------- --- ------ ----- --- ---- ------- -- ---- --- --<br>------- ------,153059.09999990463,153058.79999995232,152844.663,152849.5,152861.336,153078.024,,20,save
screen,html.Screen,2_1_1_1_21,2022-04-27T19:57:42.458Z,,,,,,,,,,,,,,,,,54,,,,,,,,,,,,,,166.7759999523114,,response,,,,100,,,,,,,Space,keypress(Space),,,,,,,,"-- --- ---- --- ------ ----- ------- ---- -- --- ------- --<br>------- ---------- ------ -- ----- -- ----- -- ---- money,<br>--- ----- --- --- ------ -------- ----- --- ------ ----- --<br>----- ----- ---------- --- --- ------ ------ ---- -- ------<br>------- --- ------ ----- --- ---- ------- -- ---- --- --<br>------- ------",153245.19999992847,153244.79999995232,153061.343,153059.19999992847,153078.024,153261.377,,21,"money,"
screen,html.Screen,2_1_1_1_22,2022-04-27T19:57:42.641Z,,,,,,,,,,,,,,,,,54,,,,,,,,,,,,,,166.4229999523086,,response,,,,100,,,,,,,Space,keypress(Space),,,,,,,,-- --- ---- --- ------ ----- ------- ---- -- --- ------- --<br>------- ---------- ------ -- ----- -- ----- -- ---- ------<br>the ----- --- --- ------ -------- ----- --- ------ ----- --<br>----- ----- ---------- --- --- ------ ------ ---- -- ------<br>------- --- ------ ----- --- ---- ------- -- ---- --- --<br>------- ------,153428.19999992847,153427.79999995232,153244.752,153245.29999995232,153261.377,153444.695,,22,the
screen,html.Screen,2_1_1_1_23,2022-04-27T19:57:42.924Z,,,,,,,,,,,,,,,,,54,,,,,,,,,,,,,,265.1049999523093,,response,,,,100,,,,,,,Space,keypress(Space),,,,,,,,-- --- ---- --- ------ ----- ------- ---- -- --- ------- --<br>------- ---------- ------ -- ----- -- ----- -- ---- ------<br>--- state --- --- ------ -------- ----- --- ------ ----- --<br>----- ----- ---------- --- --- ------ ------ ---- -- ------<br>------- --- ------ ----- --- ---- ------- -- ---- --- --<br>------- ------,153710.5,153709.79999995232,153428.085,153428.19999992847,153444.695,153737.265,,23,state
screen,html.Screen,2_1_1_1_24,2022-04-27T19:57:43.142Z,,,,,,,,,,,,,,,,,54,,,,,,,,,,,,,,191.53499995230231,,response,,,,100,,,,,,,Space,keypress(Space),,,,,,,,-- --- ---- --- ------ ----- ------- ---- -- --- ------- --<br>------- ---------- ------ -- ----- -- ----- -- ---- ------<br>--- ----- cut --- ------ -------- ----- --- ------ ----- --<br>----- ----- ---------- --- --- ------ ------ ---- -- ------<br>------- --- ------ ----- --- ---- ------- -- ---- --- --<br>------- ------,153929.19999992847,153928.79999995232,153694.738,153710.59999990463,153737.265,153944.717,,24,cut
screen,html.Screen,2_1_1_1_25,2022-04-27T19:57:43.316Z,,,,,,,,,,,,,,,,,54,,,,,,,,,,,,,,157.0829999523121,,response,,,,100,,,,,,,Space,keypress(Space),,,,,,,,-- --- ---- --- ------ ----- ------- ---- -- --- ------- --<br>------- ---------- ------ -- ----- -- ----- -- ---- ------<br>--- ----- --- the ------ -------- ----- --- ------ ----- --<br>----- ----- ---------- --- --- ------ ------ ---- -- ------<br>------- --- ------ ----- --- ---- ------- -- ---- --- --<br>------- ------,154102.5,154101.79999995232,153928.044,153929.39999997616,153944.717,154128.086,,25,the
screen,html.Screen,2_1_1_1_26,2022-04-27T19:57:43.484Z,,,,,,,,,,,,,,,,,54,,,,,,,,,,,,,,142.61399992846418,,response,,,,100,,,,,,,Space,keypress(Space),,,,,,,,-- --- ---- --- ------ ----- ------- ---- -- --- ------- --<br>------- ---------- ------ -- ----- -- ----- -- ---- ------<br>--- ----- --- --- bonds' -------- ----- --- ------ ----- --<br>----- ----- ---------- --- --- ------ ------ ---- -- ------<br>------- --- ------ ----- --- ---- ------- -- ---- --- --<br>------- ------,154271,154270.69999992847,154111.42,154102.5,154128.086,154278.036,,26,bonds'
screen,html.Screen,2_1_1_1_27,2022-04-27T19:57:43.634Z,,,,,,,,,,,,,,,,,54,,,,,,,,,,,,,,142.66399992848164,,response,,,,100,,,,,,,Space,keypress(Space),,,,,,,,-- --- ---- --- ------ ----- ------- ---- -- --- ------- --<br>------- ---------- ------ -- ----- -- ----- -- ---- ------<br>--- ----- --- --- ------ interest ----- --- ------ ----- --<br>----- ----- ---------- --- --- ------ ------ ---- -- ------<br>------- --- ------ ----- --- ---- ------- -- ---- --- --<br>------- ------,154421,154420.69999992847,154261.414,154271.09999990463,154278.036,154428.058,,27,interest
screen,html.Screen,2_1_1_1_28,2022-04-27T19:57:43.852Z,,,,,,,,,,,,,,,,,54,,,,,,,,,,,,,,210.7419999523263,,response,,,,100,,,,,,,Space,keypress(Space),,,,,,,,-- --- ---- --- ------ ----- ------- ---- -- --- ------- --<br>------- ---------- ------ -- ----- -- ----- -- ---- ------<br>--- ----- --- --- ------ -------- rate. --- ------ ----- --<br>----- ----- ---------- --- --- ------ ------ ---- -- ------<br>------- --- ------ ----- --- ---- ------- -- ---- --- --<br>------- ------,154639.19999992847,154638.79999995232,154411.377,154421.09999990463,154428.058,154661.397,,28,rate.
screen,html.Screen,2_1_1_1_29,2022-04-27T19:57:44.071Z,,,,,,,,,,,,,,,,,54,,,,,,,,,,,,,,196.40299995231908,,response,,,,100,,,,,,,Space,keypress(Space),,,,,,,,-- --- ---- --- ------ ----- ------- ---- -- --- ------- --<br>------- ---------- ------ -- ----- -- ----- -- ---- ------<br>--- ----- --- --- ------ -------- ----- The ------ ----- --<br>----- ----- ---------- --- --- ------ ------ ---- -- ------<br>------- --- ------ ----- --- ---- ------- -- ---- --- --<br>------- ------,154858.19999992847,154857.79999995232,154644.735,154639.19999992847,154661.397,154861.4,,29,The
screen,html.Screen,2_1_1_1_30,2022-04-27T19:57:44.358Z,,,,,,,,,,,,,,,,,54,,,,,,,,,,,,,,283.29999992848025,,response,,,,100,,,,,,,Space,keypress(Space),,,,,,,,-- --- ---- --- ------ ----- ------- ---- -- --- ------- --<br>------- ---------- ------ -- ----- -- ----- -- ---- ------<br>--- ----- --- --- ------ -------- ----- --- market ----- --<br>----- ----- ---------- --- --- ------ ------ ---- -- ------<br>------- --- ------ ----- --- ---- ------- -- ---- --- --<br>------- ------,155145.29999995232,155144.69999992847,154844.841,154858.29999995232,154861.4,155161.417,,30,market
screen,html.Screen,2_1_1_1_31,2022-04-27T19:57:44.568Z,,,,,,,,,,,,,,,,,54,,,,,,,,,,,,,,193.38299995232956,,response,,,,100,,,,,,,Space,keypress(Space),,,,,,,,-- --- ---- --- ------ ----- ------- ---- -- --- ------- --<br>------- ---------- ------ -- ----- -- ----- -- ---- ------<br>--- ----- --- --- ------ -------- ----- --- ------ value --<br>----- ----- ---------- --- --- ------ ------ ---- -- ------<br>------- --- ------ ----- --- ---- ------- -- ---- --- --<br>------- ------,155355.19999992847,155354.79999995232,155144.915,155145.29999995232,155161.417,155361.422,,31,value
screen,html.Screen,2_1_1_1_32,2022-04-27T19:57:44.751Z,,,,,,,,,,,,,,,,,54,,,,,,,,,,,,,,175.8779999523249,,response,,,,100,,,,,,,Space,keypress(Space),,,,,,,,-- --- ---- --- ------ ----- ------- ---- -- --- ------- --<br>------- ---------- ------ -- ----- -- ----- -- ---- ------<br>--- ----- --- --- ------ -------- ----- --- ------ ----- of<br>----- ----- ---------- --- --- ------ ------ ---- -- ------<br>------- --- ------ ----- --- ---- ------- -- ---- --- --<br>------- ------,155537.79999995232,155537.29999995232,155344.762,155355.29999995232,155361.422,155544.77,,32,of
screen,html.Screen,2_1_1_1_33,2022-04-27T19:57:44.950Z,,,,,,,,,,,,,,,,,54,,,,,,,,,,,,,,192.12999997616862,,response,,,,100,,,,,,,Space,keypress(Space),,,,,,,,-- --- ---- --- ------ ----- ------- ---- -- --- ------- --<br>------- ---------- ------ -- ----- -- ----- -- ---- ------<br>--- ----- --- --- ------ -------- ----- --- ------ ----- --<br>these ----- ---------- --- --- ------ ------ ---- -- ------<br>------- --- ------ ----- --- ---- ------- -- ---- --- --<br>------- ------,155737.19999992847,155736.89999997616,155528.116,155538.29999995232,155544.77,155744.77,,33,these
screen,html.Screen,2_1_1_1_34,2022-04-27T19:57:45.147Z,,,,,,,,,,,,,,,,,54,,,,,,,,,,,,,,188.12999997616862,,response,,,,100,,,,,,,Space,keypress(Space),,,,,,,,-- --- ---- --- ------ ----- ------- ---- -- --- ------- --<br>------- ---------- ------ -- ----- -- ----- -- ---- ------<br>--- ----- --- --- ------ -------- ----- --- ------ ----- --<br>----- bonds ---------- --- --- ------ ------ ---- -- ------<br>------- --- ------ ----- --- ---- ------- -- ---- --- --<br>------- ------,155933.39999997616,155932.89999997616,155728.308,155737.29999995232,155744.77,155944.804,,34,bonds
screen,html.Screen,2_1_1_1_35,2022-04-27T19:57:45.333Z,,,,,,,,,,,,,,,,,54,,,,,,,,,,,,,,174.99599995231256,,response,,,,100,,,,,,,Space,keypress(Space),,,,,,,,"-- --- ---- --- ------ ----- ------- ---- -- --- ------- --<br>------- ---------- ------ -- ----- -- ----- -- ---- ------<br>--- ----- --- --- ------ -------- ----- --- ------ ----- --<br>----- ----- plummeted, --- --- ------ ------ ---- -- ------<br>------- --- ------ ----- --- ---- ------- -- ---- --- --<br>------- ------",156120.09999990463,156119.79999995232,155928.137,155933.5,155944.804,156128.128,,35,"plummeted,"
screen,html.Screen,2_1_1_1_36,2022-04-27T19:57:45.693Z,,,,,,,,,,,,,,,,,54,,,,,,,,,,,,,,351.57199992847745,,response,,,,100,,,,,,,Space,keypress(Space),,,,,,,,-- --- ---- --- ------ ----- ------- ---- -- --- ------- --<br>------- ---------- ------ -- ----- -- ----- -- ---- ------<br>--- ----- --- --- ------ -------- ----- --- ------ ----- --<br>----- ----- ---------- and --- ------ ------ ---- -- ------<br>------- --- ------ ----- --- ---- ------- -- ---- --- --<br>------- ------,156480.29999995232,156479.69999992847,156111.476,156120.29999995232,156128.128,156494.801,,36,and
screen,html.Screen,2_1_1_1_37,2022-04-27T19:57:45.976Z,,,,,,,,,,,,,,,,,54,,,,,,,,,,,,,,267.7989999046258,,response,,,,100,,,,,,,Space,keypress(Space),,,,,,,,-- --- ---- --- ------ ----- ------- ---- -- --- ------- --<br>------- ---------- ------ -- ----- -- ----- -- ---- ------<br>--- ----- --- --- ------ -------- ----- --- ------ ----- --<br>----- ----- ---------- --- the ------ ------ ---- -- ------<br>------- --- ------ ----- --- ---- ------- -- ---- --- --<br>------- ------,156763,156762.59999990463,156478.143,156480.29999995232,156494.801,156778.155,,37,the
screen,html.Screen,2_1_1_1_38,2022-04-27T19:57:46.157Z,,,,,,,,,,,,,,,,,54,,,,,,,,,,,,,,165.7449999761593,,response,,,,100,,,,,,,Space,keypress(Space),,,,,,,,-- --- ---- --- ------ ----- ------- ---- -- --- ------- --<br>------- ---------- ------ -- ----- -- ----- -- ---- ------<br>--- ----- --- --- ------ -------- ----- --- ------ ----- --<br>----- ----- ---------- --- --- market ------ ---- -- ------<br>------- --- ------ ----- --- ---- ------- -- ---- --- --<br>------- ------,156944.29999995232,156943.89999997616,156761.508,156763,156778.155,156971.292,,38,market
screen,html.Screen,2_1_1_1_39,2022-04-27T19:57:46.340Z,,,,,,,,,,,,,,,,,54,,,,,,,,,,,,,,154.80799990464584,,response,,,,100,,,,,,,Space,keypress(Space),,,,,,,,-- --- ---- --- ------ ----- ------- ---- -- --- ------- --<br>------- ---------- ------ -- ----- -- ----- -- ---- ------<br>--- ----- --- --- ------ -------- ----- --- ------ ----- --<br>----- ----- ---------- --- --- ------ became ---- -- ------<br>------- --- ------ ----- --- ---- ------- -- ---- --- --<br>------- ------,157126.5,157126.09999990463,156928.215,156944.5,156971.292,157128.162,,39,became
screen,html.Screen,2_1_1_1_40,2022-04-27T19:57:46.541Z,,,,,,,,,,,,,,,,,54,,,,,,,,,,,,,,198.83799999998882,,response,,,,100,,,,,,,Space,keypress(Space),,,,,,,,-- --- ---- --- ------ ----- ------- ---- -- --- ------- --<br>------- ---------- ------ -- ----- -- ----- -- ---- ------<br>--- ----- --- --- ------ -------- ----- --- ------ ----- --<br>----- ----- ---------- --- --- ------ ------ wary -- ------<br>------- --- ------ ----- --- ---- ------- -- ---- --- --<br>------- ------,157327.39999997616,157327,157111.528,157126.59999990463,157128.162,157360.741,,40,wary
screen,html.Screen,2_1_1_1_41,2022-04-27T19:57:46.749Z,,,,,,,,,,,,,,,,,54,,,,,,,,,,,,,,175.15899997614906,,response,,,,100,,,,,,,Space,keypress(Space),,,,,,,,-- --- ---- --- ------ ----- ------- ---- -- --- ------- --<br>------- ---------- ------ -- ----- -- ----- -- ---- ------<br>--- ----- --- --- ------ -------- ----- --- ------ ----- --<br>----- ----- ---------- --- --- ------ ------ ---- of ------<br>------- --- ------ ----- --- ---- ------- -- ---- --- --<br>------- ------,157536.29999995232,157535.89999997616,157311.988,157327.39999997616,157360.741,157544.852,,41,of
screen,html.Screen,2_1_1_1_42,2022-04-27T19:57:46.954Z,,,,,,,,,,,,,,,,,54,,,,,,,,,,,,,,195.84799992846092,,response,,,,100,,,,,,,Space,keypress(Space),,,,,,,,-- --- ---- --- ------ ----- ------- ---- -- --- ------- --<br>------- ---------- ------ -- ----- -- ----- -- ---- ------<br>--- ----- --- --- ------ -------- ----- --- ------ ----- --<br>----- ----- ---------- --- --- ------ ------ ---- -- French<br>------- --- ------ ----- --- ---- ------- -- ---- --- --<br>------- ------,157741.19999992847,157740.69999992847,157528.203,157536.39999997616,157544.852,157744.845,,42,French
screen,html.Screen,2_1_1_1_43,2022-04-27T19:57:47.168Z,,,,,,,,,,,,,,,,,54,,,,,,,,,,,,,,210.05499997615698,,response,,,,100,,,,,,,Space,keypress(Space),,,,,,,,-- --- ---- --- ------ ----- ------- ---- -- --- ------- --<br>------- ---------- ------ -- ----- -- ----- -- ---- ------<br>--- ----- --- --- ------ -------- ----- --- ------ ----- --<br>----- ----- ---------- --- --- ------ ------ ---- -- ------<br>credit. --- ------ ----- --- ---- ------- -- ---- --- --<br>------- ------,157955.29999995232,157954.89999997616,157728.207,157741.29999995232,157744.845,157961.535,,43,credit.
screen,html.Screen,2_1_1_1_44,2022-04-27T19:57:47.533Z,,,,,,,,,,,,,,,,,54,,,,,,,,,,,,,,358.16499992847093,,response,,,,100,,,,,,,Space,keypress(Space),,,,,,,,-- --- ---- --- ------ ----- ------- ---- -- --- ------- --<br>------- ---------- ------ -- ----- -- ----- -- ---- ------<br>--- ----- --- --- ------ -------- ----- --- ------ ----- --<br>----- ----- ---------- --- --- ------ ------ ---- -- ------<br>------- The ------ ----- --- ---- ------- -- ---- --- --<br>------- ------,158320.19999992847,158319.69999992847,157944.925,157955.29999995232,157961.535,158344.905,,44,The
screen,html.Screen,2_1_1_1_45,2022-04-27T19:57:47.871Z,,,,,,,,,,,,,,,,,54,,,,,,,,,,,,,,312.59500000000116,,response,,,,100,,,,,,,Space,keypress(Space),,,,,,,,-- --- ---- --- ------ ----- ------- ---- -- --- ------- --<br>------- ---------- ------ -- ----- -- ----- -- ---- ------<br>--- ----- --- --- ------ -------- ----- --- ------ ----- --<br>----- ----- ---------- --- --- ------ ------ ---- -- ------<br>------- --- French ----- --- ---- ------- -- ---- --- --<br>------- ------,158658.09999990463,158657.5,158328.216,158320.19999992847,158344.905,158661.548,,45,French
screen,html.Screen,2_1_1_1_46,2022-04-27T19:57:48.212Z,,,,,,,,,,,,,,,,,54,,,,,,,,,,,,,,337.35199997614836,,response,,,,100,,,,,,,Space,keypress(Space),,,,,,,,-- --- ---- --- ------ ----- ------- ---- -- --- ------- --<br>------- ---------- ------ -- ----- -- ----- -- ---- ------<br>--- ----- --- --- ------ -------- ----- --- ------ ----- --<br>----- ----- ---------- --- --- ------ ------ ---- -- ------<br>------- --- ------ state --- ---- ------- -- ---- --- --<br>------- ------,158999.29999995232,158998.89999997616,158644.909,158658.19999992847,158661.548,159011.58,,46,state
screen,html.Screen,2_1_1_1_47,2022-04-27T19:57:48.445Z,,,,,,,,,,,,,,,,,54,,,,,,,,,,,,,,219.51999990464537,,response,,,,100,,,,,,,Space,keypress(Space),,,,,,,,-- --- ---- --- ------ ----- ------- ---- -- --- ------- --<br>------- ---------- ------ -- ----- -- ----- -- ---- ------<br>--- ----- --- --- ------ -------- ----- --- ------ ----- --<br>----- ----- ---------- --- --- ------ ------ ---- -- ------<br>------- --- ------ ----- was ---- ------- -- ---- --- --<br>------- ------,159231.5,159231.09999990463,158995.424,158999.39999997616,159011.58,159244.926,,47,was
screen,html.Screen,2_1_1_1_48,2022-04-27T19:57:48.649Z,,,,,,,,,,,,,,,,,54,,,,,,,,,,,,,,190.87399995230953,,response,,,,100,,,,,,,Space,keypress(Space),,,,,,,,-- --- ---- --- ------ ----- ------- ---- -- --- ------- --<br>------- ---------- ------ -- ----- -- ----- -- ---- ------<br>--- ----- --- --- ------ -------- ----- --- ------ ----- --<br>----- ----- ---------- --- --- ------ ------ ---- -- ------<br>------- --- ------ ----- --- left ------- -- ---- --- --<br>------- ------,159436.19999992847,159435.79999995232,159228.266,159231.59999990463,159244.926,159444.928,,48,left
screen,html.Screen,2_1_1_1_49,2022-04-27T19:57:49.038Z,,,,,,,,,,,,,,,,,54,,,,,,,,,,,,,,378.9719999761437,,response,,,,100,,,,,,,Space,keypress(Space),,,,,,,,-- --- ---- --- ------ ----- ------- ---- -- --- ------- --<br>------- ---------- ------ -- ----- -- ----- -- ---- ------<br>--- ----- --- --- ------ -------- ----- --- ------ ----- --<br>----- ----- ---------- --- --- ------ ------ ---- -- ------<br>------- --- ------ ----- --- ---- without -- ---- --- --<br>------- ------,159824.39999997616,159823.89999997616,159428.35,159436.39999997616,159444.928,159828.29,,49,without
screen,html.Screen,2_1_1_1_50,2022-04-27T19:57:49.369Z,,,,,,,,,,,,,,,,,54,,,,,,,,,,,,,,327.4099999284663,,response,,,,100,,,,,,,Space,keypress(Space),,,,,,,,-- --- ---- --- ------ ----- ------- ---- -- --- ------- --<br>------- ---------- ------ -- ----- -- ----- -- ---- ------<br>--- ----- --- --- ------ -------- ----- --- ------ ----- --<br>----- ----- ---------- --- --- ------ ------ ---- -- ------<br>------- --- ------ ----- --- ---- ------- an ---- --- --<br>------- ------,160156.09999990463,160155.69999992847,159811.656,159824.5,159828.29,160161.622,,50,an
screen,html.Screen,2_1_1_1_51,2022-04-27T19:57:49.579Z,,,,,,,,,,,,,,,,,54,,,,,,,,,,,,,,204.17799995231326,,response,,,,100,,,,,,,Space,keypress(Space),,,,,,,,-- --- ---- --- ------ ----- ------- ---- -- --- ------- --<br>------- ---------- ------ -- ----- -- ----- -- ---- ------<br>--- ----- --- --- ------ -------- ----- --- ------ ----- --<br>----- ----- ---------- --- --- ------ ------ ---- -- ------<br>------- --- ------ ----- --- ---- ------- -- easy --- --<br>------- ------,160366.19999992847,160365.79999995232,160145.022,160156.19999992847,160161.622,160378.287,,51,easy
screen,html.Screen,2_1_1_1_52,2022-04-27T19:57:49.779Z,,,,,,,,,,,,,,,,,54,,,,,,,,,,,,,,187.5129999523051,,response,,,,100,,,,,,,Space,keypress(Space),,,,,,,,-- --- ---- --- ------ ----- ------- ---- -- --- ------- --<br>------- ---------- ------ -- ----- -- ----- -- ---- ------<br>--- ----- --- --- ------ -------- ----- --- ------ ----- --<br>----- ----- ---------- --- --- ------ ------ ---- -- ------<br>------- --- ------ ----- --- ---- ------- -- ---- way --<br>------- ------,160566.29999995232,160565.79999995232,160361.625,160366.29999995232,160378.287,160578.306,,52,way
screen,html.Screen,2_1_1_1_53,2022-04-27T19:57:50.003Z,,,,,,,,,,,,,,,,,54,,,,,,,,,,,,,,211.29399990462116,,response,,,,100,,,,,,,Space,keypress(Space),,,,,,,,-- --- ---- --- ------ ----- ------- ---- -- --- ------- --<br>------- ---------- ------ -- ----- -- ----- -- ---- ------<br>--- ----- --- --- ------ -------- ----- --- ------ ----- --<br>----- ----- ---------- --- --- ------ ------ ---- -- ------<br>------- --- ------ ----- --- ---- ------- -- ---- --- of<br>------- ------,160790.09999990463,160789.59999990463,160561.654,160566.29999995232,160578.306,160794.97,,53,of
screen,html.Screen,2_1_1_1_54,2022-04-27T19:57:50.317Z,,,,,,,,,,,,,,,,,54,,,,,,,,,,,,,,308.72999992847326,,response,,,,100,,,,,,,Space,keypress(Space),,,,,,,,-- --- ---- --- ------ ----- ------- ---- -- --- ------- --<br>------- ---------- ------ -- ----- -- ----- -- ---- ------<br>--- ----- --- --- ------ -------- ----- --- ------ ----- --<br>----- ----- ---------- --- --- ------ ------ ---- -- ------<br>------- --- ------ ----- --- ---- ------- -- ---- --- --<br>raising ------,161104.09999990463,161103.69999992847,160778.308,160790.09999990463,160794.97,161111.656,,54,raising
screen,html.Screen,2_1_1_1_55,2022-04-27T19:57:50.649Z,,,,,,,,,,,,,,,,,54,,,,,,,,,,,,,,324.0439999284863,,response,,,,100,,,,,,,Space,keypress(Space),,,,,,,,-- --- ---- --- ------ ----- ------- ---- -- --- ------- --<br>------- ---------- ------ -- ----- -- ----- -- ---- ------<br>--- ----- --- --- ------ -------- ----- --- ------ ----- --<br>----- ----- ---------- --- --- ------ ------ ---- -- ------<br>------- --- ------ ----- --- ---- ------- -- ---- --- --<br>------- money.,161436.19999992847,161435.69999992847,161095.013,161104.09999990463,161111.656,161445.01,,55,money.
Item 100,flow.Loop,2_1_1_1,2022-04-27T19:57:50.649Z,,,,,,,,,,,,,,,,,,,,,,,,,,,,,,,14324.58899992847,,completion,,,,,C,,,,,,,,,,,silence,,,,,161436.29999995232,161435.69999992847,147094.439,147094.79999995232,147111.111,161445.01,,,
Question 1,html.Screen,2_1_1_2,2022-04-27T19:57:53.297Z,,,,,,,,,,,,,,,,,,,,,,,,,,,,true,TRUE,,2638.5899999046233,,response,,,,100,C,,,,,,TRUE,click #choice-1,,,,silence,,,,,164084.09999990463,164083.59999990463,161428.331,161436.29999995232,161445.01,164111.796,,,
Question 2,html.Screen,2_1_1_3,2022-04-27T19:57:55.130Z,,,,,,,,,,,,,,,,,,,,,,,,,,,,true,FALSE,,1803.9039999284723,,response,,,,100,C,,,,,,FALSE,click #choice-2,,,,silence,,,,,165916.39999997616,165915.69999992847,164095.136,164084.19999992847,164111.796,165928.503,,,
Item 100,flow.Sequence,2_1_1,2022-04-27T19:57:55.130Z,,,,,,,,,,,,,,,,,,,,,,,,,,,,,,,28804.939999928465,,completion,,,,,,,,,,,,,,,,,,,,,165916.5,165915.69999992847,137094.056,137109.79999995232,137110.76,165928.503,,,
End of Practice,html.Page,2_1_2,2022-04-27T19:57:59.486Z,,,,,,,,,,,,,,,,,,,,,,,,,,,,,,,4343.796999952319,,form submission,,,,,,,,,,,,,,,,,,,,,170272.39999997616,170272.29999995232,165911.853,165916.59999990463,165928.503,170278.689,,,
Practice,flow.Sequence,2_1,2022-04-27T19:57:59.486Z,,,,,,,,,,,,,,,,,,,,,,,,,,,,,,,77199.75999995232,,completion,,,,,,,,,,,,,,,,,,,,,170272.59999990463,170272.29999995232,93025.639,93042.19999992847,93072.54,170278.689,,,
Trap_instruction,html.Page,2_2_0,2022-04-27T19:58:03.177Z,,,,,,,,,,,,,,,,,,,,,,,,,,,,,,,3683.9109999046195,,form submission,,,,,,,,,,,,,,,,,,,,,173962.69999992847,173962.59999990463,170262.048,170272.69999992847,170278.689,173978.813,,,
trap_trial,html.Screen,2_2_1,2022-04-27T19:58:06.019Z,,,,,,,,,,,,,,,,,,,,,,,,,,,,true,1,,2826.0869999761635,,response,,,,,,,,,,,1,click #choice-1,,,,,,,,,176805.59999990463,176804.89999997616,173962.16,173962.79999995232,173978.813,176812.255,,,
end of trap trial,html.Page,2_2_2,2022-04-27T19:58:07.376Z,,,,,,,,,,,,,,,,,,,,,,,,,,,,,,,1350.1449999761535,,form submission,,,,,,,,,,,,,,,,,,,,,178162.59999990463,178162.39999997616,176795.631,176805.69999992847,176812.255,178186.303,,,
Trap 1,flow.Sequence,2_2,2022-04-27T19:58:07.376Z,,,,,,,,,,,,,,,,,,,,,,,,,,,,,,,7883.710999976145,,completion,,,,,,,,,,,,,,,,,,,,,178162.69999992847,178162.39999997616,170262.048,170272.59999990463,170278.689,178186.303,,,
Standby,html.Page,2_3_0,2022-04-27T19:58:15.377Z,,,,,,,,,,,,,,,,,,,,,,,,,,,,,,,7993.023999999976,,timeout,,,,,,,,,,,,,,,,,,,,,186163.19999992847,186162.728,178145.646,178162.69999992847,178186.303,186179.327,,,
Holding screen,html.Screen,2_3_1_0_0,2022-04-27T19:58:22.377Z,,,,,,,,,,,,,,,,,,,,,,,,,,,,,,,7000.265000000014,,timeout,,,,,,,,,,,,,,,,,,,,,193163.29999995232,193162.935,186162.728,186163.29999995232,186179.327,193179.592,,,
screen,html.Screen,2_3_1_0_1_0,2022-04-27T19:58:24.723Z,,,,,,,,,,,,,,,,,51,,,,,,,,,,,,,,2329.6079999284702,,response,,,,13,C,,,,,,Space,keypress(Space),,,,instrumental,,,,American -------- --- --- ---- --- --- ------ -- --------<br>---- --------- --- ------- ------------ ---------- ---------<br>--- ---------- ------- ---------- ------- -- -------- ----<br>---- --- ------ ----- ------ -- ---- --- ----- -- - -------<br>-------- -- --- --- -- ----- ----------- ----- -----------<br>---- --- ---------- --- ---- --- -- ----------,195509.69999992847,195509.19999992847,193162.935,193163.39999997616,193179.592,195513.018,,0,American
screen,html.Screen,2_3_1_0_1_1,2022-04-27T19:58:25.146Z,,,,,,,,,,,,,,,,,51,,,,,,,,,,,,,,418.78199995230534,,response,,,,13,C,,,,,,Space,keypress(Space),,,,instrumental,,,,-------- industry --- --- ---- --- --- ------ -- --------<br>---- --------- --- ------- ------------ ---------- ---------<br>--- ---------- ------- ---------- ------- -- -------- ----<br>---- --- ------ ----- ------ -- ---- --- ----- -- - -------<br>-------- -- --- --- -- ----- ----------- ----- -----------<br>---- --- ---------- --- ---- --- -- ----------,195932.19999992847,195931.79999995232,195496.356,195509.69999992847,195513.018,195946.37,,1,industry
screen,html.Screen,2_3_1_0_1_2,2022-04-27T19:58:25.797Z,,,,,,,,,,,,,,,,,51,,,,,,,,,,,,,,636.6300000000047,,response,,,,13,C,,,,,,Space,keypress(Space),,,,instrumental,,,,-------- -------- may --- ---- --- --- ------ -- --------<br>---- --------- --- ------- ------------ ---------- ---------<br>--- ---------- ------- ---------- ------- -- -------- ----<br>---- --- ------ ----- ------ -- ---- --- ----- -- - -------<br>-------- -- --- --- -- ----- ----------- ----- -----------<br>---- --- ---------- --- ---- --- -- ----------,196583.39999997616,196583,195929.687,195932.19999992847,195946.37,196596.43,,2,may
screen,html.Screen,2_3_1_0_1_3,2022-04-27T19:58:26.403Z,,,,,,,,,,,,,,,,,51,,,,,,,,,,,,,,592.570000000007,,response,,,,13,C,,,,,,Space,keypress(Space),,,,instrumental,,,,-------- -------- --- not ---- --- --- ------ -- --------<br>---- --------- --- ------- ------------ ---------- ---------<br>--- ---------- ------- ---------- ------- -- -------- ----<br>---- --- ------ ----- ------ -- ---- --- ----- -- - -------<br>-------- -- --- --- -- ----- ----------- ----- -----------<br>---- --- ---------- --- ---- --- -- ----------,197189.39999997616,197189,196579.736,196583.5,196596.43,197196.441,,3,not
screen,html.Screen,2_3_1_0_1_4,2022-04-27T19:58:26.904Z,,,,,,,,,,,,,,,,,51,,,,,,,,,,,,,,493.5590000000084,,response,,,,13,C,,,,,,Space,keypress(Space),,,,instrumental,,,,-------- -------- --- --- know --- --- ------ -- --------<br>---- --------- --- ------- ------------ ---------- ---------<br>--- ---------- ------- ---------- ------- -- -------- ----<br>---- --- ------ ----- ------ -- ---- --- ----- -- - -------<br>-------- -- --- --- -- ----- ----------- ----- -----------<br>---- --- ---------- --- ---- --- -- ----------,197690.39999997616,197690,197179.904,197189.39999997616,197196.441,197696.436,,4,know
screen,html.Screen,2_3_1_0_1_5,2022-04-27T19:58:27.265Z,,,,,,,,,,,,,,,,,51,,,,,,,,,,,,,,354.1639999046456,,response,,,,13,C,,,,,,Space,keypress(Space),,,,instrumental,,,,"-------- -------- --- --- ---- it, --- ------ -- --------<br>---- --------- --- ------- ------------ ---------- ---------<br>--- ---------- ------- ---------- ------- -- -------- ----<br>---- --- ------ ----- ------ -- ---- --- ----- -- - -------<br>-------- -- --- --- -- ----- ----------- ----- -----------<br>---- --- ---------- --- ---- --- -- ----------",198051.09999990463,198050.59999990463,197679.777,197690.5,197696.436,198063.12,,5,"it,"
screen,html.Screen,2_3_1_0_1_6,2022-04-27T19:58:27.565Z,,,,,,,,,,,,,,,,,51,,,,,,,,,,,,,,287.7799999761628,,response,,,,13,C,,,,,,Space,keypress(Space),,,,instrumental,,,,-------- -------- --- --- ---- --- but ------ -- --------<br>---- --------- --- ------- ------------ ---------- ---------<br>--- ---------- ------- ---------- ------- -- -------- ----<br>---- --- ------ ----- ------ -- ---- --- ----- -- - -------<br>-------- -- --- --- -- ----- ----------- ----- -----------<br>---- --- ---------- --- ---- --- -- ----------,198351.19999992847,198350.89999997616,198046.462,198051.09999990463,198063.12,198379.81,,6,but
screen,html.Screen,2_3_1_0_1_7,2022-04-27T19:58:27.847Z,,,,,,,,,,,,,,,,,51,,,,,,,,,,,,,,253.08999997616047,,response,,,,13,C,,,,,,Space,keypress(Space),,,,instrumental,,,,-------- -------- --- --- ---- --- --- debate -- --------<br>---- --------- --- ------- ------------ ---------- ---------<br>--- ---------- ------- ---------- ------- -- -------- ----<br>---- --- ------ ----- ------ -- ---- --- ----- -- - -------<br>-------- -- --- --- -- ----- ----------- ----- -----------<br>---- --- ---------- --- ---- --- -- ----------,198633.39999997616,198632.89999997616,198363.128,198351.29999995232,198379.81,198646.488,,7,debate
screen,html.Screen,2_3_1_0_1_8,2022-04-27T19:58:28.189Z,,,,,,,,,,,,,,,,,51,,,,,,,,,,,,,,328.5119999999879,,response,,,,13,C,,,,,,Space,keypress(Space),,,,instrumental,,,,-------- -------- --- --- ---- --- --- ------ in --------<br>---- --------- --- ------- ------------ ---------- ---------<br>--- ---------- ------- ---------- ------- -- -------- ----<br>---- --- ------ ----- ------ -- ---- --- ----- -- - -------<br>-------- -- --- --- -- ----- ----------- ----- -----------<br>---- --- ---------- --- ---- --- -- ----------,198975.5,198975,198629.814,198633.5,198646.488,198979.804,,8,in
screen,html.Screen,2_3_1_0_1_9,2022-04-27T19:58:28.439Z,,,,,,,,,,,,,,,,,51,,,,,,,,,,,,,,245.19599999999627,,response,,,,13,C,,,,,,Space,keypress(Space),,,,instrumental,,,,-------- -------- --- --- ---- --- --- ------ -- Congress<br>---- --------- --- ------- ------------ ---------- ---------<br>--- ---------- ------- ---------- ------- -- -------- ----<br>---- --- ------ ----- ------ -- ---- --- ----- -- - -------<br>-------- -- --- --- -- ----- ----------- ----- -----------<br>---- --- ---------- --- ---- --- -- ----------,199225.39999997616,199225,198963.144,198975.59999990463,198979.804,199229.823,,9,Congress
screen,html.Screen,2_3_1_0_1_10,2022-04-27T19:58:28.772Z,,,,,,,,,,,,,,,,,51,,,,,,,,,,,,,,328.0769999761542,,response,,,,13,C,,,,,,Space,keypress(Space),,,,instrumental,,,,-------- -------- --- --- ---- --- --- ------ -- --------<br>over --------- --- ------- ------------ ---------- ---------<br>--- ---------- ------- ---------- ------- -- -------- ----<br>---- --- ------ ----- ------ -- ---- --- ----- -- - -------<br>-------- -- --- --- -- ----- ----------- ----- -----------<br>---- --- ---------- --- ---- --- -- ----------,199558.5,199557.89999997616,199213.169,199225.39999997616,199229.823,199563.153,,10,over
screen,html.Screen,2_3_1_0_1_11,2022-04-27T19:58:29.141Z,,,,,,,,,,,,,,,,,51,,,,,,,,,,,,,,363.64699995232513,,response,,,,13,C,,,,,,Space,keypress(Space),,,,instrumental,,,,-------- -------- --- --- ---- --- --- ------ -- --------<br>---- reforming --- ------- ------------ ---------- ---------<br>--- ---------- ------- ---------- ------- -- -------- ----<br>---- --- ------ ----- ------ -- ---- --- ----- -- - -------<br>-------- -- --- --- -- ----- ----------- ----- -----------<br>---- --- ---------- --- ---- --- -- ----------,199927.19999992847,199926.79999995232,199546.531,199558.5,199563.153,199929.867,,11,reforming
screen,html.Screen,2_3_1_0_1_12,2022-04-27T19:58:29.337Z,,,,,,,,,,,,,,,,,51,,,,,,,,,,,,,,192.9329999523179,,response,,,,13,C,,,,,,Space,keypress(Space),,,,instrumental,,,,-------- -------- --- --- ---- --- --- ------ -- --------<br>---- --------- the ------- ------------ ---------- ---------<br>--- ---------- ------- ---------- ------- -- -------- ----<br>---- --- ------ ----- ------ -- ---- --- ----- -- - -------<br>-------- -- --- --- -- ----- ----------- ----- -----------<br>---- --- ---------- --- ---- --- -- ----------,200123.29999995232,200122.79999995232,199913.191,199927.29999995232,199929.867,200129.868,,12,the
screen,html.Screen,2_3_1_0_1_13,2022-04-27T19:58:29.637Z,,,,,,,,,,,,,,,,,51,,,,,,,,,,,,,,292.9319999523286,,response,,,,13,C,,,,,,Space,keypress(Space),,,,instrumental,,,,-------- -------- --- --- ---- --- --- ------ -- --------<br>---- --------- --- federal ------------ ---------- ---------<br>--- ---------- ------- ---------- ------- -- -------- ----<br>---- --- ------ ----- ------ -- ---- --- ----- -- - -------<br>-------- -- --- --- -- ----- ----------- ----- -----------<br>---- --- ---------- --- ---- --- -- ----------,200423.19999992847,200422.79999995232,200113.205,200123.29999995232,200129.868,200429.853,,13,federal
screen,html.Screen,2_3_1_0_1_14,2022-04-27T19:58:29.802Z,,,,,,,,,,,,,,,,,51,,,,,,,,,,,,,,157.74699990462977,,response,,,,13,C,,,,,,Space,keypress(Space),,,,instrumental,,,,-------- -------- --- --- ---- --- --- ------ -- --------<br>---- --------- --- ------- government's ---------- ---------<br>--- ---------- ------- ---------- ------- -- -------- ----<br>---- --- ------ ----- ------ -- ---- --- ----- -- - -------<br>-------- -- --- --- -- ----- ----------- ----- -----------<br>---- --- ---------- --- ---- --- -- ----------,200588.09999990463,200587.59999990463,200413.205,200423.29999995232,200429.853,200596.552,,14,government's
screen,html.Screen,2_3_1_0_1_15,2022-04-27T19:58:30.284Z,,,,,,,,,,,,,,,,,51,,,,,,,,,,,,,,473.3479999761621,,response,,,,13,C,,,,,,Space,keypress(Space),,,,instrumental,,,,-------- -------- --- --- ---- --- --- ------ -- --------<br>---- --------- --- ------- ------------ regulatory ---------<br>--- ---------- ------- ---------- ------- -- -------- ----<br>---- --- ------ ----- ------ -- ---- --- ----- -- - -------<br>-------- -- --- --- -- ----- ----------- ----- -----------<br>---- --- ---------- --- ---- --- -- ----------,201070.29999995232,201069.89999997616,200579.887,200588.09999990463,200596.552,201079.903,,15,regulatory
screen,html.Screen,2_3_1_0_1_16,2022-04-27T19:58:30.662Z,,,,,,,,,,,,,,,,,51,,,,,,,,,,,,,,367.996999976167,,response,,,,13,C,,,,,,Space,keypress(Space),,,,instrumental,,,,-------- -------- --- --- ---- --- --- ------ -- --------<br>---- --------- --- ------- ------------ ---------- apparatus<br>--- ---------- ------- ---------- ------- -- -------- ----<br>---- --- ------ ----- ------ -- ---- --- ----- -- - -------<br>-------- -- --- --- -- ----- ----------- ----- -----------<br>---- --- ---------- --- ---- --- -- ----------,201448.29999995232,201447.89999997616,201063.253,201070.39999997616,201079.903,201463.26,,16,apparatus
screen,html.Screen,2_3_1_0_1_17,2022-04-27T19:58:31.067Z,,,,,,,,,,,,,,,,,51,,,,,,,,,,,,,,389.63999997614883,,response,,,,13,C,,,,,,Space,keypress(Space),,,,instrumental,,,,-------- -------- --- --- ---- --- --- ------ -- --------<br>---- --------- --- ------- ------------ ---------- ---------<br>may ---------- ------- ---------- ------- -- -------- ----<br>---- --- ------ ----- ------ -- ---- --- ----- -- - -------<br>-------- -- --- --- -- ----- ----------- ----- -----------<br>---- --- ---------- --- ---- --- -- ----------,201853.29999995232,201852.89999997616,201446.584,201448.39999997616,201463.26,201863.243,,17,may
screen,html.Screen,2_3_1_0_1_18,2022-04-27T19:58:31.286Z,,,,,,,,,,,,,,,,,51,,,,,,,,,,,,,,208.65699997617048,,response,,,,13,C,,,,,,Space,keypress(Space),,,,instrumental,,,,-------- -------- --- --- ---- --- --- ------ -- --------<br>---- --------- --- ------- ------------ ---------- ---------<br>--- profoundly ------- ---------- ------- -- -------- ----<br>---- --- ------ ----- ------ -- ---- --- ----- -- - -------<br>-------- -- --- --- -- ----- ----------- ----- -----------<br>---- --- ---------- --- ---- --- -- ----------,202072.29999995232,202071.89999997616,201846.615,201853.39999997616,201863.243,202079.94,,18,profoundly
screen,html.Screen,2_3_1_0_1_19,2022-04-27T19:58:31.614Z,,,,,,,,,,,,,,,,,51,,,,,,,,,,,,,,319.9599999761558,,response,,,,13,C,,,,,,Space,keypress(Space),,,,instrumental,,,,-------- -------- --- --- ---- --- --- ------ -- --------<br>---- --------- --- ------- ------------ ---------- ---------<br>--- ---------- improve ---------- ------- -- -------- ----<br>---- --- ------ ----- ------ -- ---- --- ----- -- - -------<br>-------- -- --- --- -- ----- ----------- ----- -----------<br>---- --- ---------- --- ---- --- -- ----------,202400.29999995232,202399.89999997616,202063.291,202072.39999997616,202079.94,202413.29,,19,improve
screen,html.Screen,2_3_1_0_1_20,2022-04-27T19:58:31.979Z,,,,,,,,,,,,,,,,,51,,,,,,,,,,,,,,351.70999999999185,,response,,,,13,C,,,,,,Space,keypress(Space),,,,instrumental,,,,-------- -------- --- --- ---- --- --- ------ -- --------<br>---- --------- --- ------- ------------ ---------- ---------<br>--- ---------- ------- companies' ------- -- -------- ----<br>---- --- ------ ----- ------ -- ---- --- ----- -- - -------<br>-------- -- --- --- -- ----- ----------- ----- -----------<br>---- --- ---------- --- ---- --- -- ----------,202765.39999997616,202765,202396.615,202400.29999995232,202413.29,202779.971,,20,companies'
screen,html.Screen,2_3_1_0_1_21,2022-04-27T19:58:32.302Z,,,,,,,,,,,,,,,,,51,,,,,,,,,,,,,,307.9289999761677,,response,,,,13,C,,,,,,Space,keypress(Space),,,,instrumental,,,,-------- -------- --- --- ---- --- --- ------ -- --------<br>---- --------- --- ------- ------------ ---------- ---------<br>--- ---------- ------- ---------- ability -- -------- ----<br>---- --- ------ ----- ------ -- ---- --- ----- -- - -------<br>-------- -- --- --- -- ----- ----------- ----- -----------<br>---- --- ---------- --- ---- --- -- ----------,203088.29999995232,203087.89999997616,202763.317,202765.39999997616,202779.971,203113.337,,21,ability
screen,html.Screen,2_3_1_0_1_22,2022-04-27T19:58:32.600Z,,,,,,,,,,,,,,,,,51,,,,,,,,,,,,,,272.0629999761586,,response,,,,13,C,,,,,,Space,keypress(Space),,,,instrumental,,,,-------- -------- --- --- ---- --- --- ------ -- --------<br>---- --------- --- ------- ------------ ---------- ---------<br>--- ---------- ------- ---------- ------- to -------- ----<br>---- --- ------ ----- ------ -- ---- --- ----- -- - -------<br>-------- -- --- --- -- ----- ----------- ----- -----------<br>---- --- ---------- --- ---- --- -- ----------,203385.79999995232,203385.39999997616,203096.653,203088.29999995232,203113.337,203396.64,,22,to
screen,html.Screen,2_3_1_0_1_23,2022-04-27T19:58:32.794Z,,,,,,,,,,,,,,,,,51,,,,,,,,,,,,,,183.25999997614417,,response,,,,13,C,,,,,,Space,keypress(Space),,,,instrumental,,,,-------- -------- --- --- ---- --- --- ------ -- --------<br>---- --------- --- ------- ------------ ---------- ---------<br>--- ---------- ------- ---------- ------- -- survive. ----<br>---- --- ------ ----- ------ -- ---- --- ----- -- - -------<br>-------- -- --- --- -- ----- ----------- ----- -----------<br>---- --- ---------- --- ---- --- -- ----------,203580.39999997616,203579.89999997616,203380.001,203385.89999997616,203396.64,203596.671,,23,survive.
screen,html.Screen,2_3_1_0_1_24,2022-04-27T19:58:33.159Z,,,,,,,,,,,,,,,,,51,,,,,,,,,,,,,,348.22899997615605,,response,,,,13,C,,,,,,Space,keypress(Space),,,,instrumental,,,,-------- -------- --- --- ---- --- --- ------ -- --------<br>---- --------- --- ------- ------------ ---------- ---------<br>--- ---------- ------- ---------- ------- -- -------- This<br>---- --- ------ ----- ------ -- ---- --- ----- -- - -------<br>-------- -- --- --- -- ----- ----------- ----- -----------<br>---- --- ---------- --- ---- --- -- ----------,203945.39999997616,203944.89999997616,203579.974,203580.5,203596.671,203969.529,,24,This
screen,html.Screen,2_3_1_0_1_25,2022-04-27T19:58:33.364Z,,,,,,,,,,,,,,,,,51,,,,,,,,,,,,,,180.47099999999045,,response,,,,13,C,,,,,,Space,keypress(Space),,,,instrumental,,,,-------- -------- --- --- ---- --- --- ------ -- --------<br>---- --------- --- ------- ------------ ---------- ---------<br>--- ---------- ------- ---------- ------- -- -------- ----<br>week --- ------ ----- ------ -- ---- --- ----- -- - -------<br>-------- -- --- --- -- ----- ----------- ----- -----------<br>---- --- ---------- --- ---- --- -- ----------,204150.39999997616,204150,203930.026,203945.39999997616,203969.529,204163.38,,25,week
screen,html.Screen,2_3_1_0_1_26,2022-04-27T19:58:33.582Z,,,,,,,,,,,,,,,,,51,,,,,,,,,,,,,,204.51999997615349,,response,,,,13,C,,,,,,Space,keypress(Space),,,,instrumental,,,,-------- -------- --- --- ---- --- --- ------ -- --------<br>---- --------- --- ------- ------------ ---------- ---------<br>--- ---------- ------- ---------- ------- -- -------- ----<br>---- the ------ ----- ------ -- ---- --- ----- -- - -------<br>-------- -- --- --- -- ----- ----------- ----- -----------<br>---- --- ---------- --- ---- --- -- ----------,204368.29999995232,204367.89999997616,204146.803,204150.39999997616,204163.38,204380.033,,26,the
screen,html.Screen,2_3_1_0_1_27,2022-04-27T19:58:33.783Z,,,,,,,,,,,,,,,,,51,,,,,,,,,,,,,,188.86699997616233,,response,,,,13,C,,,,,,Space,keypress(Space),,,,instrumental,,,,-------- -------- --- --- ---- --- --- ------ -- --------<br>---- --------- --- ------- ------------ ---------- ---------<br>--- ---------- ------- ---------- ------- -- -------- ----<br>---- --- Senate ----- ------ -- ---- --- ----- -- - -------<br>-------- -- --- --- -- ----- ----------- ----- -----------<br>---- --- ---------- --- ---- --- -- ----------,204569.39999997616,204568.89999997616,204363.364,204368.39999997616,204380.033,204580.041,,27,Senate
screen,html.Screen,2_3_1_0_1_28,2022-04-27T19:58:34.093Z,,,,,,,,,,,,,,,,,51,,,,,,,,,,,,,,298.75899995231885,,response,,,,13,C,,,,,,Space,keypress(Space),,,,instrumental,,,,-------- -------- --- --- ---- --- --- ------ -- --------<br>---- --------- --- ------- ------------ ---------- ---------<br>--- ---------- ------- ---------- ------- -- -------- ----<br>---- --- ------ seems ------ -- ---- --- ----- -- - -------<br>-------- -- --- --- -- ----- ----------- ----- -----------<br>---- --- ---------- --- ---- --- -- ----------,204879.29999995232,204878.79999995232,204563.382,204569.5,204580.041,204899.533,,28,seems
screen,html.Screen,2_3_1_0_1_29,2022-04-27T19:58:34.285Z,,,,,,,,,,,,,,,,,51,,,,,,,,,,,,,,170.76699995232048,,response,,,,13,C,,,,,,Space,keypress(Space),,,,instrumental,,,,-------- -------- --- --- ---- --- --- ------ -- --------<br>---- --------- --- ------- ------------ ---------- ---------<br>--- ---------- ------- ---------- ------- -- -------- ----<br>---- --- ------ ----- poised -- ---- --- ----- -- - -------<br>-------- -- --- --- -- ----- ----------- ----- -----------<br>---- --- ---------- --- ---- --- -- ----------,205070.69999992847,205070.29999995232,204863.399,204879.39999997616,204899.533,205080.061,,29,poised
screen,html.Screen,2_3_1_0_1_30,2022-04-27T19:58:34.507Z,,,,,,,,,,,,,,,,,51,,,,,,,,,,,,,,212.73899995232932,,response,,,,13,C,,,,,,Space,keypress(Space),,,,instrumental,,,,-------- -------- --- --- ---- --- --- ------ -- --------<br>---- --------- --- ------- ------------ ---------- ---------<br>--- ---------- ------- ---------- ------- -- -------- ----<br>---- --- ------ ----- ------ to ---- --- ----- -- - -------<br>-------- -- --- --- -- ----- ----------- ----- -----------<br>---- --- ---------- --- ---- --- -- ----------,205293.19999992847,205292.79999995232,205063.412,205070.69999992847,205080.061,205296.732,,30,to
screen,html.Screen,2_3_1_0_1_31,2022-04-27T19:58:34.812Z,,,,,,,,,,,,,,,,,51,,,,,,,,,,,,,,301.1679999761691,,response,,,,13,C,,,,,,Space,keypress(Space),,,,instrumental,,,,-------- -------- --- --- ---- --- --- ------ -- --------<br>---- --------- --- ------- ------------ ---------- ---------<br>--- ---------- ------- ---------- ------- -- -------- ----<br>---- --- ------ ----- ------ -- join --- ----- -- - -------<br>-------- -- --- --- -- ----- ----------- ----- -----------<br>---- --- ---------- --- ---- --- -- ----------,205598.5,205597.89999997616,205280.087,205293.29999995232,205296.732,205613.421,,31,join
screen,html.Screen,2_3_1_0_1_32,2022-04-27T19:58:34.995Z,,,,,,,,,,,,,,,,,51,,,,,,,,,,,,,,167.5789999999979,,response,,,,13,C,,,,,,Space,keypress(Space),,,,instrumental,,,,-------- -------- --- --- ---- --- --- ------ -- --------<br>---- --------- --- ------- ------------ ---------- ---------<br>--- ---------- ------- ---------- ------- -- -------- ----<br>---- --- ------ ----- ------ -- ---- the ----- -- - -------<br>-------- -- --- --- -- ----- ----------- ----- -----------<br>---- --- ---------- --- ---- --- -- ----------,205781.29999995232,205781,205596.851,205598.5,205613.421,205796.758,,32,the
screen,html.Screen,2_3_1_0_1_33,2022-04-27T19:58:35.213Z,,,,,,,,,,,,,,,,,51,,,,,,,,,,,,,,202.24199999999837,,response,,,,13,C,,,,,,Space,keypress(Space),,,,instrumental,,,,-------- -------- --- --- ---- --- --- ------ -- --------<br>---- --------- --- ------- ------------ ---------- ---------<br>--- ---------- ------- ---------- ------- -- -------- ----<br>---- --- ------ ----- ------ -- ---- --- House -- - -------<br>-------- -- --- --- -- ----- ----------- ----- -----------<br>---- --- ---------- --- ---- --- -- ----------,205999.39999997616,205999,205780.159,205781.39999997616,205796.758,206013.439,,33,House
screen,html.Screen,2_3_1_0_1_34,2022-04-27T19:58:35.405Z,,,,,,,,,,,,,,,,,51,,,,,,,,,,,,,,177.56099999998696,,response,,,,13,C,,,,,,Space,keypress(Space),,,,instrumental,,,,-------- -------- --- --- ---- --- --- ------ -- --------<br>---- --------- --- ------- ------------ ---------- ---------<br>--- ---------- ------- ---------- ------- -- -------- ----<br>---- --- ------ ----- ------ -- ---- --- ----- in - -------<br>-------- -- --- --- -- ----- ----------- ----- -----------<br>---- --- ---------- --- ---- --- -- ----------,206191.39999997616,206191,205996.76,205999.39999997616,206013.439,206196.773,,34,in
screen,html.Screen,2_3_1_0_1_35,2022-04-27T19:58:35.605Z,,,,,,,,,,,,,,,,,51,,,,,,,,,,,,,,194.12699997617165,,response,,,,13,C,,,,,,Space,keypress(Space),,,,instrumental,,,,-------- -------- --- --- ---- --- --- ------ -- --------<br>---- --------- --- ------- ------------ ---------- ---------<br>--- ---------- ------- ---------- ------- -- -------- ----<br>---- --- ------ ----- ------ -- ---- --- ----- -- a -------<br>-------- -- --- --- -- ----- ----------- ----- -----------<br>---- --- ---------- --- ---- --- -- ----------,206391.39999997616,206390.89999997616,206180.112,206191.5,206196.773,206396.78,,35,a
screen,html.Screen,2_3_1_0_1_36,2022-04-27T19:58:35.901Z,,,,,,,,,,,,,,,,,51,,,,,,,,,,,,,,290.1199999761593,,response,,,,13,C,,,,,,Space,keypress(Space),,,,instrumental,,,,-------- -------- --- --- ---- --- --- ------ -- --------<br>---- --------- --- ------- ------------ ---------- ---------<br>--- ---------- ------- ---------- ------- -- -------- ----<br>---- --- ------ ----- ------ -- ---- --- ----- -- - massive<br>-------- -- --- --- -- ----- ----------- ----- -----------<br>---- --- ---------- --- ---- --- -- ----------,206687.29999995232,206686.89999997616,206380.264,206391.39999997616,206396.78,206696.769,,36,massive
screen,html.Screen,2_3_1_0_1_37,2022-04-27T19:58:36.297Z,,,,,,,,,,,,,,,,,51,,,,,,,,,,,,,,386.23099999999977,,response,,,,13,C,,,,,,Space,keypress(Space),,,,instrumental,,,,-------- -------- --- --- ---- --- --- ------ -- --------<br>---- --------- --- ------- ------------ ---------- ---------<br>--- ---------- ------- ---------- ------- -- -------- ----<br>---- --- ------ ----- ------ -- ---- --- ----- -- - -------<br>overhaul -- --- --- -- ----- ----------- ----- -----------<br>---- --- ---------- --- ---- --- -- ----------,207083.39999997616,207083,206680.138,206687.39999997616,206696.769,207096.784,,37,overhaul
screen,html.Screen,2_3_1_0_1_38,2022-04-27T19:58:36.493Z,,,,,,,,,,,,,,,,,51,,,,,,,,,,,,,,182.2159999999858,,response,,,,13,C,,,,,,Space,keypress(Space),,,,instrumental,,,,-------- -------- --- --- ---- --- --- ------ -- --------<br>---- --------- --- ------- ------------ ---------- ---------<br>--- ---------- ------- ---------- ------- -- -------- ----<br>---- --- ------ ----- ------ -- ---- --- ----- -- - -------<br>-------- of --- --- -- ----- ----------- ----- -----------<br>---- --- ---------- --- ---- --- -- ----------,207279.29999995232,207279,207080.182,207083.39999997616,207096.784,207309.812,,38,of
