sender,sender_type,sender_id,timestamp,meta,,Blues,Classical,Country,Dance,Electronic,Folk,Gospel,Hip-Hop,Jazz,Latin,Musical/Film,New-age,Pop,Prolific_id,Provo_ID,R&B,Rap,Reggae,Religious,Rock,Soul,Swing,Traditional,age,artist_name,correct,correctResponse,distraction,duration,education,ended_on,familiarity,gender,headphone_check_performance,item,list,music_frequency,offensiveness,pleasantness,position_correct,preference,response,response_action,snippet_file,song_name,song_rating,sound,stimulus_1,stimulus_2,stimulus_3,text,time_commit,time_end,time_render,time_run,time_show,time_switch,url,word,word_ID
Prolific ID,html.Form,0,2022-04-30T10:54:06.152Z,"{""labjs_version"":""20.2.2"",""labjs_build"":{""flavor"":""production"",""commit"":""a25486e0c714a0ae2ce03ff94b7bb6896854dcfa""},""location"":""https://run.pavlovia.org/mvasilev/prolific3_music_e/"",""userAgent"":""Mozilla/5.0 (Macintosh; Intel Mac OS X 10_15_7) AppleWebKit/537.36 (KHTML, like Gecko) Chrome/100.0.4896.127 Safari/537.36"",""platform"":""MacIntel"",""language"":""en-GB"",""locale"":""en-GB"",""timeZone"":""Europe/London"",""timezoneOffset"":-60,""screen_width"":1440,""screen_height"":900,""scroll_width"":1440,""scroll_height"":741,""window_innerWidth"":1440,""window_innerHeight"":789,""devicePixelRatio"":2}",,,,,,,,,,,,,,,5bdc1b7fee652a0001efd045,,,,,,,,,,,,,,,2980.501999999814,,form submission,,,,,,,,,,,,,,,,,,,,,9272.099999999627,9271.299999999814,6257.466,6273,6290.798,9272.114,{},,
Introduction,html.Screen,1_0,2022-04-30T10:54:11.425Z,,,,,,,,,,,,,,,,,,,,,,,,,,,,,,,5269.485999999628,,response,,,,,,,,,,,continue,click button,,,,,,,,,14545.69999999972,14541.599999999627,9255.448,9272.599999999627,9272.114,14555.236,,,
Volume calibration,html.Screen,1_1,2022-04-30T10:54:37.141Z,,,,,,,,,,,,,,,,,,,,,,,,,,,,,,,25700.363999999627,,response,,,,,,,,,,,continue,click button,,,,,,,,,40262.09999999963,40255.59999999963,14538.57,14545.899999999907,14555.236,40261.512,,,
Task instructions,html.Screen,1_2,2022-04-30T10:54:46.567Z,,,,,,,,,,,,,,,,,,,,,,,,,,,,,,,9424.087999999625,,response,,,,,,,,,,,continue,click button,,,,,,,,,49688.19999999972,49685.59999999963,40244.846,40262.19999999972,40261.512,49699.855,,,
Sounds,html.Screen,1_3_0_0,2022-04-30T10:54:50.812Z,,,,,,,,,,,,,,,,,,,,,,,,,,,,,,,4244.996999999996,,timeout,,,,,,,,,3,,,,,,,,I,O,S,,53933.09999999963,53928.186,49683.189,49688.39999999991,49699.855,53944.852,,,
Judgement,html.Screen,1_3_0_1,2022-04-30T10:54:51.947Z,,,,,,,,,,,,,,,,,,,,,,,,,,,,true,3,,1120.2479999996285,,response,,,,,,,,,3,,3,click #choice-3,,,,,I,O,S,,55068,55065.09999999963,53928.186,53933.39999999991,53944.852,55078.14,,,
Trial,flow.Sequence,1_3_0,2022-04-30T10:54:51.948Z,,,,,,,,,,,,,,,,,,,,,,,,,,,,,,,5365.244999999624,,completion,,,,,,,,,3,,,,,,,,I,O,S,,55068.5,55065.09999999963,49683.189,49688.39999999991,49699.855,55078.14,,,
Sounds,html.Screen,1_3_1_0,2022-04-30T10:54:56.192Z,,,,,,,,,,,,,,,,,,,,,,,,,,,,,,,4249.830000000002,,timeout,,,,,,,,,2,,,,,,,,I,S,O,,59313.299999999814,59311.304,55061.474,55068.89999999991,55078.14,59327.97,,,
Judgement,html.Screen,1_3_1_1,2022-04-30T10:54:56.776Z,,,,,,,,,,,,,,,,,,,,,,,,,,,,true,2,,565.3299999998126,,response,,,,,,,,,2,,2,click #choice-2,,,,,I,S,O,,59896.5,59893.299999999814,59311.304,59313.39999999991,59327.97,59911.28,,,
Trial,flow.Sequence,1_3_1,2022-04-30T10:54:56.776Z,,,,,,,,,,,,,,,,,,,,,,,,,,,,,,,4815.159999999814,,completion,,,,,,,,,2,,,,,,,,I,S,O,,59897,59893.299999999814,55061.474,55068.69999999972,55078.14,59911.28,,,
Sounds,html.Screen,1_3_2_0,2022-04-30T10:55:01.025Z,,,,,,,,,,,,,,,,,,,,,,,,,,,,,,,4249.830000000002,,timeout,,,,,,,,,1,,,,,,,,S,I,O,,64145.89999999991,64144.444,59894.614,59897.299999999814,59911.28,64161.11,,,
Judgement,html.Screen,1_3_2_1,2022-04-30T10:55:01.612Z,,,,,,,,,,,,,,,,,,,,,,,,,,,,true,1,,569.9899999996269,,response,,,,,,,,,1,,1,click #choice-1,,,,,S,I,O,,64732.69999999972,64731.09999999963,64144.444,64146,64161.11,64737.891,,,
Trial,flow.Sequence,1_3_2,2022-04-30T10:55:01.612Z,,,,,,,,,,,,,,,,,,,,,,,,,,,,,,,4819.819999999629,,completion,,,,,,,,,1,,,,,,,,S,I,O,,64732.799999999814,64731.09999999963,59894.614,59897.19999999972,59911.28,64737.891,,,
Sounds,html.Screen,1_3_3_0,2022-04-30T10:55:05.852Z,,,,,,,,,,,,,,,,,,,,,,,,,,,,,,,4249.830000000002,,timeout,,,,,,,,,1,,,,,,,,S,O,I,,68972.79999999981,68971.055,64721.225,64733,64737.891,68987.721,,,
Judgement,html.Screen,1_3_3_1,2022-04-30T10:55:06.322Z,,,,,,,,,,,,,,,,,,,,,,,,,,,,true,1,,453.4789999997156,,response,,,,,,,,,1,,1,click #choice-1,,,,,S,O,I,,69443.19999999972,69441.19999999972,68971.055,68972.8999999999,68987.721,69454.369,,,
Trial,flow.Sequence,1_3_3,2022-04-30T10:55:06.322Z,,,,,,,,,,,,,,,,,,,,,,,,,,,,,,,4703.308999999717,,completion,,,,,,,,,1,,,,,,,,S,O,I,,69443.3999999999,69441.19999999972,64721.225,64732.89999999991,64737.891,69454.369,,,
Sounds,html.Screen,1_3_4_0,2022-04-30T10:55:10.568Z,,,,,,,,,,,,,,,,,,,,,,,,,,,,,,,4249.829999999987,,timeout,,,,,,,,,3,,,,,,,,O,I,S,,73689.29999999981,73687.533,69437.703,69443.5,69454.369,73704.199,,,
Judgement,html.Screen,1_3_4_1,2022-04-30T10:55:11.177Z,,,,,,,,,,,,,,,,,,,,,,,,,,,,true,3,,592.4009999996342,,response,,,,,,,,,3,,3,click #choice-3,,,,,O,I,S,,74298.19999999972,74296.59999999963,73687.533,73689.29999999981,73704.199,74304.175,,,
Trial,flow.Sequence,1_3_4,2022-04-30T10:55:11.177Z,,,,,,,,,,,,,,,,,,,,,,,,,,,,,,,4842.230999999621,,completion,,,,,,,,,3,,,,,,,,O,I,S,,74298.29999999981,74296.59999999963,69437.703,69443.5,69454.369,74304.175,,,
Sounds,html.Screen,1_3_5_0,2022-04-30T10:55:15.417Z,,,,,,,,,,,,,,,,,,,,,,,,,,,,,,,4249.830000000002,,timeout,,,,,,,,,2,,,,,,,,O,S,I,,78538.19999999972,78537.339,74287.509,74298.5,74304.175,78554.005,,,
Judgement,html.Screen,1_3_5_1,2022-04-30T10:55:15.836Z,,,,,,,,,,,,,,,,,,,,,,,,,,,,true,2,,401.2949999998091,,response,,,,,,,,,2,,2,click #choice-2,,,,,O,S,I,,78957.3999999999,78955.29999999981,78537.339,78538.5,78554.005,78966.926,,,
Trial,flow.Sequence,1_3_5,2022-04-30T10:55:15.837Z,,,,,,,,,,,,,,,,,,,,,,,,,,,,,,,4651.124999999811,,completion,,,,,,,,,2,,,,,,,,O,S,I,,78957.59999999963,78955.29999999981,74287.509,74298.3999999999,74304.175,78966.926,,,
Task,flow.Loop,1_3,2022-04-30T10:55:15.843Z,,,,,,,,,,,,,,,,,,,,,,,,,,,,,,,29255.44499999981,,completion,,,1,,,,,,,,,,,,,,,,,,78963.59999999963,78955.29999999981,49683.189,49688.299999999814,49699.855,78966.926,,,
Trap,html.Screen,1_4,2022-04-30T10:55:15.843Z,,,,,,,,,,,,,,,,,,,,,,,,,,,,,,,NaN,,skipped,,,,,,,,,,,,,,,,,,,,,78964.5,78955.29999999981,,78964.3999999999,,78966.926,,,
Thanks,html.Screen,1_5,2022-04-30T10:55:18.925Z,,,,,,,,,,,,,,,,,,,,,,,,,,,,,,,3076.873999999807,,response,,,,,,,,,,,continue,click button,,,,,,,,,82045.8999999999,82043.79999999981,78950.26,78964.59999999963,78966.926,84716.696,,,
Headphone screening,flow.Sequence,1,2022-04-30T10:55:18.925Z,,,,,,,,,,,,,,,,,,,,,,,,,,,,,,,72771.68599999981,,completion,,,,,,,,,,,,,,,,,,,,,82046.19999999972,82043.79999999981,9255.448,9272.5,9272.114,84716.696,,,
Instructions,html.Page,2_0,2022-04-30T10:55:32.196Z,,,,,,,,,,,,,,,,,,,,,,,,,,,,,,,10599.804000000004,,form submission,,,,,,,,,,,,,,,,,,,,,95316.8999999999,95316.5,84700.03,84707.09999999963,84716.696,95313.957,,,
Holding screen,html.Screen,2_1_0_0,2022-04-30T10:55:42.173Z,,,,,,,,,,,,,,,,,,,,,,,,,,,,,,,10011.717000000004,,timeout,,,,,,,,,,,,,,,,,,,,,105294,105292.342,95297.291,95317.19999999972,95313.957,105325.674,,,
screen,html.Screen,2_1_0_1_0,2022-04-30T10:55:42.977Z,,,,,,,,,,,,,,,,,53,,,,,,,,,,,,,,765.5259999997215,,response,,,,99,,,,,,,Space,keypress(Space),,,,,,,,When -- ----- -- ------ - ------- --- ----------<br>------------- ------ ------ ---- ---- ------- ----- -- ----<br>-------- ------- -- ---------- --- - --- ----- ----- ----<br>---- --- --- ----- --- ---- ---- ------- ----- ---- -------<br>--- --- -- ----- -- --- ---- -- --- ---- -- ------ ------<br>--- ----- -- ----,106098.3999999999,106091.19999999972,105292.342,105294.19999999972,105325.674,106108.976,,0,When
screen,html.Screen,2_1_0_1_1,2022-04-30T10:55:43.308Z,,,,,,,,,,,,,,,,,53,,,,,,,,,,,,,,315.7239999997255,,response,,,,99,,,,,,,Space,keypress(Space),,,,,,,,---- it ----- -- ------ - ------- --- ----------<br>------------- ------ ------ ---- ---- ------- ----- -- ----<br>-------- ------- -- ---------- --- - --- ----- ----- ----<br>---- --- --- ----- --- ---- ---- ------- ----- ---- -------<br>--- --- -- ----- -- --- ---- -- --- ---- -- ------ ------<br>--- ----- -- ----,106429.29999999981,106424.69999999972,106092.31,106098.69999999972,106108.976,106445.815,,1,it
screen,html.Screen,2_1_0_1_2,2022-04-30T10:55:43.772Z,,,,,,,,,,,,,,,,,53,,,,,,,,,,,,,,442.9849999998114,,response,,,,99,,,,,,,Space,keypress(Space),,,,,,,,---- -- comes -- ------ - ------- --- ----------<br>------------- ------ ------ ---- ---- ------- ----- -- ----<br>-------- ------- -- ---------- --- - --- ----- ----- ----<br>---- --- --- ----- --- ---- ---- ------- ----- ---- -------<br>--- --- -- ----- -- --- ---- -- --- ---- -- ------ ------<br>--- ----- -- ----,106893.29999999981,106888.79999999981,106429.149,106429.5,106445.815,106895.797,,2,comes
screen,html.Screen,2_1_0_1_3,2022-04-30T10:55:44.103Z,,,,,,,,,,,,,,,,,53,,,,,,,,,,,,,,323.10299999990093,,response,,,,99,,,,,,,Space,keypress(Space),,,,,,,,---- -- ----- to ------ - ------- --- ----------<br>------------- ------ ------ ---- ---- ------- ----- -- ----<br>-------- ------- -- ---------- --- - --- ----- ----- ----<br>---- --- --- ----- --- ---- ---- ------- ----- ---- -------<br>--- --- -- ----- -- --- ---- -- --- ---- -- ------ ------<br>--- ----- -- ----,107224,107218.8999999999,106879.131,106893.59999999963,106895.797,107229.117,,3,to
screen,html.Screen,2_1_0_1_4,2022-04-30T10:55:44.443Z,,,,,,,,,,,,,,,,,53,,,,,,,,,,,,,,330.7829999999085,,response,,,,99,,,,,,,Space,keypress(Space),,,,,,,,---- -- ----- -- having - ------- --- ----------<br>------------- ------ ------ ---- ---- ------- ----- -- ----<br>-------- ------- -- ---------- --- - --- ----- ----- ----<br>---- --- --- ----- --- ---- ---- ------- ----- ---- -------<br>--- --- -- ----- -- --- ---- -- --- ---- -- ------ ------<br>--- ----- -- ----,107564.5,107559.8999999999,107212.451,107224.09999999963,107229.117,107579.103,,4,having
screen,html.Screen,2_1_0_1_5,2022-04-30T10:55:44.869Z,,,,,,,,,,,,,,,,,53,,,,,,,,,,,,,,406.69699999981094,,response,,,,99,,,,,,,Space,keypress(Space),,,,,,,,---- -- ----- -- ------ a ------- --- ----------<br>------------- ------ ------ ---- ---- ------- ----- -- ----<br>-------- ------- -- ---------- --- - --- ----- ----- ----<br>---- --- --- ----- --- ---- ---- ------- ----- ---- -------<br>--- --- -- ----- -- --- ---- -- --- ---- -- ------ ------<br>--- ----- -- ----,107990.09999999963,107985.79999999981,107562.437,107564.69999999972,107579.103,107995.753,,5,a
screen,html.Screen,2_1_0_1_6,2022-04-30T10:55:45.239Z,,,,,,,,,,,,,,,,,53,,,,,,,,,,,,,,359.94699999972363,,response,,,,99,,,,,,,Space,keypress(Space),,,,,,,,---- -- ----- -- ------ - lasting --- ----------<br>------------- ------ ------ ---- ---- ------- ----- -- ----<br>-------- ------- -- ---------- --- - --- ----- ----- ----<br>---- --- --- ----- --- ---- ---- ------- ----- ---- -------<br>--- --- -- ----- -- --- ---- -- --- ---- -- ------ ------<br>--- ----- -- ----,108360.09999999963,108355.69999999972,107979.087,107990.29999999981,107995.753,108362.405,,6,lasting
screen,html.Screen,2_1_0_1_7,2022-04-30T10:55:45.692Z,,,,,,,,,,,,,,,,,53,,,,,,,,,,,,,,446.59500000000116,,response,,,,99,,,,,,,Space,keypress(Space),,,,,,,,---- -- ----- -- ------ - ------- and ----------<br>------------- ------ ------ ---- ---- ------- ----- -- ----<br>-------- ------- -- ---------- --- - --- ----- ----- ----<br>---- --- --- ----- --- ---- ---- ------- ----- ---- -------<br>--- --- -- ----- -- --- ---- -- --- ---- -- ------ ------<br>--- ----- -- ----,108813.5,108809,108345.739,108360.29999999981,108362.405,108829.053,,7,and
screen,html.Screen,2_1_0_1_8,2022-04-30T10:55:45.982Z,,,,,,,,,,,,,,,,,53,,,,,,,,,,,,,,269.5469999996276,,response,,,,99,,,,,,,Space,keypress(Space),,,,,,,,---- -- ----- -- ------ - ------- --- fulfilling<br>------------- ------ ------ ---- ---- ------- ----- -- ----<br>-------- ------- -- ---------- --- - --- ----- ----- ----<br>---- --- --- ----- --- ---- ---- ------- ----- ---- -------<br>--- --- -- ----- -- --- ---- -- --- ---- -- ------ ------<br>--- ----- -- ----,109103.19999999972,109098.59999999963,108812.387,108813.69999999972,108829.053,109112.375,,8,fulfilling
screen,html.Screen,2_1_0_1_9,2022-04-30T10:55:46.425Z,,,,,,,,,,,,,,,,,53,,,,,,,,,,,,,,429.42499999981374,,response,,,,99,,,,,,,Space,keypress(Space),,,,,,,,"---- -- ----- -- ------ - ------- --- ----------<br>relationship, ------ ------ ---- ---- ------- ----- -- ----<br>-------- ------- -- ---------- --- - --- ----- ----- ----<br>---- --- --- ----- --- ---- ---- ------- ----- ---- -------<br>--- --- -- ----- -- --- ---- -- --- ---- -- ------ ------<br>--- ----- -- ----",109546.29999999981,109541.79999999981,109095.709,109103.5,109112.375,109562.357,,9,"relationship,"
screen,html.Screen,2_1_0_1_10,2022-04-30T10:55:47.391Z,,,,,,,,,,,,,,,,,53,,,,,,,,,,,,,,945.2429999996239,,response,,,,99,,,,,,,Space,keypress(Space),,,,,,,,---- -- ----- -- ------ - ------- --- ----------<br>------------- common ------ ---- ---- ------- ----- -- ----<br>-------- ------- -- ---------- --- - --- ----- ----- ----<br>---- --- --- ----- --- ---- ---- ------- ----- ---- -------<br>--- --- -- ----- -- --- ---- -- --- ---- -- ------ ------<br>--- ----- -- ----,110512.5,110507.59999999963,109545.691,109546.5,109562.357,110528.985,,10,common
screen,html.Screen,2_1_0_1_11,2022-04-30T10:55:47.736Z,,,,,,,,,,,,,,,,,53,,,,,,,,,,,,,,323.71499999972,,response,,,,99,,,,,,,Space,keypress(Space),,,,,,,,---- -- ----- -- ------ - ------- --- ----------<br>------------- ------ wisdom ---- ---- ------- ----- -- ----<br>-------- ------- -- ---------- --- - --- ----- ----- ----<br>---- --- --- ----- --- ---- ---- ------- ----- ---- -------<br>--- --- -- ----- -- --- ---- -- --- ---- -- ------ ------<br>--- ----- -- ----,110857.19999999972,110852.69999999972,110512.319,110512.59999999963,110528.985,110862.305,,11,wisdom
screen,html.Screen,2_1_0_1_12,2022-04-30T10:55:48.197Z,,,,,,,,,,,,,,,,,53,,,,,,,,,,,,,,451.29499999963446,,response,,,,99,,,,,,,Space,keypress(Space),,,,,,,,---- -- ----- -- ------ - ------- --- ----------<br>------------- ------ ------ says ---- ------- ----- -- ----<br>-------- ------- -- ---------- --- - --- ----- ----- ----<br>---- --- --- ----- --- ---- ---- ------- ----- ---- -------<br>--- --- -- ----- -- --- ---- -- --- ---- -- ------ ------<br>--- ----- -- ----,111318.29999999981,111313.59999999963,110845.639,110857.3999999999,110862.305,111328.953,,12,says
screen,html.Screen,2_1_0_1_13,2022-04-30T10:55:48.558Z,,,,,,,,,,,,,,,,,53,,,,,,,,,,,,,,345.6469999996334,,response,,,,99,,,,,,,Space,keypress(Space),,,,,,,,---- -- ----- -- ------ - ------- --- ----------<br>------------- ------ ------ ---- that ------- ----- -- ----<br>-------- ------- -- ---------- --- - --- ----- ----- ----<br>---- --- --- ----- --- ---- ---- ------- ----- ---- -------<br>--- --- -- ----- -- --- ---- -- --- ---- -- ------ ------<br>--- ----- -- ----,111679.29999999981,111674.59999999963,111312.287,111318.3999999999,111328.953,111695.605,,13,that
screen,html.Screen,2_1_0_1_14,2022-04-30T10:55:48.931Z,,,,,,,,,,,,,,,,,53,,,,,,,,,,,,,,351.99499999963155,,response,,,,99,,,,,,,Space,keypress(Space),,,,,,,,---- -- ----- -- ------ - ------- --- ----------<br>------------- ------ ------ ---- ---- feeling ----- -- ----<br>-------- ------- -- ---------- --- - --- ----- ----- ----<br>---- --- --- ----- --- ---- ---- ------- ----- ---- -------<br>--- --- -- ----- -- --- ---- -- --- ---- -- ------ ------<br>--- ----- -- ----,112052,112047.59999999963,111678.939,111679.3999999999,111695.605,112062.257,,14,feeling
screen,html.Screen,2_1_0_1_15,2022-04-30T10:55:49.444Z,,,,,,,,,,,,,,,,,53,,,,,,,,,,,,,,498.3429999996297,,response,,,,99,,,,,,,Space,keypress(Space),,,,,,,,---- -- ----- -- ------ - ------- --- ----------<br>------------- ------ ------ ---- ---- ------- close -- ----<br>-------- ------- -- ---------- --- - --- ----- ----- ----<br>---- --- --- ----- --- ---- ---- ------- ----- ---- -------<br>--- --- -- ----- -- --- ---- -- --- ---- -- ------ ------<br>--- ----- -- ----,112565,112560.59999999963,112045.591,112052.19999999972,112062.257,112578.903,,15,close
screen,html.Screen,2_1_0_1_16,2022-04-30T10:55:49.773Z,,,,,,,,,,,,,,,,,53,,,,,,,,,,,,,,310.69699999962177,,response,,,,99,,,,,,,Space,keypress(Space),,,,,,,,---- -- ----- -- ------ - ------- --- ----------<br>------------- ------ ------ ---- ---- ------- ----- to ----<br>-------- ------- -- ---------- --- - --- ----- ----- ----<br>---- --- --- ----- --- ---- ---- ------- ----- ---- -------<br>--- --- -- ----- -- --- ---- -- --- ---- -- ------ ------<br>--- ----- -- ----,112894.29999999981,112889.59999999963,112562.237,112565,112578.903,112895.557,,16,to
screen,html.Screen,2_1_0_1_17,2022-04-30T10:55:50.164Z,,,,,,,,,,,,,,,,,53,,,,,,,,,,,,,,385.0429999996268,,response,,,,99,,,,,,,Space,keypress(Space),,,,,,,,---- -- ----- -- ------ - ------- --- ----------<br>------------- ------ ------ ---- ---- ------- ----- -- your<br>-------- ------- -- ---------- --- - --- ----- ----- ----<br>---- --- --- ----- --- ---- ---- ------- ----- ---- -------<br>--- --- -- ----- -- --- ---- -- --- ---- -- ------ ------<br>--- ----- -- ----,113285,113280.59999999963,112878.891,112894.5,112895.557,113295.541,,17,your
screen,html.Screen,2_1_0_1_18,2022-04-30T10:55:50.501Z,,,,,,,,,,,,,,,,,53,,,,,,,,,,,,,,322.15899999972316,,response,,,,99,,,,,,,Space,keypress(Space),,,,,,,,---- -- ----- -- ------ - ------- --- ----------<br>------------- ------ ------ ---- ---- ------- ----- -- ----<br>romantic ------- -- ---------- --- - --- ----- ----- ----<br>---- --- --- ----- --- ---- ---- ------- ----- ---- -------<br>--- --- -- ----- -- --- ---- -- --- ---- -- ------ ------<br>--- ----- -- ----,113622.19999999972,113617.69999999972,113278.875,113285.09999999963,113295.541,113628.861,,18,romantic
screen,html.Screen,2_1_0_1_19,2022-04-30T10:55:50.883Z,,,,,,,,,,,,,,,,,53,,,,,,,,,,,,,,370.73899999962305,,response,,,,99,,,,,,,Space,keypress(Space),,,,,,,,---- -- ----- -- ------ - ------- --- ----------<br>------------- ------ ------ ---- ---- ------- ----- -- ----<br>-------- partner -- ---------- --- - --- ----- ----- ----<br>---- --- --- ----- --- ---- ---- ------- ----- ---- -------<br>--- --- -- ----- -- --- ---- -- --- ---- -- ------ ------<br>--- ----- -- ----,114004.19999999972,113999.59999999963,113612.195,113622.29999999981,113628.861,114012.179,,19,partner
screen,html.Screen,2_1_0_1_20,2022-04-30T10:55:51.262Z,,,,,,,,,,,,,,,,,53,,,,,,,,,,,,,,366.62099999981,,response,,,,99,,,,,,,Space,keypress(Space),,,,,,,,---- -- ----- -- ------ - ------- --- ----------<br>------------- ------ ------ ---- ---- ------- ----- -- ----<br>-------- ------- is ---------- --- - --- ----- ----- ----<br>---- --- --- ----- --- ---- ---- ------- ----- ---- -------<br>--- --- -- ----- -- --- ---- -- --- ---- -- ------ ------<br>--- ----- -- ----,114383.09999999963,114378.79999999981,113995.513,114004.3999999999,114012.179,114395.497,,20,is
screen,html.Screen,2_1_0_1_21,2022-04-30T10:55:51.637Z,,,,,,,,,,,,,,,,,53,,,,,,,,,,,,,,358.002999999997,,response,,,,99,,,,,,,Space,keypress(Space),,,,,,,,---- -- ----- -- ------ - ------- --- ----------<br>------------- ------ ------ ---- ---- ------- ----- -- ----<br>-------- ------- -- paramount. --- - --- ----- ----- ----<br>---- --- --- ----- --- ---- ---- ------- ----- ---- -------<br>--- --- -- ----- -- --- ---- -- --- ---- -- ------ ------<br>--- ----- -- ----,114758,114753.5,114378.831,114383.3999999999,114395.497,114762.149,,21,paramount.
screen,html.Screen,2_1_0_1_22,2022-04-30T10:55:51.978Z,,,,,,,,,,,,,,,,,53,,,,,,,,,,,,,,332.4509999996226,,response,,,,99,,,,,,,Space,keypress(Space),,,,,,,,---- -- ----- -- ------ - ------- --- ----------<br>------------- ------ ------ ---- ---- ------- ----- -- ----<br>-------- ------- -- ---------- But - --- ----- ----- ----<br>---- --- --- ----- --- ---- ---- ------- ----- ---- -------<br>--- --- -- ----- -- --- ---- -- --- ---- -- ------ ------<br>--- ----- -- ----,115099.3999999999,115094.59999999963,114745.483,114758.09999999963,114762.149,115112.135,,22,But
screen,html.Screen,2_1_0_1_23,2022-04-30T10:55:52.417Z,,,,,,,,,,,,,,,,,53,,,,,,,,,,,,,,421.56499999972584,,response,,,,99,,,,,,,Space,keypress(Space),,,,,,,,---- -- ----- -- ------ - ------- --- ----------<br>------------- ------ ------ ---- ---- ------- ----- -- ----<br>-------- ------- -- ---------- --- a --- ----- ----- ----<br>---- --- --- ----- --- ---- ---- ------- ----- ---- -------<br>--- --- -- ----- -- --- ---- -- --- ---- -- ------ ------<br>--- ----- -- ----,115538.09999999963,115533.69999999972,115095.469,115099.69999999972,115112.135,115545.451,,23,a
screen,html.Screen,2_1_0_1_24,2022-04-30T10:55:52.788Z,,,,,,,,,,,,,,,,,53,,,,,,,,,,,,,,359.14899999962654,,response,,,,99,,,,,,,Space,keypress(Space),,,,,,,,---- -- ----- -- ------ - ------- --- ----------<br>------------- ------ ------ ---- ---- ------- ----- -- ----<br>-------- ------- -- ---------- --- - new ----- ----- ----<br>---- --- --- ----- --- ---- ---- ------- ----- ---- -------<br>--- --- -- ----- -- --- ---- -- --- ---- -- ------ ------<br>--- ----- -- ----,115909,115904.59999999963,115528.785,115538.29999999981,115545.451,115912.103,,24,new
screen,html.Screen,2_1_0_1_25,2022-04-30T10:55:53.341Z,,,,,,,,,,,,,,,,,53,,,,,,,,,,,,,,545.3969999999972,,response,,,,99,,,,,,,Space,keypress(Space),,,,,,,,---- -- ----- -- ------ - ------- --- ----------<br>------------- ------ ------ ---- ---- ------- ----- -- ----<br>-------- ------- -- ---------- --- - --- study ----- ----<br>---- --- --- ----- --- ---- ---- ------- ----- ---- -------<br>--- --- -- ----- -- --- ---- -- --- ---- -- ------ ------<br>--- ----- -- ----,116462.5,116457.5,115895.437,115909.09999999963,115912.103,116467.069,,25,study
screen,html.Screen,2_1_0_1_26,2022-04-30T10:55:53.655Z,,,,,,,,,,,,,,,,,53,,,,,,,,,,,,,,304.43099999999686,,response,,,,99,,,,,,,Space,keypress(Space),,,,,,,,---- -- ----- -- ------ - ------- --- ----------<br>------------- ------ ------ ---- ---- ------- ----- -- ----<br>-------- ------- -- ---------- --- - --- ----- finds ----<br>---- --- --- ----- --- ---- ---- ------- ----- ---- -------<br>--- --- -- ----- -- --- ---- -- --- ---- -- ------ ------<br>--- ----- -- ----,116776,116771.5,116450.403,116462.59999999963,116467.069,116783.723,,26,finds
screen,html.Screen,2_1_0_1_27,2022-04-30T10:55:53.962Z,,,,,,,,,,,,,,,,,53,,,,,,,,,,,,,,295.17699999990873,,response,,,,99,,,,,,,Space,keypress(Space),,,,,,,,---- -- ----- -- ------ - ------- --- ----------<br>------------- ------ ------ ---- ---- ------- ----- -- ----<br>-------- ------- -- ---------- --- - --- ----- ----- that<br>---- --- --- ----- --- ---- ---- ------- ----- ---- -------<br>--- --- -- ----- -- --- ---- -- --- ---- -- ------ ------<br>--- ----- -- ----,117083.79999999981,117078.8999999999,116767.057,116776.09999999963,116783.723,117100.377,,27,that
screen,html.Screen,2_1_0_1_28,2022-04-30T10:55:54.297Z,,,,,,,,,,,,,,,,,53,,,,,,,,,,,,,,313.02299999991374,,response,,,,99,,,,,,,Space,keypress(Space),,,,,,,,---- -- ----- -- ------ - ------- --- ----------<br>------------- ------ ------ ---- ---- ------- ----- -- ----<br>-------- ------- -- ---------- --- - --- ----- ----- ----<br>it's --- --- ----- --- ---- ---- ------- ----- ---- -------<br>--- --- -- ----- -- --- ---- -- --- ---- -- ------ ------<br>--- ----- -- ----,117418.09999999963,117413.3999999999,117083.711,117083.8999999999,117100.377,117433.697,,28,it's
screen,html.Screen,2_1_0_1_29,2022-04-30T10:55:54.699Z,,,,,,,,,,,,,,,,,53,,,,,,,,,,,,,,382.8029999999999,,response,,,,99,,,,,,,Space,keypress(Space),,,,,,,,---- -- ----- -- ------ - ------- --- ----------<br>------------- ------ ------ ---- ---- ------- ----- -- ----<br>-------- ------- -- ---------- --- - --- ----- ----- ----<br>---- not --- ----- --- ---- ---- ------- ----- ---- -------<br>--- --- -- ----- -- --- ---- -- --- ---- -- ------ ------<br>--- ----- -- ----,117820.59999999963,117816.5,117417.031,117418.19999999972,117433.697,117833.681,,29,not
screen,html.Screen,2_1_0_1_30,2022-04-30T10:55:55.002Z,,,,,,,,,,,,,,,,,53,,,,,,,,,,,,,,284.81900000000314,,response,,,,99,,,,,,,Space,keypress(Space),,,,,,,,---- -- ----- -- ------ - ------- --- ----------<br>------------- ------ ------ ---- ---- ------- ----- -- ----<br>-------- ------- -- ---------- --- - --- ----- ----- ----<br>---- --- how ----- --- ---- ---- ------- ----- ---- -------<br>--- --- -- ----- -- --- ---- -- --- ---- -- ------ ------<br>--- ----- -- ----,118122.8999999999,118118.5,117817.015,117820.79999999981,117833.681,118133.669,,30,how
screen,html.Screen,2_1_0_1_31,2022-04-30T10:55:55.297Z,,,,,,,,,,,,,,,,,53,,,,,,,,,,,,,,279.8310000000056,,response,,,,99,,,,,,,Space,keypress(Space),,,,,,,,---- -- ----- -- ------ - ------- --- ----------<br>------------- ------ ------ ---- ---- ------- ----- -- ----<br>-------- ------- -- ---------- --- - --- ----- ----- ----<br>---- --- --- close --- ---- ---- ------- ----- ---- -------<br>--- --- -- ----- -- --- ---- -- --- ---- -- ------ ------<br>--- ----- -- ----,118417.8999999999,118413.5,118117.003,118123.09999999963,118133.669,118433.657,,31,close
screen,html.Screen,2_1_0_1_32,2022-04-30T10:55:55.612Z,,,,,,,,,,,,,,,,,53,,,,,,,,,,,,,,294.8429999999935,,response,,,,99,,,,,,,Space,keypress(Space),,,,,,,,---- -- ----- -- ------ - ------- --- ----------<br>------------- ------ ------ ---- ---- ------- ----- -- ----<br>-------- ------- -- ---------- --- - --- ----- ----- ----<br>---- --- --- ----- you ---- ---- ------- ----- ---- -------<br>--- --- -- ----- -- --- ---- -- --- ---- -- ------ ------<br>--- ----- -- ----,118733.19999999972,118728.5,118416.991,118418,118433.657,118750.311,,32,you
screen,html.Screen,2_1_0_1_33,2022-04-30T10:55:55.918Z,,,,,,,,,,,,,,,,,53,,,,,,,,,,,,,,285.08899999990535,,response,,,,99,,,,,,,Space,keypress(Space),,,,,,,,---- -- ----- -- ------ - ------- --- ----------<br>------------- ------ ------ ---- ---- ------- ----- -- ----<br>-------- ------- -- ---------- --- - --- ----- ----- ----<br>---- --- --- ----- --- feel ---- ------- ----- ---- -------<br>--- --- -- ----- -- --- ---- -- --- ---- -- ------ ------<br>--- ----- -- ----,119039.59999999963,119035.3999999999,118733.645,118733.29999999981,118750.311,119050.299,,33,feel
screen,html.Screen,2_1_0_1_34,2022-04-30T10:55:56.473Z,,,,,,,,,,,,,,,,,53,,,,,,,,,,,,,,539.0009999998147,,response,,,,99,,,,,,,Space,keypress(Space),,,,,,,,---- -- ----- -- ------ - ------- --- ----------<br>------------- ------ ------ ---- ---- ------- ----- -- ----<br>-------- ------- -- ---------- --- - --- ----- ----- ----<br>---- --- --- ----- --- ---- that ------- ----- ---- -------<br>--- --- -- ----- -- --- ---- -- --- ---- -- ------ ------<br>--- ----- -- ----,119593.8999999999,119589.29999999981,119033.633,119039.69999999972,119050.299,119600.277,,34,that
screen,html.Screen,2_1_0_1_35,2022-04-30T10:55:56.760Z,,,,,,,,,,,,,,,,,53,,,,,,,,,,,,,,276.0229999998119,,response,,,,99,,,,,,,Space,keypress(Space),,,,,,,,---- -- ----- -- ------ - ------- --- ----------<br>------------- ------ ------ ---- ---- ------- ----- -- ----<br>-------- ------- -- ---------- --- - --- ----- ----- ----<br>---- --- --- ----- --- ---- ---- matters ----- ---- -------<br>--- --- -- ----- -- --- ---- -- --- ---- -- ------ ------<br>--- ----- -- ----,119881.09999999963,119876.29999999981,119583.611,119594.09999999963,119600.277,119883.599,,35,matters
screen,html.Screen,2_1_0_1_36,2022-04-30T10:55:57.091Z,,,,,,,,,,,,,,,,,53,,,,,,,,,,,,,,324.900999999998,,response,,,,99,,,,,,,Space,keypress(Space),,,,,,,,"---- -- ----- -- ------ - ------- --- ----------<br>------------- ------ ------ ---- ---- ------- ----- -- ----<br>-------- ------- -- ---------- --- - --- ----- ----- ----<br>---- --- --- ----- --- ---- ---- ------- most, ---- -------<br>--- --- -- ----- -- --- ---- -- --- ---- -- ------ ------<br>--- ----- -- ----",120212.79999999981,120208.5,119866.933,119881.29999999981,119883.599,120216.919,,36,"most,"
screen,html.Screen,2_1_0_1_37,2022-04-30T10:55:57.430Z,,,,,,,,,,,,,,,,,53,,,,,,,,,,,,,,329.98099999991246,,response,,,,99,,,,,,,Space,keypress(Space),,,,,,,,---- -- ----- -- ------ - ------- --- ----------<br>------------- ------ ------ ---- ---- ------- ----- -- ----<br>-------- ------- -- ---------- --- - --- ----- ----- ----<br>---- --- --- ----- --- ---- ---- ------- ----- it's -------<br>--- --- -- ----- -- --- ---- -- --- ---- -- ------ ------<br>--- ----- -- ----,120551.19999999972,120546.8999999999,120200.253,120212.8999999999,120216.919,120566.905,,37,it's
screen,html.Screen,2_1_0_1_38,2022-04-30T10:55:57.786Z,,,,,,,,,,,,,,,,,53,,,,,,,,,,,,,,335.79499999972177,,response,,,,99,,,,,,,Space,keypress(Space),,,,,,,,---- -- ----- -- ------ - ------- --- ----------<br>------------- ------ ------ ---- ---- ------- ----- -- ----<br>-------- ------- -- ---------- --- - --- ----- ----- ----<br>---- --- --- ----- --- ---- ---- ------- ----- ---- whether<br>--- --- -- ----- -- --- ---- -- --- ---- -- ------ ------<br>--- ----- -- ----,120907.09999999963,120902.69999999972,120550.239,120551.29999999981,120566.905,120916.891,,38,whether
screen,html.Screen,2_1_0_1_39,2022-04-30T10:55:58.275Z,,,,,,,,,,,,,,,,,53,,,,,,,,,,,,,,475.5089999999036,,response,,,,99,,,,,,,Space,keypress(Space),,,,,,,,---- -- ----- -- ------ - ------- --- ----------<br>------------- ------ ------ ---- ---- ------- ----- -- ----<br>-------- ------- -- ---------- --- - --- ----- ----- ----<br>---- --- --- ----- --- ---- ---- ------- ----- ---- -------<br>you --- -- ----- -- --- ---- -- --- ---- -- ------ ------<br>--- ----- -- ----,121396.59999999963,121392.3999999999,120900.225,120907.19999999972,120916.891,121400.205,,39,you
screen,html.Screen,2_1_0_1_40,2022-04-30T10:55:58.519Z,,,,,,,,,,,,,,,,,53,,,,,,,,,,,,,,236.094999999812,,response,,,,99,,,,,,,Space,keypress(Space),,,,,,,,---- -- ----- -- ------ - ------- --- ----------<br>------------- ------ ------ ---- ---- ------- ----- -- ----<br>-------- ------- -- ---------- --- - --- ----- ----- ----<br>---- --- --- ----- --- ---- ---- ------- ----- ---- -------<br>--- are -- ----- -- --- ---- -- --- ---- -- ------ ------<br>--- ----- -- ----,121640.59999999963,121636.29999999981,121383.539,121396.69999999972,121400.205,121650.195,,40,are
screen,html.Screen,2_1_0_1_41,2022-04-30T10:55:59.282Z,,,,,,,,,,,,,,,,,53,,,,,,,,,,,,,,749.2049999998999,,response,,,,99,,,,,,,Space,keypress(Space),,,,,,,,---- -- ----- -- ------ - ------- --- ----------<br>------------- ------ ------ ---- ---- ------- ----- -- ----<br>-------- ------- -- ---------- --- - --- ----- ----- ----<br>---- --- --- ----- --- ---- ---- ------- ----- ---- -------<br>--- --- as ----- -- --- ---- -- --- ---- -- ------ ------<br>--- ----- -- ----,122403.69999999972,122399.3999999999,121633.529,121640.69999999972,121650.195,122416.831,,41,as
screen,html.Screen,2_1_0_1_42,2022-04-30T10:55:59.579Z,,,,,,,,,,,,,,,,,53,,,,,,,,,,,,,,278.868999999715,,response,,,,99,,,,,,,Space,keypress(Space),,,,,,,,---- -- ----- -- ------ - ------- --- ----------<br>------------- ------ ------ ---- ---- ------- ----- -- ----<br>-------- ------- -- ---------- --- - --- ----- ----- ----<br>---- --- --- ----- --- ---- ---- ------- ----- ---- -------<br>--- --- -- close -- --- ---- -- --- ---- -- ------ ------<br>--- ----- -- ----,122700,122695.69999999972,122400.165,122403.69999999972,122416.831,122716.819,,42,close
screen,html.Screen,2_1_0_1_43,2022-04-30T10:55:59.908Z,,,,,,,,,,,,,,,,,53,,,,,,,,,,,,,,307.5809999999037,,response,,,,99,,,,,,,Space,keypress(Space),,,,,,,,---- -- ----- -- ------ - ------- --- ----------<br>------------- ------ ------ ---- ---- ------- ----- -- ----<br>-------- ------- -- ---------- --- - --- ----- ----- ----<br>---- --- --- ----- --- ---- ---- ------- ----- ---- -------<br>--- --- -- ----- as --- ---- -- --- ---- -- ------ ------<br>--- ----- -- ----,123029,123024.3999999999,122700.153,122700.09999999963,122716.819,123033.473,,43,as
screen,html.Screen,2_1_0_1_44,2022-04-30T10:56:00.208Z,,,,,,,,,,,,,,,,,53,,,,,,,,,,,,,,290.8269999998156,,response,,,,99,,,,,,,Space,keypress(Space),,,,,,,,---- -- ----- -- ------ - ------- --- ----------<br>------------- ------ ------ ---- ---- ------- ----- -- ----<br>-------- ------- -- ---------- --- - --- ----- ----- ----<br>---- --- --- ----- --- ---- ---- ------- ----- ---- -------<br>--- --- -- ----- -- you ---- -- --- ---- -- ------ ------<br>--- ----- -- ----,123328.8999999999,123324.29999999981,123016.807,123029.09999999963,123033.473,123333.461,,44,you
screen,html.Screen,2_1_0_1_45,2022-04-30T10:56:00.507Z,,,,,,,,,,,,,,,,,53,,,,,,,,,,,,,,289.9389999999112,,response,,,,99,,,,,,,Space,keypress(Space),,,,,,,,---- -- ----- -- ------ - ------- --- ----------<br>------------- ------ ------ ---- ---- ------- ----- -- ----<br>-------- ------- -- ---------- --- - --- ----- ----- ----<br>---- --- --- ----- --- ---- ---- ------- ----- ---- -------<br>--- --- -- ----- -- --- want -- --- ---- -- ------ ------<br>--- ----- -- ----,123627.79999999981,123623.3999999999,123316.795,123329,123333.461,123633.449,,45,want
screen,html.Screen,2_1_0_1_46,2022-04-30T10:56:00.855Z,,,,,,,,,,,,,,,,,53,,,,,,,,,,,,,,338.05100000000675,,response,,,,99,,,,,,,Space,keypress(Space),,,,,,,,---- -- ----- -- ------ - ------- --- ----------<br>------------- ------ ------ ---- ---- ------- ----- -- ----<br>-------- ------- -- ---------- --- - --- ----- ----- ----<br>---- --- --- ----- --- ---- ---- ------- ----- ---- -------<br>--- --- -- ----- -- --- ---- to --- ---- -- ------ ------<br>--- ----- -- ----,123975.8999999999,123971.5,123616.783,123628,123633.449,123983.435,,46,to
screen,html.Screen,2_1_0_1_47,2022-04-30T10:56:01.171Z,,,,,,,,,,,,,,,,,53,,,,,,,,,,,,,,304.5650000000023,,response,,,,99,,,,,,,Space,keypress(Space),,,,,,,,"---- -- ----- -- ------ - ------- --- ----------<br>------------- ------ ------ ---- ---- ------- ----- -- ----<br>-------- ------- -- ---------- --- - --- ----- ----- ----<br>---- --- --- ----- --- ---- ---- ------- ----- ---- -------<br>--- --- -- ----- -- --- ---- -- be, ---- -- ------ ------<br>--- ----- -- ----",124292.5,124288,123966.769,123976.09999999963,123983.435,124300.089,,47,"be,"
screen,html.Screen,2_1_0_1_48,2022-04-30T10:56:01.600Z,,,,,,,,,,,,,,,,,53,,,,,,,,,,,,,,416.2109999998065,,response,,,,99,,,,,,,Space,keypress(Space),,,,,,,,---- -- ----- -- ------ - ------- --- ----------<br>------------- ------ ------ ---- ---- ------- ----- -- ----<br>-------- ------- -- ---------- --- - --- ----- ----- ----<br>---- --- --- ----- --- ---- ---- ------- ----- ---- -------<br>--- --- -- ----- -- --- ---- -- --- even -- ------ ------<br>--- ----- -- ----,124720.8999999999,124716.29999999981,124283.423,124292.69999999972,124300.089,124733.405,,48,even
screen,html.Screen,2_1_0_1_49,2022-04-30T10:56:01.949Z,,,,,,,,,,,,,,,,,53,,,,,,,,,,,,,,332.3949999998149,,response,,,,99,,,,,,,Space,keypress(Space),,,,,,,,---- -- ----- -- ------ - ------- --- ----------<br>------------- ------ ------ ---- ---- ------- ----- -- ----<br>-------- ------- -- ---------- --- - --- ----- ----- ----<br>---- --- --- ----- --- ---- ---- ------- ----- ---- -------<br>--- --- -- ----- -- --- ---- -- --- ---- if ------ ------<br>--- ----- -- ----,125070.19999999972,125065.79999999981,124716.739,124721.19999999972,124733.405,125083.391,,49,if
screen,html.Screen,2_1_0_1_50,2022-04-30T10:56:02.237Z,,,,,,,,,,,,,,,,,53,,,,,,,,,,,,,,270.80899999971734,,response,,,,99,,,,,,,Space,keypress(Space),,,,,,,,---- -- ----- -- ------ - ------- --- ----------<br>------------- ------ ------ ---- ---- ------- ----- -- ----<br>-------- ------- -- ---------- --- - --- ----- ----- ----<br>---- --- --- ----- --- ---- ---- ------- ----- ---- -------<br>--- --- -- ----- -- --- ---- -- --- ---- -- that's ------<br>--- ----- -- ----,125358.79999999981,125354.19999999972,125066.725,125070.3999999999,125083.391,125366.713,,50,that's
screen,html.Screen,2_1_0_1_51,2022-04-30T10:56:02.554Z,,,,,,,,,,,,,,,,,53,,,,,,,,,,,,,,303.4869999997172,,response,,,,99,,,,,,,Space,keypress(Space),,,,,,,,---- -- ----- -- ------ - ------- --- ----------<br>------------- ------ ------ ---- ---- ------- ----- -- ----<br>-------- ------- -- ---------- --- - --- ----- ----- ----<br>---- --- --- ----- --- ---- ---- ------- ----- ---- -------<br>--- --- -- ----- -- --- ---- -- --- ---- -- ------ really<br>--- ----- -- ----,125674.79999999981,125670.19999999972,125350.047,125358.8999999999,125366.713,125683.367,,51,really
screen,html.Screen,2_1_0_1_52,2022-04-30T10:56:02.954Z,,,,,,,,,,,,,,,,,53,,,,,,,,,,,,,,387.0329999999085,,response,,,,99,,,,,,,Space,keypress(Space),,,,,,,,---- -- ----- -- ------ - ------- --- ----------<br>------------- ------ ------ ---- ---- ------- ----- -- ----<br>-------- ------- -- ---------- --- - --- ----- ----- ----<br>---- --- --- ----- --- ---- ---- ------- ----- ---- -------<br>--- --- -- ----- -- --- ---- -- --- ---- -- ------ ------<br>not ----- -- ----,126074.8999999999,126070.3999999999,125666.701,125675,125683.367,126083.351,,52,not
screen,html.Screen,2_1_0_1_53,2022-04-30T10:56:03.284Z,,,,,,,,,,,,,,,,,53,,,,,,,,,,,,,,317.8489999997255,,response,,,,99,,,,,,,Space,keypress(Space),,,,,,,,---- -- ----- -- ------ - ------- --- ----------<br>------------- ------ ------ ---- ---- ------- ----- -- ----<br>-------- ------- -- ---------- --- - --- ----- ----- ----<br>---- --- --- ----- --- ---- ---- ------- ----- ---- -------<br>--- --- -- ----- -- --- ---- -- --- ---- -- ------ ------<br>--- close -- ----,126405.69999999972,126401.19999999972,126066.685,126075,126083.351,126408.036,,53,close
screen,html.Screen,2_1_0_1_54,2022-04-30T10:56:03.625Z,,,,,,,,,,,,,,,,,53,,,,,,,,,,,,,,333.1639999997278,,response,,,,99,,,,,,,Space,keypress(Space),,,,,,,,---- -- ----- -- ------ - ------- --- ----------<br>------------- ------ ------ ---- ---- ------- ----- -- ----<br>-------- ------- -- ---------- --- - --- ----- ----- ----<br>---- --- --- ----- --- ---- ---- ------- ----- ---- -------<br>--- --- -- ----- -- --- ---- -- --- ---- -- ------ ------<br>--- ----- at ----,126746.09999999963,126741.19999999972,126391.37,126405.8999999999,126408.036,126758.022,,54,at
screen,html.Screen,2_1_0_1_55,2022-04-30T10:56:03.961Z,,,,,,,,,,,,,,,,,53,,,,,,,,,,,,,,320.1779999997234,,response,,,,99,,,,,,,Space,keypress(Space),,,,,,,,---- -- ----- -- ------ - ------- --- ----------<br>------------- ------ ------ ---- ---- ------- ----- -- ----<br>-------- ------- -- ---------- --- - --- ----- ----- ----<br>---- --- --- ----- --- ---- ---- ------- ----- ---- -------<br>--- --- -- ----- -- --- ---- -- --- ---- -- ------ ------<br>--- ----- -- all.,127082.69999999972,127078.19999999972,126741.356,126746.19999999972,126758.022,127091.342,,55,all.
Item 99,flow.Loop,2_1_0_1,2022-04-30T10:56:03.962Z,,,,,,,,,,,,,,,,,,,,,,,,,,,,,,,21752.52599999972,,completion,,,,,E,,,,,,,,,,,silence,,,,,127083,127078.19999999972,105292.342,105294.19999999972,105325.674,127091.342,,,
Question 1,html.Screen,2_1_0_2,2022-04-30T10:56:08.155Z,,,,,,,,,,,,,,,,,,,,,,,,,,,,true,FALSE,,4183.057999999903,,response,,,,99,E,,,,,,FALSE,click #choice-2,,,,silence,,,,,131276.5,131274.3999999999,127074.676,127083.19999999972,127091.342,131291.174,,,
Question 2,html.Screen,2_1_0_3,2022-04-30T10:56:11.690Z,,,,,,,,,,,,,,,,,,,,,,,,,,,,true,TRUE,,3517.725999999908,,response,,,,99,E,,,,,,TRUE,click #choice-1,,,,silence,,,,,134811,134808.8999999999,131274.508,131276.69999999972,131291.174,134824.366,,,
Item 99,flow.Sequence,2_1_0,2022-04-30T10:56:11.690Z,,,,,,,,,,,,,,,,,,,,,,,,,,,,,,,39494.94299999991,,completion,,,,,,,,,,,,,,,,,,,,,134811.2999999998,134808.8999999999,95297.291,95317.09999999963,95313.957,134824.366,,,
Holding screen,html.Screen,2_1_1_0,2022-04-30T10:56:21.685Z,,,,,,,,,,,,,,,,,,,,,,,,,,,,,,,9996.943,,timeout,,,,,,,,,,,,,,,,,,,,,144806.09999999963,144804.643,134807.7,134811.2999999998,134824.366,144821.309,,,
screen,html.Screen,2_1_1_1_0,2022-04-30T10:56:23.152Z,,,,,,,,,,,,,,,,,54,,,,,,,,,,,,,,1447.290999999619,,response,,,,100,,,,,,,Space,keypress(Space),,,,,,,,At --- ---- --- ------ ----- ------- ---- -- --- ------- --<br>------- ---------- ------ -- ----- -- ----- -- ---- ------<br>--- ----- --- --- ------ -------- ----- --- ------ ----- --<br>----- ----- ---------- --- --- ------ ------ ---- -- ------<br>------- --- ------ ----- --- ---- ------- -- ---- --- --<br>------- ------,146273.8999999999,146268.59999999963,144804.643,144806.2999999998,144821.309,146287.917,,0,At
screen,html.Screen,2_1_1_1_1,2022-04-30T10:56:23.380Z,,,,,,,,,,,,,,,,,54,,,,,,,,,,,,,,208.58300000001327,,response,,,,100,,,,,,,Space,keypress(Space),,,,,,,,-- the ---- --- ------ ----- ------- ---- -- --- ------- --<br>------- ---------- ------ -- ----- -- ----- -- ---- ------<br>--- ----- --- --- ------ -------- ----- --- ------ ----- --<br>----- ----- ---------- --- --- ------ ------ ---- -- ------<br>------- --- ------ ----- --- ---- ------- -- ---- --- --<br>------- ------,146501.19999999972,146496.5,146271.251,146274,146287.917,146504.575,,1,the
screen,html.Screen,2_1_1_1_2,2022-04-30T10:56:23.663Z,,,,,,,,,,,,,,,,,54,,,,,,,,,,,,,,274.8249999998952,,response,,,,100,,,,,,,Space,keypress(Space),,,,,,,,-- --- time --- ------ ----- ------- ---- -- --- ------- --<br>------- ---------- ------ -- ----- -- ----- -- ---- ------<br>--- ----- --- --- ------ -------- ----- --- ------ ----- --<br>----- ----- ---------- --- --- ------ ------ ---- -- ------<br>------- --- ------ ----- --- ---- ------- -- ---- --- --<br>------- ------,146784,146779.3999999999,146487.909,146501.2999999998,146504.575,146794.236,,2,time
screen,html.Screen,2_1_1_1_3,2022-04-30T10:56:23.916Z,,,,,,,,,,,,,,,,,54,,,,,,,,,,,,,,239.16399999990244,,response,,,,100,,,,,,,Space,keypress(Space),,,,,,,,-- --- ---- the ------ ----- ------- ---- -- --- ------- --<br>------- ---------- ------ -- ----- -- ----- -- ---- ------<br>--- ----- --- --- ------ -------- ----- --- ------ ----- --<br>----- ----- ---------- --- --- ------ ------ ---- -- ------<br>------- --- ------ ----- --- ---- ------- -- ---- --- --<br>------- ------,147037.7999999998,147033.3999999999,146777.57,146784.09999999963,146794.236,147044.226,,3,the
screen,html.Screen,2_1_1_1_4,2022-04-30T10:56:24.159Z,,,,,,,,,,,,,,,,,54,,,,,,,,,,,,,,232.17399999991176,,response,,,,100,,,,,,,Space,keypress(Space),,,,,,,,-- --- ---- --- French ----- ------- ---- -- --- ------- --<br>------- ---------- ------ -- ----- -- ----- -- ---- ------<br>--- ----- --- --- ------ -------- ----- --- ------ ----- --<br>----- ----- ---------- --- --- ------ ------ ---- -- ------<br>------- --- ------ ----- --- ---- ------- -- ---- --- --<br>------- ------,147280.8999999999,147276.3999999999,147027.56,147037.8999999999,147044.226,147294.216,,4,French
screen,html.Screen,2_1_1_1_5,2022-04-30T10:56:24.593Z,,,,,,,,,,,,,,,,,54,,,,,,,,,,,,,,416.18399999992107,,response,,,,100,,,,,,,Space,keypress(Space),,,,,,,,-- --- ---- --- ------ crown ------- ---- -- --- ------- --<br>------- ---------- ------ -- ----- -- ----- -- ---- ------<br>--- ----- --- --- ------ -------- ----- --- ------ ----- --<br>----- ----- ---------- --- --- ------ ------ ---- -- ------<br>------- --- ------ ----- --- ---- ------- -- ---- --- --<br>------- ------,147715,147710.3999999999,147277.55,147281,147294.216,147727.532,,5,crown
screen,html.Screen,2_1_1_1_6,2022-04-30T10:56:24.872Z,,,,,,,,,,,,,,,,,54,,,,,,,,,,,,,,260.86799999990035,,response,,,,100,,,,,,,Space,keypress(Space),,,,,,,,-- --- ---- --- ------ ----- secured ---- -- --- ------- --<br>------- ---------- ------ -- ----- -- ----- -- ---- ------<br>--- ----- --- --- ------ -------- ----- --- ------ ----- --<br>----- ----- ---------- --- --- ------ ------ ---- -- ------<br>------- --- ------ ----- --- ---- ------- -- ---- --- --<br>------- ------,147993.19999999972,147988.3999999999,147710.866,147715.09999999963,147727.532,147994.188,,6,secured
screen,html.Screen,2_1_1_1_7,2022-04-30T10:56:25.138Z,,,,,,,,,,,,,,,,,54,,,,,,,,,,,,,,260.4119999996328,,response,,,,100,,,,,,,Space,keypress(Space),,,,,,,,-- --- ---- --- ------ ----- ------- much -- --- ------- --<br>------- ---------- ------ -- ----- -- ----- -- ---- ------<br>--- ----- --- --- ------ -------- ----- --- ------ ----- --<br>----- ----- ---------- --- --- ------ ------ ---- -- ------<br>------- --- ------ ----- --- ---- ------- -- ---- --- --<br>------- ------,148259.19999999972,148254.59999999963,147977.522,147993.19999999972,147994.188,148260.844,,7,much
screen,html.Screen,2_1_1_1_8,2022-04-30T10:56:25.564Z,,,,,,,,,,,,,,,,,54,,,,,,,,,,,,,,419.45599999980186,,response,,,,100,,,,,,,Space,keypress(Space),,,,,,,,-- --- ---- --- ------ ----- ------- ---- of --- ------- --<br>------- ---------- ------ -- ----- -- ----- -- ---- ------<br>--- ----- --- --- ------ -------- ----- --- ------ ----- --<br>----- ----- ---------- --- --- ------ ------ ---- -- ------<br>------- --- ------ ----- --- ---- ------- -- ---- --- --<br>------- ------,148685.3999999999,148680.2999999998,148244.178,148259.3999999999,148260.844,148694.16,,8,of
screen,html.Screen,2_1_1_1_9,2022-04-30T10:56:25.726Z,,,,,,,,,,,,,,,,,54,,,,,,,,,,,,,,149.23999999990338,,response,,,,100,,,,,,,Space,keypress(Space),,,,,,,,-- --- ---- --- ------ ----- ------- ---- -- its ------- --<br>------- ---------- ------ -- ----- -- ----- -- ---- ------<br>--- ----- --- --- ------ -------- ----- --- ------ ----- --<br>----- ----- ---------- --- --- ------ ------ ---- -- ------<br>------- --- ------ ----- --- ---- ------- -- ---- --- --<br>------- ------,148848,148843.3999999999,148677.494,148685.59999999963,148694.16,148860.82,,9,its
screen,html.Screen,2_1_1_1_10,2022-04-30T10:56:25.933Z,,,,,,,,,,,,,,,,,54,,,,,,,,,,,,,,189.47999999980675,,response,,,,100,,,,,,,Space,keypress(Space),,,,,,,,-- --- ---- --- ------ ----- ------- ---- -- --- revenue --<br>------- ---------- ------ -- ----- -- ----- -- ---- ------<br>--- ----- --- --- ------ -------- ----- --- ------ ----- --<br>----- ----- ---------- --- --- ------ ------ ---- -- ------<br>------- --- ------ ----- --- ---- ------- -- ---- --- --<br>------- ------,149054.8999999999,149050.2999999998,148844.154,148848,148860.82,149060.812,,10,revenue
screen,html.Screen,2_1_1_1_11,2022-04-30T10:56:26.337Z,,,,,,,,,,,,,,,,,54,,,,,,,,,,,,,,393.4879999998084,,response,,,,100,,,,,,,Space,keypress(Space),,,,,,,,-- --- ---- --- ------ ----- ------- ---- -- --- ------- by<br>------- ---------- ------ -- ----- -- ----- -- ---- ------<br>--- ----- --- --- ------ -------- ----- --- ------ ----- --<br>----- ----- ---------- --- --- ------ ------ ---- -- ------<br>------- --- ------ ----- --- ---- ------- -- ---- --- --<br>------- ------,149458.7999999998,149454.2999999998,149044.146,149055.09999999963,149060.812,149460.796,,11,by
screen,html.Screen,2_1_1_1_12,2022-04-30T10:56:26.676Z,,,,,,,,,,,,,,,,,54,,,,,,,,,,,,,,331.50399999981164,,response,,,,100,,,,,,,Space,keypress(Space),,,,,,,,-- --- ---- --- ------ ----- ------- ---- -- --- ------- --<br>issuing ---------- ------ -- ----- -- ----- -- ---- ------<br>--- ----- --- --- ------ -------- ----- --- ------ ----- --<br>----- ----- ---------- --- --- ------ ------ ---- -- ------<br>------- --- ------ ----- --- ---- ------- -- ---- --- --<br>------- ------,149797.5,149792.2999999998,149444.13,149458.8999999999,149460.796,149810.782,,12,issuing
screen,html.Screen,2_1_1_1_13,2022-04-30T10:56:26.900Z,,,,,,,,,,,,,,,,,54,,,,,,,,,,,,,,206.51799999980722,,response,,,,100,,,,,,,Space,keypress(Space),,,,,,,,-- --- ---- --- ------ ----- ------- ---- -- --- ------- --<br>------- government ------ -- ----- -- ----- -- ---- ------<br>--- ----- --- --- ------ -------- ----- --- ------ ----- --<br>----- ----- ---------- --- --- ------ ------ ---- -- ------<br>------- --- ------ ----- --- ---- ------- -- ---- --- --<br>------- ------,150022,150017.2999999998,149794.116,149797.59999999963,149810.782,150027.44,,13,government
screen,html.Screen,2_1_1_1_14,2022-04-30T10:56:27.197Z,,,,,,,,,,,,,,,,,54,,,,,,,,,,,,,,285.7599999997183,,response,,,,100,,,,,,,Space,keypress(Space),,,,,,,,-- --- ---- --- ------ ----- ------- ---- -- --- ------- --<br>------- ---------- bonds. -- ----- -- ----- -- ---- ------<br>--- ----- --- --- ------ -------- ----- --- ------ ----- --<br>----- ----- ---------- --- --- ------ ------ ---- -- ------<br>------- --- ------ ----- --- ---- ------- -- ---- --- --<br>------- ------,150318.2999999998,150313.19999999972,150010.774,150022.19999999972,150027.44,150327.428,,14,bonds.
screen,html.Screen,2_1_1_1_15,2022-04-30T10:56:27.547Z,,,,,,,,,,,,,,,,,54,,,,,,,,,,,,,,336.8719999997993,,response,,,,100,,,,,,,Space,keypress(Space),,,,,,,,-- --- ---- --- ------ ----- ------- ---- -- --- ------- --<br>------- ---------- ------ In ----- -- ----- -- ---- ------<br>--- ----- --- --- ------ -------- ----- --- ------ ----- --<br>----- ----- ---------- --- --- ------ ------ ---- -- ------<br>------- --- ------ ----- --- ---- ------- -- ---- --- --<br>------- ------,150668.59999999963,150664.2999999998,150310.762,150318.2999999998,150327.428,150677.414,,15,In
screen,html.Screen,2_1_1_1_16,2022-04-30T10:56:28.036Z,,,,,,,,,,,,,,,,,54,,,,,,,,,,,,,,474.28599999973085,,response,,,,100,,,,,,,Space,keypress(Space),,,,,,,,"-- --- ---- --- ------ ----- ------- ---- -- --- ------- --<br>------- ---------- ------ -- 1727, -- ----- -- ---- ------<br>--- ----- --- --- ------ -------- ----- --- ------ ----- --<br>----- ----- ---------- --- --- ------ ------ ---- -- ------<br>------- --- ------ ----- --- ---- ------- -- ---- --- --<br>------- ------",151157.5,151151.69999999972,150660.748,150668.69999999972,150677.414,151160.728,,16,"1727,"
screen,html.Screen,2_1_1_1_17,2022-04-30T10:56:28.343Z,,,,,,,,,,,,,,,,,54,,,,,,,,,,,,,,299.57199999981094,,response,,,,100,,,,,,,Space,keypress(Space),,,,,,,,-- --- ---- --- ------ ----- ------- ---- -- --- ------- --<br>------- ---------- ------ -- ----- in ----- -- ---- ------<br>--- ----- --- --- ------ -------- ----- --- ------ ----- --<br>----- ----- ---------- --- --- ------ ------ ---- -- ------<br>------- --- ------ ----- --- ---- ------- -- ---- --- --<br>------- ------,151464.8999999999,151460.2999999998,151144.062,151157.69999999972,151160.728,151477.382,,17,in
screen,html.Screen,2_1_1_1_18,2022-04-30T10:56:28.641Z,,,,,,,,,,,,,,,,,54,,,,,,,,,,,,,,280.0179999998945,,response,,,,100,,,,,,,Space,keypress(Space),,,,,,,,-- --- ---- --- ------ ----- ------- ---- -- --- ------- --<br>------- ---------- ------ -- ----- -- order -- ---- ------<br>--- ----- --- --- ------ -------- ----- --- ------ ----- --<br>----- ----- ---------- --- --- ------ ------ ---- -- ------<br>------- --- ------ ----- --- ---- ------- -- ---- --- --<br>------- ------,151762.09999999963,151757.3999999999,151460.716,151465,151477.382,151777.37,,18,order
screen,html.Screen,2_1_1_1_19,2022-04-30T10:56:28.956Z,,,,,,,,,,,,,,,,,54,,,,,,,,,,,,,,296.13000000000466,,response,,,,100,,,,,,,Space,keypress(Space),,,,,,,,-- --- ---- --- ------ ----- ------- ---- -- --- ------- --<br>------- ---------- ------ -- ----- -- ----- to ---- ------<br>--- ----- --- --- ------ -------- ----- --- ------ ----- --<br>----- ----- ---------- --- --- ------ ------ ---- -- ------<br>------- --- ------ ----- --- ---- ------- -- ---- --- --<br>------- ------,152078,152073.5,151760.704,151762.2999999998,151777.37,152094.024,,19,to
screen,html.Screen,2_1_1_1_20,2022-04-30T10:56:29.305Z,,,,,,,,,,,,,,,,,54,,,,,,,,,,,,,,329.1759999997157,,response,,,,100,,,,,,,Space,keypress(Space),,,,,,,,-- --- ---- --- ------ ----- ------- ---- -- --- ------- --<br>------- ---------- ------ -- ----- -- ----- -- save ------<br>--- ----- --- --- ------ -------- ----- --- ------ ----- --<br>----- ----- ---------- --- --- ------ ------ ---- -- ------<br>------- --- ------ ----- --- ---- ------- -- ---- --- --<br>------- ------,152426.3999999999,152423.19999999972,152077.358,152078.09999999963,152094.024,152427.344,,20,save
screen,html.Screen,2_1_1_1_21,2022-04-30T10:56:29.557Z,,,,,,,,,,,,,,,,,54,,,,,,,,,,,,,,244.95599999980186,,response,,,,100,,,,,,,Space,keypress(Space),,,,,,,,"-- --- ---- --- ------ ----- ------- ---- -- --- ------- --<br>------- ---------- ------ -- ----- -- ----- -- ---- money,<br>--- ----- --- --- ------ -------- ----- --- ------ ----- --<br>----- ----- ---------- --- --- ------ ------ ---- -- ------<br>------- --- ------ ----- --- ---- ------- -- ---- --- --<br>------- ------",152678.19999999972,152672.2999999998,152410.678,152426.5,152427.344,152694,,21,"money,"
screen,html.Screen,2_1_1_1_22,2022-04-30T10:56:29.860Z,,,,,,,,,,,,,,,,,54,,,,,,,,,,,,,,281.1999999997206,,response,,,,100,,,,,,,Space,keypress(Space),,,,,,,,-- --- ---- --- ------ ----- ------- ---- -- --- ------- --<br>------- ---------- ------ -- ----- -- ----- -- ---- ------<br>the ----- --- --- ------ -------- ----- --- ------ ----- --<br>----- ----- ---------- --- --- ------ ------ ---- -- ------<br>------- --- ------ ----- --- ---- ------- -- ---- --- --<br>------- ------,152981.09999999963,152975.19999999972,152677.334,152678.3999999999,152694,152993.988,,22,the
screen,html.Screen,2_1_1_1_23,2022-04-30T10:56:30.146Z,,,,,,,,,,,,,,,,,54,,,,,,,,,,,,,,268.7119999997085,,response,,,,100,,,,,,,Space,keypress(Space),,,,,,,,-- --- ---- --- ------ ----- ------- ---- -- --- ------- --<br>------- ---------- ------ -- ----- -- ----- -- ---- ------<br>--- state --- --- ------ -------- ----- --- ------ ----- --<br>----- ----- ---------- --- --- ------ ------ ---- -- ------<br>------- --- ------ ----- --- ---- ------- -- ---- --- --<br>------- ------,153267.2999999998,153262.69999999972,152977.322,152981.19999999972,152993.988,153277.31,,23,state
screen,html.Screen,2_1_1_1_24,2022-04-30T10:56:30.383Z,,,,,,,,,,,,,,,,,54,,,,,,,,,,,,,,220.88999999972293,,response,,,,100,,,,,,,Space,keypress(Space),,,,,,,,-- --- ---- --- ------ ----- ------- ---- -- --- ------- --<br>------- ---------- ------ -- ----- -- ----- -- ---- ------<br>--- ----- cut --- ------ -------- ----- --- ------ ----- --<br>----- ----- ---------- --- --- ------ ------ ---- -- ------<br>------- --- ------ ----- --- ---- ------- -- ---- --- --<br>------- ------,153504.3999999999,153498.19999999972,153260.644,153267.5,153277.31,153510.634,,24,cut
screen,html.Screen,2_1_1_1_25,2022-04-30T10:56:30.674Z,,,,,,,,,,,,,,,,,54,,,,,,,,,,,,,,280.46599999963655,,response,,,,100,,,,,,,Space,keypress(Space),,,,,,,,-- --- ---- --- ------ ----- ------- ---- -- --- ------- --<br>------- ---------- ------ -- ----- -- ----- -- ---- ------<br>--- ----- --- the ------ -------- ----- --- ------ ----- --<br>----- ----- ---------- --- --- ------ ------ ---- -- ------<br>------- --- ------ ----- --- ---- ------- -- ---- --- --<br>------- ------,153795.5,153791.09999999963,153493.968,153504.5,153510.634,153810.622,,25,the
screen,html.Screen,2_1_1_1_26,2022-04-30T10:56:30.994Z,,,,,,,,,,,,,,,,,54,,,,,,,,,,,,,,299.6779999998107,,response,,,,100,,,,,,,Space,keypress(Space),,,,,,,,-- --- ---- --- ------ ----- ------- ---- -- --- ------- --<br>------- ---------- ------ -- ----- -- ----- -- ---- ------<br>--- ----- --- --- bonds' -------- ----- --- ------ ----- --<br>----- ----- ---------- --- --- ------ ------ ---- -- ------<br>------- --- ------ ----- --- ---- ------- -- ---- --- --<br>------- ------,154115.2999999998,154110.2999999998,153793.956,153795.59999999963,153810.622,154127.276,,26,bonds'
screen,html.Screen,2_1_1_1_27,2022-04-30T10:56:31.292Z,,,,,,,,,,,,,,,,,54,,,,,,,,,,,,,,281.8239999996149,,response,,,,100,,,,,,,Space,keypress(Space),,,,,,,,-- --- ---- --- ------ ----- ------- ---- -- --- ------- --<br>------- ---------- ------ -- ----- -- ----- -- ---- ------<br>--- ----- --- --- ------ interest ----- --- ------ ----- --<br>----- ----- ---------- --- --- ------ ------ ---- -- ------<br>------- --- ------ ----- --- ---- ------- -- ---- --- --<br>------- ------,154413.69999999972,154409.09999999963,154110.61,154115.3999999999,154127.276,154427.264,,27,interest
screen,html.Screen,2_1_1_1_28,2022-04-30T10:56:31.631Z,,,,,,,,,,,,,,,,,54,,,,,,,,,,,,,,318.935999999725,,response,,,,100,,,,,,,Space,keypress(Space),,,,,,,,-- --- ---- --- ------ ----- ------- ---- -- --- ------- --<br>------- ---------- ------ -- ----- -- ----- -- ---- ------<br>--- ----- --- --- ------ -------- rate. --- ------ ----- --<br>----- ----- ---------- --- --- ------ ------ ---- -- ------<br>------- --- ------ ----- --- ---- ------- -- ---- --- --<br>------- ------,154752.09999999963,154746.19999999972,154410.598,154413.69999999972,154427.264,154760.584,,28,rate.
screen,html.Screen,2_1_1_1_29,2022-04-30T10:56:31.927Z,,,,,,,,,,,,,,,,,54,,,,,,,,,,,,,,283.61599999971804,,response,,,,100,,,,,,,Space,keypress(Space),,,,,,,,-- --- ---- --- ------ ----- ------- ---- -- --- ------- --<br>------- ---------- ------ -- ----- -- ----- -- ---- ------<br>--- ----- --- --- ------ -------- ----- The ------ ----- --<br>----- ----- ---------- --- --- ------ ------ ---- -- ------<br>------- --- ------ ----- --- ---- ------- -- ---- --- --<br>------- ------,155048.5,155044.19999999972,154743.918,154752.19999999972,154760.584,155060.572,,29,The
screen,html.Screen,2_1_1_1_30,2022-04-30T10:56:32.243Z,,,,,,,,,,,,,,,,,54,,,,,,,,,,,,,,298.8279999999213,,response,,,,100,,,,,,,Space,keypress(Space),,,,,,,,-- --- ---- --- ------ ----- ------- ---- -- --- ------- --<br>------- ---------- ------ -- ----- -- ----- -- ---- ------<br>--- ----- --- --- ------ -------- ----- --- market ----- --<br>----- ----- ---------- --- --- ------ ------ ---- -- ------<br>------- --- ------ ----- --- ---- ------- -- ---- --- --<br>------- ------,155364.2999999998,155359.3999999999,155043.906,155048.69999999972,155060.572,155377.226,,30,market
screen,html.Screen,2_1_1_1_31,2022-04-30T10:56:32.525Z,,,,,,,,,,,,,,,,,54,,,,,,,,,,,,,,264.87399999963236,,response,,,,100,,,,,,,Space,keypress(Space),,,,,,,,-- --- ---- --- ------ ----- ------- ---- -- --- ------- --<br>------- ---------- ------ -- ----- -- ----- -- ---- ------<br>--- ----- --- --- ------ -------- ----- --- ------ value --<br>----- ----- ---------- --- --- ------ ------ ---- -- ------<br>------- --- ------ ----- --- ---- ------- -- ---- --- --<br>------- ------,155646.5,155642.09999999963,155360.56,155364.5,155377.226,155660.548,,31,value
screen,html.Screen,2_1_1_1_32,2022-04-30T10:56:32.852Z,,,,,,,,,,,,,,,,,54,,,,,,,,,,,,,,307.6519999997108,,response,,,,100,,,,,,,Space,keypress(Space),,,,,,,,-- --- ---- --- ------ ----- ------- ---- -- --- ------- --<br>------- ---------- ------ -- ----- -- ----- -- ---- ------<br>--- ----- --- --- ------ -------- ----- --- ------ ----- of<br>----- ----- ---------- --- --- ------ ------ ---- -- ------<br>------- --- ------ ----- --- ---- ------- -- ---- --- --<br>------- ------,155973.09999999963,155968.19999999972,155643.882,155646.59999999963,155660.548,155977.202,,32,of
screen,html.Screen,2_1_1_1_33,2022-04-30T10:56:33.182Z,,,,,,,,,,,,,,,,,54,,,,,,,,,,,,,,321.9979999997304,,response,,,,100,,,,,,,Space,keypress(Space),,,,,,,,-- --- ---- --- ------ ----- ------- ---- -- --- ------- --<br>------- ---------- ------ -- ----- -- ----- -- ---- ------<br>--- ----- --- --- ------ -------- ----- --- ------ ----- --<br>these ----- ---------- --- --- ------ ------ ---- -- ------<br>------- --- ------ ----- --- ---- ------- -- ---- --- --<br>------- ------,156303.7999999998,156299.19999999972,155960.536,155973.2999999998,155977.202,156310.522,,33,these
screen,html.Screen,2_1_1_1_34,2022-04-30T10:56:33.442Z,,,,,,,,,,,,,,,,,54,,,,,,,,,,,,,,248.57799999963026,,response,,,,100,,,,,,,Space,keypress(Space),,,,,,,,-- --- ---- --- ------ ----- ------- ---- -- --- ------- --<br>------- ---------- ------ -- ----- -- ----- -- ---- ------<br>--- ----- --- --- ------ -------- ----- --- ------ ----- --<br>----- bonds ---------- --- --- ------ ------ ---- -- ------<br>------- --- ------ ----- --- ---- ------- -- ---- --- --<br>------- ------,156563.7999999998,156559.09999999963,156293.856,156303.8999999999,156310.522,156577.178,,34,bonds
screen,html.Screen,2_1_1_1_35,2022-04-30T10:56:33.713Z,,,,,,,,,,,,,,,,,54,,,,,,,,,,,,,,253.02199999970617,,response,,,,100,,,,,,,Space,keypress(Space),,,,,,,,"-- --- ---- --- ------ ----- ------- ---- -- --- ------- --<br>------- ---------- ------ -- ----- -- ----- -- ---- ------<br>--- ----- --- --- ------ -------- ----- --- ------ ----- --<br>----- ----- plummeted, --- --- ------ ------ ---- -- ------<br>------- --- ------ ----- --- ---- ------- -- ---- --- --<br>------- ------",156834.69999999972,156830.19999999972,156560.512,156564,156577.178,156840.67,,35,"plummeted,"
screen,html.Screen,2_1_1_1_36,2022-04-30T10:56:33.946Z,,,,,,,,,,,,,,,,,54,,,,,,,,,,,,,,222.42999999961467,,response,,,,100,,,,,,,Space,keypress(Space),,,,,,,,-- --- ---- --- ------ ----- ------- ---- -- --- ------- --<br>------- ---------- ------ -- ----- -- ----- -- ---- ------<br>--- ----- --- --- ------ -------- ----- --- ------ ----- --<br>----- ----- ---------- and --- ------ ------ ---- -- ------<br>------- --- ------ ----- --- ---- ------- -- ---- --- --<br>------- ------,157067.59999999963,157063.09999999963,156824.004,156834.7999999998,156840.67,157073.994,,36,and
screen,html.Screen,2_1_1_1_37,2022-04-30T10:56:34.167Z,,,,,,,,,,,,,,,,,54,,,,,,,,,,,,,,210.30599999980768,,response,,,,100,,,,,,,Space,keypress(Space),,,,,,,,-- --- ---- --- ------ ----- ------- ---- -- --- ------- --<br>------- ---------- ------ -- ----- -- ----- -- ---- ------<br>--- ----- --- --- ------ -------- ----- --- ------ ----- --<br>----- ----- ---------- --- the ------ ------ ---- -- ------<br>------- --- ------ ----- --- ---- ------- -- ---- --- --<br>------- ------,157288.69999999972,157284.2999999998,157057.328,157067.69999999972,157073.994,157290.652,,37,the
screen,html.Screen,2_1_1_1_38,2022-04-30T10:56:34.650Z,,,,,,,,,,,,,,,,,54,,,,,,,,,,,,,,476.4479999996256,,response,,,,100,,,,,,,Space,keypress(Space),,,,,,,,-- --- ---- --- ------ ----- ------- ---- -- --- ------- --<br>------- ---------- ------ -- ----- -- ----- -- ---- ------<br>--- ----- --- --- ------ -------- ----- --- ------ ----- --<br>----- ----- ---------- --- --- market ------ ---- -- ------<br>------- --- ------ ----- --- ---- ------- -- ---- --- --<br>------- ------,157772,157767.09999999963,157273.986,157288.7999999998,157290.652,157773.966,,38,market
screen,html.Screen,2_1_1_1_39,2022-04-30T10:56:35.107Z,,,,,,,,,,,,,,,,,54,,,,,,,,,,,,,,450.0340000000142,,response,,,,100,,,,,,,Space,keypress(Space),,,,,,,,-- --- ---- --- ------ ----- ------- ---- -- --- ------- --<br>------- ---------- ------ -- ----- -- ----- -- ---- ------<br>--- ----- --- --- ------ -------- ----- --- ------ ----- --<br>----- ----- ---------- --- --- ------ became ---- -- ------<br>------- --- ------ ----- --- ---- ------- -- ---- --- --<br>------- ------,158228.2999999998,158224,157757.3,157772,157773.966,158240.614,,39,became
screen,html.Screen,2_1_1_1_40,2022-04-30T10:56:35.368Z,,,,,,,,,,,,,,,,,54,,,,,,,,,,,,,,244.3859999999986,,response,,,,100,,,,,,,Space,keypress(Space),,,,,,,,-- --- ---- --- ------ ----- ------- ---- -- --- ------- --<br>------- ---------- ------ -- ----- -- ----- -- ---- ------<br>--- ----- --- --- ------ -------- ----- --- ------ ----- --<br>----- ----- ---------- --- --- ------ ------ wary -- ------<br>------- --- ------ ----- --- ---- ------- -- ---- --- --<br>------- ------,158489.2999999998,158485,158223.948,158228.3999999999,158240.614,158490.604,,40,wary
screen,html.Screen,2_1_1_1_41,2022-04-30T10:56:35.617Z,,,,,,,,,,,,,,,,,54,,,,,,,,,,,,,,243.4959999996354,,response,,,,100,,,,,,,Space,keypress(Space),,,,,,,,-- --- ---- --- ------ ----- ------- ---- -- --- ------- --<br>------- ---------- ------ -- ----- -- ----- -- ---- ------<br>--- ----- --- --- ------ -------- ----- --- ------ ----- --<br>----- ----- ---------- --- --- ------ ------ ---- of ------<br>------- --- ------ ----- --- ---- ------- -- ---- --- --<br>------- ------,158738.69999999972,158734.09999999963,158473.938,158489.3999999999,158490.604,158740.594,,41,of
screen,html.Screen,2_1_1_1_42,2022-04-30T10:56:36.034Z,,,,,,,,,,,,,,,,,54,,,,,,,,,,,,,,410.9059999999881,,response,,,,100,,,,,,,Space,keypress(Space),,,,,,,,-- --- ---- --- ------ ----- ------- ---- -- --- ------- --<br>------- ---------- ------ -- ----- -- ----- -- ---- ------<br>--- ----- --- --- ------ -------- ----- --- ------ ----- --<br>----- ----- ---------- --- --- ------ ------ ---- -- French<br>------- --- ------ ----- --- ---- ------- -- ---- --- --<br>------- ------,159155.7999999998,159151.5,158723.928,158738.7999999998,158740.594,159157.244,,42,French
screen,html.Screen,2_1_1_1_43,2022-04-30T10:56:36.479Z,,,,,,,,,,,,,,,,,54,,,,,,,,,,,,,,438.8559999996214,,response,,,,100,,,,,,,Space,keypress(Space),,,,,,,,-- --- ---- --- ------ ----- ------- ---- -- --- ------- --<br>------- ---------- ------ -- ----- -- ----- -- ---- ------<br>--- ----- --- --- ------ -------- ----- --- ------ ----- --<br>----- ----- ---------- --- --- ------ ------ ---- -- ------<br>credit. --- ------ ----- --- ---- ------- -- ---- --- --<br>------- ------,159601,159596.09999999963,159140.578,159156,159157.244,159607.226,,43,credit.
screen,html.Screen,2_1_1_1_44,2022-04-30T10:56:36.758Z,,,,,,,,,,,,,,,,,54,,,,,,,,,,,,,,267.7740000000049,,response,,,,100,,,,,,,Space,keypress(Space),,,,,,,,-- --- ---- --- ------ ----- ------- ---- -- --- ------- --<br>------- ---------- ------ -- ----- -- ----- -- ---- ------<br>--- ----- --- --- ------ -------- ----- --- ------ ----- --<br>----- ----- ---------- --- --- ------ ------ ---- -- ------<br>------- The ------ ----- --- ---- ------- -- ---- --- --<br>------- ------,159879.5,159875,159590.56,159601.19999999972,159607.226,159890.548,,44,The
screen,html.Screen,2_1_1_1_45,2022-04-30T10:56:37.060Z,,,,,,,,,,,,,,,,,54,,,,,,,,,,,,,,286.4519999999902,,response,,,,100,,,,,,,Space,keypress(Space),,,,,,,,-- --- ---- --- ------ ----- ------- ---- -- --- ------- --<br>------- ---------- ------ -- ----- -- ----- -- ---- ------<br>--- ----- --- --- ------ -------- ----- --- ------ ----- --<br>----- ----- ---------- --- --- ------ ------ ---- -- ------<br>------- --- French ----- --- ---- ------- -- ---- --- --<br>------- ------,160181.7999999998,160177,159873.882,159879.5,159890.548,160190.536,,45,French
screen,html.Screen,2_1_1_1_46,2022-04-30T10:56:37.569Z,,,,,,,,,,,,,,,,,54,,,,,,,,,,,,,,495.4640000000072,,response,,,,100,,,,,,,Space,keypress(Space),,,,,,,,-- --- ---- --- ------ ----- ------- ---- -- --- ------- --<br>------- ---------- ------ -- ----- -- ----- -- ---- ------<br>--- ----- --- --- ------ -------- ----- --- ------ ----- --<br>----- ----- ---------- --- --- ------ ------ ---- -- ------<br>------- --- ------ state --- ---- ------- -- ---- --- --<br>------- ------,160690.2999999998,160686,160173.87,160181.8999999999,160190.536,160707.182,,46,state
screen,html.Screen,2_1_1_1_47,2022-04-30T10:56:37.778Z,,,,,,,,,,,,,,,,,54,,,,,,,,,,,,,,187.91799999962677,,response,,,,100,,,,,,,Space,keypress(Space),,,,,,,,-- --- ---- --- ------ ----- ------- ---- -- --- ------- --<br>------- ---------- ------ -- ----- -- ----- -- ---- ------<br>--- ----- --- --- ------ -------- ----- --- ------ ----- --<br>----- ----- ---------- --- --- ------ ------ ---- -- ------<br>------- --- ------ ----- was ---- ------- -- ---- --- --<br>------- ------,160899.5,160895.09999999963,160690.516,160690.5,160707.182,160907.174,,47,was
screen,html.Screen,2_1_1_1_48,2022-04-30T10:56:37.991Z,,,,,,,,,,,,,,,,,54,,,,,,,,,,,,,,200.7259999999078,,response,,,,100,,,,,,,Space,keypress(Space),,,,,,,,-- --- ---- --- ------ ----- ------- ---- -- --- ------- --<br>------- ---------- ------ -- ----- -- ----- -- ---- ------<br>--- ----- --- --- ------ -------- ----- --- ------ ----- --<br>----- ----- ---------- --- --- ------ ------ ---- -- ------<br>------- --- ------ ----- --- left ------- -- ---- --- --<br>------- ------,161112.5,161107.8999999999,160890.508,160899.59999999963,160907.174,161123.832,,48,left
screen,html.Screen,2_1_1_1_49,2022-04-30T10:56:38.408Z,,,,,,,,,,,,,,,,,54,,,,,,,,,,,,,,401.1680000000051,,response,,,,100,,,,,,,Space,keypress(Space),,,,,,,,-- --- ---- --- ------ ----- ------- ---- -- --- ------- --<br>------- ---------- ------ -- ----- -- ----- -- ---- ------<br>--- ----- --- --- ------ -------- ----- --- ------ ----- --<br>----- ----- ---------- --- --- ------ ------ ---- -- ------<br>------- --- ------ ----- --- ---- without -- ---- --- --<br>------- ------,161529.2999999998,161525,161107.166,161112.69999999972,161123.832,161540.482,,49,without
screen,html.Screen,2_1_1_1_50,2022-04-30T10:56:38.894Z,,,,,,,,,,,,,,,,,54,,,,,,,,,,,,,,470.71799999973155,,response,,,,100,,,,,,,Space,keypress(Space),,,,,,,,-- --- ---- --- ------ ----- ------- ---- -- --- ------- --<br>------- ---------- ------ -- ----- -- ----- -- ---- ------<br>--- ----- --- --- ------ -------- ----- --- ------ ----- --<br>----- ----- ---------- --- --- ------ ------ ---- -- ------<br>------- --- ------ ----- --- ---- ------- an ---- --- --<br>------- ------,162015.8999999999,162011.19999999972,161523.816,161529.5,161540.482,162023.796,,50,an
screen,html.Screen,2_1_1_1_51,2022-04-30T10:56:39.121Z,,,,,,,,,,,,,,,,,54,,,,,,,,,,,,,,214.30399999962538,,response,,,,100,,,,,,,Space,keypress(Space),,,,,,,,-- --- ---- --- ------ ----- ------- ---- -- --- ------- --<br>------- ---------- ------ -- ----- -- ----- -- ---- ------<br>--- ----- --- --- ------ -------- ----- --- ------ ----- --<br>----- ----- ---------- --- --- ------ ------ ---- -- ------<br>------- --- ------ ----- --- ---- ------- -- easy --- --<br>------- ------,162242.3999999999,162238.09999999963,162007.13,162016,162023.796,162257.12,,51,easy
screen,html.Screen,2_1_1_1_52,2022-04-30T10:56:39.516Z,,,,,,,,,,,,,,,,,54,,,,,,,,,,,,,,375.7799999999115,,response,,,,100,,,,,,,Space,keypress(Space),,,,,,,,-- --- ---- --- ------ ----- ------- ---- -- --- ------- --<br>------- ---------- ------ -- ----- -- ----- -- ---- ------<br>--- ----- --- --- ------ -------- ----- --- ------ ----- --<br>----- ----- ---------- --- --- ------ ------ ---- -- ------<br>------- --- ------ ----- --- ---- ------- -- ---- way --<br>------- ------,162637.3999999999,162632.8999999999,162240.454,162242.59999999963,162257.12,162640.438,,52,way
screen,html.Screen,2_1_1_1_53,2022-04-30T10:56:39.804Z,,,,,,,,,,,,,,,,,54,,,,,,,,,,,,,,280.56200000000536,,response,,,,100,,,,,,,Space,keypress(Space),,,,,,,,-- --- ---- --- ------ ----- ------- ---- -- --- ------- --<br>------- ---------- ------ -- ----- -- ----- -- ---- ------<br>--- ----- --- --- ------ -------- ----- --- ------ ----- --<br>----- ----- ---------- --- --- ------ ------ ---- -- ------<br>------- --- ------ ----- --- ---- ------- -- ---- --- of<br>------- ------,162925.59999999963,162921,162623.772,162637.5,162640.438,162940.426,,53,of
screen,html.Screen,2_1_1_1_54,2022-04-30T10:56:40.242Z,,,,,,,,,,,,,,,,,54,,,,,,,,,,,,,,418.57399999999325,,response,,,,100,,,,,,,Space,keypress(Space),,,,,,,,-- --- ---- --- ------ ----- ------- ---- -- --- ------- --<br>------- ---------- ------ -- ----- -- ----- -- ---- ------<br>--- ----- --- --- ------ -------- ----- --- ------ ----- --<br>----- ----- ---------- --- --- ------ ------ ---- -- ------<br>------- --- ------ ----- --- ---- ------- -- ---- --- --<br>raising ------,163363.7999999998,163359,162923.76,162925.7999999998,162940.426,163373.742,,54,raising
screen,html.Screen,2_1_1_1_55,2022-04-30T10:56:40.580Z,,,,,,,,,,,,,,,,,54,,,,,,,,,,,,,,323.1579999999085,,response,,,,100,,,,,,,Space,keypress(Space),,,,,,,,-- --- ---- --- ------ ----- ------- ---- -- --- ------- --<br>------- ---------- ------ -- ----- -- ----- -- ---- ------<br>--- ----- --- --- ------ -------- ----- --- ------ ----- --<br>----- ----- ---------- --- --- ------ ------ ---- -- ------<br>------- --- ------ ----- --- ---- ------- -- ---- --- --<br>------- money.,163701.2999999998,163696.8999999999,163357.076,163363.8999999999,163373.742,163707.062,,55,money.
Item 100,flow.Loop,2_1_1_1,2022-04-30T10:56:40.580Z,,,,,,,,,,,,,,,,,,,,,,,,,,,,,,,18875.5909999999,,completion,,,,,E,,,,,,,,,,,silence,,,,,163701.59999999963,163696.8999999999,144804.643,144806.19999999972,144821.309,163707.062,,,
Question 1,html.Screen,2_1_1_2,2022-04-30T10:56:43.008Z,,,,,,,,,,,,,,,,,,,,,,,,,,,,true,TRUE,,2420.3379999999015,,response,,,,100,E,,,,,,TRUE,click #choice-1,,,,silence,,,,,166129.3999999999,166127.3999999999,163690.396,163701.69999999972,163707.062,166140.298,,,
Question 2,html.Screen,2_1_1_3,2022-04-30T10:56:47.164Z,,,,,,,,,,,,,,,,,,,,,,,,,,,,true,FALSE,,4142.901999999711,,response,,,,100,E,,,,,,FALSE,click #choice-2,,,,silence,,,,,170285.2999999998,170283.19999999972,166123.632,166129.69999999972,166140.298,170295.613,,,
Item 100,flow.Sequence,2_1_1,2022-04-30T10:56:47.164Z,,,,,,,,,,,,,,,,,,,,,,,,,,,,,,,35458.83399999971,,completion,,,,,,,,,,,,,,,,,,,,,170285.5,170283.19999999972,134807.7,134811.2999999998,134824.366,170295.613,,,
End of Practice,html.Page,2_1_2,2022-04-30T10:56:52.451Z,,,,,,,,,,,,,,,,,,,,,,,,,,,,,,,5276.686999999802,,form submission,,,,,,,,,,,,,,,,,,,,,175572.59999999963,175572.2999999998,170278.947,170285.59999999963,170295.613,175578.735,,,
Practice,flow.Sequence,2_1,2022-04-30T10:56:52.451Z,,,,,,,,,,,,,,,,,,,,,,,,,,,,,,,80258.34299999982,,completion,,,,,,,,,,,,,,,,,,,,,175572.7999999998,175572.2999999998,95297.291,95317,95313.957,175578.735,,,
Trap_instruction,html.Page,2_2_0,2022-04-30T10:56:56.219Z,,,,,,,,,,,,,,,,,,,,,,,,,,,,,,,3761.8649999996414,,form submission,,,,,,,,,,,,,,,,,,,,,179340.8999999999,179340.59999999963,175562.069,175572.8999999999,175578.735,179345.251,,,
trap_trial,html.Screen,2_2_1,2022-04-30T10:56:59.922Z,,,,,,,,,,,,,,,,,,,,,,,,,,,,true,1,,3696.4489999997313,,response,,,,,,,,,,,1,click #choice-1,,,,,,,,,183043.69999999972,183041.69999999972,179328.585,179341,179345.251,183048.289,,,
end of trap trial,html.Page,2_2_2,2022-04-30T10:57:01.812Z,,,,,,,,,,,,,,,,,,,,,,,,,,,,,,,1885.7110000000102,,form submission,,,,,,,,,,,,,,,,,,,,,184934.19999999972,184934,183031.623,183043.7999999998,183048.289,184948.213,,,
Trap 1,flow.Sequence,2_2,2022-04-30T10:57:01.813Z,,,,,,,,,,,,,,,,,,,,,,,,,,,,,,,9355.265000000014,,completion,,,,,,,,,,,,,,,,,,,,,184934.5,184934,175562.069,175572.8999999999,175578.735,184948.213,,,
Standby,html.Page,2_3_0,2022-04-30T10:57:09.812Z,,,,,,,,,,,,,,,,,,,,,,,,,,,,,,,7999.680000000022,,timeout,,,,,,,,,,,,,,,,,,,,,192933.5,192931.227,184931.547,184934.59999999963,184948.213,192947.893,,,
Holding screen,html.Screen,2_3_1_0_0,2022-04-30T10:57:16.810Z,,,,,,,,,,,,,,,,,,,,,,,,,,,,,,,6999.09599999999,,timeout,,,,,,,,,,,,,,,,,,,,,199931.8999999999,199930.323,192931.227,192933.69999999972,192947.893,199946.989,,,
screen,html.Screen,2_3_1_0_1_0,2022-04-30T10:57:17.918Z,,,,,,,,,,,,,,,,,40,,,,,,,,,,,,,,1087.2109999997192,,response,,,,9,E,,,,,,Space,keypress(Space),,,,silence,,,,Police -- ------- ---- ---- ---- - -------- ----- --- --<br>----- ----- ------ -- ---- -- --- - ---- -- - ----- -----<br>------ ---- ------ ---- - -------- ------- -- --- --------<br>-------- ----------- ---- ------ ---- ------ ---- --- ---<br>-------- --- -----,201039.3999999999,201034.19999999972,199930.323,199932.19999999972,199946.989,201046.945,,0,Police
screen,html.Screen,2_3_1_0_1_1,2022-04-30T10:57:18.260Z,,,,,,,,,,,,,,,,,40,,,,,,,,,,,,,,330.7549999997136,,response,,,,9,E,,,,,,Space,keypress(Space),,,,silence,,,,------ in ------- ---- ---- ---- - -------- ----- --- --<br>----- ----- ------ -- ---- -- --- - ---- -- - ----- -----<br>------ ---- ------ ---- - -------- ------- -- --- --------<br>-------- ----------- ---- ------ ---- ------ ---- --- ---<br>-------- --- -----,201382.19999999972,201377.69999999972,201030.279,201039.69999999972,201046.945,201396.931,,1,in
screen,html.Screen,2_3_1_0_1_2,2022-04-30T10:57:18.566Z,,,,,,,,,,,,,,,,,40,,,,,,,,,,,,,,285.7689999997092,,response,,,,9,E,,,,,,Space,keypress(Space),,,,silence,,,,------ -- Georgia ---- ---- ---- - -------- ----- --- --<br>----- ----- ------ -- ---- -- --- - ---- -- - ----- -----<br>------ ---- ------ ---- - -------- ------- -- --- --------<br>-------- ----------- ---- ------ ---- ------ ---- --- ---<br>-------- --- -----,201687.59999999963,201682.69999999972,201380.265,201382.2999999998,201396.931,201696.919,,2,Georgia
screen,html.Screen,2_3_1_0_1_3,2022-04-30T10:57:18.963Z,,,,,,,,,,,,,,,,,40,,,,,,,,,,,,,,382.7809999997262,,response,,,,9,E,,,,,,Space,keypress(Space),,,,silence,,,,------ -- ------- have ---- ---- - -------- ----- --- --<br>----- ----- ------ -- ---- -- --- - ---- -- - ----- -----<br>------ ---- ------ ---- - -------- ------- -- --- --------<br>-------- ----------- ---- ------ ---- ------ ---- --- ---<br>-------- --- -----,202085.2999999998,202079.69999999972,201680.253,201687.7999999998,201696.919,202096.903,,3,have
screen,html.Screen,2_3_1_0_1_4,2022-04-30T10:57:19.317Z,,,,,,,,,,,,,,,,,40,,,,,,,,,,,,,,336.79699999972945,,response,,,,9,E,,,,,,Space,keypress(Space),,,,silence,,,,------ -- ------- ---- shut ---- - -------- ----- --- --<br>----- ----- ------ -- ---- -- --- - ---- -- - ----- -----<br>------ ---- ------ ---- - -------- ------- -- --- --------<br>-------- ----------- ---- ------ ---- ------ ---- --- ---<br>-------- --- -----,202438.8999999999,202433.69999999972,202080.237,202085.5,202096.903,202446.889,,4,shut
screen,html.Screen,2_3_1_0_1_5,2022-04-30T10:57:19.675Z,,,,,,,,,,,,,,,,,40,,,,,,,,,,,,,,344.810999999725,,response,,,,9,E,,,,,,Space,keypress(Space),,,,silence,,,,------ -- ------- ---- ---- down - -------- ----- --- --<br>----- ----- ------ -- ---- -- --- - ---- -- - ----- -----<br>------ ---- ------ ---- - -------- ------- -- --- --------<br>-------- ----------- ---- ------ ---- ------ ---- --- ---<br>-------- --- -----,202797.2999999998,202791.69999999972,202430.223,202439,202446.889,202813.541,,5,down
screen,html.Screen,2_3_1_0_1_6,2022-04-30T10:57:19.977Z,,,,,,,,,,,,,,,,,40,,,,,,,,,,,,,,279.15899999972316,,response,,,,9,E,,,,,,Space,keypress(Space),,,,silence,,,,------ -- ------- ---- ---- ---- a -------- ----- --- --<br>----- ----- ------ -- ---- -- --- - ---- -- - ----- -----<br>------ ---- ------ ---- - -------- ------- -- --- --------<br>-------- ----------- ---- ------ ---- ------ ---- --- ---<br>-------- --- -----,203098.69999999972,203092.69999999972,202796.875,202797.3999999999,202813.541,203113.529,,6,a
screen,html.Screen,2_3_1_0_1_7,2022-04-30T10:57:20.321Z,,,,,,,,,,,,,,,,,40,,,,,,,,,,,,,,324.47099999999045,,response,,,,9,E,,,,,,Space,keypress(Space),,,,silence,,,,------ -- ------- ---- ---- ---- - lemonade ----- --- --<br>----- ----- ------ -- ---- -- --- - ---- -- - ----- -----<br>------ ---- ------ ---- - -------- ------- -- --- --------<br>-------- ----------- ---- ------ ---- ------ ---- --- ---<br>-------- --- -----,203443.09999999963,203438,203096.863,203098.7999999998,203113.529,203446.849,,7,lemonade
screen,html.Screen,2_3_1_0_1_8,2022-04-30T10:57:20.715Z,,,,,,,,,,,,,,,,,40,,,,,,,,,,,,,,384.75099999964004,,response,,,,9,E,,,,,,Space,keypress(Space),,,,silence,,,,------ -- ------- ---- ---- ---- - -------- stand --- --<br>----- ----- ------ -- ---- -- --- - ---- -- - ----- -----<br>------ ---- ------ ---- - -------- ------- -- --- --------<br>-------- ----------- ---- ------ ---- ------ ---- --- ---<br>-------- --- -----,203836.69999999972,203831.59999999963,203430.183,203443.2999999998,203446.849,203840.989,,8,stand
screen,html.Screen,2_3_1_0_1_9,2022-04-30T10:57:21.086Z,,,,,,,,,,,,,,,,,40,,,,,,,,,,,,,,362.7109999997192,,response,,,,9,E,,,,,,Space,keypress(Space),,,,silence,,,,------ -- ------- ---- ---- ---- - -------- ----- run --<br>----- ----- ------ -- ---- -- --- - ---- -- - ----- -----<br>------ ---- ------ ---- - -------- ------- -- --- --------<br>-------- ----------- ---- ------ ---- ------ ---- --- ---<br>-------- --- -----,204208.19999999972,204203.69999999972,203824.323,203837,203840.989,204224.307,,9,run
screen,html.Screen,2_3_1_0_1_10,2022-04-30T10:57:21.432Z,,,,,,,,,,,,,,,,,40,,,,,,,,,,,,,,325.1929999999993,,response,,,,9,E,,,,,,Space,keypress(Space),,,,silence,,,,------ -- ------- ---- ---- ---- - -------- ----- --- by<br>----- ----- ------ -- ---- -- --- - ---- -- - ----- -----<br>------ ---- ------ ---- - -------- ------- -- --- --------<br>-------- ----------- ---- ------ ---- ------ ---- --- ---<br>-------- --- -----,204554.09999999963,204549.5,204207.641,204208.2999999998,204224.307,204557.627,,10,by
screen,html.Screen,2_3_1_0_1_11,2022-04-30T10:57:21.757Z,,,,,,,,,,,,,,,,,40,,,,,,,,,,,,,,317.0729999997129,,response,,,,9,E,,,,,,Space,keypress(Space),,,,silence,,,,------ -- ------- ---- ---- ---- - -------- ----- --- --<br>three ----- ------ -- ---- -- --- - ---- -- - ----- -----<br>------ ---- ------ ---- - -------- ------- -- --- --------<br>-------- ----------- ---- ------ ---- ------ ---- --- ---<br>-------- --- -----,204879.3999999999,204874.69999999972,204540.961,204554.09999999963,204557.627,204890.947,,11,three
screen,html.Screen,2_3_1_0_1_12,2022-04-30T10:57:22.081Z,,,,,,,,,,,,,,,,,40,,,,,,,,,,,,,,307.75299999973504,,response,,,,9,E,,,,,,Space,keypress(Space),,,,silence,,,,------ -- ------- ---- ---- ---- - -------- ----- --- --<br>----- girls ------ -- ---- -- --- - ---- -- - ----- -----<br>------ ---- ------ ---- - -------- ------- -- --- --------<br>-------- ----------- ---- ------ ---- ------ ---- --- ---<br>-------- --- -----,205203.2999999998,205198.69999999972,204874.281,204879.59999999963,204890.947,205207.601,,12,girls
screen,html.Screen,2_3_1_0_1_13,2022-04-30T10:57:22.422Z,,,,,,,,,,,,,,,,,40,,,,,,,,,,,,,,331.99899999963236,,response,,,,9,E,,,,,,Space,keypress(Space),,,,silence,,,,------ -- ------- ---- ---- ---- - -------- ----- --- --<br>----- ----- trying -- ---- -- --- - ---- -- - ----- -----<br>------ ---- ------ ---- - -------- ------- -- --- --------<br>-------- ----------- ---- ------ ---- ------ ---- --- ---<br>-------- --- -----,205544.19999999972,205539.59999999963,205190.935,205203.5,205207.601,205557.587,,13,trying
screen,html.Screen,2_3_1_0_1_14,2022-04-30T10:57:22.742Z,,,,,,,,,,,,,,,,,40,,,,,,,,,,,,,,302.01299999962794,,response,,,,9,E,,,,,,Space,keypress(Space),,,,silence,,,,------ -- ------- ---- ---- ---- - -------- ----- --- --<br>----- ----- ------ to ---- -- --- - ---- -- - ----- -----<br>------ ---- ------ ---- - -------- ------- -- --- --------<br>-------- ----------- ---- ------ ---- ------ ---- --- ---<br>-------- --- -----,205864.09999999963,205859.59999999963,205540.921,205544.2999999998,205557.587,205874.241,,14,to
screen,html.Screen,2_3_1_0_1_15,2022-04-30T10:57:23.064Z,,,,,,,,,,,,,,,,,40,,,,,,,,,,,,,,307.3589999996184,,response,,,,9,E,,,,,,Space,keypress(Space),,,,silence,,,,------ -- ------- ---- ---- ---- - -------- ----- --- --<br>----- ----- ------ -- save -- --- - ---- -- - ----- -----<br>------ ---- ------ ---- - -------- ------- -- --- --------<br>-------- ----------- ---- ------ ---- ------ ---- --- ---<br>-------- --- -----,206185.8999999999,206181.59999999963,205857.575,205864.2999999998,205874.241,206190.895,,15,save
screen,html.Screen,2_3_1_0_1_16,2022-04-30T10:57:23.379Z,,,,,,,,,,,,,,,,,40,,,,,,,,,,,,,,305.70499999963795,,response,,,,9,E,,,,,,Space,keypress(Space),,,,silence,,,,------ -- ------- ---- ---- ---- - -------- ----- --- --<br>----- ----- ------ -- ---- up --- - ---- -- - ----- -----<br>------ ---- ------ ---- - -------- ------- -- --- --------<br>-------- ----------- ---- ------ ---- ------ ---- --- ---<br>-------- --- -----,206501.2999999998,206496.59999999963,206174.229,206186.09999999963,206190.895,206507.549,,16,up
screen,html.Screen,2_3_1_0_1_17,2022-04-30T10:57:23.685Z,,,,,,,,,,,,,,,,,40,,,,,,,,,,,,,,295.0509999996284,,response,,,,9,E,,,,,,Space,keypress(Space),,,,silence,,,,------ -- ------- ---- ---- ---- - -------- ----- --- --<br>----- ----- ------ -- ---- -- for - ---- -- - ----- -----<br>------ ---- ------ ---- - -------- ------- -- --- --------<br>-------- ----------- ---- ------ ---- ------ ---- --- ---<br>-------- --- -----,206807.2999999998,206802.59999999963,206490.883,206501.5,206507.549,206824.203,,17,for
screen,html.Screen,2_3_1_0_1_18,2022-04-30T10:57:23.984Z,,,,,,,,,,,,,,,,,40,,,,,,,,,,,,,,277.2969999999914,,response,,,,9,E,,,,,,Space,keypress(Space),,,,silence,,,,------ -- ------- ---- ---- ---- - -------- ----- --- --<br>----- ----- ------ -- ---- -- --- a ---- -- - ----- -----<br>------ ---- ------ ---- - -------- ------- -- --- --------<br>-------- ----------- ---- ------ ---- ------ ---- --- ---<br>-------- --- -----,207105.7999999998,207101.5,206807.537,206807.3999999999,206824.203,207107.525,,18,a
screen,html.Screen,2_3_1_0_1_19,2022-04-30T10:57:24.278Z,,,,,,,,,,,,,,,,,40,,,,,,,,,,,,,,288.0749999996333,,response,,,,9,E,,,,,,Space,keypress(Space),,,,silence,,,,------ -- ------- ---- ---- ---- - -------- ----- --- --<br>----- ----- ------ -- ---- -- --- - trip -- - ----- -----<br>------ ---- ------ ---- - -------- ------- -- --- --------<br>-------- ----------- ---- ------ ---- ------ ---- --- ---<br>-------- --- -----,207399.7999999998,207395.59999999963,207090.859,207105.8999999999,207107.525,207407.513,,19,trip
screen,html.Screen,2_3_1_0_1_20,2022-04-30T10:57:24.603Z,,,,,,,,,,,,,,,,,40,,,,,,,,,,,,,,312.9869999999937,,response,,,,9,E,,,,,,Space,keypress(Space),,,,silence,,,,------ -- ------- ---- ---- ---- - -------- ----- --- --<br>----- ----- ------ -- ---- -- --- - ---- to - ----- -----<br>------ ---- ------ ---- - -------- ------- -- --- --------<br>-------- ----------- ---- ------ ---- ------ ---- --- ---<br>-------- --- -----,207725.19999999972,207720.5,207390.847,207400,207407.513,207740.833,,20,to
screen,html.Screen,2_3_1_0_1_21,2022-04-30T10:57:24.888Z,,,,,,,,,,,,,,,,,40,,,,,,,,,,,,,,264.7669999996142,,response,,,,9,E,,,,,,Space,keypress(Space),,,,silence,,,,------ -- ------- ---- ---- ---- - -------- ----- --- --<br>----- ----- ------ -- ---- -- --- - ---- -- a ----- -----<br>------ ---- ------ ---- - -------- ------- -- --- --------<br>-------- ----------- ---- ------ ---- ------ ---- --- ---<br>-------- --- -----,208010.2999999998,208005.59999999963,207724.167,207725.2999999998,207740.833,208024.155,,21,a
screen,html.Screen,2_3_1_0_1_22,2022-04-30T10:57:25.199Z,,,,,,,,,,,,,,,,,40,,,,,,,,,,,,,,292.44499999962864,,response,,,,9,E,,,,,,Space,keypress(Space),,,,silence,,,,------ -- ------- ---- ---- ---- - -------- ----- --- --<br>----- ----- ------ -- ---- -- --- - ---- -- - water -----<br>------ ---- ------ ---- - -------- ------- -- --- --------<br>-------- ----------- ---- ------ ---- ------ ---- --- ---<br>-------- --- -----,208321.19999999972,208316.59999999963,208007.489,208010.5,208024.155,208324.143,,22,water
screen,html.Screen,2_3_1_0_1_23,2022-04-30T10:57:25.511Z,,,,,,,,,,,,,,,,,40,,,,,,,,,,,,,,304.4569999996165,,response,,,,9,E,,,,,,Space,keypress(Space),,,,silence,,,,"------ -- ------- ---- ---- ---- - -------- ----- --- --<br>----- ----- ------ -- ---- -- --- - ---- -- - ----- park,<br>------ ---- ------ ---- - -------- ------- -- --- --------<br>-------- ----------- ---- ------ ---- ------ ---- --- ---<br>-------- --- -----",208633.2999999998,208628.59999999963,208307.477,208321.2999999998,208324.143,208640.797,,23,"park,"
screen,html.Screen,2_3_1_0_1_24,2022-04-30T10:57:25.811Z,,,,,,,,,,,,,,,,,40,,,,,,,,,,,,,,287.8029999996361,,response,,,,9,E,,,,,,Space,keypress(Space),,,,silence,,,,------ -- ------- ---- ---- ---- - -------- ----- --- --<br>----- ----- ------ -- ---- -- --- - ---- -- - ----- -----<br>saying ---- ------ ---- - -------- ------- -- --- --------<br>-------- ----------- ---- ------ ---- ------ ---- --- ---<br>-------- --- -----,208933.3999999999,208928.59999999963,208624.131,208633.3999999999,208640.797,208940.785,,24,saying
screen,html.Screen,2_3_1_0_1_25,2022-04-30T10:57:26.149Z,,,,,,,,,,,,,,,,,40,,,,,,,,,,,,,,325.6149999999034,,response,,,,9,E,,,,,,Space,keypress(Space),,,,silence,,,,------ -- ------- ---- ---- ---- - -------- ----- --- --<br>----- ----- ------ -- ---- -- --- - ---- -- - ----- -----<br>------ they ------ ---- - -------- ------- -- --- --------<br>-------- ----------- ---- ------ ---- ------ ---- --- ---<br>-------- --- -----,209271.19999999972,209266.3999999999,208924.119,208933.5,208940.785,209274.105,,25,they
screen,html.Screen,2_3_1_0_1_26,2022-04-30T10:57:26.470Z,,,,,,,,,,,,,,,,,40,,,,,,,,,,,,,,313.3949999999895,,response,,,,9,E,,,,,,Space,keypress(Space),,,,silence,,,,------ -- ------- ---- ---- ---- - -------- ----- --- --<br>----- ----- ------ -- ---- -- --- - ---- -- - ----- -----<br>------ ---- didn't ---- - -------- ------- -- --- --------<br>-------- ----------- ---- ------ ---- ------ ---- --- ---<br>-------- --- -----,209592.19999999972,209587.5,209257.439,209271.2999999998,209274.105,209607.425,,26,didn't
screen,html.Screen,2_3_1_0_1_27,2022-04-30T10:57:26.762Z,,,,,,,,,,,,,,,,,40,,,,,,,,,,,,,,272.3749999998254,,response,,,,9,E,,,,,,Space,keypress(Space),,,,silence,,,,------ -- ------- ---- ---- ---- - -------- ----- --- --<br>----- ----- ------ -- ---- -- --- - ---- -- - ----- -----<br>------ ---- ------ have - -------- ------- -- --- --------<br>-------- ----------- ---- ------ ---- ------ ---- --- ---<br>-------- --- -----,209884.09999999963,209879.7999999998,209590.759,209592.2999999998,209607.425,209890.747,,27,have
screen,html.Screen,2_3_1_0_1_28,2022-04-30T10:57:27.081Z,,,,,,,,,,,,,,,,,40,,,,,,,,,,,,,,306.5529999998107,,response,,,,9,E,,,,,,Space,keypress(Space),,,,silence,,,,------ -- ------- ---- ---- ---- - -------- ----- --- --<br>----- ----- ------ -- ---- -- --- - ---- -- - ----- -----<br>------ ---- ------ ---- a -------- ------- -- --- --------<br>-------- ----------- ---- ------ ---- ------ ---- --- ---<br>-------- --- -----,210203.2999999998,210197.2999999998,209874.081,209884.19999999972,209890.747,210207.401,,28,a
screen,html.Screen,2_3_1_0_1_29,2022-04-30T10:57:27.390Z,,,,,,,,,,,,,,,,,40,,,,,,,,,,,,,,299.1989999996149,,response,,,,9,E,,,,,,Space,keypress(Space),,,,silence,,,,------ -- ------- ---- ---- ---- - -------- ----- --- --<br>----- ----- ------ -- ---- -- --- - ---- -- - ----- -----<br>------ ---- ------ ---- - business ------- -- --- --------<br>-------- ----------- ---- ------ ---- ------ ---- --- ---<br>-------- --- -----,210511.8999999999,210506.59999999963,210190.735,210203.3999999999,210207.401,210524.055,,29,business
screen,html.Screen,2_3_1_0_1_30,2022-04-30T10:57:27.719Z,,,,,,,,,,,,,,,,,40,,,,,,,,,,,,,,312.34499999991385,,response,,,,9,E,,,,,,Space,keypress(Space),,,,silence,,,,------ -- ------- ---- ---- ---- - -------- ----- --- --<br>----- ----- ------ -- ---- -- --- - ---- -- - ----- -----<br>------ ---- ------ ---- - -------- license -- --- --------<br>-------- ----------- ---- ------ ---- ------ ---- --- ---<br>-------- --- -----,210841.3999999999,210836.3999999999,210507.389,210512.09999999963,210524.055,210857.375,,30,license
screen,html.Screen,2_3_1_0_1_31,2022-04-30T10:57:28.052Z,,,,,,,,,,,,,,,,,40,,,,,,,,,,,,,,311.22499999962747,,response,,,,9,E,,,,,,Space,keypress(Space),,,,silence,,,,------ -- ------- ---- ---- ---- - -------- ----- --- --<br>----- ----- ------ -- ---- -- --- - ---- -- - ----- -----<br>------ ---- ------ ---- - -------- ------- or --- --------<br>-------- ----------- ---- ------ ---- ------ ---- --- ---<br>-------- --- -----,211173.8999999999,211168.59999999963,210840.709,210841.59999999963,210857.375,211190.695,,31,or
screen,html.Screen,2_3_1_0_1_32,2022-04-30T10:57:28.367Z,,,,,,,,,,,,,,,,,40,,,,,,,,,,,,,,293.2049999998999,,response,,,,9,E,,,,,,Space,keypress(Space),,,,silence,,,,------ -- ------- ---- ---- ---- - -------- ----- --- --<br>----- ----- ------ -- ---- -- --- - ---- -- - ----- -----<br>------ ---- ------ ---- - -------- ------- -- the --------<br>-------- ----------- ---- ------ ---- ------ ---- --- ---<br>-------- --- -----,211489.5,211483.8999999999,211174.029,211174,211190.695,211490.683,,32,the
screen,html.Screen,2_3_1_0_1_33,2022-04-30T10:57:28.696Z,,,,,,,,,,,,,,,,,40,,,,,,,,,,,,,,322.7169999999169,,response,,,,9,E,,,,,,Space,keypress(Space),,,,silence,,,,------ -- ------- ---- ---- ---- - -------- ----- --- --<br>----- ----- ------ -- ---- -- --- - ---- -- - ----- -----<br>------ ---- ------ ---- - -------- ------- -- --- required<br>-------- ----------- ---- ------ ---- ------ ---- --- ---<br>-------- --- -----,211818.3999999999,211813.3999999999,211474.017,211489.69999999972,211490.683,211824.003,,33,required
screen,html.Screen,2_3_1_0_1_34,2022-04-30T10:57:28.999Z,,,,,,,,,,,,,,,,,40,,,,,,,,,,,,,,291.3969999999099,,response,,,,9,E,,,,,,Space,keypress(Space),,,,silence,,,,------ -- ------- ---- ---- ---- - -------- ----- --- --<br>----- ----- ------ -- ---- -- --- - ---- -- - ----- -----<br>------ ---- ------ ---- - -------- ------- -- --- --------<br>permits. ----------- ---- ------ ---- ------ ---- --- ---<br>-------- --- -----,212120.8999999999,212115.3999999999,211807.337,211818.5,211824.003,212123.991,,34,permits.
screen,html.Screen,2_3_1_0_1_35,2022-04-30T10:57:29.302Z,,,,,,,,,,,,,,,,,40,,,,,,,,,,,,,,295.4089999998978,,response,,,,9,E,,,,,,Space,keypress(Space),,,,silence,,,,------ -- ------- ---- ---- ---- - -------- ----- --- --<br>----- ----- ------ -- ---- -- --- - ---- -- - ----- -----<br>------ ---- ------ ---- - -------- ------- -- --- --------<br>-------- Morningstar ---- ------ ---- ------ ---- --- ---<br>-------- --- -----,212424,212419.3999999999,212107.325,212120.8999999999,212123.991,212440.645,,35,Morningstar
screen,html.Screen,2_3_1_0_1_36,2022-04-30T10:57:29.704Z,,,,,,,,,,,,,,,,,40,,,,,,,,,,,,,,380.75499999991735,,response,,,,9,E,,,,,,Space,keypress(Space),,,,silence,,,,------ -- ------- ---- ---- ---- - -------- ----- --- --<br>----- ----- ------ -- ---- -- --- - ---- -- - ----- -----<br>------ ---- ------ ---- - -------- ------- -- --- --------<br>-------- ----------- says ------ ---- ------ ---- --- ---<br>-------- --- -----,212826.19999999972,212821.3999999999,212423.979,212424.19999999972,212440.645,212840.629,,36,says
screen,html.Screen,2_3_1_0_1_37,2022-04-30T10:57:30.049Z,,,,,,,,,,,,,,,,,40,,,,,,,,,,,,,,325.7709999999206,,response,,,,9,E,,,,,,Space,keypress(Space),,,,silence,,,,------ -- ------- ---- ---- ---- - -------- ----- --- --<br>----- ----- ------ -- ---- -- --- - ---- -- - ----- -----<br>------ ---- ------ ---- - -------- ------- -- --- --------<br>-------- ----------- ---- police ---- ------ ---- --- ---<br>-------- --- -----,213170.5,213166.3999999999,212823.963,212826.3999999999,212840.629,213173.949,,37,police
screen,html.Screen,2_3_1_0_1_38,2022-04-30T10:57:30.355Z,,,,,,,,,,,,,,,,,40,,,,,,,,,,,,,,298.4509999999136,,response,,,,9,E,,,,,,Space,keypress(Space),,,,silence,,,,------ -- ------- ---- ---- ---- - -------- ----- --- --<br>----- ----- ------ -- ---- -- --- - ---- -- - ----- -----<br>------ ---- ------ ---- - -------- ------- -- --- --------<br>-------- ----------- ---- ------ also ------ ---- --- ---<br>-------- --- -----,213476.59999999963,213472.3999999999,213157.283,213170.59999999963,213173.949,213490.603,,38,also
screen,html.Screen,2_3_1_0_1_39,2022-04-30T10:57:30.692Z,,,,,,,,,,,,,,,,,40,,,,,,,,,,,,,,317.7969999999041,,response,,,,9,E,,,,,,Space,keypress(Space),,,,silence,,,,------ -- ------- ---- ---- ---- - -------- ----- --- --<br>----- ----- ------ -- ---- -- --- - ---- -- - ----- -----<br>------ ---- ------ ---- - -------- ------- -- --- --------<br>-------- ----------- ---- ------ ---- didn't ---- --- ---<br>-------- --- -----,213814.5,213808.3999999999,213473.937,213476.7999999998,213490.603,213828.2,,39,didn't
screen,html.Screen,2_3_1_0_1_40,2022-04-30T10:57:30.986Z,,,,,,,,,,,,,,,,,40,,,,,,,,,,,,,,275.1999999998952,,response,,,,9,E,,,,,,Space,keypress(Space),,,,silence,,,,------ -- ------- ---- ---- ---- - -------- ----- --- --<br>----- ----- ------ -- ---- -- --- - ---- -- - ----- -----<br>------ ---- ------ ---- - -------- ------- -- --- --------<br>-------- ----------- ---- ------ ---- ------ know --- ---<br>-------- --- -----,214108.5,214103.3999999999,213811.534,213814.59999999963,213828.2,214111.522,,40,know
screen,html.Screen,2_3_1_0_1_41,2022-04-30T10:57:31.317Z,,,,,,,,,,,,,,,,,40,,,,,,,,,,,,,,322.87799999990966,,response,,,,9,E,,,,,,Space,keypress(Space),,,,silence,,,,------ -- ------- ---- ---- ---- - -------- ----- --- --<br>----- ----- ------ -- ---- -- --- - ---- -- - ----- -----<br>------ ---- ------ ---- - -------- ------- -- --- --------<br>-------- ----------- ---- ------ ---- ------ ---- how ---<br>-------- --- -----,214438.8999999999,214434.3999999999,214094.856,214108.69999999972,214111.522,214444.842,,41,how
screen,html.Screen,2_3_1_0_1_42,2022-04-30T10:57:31.642Z,,,,,,,,,,,,,,,,,40,,,,,,,,,,,,,,313.5579999999027,,response,,,,9,E,,,,,,Space,keypress(Space),,,,silence,,,,------ -- ------- ---- ---- ---- - -------- ----- --- --<br>----- ----- ------ -- ---- -- --- - ---- -- - ----- -----<br>------ ---- ------ ---- - -------- ------- -- --- --------<br>-------- ----------- ---- ------ ---- ------ ---- --- the<br>-------- --- -----,214764.2999999998,214758.3999999999,214428.176,214439,214444.842,214778.162,,42,the
screen,html.Screen,2_3_1_0_1_43,2022-04-30T10:57:31.950Z,,,,,,,,,,,,,,,,,40,,,,,,,,,,,,,,288.13799999980256,,response,,,,9,E,,,,,,Space,keypress(Space),,,,silence,,,,------ -- ------- ---- ---- ---- - -------- ----- --- --<br>----- ----- ------ -- ---- -- --- - ---- -- - ----- -----<br>------ ---- ------ ---- - -------- ------- -- --- --------<br>-------- ----------- ---- ------ ---- ------ ---- --- ---<br>lemonade --- -----,215072.2999999998,215066.2999999998,214761.496,214764.5,214778.162,215078.15,,43,lemonade
screen,html.Screen,2_3_1_0_1_44,2022-04-30T10:57:32.312Z,,,,,,,,,,,,,,,,,40,,,,,,,,,,,,,,351.2499999999127,,response,,,,9,E,,,,,,Space,keypress(Space),,,,silence,,,,------ -- ------- ---- ---- ---- - -------- ----- --- --<br>----- ----- ------ -- ---- -- --- - ---- -- - ----- -----<br>------ ---- ------ ---- - -------- ------- -- --- --------<br>-------- ----------- ---- ------ ---- ------ ---- --- ---<br>-------- was -----,215433.8999999999,215429.3999999999,215061.484,215072.2999999998,215078.15,215444.802,,44,was
screen,html.Screen,2_3_1_0_1_45,2022-04-30T10:57:32.660Z,,,,,,,,,,,,,,,,,40,,,,,,,,,,,,,,332.4979999998177,,response,,,,9,E,,,,,,Space,keypress(Space),,,,silence,,,,------ -- ------- ---- ---- ---- - -------- ----- --- --<br>----- ----- ------ -- ---- -- --- - ---- -- - ----- -----<br>------ ---- ------ ---- - -------- ------- -- --- --------<br>-------- ----------- ---- ------ ---- ------ ---- --- ---<br>-------- --- made.,215782.5,215777.2999999998,215428.136,215434.09999999963,215444.802,215794.788,,45,made.
Item 9,flow.Loop,2_3_1_0_1,2022-04-30T10:57:32.661Z,,,,,,,,,,,,,,,,,,,,,,,,,,,,,,,15830.310999999812,,completion,,,,,,,,,,,,,,,,,,,,,215782.69999999972,215777.2999999998,199930.323,199932,199946.989,215794.788,,,
Question 1,html.Screen,2_3_1_0_2,2022-04-30T10:57:35.076Z,,,,,,,,,,,,,,,,,,,,,,,,,,,,true,FALSE,,2401.811999999627,,response,,,,9,E,,,,,,FALSE,click #choice-2,,,,silence,,,,,218198.5,218196.59999999963,215778.122,215782.8999999999,215794.788,218211.358,,,
Question 2,html.Screen,2_3_1_0_3,2022-04-30T10:57:37.447Z,,,,,,,,,,,,,,,,,,,,,,,,,,,,true,FALSE,,2355.1419999999925,,response,,,,9,E,,,,,,FALSE,click #choice-2,,,,silence,,,,,220569,220566.5,218194.692,218198.59999999963,218211.358,220577.93,,,
Item 9,flow.Sequence,2_3_1_0,2022-04-30T10:57:37.447Z,,,,,,,,,,,,,,,,,,,,,,,,,,,,,,,27618.60699999999,,completion,,,,,,,,,,,,,,,,,,,,,220569.19999999972,220566.5,192931.227,192933.69999999972,192947.893,220577.93,,,
