sender,sender_type,sender_id,timestamp,meta,,Blues,Classical,Country,Dance,Electronic,Folk,Gospel,Hip-Hop,Jazz,Latin,Musical/Film,New-age,Pop,Prolific_id,Provo_ID,R&B,Rap,Reggae,Religious,Rock,Soul,Swing,Traditional,age,artist_name,correct,correctResponse,distraction,duration,education,ended_on,familiarity,gender,headphone_check_performance,item,list,music_frequency,offensiveness,pleasantness,position_correct,preference,response,response_action,snippet_file,song_name,song_rating,sound,stimulus_1,stimulus_2,stimulus_3,text,time_commit,time_end,time_render,time_run,time_show,time_switch,url,word,word_ID
Prolific ID,html.Form,0,2022-05-02T10:31:59.010Z,"{""labjs_version"":""20.2.2"",""labjs_build"":{""flavor"":""production"",""commit"":""a25486e0c714a0ae2ce03ff94b7bb6896854dcfa""},""location"":""https://run.pavlovia.org/mvasilev/prolific3_music_f/"",""userAgent"":""Mozilla/5.0 (Macintosh; Intel Mac OS X 10_13_6) AppleWebKit/537.36 (KHTML, like Gecko) Chrome/100.0.4896.127 Safari/537.36"",""platform"":""MacIntel"",""language"":""en-GB"",""locale"":""en-GB"",""timeZone"":""Europe/London"",""timezoneOffset"":-60,""screen_width"":1280,""screen_height"":800,""scroll_width"":1280,""scroll_height"":610,""window_innerWidth"":1280,""window_innerHeight"":658,""devicePixelRatio"":2}",,,,,,,,,,,,,,,5d3ef33e8da0790017c90e08,,,,,,,,,,,,,,,5269.190000005961,,form submission,,,,,,,,,,,,,,,,,,,,,13962.59999999404,13961.90000000596,8675.997,8680.90000000596,8692.71,13979.206,{},,
Introduction,html.Screen,1_0,2022-05-02T10:32:12.152Z,,,,,,,,,,,,,,,,,,,,,,,,,,,,,,,13122.19400000596,,response,,,,,,,,,,,continue,click button,,,,,,,,,27104.59999999404,27101.40000000596,13962.493,13963,13979.206,27115.624,,,
Volume calibration,html.Screen,1_1,2022-05-02T10:32:28.449Z,,,,,,,,,,,,,,,,,,,,,,,,,,,,,,,16281.676000011921,,response,,,,,,,,,,,continue,click button,,,,,,,,,43402.30000001192,43397.30000001192,27098.911,27104.69999998808,27115.624,43410.172,,,
Task instructions,html.Screen,1_2,2022-05-02T10:32:36.855Z,,,,,,,,,,,,,,,,,,,,,,,,,,,,,,,8396.628000011922,,response,,,,,,,,,,,continue,click button,,,,,,,,,51808.09999999404,51806.80000001192,43393.459,43402.5,43410.172,51822.917,,,
Sounds,html.Screen,1_3_0_0,2022-05-02T10:32:41.101Z,,,,,,,,,,,,,,,,,,,,,,,,,,,,,,,4245.101999999999,,timeout,,,,,,,,,1,,,,,,,,S,I,O,,56054.5,56051.306,51806.204,51808.40000000596,51822.917,56068.019,,,
Judgement,html.Screen,1_3_0_1,2022-05-02T10:32:41.874Z,,,,,,,,,,,,,,,,,,,,,,,,,,,,true,1,,757.7810000119207,,response,,,,,,,,,1,,1,click #choice-1,,,,,S,I,O,,56827.40000000596,56825.80000001192,56051.306,56054.69999998808,56068.019,56853.53,,,
Trial,flow.Sequence,1_3_0,2022-05-02T10:32:41.875Z,,,,,,,,,,,,,,,,,,,,,,,,,,,,,,,5002.88300001192,,completion,,,,,,,,,1,,,,,,,,S,I,O,,56827.69999998808,56825.80000001192,51806.204,51808.40000000596,51822.917,56853.53,,,
Sounds,html.Screen,1_3_1_0,2022-05-02T10:32:46.130Z,,,,,,,,,,,,,,,,,,,,,,,,,,,,,,,4245.101999999999,,timeout,,,,,,,,,1,,,,,,,,S,O,I,,61082.80000001192,61081.919,56836.817,56828,56853.53,61098.632,,,
Judgement,html.Screen,1_3_1_1,2022-05-02T10:32:46.569Z,,,,,,,,,,,,,,,,,,,,,,,,,,,,true,1,,421.96799999404175,,response,,,,,,,,,1,,1,click #choice-1,,,,,S,O,I,,61522.30000001192,61520.59999999404,61081.919,61082.90000000596,61098.632,61533.17,,,
Trial,flow.Sequence,1_3_1,2022-05-02T10:32:46.569Z,,,,,,,,,,,,,,,,,,,,,,,,,,,,,,,4667.069999994041,,completion,,,,,,,,,1,,,,,,,,S,O,I,,61522.5,61520.59999999404,56836.817,56827.80000001192,56853.53,61533.17,,,
Sounds,html.Screen,1_3_2_0,2022-05-02T10:32:50.815Z,,,,,,,,,,,,,,,,,,,,,,,,,,,,,,,4250.600000000006,,timeout,,,,,,,,,2,,,,,,,,I,S,O,,65768.59999999404,65767.057,61516.457,61522.69999998808,61533.17,65783.77,,,
Judgement,html.Screen,1_3_2_1,2022-05-02T10:32:51.305Z,,,,,,,,,,,,,,,,,,,,,,,,,,,,true,2,,473.429999988075,,response,,,,,,,,,2,,2,click #choice-2,,,,,I,S,O,,66258.69999998808,66257.19999998808,65767.057,65768.80000001192,65783.77,66285.16,,,
Trial,flow.Sequence,1_3_2,2022-05-02T10:32:51.305Z,,,,,,,,,,,,,,,,,,,,,,,,,,,,,,,4724.029999988081,,completion,,,,,,,,,2,,,,,,,,I,S,O,,66258.90000000596,66257.19999998808,61516.457,61522.69999998808,61533.17,66285.16,,,
Sounds,html.Screen,1_3_3_0,2022-05-02T10:32:55.563Z,,,,,,,,,,,,,,,,,,,,,,,,,,,,,,,4245.101999999999,,timeout,,,,,,,,,3,,,,,,,,O,I,S,,70516.09999999404,70513.549,66268.447,66259.09999999404,66285.16,70530.262,,,
Judgement,html.Screen,1_3_3_1,2022-05-02T10:32:55.927Z,,,,,,,,,,,,,,,,,,,,,,,,,,,,true,3,,349.138000005958,,response,,,,,,,,,3,,3,click #choice-3,,,,,O,I,S,,70881,70879.40000000596,70513.549,70516.19999998808,70530.262,70897.948,,,
Trial,flow.Sequence,1_3_3,2022-05-02T10:32:55.928Z,,,,,,,,,,,,,,,,,,,,,,,,,,,,,,,4594.240000005957,,completion,,,,,,,,,3,,,,,,,,O,I,S,,70881.19999998808,70879.40000000596,66268.447,66259,66285.16,70897.948,,,
Sounds,html.Screen,1_3_4_0,2022-05-02T10:33:00.175Z,,,,,,,,,,,,,,,,,,,,,,,,,,,,,,,4245.101999999999,,timeout,,,,,,,,,3,,,,,,,,I,O,S,,75128.30000001192,75126.337,70881.235,70881.19999998808,70897.948,75143.05,,,
Judgement,html.Screen,1_3_4_1,2022-05-02T10:33:00.482Z,,,,,,,,,,,,,,,,,,,,,,,,,,,,true,3,,290.64999998807616,,response,,,,,,,,,3,,3,click #choice-3,,,,,I,O,S,,75435.30000001192,75433.69999998808,75126.337,75128.40000000596,75143.05,75460.597,,,
Trial,flow.Sequence,1_3_4,2022-05-02T10:33:00.482Z,,,,,,,,,,,,,,,,,,,,,,,,,,,,,,,4535.751999988075,,completion,,,,,,,,,3,,,,,,,,I,O,S,,75435.40000000596,75433.69999998808,70881.235,70881.19999998808,70897.948,75460.597,,,
Sounds,html.Screen,1_3_5_0,2022-05-02T10:33:04.744Z,,,,,,,,,,,,,,,,,,,,,,,,,,,,,,,4251.952000000005,,timeout,,,,,,,,,2,,,,,,,,O,S,I,,79697.30000001192,79695.836,75443.884,75435.59999999404,75460.597,79712.549,,,
Judgement,html.Screen,1_3_5_1,2022-05-02T10:33:05.116Z,,,,,,,,,,,,,,,,,,,,,,,,,,,,true,2,,355.05099999404047,,response,,,,,,,,,2,,2,click #choice-2,,,,,O,S,I,,80069.5,80067.59999999404,79695.836,79697.40000000596,79712.549,80080.235,,,
Trial,flow.Sequence,1_3_5,2022-05-02T10:33:05.116Z,,,,,,,,,,,,,,,,,,,,,,,,,,,,,,,4607.002999994045,,completion,,,,,,,,,2,,,,,,,,O,S,I,,80069.59999999404,80067.59999999404,75443.884,75435.59999999404,75460.597,80080.235,,,
Task,flow.Loop,1_3,2022-05-02T10:33:05.122Z,,,,,,,,,,,,,,,,,,,,,,,,,,,,,,,28244.68299999404,,completion,,,1,,,,,,,,,,,,,,,,,,80076.19999998808,80067.59999999404,51806.204,51808.30000001192,51822.917,80080.235,,,
Trap,html.Screen,1_4,2022-05-02T10:33:05.124Z,,,,,,,,,,,,,,,,,,,,,,,,,,,,,,,NaN,,skipped,,,,,,,,,,,,,,,,,,,,,80077.5,80067.59999999404,,80077.40000000596,,80080.235,,,
Thanks,html.Screen,1_5,2022-05-02T10:33:08.909Z,,,,,,,,,,,,,,,,,,,,,,,,,,,,,,,3781.4649999880785,,response,,,,,,,,,,,continue,click button,,,,,,,,,83863.09999999404,83861.69999998808,80063.522,80077.59999999404,80080.235,86180.48,,,
Headphone screening,flow.Sequence,1,2022-05-02T10:33:08.909Z,,,,,,,,,,,,,,,,,,,,,,,,,,,,,,,69882.49399998807,,completion,,,,,,,,,,,,,,,,,,,,,83863.19999998808,83861.69999998808,13962.493,13963,13979.206,86180.48,,,
Instructions,html.Page,2_0,2022-05-02T10:33:25.678Z,,,,,,,,,,,,,,,,,,,,,,,,,,,,,,,14451.619999994044,,form submission,,,,,,,,,,,,,,,,,,,,,100632.40000000596,100632.09999999404,86163.767,86174.40000000596,86180.48,100642.553,,,
Holding screen,html.Screen,2_1_0_0,2022-05-02T10:33:35.675Z,,,,,,,,,,,,,,,,,,,,,,,,,,,,,,,10001.331999999995,,timeout,,,,,,,,,,,,,,,,,,,,,110629.5,110627.172,100625.84,100632.59999999404,100642.553,110643.885,,,
screen,html.Screen,2_1_0_1_0,2022-05-02T10:33:36.842Z,,,,,,,,,,,,,,,,,53,,,,,,,,,,,,,,1148.0150000059657,,response,,,,99,,,,,,,Space,keypress(Space),,,,,,,,When -- ----- -- ------ - ------- --- ----------<br>------------- ------ ------ ---- ---- ------- ----- -- ----<br>-------- ------- -- ---------- --- - --- ----- ----- ----<br>---- --- --- ----- --- ---- ---- ------- ----- ---- -------<br>--- --- -- ----- -- --- ---- -- --- ---- -- ------ ------<br>--- ----- -- ----,111796.5,111791.90000000596,110627.172,110629.69999998808,110643.885,111797.082,,0,When
screen,html.Screen,2_1_0_1_1,2022-05-02T10:33:37.361Z,,,,,,,,,,,,,,,,,53,,,,,,,,,,,,,,514.8180000059656,,response,,,,99,,,,,,,Space,keypress(Space),,,,,,,,---- it ----- -- ------ - ------- --- ----------<br>------------- ------ ------ ---- ---- ------- ----- -- ----<br>-------- ------- -- ---------- --- - --- ----- ----- ----<br>---- --- --- ----- --- ---- ---- ------- ----- ---- -------<br>--- --- -- ----- -- --- ---- -- --- ---- -- ------ ------<br>--- ----- -- ----,112315.19999998808,112311.90000000596,111780.369,111796.59999999404,111797.082,112320.133,,1,it
screen,html.Screen,2_1_0_1_2,2022-05-02T10:33:37.904Z,,,,,,,,,,,,,,,,,53,,,,,,,,,,,,,,535.7670000059588,,response,,,,99,,,,,,,Space,keypress(Space),,,,,,,,---- -- comes -- ------ - ------- --- ----------<br>------------- ------ ------ ---- ---- ------- ----- -- ----<br>-------- ------- -- ---------- --- - --- ----- ----- ----<br>---- --- --- ----- --- ---- ---- ------- ----- ---- -------<br>--- --- -- ----- -- --- ---- -- --- ---- -- ------ ------<br>--- ----- -- ----,112858.59999999404,112855.90000000596,112303.42,112315.59999999404,112320.133,112871.662,,2,comes
screen,html.Screen,2_1_0_1_3,2022-05-02T10:33:38.328Z,,,,,,,,,,,,,,,,,53,,,,,,,,,,,,,,408.23800000596384,,response,,,,99,,,,,,,Space,keypress(Space),,,,,,,,---- -- ----- to ------ - ------- --- ----------<br>------------- ------ ------ ---- ---- ------- ----- -- ----<br>-------- ------- -- ---------- --- - --- ----- ----- ----<br>---- --- --- ----- --- ---- ---- ------- ----- ---- -------<br>--- --- -- ----- -- --- ---- -- --- ---- -- ------ ------<br>--- ----- -- ----,113282.19999998808,113279.90000000596,112854.949,112858.69999998808,112871.662,113289.487,,3,to
screen,html.Screen,2_1_0_1_4,2022-05-02T10:33:38.720Z,,,,,,,,,,,,,,,,,53,,,,,,,,,,,,,,382.41300000596675,,response,,,,99,,,,,,,Space,keypress(Space),,,,,,,,---- -- ----- -- having - ------- --- ----------<br>------------- ------ ------ ---- ---- ------- ----- -- ----<br>-------- ------- -- ---------- --- - --- ----- ----- ----<br>---- --- --- ----- --- ---- ---- ------- ----- ---- -------<br>--- --- -- ----- -- --- ---- -- --- ---- -- ------ ------<br>--- ----- -- ----,113674.69999998808,113671.90000000596,113272.774,113282.40000000596,113289.487,113690.599,,4,having
screen,html.Screen,2_1_0_1_5,2022-05-02T10:33:39.080Z,,,,,,,,,,,,,,,,,53,,,,,,,,,,,,,,341.400999999998,,response,,,,99,,,,,,,Space,keypress(Space),,,,,,,,---- -- ----- -- ------ a ------- --- ----------<br>------------- ------ ------ ---- ---- ------- ----- -- ----<br>-------- ------- -- ---------- --- - --- ----- ----- ----<br>---- --- --- ----- --- ---- ---- ------- ----- ---- -------<br>--- --- -- ----- -- --- ---- -- --- ---- -- ------ ------<br>--- ----- -- ----,114034.40000000596,114032,113673.886,113674.90000000596,113690.599,114041.572,,5,a
screen,html.Screen,2_1_0_1_6,2022-05-02T10:33:39.512Z,,,,,,,,,,,,,,,,,53,,,,,,,,,,,,,,422.32800000596035,,response,,,,99,,,,,,,Space,keypress(Space),,,,,,,,---- -- ----- -- ------ - lasting --- ----------<br>------------- ------ ------ ---- ---- ------- ----- -- ----<br>-------- ------- -- ---------- --- - --- ----- ----- ----<br>---- --- --- ----- --- ---- ---- ------- ----- ---- -------<br>--- --- -- ----- -- --- ---- -- --- ---- -- ------ ------<br>--- ----- -- ----,114466.5,114463.90000000596,114024.859,114034.5,114041.572,114476.11,,6,lasting
screen,html.Screen,2_1_0_1_7,2022-05-02T10:33:39.936Z,,,,,,,,,,,,,,,,,53,,,,,,,,,,,,,,411.7900000059599,,response,,,,99,,,,,,,Space,keypress(Space),,,,,,,,---- -- ----- -- ------ - ------- and ----------<br>------------- ------ ------ ---- ---- ------- ----- -- ----<br>-------- ------- -- ---------- --- - --- ----- ----- ----<br>---- --- --- ----- --- ---- ---- ------- ----- ---- -------<br>--- --- -- ----- -- --- ---- -- --- ---- -- ------ ------<br>--- ----- -- ----,114890.30000001192,114887.90000000596,114459.397,114466.59999999404,114476.11,114893.935,,7,and
screen,html.Screen,2_1_0_1_8,2022-05-02T10:33:40.400Z,,,,,,,,,,,,,,,,,53,,,,,,,,,,,,,,457.9650000059628,,response,,,,99,,,,,,,Space,keypress(Space),,,,,,,,---- -- ----- -- ------ - ------- --- fulfilling<br>------------- ------ ------ ---- ---- ------- ----- -- ----<br>-------- ------- -- ---------- --- - --- ----- ----- ----<br>---- --- --- ----- --- ---- ---- ------- ----- ---- -------<br>--- --- -- ----- -- --- ---- -- --- ---- -- ------ ------<br>--- ----- -- ----,115354.59999999404,115351.90000000596,114877.222,114890.5,114893.935,115361.899,,8,fulfilling
screen,html.Screen,2_1_0_1_9,2022-05-02T10:33:40.823Z,,,,,,,,,,,,,,,,,53,,,,,,,,,,,,,,413.8009999880742,,response,,,,99,,,,,,,Space,keypress(Space),,,,,,,,"---- -- ----- -- ------ - ------- --- ----------<br>relationship, ------ ------ ---- ---- ------- ----- -- ----<br>-------- ------- -- ---------- --- - --- ----- ----- ----<br>---- --- --- ----- --- ---- ---- ------- ----- ---- -------<br>--- --- -- ----- -- --- ---- -- --- ---- -- ------ ------<br>--- ----- -- ----",115778.09999999404,115775.69999998808,115345.186,115354.80000001192,115361.899,115779.724,,9,"relationship,"
screen,html.Screen,2_1_0_1_10,2022-05-02T10:33:41.272Z,,,,,,,,,,,,,,,,,53,,,,,,,,,,,,,,444.1760000059585,,response,,,,99,,,,,,,Space,keypress(Space),,,,,,,,---- -- ----- -- ------ - ------- --- ----------<br>------------- common ------ ---- ---- ------- ----- -- ----<br>-------- ------- -- ---------- --- - --- ----- ----- ----<br>---- --- --- ----- --- ---- ---- ------- ----- ---- -------<br>--- --- -- ----- -- --- ---- -- --- ---- -- ------ ------<br>--- ----- -- ----,116226.19999998808,116223.90000000596,115763.011,115778.19999998808,115779.724,116230.975,,10,common
screen,html.Screen,2_1_0_1_11,2022-05-02T10:33:41.648Z,,,,,,,,,,,,,,,,,53,,,,,,,,,,,,,,368.92500000595464,,response,,,,99,,,,,,,Space,keypress(Space),,,,,,,,---- -- ----- -- ------ - ------- --- ----------<br>------------- ------ wisdom ---- ---- ------- ----- -- ----<br>-------- ------- -- ---------- --- - --- ----- ----- ----<br>---- --- --- ----- --- ---- ---- ------- ----- ---- -------<br>--- --- -- ----- -- --- ---- -- --- ---- -- ------ ------<br>--- ----- -- ----,116602.40000000596,116599.90000000596,116214.262,116226.40000000596,116230.975,116615.374,,11,wisdom
screen,html.Screen,2_1_0_1_12,2022-05-02T10:33:41.999Z,,,,,,,,,,,,,,,,,53,,,,,,,,,,,,,,336.42600001192477,,response,,,,99,,,,,,,Space,keypress(Space),,,,,,,,---- -- ----- -- ------ - ------- --- ----------<br>------------- ------ ------ says ---- ------- ----- -- ----<br>-------- ------- -- ---------- --- - --- ----- ----- ----<br>---- --- --- ----- --- ---- ---- ------- ----- ---- -------<br>--- --- -- ----- -- --- ---- -- --- ---- -- ------ ------<br>--- ----- -- ----,116954.19999998808,116951.80000001192,116598.661,116602.5,116615.374,116966.347,,12,says
screen,html.Screen,2_1_0_1_13,2022-05-02T10:33:42.424Z,,,,,,,,,,,,,,,,,53,,,,,,,,,,,,,,409.45300001192663,,response,,,,99,,,,,,,Space,keypress(Space),,,,,,,,---- -- ----- -- ------ - ------- --- ----------<br>------------- ------ ------ ---- that ------- ----- -- ----<br>-------- ------- -- ---------- --- - --- ----- ----- ----<br>---- --- --- ----- --- ---- ---- ------- ----- ---- -------<br>--- --- -- ----- -- --- ---- -- --- ---- -- ------ ------<br>--- ----- -- ----,117378.19999998808,117375.80000001192,116949.634,116954.40000000596,116966.347,117384.172,,13,that
screen,html.Screen,2_1_0_1_14,2022-05-02T10:33:42.815Z,,,,,,,,,,,,,,,,,53,,,,,,,,,,,,,,383.7280000059545,,response,,,,99,,,,,,,Space,keypress(Space),,,,,,,,---- -- ----- -- ------ - ------- --- ----------<br>------------- ------ ------ ---- ---- feeling ----- -- ----<br>-------- ------- -- ---------- --- - --- ----- ----- ----<br>---- --- --- ----- --- ---- ---- ------- ----- ---- -------<br>--- --- -- ----- -- --- ---- -- --- ---- -- ------ ------<br>--- ----- -- ----,117770.19999998808,117767.90000000596,117367.459,117378.40000000596,117384.172,117785.284,,14,feeling
screen,html.Screen,2_1_0_1_15,2022-05-02T10:33:43.399Z,,,,,,,,,,,,,,,,,53,,,,,,,,,,,,,,566.5160000119213,,response,,,,99,,,,,,,Space,keypress(Space),,,,,,,,---- -- ----- -- ------ - ------- --- ----------<br>------------- ------ ------ ---- ---- ------- close -- ----<br>-------- ------- -- ---------- --- - --- ----- ----- ----<br>---- --- --- ----- --- ---- ---- ------- ----- ---- -------<br>--- --- -- ----- -- --- ---- -- --- ---- -- ------ ------<br>--- ----- -- ----,118354.09999999404,118351.80000001192,117768.571,117770.40000000596,117785.284,118370.239,,15,close
screen,html.Screen,2_1_0_1_16,2022-05-02T10:33:43.751Z,,,,,,,,,,,,,,,,,53,,,,,,,,,,,,,,333.66100000595907,,response,,,,99,,,,,,,Space,keypress(Space),,,,,,,,---- -- ----- -- ------ - ------- --- ----------<br>------------- ------ ------ ---- ---- ------- ----- to ----<br>-------- ------- -- ---------- --- - --- ----- ----- ----<br>---- --- --- ----- --- ---- ---- ------- ----- ---- -------<br>--- --- -- ----- -- --- ---- -- --- ---- -- ------ ------<br>--- ----- -- ----,118706.09999999404,118703.90000000596,118353.526,118354.30000001192,118370.239,118721.212,,16,to
screen,html.Screen,2_1_0_1_17,2022-05-02T10:33:44.135Z,,,,,,,,,,,,,,,,,53,,,,,,,,,,,,,,366.68800000596093,,response,,,,99,,,,,,,Space,keypress(Space),,,,,,,,---- -- ----- -- ------ - ------- --- ----------<br>------------- ------ ------ ---- ---- ------- ----- -- your<br>-------- ------- -- ---------- --- - --- ----- ----- ----<br>---- --- --- ----- --- ---- ---- ------- ----- ---- -------<br>--- --- -- ----- -- --- ---- -- --- ---- -- ------ ------<br>--- ----- -- ----,119090.19999998808,119087.90000000596,118704.499,118706.30000001192,118721.212,119105.611,,17,your
screen,html.Screen,2_1_0_1_18,2022-05-02T10:33:44.536Z,,,,,,,,,,,,,,,,,53,,,,,,,,,,,,,,382.28900000595604,,response,,,,99,,,,,,,Space,keypress(Space),,,,,,,,---- -- ----- -- ------ - ------- --- ----------<br>------------- ------ ------ ---- ---- ------- ----- -- ----<br>romantic ------- -- ---------- --- - --- ----- ----- ----<br>---- --- --- ----- --- ---- ---- ------- ----- ---- -------<br>--- --- -- ----- -- --- ---- -- --- ---- -- ------ ------<br>--- ----- -- ----,119490.30000001192,119487.90000000596,119088.898,119090.30000001192,119105.611,119506.723,,18,romantic
screen,html.Screen,2_1_0_1_19,2022-05-02T10:33:44.920Z,,,,,,,,,,,,,,,,,53,,,,,,,,,,,,,,365.1770000059623,,response,,,,99,,,,,,,Space,keypress(Space),,,,,,,,---- -- ----- -- ------ - ------- --- ----------<br>------------- ------ ------ ---- ---- ------- ----- -- ----<br>-------- partner -- ---------- --- - --- ----- ----- ----<br>---- --- --- ----- --- ---- ---- ------- ----- ---- -------<br>--- --- -- ----- -- --- ---- -- --- ---- -- ------ ------<br>--- ----- -- ----,119874.5,119871.90000000596,119490.01,119490.5,119506.723,119891.122,,19,partner
screen,html.Screen,2_1_0_1_20,2022-05-02T10:33:45.295Z,,,,,,,,,,,,,,,,,53,,,,,,,,,,,,,,356.6780000119179,,response,,,,99,,,,,,,Space,keypress(Space),,,,,,,,---- -- ----- -- ------ - ------- --- ----------<br>------------- ------ ------ ---- ---- ------- ----- -- ----<br>-------- ------- is ---------- --- - --- ----- ----- ----<br>---- --- --- ----- --- ---- ---- ------- ----- ---- -------<br>--- --- -- ----- -- --- ---- -- --- ---- -- ------ ------<br>--- ----- -- ----,120250.19999998808,120247.80000001192,119874.409,119874.69999998808,119891.122,120258.808,,20,is
screen,html.Screen,2_1_0_1_21,2022-05-02T10:33:45.624Z,,,,,,,,,,,,,,,,,53,,,,,,,,,,,,,,316.89199998807453,,response,,,,99,,,,,,,Space,keypress(Space),,,,,,,,---- -- ----- -- ------ - ------- --- ----------<br>------------- ------ ------ ---- ---- ------- ----- -- ----<br>-------- ------- -- paramount. --- - --- ----- ----- ----<br>---- --- --- ----- --- ---- ---- ------- ----- ---- -------<br>--- --- -- ----- -- --- ---- -- --- ---- -- ------ ------<br>--- ----- -- ----,120578.90000000596,120575.69999998808,120242.095,120250.30000001192,120258.808,120593.068,,21,paramount.
screen,html.Screen,2_1_0_1_22,2022-05-02T10:33:46.071Z,,,,,,,,,,,,,,,,,53,,,,,,,,,,,,,,430.83200000596116,,response,,,,99,,,,,,,Space,keypress(Space),,,,,,,,---- -- ----- -- ------ - ------- --- ----------<br>------------- ------ ------ ---- ---- ------- ----- -- ----<br>-------- ------- -- ---------- But - --- ----- ----- ----<br>---- --- --- ----- --- ---- ---- ------- ----- ---- -------<br>--- --- -- ----- -- --- ---- -- --- ---- -- ------ ------<br>--- ----- -- ----,121026.19999998808,121023.90000000596,120576.355,120579.09999999404,120593.068,121027.606,,22,But
screen,html.Screen,2_1_0_1_23,2022-05-02T10:33:46.472Z,,,,,,,,,,,,,,,,,53,,,,,,,,,,,,,,396.2940000059607,,response,,,,99,,,,,,,Space,keypress(Space),,,,,,,,---- -- ----- -- ------ - ------- --- ----------<br>------------- ------ ------ ---- ---- ------- ----- -- ----<br>-------- ------- -- ---------- --- a --- ----- ----- ----<br>---- --- --- ----- --- ---- ---- ------- ----- ---- -------<br>--- --- -- ----- -- --- ---- -- --- ---- -- ------ ------<br>--- ----- -- ----,121426.40000000596,121423.90000000596,121010.893,121026.40000000596,121027.606,121428.718,,23,a
screen,html.Screen,2_1_0_1_24,2022-05-02T10:33:46.776Z,,,,,,,,,,,,,,,,,53,,,,,,,,,,,,,,299.182000005967,,response,,,,99,,,,,,,Space,keypress(Space),,,,,,,,---- -- ----- -- ------ - ------- --- ----------<br>------------- ------ ------ ---- ---- ------- ----- -- ----<br>-------- ------- -- ---------- --- - new ----- ----- ----<br>---- --- --- ----- --- ---- ---- ------- ----- ---- -------<br>--- --- -- ----- -- --- ---- -- --- ---- -- ------ ------<br>--- ----- -- ----,121730.40000000596,121727.90000000596,121412.005,121426.59999999404,121428.718,121734.586,,24,new
screen,html.Screen,2_1_0_1_25,2022-05-02T10:33:47.096Z,,,,,,,,,,,,,,,,,53,,,,,,,,,,,,,,313.3140000059648,,response,,,,99,,,,,,,Space,keypress(Space),,,,,,,,---- -- ----- -- ------ - ------- --- ----------<br>------------- ------ ------ ---- ---- ------- ----- -- ----<br>-------- ------- -- ---------- --- - --- study ----- ----<br>---- --- --- ----- --- ---- ---- ------- ----- ---- -------<br>--- --- -- ----- -- --- ---- -- --- ---- -- ------ ------<br>--- ----- -- ----,122050.69999998808,122047.90000000596,121717.873,121730.40000000596,121734.586,122052.133,,25,study
screen,html.Screen,2_1_0_1_26,2022-05-02T10:33:47.416Z,,,,,,,,,,,,,,,,,53,,,,,,,,,,,,,,315.76700000595883,,response,,,,99,,,,,,,Space,keypress(Space),,,,,,,,---- -- ----- -- ------ - ------- --- ----------<br>------------- ------ ------ ---- ---- ------- ----- -- ----<br>-------- ------- -- ---------- --- - --- ----- finds ----<br>---- --- --- ----- --- ---- ---- ------- ----- ---- -------<br>--- --- -- ----- -- --- ---- -- --- ---- -- ------ ------<br>--- ----- -- ----,122370.59999999404,122367.90000000596,122035.42,122050.90000000596,122052.133,122386.393,,26,finds
screen,html.Screen,2_1_0_1_27,2022-05-02T10:33:47.751Z,,,,,,,,,,,,,,,,,53,,,,,,,,,,,,,,317.40700001192454,,response,,,,99,,,,,,,Space,keypress(Space),,,,,,,,---- -- ----- -- ------ - ------- --- ----------<br>------------- ------ ------ ---- ---- ------- ----- -- ----<br>-------- ------- -- ---------- --- - --- ----- ----- that<br>---- --- --- ----- --- ---- ---- ------- ----- ---- -------<br>--- --- -- ----- -- --- ---- -- --- ---- -- ------ ------<br>--- ----- -- ----,122706,122703.80000001192,122369.68,122370.80000001192,122386.393,122720.653,,27,that
screen,html.Screen,2_1_0_1_28,2022-05-02T10:33:48.143Z,,,,,,,,,,,,,,,,,53,,,,,,,,,,,,,,375.24700000595476,,response,,,,99,,,,,,,Space,keypress(Space),,,,,,,,---- -- ----- -- ------ - ------- --- ----------<br>------------- ------ ------ ---- ---- ------- ----- -- ----<br>-------- ------- -- ---------- --- - --- ----- ----- ----<br>it's --- --- ----- --- ---- ---- ------- ----- ---- -------<br>--- --- -- ----- -- --- ---- -- --- ---- -- ------ ------<br>--- ----- -- ----,123098.19999998808,123095.90000000596,122703.94,122706.19999998808,122720.653,123105.052,,28,it's
screen,html.Screen,2_1_0_1_29,2022-05-02T10:33:48.447Z,,,,,,,,,,,,,,,,,53,,,,,,,,,,,,,,294.7480000119249,,response,,,,99,,,,,,,Space,keypress(Space),,,,,,,,---- -- ----- -- ------ - ------- --- ----------<br>------------- ------ ------ ---- ---- ------- ----- -- ----<br>-------- ------- -- ---------- --- - --- ----- ----- ----<br>---- not --- ----- --- ---- ---- ------- ----- ---- -------<br>--- --- -- ----- -- --- ---- -- --- ---- -- ------ ------<br>--- ----- -- ----,123402.19999998808,123399.80000001192,123088.339,123098.30000001192,123105.052,123405.886,,29,not
screen,html.Screen,2_1_0_1_30,2022-05-02T10:33:48.679Z,,,,,,,,,,,,,,,,,53,,,,,,,,,,,,,,226.01400000596186,,response,,,,99,,,,,,,Space,keypress(Space),,,,,,,,---- -- ----- -- ------ - ------- --- ----------<br>------------- ------ ------ ---- ---- ------- ----- -- ----<br>-------- ------- -- ---------- --- - --- ----- ----- ----<br>---- --- how ----- --- ---- ---- ------- ----- ---- -------<br>--- --- -- ----- -- --- ---- -- --- ---- -- ------ ------<br>--- ----- -- ----,123634.40000000596,123631.90000000596,123389.173,123402.40000000596,123405.886,123639.868,,30,how
screen,html.Screen,2_1_0_1_31,2022-05-02T10:33:49.288Z,,,,,,,,,,,,,,,,,53,,,,,,,,,,,,,,600.1319999999978,,response,,,,99,,,,,,,Space,keypress(Space),,,,,,,,---- -- ----- -- ------ - ------- --- ----------<br>------------- ------ ------ ---- ---- ------- ----- -- ----<br>-------- ------- -- ---------- --- - --- ----- ----- ----<br>---- --- --- close --- ---- ---- ------- ----- ---- -------<br>--- --- -- ----- -- --- ---- -- --- ---- -- ------ ------<br>--- ----- -- ----,124243.30000001192,124240,123623.155,123634.5,123639.868,124258.249,,31,close
screen,html.Screen,2_1_0_1_32,2022-05-02T10:33:49.591Z,,,,,,,,,,,,,,,,,53,,,,,,,,,,,,,,285.6510000059643,,response,,,,99,,,,,,,Space,keypress(Space),,,,,,,,---- -- ----- -- ------ - ------- --- ----------<br>------------- ------ ------ ---- ---- ------- ----- -- ----<br>-------- ------- -- ---------- --- - --- ----- ----- ----<br>---- --- --- ----- you ---- ---- ------- ----- ---- -------<br>--- --- -- ----- -- --- ---- -- --- ---- -- ------ ------<br>--- ----- -- ----,124546.30000001192,124543.90000000596,124241.536,124243.40000000596,124258.249,124559.083,,32,you
screen,html.Screen,2_1_0_1_33,2022-05-02T10:33:49.847Z,,,,,,,,,,,,,,,,,53,,,,,,,,,,,,,,240.81700000596175,,response,,,,99,,,,,,,Space,keypress(Space),,,,,,,,---- -- ----- -- ------ - ------- --- ----------<br>------------- ------ ------ ---- ---- ------- ----- -- ----<br>-------- ------- -- ---------- --- - --- ----- ----- ----<br>---- --- --- ----- --- feel ---- ------- ----- ---- -------<br>--- --- -- ----- -- --- ---- -- --- ---- -- ------ ------<br>--- ----- -- ----,124802.30000001192,124799.90000000596,124542.37,124546.5,124559.083,124809.778,,33,feel
screen,html.Screen,2_1_0_1_34,2022-05-02T10:33:50.215Z,,,,,,,,,,,,,,,,,53,,,,,,,,,,,,,,358.12200000595476,,response,,,,99,,,,,,,Space,keypress(Space),,,,,,,,---- -- ----- -- ------ - ------- --- ----------<br>------------- ------ ------ ---- ---- ------- ----- -- ----<br>-------- ------- -- ---------- --- - --- ----- ----- ----<br>---- --- --- ----- --- ---- that ------- ----- ---- -------<br>--- --- -- ----- -- --- ---- -- --- ---- -- ------ ------<br>--- ----- -- ----,125170.30000001192,125167.90000000596,124793.065,124802.40000000596,124809.778,125177.464,,34,that
screen,html.Screen,2_1_0_1_35,2022-05-02T10:33:50.480Z,,,,,,,,,,,,,,,,,53,,,,,,,,,,,,,,254.3360000119137,,response,,,,99,,,,,,,Space,keypress(Space),,,,,,,,---- -- ----- -- ------ - ------- --- ----------<br>------------- ------ ------ ---- ---- ------- ----- -- ----<br>-------- ------- -- ---------- --- - --- ----- ----- ----<br>---- --- --- ----- --- ---- ---- matters ----- ---- -------<br>--- --- -- ----- -- --- ---- -- --- ---- -- ------ ------<br>--- ----- -- ----,125434.5,125431.80000001192,125160.751,125170.5,125177.464,125444.872,,35,matters
screen,html.Screen,2_1_0_1_36,2022-05-02T10:33:50.687Z,,,,,,,,,,,,,,,,,53,,,,,,,,,,,,,,195.12799999999697,,response,,,,99,,,,,,,Space,keypress(Space),,,,,,,,"---- -- ----- -- ------ - ------- --- ----------<br>------------- ------ ------ ---- ---- ------- ----- -- ----<br>-------- ------- -- ---------- --- - --- ----- ----- ----<br>---- --- --- ----- --- ---- ---- ------- most, ---- -------<br>--- --- -- ----- -- --- ---- -- --- ---- -- ------ ------<br>--- ----- -- ----",125642.30000001192,125640,125428.159,125434.59999999404,125444.872,125645.428,,36,"most,"
screen,html.Screen,2_1_0_1_37,2022-05-02T10:33:51.175Z,,,,,,,,,,,,,,,,,53,,,,,,,,,,,,,,482.5720000000001,,response,,,,99,,,,,,,Space,keypress(Space),,,,,,,,---- -- ----- -- ------ - ------- --- ----------<br>------------- ------ ------ ---- ---- ------- ----- -- ----<br>-------- ------- -- ---------- --- - --- ----- ----- ----<br>---- --- --- ----- --- ---- ---- ------- ----- it's -------<br>--- --- -- ----- -- --- ---- -- --- ---- -- ------ ------<br>--- ----- -- ----,126130.30000001192,126128,125628.715,125642.40000000596,125645.428,126146.818,,37,it's
screen,html.Screen,2_1_0_1_38,2022-05-02T10:33:51.559Z,,,,,,,,,,,,,,,,,53,,,,,,,,,,,,,,364.9820000119216,,response,,,,99,,,,,,,Space,keypress(Space),,,,,,,,---- -- ----- -- ------ - ------- --- ----------<br>------------- ------ ------ ---- ---- ------- ----- -- ----<br>-------- ------- -- ---------- --- - --- ----- ----- ----<br>---- --- --- ----- --- ---- ---- ------- ----- ---- whether<br>--- --- -- ----- -- --- ---- -- --- ---- -- ------ ------<br>--- ----- -- ----,126514.40000000596,126511.80000001192,126130.105,126130.40000000596,126146.818,126531.217,,38,whether
screen,html.Screen,2_1_0_1_39,2022-05-02T10:33:51.832Z,,,,,,,,,,,,,,,,,53,,,,,,,,,,,,,,252.7829999999958,,response,,,,99,,,,,,,Space,keypress(Space),,,,,,,,---- -- ----- -- ------ - ------- --- ----------<br>------------- ------ ------ ---- ---- ------- ----- -- ----<br>-------- ------- -- ---------- --- - --- ----- ----- ----<br>---- --- --- ----- --- ---- ---- ------- ----- ---- -------<br>you --- -- ----- -- --- ---- -- --- ---- -- ------ ------<br>--- ----- -- ----,126787.19999998808,126784,126514.504,126514.5,126531.217,126798.625,,39,you
screen,html.Screen,2_1_0_1_40,2022-05-02T10:33:52.111Z,,,,,,,,,,,,,,,,,53,,,,,,,,,,,,,,265.27500000596046,,response,,,,99,,,,,,,Space,keypress(Space),,,,,,,,---- -- ----- -- ------ - ------- --- ----------<br>------------- ------ ------ ---- ---- ------- ----- -- ----<br>-------- ------- -- ---------- --- - --- ----- ----- ----<br>---- --- --- ----- --- ---- ---- ------- ----- ---- -------<br>--- are -- ----- -- --- ---- -- --- ---- -- ------ ------<br>--- ----- -- ----,127066.30000001192,127063.90000000596,126781.912,126787.40000000596,126798.625,127082.746,,40,are
screen,html.Screen,2_1_0_1_41,2022-05-02T10:33:52.375Z,,,,,,,,,,,,,,,,,53,,,,,,,,,,,,,,245.15400000596128,,response,,,,99,,,,,,,Space,keypress(Space),,,,,,,,---- -- ----- -- ------ - ------- --- ----------<br>------------- ------ ------ ---- ---- ------- ----- -- ----<br>-------- ------- -- ---------- --- - --- ----- ----- ----<br>---- --- --- ----- --- ---- ---- ------- ----- ---- -------<br>--- --- as ----- -- --- ---- -- --- ---- -- ------ ------<br>--- ----- -- ----,127330.19999998808,127327.90000000596,127066.033,127066.40000000596,127082.746,127333.441,,41,as
screen,html.Screen,2_1_0_1_42,2022-05-02T10:33:52.807Z,,,,,,,,,,,,,,,,,53,,,,,,,,,,,,,,426.35900001191476,,response,,,,99,,,,,,,Space,keypress(Space),,,,,,,,---- -- ----- -- ------ - ------- --- ----------<br>------------- ------ ------ ---- ---- ------- ----- -- ----<br>-------- ------- -- ---------- --- - --- ----- ----- ----<br>---- --- --- ----- --- ---- ---- ------- ----- ---- -------<br>--- --- -- close -- --- ---- -- --- ---- -- ------ ------<br>--- ----- -- ----,127762.19999998808,127759.80000001192,127316.728,127330.5,127333.441,127767.979,,42,close
screen,html.Screen,2_1_0_1_43,2022-05-02T10:33:53.079Z,,,,,,,,,,,,,,,,,53,,,,,,,,,,,,,,263.8210000119143,,response,,,,99,,,,,,,Space,keypress(Space),,,,,,,,---- -- ----- -- ------ - ------- --- ----------<br>------------- ------ ------ ---- ---- ------- ----- -- ----<br>-------- ------- -- ---------- --- - --- ----- ----- ----<br>---- --- --- ----- --- ---- ---- ------- ----- ---- -------<br>--- --- -- ----- as --- ---- -- --- ---- -- ------ ------<br>--- ----- -- ----,128034.19999998808,128031.80000001192,127751.266,127762.30000001192,127767.979,128035.387,,43,as
screen,html.Screen,2_1_0_1_44,2022-05-02T10:33:53.383Z,,,,,,,,,,,,,,,,,53,,,,,,,,,,,,,,300.61299999999756,,response,,,,99,,,,,,,Space,keypress(Space),,,,,,,,---- -- ----- -- ------ - ------- --- ----------<br>------------- ------ ------ ---- ---- ------- ----- -- ----<br>-------- ------- -- ---------- --- - --- ----- ----- ----<br>---- --- --- ----- --- ---- ---- ------- ----- ---- -------<br>--- --- -- ----- -- you ---- -- --- ---- -- ------ ------<br>--- ----- -- ----,128338.30000001192,128336,128018.674,128034.30000001192,128035.387,128352.934,,44,you
screen,html.Screen,2_1_0_1_45,2022-05-02T10:33:53.711Z,,,,,,,,,,,,,,,,,53,,,,,,,,,,,,,,310.96600000596663,,response,,,,99,,,,,,,Space,keypress(Space),,,,,,,,---- -- ----- -- ------ - ------- --- ----------<br>------------- ------ ------ ---- ---- ------- ----- -- ----<br>-------- ------- -- ---------- --- - --- ----- ----- ----<br>---- --- --- ----- --- ---- ---- ------- ----- ---- -------<br>--- --- -- ----- -- --- want -- --- ---- -- ------ ------<br>--- ----- -- ----,128666.30000001192,128663.90000000596,128336.221,128338.40000000596,128352.934,128670.481,,45,want
screen,html.Screen,2_1_0_1_46,2022-05-02T10:33:54.103Z,,,,,,,,,,,,,,,,,53,,,,,,,,,,,,,,385.4190000059607,,response,,,,99,,,,,,,Space,keypress(Space),,,,,,,,---- -- ----- -- ------ - ------- --- ----------<br>------------- ------ ------ ---- ---- ------- ----- -- ----<br>-------- ------- -- ---------- --- - --- ----- ----- ----<br>---- --- --- ----- --- ---- ---- ------- ----- ---- -------<br>--- --- -- ----- -- --- ---- to --- ---- -- ------ ------<br>--- ----- -- ----,129058.30000001192,129055.90000000596,128653.768,128666.40000000596,128670.481,129071.593,,46,to
screen,html.Screen,2_1_0_1_47,2022-05-02T10:33:54.455Z,,,,,,,,,,,,,,,,,53,,,,,,,,,,,,,,336.307000005967,,response,,,,99,,,,,,,Space,keypress(Space),,,,,,,,"---- -- ----- -- ------ - ------- --- ----------<br>------------- ------ ------ ---- ---- ------- ----- -- ----<br>-------- ------- -- ---------- --- - --- ----- ----- ----<br>---- --- --- ----- --- ---- ---- ------- ----- ---- -------<br>--- --- -- ----- -- --- ---- -- be, ---- -- ------ ------<br>--- ----- -- ----",129410.30000001192,129407.90000000596,129054.88,129058.40000000596,129071.593,129422.566,,47,"be,"
screen,html.Screen,2_1_0_1_48,2022-05-02T10:33:54.751Z,,,,,,,,,,,,,,,,,53,,,,,,,,,,,,,,281.43399999999383,,response,,,,99,,,,,,,Space,keypress(Space),,,,,,,,---- -- ----- -- ------ - ------- --- ----------<br>------------- ------ ------ ---- ---- ------- ----- -- ----<br>-------- ------- -- ---------- --- - --- ----- ----- ----<br>---- --- --- ----- --- ---- ---- ------- ----- ---- -------<br>--- --- -- ----- -- --- ---- -- --- even -- ------ ------<br>--- ----- -- ----,129706.19999998808,129704,129405.853,129410.40000000596,129422.566,129723.4,,48,even
screen,html.Screen,2_1_0_1_49,2022-05-02T10:33:55.015Z,,,,,,,,,,,,,,,,,53,,,,,,,,,,,,,,244.50000000596629,,response,,,,99,,,,,,,Space,keypress(Space),,,,,,,,---- -- ----- -- ------ - ------- --- ----------<br>------------- ------ ------ ---- ---- ------- ----- -- ----<br>-------- ------- -- ---------- --- - --- ----- ----- ----<br>---- --- --- ----- --- ---- ---- ------- ----- ---- -------<br>--- --- -- ----- -- --- ---- -- --- ---- if ------ ------<br>--- ----- -- ----,129970.19999998808,129967.90000000596,129706.687,129706.5,129723.4,129974.095,,49,if
screen,html.Screen,2_1_0_1_50,2022-05-02T10:33:55.239Z,,,,,,,,,,,,,,,,,53,,,,,,,,,,,,,,217.70500001191976,,response,,,,99,,,,,,,Space,keypress(Space),,,,,,,,---- -- ----- -- ------ - ------- --- ----------<br>------------- ------ ------ ---- ---- ------- ----- -- ----<br>-------- ------- -- ---------- --- - --- ----- ----- ----<br>---- --- --- ----- --- ---- ---- ------- ----- ---- -------<br>--- --- -- ----- -- --- ---- -- --- ---- -- that's ------<br>--- ----- -- ----,130194.19999998808,130191.80000001192,129957.382,129970.40000000596,129974.095,130208.077,,50,that's
screen,html.Screen,2_1_0_1_51,2022-05-02T10:33:55.679Z,,,,,,,,,,,,,,,,,53,,,,,,,,,,,,,,423.8230000059557,,response,,,,99,,,,,,,Space,keypress(Space),,,,,,,,---- -- ----- -- ------ - ------- --- ----------<br>------------- ------ ------ ---- ---- ------- ----- -- ----<br>-------- ------- -- ---------- --- - --- ----- ----- ----<br>---- --- --- ----- --- ---- ---- ------- ----- ---- -------<br>--- --- -- ----- -- --- ---- -- --- ---- -- ------ really<br>--- ----- -- ----,130634.19999998808,130631.90000000596,130191.364,130194.30000001192,130208.077,130642.615,,51,really
screen,html.Screen,2_1_0_1_52,2022-05-02T10:33:56.008Z,,,,,,,,,,,,,,,,,53,,,,,,,,,,,,,,317.38499999999476,,response,,,,99,,,,,,,Space,keypress(Space),,,,,,,,---- -- ----- -- ------ - ------- --- ----------<br>------------- ------ ------ ---- ---- ------- ----- -- ----<br>-------- ------- -- ---------- --- - --- ----- ----- ----<br>---- --- --- ----- --- ---- ---- ------- ----- ---- -------<br>--- --- -- ----- -- --- ---- -- --- ---- -- ------ ------<br>not ----- -- ----,130962.80000001192,130960,130625.902,130634.30000001192,130642.615,130976.875,,52,not
screen,html.Screen,2_1_0_1_53,2022-05-02T10:33:56.383Z,,,,,,,,,,,,,,,,,53,,,,,,,,,,,,,,359.02500000596046,,response,,,,99,,,,,,,Space,keypress(Space),,,,,,,,---- -- ----- -- ------ - ------- --- ----------<br>------------- ------ ------ ---- ---- ------- ----- -- ----<br>-------- ------- -- ---------- --- - --- ----- ----- ----<br>---- --- --- ----- --- ---- ---- ------- ----- ---- -------<br>--- --- -- ----- -- --- ---- -- --- ---- -- ------ ------<br>--- close -- ----,131338.30000001192,131335.90000000596,130960.162,130962.90000000596,130976.875,131344.561,,53,close
screen,html.Screen,2_1_0_1_54,2022-05-02T10:33:56.719Z,,,,,,,,,,,,,,,,,53,,,,,,,,,,,,,,327.23900001193397,,response,,,,99,,,,,,,Space,keypress(Space),,,,,,,,---- -- ----- -- ------ - ------- --- ----------<br>------------- ------ ------ ---- ---- ------- ----- -- ----<br>-------- ------- -- ---------- --- - --- ----- ----- ----<br>---- --- --- ----- --- ---- ---- ------- ----- ---- -------<br>--- --- -- ----- -- --- ---- -- --- ---- -- ------ ------<br>--- ----- at ----,131674.30000001192,131671.80000001192,131327.848,131338.5,131344.561,131678.821,,54,at
screen,html.Screen,2_1_0_1_55,2022-05-02T10:33:57.575Z,,,,,,,,,,,,,,,,,53,,,,,,,,,,,,,,849.0790000059642,,response,,,,99,,,,,,,Space,keypress(Space),,,,,,,,---- -- ----- -- ------ - ------- --- ----------<br>------------- ------ ------ ---- ---- ------- ----- -- ----<br>-------- ------- -- ---------- --- - --- ----- ----- ----<br>---- --- --- ----- --- ---- ---- ------- ----- ---- -------<br>--- --- -- ----- -- --- ---- -- --- ---- -- ------ ------<br>--- ----- -- all.,132530.59999999404,132527.90000000596,131662.108,131674.40000000596,131678.821,132536.185,,55,all.
Item 99,flow.Loop,2_1_0_1,2022-05-02T10:33:57.576Z,,,,,,,,,,,,,,,,,,,,,,,,,,,,,,,21884.015000005966,,completion,,,,,F,,,,,,,,,,,silence,,,,,132530.90000000596,132527.90000000596,110627.172,110629.69999998808,110643.885,132536.185,,,
Question 1,html.Screen,2_1_0_2,2022-05-02T10:34:00.489Z,,,,,,,,,,,,,,,,,,,,,,,,,,,,true,FALSE,,2906.6150000119233,,response,,,,99,F,,,,,,FALSE,click #choice-2,,,,silence,,,,,135444.30000001192,135442.80000001192,132519.472,132531.09999999404,132536.185,135460.96,,,
Question 2,html.Screen,2_1_0_3,2022-05-02T10:34:03.783Z,,,,,,,,,,,,,,,,,,,,,,,,,,,,true,TRUE,,3275.540000000008,,response,,,,99,F,,,,,,TRUE,click #choice-1,,,,silence,,,,,138738,138736.5,135444.247,135444.40000000596,135460.96,138753.421,,,
Item 99,flow.Sequence,2_1_0,2022-05-02T10:34:03.783Z,,,,,,,,,,,,,,,,,,,,,,,,,,,,,,,38093.947,,completion,,,,,,,,,,,,,,,,,,,,,138738.19999998808,138736.5,100625.84,100632.5,100642.553,138753.421,,,
Holding screen,html.Screen,2_1_1_0,2022-05-02T10:34:13.783Z,,,,,,,,,,,,,,,,,,,,,,,,,,,,,,,9999.366999999998,,timeout,,,,,,,,,,,,,,,,,,,,,148738.30000001192,148736.075,138736.708,138738.30000001192,138753.421,148752.788,,,
screen,html.Screen,2_1_1_1_0,2022-05-02T10:34:14.718Z,,,,,,,,,,,,,,,,,54,,,,,,,,,,,,,,918.2119999999995,,response,,,,100,,,,,,,Space,keypress(Space),,,,,,,,At --- ---- --- ------ ----- ------- ---- -- --- ------- --<br>------- ---------- ------ -- ----- -- ----- -- ---- ------<br>--- ----- --- --- ------ -------- ----- --- ------ ----- --<br>----- ----- ---------- --- --- ------ ------ ---- -- ------<br>------- --- ------ ----- --- ---- ------- -- ---- --- --<br>------- ------,149673.90000000596,149671,148736.075,148738.5,148752.788,149688.716,,0,At
screen,html.Screen,2_1_1_1_1,2022-05-02T10:34:15.014Z,,,,,,,,,,,,,,,,,54,,,,,,,,,,,,,,278.18400000597467,,response,,,,100,,,,,,,Space,keypress(Space),,,,,,,,-- the ---- --- ------ ----- ------- ---- -- --- ------- --<br>------- ---------- ------ -- ----- -- ----- -- ---- ------<br>--- ----- --- --- ------ -------- ----- --- ------ ----- --<br>----- ----- ---------- --- --- ------ ------ ---- -- ------<br>------- --- ------ ----- --- ---- ------- -- ---- --- --<br>------- ------,149969.19999998808,149966.90000000596,149672.003,149674,149688.716,149972.837,,1,the
screen,html.Screen,2_1_1_1_2,2022-05-02T10:34:15.310Z,,,,,,,,,,,,,,,,,54,,,,,,,,,,,,,,290.16300000000047,,response,,,,100,,,,,,,Space,keypress(Space),,,,,,,,-- --- time --- ------ ----- ------- ---- -- --- ------- --<br>------- ---------- ------ -- ----- -- ----- -- ---- ------<br>--- ----- --- --- ------ -------- ----- --- ------ ----- --<br>----- ----- ---------- --- --- ------ ------ ---- -- ------<br>------- --- ------ ----- --- ---- ------- -- ---- --- --<br>------- ------,150265.19999998808,150263,149956.124,149969.40000000596,149972.837,150273.671,,2,time
screen,html.Screen,2_1_1_1_3,2022-05-02T10:34:15.558Z,,,,,,,,,,,,,,,,,54,,,,,,,,,,,,,,237.3289999999979,,response,,,,100,,,,,,,Space,keypress(Space),,,,,,,,-- --- ---- the ------ ----- ------- ---- -- --- ------- --<br>------- ---------- ------ -- ----- -- ----- -- ---- ------<br>--- ----- --- --- ------ -------- ----- --- ------ ----- --<br>----- ----- ---------- --- --- ------ ------ ---- -- ------<br>------- --- ------ ----- --- ---- ------- -- ---- --- --<br>------- ------,150513.5,150511,150256.958,150265.40000000596,150273.671,150524.366,,3,the
screen,html.Screen,2_1_1_1_4,2022-05-02T10:34:15.846Z,,,,,,,,,,,,,,,,,54,,,,,,,,,,,,,,274.6339999999909,,response,,,,100,,,,,,,Space,keypress(Space),,,,,,,,-- --- ---- --- French ----- ------- ---- -- --- ------- --<br>------- ---------- ------ -- ----- -- ----- -- ---- ------<br>--- ----- --- --- ------ -------- ----- --- ------ ----- --<br>----- ----- ---------- --- --- ------ ------ ---- -- ------<br>------- --- ------ ----- --- ---- ------- -- ---- --- --<br>------- ------,150801.30000001192,150799,150507.653,150513.59999999404,150524.366,150808.487,,4,French
screen,html.Screen,2_1_1_1_5,2022-05-02T10:34:16.150Z,,,,,,,,,,,,,,,,,54,,,,,,,,,,,,,,294.5130000000063,,response,,,,100,,,,,,,Space,keypress(Space),,,,,,,,-- --- ---- --- ------ crown ------- ---- -- --- ------- --<br>------- ---------- ------ -- ----- -- ----- -- ---- ------<br>--- ----- --- --- ------ -------- ----- --- ------ ----- --<br>----- ----- ---------- --- --- ------ ------ ---- -- ------<br>------- --- ------ ----- --- ---- ------- -- ---- --- --<br>------- ------,151105.30000001192,151103,150791.774,150801.40000000596,150808.487,151109.321,,5,crown
screen,html.Screen,2_1_1_1_6,2022-05-02T10:34:16.414Z,,,,,,,,,,,,,,,,,54,,,,,,,,,,,,,,257.5790000059642,,response,,,,100,,,,,,,Space,keypress(Space),,,,,,,,-- --- ---- --- ------ ----- secured ---- -- --- ------- --<br>------- ---------- ------ -- ----- -- ----- -- ---- ------<br>--- ----- --- --- ------ -------- ----- --- ------ ----- --<br>----- ----- ---------- --- --- ------ ------ ---- -- ------<br>------- --- ------ ----- --- ---- ------- -- ---- --- --<br>------- ------,151369.19999998808,151366.90000000596,151092.608,151105.5,151109.321,151376.729,,6,secured
screen,html.Screen,2_1_1_1_7,2022-05-02T10:34:16.950Z,,,,,,,,,,,,,,,,,54,,,,,,,,,,,,,,526.1710000059684,,response,,,,100,,,,,,,Space,keypress(Space),,,,,,,,-- --- ---- --- ------ ----- ------- much -- --- ------- --<br>------- ---------- ------ -- ----- -- ----- -- ---- ------<br>--- ----- --- --- ------ -------- ----- --- ------ ----- --<br>----- ----- ---------- --- --- ------ ------ ---- -- ------<br>------- --- ------ ----- --- ---- ------- -- ---- --- --<br>------- ------,151905.30000001192,151902.90000000596,151360.016,151369.40000000596,151376.729,151911.545,,7,much
screen,html.Screen,2_1_1_1_8,2022-05-02T10:34:17.406Z,,,,,,,,,,,,,,,,,54,,,,,,,,,,,,,,447.4549999999872,,response,,,,100,,,,,,,Space,keypress(Space),,,,,,,,-- --- ---- --- ------ ----- ------- ---- of --- ------- --<br>------- ---------- ------ -- ----- -- ----- -- ---- ------<br>--- ----- --- --- ------ -------- ----- --- ------ ----- --<br>----- ----- ---------- --- --- ------ ------ ---- -- ------<br>------- --- ------ ----- --- ---- ------- -- ---- --- --<br>------- ------,152361.40000000596,152359,151894.832,151905.40000000596,151911.545,152362.796,,8,of
screen,html.Screen,2_1_1_1_9,2022-05-02T10:34:17.702Z,,,,,,,,,,,,,,,,,54,,,,,,,,,,,,,,292.2039999999979,,response,,,,100,,,,,,,Space,keypress(Space),,,,,,,,-- --- ---- --- ------ ----- ------- ---- -- its ------- --<br>------- ---------- ------ -- ----- -- ----- -- ---- ------<br>--- ----- --- --- ------ -------- ----- --- ------ ----- --<br>----- ----- ---------- --- --- ------ ------ ---- -- ------<br>------- --- ------ ----- --- ---- ------- -- ---- --- --<br>------- ------,152657.19999998808,152655,152346.083,152361.5,152362.796,152668.631,,9,its
screen,html.Screen,2_1_1_1_10,2022-05-02T10:34:17.958Z,,,,,,,,,,,,,,,,,54,,,,,,,,,,,,,,242.26900000596652,,response,,,,100,,,,,,,Space,keypress(Space),,,,,,,,-- --- ---- --- ------ ----- ------- ---- -- --- revenue --<br>------- ---------- ------ -- ----- -- ----- -- ---- ------<br>--- ----- --- --- ------ -------- ----- --- ------ ----- --<br>----- ----- ---------- --- --- ------ ------ ---- -- ------<br>------- --- ------ ----- --- ---- ------- -- ---- --- --<br>------- ------,152913.30000001192,152910.90000000596,152651.918,152657.30000001192,152668.631,152919.326,,10,revenue
screen,html.Screen,2_1_1_1_11,2022-05-02T10:34:18.286Z,,,,,,,,,,,,,,,,,54,,,,,,,,,,,,,,319.67399999999907,,response,,,,100,,,,,,,Space,keypress(Space),,,,,,,,-- --- ---- --- ------ ----- ------- ---- -- --- ------- by<br>------- ---------- ------ -- ----- -- ----- -- ---- ------<br>--- ----- --- --- ------ -------- ----- --- ------ ----- --<br>----- ----- ---------- --- --- ------ ------ ---- -- ------<br>------- --- ------ ----- --- ---- ------- -- ---- --- --<br>------- ------,153241.30000001192,153239,152902.613,152913.30000001192,152919.326,153253.586,,11,by
screen,html.Screen,2_1_1_1_12,2022-05-02T10:34:18.574Z,,,,,,,,,,,,,,,,,54,,,,,,,,,,,,,,273.41399999998976,,response,,,,100,,,,,,,Space,keypress(Space),,,,,,,,-- --- ---- --- ------ ----- ------- ---- -- --- ------- --<br>issuing ---------- ------ -- ----- -- ----- -- ---- ------<br>--- ----- --- --- ------ -------- ----- --- ------ ----- --<br>----- ----- ---------- --- --- ------ ------ ---- -- ------<br>------- --- ------ ----- --- ---- ------- -- ---- --- --<br>------- ------,153529.19999998808,153527,153236.873,153241.5,153253.586,153537.707,,12,issuing
screen,html.Screen,2_1_1_1_13,2022-05-02T10:34:18.814Z,,,,,,,,,,,,,,,,,54,,,,,,,,,,,,,,229.1930000059656,,response,,,,100,,,,,,,Space,keypress(Space),,,,,,,,-- --- ---- --- ------ ----- ------- ---- -- --- ------- --<br>------- government ------ -- ----- -- ----- -- ---- ------<br>--- ----- --- --- ------ -------- ----- --- ------ ----- --<br>----- ----- ---------- --- --- ------ ------ ---- -- ------<br>------- --- ------ ----- --- ---- ------- -- ---- --- --<br>------- ------,153769.30000001192,153766.90000000596,153520.994,153529.30000001192,153537.707,153771.689,,13,government
screen,html.Screen,2_1_1_1_14,2022-05-02T10:34:19.078Z,,,,,,,,,,,,,,,,,54,,,,,,,,,,,,,,259.31099999998696,,response,,,,100,,,,,,,Space,keypress(Space),,,,,,,,-- --- ---- --- ------ ----- ------- ---- -- --- ------- --<br>------- ---------- bonds. -- ----- -- ----- -- ---- ------<br>--- ----- --- --- ------ -------- ----- --- ------ ----- --<br>----- ----- ---------- --- --- ------ ------ ---- -- ------<br>------- --- ------ ----- --- ---- ------- -- ---- --- --<br>------- ------,154033.5,154031,153754.976,153769.40000000596,153771.689,154039.097,,14,bonds.
screen,html.Screen,2_1_1_1_15,2022-05-02T10:34:19.325Z,,,,,,,,,,,,,,,,,54,,,,,,,,,,,,,,239.70300001191208,,response,,,,100,,,,,,,Space,keypress(Space),,,,,,,,-- --- ---- --- ------ ----- ------- ---- -- --- ------- --<br>------- ---------- ------ In ----- -- ----- -- ---- ------<br>--- ----- --- --- ------ -------- ----- --- ------ ----- --<br>----- ----- ---------- --- --- ------ ------ ---- -- ------<br>------- --- ------ ----- --- ---- ------- -- ---- --- --<br>------- ------,154281.09999999404,154278.80000001192,154022.384,154033.69999998808,154039.097,154289.792,,15,In
screen,html.Screen,2_1_1_1_16,2022-05-02T10:34:19.566Z,,,,,,,,,,,,,,,,,54,,,,,,,,,,,,,,229.10800000597374,,response,,,,100,,,,,,,Space,keypress(Space),,,,,,,,"-- --- ---- --- ------ ----- ------- ---- -- --- ------- --<br>------- ---------- ------ -- 1727, -- ----- -- ---- ------<br>--- ----- --- --- ------ -------- ----- --- ------ ----- --<br>----- ----- ---------- --- --- ------ ------ ---- -- ------<br>------- --- ------ ----- --- ---- ------- -- ---- --- --<br>------- ------",154521.30000001192,154518.90000000596,154273.079,154281.19999998808,154289.792,154523.774,,16,"1727,"
screen,html.Screen,2_1_1_1_17,2022-05-02T10:34:22.021Z,,,,,,,,,,,,,,,,,54,,,,,,,,,,,,,,2451.1260000059556,,response,,,,100,,,,,,,Space,keypress(Space),,,,,,,,-- --- ---- --- ------ ----- ------- ---- -- --- ------- --<br>------- ---------- ------ -- ----- in ----- -- ---- ------<br>--- ----- --- --- ------ -------- ----- --- ------ ----- --<br>----- ----- ---------- --- --- ------ ------ ---- -- ------<br>------- --- ------ ----- --- ---- ------- -- ---- --- --<br>------- ------,156977.19999998808,156974.90000000596,154507.061,154521.40000000596,154523.774,156980.585,,17,in
screen,html.Screen,2_1_1_1_18,2022-05-02T10:34:22.390Z,,,,,,,,,,,,,,,,,54,,,,,,,,,,,,,,362.3150000059686,,response,,,,100,,,,,,,Space,keypress(Space),,,,,,,,-- --- ---- --- ------ ----- ------- ---- -- --- ------- --<br>------- ---------- ------ -- ----- -- order -- ---- ------<br>--- ----- --- --- ------ -------- ----- --- ------ ----- --<br>----- ----- ---------- --- --- ------ ------ ---- -- ------<br>------- --- ------ ----- --- ---- ------- -- ---- --- --<br>------- ------,157345.5,157342.90000000596,156963.872,156977.30000001192,156980.585,157348.271,,18,order
screen,html.Screen,2_1_1_1_19,2022-05-02T10:34:22.702Z,,,,,,,,,,,,,,,,,54,,,,,,,,,,,,,,306.62900000595255,,response,,,,100,,,,,,,Space,keypress(Space),,,,,,,,-- --- ---- --- ------ ----- ------- ---- -- --- ------- --<br>------- ---------- ------ -- ----- -- ----- to ---- ------<br>--- ----- --- --- ------ -------- ----- --- ------ ----- --<br>----- ----- ---------- --- --- ------ ------ ---- -- ------<br>------- --- ------ ----- --- ---- ------- -- ---- --- --<br>------- ------,157657.30000001192,157654.90000000596,157331.558,157345.69999998808,157348.271,157665.818,,19,to
screen,html.Screen,2_1_1_1_20,2022-05-02T10:34:22.990Z,,,,,,,,,,,,,,,,,54,,,,,,,,,,,,,,277.1820000000007,,response,,,,100,,,,,,,Space,keypress(Space),,,,,,,,-- --- ---- --- ------ ----- ------- ---- -- --- ------- --<br>------- ---------- ------ -- ----- -- ----- -- save ------<br>--- ----- --- --- ------ -------- ----- --- ------ ----- --<br>----- ----- ---------- --- --- ------ ------ ---- -- ------<br>------- --- ------ ----- --- ---- ------- -- ---- --- --<br>------- ------,157945.19999998808,157943,157649.105,157657.40000000596,157665.818,157949.939,,20,save
screen,html.Screen,2_1_1_1_21,2022-05-02T10:34:23.270Z,,,,,,,,,,,,,,,,,54,,,,,,,,,,,,,,273.06099999998696,,response,,,,100,,,,,,,Space,keypress(Space),,,,,,,,"-- --- ---- --- ------ ----- ------- ---- -- --- ------- --<br>------- ---------- ------ -- ----- -- ----- -- ---- money,<br>--- ----- --- --- ------ -------- ----- --- ------ ----- --<br>----- ----- ---------- --- --- ------ ------ ---- -- ------<br>------- --- ------ ----- --- ---- ------- -- ---- --- --<br>------- ------",158225.19999998808,158223,157933.226,157945.40000000596,157949.939,158234.06,,21,"money,"
screen,html.Screen,2_1_1_1_22,2022-05-02T10:34:23.542Z,,,,,,,,,,,,,,,,,54,,,,,,,,,,,,,,260.8400000059628,,response,,,,100,,,,,,,Space,keypress(Space),,,,,,,,-- --- ---- --- ------ ----- ------- ---- -- --- ------- --<br>------- ---------- ------ -- ----- -- ----- -- ---- ------<br>the ----- --- --- ------ -------- ----- --- ------ ----- --<br>----- ----- ---------- --- --- ------ ------ ---- -- ------<br>------- --- ------ ----- --- ---- ------- -- ---- --- --<br>------- ------,158497.30000001192,158494.90000000596,158217.347,158225.40000000596,158234.06,158501.468,,22,the
screen,html.Screen,2_1_1_1_23,2022-05-02T10:34:23.774Z,,,,,,,,,,,,,,,,,54,,,,,,,,,,,,,,225.53200000000652,,response,,,,100,,,,,,,Space,keypress(Space),,,,,,,,-- --- ---- --- ------ ----- ------- ---- -- --- ------- --<br>------- ---------- ------ -- ----- -- ----- -- ---- ------<br>--- state --- --- ------ -------- ----- --- ------ ----- --<br>----- ----- ---------- --- --- ------ ------ ---- -- ------<br>------- --- ------ ----- --- ---- ------- -- ---- --- --<br>------- ------,158729.40000000596,158727,158484.755,158497.40000000596,158501.468,158735.45,,23,state
screen,html.Screen,2_1_1_1_24,2022-05-02T10:34:23.998Z,,,,,,,,,,,,,,,,,54,,,,,,,,,,,,,,215.54999999998836,,response,,,,100,,,,,,,Space,keypress(Space),,,,,,,,-- --- ---- --- ------ ----- ------- ---- -- --- ------- --<br>------- ---------- ------ -- ----- -- ----- -- ---- ------<br>--- ----- cut --- ------ -------- ----- --- ------ ----- --<br>----- ----- ---------- --- --- ------ ------ ---- -- ------<br>------- --- ------ ----- --- ---- ------- -- ---- --- --<br>------- ------,158953.30000001192,158951,158718.737,158729.5,158735.45,158969.432,,24,cut
screen,html.Screen,2_1_1_1_25,2022-05-02T10:34:24.229Z,,,,,,,,,,,,,,,,,54,,,,,,,,,,,,,,213.5679999999993,,response,,,,100,,,,,,,Space,keypress(Space),,,,,,,,-- --- ---- --- ------ ----- ------- ---- -- --- ------- --<br>------- ---------- ------ -- ----- -- ----- -- ---- ------<br>--- ----- --- the ------ -------- ----- --- ------ ----- --<br>----- ----- ---------- --- --- ------ ------ ---- -- ------<br>------- --- ------ ----- --- ---- ------- -- ---- --- --<br>------- ------,159185.19999998808,159183,158952.719,158953.5,158969.432,159186.701,,25,the
screen,html.Screen,2_1_1_1_26,2022-05-02T10:34:24.445Z,,,,,,,,,,,,,,,,,54,,,,,,,,,,,,,,212.19900000595953,,response,,,,100,,,,,,,Space,keypress(Space),,,,,,,,-- --- ---- --- ------ ----- ------- ---- -- --- ------- --<br>------- ---------- ------ -- ----- -- ----- -- ---- ------<br>--- ----- --- --- bonds' -------- ----- --- ------ ----- --<br>----- ----- ---------- --- --- ------ ------ ---- -- ------<br>------- --- ------ ----- --- ---- ------- -- ---- --- --<br>------- ------,159401.19999998808,159398.90000000596,159169.988,159185.40000000596,159186.701,159403.97,,26,bonds'
screen,html.Screen,2_1_1_1_27,2022-05-02T10:34:24.870Z,,,,,,,,,,,,,,,,,54,,,,,,,,,,,,,,418.9300000059593,,response,,,,100,,,,,,,Space,keypress(Space),,,,,,,,-- --- ---- --- ------ ----- ------- ---- -- --- ------- --<br>------- ---------- ------ -- ----- -- ----- -- ---- ------<br>--- ----- --- --- ------ interest ----- --- ------ ----- --<br>----- ----- ---------- --- --- ------ ------ ---- -- ------<br>------- --- ------ ----- --- ---- ------- -- ---- --- --<br>------- ------,159825.5,159822.90000000596,159387.257,159401.40000000596,159403.97,159838.508,,27,interest
screen,html.Screen,2_1_1_1_28,2022-05-02T10:34:25.157Z,,,,,,,,,,,,,,,,,54,,,,,,,,,,,,,,272.39200000595883,,response,,,,100,,,,,,,Space,keypress(Space),,,,,,,,-- --- ---- --- ------ ----- ------- ---- -- --- ------- --<br>------- ---------- ------ -- ----- -- ----- -- ---- ------<br>--- ----- --- --- ------ -------- rate. --- ------ ----- --<br>----- ----- ---------- --- --- ------ ------ ---- -- ------<br>------- --- ------ ----- --- ---- ------- -- ---- --- --<br>------- ------,160113.19999998808,160110.90000000596,159821.795,159825.59999999404,159838.508,160122.629,,28,rate.
screen,html.Screen,2_1_1_1_29,2022-05-02T10:34:25.485Z,,,,,,,,,,,,,,,,,54,,,,,,,,,,,,,,316.2710000059742,,response,,,,100,,,,,,,Space,keypress(Space),,,,,,,,-- --- ---- --- ------ ----- ------- ---- -- --- ------- --<br>------- ---------- ------ -- ----- -- ----- -- ---- ------<br>--- ----- --- --- ------ -------- ----- The ------ ----- --<br>----- ----- ---------- --- --- ------ ------ ---- -- ------<br>------- --- ------ ----- --- ---- ------- -- ---- --- --<br>------- ------,160441.09999999404,160438.90000000596,160105.916,160113.40000000596,160122.629,160456.889,,29,The
screen,html.Screen,2_1_1_1_30,2022-05-02T10:34:25.766Z,,,,,,,,,,,,,,,,,54,,,,,,,,,,,,,,262.1110000000044,,response,,,,100,,,,,,,Space,keypress(Space),,,,,,,,-- --- ---- --- ------ ----- ------- ---- -- --- ------- --<br>------- ---------- ------ -- ----- -- ----- -- ---- ------<br>--- ----- --- --- ------ -------- ----- --- market ----- --<br>----- ----- ---------- --- --- ------ ------ ---- -- ------<br>------- --- ------ ----- --- ---- ------- -- ---- --- --<br>------- ------,160721.30000001192,160719,160440.176,160441.30000001192,160456.889,160724.297,,30,market
screen,html.Screen,2_1_1_1_31,2022-05-02T10:34:26.006Z,,,,,,,,,,,,,,,,,54,,,,,,,,,,,,,,234.60300000596908,,response,,,,100,,,,,,,Space,keypress(Space),,,,,,,,-- --- ---- --- ------ ----- ------- ---- -- --- ------- --<br>------- ---------- ------ -- ----- -- ----- -- ---- ------<br>--- ----- --- --- ------ -------- ----- --- ------ value --<br>----- ----- ---------- --- --- ------ ------ ---- -- ------<br>------- --- ------ ----- --- ---- ------- -- ---- --- --<br>------- ------,160961.40000000596,160958.90000000596,160707.584,160721.5,160724.297,160974.992,,31,value
screen,html.Screen,2_1_1_1_32,2022-05-02T10:34:26.285Z,,,,,,,,,,,,,,,,,54,,,,,,,,,,,,,,263.9080000059621,,response,,,,100,,,,,,,Space,keypress(Space),,,,,,,,-- --- ---- --- ------ ----- ------- ---- -- --- ------- --<br>------- ---------- ------ -- ----- -- ----- -- ---- ------<br>--- ----- --- --- ------ -------- ----- --- ------ ----- of<br>----- ----- ---------- --- --- ------ ------ ---- -- ------<br>------- --- ------ ----- --- ---- ------- -- ---- --- --<br>------- ------,161241.19999998808,161238.90000000596,160958.279,160961.5,160974.992,161242.4,,32,of
screen,html.Screen,2_1_1_1_33,2022-05-02T10:34:26.597Z,,,,,,,,,,,,,,,,,54,,,,,,,,,,,,,,308.6000000000058,,response,,,,100,,,,,,,Space,keypress(Space),,,,,,,,-- --- ---- --- ------ ----- ------- ---- -- --- ------- --<br>------- ---------- ------ -- ----- -- ----- -- ---- ------<br>--- ----- --- --- ------ -------- ----- --- ------ ----- --<br>these ----- ---------- --- --- ------ ------ ---- -- ------<br>------- --- ------ ----- --- ---- ------- -- ---- --- --<br>------- ------,161553.19999998808,161551,161225.687,161241.40000000596,161242.4,161559.947,,33,these
screen,html.Screen,2_1_1_1_34,2022-05-02T10:34:26.885Z,,,,,,,,,,,,,,,,,54,,,,,,,,,,,,,,279.05300000001444,,response,,,,100,,,,,,,Space,keypress(Space),,,,,,,,-- --- ---- --- ------ ----- ------- ---- -- --- ------- --<br>------- ---------- ------ -- ----- -- ----- -- ---- ------<br>--- ----- --- --- ------ -------- ----- --- ------ ----- --<br>----- bonds ---------- --- --- ------ ------ ---- -- ------<br>------- --- ------ ----- --- ---- ------- -- ---- --- --<br>------- ------,161841.19999998808,161839,161543.234,161553.40000000596,161559.947,161844.068,,34,bonds
screen,html.Screen,2_1_1_1_35,2022-05-02T10:34:27.110Z,,,,,,,,,,,,,,,,,54,,,,,,,,,,,,,,218.9320000000007,,response,,,,100,,,,,,,Space,keypress(Space),,,,,,,,"-- --- ---- --- ------ ----- ------- ---- -- --- ------- --<br>------- ---------- ------ -- ----- -- ----- -- ---- ------<br>--- ----- --- --- ------ -------- ----- --- ------ ----- --<br>----- ----- plummeted, --- --- ------ ------ ---- -- ------<br>------- --- ------ ----- --- ---- ------- -- ---- --- --<br>------- ------",162065.40000000596,162063,161827.355,161841.30000001192,161844.068,162078.05,,35,"plummeted,"
screen,html.Screen,2_1_1_1_36,2022-05-02T10:34:27.309Z,,,,,,,,,,,,,,,,,54,,,,,,,,,,,,,,184.95000000001164,,response,,,,100,,,,,,,Space,keypress(Space),,,,,,,,-- --- ---- --- ------ ----- ------- ---- -- --- ------- --<br>------- ---------- ------ -- ----- -- ----- -- ---- ------<br>--- ----- --- --- ------ -------- ----- --- ------ ----- --<br>----- ----- ---------- and --- ------ ------ ---- -- ------<br>------- --- ------ ----- --- ---- ------- -- ---- --- --<br>------- ------,162265.19999998808,162263,162061.337,162065.5,162078.05,162278.606,,36,and
screen,html.Screen,2_1_1_1_37,2022-05-02T10:34:27.597Z,,,,,,,,,,,,,,,,,54,,,,,,,,,,,,,,272.2940000059607,,response,,,,100,,,,,,,Space,keypress(Space),,,,,,,,-- --- ---- --- ------ ----- ------- ---- -- --- ------- --<br>------- ---------- ------ -- ----- -- ----- -- ---- ------<br>--- ----- --- --- ------ -------- ----- --- ------ ----- --<br>----- ----- ---------- --- the ------ ------ ---- -- ------<br>------- --- ------ ----- --- ---- ------- -- ---- --- --<br>------- ------,162553.09999999404,162550.90000000596,162261.893,162265.5,162278.606,162567.553,,37,the
screen,html.Screen,2_1_1_1_38,2022-05-02T10:34:27.814Z,,,,,,,,,,,,,,,,,54,,,,,,,,,,,,,,199.44699999998556,,response,,,,100,,,,,,,Space,keypress(Space),,,,,,,,-- --- ---- --- ------ ----- ------- ---- -- --- ------- --<br>------- ---------- ------ -- ----- -- ----- -- ---- ------<br>--- ----- --- --- ------ -------- ----- --- ------ ----- --<br>----- ----- ---------- --- --- market ------ ---- -- ------<br>------- --- ------ ----- --- ---- ------- -- ---- --- --<br>------- ------,162769.5,162767,162550.84,162553.19999998808,162567.553,162784.822,,38,market
screen,html.Screen,2_1_1_1_39,2022-05-02T10:34:28.013Z,,,,,,,,,,,,,,,,,54,,,,,,,,,,,,,,182.0780000059749,,response,,,,100,,,,,,,Space,keypress(Space),,,,,,,,-- --- ---- --- ------ ----- ------- ---- -- --- ------- --<br>------- ---------- ------ -- ----- -- ----- -- ---- ------<br>--- ----- --- --- ------ -------- ----- --- ------ ----- --<br>----- ----- ---------- --- --- ------ became ---- -- ------<br>------- --- ------ ----- --- ---- ------- -- ---- --- --<br>------- ------,162969.19999998808,162966.90000000596,162768.109,162769.59999999404,162784.822,162985.378,,39,became
screen,html.Screen,2_1_1_1_40,2022-05-02T10:34:28.349Z,,,,,,,,,,,,,,,,,54,,,,,,,,,,,,,,317.622000000003,,response,,,,100,,,,,,,Space,keypress(Space),,,,,,,,-- --- ---- --- ------ ----- ------- ---- -- --- ------- --<br>------- ---------- ------ -- ----- -- ----- -- ---- ------<br>--- ----- --- --- ------ -------- ----- --- ------ ----- --<br>----- ----- ---------- --- --- ------ ------ wary -- ------<br>------- --- ------ ----- --- ---- ------- -- ---- --- --<br>------- ------,163305.30000001192,163303,162968.665,162969.30000001192,162985.378,163319.638,,40,wary
screen,html.Screen,2_1_1_1_41,2022-05-02T10:34:28.646Z,,,,,,,,,,,,,,,,,54,,,,,,,,,,,,,,279.3619999999937,,response,,,,100,,,,,,,Space,keypress(Space),,,,,,,,-- --- ---- --- ------ ----- ------- ---- -- --- ------- --<br>------- ---------- ------ -- ----- -- ----- -- ---- ------<br>--- ----- --- --- ------ -------- ----- --- ------ ----- --<br>----- ----- ---------- --- --- ------ ------ ---- of ------<br>------- --- ------ ----- --- ---- ------- -- ---- --- --<br>------- ------,163601.40000000596,163599,163302.925,163305.5,163319.638,163603.759,,41,of
screen,html.Screen,2_1_1_1_42,2022-05-02T10:34:28.925Z,,,,,,,,,,,,,,,,,54,,,,,,,,,,,,,,275.14100000596954,,response,,,,100,,,,,,,Space,keypress(Space),,,,,,,,-- --- ---- --- ------ ----- ------- ---- -- --- ------- --<br>------- ---------- ------ -- ----- -- ----- -- ---- ------<br>--- ----- --- --- ------ -------- ----- --- ------ ----- --<br>----- ----- ---------- --- --- ------ ------ ---- -- French<br>------- --- ------ ----- --- ---- ------- -- ---- --- --<br>------- ------,163881.19999998808,163878.90000000596,163587.046,163601.5,163603.759,163887.88,,42,French
screen,html.Screen,2_1_1_1_43,2022-05-02T10:34:29.638Z,,,,,,,,,,,,,,,,,54,,,,,,,,,,,,,,703.1199999999953,,response,,,,100,,,,,,,Space,keypress(Space),,,,,,,,-- --- ---- --- ------ ----- ------- ---- -- --- ------- --<br>------- ---------- ------ -- ----- -- ----- -- ---- ------<br>--- ----- --- --- ------ -------- ----- --- ------ ----- --<br>----- ----- ---------- --- --- ------ ------ ---- -- ------<br>credit. --- ------ ----- --- ---- ------- -- ---- --- --<br>------- ------,164594.09999999404,164591,163871.167,163881.30000001192,163887.88,164606.539,,43,credit.
screen,html.Screen,2_1_1_1_44,2022-05-02T10:34:30.037Z,,,,,,,,,,,,,,,,,54,,,,,,,,,,,,,,384.3610000059707,,response,,,,100,,,,,,,Space,keypress(Space),,,,,,,,-- --- ---- --- ------ ----- ------- ---- -- --- ------- --<br>------- ---------- ------ -- ----- -- ----- -- ---- ------<br>--- ----- --- --- ------ -------- ----- --- ------ ----- --<br>----- ----- ---------- --- --- ------ ------ ---- -- ------<br>------- The ------ ----- --- ---- ------- -- ---- --- --<br>------- ------,164993.19999998808,164990.90000000596,164589.826,164594.19999998808,164606.539,165007.651,,44,The
screen,html.Screen,2_1_1_1_45,2022-05-02T10:34:30.309Z,,,,,,,,,,,,,,,,,54,,,,,,,,,,,,,,255.2490000059479,,response,,,,100,,,,,,,Space,keypress(Space),,,,,,,,-- --- ---- --- ------ ----- ------- ---- -- --- ------- --<br>------- ---------- ------ -- ----- -- ----- -- ---- ------<br>--- ----- --- --- ------ -------- ----- --- ------ ----- --<br>----- ----- ---------- --- --- ------ ------ ---- -- ------<br>------- --- French ----- --- ---- ------- -- ---- --- --<br>------- ------,165265.40000000596,165262.90000000596,164990.938,164993.40000000596,165007.651,165275.059,,45,French
screen,html.Screen,2_1_1_1_46,2022-05-02T10:34:30.845Z,,,,,,,,,,,,,,,,,54,,,,,,,,,,,,,,523.9409999999916,,response,,,,100,,,,,,,Space,keypress(Space),,,,,,,,-- --- ---- --- ------ ----- ------- ---- -- --- ------- --<br>------- ---------- ------ -- ----- -- ----- -- ---- ------<br>--- ----- --- --- ------ -------- ----- --- ------ ----- --<br>----- ----- ---------- --- --- ------ ------ ---- -- ------<br>------- --- ------ state --- ---- ------- -- ---- --- --<br>------- ------,165801.40000000596,165799,165258.346,165265.5,165275.059,165809.875,,46,state
screen,html.Screen,2_1_1_1_47,2022-05-02T10:34:31.606Z,,,,,,,,,,,,,,,,,54,,,,,,,,,,,,,,749.0250000059605,,response,,,,100,,,,,,,Space,keypress(Space),,,,,,,,-- --- ---- --- ------ ----- ------- ---- -- --- ------- --<br>------- ---------- ------ -- ----- -- ----- -- ---- ------<br>--- ----- --- --- ------ -------- ----- --- ------ ----- --<br>----- ----- ---------- --- --- ------ ------ ---- -- ------<br>------- --- ------ ----- was ---- ------- -- ---- --- --<br>------- ------,166561.5,166558.90000000596,165793.162,165801.5,165809.875,166578.673,,47,was
screen,html.Screen,2_1_1_1_48,2022-05-02T10:34:32.045Z,,,,,,,,,,,,,,,,,54,,,,,,,,,,,,,,420.2270000059507,,response,,,,100,,,,,,,Space,keypress(Space),,,,,,,,-- --- ---- --- ------ ----- ------- ---- -- --- ------- --<br>------- ---------- ------ -- ----- -- ----- -- ---- ------<br>--- ----- --- --- ------ -------- ----- --- ------ ----- --<br>----- ----- ---------- --- --- ------ ------ ---- -- ------<br>------- --- ------ ----- --- left ------- -- ---- --- --<br>------- ------,167001.40000000596,166998.90000000596,166561.96,166561.69999998808,166578.673,167013.211,,48,left
screen,html.Screen,2_1_1_1_49,2022-05-02T10:34:32.277Z,,,,,,,,,,,,,,,,,54,,,,,,,,,,,,,,217.68900000595022,,response,,,,100,,,,,,,Space,keypress(Space),,,,,,,,-- --- ---- --- ------ ----- ------- ---- -- --- ------- --<br>------- ---------- ------ -- ----- -- ----- -- ---- ------<br>--- ----- --- --- ------ -------- ----- --- ------ ----- --<br>----- ----- ---------- --- --- ------ ------ ---- -- ------<br>------- --- ------ ----- --- ---- without -- ---- --- --<br>------- ------,167233.30000001192,167230.90000000596,166996.498,167001.59999999404,167013.211,167247.193,,49,without
screen,html.Screen,2_1_1_1_50,2022-05-02T10:34:32.621Z,,,,,,,,,,,,,,,,,54,,,,,,,,,,,,,,327.6070000119216,,response,,,,100,,,,,,,Space,keypress(Space),,,,,,,,-- --- ---- --- ------ ----- ------- ---- -- --- ------- --<br>------- ---------- ------ -- ----- -- ----- -- ---- ------<br>--- ----- --- --- ------ -------- ----- --- ------ ----- --<br>----- ----- ---------- --- --- ------ ------ ---- -- ------<br>------- --- ------ ----- --- ---- ------- an ---- --- --<br>------- ------,167577.09999999404,167574.80000001192,167230.48,167233.40000000596,167247.193,167581.453,,50,an
screen,html.Screen,2_1_1_1_51,2022-05-02T10:34:32.997Z,,,,,,,,,,,,,,,,,54,,,,,,,,,,,,,,369.44700000595185,,response,,,,100,,,,,,,Space,keypress(Space),,,,,,,,-- --- ---- --- ------ ----- ------- ---- -- --- ------- --<br>------- ---------- ------ -- ----- -- ----- -- ---- ------<br>--- ----- --- --- ------ -------- ----- --- ------ ----- --<br>----- ----- ---------- --- --- ------ ------ ---- -- ------<br>------- --- ------ ----- --- ---- ------- -- easy --- --<br>------- ------,167953.30000001192,167950.90000000596,167564.74,167577.19999998808,167581.453,167965.852,,51,easy
screen,html.Screen,2_1_1_1_52,2022-05-02T10:34:33.189Z,,,,,,,,,,,,,,,,,54,,,,,,,,,,,,,,176.94800001190742,,response,,,,100,,,,,,,Space,keypress(Space),,,,,,,,-- --- ---- --- ------ ----- ------- ---- -- --- ------- --<br>------- ---------- ------ -- ----- -- ----- -- ---- ------<br>--- ----- --- --- ------ -------- ----- --- ------ ----- --<br>----- ----- ---------- --- --- ------ ------ ---- -- ------<br>------- --- ------ ----- --- ---- ------- -- ---- way --<br>------- ------,168145.19999998808,168142.80000001192,167949.139,167953.5,167965.852,168149.695,,52,way
screen,html.Screen,2_1_1_1_53,2022-05-02T10:34:33.623Z,,,,,,,,,,,,,,,,,54,,,,,,,,,,,,,,425.10500001191394,,response,,,,100,,,,,,,Space,keypress(Space),,,,,,,,-- --- ---- --- ------ ----- ------- ---- -- --- ------- --<br>------- ---------- ------ -- ----- -- ----- -- ---- ------<br>--- ----- --- --- ------ -------- ----- --- ------ ----- --<br>----- ----- ---------- --- --- ------ ------ ---- -- ------<br>------- --- ------ ----- --- ---- ------- -- ---- --- of<br>------- ------,168578.5,168574.80000001192,168132.982,168145.30000001192,168149.695,168584.233,,53,of
screen,html.Screen,2_1_1_1_54,2022-05-02T10:34:33.997Z,,,,,,,,,,,,,,,,,54,,,,,,,,,,,,,,366.76699999999255,,response,,,,100,,,,,,,Space,keypress(Space),,,,,,,,-- --- ---- --- ------ ----- ------- ---- -- --- ------- --<br>------- ---------- ------ -- ----- -- ----- -- ---- ------<br>--- ----- --- --- ------ -------- ----- --- ------ ----- --<br>----- ----- ---------- --- --- ------ ------ ---- -- ------<br>------- --- ------ ----- --- ---- ------- -- ---- --- --<br>raising ------,168953.40000000596,168951,168567.52,168578.69999998808,168584.233,168968.632,,54,raising
screen,html.Screen,2_1_1_1_55,2022-05-02T10:34:34.445Z,,,,,,,,,,,,,,,,,54,,,,,,,,,,,,,,430.2680000059481,,response,,,,100,,,,,,,Space,keypress(Space),,,,,,,,-- --- ---- --- ------ ----- ------- ---- -- --- ------- --<br>------- ---------- ------ -- ----- -- ----- -- ---- ------<br>--- ----- --- --- ------ -------- ----- --- ------ ----- --<br>----- ----- ---------- --- --- ------ ------ ---- -- ------<br>------- --- ------ ----- --- ---- ------- -- ---- --- --<br>------- money.,169401.19999998808,169398.90000000596,168951.919,168953.5,168968.632,169403.17,,55,money.
Item 100,flow.Loop,2_1_1_1,2022-05-02T10:34:34.445Z,,,,,,,,,,,,,,,,,,,,,,,,,,,,,,,20646.11200000596,,completion,,,,,F,,,,,,,,,,,silence,,,,,169401.40000000596,169398.90000000596,148736.075,148738.40000000596,148752.788,169403.17,,,
Question 1,html.Screen,2_1_1_2,2022-05-02T10:34:36.601Z,,,,,,,,,,,,,,,,,,,,,,,,,,,,true,TRUE,,2152.2300000059477,,response,,,,100,F,,,,,,TRUE,click #choice-1,,,,silence,,,,,171556.90000000596,171555.40000000596,169386.457,169401.5,169403.17,171575.86,,,
Question 2,html.Screen,2_1_1_3,2022-05-02T10:34:39.234Z,,,,,,,,,,,,,,,,,,,,,,,,,,,,true,FALSE,,2613.339999988093,,response,,,,100,F,,,,,,FALSE,click #choice-2,,,,silence,,,,,174190.59999999404,174189.19999998808,171559.147,171557,171575.86,174204.877,,,
Item 100,flow.Sequence,2_1_1,2022-05-02T10:34:39.235Z,,,,,,,,,,,,,,,,,,,,,,,,,,,,,,,35435.77899998808,,completion,,,,,,,,,,,,,,,,,,,,,174190.80000001192,174189.19999998808,138736.708,138738.30000001192,138753.421,174204.877,,,
End of Practice,html.Page,2_1_2,2022-05-02T10:34:42.598Z,,,,,,,,,,,,,,,,,,,,,,,,,,,,,,,3348.722999994032,,form submission,,,,,,,,,,,,,,,,,,,,,177554,177553.59999999404,174188.164,174190.90000000596,174204.877,177564.19,,,
Practice,flow.Sequence,2_1,2022-05-02T10:34:42.598Z,,,,,,,,,,,,,,,,,,,,,,,,,,,,,,,76911.04699999404,,completion,,,,,,,,,,,,,,,,,,,,,177554.09999999404,177553.59999999404,100625.84,100632.5,100642.553,177564.19,,,
Trap_instruction,html.Page,2_2_0,2022-05-02T10:34:45.903Z,,,,,,,,,,,,,,,,,,,,,,,,,,,,,,,3294.8099999999977,,form submission,,,,,,,,,,,,,,,,,,,,,180859.30000001192,180859,177547.477,177554.19999998808,177564.19,180873.364,,,
trap_trial,html.Screen,2_2_1,2022-05-02T10:34:49.130Z,,,,,,,,,,,,,,,,,,,,,,,,,,,,true,1,,3211.6359999999986,,response,,,,,,,,,,,1,click #choice-1,,,,,,,,,184086.40000000596,184085,180856.651,180859.5,180873.364,184098.973,,,
end of trap trial,html.Page,2_2_2,2022-05-02T10:34:50.573Z,,,,,,,,,,,,,,,,,,,,,,,,,,,,,,,1430.5270000000019,,form submission,,,,,,,,,,,,,,,,,,,,,185529.69999998808,185529.5,184082.26,184086.59999999404,184098.973,185542.041,,,
Trap 1,flow.Sequence,2_2,2022-05-02T10:34:50.573Z,,,,,,,,,,,,,,,,,,,,,,,,,,,,,,,7965.309999999998,,completion,,,,,,,,,,,,,,,,,,,,,185529.90000000596,185529.5,177547.477,177554.19999998808,177564.19,185542.041,,,
Standby,html.Page,2_3_0,2022-05-02T10:34:58.577Z,,,,,,,,,,,,,,,,,,,,,,,,,,,,,,,8005.527000000002,,timeout,,,,,,,,,,,,,,,,,,,,,193533.30000001192,193530.855,185525.328,185530,185542.041,193547.568,,,
Holding screen,html.Screen,2_3_1_0_0,2022-05-02T10:35:05.590Z,,,,,,,,,,,,,,,,,,,,,,,,,,,,,,,7007.9100000000035,,timeout,,,,,,,,,,,,,,,,,,,,,200546.5,200538.765,193530.855,193533.5,193547.568,200555.478,,,
screen,html.Screen,2_3_1_0_1_0,2022-05-02T10:35:06.392Z,,,,,,,,,,,,,,,,,19,,,,,,,,,,,,,,789.2219999880763,,response,,,,17,F,,,,,,Space,keypress(Space),,,,lyrical,,,,"Interestingly, --- -------- -------- ---------- ---- -------<br>-- ---------- -- --- ----- ------ ----- ---- --------- ----<br>------- ------ -------- -- ------ ---------- ------ ---<br>------ -- -- ---- -- ---------- -------- ------ ---- -------<br>---- --- --------- ------- ----- --------- ---- ----- --<br>------ -------- -- ------ -- ---- ------------",201348.90000000596,201344.69999998808,200538.765,200546.69999998808,200555.478,201357.702,,0,"Interestingly,"
screen,html.Screen,2_3_1_0_1_1,2022-05-02T10:35:06.767Z,,,,,,,,,,,,,,,,,19,,,,,,,,,,,,,,362.99799998808885,,response,,,,17,F,,,,,,Space,keypress(Space),,,,lyrical,,,,-------------- the -------- -------- ---------- ---- -------<br>-- ---------- -- --- ----- ------ ----- ---- --------- ----<br>------- ------ -------- -- ------ ---------- ------ ---<br>------ -- -- ---- -- ---------- -------- ------ ---- -------<br>---- --- --------- ------- ----- --------- ---- ----- --<br>------ -------- -- ------ -- ---- ------------,201723.80000001192,201720.69999998808,201340.989,201349.19999998808,201357.702,201725.388,,1,the
screen,html.Screen,2_3_1_0_1_2,2022-05-02T10:35:07.166Z,,,,,,,,,,,,,,,,,19,,,,,,,,,,,,,,395.41200001191464,,response,,,,17,F,,,,,,Space,keypress(Space),,,,lyrical,,,,-------------- --- heaviest -------- ---------- ---- -------<br>-- ---------- -- --- ----- ------ ----- ---- --------- ----<br>------- ------ -------- -- ------ ---------- ------ ---<br>------ -- -- ---- -- ---------- -------- ------ ---- -------<br>---- --- --------- ------- ----- --------- ---- ----- --<br>------ -------- -- ------ -- ---- ------------,202123.30000001192,202120.80000001192,201708.675,201724,201725.388,202126.5,,2,heaviest
screen,html.Screen,2_3_1_0_1_3,2022-05-02T10:35:07.511Z,,,,,,,,,,,,,,,,,19,,,,,,,,,,,,,,338.30000001192093,,response,,,,17,F,,,,,,Space,keypress(Space),,,,lyrical,,,,-------------- --- -------- isotopes ---------- ---- -------<br>-- ---------- -- --- ----- ------ ----- ---- --------- ----<br>------- ------ -------- -- ------ ---------- ------ ---<br>------ -- -- ---- -- ---------- -------- ------ ---- -------<br>---- --- --------- ------- ----- --------- ---- ----- --<br>------ -------- -- ------ -- ---- ------------,202467.69999998808,202464.80000001192,202109.787,202123.40000000596,202126.5,202477.473,,3,isotopes
screen,html.Screen,2_3_1_0_1_4,2022-05-02T10:35:08.022Z,,,,,,,,,,,,,,,,,19,,,,,,,,,,,,,,499.22699998808093,,response,,,,17,F,,,,,,Space,keypress(Space),,,,lyrical,,,,-------------- --- -------- -------- physicists ---- -------<br>-- ---------- -- --- ----- ------ ----- ---- --------- ----<br>------- ------ -------- -- ------ ---------- ------ ---<br>------ -- -- ---- -- ---------- -------- ------ ---- -------<br>---- --- --------- ------- ----- --------- ---- ----- --<br>------ -------- -- ------ -- ---- ------------,202979.30000001192,202976.69999998808,202460.76,202467.90000000596,202477.473,202995.576,,4,physicists
screen,html.Screen,2_3_1_0_1_5,2022-05-02T10:35:08.359Z,,,,,,,,,,,,,,,,,19,,,,,,,,,,,,,,317.12399998807814,,response,,,,17,F,,,,,,Space,keypress(Space),,,,lyrical,,,,-------------- --- -------- -------- ---------- have -------<br>-- ---------- -- --- ----- ------ ----- ---- --------- ----<br>------- ------ -------- -- ------ ---------- ------ ---<br>------ -- -- ---- -- ---------- -------- ------ ---- -------<br>---- --- --------- ------- ----- --------- ---- ----- --<br>------ -------- -- ------ -- ---- ------------,203315.5,203312.69999998808,202978.863,202979.5,202995.576,203329.836,,5,have
screen,html.Screen,2_3_1_0_1_6,2022-05-02T10:35:08.647Z,,,,,,,,,,,,,,,,,19,,,,,,,,,,,,,,270.8639999880688,,response,,,,17,F,,,,,,Space,keypress(Space),,,,lyrical,,,,-------------- --- -------- -------- ---------- ---- managed<br>-- ---------- -- --- ----- ------ ----- ---- --------- ----<br>------- ------ -------- -- ------ ---------- ------ ---<br>------ -- -- ---- -- ---------- -------- ------ ---- -------<br>---- --- --------- ------- ----- --------- ---- ----- --<br>------ -------- -- ------ -- ---- ------------,203603.40000000596,203600.69999998808,203313.123,203315.69999998808,203329.836,203613.957,,6,managed
screen,html.Screen,2_3_1_0_1_7,2022-05-02T10:35:08.942Z,,,,,,,,,,,,,,,,,19,,,,,,,,,,,,,,282.84300001192605,,response,,,,17,F,,,,,,Space,keypress(Space),,,,lyrical,,,,-------------- --- -------- -------- ---------- ---- -------<br>to ---------- -- --- ----- ------ ----- ---- --------- ----<br>------- ------ -------- -- ------ ---------- ------ ---<br>------ -- -- ---- -- ---------- -------- ------ ---- -------<br>---- --- --------- ------- ----- --------- ---- ----- --<br>------ -------- -- ------ -- ---- ------------,203899.30000001192,203896.80000001192,203597.244,203603.59999999404,203613.957,203914.791,,7,to
screen,html.Screen,2_3_1_0_1_8,2022-05-02T10:35:09.255Z,,,,,,,,,,,,,,,,,19,,,,,,,,,,,,,,293.8089999940421,,response,,,,17,F,,,,,,Space,keypress(Space),,,,lyrical,,,,-------------- --- -------- -------- ---------- ---- -------<br>-- synthesize -- --- ----- ------ ----- ---- --------- ----<br>------- ------ -------- -- ------ ---------- ------ ---<br>------ -- -- ---- -- ---------- -------- ------ ---- -------<br>---- --- --------- ------- ----- --------- ---- ----- --<br>------ -------- -- ------ -- ---- ------------,204211.5,204208.59999999404,203898.078,203899.5,203914.791,204215.625,,8,synthesize
screen,html.Screen,2_3_1_0_1_9,2022-05-02T10:35:09.720Z,,,,,,,,,,,,,,,,,19,,,,,,,,,,,,,,456.97499999403954,,response,,,,17,F,,,,,,Space,keypress(Space),,,,lyrical,,,,-------------- --- -------- -------- ---------- ---- -------<br>-- ---------- so --- ----- ------ ----- ---- --------- ----<br>------- ------ -------- -- ------ ---------- ------ ---<br>------ -- -- ---- -- ---------- -------- ------ ---- -------<br>---- --- --------- ------- ----- --------- ---- ----- --<br>------ -------- -- ------ -- ---- ------------,204677.30000001192,204672.59999999404,204198.912,204211.80000001192,204215.625,204683.589,,9,so
screen,html.Screen,2_3_1_0_1_10,2022-05-02T10:35:10.119Z,,,,,,,,,,,,,,,,,19,,,,,,,,,,,,,,389.11099998807185,,response,,,,17,F,,,,,,Space,keypress(Space),,,,lyrical,,,,-------------- --- -------- -------- ---------- ---- -------<br>-- ---------- -- far ----- ------ ----- ---- --------- ----<br>------- ------ -------- -- ------ ---------- ------ ---<br>------ -- -- ---- -- ---------- -------- ------ ---- -------<br>---- --- --------- ------- ----- --------- ---- ----- --<br>------ -------- -- ------ -- ---- ------------,205076.19999998808,205072.69999998808,204666.876,204677.40000000596,204683.589,205084.701,,10,far
screen,html.Screen,2_3_1_0_1_11,2022-05-02T10:35:10.471Z,,,,,,,,,,,,,,,,,19,,,,,,,,,,,,,,339.99899998807814,,response,,,,17,F,,,,,,Space,keypress(Space),,,,lyrical,,,,-------------- --- -------- -------- ---------- ---- -------<br>-- ---------- -- --- don't ------ ----- ---- --------- ----<br>------- ------ -------- -- ------ ---------- ------ ---<br>------ -- -- ---- -- ---------- -------- ------ ---- -------<br>---- --- --------- ------- ----- --------- ---- ----- --<br>------ -------- -- ------ -- ---- ------------,205427.69999998808,205424.69999998808,205067.988,205076.30000001192,205084.701,205440.591,,11,don't
screen,html.Screen,2_3_1_0_1_12,2022-05-02T10:35:10.798Z,,,,,,,,,,,,,,,,,19,,,,,,,,,,,,,,312.00899999405374,,response,,,,17,F,,,,,,Space,keypress(Space),,,,lyrical,,,,-------------- --- -------- -------- ---------- ---- -------<br>-- ---------- -- --- ----- behave ----- ---- --------- ----<br>------- ------ -------- -- ------ ---------- ------ ---<br>------ -- -- ---- -- ---------- -------- ------ ---- -------<br>---- --- --------- ------- ----- --------- ---- ----- --<br>------ -------- -- ------ -- ---- ------------,205755.30000001192,205752.59999999404,205423.878,205427.80000001192,205440.591,205758.138,,12,behave
screen,html.Screen,2_3_1_0_1_13,2022-05-02T10:35:11.167Z,,,,,,,,,,,,,,,,,19,,,,,,,,,,,,,,362.5619999880728,,response,,,,17,F,,,,,,Space,keypress(Space),,,,lyrical,,,,-------------- --- -------- -------- ---------- ---- -------<br>-- ---------- -- --- ----- ------ quite ---- --------- ----<br>------- ------ -------- -- ------ ---------- ------ ---<br>------ -- -- ---- -- ---------- -------- ------ ---- -------<br>---- --- --------- ------- ----- --------- ---- ----- --<br>------ -------- -- ------ -- ---- ------------,206123.69999998808,206120.69999998808,205741.425,205755.5,205758.138,206125.824,,13,quite
screen,html.Screen,2_3_1_0_1_14,2022-05-02T10:35:11.494Z,,,,,,,,,,,,,,,,,19,,,,,,,,,,,,,,322.8759999880858,,response,,,,17,F,,,,,,Space,keypress(Space),,,,lyrical,,,,-------------- --- -------- -------- ---------- ---- -------<br>-- ---------- -- --- ----- ------ ----- like --------- ----<br>------- ------ -------- -- ------ ---------- ------ ---<br>------ -- -- ---- -- ---------- -------- ------ ---- -------<br>---- --- --------- ------- ----- --------- ---- ----- --<br>------ -------- -- ------ -- ---- ------------,206451.40000000596,206448.69999998808,206109.111,206123.90000000596,206125.824,206460.084,,14,like
screen,html.Screen,2_3_1_0_1_15,2022-05-02T10:35:11.974Z,,,,,,,,,,,,,,,,,19,,,,,,,,,,,,,,468.6159999880765,,response,,,,17,F,,,,,,Space,keypress(Space),,,,lyrical,,,,-------------- --- -------- -------- ---------- ---- -------<br>-- ---------- -- --- ----- ------ ----- ---- science's ----<br>------- ------ -------- -- ------ ---------- ------ ---<br>------ -- -- ---- -- ---------- -------- ------ ---- -------<br>---- --- --------- ------- ----- --------- ---- ----- --<br>------ -------- -- ------ -- ---- ------------,206931.40000000596,206928.69999998808,206443.371,206451.59999999404,206460.084,206944.761,,15,science's
screen,html.Screen,2_3_1_0_1_16,2022-05-02T10:35:12.335Z,,,,,,,,,,,,,,,,,19,,,,,,,,,,,,,,343.93899998808047,,response,,,,17,F,,,,,,Space,keypress(Space),,,,lyrical,,,,-------------- --- -------- -------- ---------- ---- -------<br>-- ---------- -- --- ----- ------ ----- ---- --------- best<br>------- ------ -------- -- ------ ---------- ------ ---<br>------ -- -- ---- -- ---------- -------- ------ ---- -------<br>---- --- --------- ------- ----- --------- ---- ----- --<br>------ -------- -- ------ -- ---- ------------,207291.90000000596,207288.69999998808,206928.048,206931.5,206944.761,207295.734,,16,best
screen,html.Screen,2_3_1_0_1_17,2022-05-02T10:35:12.751Z,,,,,,,,,,,,,,,,,19,,,,,,,,,,,,,,408.96599998808233,,response,,,,17,F,,,,,,Space,keypress(Space),,,,lyrical,,,,-------------- --- -------- -------- ---------- ---- -------<br>-- ---------- -- --- ----- ------ ----- ---- --------- ----<br>current ------ -------- -- ------ ---------- ------ ---<br>------ -- -- ---- -- ---------- -------- ------ ---- -------<br>---- --- --------- ------- ----- --------- ---- ----- --<br>------ -------- -- ------ -- ---- ------------,207707.59999999404,207704.69999998808,207279.021,207291.90000000596,207295.734,207713.559,,17,current
screen,html.Screen,2_3_1_0_1_18,2022-05-02T10:35:13.151Z,,,,,,,,,,,,,,,,,19,,,,,,,,,,,,,,391.1409999880707,,response,,,,17,F,,,,,,Space,keypress(Space),,,,lyrical,,,,-------------- --- -------- -------- ---------- ---- -------<br>-- ---------- -- --- ----- ------ ----- ---- --------- ----<br>------- models -------- -- ------ ---------- ------ ---<br>------ -- -- ---- -- ---------- -------- ------ ---- -------<br>---- --- --------- ------- ----- --------- ---- ----- --<br>------ -------- -- ------ -- ---- ------------,208107.59999999404,208104.69999998808,207696.846,207707.80000001192,207713.559,208114.671,,18,models
screen,html.Screen,2_3_1_0_1_19,2022-05-02T10:35:13.743Z,,,,,,,,,,,,,,,,,19,,,,,,,,,,,,,,582.028999988077,,response,,,,17,F,,,,,,Space,keypress(Space),,,,lyrical,,,,"-------------- --- -------- -------- ---------- ---- -------<br>-- ---------- -- --- ----- ------ ----- ---- --------- ----<br>------- ------ predict, -- ------ ---------- ------ ---<br>------ -- -- ---- -- ---------- -------- ------ ---- -------<br>---- --- --------- ------- ----- --------- ---- ----- --<br>------ -------- -- ------ -- ---- ------------",208699.80000001192,208696.69999998808,208097.958,208107.90000000596,208114.671,208716.339,,19,"predict,"
screen,html.Screen,2_3_1_0_1_20,2022-05-02T10:35:14.159Z,,,,,,,,,,,,,,,,,19,,,,,,,,,,,,,,396.2609999940323,,response,,,,17,F,,,,,,Space,keypress(Space),,,,lyrical,,,,-------------- --- -------- -------- ---------- ---- -------<br>-- ---------- -- --- ----- ------ ----- ---- --------- ----<br>------- ------ -------- so ------ ---------- ------ ---<br>------ -- -- ---- -- ---------- -------- ------ ---- -------<br>---- --- --------- ------- ----- --------- ---- ----- --<br>------ -------- -- ------ -- ---- ------------,209115.80000001192,209112.59999999404,208699.626,208700,208716.339,209117.451,,20,so
screen,html.Screen,2_3_1_0_1_21,2022-05-02T10:35:14.455Z,,,,,,,,,,,,,,,,,19,,,,,,,,,,,,,,291.24899998807814,,response,,,,17,F,,,,,,Space,keypress(Space),,,,lyrical,,,,-------------- --- -------- -------- ---------- ---- -------<br>-- ---------- -- --- ----- ------ ----- ---- --------- ----<br>------- ------ -------- -- stable ---------- ------ ---<br>------ -- -- ---- -- ---------- -------- ------ ---- -------<br>---- --- --------- ------- ----- --------- ---- ----- --<br>------ -------- -- ------ -- ---- ------------,209411.90000000596,209408.69999998808,209100.738,209115.90000000596,209117.451,209418.285,,21,stable
screen,html.Screen,2_3_1_0_1_22,2022-05-02T10:35:15.167Z,,,,,,,,,,,,,,,,,19,,,,,,,,,,,,,,702.4149999880756,,response,,,,17,F,,,,,,Space,keypress(Space),,,,lyrical,,,,-------------- --- -------- -------- ---------- ---- -------<br>-- ---------- -- --- ----- ------ ----- ---- --------- ----<br>------- ------ -------- -- ------ superheavy ------ ---<br>------ -- -- ---- -- ---------- -------- ------ ---- -------<br>---- --- --------- ------- ----- --------- ---- ----- --<br>------ -------- -- ------ -- ---- ------------,210124,210120.69999998808,209401.572,209412.09999999404,209418.285,210136.944,,22,superheavy
screen,html.Screen,2_3_1_0_1_23,2022-05-02T10:35:15.566Z,,,,,,,,,,,,,,,,,19,,,,,,,,,,,,,,383.7559999880905,,response,,,,17,F,,,,,,Space,keypress(Space),,,,lyrical,,,,-------------- --- -------- -------- ---------- ---- -------<br>-- ---------- -- --- ----- ------ ----- ---- --------- ----<br>------- ------ -------- -- ------ ---------- nuclei ---<br>------ -- -- ---- -- ---------- -------- ------ ---- -------<br>---- --- --------- ------- ----- --------- ---- ----- --<br>------ -------- -- ------ -- ---- ------------,210523.40000000596,210520.69999998808,210120.231,210124.09999999404,210136.944,210538.056,,23,nuclei
screen,html.Screen,2_3_1_0_1_24,2022-05-02T10:35:16.015Z,,,,,,,,,,,,,,,,,19,,,,,,,,,,,,,,430.64399998806766,,response,,,,17,F,,,,,,Space,keypress(Space),,,,lyrical,,,,-------------- --- -------- -------- ---------- ---- -------<br>-- ---------- -- --- ----- ------ ----- ---- --------- ----<br>------- ------ -------- -- ------ ---------- ------ are<br>------ -- -- ---- -- ---------- -------- ------ ---- -------<br>---- --- --------- ------- ----- --------- ---- ----- --<br>------ -------- -- ------ -- ---- ------------,210971.59999999404,210968.69999998808,210521.343,210523.90000000596,210538.056,210972.594,,24,are
screen,html.Screen,2_3_1_0_1_25,2022-05-02T10:35:16.471Z,,,,,,,,,,,,,,,,,19,,,,,,,,,,,,,,452.1059999880672,,response,,,,17,F,,,,,,Space,keypress(Space),,,,lyrical,,,,-------------- --- -------- -------- ---------- ---- -------<br>-- ---------- -- --- ----- ------ ----- ---- --------- ----<br>------- ------ -------- -- ------ ---------- ------ ---<br>likely -- -- ---- -- ---------- -------- ------ ---- -------<br>---- --- --------- ------- ----- --------- ---- ----- --<br>------ -------- -- ------ -- ---- ------------,211428,211424.69999998808,210955.881,210971.69999998808,210972.594,211440.558,,25,likely
screen,html.Screen,2_3_1_0_1_26,2022-05-02T10:35:16.711Z,,,,,,,,,,,,,,,,,19,,,,,,,,,,,,,,224.14199998808908,,response,,,,17,F,,,,,,Space,keypress(Space),,,,lyrical,,,,-------------- --- -------- -------- ---------- ---- -------<br>-- ---------- -- --- ----- ------ ----- ---- --------- ----<br>------- ------ -------- -- ------ ---------- ------ ---<br>------ to -- ---- -- ---------- -------- ------ ---- -------<br>---- --- --------- ------- ----- --------- ---- ----- --<br>------ -------- -- ------ -- ---- ------------,211667.69999998808,211664.69999998808,211423.845,211428.19999998808,211440.558,211674.54,,26,to
screen,html.Screen,2_3_1_0_1_27,2022-05-02T10:35:17.126Z,,,,,,,,,,,,,,,,,19,,,,,,,,,,,,,,406.1599999880709,,response,,,,17,F,,,,,,Space,keypress(Space),,,,lyrical,,,,-------------- --- -------- -------- ---------- ---- -------<br>-- ---------- -- --- ----- ------ ----- ---- --------- ----<br>------- ------ -------- -- ------ ---------- ------ ---<br>------ -- be ---- -- ---------- -------- ------ ---- -------<br>---- --- --------- ------- ----- --------- ---- ----- --<br>------ -------- -- ------ -- ---- ------------,212083.19999998808,212080.69999998808,211657.827,211667.90000000596,211674.54,212092.365,,27,be
screen,html.Screen,2_3_1_0_1_28,2022-05-02T10:35:17.526Z,,,,,,,,,,,,,,,,,19,,,,,,,,,,,,,,388.23499999404885,,response,,,,17,F,,,,,,Space,keypress(Space),,,,lyrical,,,,-------------- --- -------- -------- ---------- ---- -------<br>-- ---------- -- --- ----- ------ ----- ---- --------- ----<br>------- ------ -------- -- ------ ---------- ------ ---<br>------ -- -- full -- ---------- -------- ------ ---- -------<br>---- --- --------- ------- ----- --------- ---- ----- --<br>------ -------- -- ------ -- ---- ------------,212483.19999998808,212480.59999999404,212075.652,212083.40000000596,212092.365,212493.477,,28,full
screen,html.Screen,2_3_1_0_1_29,2022-05-02T10:35:17.999Z,,,,,,,,,,,,,,,,,19,,,,,,,,,,,,,,459.22299998806557,,response,,,,17,F,,,,,,Space,keypress(Space),,,,lyrical,,,,-------------- --- -------- -------- ---------- ---- -------<br>-- ---------- -- --- ----- ------ ----- ---- --------- ----<br>------- ------ -------- -- ------ ---------- ------ ---<br>------ -- -- ---- of ---------- -------- ------ ---- -------<br>---- --- --------- ------- ----- --------- ---- ----- --<br>------ -------- -- ------ -- ---- ------------,212955.59999999404,212952.69999998808,212476.764,212483.30000001192,212493.477,212961.441,,29,of
screen,html.Screen,2_3_1_0_1_30,2022-05-02T10:35:18.478Z,,,,,,,,,,,,,,,,,19,,,,,,,,,,,,,,471.1589999940479,,response,,,,17,F,,,,,,Space,keypress(Space),,,,lyrical,,,,-------------- --- -------- -------- ---------- ---- -------<br>-- ---------- -- --- ----- ------ ----- ---- --------- ----<br>------- ------ -------- -- ------ ---------- ------ ---<br>------ -- -- ---- -- surprises. -------- ------ ---- -------<br>---- --- --------- ------- ----- --------- ---- ----- --<br>------ -------- -- ------ -- ---- ------------,213435.09999999404,213432.59999999404,212944.728,212956,212961.441,213446.118,,30,surprises.
screen,html.Screen,2_3_1_0_1_31,2022-05-02T10:35:19.247Z,,,,,,,,,,,,,,,,,19,,,,,,,,,,,,,,754.5819999880914,,response,,,,17,F,,,,,,Space,keypress(Space),,,,lyrical,,,,-------------- --- -------- -------- ---------- ---- -------<br>-- ---------- -- --- ----- ------ ----- ---- --------- ----<br>------- ------ -------- -- ------ ---------- ------ ---<br>------ -- -- ---- -- ---------- Chemists ------ ---- -------<br>---- --- --------- ------- ----- --------- ---- ----- --<br>------ -------- -- ------ -- ---- ------------,214204.40000000596,214200.69999998808,213429.405,213435.19999998808,213446.118,214214.916,,31,Chemists
screen,html.Screen,2_3_1_0_1_32,2022-05-02T10:35:19.686Z,,,,,,,,,,,,,,,,,19,,,,,,,,,,,,,,425.78399998808163,,response,,,,17,F,,,,,,Space,keypress(Space),,,,lyrical,,,,-------------- --- -------- -------- ---------- ---- -------<br>-- ---------- -- --- ----- ------ ----- ---- --------- ----<br>------- ------ -------- -- ------ ---------- ------ ---<br>------ -- -- ---- -- ---------- -------- cannot ---- -------<br>---- --- --------- ------- ----- --------- ---- ----- --<br>------ -------- -- ------ -- ---- ------------,214643.5,214640.69999998808,214198.203,214204.5,214214.916,214649.454,,32,cannot
screen,html.Screen,2_3_1_0_1_33,2022-05-02T10:35:20.039Z,,,,,,,,,,,,,,,,,19,,,,,,,,,,,,,,343.346000011923,,response,,,,17,F,,,,,,Space,keypress(Space),,,,lyrical,,,,-------------- --- -------- -------- ---------- ---- -------<br>-- ---------- -- --- ----- ------ ----- ---- --------- ----<br>------- ------ -------- -- ------ ---------- ------ ---<br>------ -- -- ---- -- ---------- -------- ------ even -------<br>---- --- --------- ------- ----- --------- ---- ----- --<br>------ -------- -- ------ -- ---- ------------,214995.80000001192,214992.80000001192,214632.741,214643.69999998808,214649.454,215000.427,,33,even
screen,html.Screen,2_3_1_0_1_34,2022-05-02T10:35:21.007Z,,,,,,,,,,,,,,,,,19,,,,,,,,,,,,,,960.272999988083,,response,,,,17,F,,,,,,Space,keypress(Space),,,,lyrical,,,,-------------- --- -------- -------- ---------- ---- -------<br>-- ---------- -- --- ----- ------ ----- ---- --------- ----<br>------- ------ -------- -- ------ ---------- ------ ---<br>------ -- -- ---- -- ---------- -------- ------ ---- predict<br>---- --- --------- ------- ----- --------- ---- ----- --<br>------ -------- -- ------ -- ---- ------------,215963.90000000596,215960.69999998808,214983.714,214996,215000.427,215969.781,,34,predict
screen,html.Screen,2_3_1_0_1_35,2022-05-02T10:35:21.822Z,,,,,,,,,,,,,,,,,19,,,,,,,,,,,,,,806.918999988091,,response,,,,17,F,,,,,,Space,keypress(Space),,,,lyrical,,,,-------------- --- -------- -------- ---------- ---- -------<br>-- ---------- -- --- ----- ------ ----- ---- --------- ----<br>------- ------ -------- -- ------ ---------- ------ ---<br>------ -- -- ---- -- ---------- -------- ------ ---- -------<br>with --- --------- ------- ----- --------- ---- ----- --<br>------ -------- -- ------ -- ---- ------------,216779.30000001192,216776.69999998808,215953.068,215964,215969.781,216793.683,,35,with
screen,html.Screen,2_3_1_0_1_36,2022-05-02T10:35:22.303Z,,,,,,,,,,,,,,,,,19,,,,,,,,,,,,,,463.0169999880891,,response,,,,17,F,,,,,,Space,keypress(Space),,,,lyrical,,,,-------------- --- -------- -------- ---------- ---- -------<br>-- ---------- -- --- ----- ------ ----- ---- --------- ----<br>------- ------ -------- -- ------ ---------- ------ ---<br>------ -- -- ---- -- ---------- -------- ------ ---- -------<br>---- any --------- ------- ----- --------- ---- ----- --<br>------ -------- -- ------ -- ---- ------------,217260.40000000596,217256.69999998808,216776.97,216779.5,216793.683,217261.647,,36,any
screen,html.Screen,2_3_1_0_1_37,2022-05-02T10:35:22.782Z,,,,,,,,,,,,,,,,,19,,,,,,,,,,,,,,475.05299998808187,,response,,,,17,F,,,,,,Space,keypress(Space),,,,lyrical,,,,-------------- --- -------- -------- ---------- ---- -------<br>-- ---------- -- --- ----- ------ ----- ---- --------- ----<br>------- ------ -------- -- ------ ---------- ------ ---<br>------ -- -- ---- -- ---------- -------- ------ ---- -------<br>---- --- certainty ------- ----- --------- ---- ----- --<br>------ -------- -- ------ -- ---- ------------,217739.59999999404,217736.69999998808,217244.934,217260.59999999404,217261.647,217746.324,,37,certainty
screen,html.Screen,2_3_1_0_1_38,2022-05-02T10:35:23.799Z,,,,,,,,,,,,,,,,,19,,,,,,,,,,,,,,1006.3759999880858,,response,,,,17,F,,,,,,Space,keypress(Space),,,,lyrical,,,,-------------- --- -------- -------- ---------- ---- -------<br>-- ---------- -- --- ----- ------ ----- ---- --------- ----<br>------- ------ -------- -- ------ ---------- ------ ---<br>------ -- -- ---- -- ---------- -------- ------ ---- -------<br>---- --- --------- whether ----- --------- ---- ----- --<br>------ -------- -- ------ -- ---- ------------,218755.90000000596,218752.69999998808,217729.611,217739.90000000596,217746.324,218765.817,,38,whether
screen,html.Screen,2_3_1_0_1_39,2022-05-02T10:35:24.183Z,,,,,,,,,,,,,,,,,19,,,,,,,,,,,,,,370.88299998806906,,response,,,,17,F,,,,,,Space,keypress(Space),,,,lyrical,,,,-------------- --- -------- -------- ---------- ---- -------<br>-- ---------- -- --- ----- ------ ----- ---- --------- ----<br>------- ------ -------- -- ------ ---------- ------ ---<br>------ -- -- ---- -- ---------- -------- ------ ---- -------<br>---- --- --------- ------- these --------- ---- ----- --<br>------ -------- -- ------ -- ---- ------------,219140,219136.69999998808,218749.104,218756,218765.817,219150.216,,39,these
