sender,sender_type,sender_id,timestamp,meta,,Blues,Classical,Country,Dance,Electronic,Folk,Gospel,Hip-Hop,Jazz,Latin,Musical/Film,New-age,Pop,Prolific_id,Provo_ID,R&B,Rap,Reggae,Religious,Rock,Soul,Swing,Traditional,age,artist_name,correct,correctResponse,distraction,duration,education,ended_on,familiarity,gender,headphone_check_performance,item,list,music_frequency,offensiveness,pleasantness,position_correct,preference,response,response_action,snippet_file,song_name,song_rating,sound,stimulus_1,stimulus_2,stimulus_3,text,time_commit,time_end,time_render,time_run,time_show,time_switch,url,word,word_ID
Prolific ID,html.Form,0,2022-05-02T11:14:57.393Z,"{""labjs_version"":""20.2.2"",""labjs_build"":{""flavor"":""production"",""commit"":""a25486e0c714a0ae2ce03ff94b7bb6896854dcfa""},""location"":""https://run.pavlovia.org/mvasilev/prolific3_music_f/"",""userAgent"":""Mozilla/5.0 (Windows NT 10.0; Win64; x64) AppleWebKit/537.36 (KHTML, like Gecko) Chrome/100.0.4896.127 Safari/537.36"",""platform"":""Win32"",""language"":""en-US"",""locale"":""en-GB"",""timeZone"":""Europe/London"",""timezoneOffset"":-60,""screen_width"":1536,""screen_height"":864,""scroll_width"":1536,""scroll_height"":608,""window_innerWidth"":1536,""window_innerHeight"":656,""devicePixelRatio"":1.25}",,,,,,,,,,,,,,,5a847fd2aa46dd00016ba03c,,,,,,,,,,,,,,,18081.060999952315,,form submission,,,,,,,,,,,,,,,,,,,,,49180.09999990463,49179.799999952316,31082.027,31084.299999952316,31098.739,49182.755,{},,
Introduction,html.Screen,1_0,2022-05-02T11:15:03.501Z,,,,,,,,,,,,,,,,,,,,,,,,,,,,,,,6104.044999952319,,response,,,,,,,,,,,continue,click button,,,,,,,,,55287.799999952316,55286.799999952316,49166.068,49180.299999952316,49182.755,55294.001,,,
Volume calibration,html.Screen,1_1,2022-05-02T11:15:24.512Z,,,,,,,,,,,,,,,,,,,,,,,,,,,,,,,21001.398999856952,,response,,,,,,,,,,,continue,click button,,,,,,,,,76299,76295.39999985695,55277.417,55287.89999985695,55294.001,76309.109,,,
Task instructions,html.Screen,1_2,2022-05-02T11:15:31.985Z,,,,,,,,,,,,,,,,,,,,,,,,,,,,,,,7461.790999856952,,response,,,,,,,,,,,continue,click button,,,,,,,,,83771.59999990463,83770.89999985695,76292.146,76299.09999990463,76309.109,83785.486,,,
Sounds,html.Screen,1_3_0_0,2022-05-02T11:15:36.231Z,,,,,,,,,,,,,,,,,,,,,,,,,,,,,,,4246.259999999995,,timeout,,,,,,,,,1,,,,,,,,S,I,O,,88017,88015.131,83768.956,83771.79999995232,83785.486,88031.746,,,
Judgement,html.Screen,1_3_0_1,2022-05-02T11:15:39.469Z,,,,,,,,,,,,,,,,,,,,,,,,,,,,true,1,,3222.9540000476845,,response,,,,,,,,,1,,1,click #choice-1,,,,,S,I,O,,91255.5,91254.70000004768,88015.131,88017.20000004768,88031.746,91262.225,,,
Trial,flow.Sequence,1_3_0,2022-05-02T11:15:39.469Z,,,,,,,,,,,,,,,,,,,,,,,,,,,,,,,7469.214000047679,,completion,,,,,,,,,1,,,,,,,,S,I,O,,91255.79999995232,91254.70000004768,83768.956,83771.79999995232,83785.486,91262.225,,,
Sounds,html.Screen,1_3_1_0,2022-05-02T11:15:43.706Z,,,,,,,,,,,,,,,,,,,,,,,,,,,,,,,4246.284999999989,,timeout,,,,,,,,,2,,,,,,,,O,S,I,,95492.89999985695,95491.878,91245.692,91255.89999985695,91262.225,95508.51,,,
Judgement,html.Screen,1_3_1_1,2022-05-02T11:15:45.287Z,,,,,,,,,,,,,,,,,,,,,,,,,,,,true,2,,1564.2899999523215,,response,,,,,,,,,2,,2,click #choice-2,,,,,O,S,I,,97073.79999995232,97072.79999995232,95491.878,95493.09999990463,95508.51,97094.352,,,
Trial,flow.Sequence,1_3_1,2022-05-02T11:15:45.288Z,,,,,,,,,,,,,,,,,,,,,,,,,,,,,,,5810.5749999523105,,completion,,,,,,,,,2,,,,,,,,O,S,I,,97074.09999990463,97072.79999995232,91245.692,91255.79999995232,91262.225,97094.352,,,
Sounds,html.Screen,1_3_2_0,2022-05-02T11:15:49.534Z,,,,,,,,,,,,,,,,,,,,,,,,,,,,,,,4242.326000000001,,timeout,,,,,,,,,1,,,,,,,,S,O,I,,101320.59999990463,101320.058,97057.661,97074.20000004768,97094.352,101336.678,,,
Judgement,html.Screen,1_3_2_1,2022-05-02T11:15:52.245Z,,,,,,,,,,,,,,,,,,,,,,,,,,,,false,1,,2694.4219999046327,,response,,,,,,,,,1,,3,click #choice-3,,,,,S,O,I,,104031.89999985695,104031.09999990463,101320.058,101320.70000004768,101336.678,104034.361,,,
Trial,flow.Sequence,1_3_2,2022-05-02T11:15:52.246Z,,,,,,,,,,,,,,,,,,,,,,,,,,,,,,,6936.747999904634,,completion,,,,,,,,,1,,,,,,,,S,O,I,,104032,104031.09999990463,97057.661,97074.20000004768,97094.352,104034.361,,,
Sounds,html.Screen,1_3_3_0,2022-05-02T11:15:56.478Z,,,,,,,,,,,,,,,,,,,,,,,,,,,,,,,4246.2149999999965,,timeout,,,,,,,,,3,,,,,,,,O,I,S,,108264.70000004768,108263.932,104017.679,104032.09999990463,104034.361,108280.576,,,
Judgement,html.Screen,1_3_3_1,2022-05-02T11:15:57.575Z,,,,,,,,,,,,,,,,,,,,,,,,,,,,true,3,,1080.323999856948,,response,,,,,,,,,3,,3,click #choice-3,,,,,O,I,S,,109361.59999990463,109360.89999985695,108263.932,108264.70000004768,108280.576,109362.971,,,
Trial,flow.Sequence,1_3_3,2022-05-02T11:15:57.575Z,,,,,,,,,,,,,,,,,,,,,,,,,,,,,,,5326.538999856944,,completion,,,,,,,,,3,,,,,,,,O,I,S,,109361.79999995232,109360.89999985695,104017.679,104032.09999990463,104034.361,109362.971,,,
Sounds,html.Screen,1_3_4_0,2022-05-02T11:16:01.807Z,,,,,,,,,,,,,,,,,,,,,,,,,,,,,,,4246.213999999993,,timeout,,,,,,,,,2,,,,,,,,I,S,O,,113593.20000004768,113592.607,109346.485,109361.89999985695,109362.971,113609.185,,,
Judgement,html.Screen,1_3_4_1,2022-05-02T11:16:02.485Z,,,,,,,,,,,,,,,,,,,,,,,,,,,,true,2,,661.3150000000023,,response,,,,,,,,,2,,2,click #choice-2,,,,,I,S,O,,114271.20000004768,114270.5,113592.607,113593.39999985695,113609.185,114275.286,,,
Trial,flow.Sequence,1_3_4,2022-05-02T11:16:02.485Z,,,,,,,,,,,,,,,,,,,,,,,,,,,,,,,4907.528999999995,,completion,,,,,,,,,2,,,,,,,,I,S,O,,114271.39999985695,114270.5,109346.485,109361.89999985695,109362.971,114275.286,,,
Sounds,html.Screen,1_3_5_0,2022-05-02T11:16:06.720Z,,,,,,,,,,,,,,,,,,,,,,,,,,,,,,,4246.22600000001,,timeout,,,,,,,,,3,,,,,,,,I,O,S,,118505.79999995232,118504.9,114258.681,114271.39999985695,114275.286,118521.512,,,
Judgement,html.Screen,1_3_5_1,2022-05-02T11:16:07.298Z,,,,,,,,,,,,,,,,,,,,,,,,,,,,true,3,,562.1880000476813,,response,,,,,,,,,3,,3,click #choice-3,,,,,I,O,S,,119084.70000004768,119083.70000004768,118504.9,118505.89999985695,118521.512,119088.041,,,
Trial,flow.Sequence,1_3_5,2022-05-02T11:16:07.299Z,,,,,,,,,,,,,,,,,,,,,,,,,,,,,,,4808.414000047691,,completion,,,,,,,,,3,,,,,,,,I,O,S,,119084.79999995232,119083.70000004768,114258.681,114271.39999985695,114275.286,119088.041,,,
Task,flow.Loop,1_3,2022-05-02T11:16:07.303Z,,,,,,,,,,,,,,,,,,,,,,,,,,,,,,,35298.21400004768,,completion,,,0.8333333333333334,,,,,,,,,,,,,,,,,,119089.5,119083.70000004768,83768.956,83771.70000004768,83785.486,119088.041,,,
Trap,html.Screen,1_4,2022-05-02T11:16:07.305Z,,,,,,,,,,,,,,,,,,,,,,,,,,,,,,,NaN,,skipped,,,,,,,,,,,,,,,,,,,,,119091.59999990463,119083.70000004768,,119091.39999985695,,119088.041,,,
Thanks,html.Screen,1_5,2022-05-02T11:16:10.541Z,,,,,,,,,,,,,,,,,,,,,,,,,,,,,,,3237.558999904635,,response,,,,,,,,,,,continue,click button,,,,,,,,,122326.79999995232,122325.59999990463,119071.035,119091.59999990463,119088.041,125332.235,,,
Headphone screening,flow.Sequence,1,2022-05-02T11:16:10.541Z,,,,,,,,,,,,,,,,,,,,,,,,,,,,,,,73142.84499990463,,completion,,,,,,,,,,,,,,,,,,,,,122327,122325.59999990463,49166.068,49180.299999952316,49182.755,125332.235,,,
Instructions,html.Page,2_0,2022-05-02T11:16:25.441Z,,,,,,,,,,,,,,,,,,,,,,,,,,,,,,,11894.364999904632,,form submission,,,,,,,,,,,,,,,,,,,,,137227,137226.59999990463,125315.557,125343.09999990463,125332.235,137238.34,,,
Holding screen,html.Screen,2_1_0_0,2022-05-02T11:16:35.444Z,,,,,,,,,,,,,,,,,,,,,,,,,,,,,,,10007.850999999995,,timeout,,,,,,,,,,,,,,,,,,,,,147230.39999985695,147229.563,137221.815,137227.20000004768,137238.34,147246.191,,,
screen,html.Screen,2_1_0_1_0,2022-05-02T11:16:36.399Z,,,,,,,,,,,,,,,,,53,,,,,,,,,,,,,,937.408999904641,,response,,,,99,,,,,,,Space,keypress(Space),,,,,,,,When -- ----- -- ------ - ------- --- ----------<br>------------- ------ ------ ---- ---- ------- ----- -- ----<br>-------- ------- -- ---------- --- - --- ----- ----- ----<br>---- --- --- ----- --- ---- ---- ------- ----- ---- -------<br>--- --- -- ----- -- --- ---- -- --- ---- -- ------ ------<br>--- ----- -- ----,148185.79999995232,148183.59999990463,147229.563,147230.5,147246.191,148195.322,,0,When
screen,html.Screen,2_1_0_1_1,2022-05-02T11:16:37.122Z,,,,,,,,,,,,,,,,,53,,,,,,,,,,,,,,711.777999904647,,response,,,,99,,,,,,,Space,keypress(Space),,,,,,,,---- it ----- -- ------ - ------- --- ----------<br>------------- ------ ------ ---- ---- ------- ----- -- ----<br>-------- ------- -- ---------- --- - --- ----- ----- ----<br>---- --- --- ----- --- ---- ---- ------- ----- ---- -------<br>--- --- -- ----- -- --- ---- -- --- ---- -- ------ ------<br>--- ----- -- ----,148907.89999985695,148907.09999990463,148178.614,148185.79999995232,148195.322,148911.936,,1,it
screen,html.Screen,2_1_0_1_2,2022-05-02T11:16:37.794Z,,,,,,,,,,,,,,,,,53,,,,,,,,,,,,,,667.1639999046456,,response,,,,99,,,,,,,Space,keypress(Space),,,,,,,,---- -- comes -- ------ - ------- --- ----------<br>------------- ------ ------ ---- ---- ------- ----- -- ----<br>-------- ------- -- ---------- --- - --- ----- ----- ----<br>---- --- --- ----- --- ---- ---- ------- ----- ---- -------<br>--- --- -- ----- -- --- ---- -- --- ---- -- ------ ------<br>--- ----- -- ----,149580.39999985695,149579.09999990463,148894.673,148908.09999990463,148911.936,149594.2,,2,comes
screen,html.Screen,2_1_0_1_3,2022-05-02T11:16:38.511Z,,,,,,,,,,,,,,,,,53,,,,,,,,,,,,,,702.0000000476721,,response,,,,99,,,,,,,Space,keypress(Space),,,,,,,,---- -- ----- to ------ - ------- --- ----------<br>------------- ------ ------ ---- ---- ------- ----- -- ----<br>-------- ------- -- ---------- --- - --- ----- ----- ----<br>---- --- --- ----- --- ---- ---- ------- ----- ---- -------<br>--- --- -- ----- -- --- ---- -- --- ---- -- ------ ------<br>--- ----- -- ----,150297,150296.20000004768,149577.482,149580.59999990463,149594.2,150310.147,,3,to
screen,html.Screen,2_1_0_1_4,2022-05-02T11:16:39.481Z,,,,,,,,,,,,,,,,,53,,,,,,,,,,,,,,956.0530000476865,,response,,,,99,,,,,,,Space,keypress(Space),,,,,,,,---- -- ----- -- having - ------- --- ----------<br>------------- ------ ------ ---- ---- ------- ----- -- ----<br>-------- ------- -- ---------- --- - --- ----- ----- ----<br>---- --- --- ----- --- ---- ---- ------- ----- ---- -------<br>--- --- -- ----- -- --- ---- -- --- ---- -- ------ ------<br>--- ----- -- ----,151267.20000004768,151266.20000004768,150293.456,150297.09999990463,150310.147,151275.963,,4,having
screen,html.Screen,2_1_0_1_5,2022-05-02T11:16:40.230Z,,,,,,,,,,,,,,,,,53,,,,,,,,,,,,,,739.8369999523275,,response,,,,99,,,,,,,Space,keypress(Space),,,,,,,,---- -- ----- -- ------ a ------- --- ----------<br>------------- ------ ------ ---- ---- ------- ----- -- ----<br>-------- ------- -- ---------- --- - --- ----- ----- ----<br>---- --- --- ----- --- ---- ---- ------- ----- ---- -------<br>--- --- -- ----- -- --- ---- -- --- ---- -- ------ ------<br>--- ----- -- ----,152016.5,152015.79999995232,151259.293,151267.20000004768,151275.963,152025.275,,5,a
screen,html.Screen,2_1_0_1_6,2022-05-02T11:16:41.089Z,,,,,,,,,,,,,,,,,53,,,,,,,,,,,,,,848.5249999523221,,response,,,,99,,,,,,,Space,keypress(Space),,,,,,,,---- -- ----- -- ------ - lasting --- ----------<br>------------- ------ ------ ---- ---- ------- ----- -- ----<br>-------- ------- -- ---------- --- - --- ----- ----- ----<br>---- --- --- ----- --- ---- ---- ------- ----- ---- -------<br>--- --- -- ----- -- --- ---- -- --- ---- -- ------ ------<br>--- ----- -- ----,152874.79999995232,152873.79999995232,152008.581,152016.59999990463,152025.275,152891.282,,6,lasting
screen,html.Screen,2_1_0_1_7,2022-05-02T11:16:41.888Z,,,,,,,,,,,,,,,,,53,,,,,,,,,,,,,,782.4180000476772,,response,,,,99,,,,,,,Space,keypress(Space),,,,,,,,---- -- ----- -- ------ - ------- and ----------<br>------------- ------ ------ ---- ---- ------- ----- -- ----<br>-------- ------- -- ---------- --- - --- ----- ----- ----<br>---- --- --- ----- --- ---- ---- ------- ----- ---- -------<br>--- --- -- ----- -- --- ---- -- --- ---- -- ------ ------<br>--- ----- -- ----,153674.70000004768,153673.70000004768,152874.487,152874.89999985695,152891.282,153690.593,,7,and
screen,html.Screen,2_1_0_1_8,2022-05-02T11:16:42.640Z,,,,,,,,,,,,,,,,,53,,,,,,,,,,,,,,734.3069998569554,,response,,,,99,,,,,,,Space,keypress(Space),,,,,,,,---- -- ----- -- ------ - ------- --- fulfilling<br>------------- ------ ------ ---- ---- ------- ----- -- ----<br>-------- ------- -- ---------- --- - --- ----- ----- ----<br>---- --- --- ----- --- ---- ---- ------- ----- ---- -------<br>--- --- -- ----- -- --- ---- -- --- ---- -- ------ ------<br>--- ----- -- ----,154426.20000004768,154424.89999985695,153673.969,153674.89999985695,153690.593,154439.83,,8,fulfilling
screen,html.Screen,2_1_0_1_9,2022-05-02T11:16:43.706Z,,,,,,,,,,,,,,,,,53,,,,,,,,,,,,,,1052.0699998569617,,response,,,,99,,,,,,,Space,keypress(Space),,,,,,,,"---- -- ----- -- ------ - ------- --- ----------<br>relationship, ------ ------ ---- ---- ------- ----- -- ----<br>-------- ------- -- ---------- --- - --- ----- ----- ----<br>---- --- --- ----- --- ---- ---- ------- ----- ---- -------<br>--- --- -- ----- -- --- ---- -- --- ---- -- ------ ------<br>--- ----- -- ----",155492.70000004768,155491.89999985695,154423.133,154426.29999995232,154439.83,155505.554,,9,"relationship,"
screen,html.Screen,2_1_0_1_10,2022-05-02T11:16:44.744Z,,,,,,,,,,,,,,,,,53,,,,,,,,,,,,,,1023.7459999523126,,response,,,,99,,,,,,,Space,keypress(Space),,,,,,,,---- -- ----- -- ------ - ------- --- ----------<br>------------- common ------ ---- ---- ------- ----- -- ----<br>-------- ------- -- ---------- --- - --- ----- ----- ----<br>---- --- --- ----- --- ---- ---- ------- ----- ---- -------<br>--- --- -- ----- -- --- ---- -- --- ---- -- ------ ------<br>--- ----- -- ----,156529.89999985695,156529.29999995232,155488.817,155492.70000004768,155505.554,156537.998,,10,common
screen,html.Screen,2_1_0_1_11,2022-05-02T11:16:45.573Z,,,,,,,,,,,,,,,,,53,,,,,,,,,,,,,,820.5020000000077,,response,,,,99,,,,,,,Space,keypress(Space),,,,,,,,---- -- ----- -- ------ - ------- --- ----------<br>------------- ------ wisdom ---- ---- ------- ----- -- ----<br>-------- ------- -- ---------- --- - --- ----- ----- ----<br>---- --- --- ----- --- ---- ---- ------- ----- ---- -------<br>--- --- -- ----- -- --- ---- -- --- ---- -- ------ ------<br>--- ----- -- ----,157359.20000004768,157358.5,156521.247,156530.09999990463,156537.998,157370.572,,11,wisdom
screen,html.Screen,2_1_0_1_12,2022-05-02T11:16:46.361Z,,,,,,,,,,,,,,,,,53,,,,,,,,,,,,,,776.1280000476982,,response,,,,99,,,,,,,Space,keypress(Space),,,,,,,,---- -- ----- -- ------ - ------- --- ----------<br>------------- ------ ------ says ---- ------- ----- -- ----<br>-------- ------- -- ---------- --- - --- ----- ----- ----<br>---- --- --- ----- --- ---- ---- ------- ----- ---- -------<br>--- --- -- ----- -- --- ---- -- --- ---- -- ------ ------<br>--- ----- -- ----,158147.59999990463,158146.70000004768,157353.924,157359.29999995232,157370.572,158153.221,,12,says
screen,html.Screen,2_1_0_1_13,2022-05-02T11:16:47.106Z,,,,,,,,,,,,,,,,,53,,,,,,,,,,,,,,738.6789998569584,,response,,,,99,,,,,,,Space,keypress(Space),,,,,,,,---- -- ----- -- ------ - ------- --- ----------<br>------------- ------ ------ ---- that ------- ----- -- ----<br>-------- ------- -- ---------- --- - --- ----- ----- ----<br>---- --- --- ----- --- ---- ---- ------- ----- ---- -------<br>--- --- -- ----- -- --- ---- -- --- ---- -- ------ ------<br>--- ----- -- ----,158892.5,158891.89999985695,158136.542,158147.59999990463,158153.221,158902.554,,13,that
screen,html.Screen,2_1_0_1_14,2022-05-02T11:16:47.921Z,,,,,,,,,,,,,,,,,53,,,,,,,,,,,,,,804.0459999046288,,response,,,,99,,,,,,,Space,keypress(Space),,,,,,,,---- -- ----- -- ------ - ------- --- ----------<br>------------- ------ ------ ---- ---- feeling ----- -- ----<br>-------- ------- -- ---------- --- - --- ----- ----- ----<br>---- --- --- ----- --- ---- ---- ------- ----- ---- -------<br>--- --- -- ----- -- --- ---- -- --- ---- -- ------ ------<br>--- ----- -- ----,159707.29999995232,159706.59999990463,158885.858,158892.59999990463,158902.554,159718.531,,14,feeling
screen,html.Screen,2_1_0_1_15,2022-05-02T11:16:49.384Z,,,,,,,,,,,,,,,,,53,,,,,,,,,,,,,,1451.6690000476956,,response,,,,99,,,,,,,Space,keypress(Space),,,,,,,,---- -- ----- -- ------ - ------- --- ----------<br>------------- ------ ------ ---- ---- ------- close -- ----<br>-------- ------- -- ---------- --- - --- ----- ----- ----<br>---- --- --- ----- --- ---- ---- ------- ----- ---- -------<br>--- --- -- ----- -- --- ---- -- --- ---- -- ------ ------<br>--- ----- -- ----,161170.59999990463,161170.20000004768,159701.855,159707.39999985695,159718.531,161183.898,,15,close
screen,html.Screen,2_1_0_1_16,2022-05-02T11:16:50.050Z,,,,,,,,,,,,,,,,,53,,,,,,,,,,,,,,650.6020000000135,,response,,,,99,,,,,,,Space,keypress(Space),,,,,,,,---- -- ----- -- ------ - ------- --- ----------<br>------------- ------ ------ ---- ---- ------- ----- to ----<br>-------- ------- -- ---------- --- - --- ----- ----- ----<br>---- --- --- ----- --- ---- ---- ------- ----- ---- -------<br>--- --- -- ----- -- --- ---- -- --- ---- -- ------ ------<br>--- ----- -- ----,161836,161834.5,161167.107,161170.79999995232,161183.898,161849.992,,16,to
screen,html.Screen,2_1_0_1_17,2022-05-02T11:16:50.835Z,,,,,,,,,,,,,,,,,53,,,,,,,,,,,,,,770.6079999046342,,response,,,,99,,,,,,,Space,keypress(Space),,,,,,,,---- -- ----- -- ------ - ------- --- ----------<br>------------- ------ ------ ---- ---- ------- ----- -- your<br>-------- ------- -- ---------- --- - --- ----- ----- ----<br>---- --- --- ----- --- ---- ---- ------- ----- ---- -------<br>--- --- -- ----- -- --- ---- -- --- ---- -- ------ ------<br>--- ----- -- ----,162621.20000004768,162620.59999990463,161833.335,161836,161849.992,162632.668,,17,your
screen,html.Screen,2_1_0_1_18,2022-05-02T11:16:51.489Z,,,,,,,,,,,,,,,,,53,,,,,,,,,,,,,,641.4319999046274,,response,,,,99,,,,,,,Space,keypress(Space),,,,,,,,---- -- ----- -- ------ - ------- --- ----------<br>------------- ------ ------ ---- ---- ------- ----- -- ----<br>romantic ------- -- ---------- --- - --- ----- ----- ----<br>---- --- --- ----- --- ---- ---- ------- ----- ---- -------<br>--- --- -- ----- -- --- ---- -- --- ---- -- ------ ------<br>--- ----- -- ----,163274.70000004768,163274.09999990463,162615.969,162621.39999985695,162632.668,163282.011,,18,romantic
screen,html.Screen,2_1_0_1_19,2022-05-02T11:16:52.163Z,,,,,,,,,,,,,,,,,53,,,,,,,,,,,,,,666.7889999523177,,response,,,,99,,,,,,,Space,keypress(Space),,,,,,,,---- -- ----- -- ------ - ------- --- ----------<br>------------- ------ ------ ---- ---- ------- ----- -- ----<br>-------- partner -- ---------- --- - --- ----- ----- ----<br>---- --- --- ----- --- ---- ---- ------- ----- ---- -------<br>--- --- -- ----- -- --- ---- -- --- ---- -- ------ ------<br>--- ----- -- ----,163949.5,163948.79999995232,163265.407,163274.89999985695,163282.011,163964.815,,19,partner
screen,html.Screen,2_1_0_1_20,2022-05-02T11:16:52.750Z,,,,,,,,,,,,,,,,,53,,,,,,,,,,,,,,570.7849999046302,,response,,,,99,,,,,,,Space,keypress(Space),,,,,,,,---- -- ----- -- ------ - ------- --- ----------<br>------------- ------ ------ ---- ---- ------- ----- -- ----<br>-------- ------- is ---------- --- - --- ----- ----- ----<br>---- --- --- ----- --- ---- ---- ------- ----- ---- -------<br>--- --- -- ----- -- --- ---- -- --- ---- -- ------ ------<br>--- ----- -- ----,164536.20000004768,164535.59999990463,163948.068,163949.59999990463,163964.815,164547.579,,20,is
screen,html.Screen,2_1_0_1_21,2022-05-02T11:16:53.428Z,,,,,,,,,,,,,,,,,53,,,,,,,,,,,,,,665.9210000000021,,response,,,,99,,,,,,,Space,keypress(Space),,,,,,,,---- -- ----- -- ------ - ------- --- ----------<br>------------- ------ ------ ---- ---- ------- ----- -- ----<br>-------- ------- -- paramount. --- - --- ----- ----- ----<br>---- --- --- ----- --- ---- ---- ------- ----- ---- -------<br>--- --- -- ----- -- --- ---- -- --- ---- -- ------ ------<br>--- ----- -- ----,165214,165213.5,164530.895,164536.29999995232,164547.579,165230.327,,21,paramount.
screen,html.Screen,2_1_0_1_22,2022-05-02T11:16:54.110Z,,,,,,,,,,,,,,,,,53,,,,,,,,,,,,,,665.4729999523261,,response,,,,99,,,,,,,Space,keypress(Space),,,,,,,,---- -- ----- -- ------ - ------- --- ----------<br>------------- ------ ------ ---- ---- ------- ----- -- ----<br>-------- ------- -- ---------- But - --- ----- ----- ----<br>---- --- --- ----- --- ---- ---- ------- ----- ---- -------<br>--- --- -- ----- -- --- ---- -- --- ---- -- ------ ------<br>--- ----- -- ----,165896.29999995232,165895.79999995232,165213.62,165214.09999990463,165230.327,165913.062,,22,But
screen,html.Screen,2_1_0_1_23,2022-05-02T11:16:54.823Z,,,,,,,,,,,,,,,,,53,,,,,,,,,,,,,,695.5379999046272,,response,,,,99,,,,,,,Space,keypress(Space),,,,,,,,---- -- ----- -- ------ - ------- --- ----------<br>------------- ------ ------ ---- ---- ------- ----- -- ----<br>-------- ------- -- ---------- --- a --- ----- ----- ----<br>---- --- --- ----- --- ---- ---- ------- ----- ---- -------<br>--- --- -- ----- -- --- ---- -- --- ---- -- ------ ------<br>--- ----- -- ----,166609,166608.59999990463,165896.356,165896.39999985695,165913.062,166612.443,,23,a
screen,html.Screen,2_1_0_1_24,2022-05-02T11:16:55.480Z,,,,,,,,,,,,,,,,,53,,,,,,,,,,,,,,652.7570000476844,,response,,,,99,,,,,,,Space,keypress(Space),,,,,,,,---- -- ----- -- ------ - ------- --- ----------<br>------------- ------ ------ ---- ---- ------- ----- -- ----<br>-------- ------- -- ---------- --- - new ----- ----- ----<br>---- --- --- ----- --- ---- ---- ------- ----- ---- -------<br>--- --- -- ----- -- --- ---- -- --- ---- -- ------ ------<br>--- ----- -- ----,167265.89999985695,167265.20000004768,166595.755,166609.20000004768,166612.443,167278.758,,24,new
screen,html.Screen,2_1_0_1_25,2022-05-02T11:16:56.156Z,,,,,,,,,,,,,,,,,53,,,,,,,,,,,,,,662.3419999046309,,response,,,,99,,,,,,,Space,keypress(Space),,,,,,,,---- -- ----- -- ------ - ------- --- ----------<br>------------- ------ ------ ---- ---- ------- ----- -- ----<br>-------- ------- -- ---------- --- - --- study ----- ----<br>---- --- --- ----- --- ---- ---- ------- ----- ---- -------<br>--- --- -- ----- -- --- ---- -- --- ---- -- ------ ------<br>--- ----- -- ----,167941.70000004768,167941.09999990463,167261.84,167266,167278.758,167944.913,,25,study
screen,html.Screen,2_1_0_1_26,2022-05-02T11:16:56.811Z,,,,,,,,,,,,,,,,,53,,,,,,,,,,,,,,651.4869998569484,,response,,,,99,,,,,,,Space,keypress(Space),,,,,,,,---- -- ----- -- ------ - ------- --- ----------<br>------------- ------ ------ ---- ---- ------- ----- -- ----<br>-------- ------- -- ---------- --- - --- ----- finds ----<br>---- --- --- ----- --- ---- ---- ------- ----- ---- -------<br>--- --- -- ----- -- --- ---- -- --- ---- -- ------ ------<br>--- ----- -- ----,168597.39999985695,168596.39999985695,167927.984,167941.79999995232,167944.913,168610.678,,26,finds
screen,html.Screen,2_1_0_1_27,2022-05-02T11:16:57.336Z,,,,,,,,,,,,,,,,,53,,,,,,,,,,,,,,510.62199995230185,,response,,,,99,,,,,,,Space,keypress(Space),,,,,,,,---- -- ----- -- ------ - ------- --- ----------<br>------------- ------ ------ ---- ---- ------- ----- -- ----<br>-------- ------- -- ---------- --- - --- ----- ----- that<br>---- --- --- ----- --- ---- ---- ------- ----- ---- -------<br>--- --- -- ----- -- --- ---- -- --- ---- -- ------ ------<br>--- ----- -- ----,169121.89999985695,169121.29999995232,168593.993,168597.5,168610.678,169126.902,,27,that
screen,html.Screen,2_1_0_1_28,2022-05-02T11:16:57.870Z,,,,,,,,,,,,,,,,,53,,,,,,,,,,,,,,528.8979999523144,,response,,,,99,,,,,,,Space,keypress(Space),,,,,,,,---- -- ----- -- ------ - ------- --- ----------<br>------------- ------ ------ ---- ---- ------- ----- -- ----<br>-------- ------- -- ---------- --- - --- ----- ----- ----<br>it's --- --- ----- --- ---- ---- ------- ----- ---- -------<br>--- --- -- ----- -- --- ---- -- --- ---- -- ------ ------<br>--- ----- -- ----,169656.39999985695,169655.79999995232,169110.217,169122,169126.902,169659.791,,28,it's
screen,html.Screen,2_1_0_1_29,2022-05-02T11:16:58.538Z,,,,,,,,,,,,,,,,,53,,,,,,,,,,,,,,664.3089999046351,,response,,,,99,,,,,,,Space,keypress(Space),,,,,,,,---- -- ----- -- ------ - ------- --- ----------<br>------------- ------ ------ ---- ---- ------- ----- -- ----<br>-------- ------- -- ---------- --- - --- ----- ----- ----<br>---- not --- ----- --- ---- ---- ------- ----- ---- -------<br>--- --- -- ----- -- --- ---- -- --- ---- -- ------ ------<br>--- ----- -- ----,170324.70000004768,170324.09999990463,169643.075,169656.39999985695,169659.791,170349.343,,29,not
screen,html.Screen,2_1_0_1_30,2022-05-02T11:16:59.241Z,,,,,,,,,,,,,,,,,53,,,,,,,,,,,,,,677.8570000476902,,response,,,,99,,,,,,,Space,keypress(Space),,,,,,,,---- -- ----- -- ------ - ------- --- ----------<br>------------- ------ ------ ---- ---- ------- ----- -- ----<br>-------- ------- -- ---------- --- - --- ----- ----- ----<br>---- --- how ----- --- ---- ---- ------- ----- ---- -------<br>--- --- -- ----- -- --- ---- -- --- ---- -- ------ ------<br>--- ----- -- ----,171027.70000004768,171027.20000004768,170309.206,170324.89999985695,170349.343,171041.888,,30,how
screen,html.Screen,2_1_0_1_31,2022-05-02T11:16:59.993Z,,,,,,,,,,,,,,,,,53,,,,,,,,,,,,,,737.6119999999937,,response,,,,99,,,,,,,Space,keypress(Space),,,,,,,,---- -- ----- -- ------ - ------- --- ----------<br>------------- ------ ------ ---- ---- ------- ----- -- ----<br>-------- ------- -- ---------- --- - --- ----- ----- ----<br>---- --- --- close --- ---- ---- ------- ----- ---- -------<br>--- --- -- ----- -- --- ---- -- --- ---- -- ------ ------<br>--- ----- -- ----,171780.29999995232,171779.5,171025.17,171027.89999985695,171041.888,171791.335,,31,close
screen,html.Screen,2_1_0_1_32,2022-05-02T11:17:00.686Z,,,,,,,,,,,,,,,,,53,,,,,,,,,,,,,,680.6650000000081,,response,,,,99,,,,,,,Space,keypress(Space),,,,,,,,---- -- ----- -- ------ - ------- --- ----------<br>------------- ------ ------ ---- ---- ------- ----- -- ----<br>-------- ------- -- ---------- --- - --- ----- ----- ----<br>---- --- --- ----- you ---- ---- ------- ----- ---- -------<br>--- --- -- ----- -- --- ---- -- --- ---- -- ------ ------<br>--- ----- -- ----,172472.5,172472,171774.482,171780.39999985695,171791.335,172474.163,,32,you
screen,html.Screen,2_1_0_1_33,2022-05-02T11:17:01.314Z,,,,,,,,,,,,,,,,,53,,,,,,,,,,,,,,626.2369998569484,,response,,,,99,,,,,,,Space,keypress(Space),,,,,,,,---- -- ----- -- ------ - ------- --- ----------<br>------------- ------ ------ ---- ---- ------- ----- -- ----<br>-------- ------- -- ---------- --- - --- ----- ----- ----<br>---- --- --- ----- --- feel ---- ------- ----- ---- -------<br>--- --- -- ----- -- --- ---- -- --- ---- -- ------ ------<br>--- ----- -- ----,173101.20000004768,173100.39999985695,172457.231,172472.5,172474.163,173106.693,,33,feel
screen,html.Screen,2_1_0_1_34,2022-05-02T11:17:01.935Z,,,,,,,,,,,,,,,,,53,,,,,,,,,,,,,,614.7069998569496,,response,,,,99,,,,,,,Space,keypress(Space),,,,,,,,---- -- ----- -- ------ - ------- --- ----------<br>------------- ------ ------ ---- ---- ------- ----- -- ----<br>-------- ------- -- ---------- --- - --- ----- ----- ----<br>---- --- --- ----- --- ---- that ------- ----- ---- -------<br>--- --- -- ----- -- --- ---- -- --- ---- -- ------ ------<br>--- ----- -- ----,173722,173721.39999985695,173090.055,173101.39999985695,173106.693,173752.424,,34,that
screen,html.Screen,2_1_0_1_35,2022-05-02T11:17:02.451Z,,,,,,,,,,,,,,,,,53,,,,,,,,,,,,,,485.07600000000093,,response,,,,99,,,,,,,Space,keypress(Space),,,,,,,,---- -- ----- -- ------ - ------- --- ----------<br>------------- ------ ------ ---- ---- ------- ----- -- ----<br>-------- ------- -- ---------- --- - --- ----- ----- ----<br>---- --- --- ----- --- ---- ---- matters ----- ---- -------<br>--- --- -- ----- -- --- ---- -- --- ---- -- ------ ------<br>--- ----- -- ----,174238,174237.5,173706.122,173722.09999990463,173752.424,174261.686,,35,matters
screen,html.Screen,2_1_0_1_36,2022-05-02T11:17:03.038Z,,,,,,,,,,,,,,,,,53,,,,,,,,,,,,,,561.814000000013,,response,,,,99,,,,,,,Space,keypress(Space),,,,,,,,"---- -- ----- -- ------ - ------- --- ----------<br>------------- ------ ------ ---- ---- ------- ----- -- ----<br>-------- ------- -- ---------- --- - --- ----- ----- ----<br>---- --- --- ----- --- ---- ---- ------- most, ---- -------<br>--- --- -- ----- -- --- ---- -- --- ---- -- ------ ------<br>--- ----- -- ----",174825.09999990463,174823.5,174222.37,174238.09999990463,174261.686,174838.51,,36,"most,"
screen,html.Screen,2_1_0_1_37,2022-05-02T11:17:03.558Z,,,,,,,,,,,,,,,,,53,,,,,,,,,,,,,,505.1900000476744,,response,,,,99,,,,,,,Space,keypress(Space),,,,,,,,---- -- ----- -- ------ - ------- --- ----------<br>------------- ------ ------ ---- ---- ------- ----- -- ----<br>-------- ------- -- ---------- --- - --- ----- ----- ----<br>---- --- --- ----- --- ---- ---- ------- ----- it's -------<br>--- --- -- ----- -- --- ---- -- --- ---- -- ------ ------<br>--- ----- -- ----,175344.39999985695,175343.70000004768,174821.811,174825.20000004768,174838.51,175354.813,,37,it's
screen,html.Screen,2_1_0_1_38,2022-05-02T11:17:04.067Z,,,,,,,,,,,,,,,,,53,,,,,,,,,,,,,,497.88700004768907,,response,,,,99,,,,,,,Space,keypress(Space),,,,,,,,---- -- ----- -- ------ - ------- --- ----------<br>------------- ------ ------ ---- ---- ------- ----- -- ----<br>-------- ------- -- ---------- --- - --- ----- ----- ----<br>---- --- --- ----- --- ---- ---- ------- ----- ---- whether<br>--- --- -- ----- -- --- ---- -- --- ---- -- ------ ------<br>--- ----- -- ----,175853.59999990463,175852.70000004768,175338.037,175344.5,175354.813,175876.742,,38,whether
screen,html.Screen,2_1_0_1_39,2022-05-02T11:17:04.638Z,,,,,,,,,,,,,,,,,53,,,,,,,,,,,,,,547.0579999523179,,response,,,,99,,,,,,,Space,keypress(Space),,,,,,,,---- -- ----- -- ------ - ------- --- ----------<br>------------- ------ ------ ---- ---- ------- ----- -- ----<br>-------- ------- -- ---------- --- - --- ----- ----- ----<br>---- --- --- ----- --- ---- ---- ------- ----- ---- -------<br>you --- -- ----- -- --- ---- -- --- ---- -- ------ ------<br>--- ----- -- ----,176424.39999985695,176423.79999995232,175837.638,175853.70000004768,175876.742,176437.12,,39,you
screen,html.Screen,2_1_0_1_40,2022-05-02T11:17:05.232Z,,,,,,,,,,,,,,,,,53,,,,,,,,,,,,,,581.3800000000047,,response,,,,99,,,,,,,Space,keypress(Space),,,,,,,,---- -- ----- -- ------ - ------- --- ----------<br>------------- ------ ------ ---- ---- ------- ----- -- ----<br>-------- ------- -- ---------- --- - --- ----- ----- ----<br>---- --- --- ----- --- ---- ---- ------- ----- ---- -------<br>--- are -- ----- -- --- ---- -- --- ---- -- ------ ------<br>--- ----- -- ----,177019.09999990463,177018.5,176420.447,176424.39999985695,176437.12,177048.469,,40,are
screen,html.Screen,2_1_0_1_41,2022-05-02T11:17:05.786Z,,,,,,,,,,,,,,,,,53,,,,,,,,,,,,,,524.0309999999881,,response,,,,99,,,,,,,Space,keypress(Space),,,,,,,,---- -- ----- -- ------ - ------- --- ----------<br>------------- ------ ------ ---- ---- ------- ----- -- ----<br>-------- ------- -- ---------- --- - --- ----- ----- ----<br>---- --- --- ----- --- ---- ---- ------- ----- ---- -------<br>--- --- as ----- -- --- ---- -- --- ---- -- ------ ------<br>--- ----- -- ----,177573,177572.5,177003.225,177019.09999990463,177048.469,177586.093,,41,as
screen,html.Screen,2_1_0_1_42,2022-05-02T11:17:06.276Z,,,,,,,,,,,,,,,,,53,,,,,,,,,,,,,,476.0069999046391,,response,,,,99,,,,,,,Space,keypress(Space),,,,,,,,---- -- ----- -- ------ - ------- --- ----------<br>------------- ------ ------ ---- ---- ------- ----- -- ----<br>-------- ------- -- ---------- --- - --- ----- ----- ----<br>---- --- --- ----- --- ---- ---- ------- ----- ---- -------<br>--- --- -- close -- --- ---- -- --- ---- -- ------ ------<br>--- ----- -- ----,178062.79999995232,178062.09999990463,177569.399,177573.09999990463,177586.093,178069.058,,42,close
screen,html.Screen,2_1_0_1_43,2022-05-02T11:17:06.762Z,,,,,,,,,,,,,,,,,53,,,,,,,,,,,,,,479.44200000001,,response,,,,99,,,,,,,Space,keypress(Space),,,,,,,,---- -- ----- -- ------ - ------- --- ----------<br>------------- ------ ------ ---- ---- ------- ----- -- ----<br>-------- ------- -- ---------- --- - --- ----- ----- ----<br>---- --- --- ----- --- ---- ---- ------- ----- ---- -------<br>--- --- -- ----- as --- ---- -- --- ---- -- ------ ------<br>--- ----- -- ----,178549.20000004768,178548.5,178052.317,178062.79999995232,178069.058,178552.544,,43,as
screen,html.Screen,2_1_0_1_44,2022-05-02T11:17:07.134Z,,,,,,,,,,,,,,,,,53,,,,,,,,,,,,,,366.4560000000056,,response,,,,99,,,,,,,Space,keypress(Space),,,,,,,,---- -- ----- -- ------ - ------- --- ----------<br>------------- ------ ------ ---- ---- ------- ----- -- ----<br>-------- ------- -- ---------- --- - --- ----- ----- ----<br>---- --- --- ----- --- ---- ---- ------- ----- ---- -------<br>--- --- -- ----- -- you ---- -- --- ---- -- ------ ------<br>--- ----- -- ----,178920.5,178919,178535.236,178549.29999995232,178552.544,178934.906,,44,you
screen,html.Screen,2_1_0_1_45,2022-05-02T11:17:07.568Z,,,,,,,,,,,,,,,,,53,,,,,,,,,,,,,,419.69399990464444,,response,,,,99,,,,,,,Space,keypress(Space),,,,,,,,---- -- ----- -- ------ - ------- --- ----------<br>------------- ------ ------ ---- ---- ------- ----- -- ----<br>-------- ------- -- ---------- --- - --- ----- ----- ----<br>---- --- --- ----- --- ---- ---- ------- ----- ---- -------<br>--- --- -- ----- -- --- want -- --- ---- -- ------ ------<br>--- ----- -- ----,179355.20000004768,179354.59999990463,178918.252,178920.59999990463,178934.906,179367.843,,45,want
screen,html.Screen,2_1_0_1_46,2022-05-02T11:17:08.002Z,,,,,,,,,,,,,,,,,53,,,,,,,,,,,,,,419.9569999523228,,response,,,,99,,,,,,,Space,keypress(Space),,,,,,,,---- -- ----- -- ------ - ------- --- ----------<br>------------- ------ ------ ---- ---- ------- ----- -- ----<br>-------- ------- -- ---------- --- - --- ----- ----- ----<br>---- --- --- ----- --- ---- ---- ------- ----- ---- -------<br>--- --- -- ----- -- --- ---- to --- ---- -- ------ ------<br>--- ----- -- ----,179788.70000004768,179787.79999995232,179351.221,179355.29999995232,179367.843,179800.789,,46,to
screen,html.Screen,2_1_0_1_47,2022-05-02T11:17:08.543Z,,,,,,,,,,,,,,,,,53,,,,,,,,,,,,,,528.911000047694,,response,,,,99,,,,,,,Space,keypress(Space),,,,,,,,"---- -- ----- -- ------ - ------- --- ----------<br>------------- ------ ------ ---- ---- ------- ----- -- ----<br>-------- ------- -- ---------- --- - --- ----- ----- ----<br>---- --- --- ----- --- ---- ---- ------- ----- ---- -------<br>--- --- -- ----- -- --- ---- -- be, ---- -- ------ ------<br>--- ----- -- ----",180330.39999985695,180329.70000004768,179784.133,179788.70000004768,179800.789,180333.84,,47,"be,"
screen,html.Screen,2_1_0_1_48,2022-05-02T11:17:08.955Z,,,,,,,,,,,,,,,,,53,,,,,,,,,,,,,,407.8600000476872,,response,,,,99,,,,,,,Space,keypress(Space),,,,,,,,---- -- ----- -- ------ - ------- --- ----------<br>------------- ------ ------ ---- ---- ------- ----- -- ----<br>-------- ------- -- ---------- --- - --- ----- ----- ----<br>---- --- --- ----- --- ---- ---- ------- ----- ---- -------<br>--- --- -- ----- -- --- ---- -- --- even -- ------ ------<br>--- ----- -- ----,180742.09999990463,180741.70000004768,180317.056,180330.5,180333.84,180749.943,,48,even
screen,html.Screen,2_1_0_1_49,2022-05-02T11:17:09.391Z,,,,,,,,,,,,,,,,,53,,,,,,,,,,,,,,427.45699985694955,,response,,,,99,,,,,,,Space,keypress(Space),,,,,,,,---- -- ----- -- ------ - ------- --- ----------<br>------------- ------ ------ ---- ---- ------- ----- -- ----<br>-------- ------- -- ---------- --- - --- ----- ----- ----<br>---- --- --- ----- --- ---- ---- ------- ----- ---- -------<br>--- --- -- ----- -- --- ---- -- --- ---- if ------ ------<br>--- ----- -- ----,181178.09999990463,181177.39999985695,180733.34,180742.20000004768,180749.943,181182.932,,49,if
screen,html.Screen,2_1_0_1_50,2022-05-02T11:17:09.824Z,,,,,,,,,,,,,,,,,53,,,,,,,,,,,,,,427.66799990463187,,response,,,,99,,,,,,,Space,keypress(Space),,,,,,,,---- -- ----- -- ------ - ------- --- ----------<br>------------- ------ ------ ---- ---- ------- ----- -- ----<br>-------- ------- -- ---------- --- - --- ----- ----- ----<br>---- --- --- ----- --- ---- ---- ------- ----- ---- -------<br>--- --- -- ----- -- --- ---- -- --- ---- -- that's ------<br>--- ----- -- ----,181611.29999995232,181610.59999990463,181166.244,181178.20000004768,181182.932,181615.883,,50,that's
screen,html.Screen,2_1_0_1_51,2022-05-02T11:17:10.279Z,,,,,,,,,,,,,,,,,53,,,,,,,,,,,,,,449.0169998569472,,response,,,,99,,,,,,,Space,keypress(Space),,,,,,,,---- -- ----- -- ------ - ------- --- ----------<br>------------- ------ ------ ---- ---- ------- ----- -- ----<br>-------- ------- -- ---------- --- - --- ----- ----- ----<br>---- --- --- ----- --- ---- ---- ------- ----- ---- -------<br>--- --- -- ----- -- --- ---- -- --- ---- -- ------ really<br>--- ----- -- ----,182065.59999990463,182064.89999985695,181599.209,181611.39999985695,181615.883,182082.254,,51,really
screen,html.Screen,2_1_0_1_52,2022-05-02T11:17:10.780Z,,,,,,,,,,,,,,,,,53,,,,,,,,,,,,,,483.04599995233,,response,,,,99,,,,,,,Space,keypress(Space),,,,,,,,---- -- ----- -- ------ - ------- --- ----------<br>------------- ------ ------ ---- ---- ------- ----- -- ----<br>-------- ------- -- ---------- --- - --- ----- ----- ----<br>---- --- --- ----- --- ---- ---- ------- ----- ---- -------<br>--- --- -- ----- -- --- ---- -- --- ---- -- ------ ------<br>not ----- -- ----,182566.5,182565.29999995232,182065.455,182065.79999995232,182082.254,182581.764,,52,not
screen,html.Screen,2_1_0_1_53,2022-05-02T11:17:11.452Z,,,,,,,,,,,,,,,,,53,,,,,,,,,,,,,,656.335999904637,,response,,,,99,,,,,,,Space,keypress(Space),,,,,,,,---- -- ----- -- ------ - ------- --- ----------<br>------------- ------ ------ ---- ---- ------- ----- -- ----<br>-------- ------- -- ---------- --- - --- ----- ----- ----<br>---- --- --- ----- --- ---- ---- ------- ----- ---- -------<br>--- --- -- ----- -- --- ---- -- --- ---- -- ------ ------<br>--- close -- ----,183238.70000004768,183238.09999990463,182565.057,182566.70000004768,182581.764,183247.746,,53,close
screen,html.Screen,2_1_0_1_54,2022-05-02T11:17:11.914Z,,,,,,,,,,,,,,,,,53,,,,,,,,,,,,,,452.25399999998626,,response,,,,99,,,,,,,Space,keypress(Space),,,,,,,,---- -- ----- -- ------ - ------- --- ----------<br>------------- ------ ------ ---- ---- ------- ----- -- ----<br>-------- ------- -- ---------- --- - --- ----- ----- ----<br>---- --- --- ----- --- ---- ---- ------- ----- ---- -------<br>--- --- -- ----- -- --- ---- -- --- ---- -- ------ ------<br>--- ----- at ----,183700.70000004768,183700,183231.062,183238.89999985695,183247.746,183714.007,,54,at
screen,html.Screen,2_1_0_1_55,2022-05-02T11:17:12.440Z,,,,,,,,,,,,,,,,,53,,,,,,,,,,,,,,511.99299999998766,,response,,,,99,,,,,,,Space,keypress(Space),,,,,,,,---- -- ----- -- ------ - ------- --- ----------<br>------------- ------ ------ ---- ---- ------- ----- -- ----<br>-------- ------- -- ---------- --- - --- ----- ----- ----<br>---- --- --- ----- --- ---- ---- ------- ----- ---- -------<br>--- --- -- ----- -- --- ---- -- --- ---- -- ------ ------<br>--- ----- -- all.,184226.79999995232,184226,183697.347,183700.70000004768,183714.007,184230.249,,55,all.
Item 99,flow.Loop,2_1_0_1,2022-05-02T11:17:12.440Z,,,,,,,,,,,,,,,,,,,,,,,,,,,,,,,36979.80900000001,,completion,,,,,F,,,,,,,,,,,silence,,,,,184226.89999985695,184226,147229.563,147230.5,147246.191,184230.249,,,
Question 1,html.Screen,2_1_0_2,2022-05-02T11:17:18.408Z,,,,,,,,,,,,,,,,,,,,,,,,,,,,true,FALSE,,5963.850999904622,,response,,,,99,F,,,,,,FALSE,click #choice-2,,,,silence,,,,,190194.89999985695,190194.09999990463,184213.554,184227,184230.249,190208.277,,,
Question 2,html.Screen,2_1_0_3,2022-05-02T11:17:27.464Z,,,,,,,,,,,,,,,,,,,,,,,,,,,,false,TRUE,,9041.522999952314,,response,,,,99,F,,,,,,FALSE,click #choice-2,,,,silence,,,,,199251.29999995232,199249.79999995232,190191.656,190195,190208.277,199283.614,,,
Item 99,flow.Sequence,2_1_0,2022-05-02T11:17:27.465Z,,,,,,,,,,,,,,,,,,,,,,,,,,,,,,,62011.45999995232,,completion,,,,,,,,,,,,,,,,,,,,,199251.59999990463,199249.79999995232,137221.815,137227.20000004768,137238.34,199283.614,,,
Holding screen,html.Screen,2_1_1_0,2022-05-02T11:17:37.489Z,,,,,,,,,,,,,,,,,,,,,,,,,,,,,,,10007.825000000012,,timeout,,,,,,,,,,,,,,,,,,,,,209275.39999985695,209274.825,199266.973,199251.59999990463,199283.614,209291.439,,,
screen,html.Screen,2_1_1_1_0,2022-05-02T11:17:38.210Z,,,,,,,,,,,,,,,,,54,,,,,,,,,,,,,,704.560999999987,,response,,,,100,,,,,,,Space,keypress(Space),,,,,,,,At --- ---- --- ------ ----- ------- ---- -- --- ------- --<br>------- ---------- ------ -- ----- -- ----- -- ---- ------<br>--- ----- --- --- ------ -------- ----- --- ------ ----- --<br>----- ----- ---------- --- --- ------ ------ ---- -- ------<br>------- --- ------ ----- --- ---- ------- -- ---- --- --<br>------- ------,209996.79999995232,209996,209274.825,209275.59999990463,209291.439,210024.193,,0,At
screen,html.Screen,2_1_1_1_1,2022-05-02T11:17:38.705Z,,,,,,,,,,,,,,,,,54,,,,,,,,,,,,,,467.0070000476844,,response,,,,100,,,,,,,Space,keypress(Space),,,,,,,,-- the ---- --- ------ ----- ------- ---- -- --- ------- --<br>------- ---------- ------ -- ----- -- ----- -- ---- ------<br>--- ----- --- --- ------ -------- ----- --- ------ ----- --<br>----- ----- ---------- --- --- ------ ------ ---- -- ------<br>------- --- ------ ----- --- ---- ------- -- ---- --- --<br>------- ------,210491.70000004768,210491.20000004768,210007.507,209996.89999985695,210024.193,210507.072,,1,the
screen,html.Screen,2_1_1_1_2,2022-05-02T11:17:39.171Z,,,,,,,,,,,,,,,,,54,,,,,,,,,,,,,,449.8279998569633,,response,,,,100,,,,,,,Space,keypress(Space),,,,,,,,-- --- time --- ------ ----- ------- ---- -- --- ------- --<br>------- ---------- ------ -- ----- -- ----- -- ---- ------<br>--- ----- --- --- ------ -------- ----- --- ------ ----- --<br>----- ----- ---------- --- --- ------ ------ ---- -- ------<br>------- --- ------ ----- --- ---- ------- -- ---- --- --<br>------- ------,210957.79999995232,210956.89999985695,210490.518,210491.79999995232,210507.072,210973.393,,2,time
screen,html.Screen,2_1_1_1_3,2022-05-02T11:17:39.870Z,,,,,,,,,,,,,,,,,54,,,,,,,,,,,,,,682.1069999999891,,response,,,,100,,,,,,,Space,keypress(Space),,,,,,,,-- --- ---- the ------ ----- ------- ---- -- --- ------- --<br>------- ---------- ------ -- ----- -- ----- -- ---- ------<br>--- ----- --- --- ------ -------- ----- --- ------ ----- --<br>----- ----- ---------- --- --- ------ ------ ---- -- ------<br>------- --- ------ ----- --- ---- ------- -- ---- --- --<br>------- ------,211656.39999985695,211655.5,210956.621,210958,210973.393,211672.715,,3,the
screen,html.Screen,2_1_1_1_4,2022-05-02T11:17:40.398Z,,,,,,,,,,,,,,,,,54,,,,,,,,,,,,,,511.38499990463606,,response,,,,100,,,,,,,Space,keypress(Space),,,,,,,,-- --- ---- --- French ----- ------- ---- -- --- ------- --<br>------- ---------- ------ -- ----- -- ----- -- ---- ------<br>--- ----- --- --- ------ -------- ----- --- ------ ----- --<br>----- ----- ---------- --- --- ------ ------ ---- -- ------<br>------- --- ------ ----- --- ---- ------- -- ---- --- --<br>------- ------,212184.79999995232,212184.09999990463,211655.982,211656.5,211672.715,212188.902,,4,French
screen,html.Screen,2_1_1_1_5,2022-05-02T11:17:40.933Z,,,,,,,,,,,,,,,,,54,,,,,,,,,,,,,,530.2980000476819,,response,,,,100,,,,,,,Space,keypress(Space),,,,,,,,-- --- ---- --- ------ crown ------- ---- -- --- ------- --<br>------- ---------- ------ -- ----- -- ----- -- ---- ------<br>--- ----- --- --- ------ -------- ----- --- ------ ----- --<br>----- ----- ---------- --- --- ------ ------ ---- -- ------<br>------- --- ------ ----- --- ---- ------- -- ---- --- --<br>------- ------,212719.79999995232,212719.20000004768,212172.272,212184.89999985695,212188.902,212721.827,,5,crown
screen,html.Screen,2_1_1_1_6,2022-05-02T11:17:41.752Z,,,,,,,,,,,,,,,,,54,,,,,,,,,,,,,,816.2729999046423,,response,,,,100,,,,,,,Space,keypress(Space),,,,,,,,-- --- ---- --- ------ ----- secured ---- -- --- ------- --<br>------- ---------- ------ -- ----- -- ----- -- ---- ------<br>--- ----- --- --- ------ -------- ----- --- ------ ----- --<br>----- ----- ---------- --- --- ------ ------ ---- -- ------<br>------- --- ------ ----- --- ---- ------- -- ---- --- --<br>------- ------,213538.89999985695,213538.09999990463,212705.121,212719.89999985695,212721.827,213554.375,,6,secured
screen,html.Screen,2_1_1_1_7,2022-05-02T11:17:42.307Z,,,,,,,,,,,,,,,,,54,,,,,,,,,,,,,,536.3250000476837,,response,,,,100,,,,,,,Space,keypress(Space),,,,,,,,-- --- ---- --- ------ ----- ------- much -- --- ------- --<br>------- ---------- ------ -- ----- -- ----- -- ---- ------<br>--- ----- --- --- ------ -------- ----- --- ------ ----- --<br>----- ----- ---------- --- --- ------ ------ ---- -- ------<br>------- --- ------ ----- --- ---- ------- -- ---- --- --<br>------- ------,214094.29999995232,214090.70000004768,213537.647,213539,213554.375,214103.978,,7,much
screen,html.Screen,2_1_1_1_8,2022-05-02T11:17:42.758Z,,,,,,,,,,,,,,,,,54,,,,,,,,,,,,,,440.1219999046298,,response,,,,100,,,,,,,Space,keypress(Space),,,,,,,,-- --- ---- --- ------ ----- ------- ---- of --- ------- --<br>------- ---------- ------ -- ----- -- ----- -- ---- ------<br>--- ----- --- --- ------ -------- ----- --- ------ ----- --<br>----- ----- ---------- --- --- ------ ------ ---- -- ------<br>------- --- ------ ----- --- ---- ------- -- ---- --- --<br>------- ------,214544.59999990463,214544.09999990463,214087.27,214094.59999990463,214103.978,214553.529,,8,of
screen,html.Screen,2_1_1_1_9,2022-05-02T11:17:43.363Z,,,,,,,,,,,,,,,,,54,,,,,,,,,,,,,,595.6710000476742,,response,,,,100,,,,,,,Space,keypress(Space),,,,,,,,-- --- ---- --- ------ ----- ------- ---- -- its ------- --<br>------- ---------- ------ -- ----- -- ----- -- ---- ------<br>--- ----- --- --- ------ -------- ----- --- ------ ----- --<br>----- ----- ---------- --- --- ------ ------ ---- -- ------<br>------- --- ------ ----- --- ---- ------- -- ---- --- --<br>------- ------,215149.89999985695,215149.20000004768,214536.802,214544.70000004768,214553.529,215152.977,,9,its
screen,html.Screen,2_1_1_1_10,2022-05-02T11:17:44.313Z,,,,,,,,,,,,,,,,,54,,,,,,,,,,,,,,946.7230000476702,,response,,,,100,,,,,,,Space,keypress(Space),,,,,,,,-- --- ---- --- ------ ----- ------- ---- -- --- revenue --<br>------- ---------- ------ -- ----- -- ----- -- ---- ------<br>--- ----- --- --- ------ -------- ----- --- ------ ----- --<br>----- ----- ---------- --- --- ------ ------ ---- -- ------<br>------- --- ------ ----- --- ---- ------- -- ---- --- --<br>------- ------,216100.29999995232,216099.70000004768,215136.254,215150,215152.977,216104.916,,10,revenue
screen,html.Screen,2_1_1_1_11,2022-05-02T11:17:44.920Z,,,,,,,,,,,,,,,,,54,,,,,,,,,,,,,,601.4839998569514,,response,,,,100,,,,,,,Space,keypress(Space),,,,,,,,-- --- ---- --- ------ ----- ------- ---- -- --- ------- by<br>------- ---------- ------ -- ----- -- ----- -- ---- ------<br>--- ----- --- --- ------ -------- ----- --- ------ ----- --<br>----- ----- ---------- --- --- ------ ------ ---- -- ------<br>------- --- ------ ----- --- ---- ------- -- ---- --- --<br>------- ------,216707.29999995232,216706.39999985695,216085.426,216100.39999985695,216104.916,216718.226,,11,by
screen,html.Screen,2_1_1_1_12,2022-05-02T11:17:45.676Z,,,,,,,,,,,,,,,,,54,,,,,,,,,,,,,,743.3739999046375,,response,,,,100,,,,,,,Space,keypress(Space),,,,,,,,-- --- ---- --- ------ ----- ------- ---- -- --- ------- --<br>issuing ---------- ------ -- ----- -- ----- -- ---- ------<br>--- ----- --- --- ------ -------- ----- --- ------ ----- --<br>----- ----- ---------- --- --- ------ ------ ---- -- ------<br>------- --- ------ ----- --- ---- ------- -- ---- --- --<br>------- ------,217462.5,217461.59999990463,216701.545,216707.39999985695,216718.226,217467.577,,12,issuing
screen,html.Screen,2_1_1_1_13,2022-05-02T11:17:46.242Z,,,,,,,,,,,,,,,,,54,,,,,,,,,,,,,,560.6230000476935,,response,,,,100,,,,,,,Space,keypress(Space),,,,,,,,-- --- ---- --- ------ ----- ------- ---- -- --- ------- --<br>------- government ------ -- ----- -- ----- -- ---- ------<br>--- ----- --- --- ------ -------- ----- --- ------ ----- --<br>----- ----- ---------- --- --- ------ ------ ---- -- ------<br>------- --- ------ ----- --- ---- ------- -- ---- --- --<br>------- ------,218029.09999990463,218028.20000004768,217450.857,217462.70000004768,217467.577,218033.753,,13,government
screen,html.Screen,2_1_1_1_14,2022-05-02T11:17:47.657Z,,,,,,,,,,,,,,,,,54,,,,,,,,,,,,,,1409.247000000003,,response,,,,100,,,,,,,Space,keypress(Space),,,,,,,,-- --- ---- --- ------ ----- ------- ---- -- --- ------- --<br>------- ---------- bonds. -- ----- -- ----- -- ---- ------<br>--- ----- --- --- ------ -------- ----- --- ------ ----- --<br>----- ----- ---------- --- --- ------ ------ ---- -- ------<br>------- --- ------ ----- --- ---- ------- -- ---- --- --<br>------- ------,219443.89999985695,219443,218017.111,218029.29999995232,218033.753,219449.15,,14,bonds.
screen,html.Screen,2_1_1_1_15,2022-05-02T11:17:48.248Z,,,,,,,,,,,,,,,,,54,,,,,,,,,,,,,,584.3500000000058,,response,,,,100,,,,,,,Space,keypress(Space),,,,,,,,-- --- ---- --- ------ ----- ------- ---- -- --- ------- --<br>------- ---------- ------ In ----- -- ----- -- ---- ------<br>--- ----- --- --- ------ -------- ----- --- ------ ----- --<br>----- ----- ---------- --- --- ------ ------ ---- -- ------<br>------- --- ------ ----- --- ---- ------- -- ---- --- --<br>------- ------,220034.89999985695,220033.5,219432.398,219443.89999985695,219449.15,220048.633,,15,In
screen,html.Screen,2_1_1_1_16,2022-05-02T11:17:49.126Z,,,,,,,,,,,,,,,,,54,,,,,,,,,,,,,,863.1669999523147,,response,,,,100,,,,,,,Space,keypress(Space),,,,,,,,"-- --- ---- --- ------ ----- ------- ---- -- --- ------- --<br>------- ---------- ------ -- 1727, -- ----- -- ---- ------<br>--- ----- --- --- ------ -------- ----- --- ------ ----- --<br>----- ----- ---------- --- --- ------ ------ ---- -- ------<br>------- --- ------ ----- --- ---- ------- -- ---- --- --<br>------- ------",220913,220911.79999995232,220031.94,220035.09999990463,220048.633,220937.074,,16,"1727,"
screen,html.Screen,2_1_1_1_17,2022-05-02T11:17:49.855Z,,,,,,,,,,,,,,,,,54,,,,,,,,,,,,,,703.5259999046393,,response,,,,100,,,,,,,Space,keypress(Space),,,,,,,,-- --- ---- --- ------ ----- ------- ---- -- --- ------- --<br>------- ---------- ------ -- ----- in ----- -- ---- ------<br>--- ----- --- --- ------ -------- ----- --- ------ ----- --<br>----- ----- ---------- --- --- ------ ------ ---- -- ------<br>------- --- ------ ----- --- ---- ------- -- ---- --- --<br>------- ------,221641.5,221640.59999990463,220897.969,220913.20000004768,220937.074,221647.214,,17,in
screen,html.Screen,2_1_1_1_18,2022-05-02T11:17:50.538Z,,,,,,,,,,,,,,,,,54,,,,,,,,,,,,,,676.2859999999928,,response,,,,100,,,,,,,Space,keypress(Space),,,,,,,,-- --- ---- --- ------ ----- ------- ---- -- --- ------- --<br>------- ---------- ------ -- ----- -- order -- ---- ------<br>--- ----- --- --- ------ -------- ----- --- ------ ----- --<br>----- ----- ---------- --- --- ------ ------ ---- -- ------<br>------- --- ------ ----- --- ---- ------- -- ---- --- --<br>------- ------,222324.39999985695,222323.5,221630.513,221641.59999990463,221647.214,222329.939,,18,order
screen,html.Screen,2_1_1_1_19,2022-05-02T11:17:50.938Z,,,,,,,,,,,,,,,,,54,,,,,,,,,,,,,,394.7610000476707,,response,,,,100,,,,,,,Space,keypress(Space),,,,,,,,-- --- ---- --- ------ ----- ------- ---- -- --- ------- --<br>------- ---------- ------ -- ----- -- ----- to ---- ------<br>--- ----- --- --- ------ -------- ----- --- ------ ----- --<br>----- ----- ---------- --- --- ------ ------ ---- -- ------<br>------- --- ------ ----- --- ---- ------- -- ---- --- --<br>------- ------,222725.20000004768,222724.70000004768,222313.238,222324.5,222329.939,222729.594,,19,to
screen,html.Screen,2_1_1_1_20,2022-05-02T11:17:51.525Z,,,,,,,,,,,,,,,,,54,,,,,,,,,,,,,,581.7059999523044,,response,,,,100,,,,,,,Space,keypress(Space),,,,,,,,-- --- ---- --- ------ ----- ------- ---- -- --- ------- --<br>------- ---------- ------ -- ----- -- ----- -- save ------<br>--- ----- --- --- ------ -------- ----- --- ------ ----- --<br>----- ----- ---------- --- --- ------ ------ ---- -- ------<br>------- --- ------ ----- --- ---- ------- -- ---- --- --<br>------- ------,223312,223311.29999995232,222712.961,222725.29999995232,222729.594,223346.009,,20,save
screen,html.Screen,2_1_1_1_21,2022-05-02T11:17:52.029Z,,,,,,,,,,,,,,,,,54,,,,,,,,,,,,,,469.4910000000091,,response,,,,100,,,,,,,Space,keypress(Space),,,,,,,,"-- --- ---- --- ------ ----- ------- ---- -- --- ------- --<br>------- ---------- ------ -- ----- -- ----- -- ---- money,<br>--- ----- --- --- ------ -------- ----- --- ------ ----- --<br>----- ----- ---------- --- --- ------ ------ ---- -- ------<br>------- --- ------ ----- --- ---- ------- -- ---- --- --<br>------- ------",223816.09999990463,223815.5,223329.086,223312.20000004768,223346.009,223828.667,,21,"money,"
screen,html.Screen,2_1_1_1_22,2022-05-02T11:17:52.545Z,,,,,,,,,,,,,,,,,54,,,,,,,,,,,,,,502.7329998569621,,response,,,,100,,,,,,,Space,keypress(Space),,,,,,,,-- --- ---- --- ------ ----- ------- ---- -- --- ------- --<br>------- ---------- ------ -- ----- -- ----- -- ---- ------<br>the ----- --- --- ------ -------- ----- --- ------ ----- --<br>----- ----- ---------- --- --- ------ ------ ---- -- ------<br>------- --- ------ ----- --- ---- ------- -- ---- --- --<br>------- ------,224332,224331.39999985695,223811.985,223816.20000004768,223828.667,224344.874,,22,the
screen,html.Screen,2_1_1_1_23,2022-05-02T11:17:52.969Z,,,,,,,,,,,,,,,,,54,,,,,,,,,,,,,,410.826000047673,,response,,,,100,,,,,,,Space,keypress(Space),,,,,,,,-- --- ---- --- ------ ----- ------- ---- -- --- ------- --<br>------- ---------- ------ -- ----- -- ----- -- ---- ------<br>--- state --- --- ------ -------- ----- --- ------ ----- --<br>----- ----- ---------- --- --- ------ ------ ---- -- ------<br>------- --- ------ ----- --- ---- ------- -- ---- --- --<br>------- ------,224756.20000004768,224755.70000004768,224328.191,224332.20000004768,224344.874,224761.127,,23,state
screen,html.Screen,2_1_1_1_24,2022-05-02T11:17:53.434Z,,,,,,,,,,,,,,,,,54,,,,,,,,,,,,,,458.6729999523086,,response,,,,100,,,,,,,Space,keypress(Space),,,,,,,,-- --- ---- --- ------ ----- ------- ---- -- --- ------- --<br>------- ---------- ------ -- ----- -- ----- -- ---- ------<br>--- ----- cut --- ------ -------- ----- --- ------ ----- --<br>----- ----- ---------- --- --- ------ ------ ---- -- ------<br>------- --- ------ ----- --- ---- ------- -- ---- --- --<br>------- ------,225220.5,225219.79999995232,224744.474,224756.20000004768,224761.127,225227.388,,24,cut
screen,html.Screen,2_1_1_1_25,2022-05-02T11:17:53.796Z,,,,,,,,,,,,,,,,,54,,,,,,,,,,,,,,354.7119999046263,,response,,,,100,,,,,,,Space,keypress(Space),,,,,,,,-- --- ---- --- ------ ----- ------- ---- -- --- ------- --<br>------- ---------- ------ -- ----- -- ----- -- ---- ------<br>--- ----- --- the ------ -------- ----- --- ------ ----- --<br>----- ----- ---------- --- --- ------ ------ ---- -- ------<br>------- --- ------ ----- --- ---- ------- -- ---- --- --<br>------- ------,225582.89999985695,225582.09999990463,225210.747,225220.59999990463,225227.388,225593.754,,25,the
screen,html.Screen,2_1_1_1_26,2022-05-02T11:17:54.303Z,,,,,,,,,,,,,,,,,54,,,,,,,,,,,,,,495.04599995233,,response,,,,100,,,,,,,Space,keypress(Space),,,,,,,,-- --- ---- --- ------ ----- ------- ---- -- --- ------- --<br>------- ---------- ------ -- ----- -- ----- -- ---- ------<br>--- ----- --- --- bonds' -------- ----- --- ------ ----- --<br>----- ----- ---------- --- --- ------ ------ ---- -- ------<br>------- --- ------ ----- --- ---- ------- -- ---- --- --<br>------- ------,226089.39999985695,226088.79999995232,225577.071,225583,225593.754,226093.394,,26,bonds'
screen,html.Screen,2_1_1_1_27,2022-05-02T11:17:55.035Z,,,,,,,,,,,,,,,,,54,,,,,,,,,,,,,,728.3060000476835,,response,,,,100,,,,,,,Space,keypress(Space),,,,,,,,-- --- ---- --- ------ ----- ------- ---- -- --- ------- --<br>------- ---------- ------ -- ----- -- ----- -- ---- ------<br>--- ----- --- --- ------ interest ----- --- ------ ----- --<br>----- ----- ---------- --- --- ------ ------ ---- -- ------<br>------- --- ------ ----- --- ---- ------- -- ---- --- --<br>------- ------,226822.29999995232,226821.70000004768,226076.68,226089.70000004768,226093.394,226825.985,,27,interest
screen,html.Screen,2_1_1_1_28,2022-05-02T11:17:55.587Z,,,,,,,,,,,,,,,,,54,,,,,,,,,,,,,,547.015000000014,,response,,,,100,,,,,,,Space,keypress(Space),,,,,,,,-- --- ---- --- ------ ----- ------- ---- -- --- ------- --<br>------- ---------- ------ -- ----- -- ----- -- ---- ------<br>--- ----- --- --- ------ -------- rate. --- ------ ----- --<br>----- ----- ---------- --- --- ------ ------ ---- -- ------<br>------- --- ------ ----- --- ---- ------- -- ---- --- --<br>------- ------,227373.5,227373,226809.341,226822.39999985695,226825.985,227375.54,,28,rate.
screen,html.Screen,2_1_1_1_29,2022-05-02T11:17:56.401Z,,,,,,,,,,,,,,,,,54,,,,,,,,,,,,,,811.3599998569407,,response,,,,100,,,,,,,Space,keypress(Space),,,,,,,,-- --- ---- --- ------ ----- ------- ---- -- --- ------- --<br>------- ---------- ------ -- ----- -- ----- -- ---- ------<br>--- ----- --- --- ------ -------- ----- The ------ ----- --<br>----- ----- ---------- --- --- ------ ------ ---- -- ------<br>------- --- ------ ----- --- ---- ------- -- ---- --- --<br>------- ------,228187.39999985695,228186.89999985695,227358.806,227373.59999990463,227375.54,228191.444,,29,The
screen,html.Screen,2_1_1_1_30,2022-05-02T11:17:56.936Z,,,,,,,,,,,,,,,,,54,,,,,,,,,,,,,,530.4559998569603,,response,,,,100,,,,,,,Space,keypress(Space),,,,,,,,-- --- ---- --- ------ ----- ------- ---- -- --- ------- --<br>------- ---------- ------ -- ----- -- ----- -- ---- ------<br>--- ----- --- --- ------ -------- ----- --- market ----- --<br>----- ----- ---------- --- --- ------ ------ ---- -- ------<br>------- --- ------ ----- --- ---- ------- -- ---- --- --<br>------- ------,228722.59999990463,228721.89999985695,228174.721,228187.5,228191.444,228724.36,,30,market
screen,html.Screen,2_1_1_1_31,2022-05-02T11:17:57.439Z,,,,,,,,,,,,,,,,,54,,,,,,,,,,,,,,501.0399998569628,,response,,,,100,,,,,,,Space,keypress(Space),,,,,,,,-- --- ---- --- ------ ----- ------- ---- -- --- ------- --<br>------- ---------- ------ -- ----- -- ----- -- ---- ------<br>--- ----- --- --- ------ -------- ----- --- ------ value --<br>----- ----- ---------- --- --- ------ ------ ---- -- ------<br>------- --- ------ ----- --- ---- ------- -- ---- --- --<br>------- ------,229226.09999990463,229225.39999985695,228707.625,228722.59999990463,228724.36,229240.523,,31,value
screen,html.Screen,2_1_1_1_32,2022-05-02T11:17:57.873Z,,,,,,,,,,,,,,,,,54,,,,,,,,,,,,,,418.2769999523298,,response,,,,100,,,,,,,Space,keypress(Space),,,,,,,,-- --- ---- --- ------ ----- ------- ---- -- --- ------- --<br>------- ---------- ------ -- ----- -- ----- -- ---- ------<br>--- ----- --- --- ------ -------- ----- --- ------ ----- of<br>----- ----- ---------- --- --- ------ ------ ---- -- ------<br>------- --- ------ ----- --- ---- ------- -- ---- --- --<br>------- ------,229660.29999995232,229658.79999995232,229223.846,229226.09999990463,229240.523,229673.483,,32,of
screen,html.Screen,2_1_1_1_33,2022-05-02T11:17:58.360Z,,,,,,,,,,,,,,,,,54,,,,,,,,,,,,,,473.1169999046251,,response,,,,100,,,,,,,Space,keypress(Space),,,,,,,,-- --- ---- --- ------ ----- ------- ---- -- --- ------- --<br>------- ---------- ------ -- ----- -- ----- -- ---- ------<br>--- ----- --- --- ------ -------- ----- --- ------ ----- --<br>these ----- ---------- --- --- ------ ------ ---- -- ------<br>------- --- ------ ----- --- ---- ------- -- ---- --- --<br>------- ------,230147.20000004768,230146.59999990463,229656.837,229660.39999985695,229673.483,230156.36,,33,these
screen,html.Screen,2_1_1_1_34,2022-05-02T11:17:58.751Z,,,,,,,,,,,,,,,,,54,,,,,,,,,,,,,,380.8400000476977,,response,,,,100,,,,,,,Space,keypress(Space),,,,,,,,-- --- ---- --- ------ ----- ------- ---- -- --- ------- --<br>------- ---------- ------ -- ----- -- ----- -- ---- ------<br>--- ----- --- --- ------ -------- ----- --- ------ ----- --<br>----- bonds ---------- --- --- ------ ------ ---- -- ------<br>------- --- ------ ----- --- ---- ------- -- ---- --- --<br>------- ------,230538,230537.20000004768,230139.697,230147.39999985695,230156.36,230539.49,,34,bonds
screen,html.Screen,2_1_1_1_35,2022-05-02T11:17:59.495Z,,,,,,,,,,,,,,,,,54,,,,,,,,,,,,,,741.710000047693,,response,,,,100,,,,,,,Space,keypress(Space),,,,,,,,"-- --- ---- --- ------ ----- ------- ---- -- --- ------- --<br>------- ---------- ------ -- ----- -- ----- -- ---- ------<br>--- ----- --- --- ------ -------- ----- --- ------ ----- --<br>----- ----- plummeted, --- --- ------ ------ ---- -- ------<br>------- --- ------ ----- --- ---- ------- -- ---- --- --<br>------- ------",231281.70000004768,231281.20000004768,230522.705,230538.09999990463,230539.49,231288.692,,35,"plummeted,"
screen,html.Screen,2_1_1_1_36,2022-05-02T11:18:00.014Z,,,,,,,,,,,,,,,,,54,,,,,,,,,,,,,,510.90799990462256,,response,,,,100,,,,,,,Space,keypress(Space),,,,,,,,-- --- ---- --- ------ ----- ------- ---- -- --- ------- --<br>------- ---------- ------ -- ----- -- ----- -- ---- ------<br>--- ----- --- --- ------ -------- ----- --- ------ ----- --<br>----- ----- ---------- and --- ------ ------ ---- -- ------<br>------- --- ------ ----- --- ---- ------- -- ---- --- --<br>------- ------,231800.5,231799.59999990463,231272.079,231281.89999985695,231288.692,231805.208,,36,and
screen,html.Screen,2_1_1_1_37,2022-05-02T11:18:00.417Z,,,,,,,,,,,,,,,,,54,,,,,,,,,,,,,,397.6919998569356,,response,,,,100,,,,,,,Space,keypress(Space),,,,,,,,-- --- ---- --- ------ ----- ------- ---- -- --- ------- --<br>------- ---------- ------ -- ----- -- ----- -- ---- ------<br>--- ----- --- --- ------ -------- ----- --- ------ ----- --<br>----- ----- ---------- --- the ------ ------ ---- -- ------<br>------- --- ------ ----- --- ---- ------- -- ---- --- --<br>------- ------,232203.70000004768,232202.89999985695,231788.236,231800.70000004768,231805.208,232222.061,,37,the
screen,html.Screen,2_1_1_1_38,2022-05-02T11:18:00.931Z,,,,,,,,,,,,,,,,,54,,,,,,,,,,,,,,495.0389999046456,,response,,,,100,,,,,,,Space,keypress(Space),,,,,,,,-- --- ---- --- ------ ----- ------- ---- -- --- ------- --<br>------- ---------- ------ -- ----- -- ----- -- ---- ------<br>--- ----- --- --- ------ -------- ----- --- ------ ----- --<br>----- ----- ---------- --- --- market ------ ---- -- ------<br>------- --- ------ ----- --- ---- ------- -- ---- --- --<br>------- ------,232718,232717.09999990463,232187.929,232203.79999995232,232222.061,232721.148,,38,market
screen,html.Screen,2_1_1_1_39,2022-05-02T11:18:01.400Z,,,,,,,,,,,,,,,,,54,,,,,,,,,,,,,,465.1519999523298,,response,,,,100,,,,,,,Space,keypress(Space),,,,,,,,-- --- ---- --- ------ ----- ------- ---- -- --- ------- --<br>------- ---------- ------ -- ----- -- ----- -- ---- ------<br>--- ----- --- --- ------ -------- ----- --- ------ ----- --<br>----- ----- ---------- --- --- ------ became ---- -- ------<br>------- --- ------ ----- --- ---- ------- -- ---- --- --<br>------- ------,233187.09999990463,233186.29999995232,232704.105,232718.09999990463,232721.148,233203.738,,39,became
screen,html.Screen,2_1_1_1_40,2022-05-02T11:18:02.082Z,,,,,,,,,,,,,,,,,54,,,,,,,,,,,,,,664.0619999523042,,response,,,,100,,,,,,,Space,keypress(Space),,,,,,,,-- --- ---- --- ------ ----- ------- ---- -- --- ------- --<br>------- ---------- ------ -- ----- -- ----- -- ---- ------<br>--- ----- --- --- ------ -------- ----- --- ------ ----- --<br>----- ----- ---------- --- --- ------ ------ wary -- ------<br>------- --- ------ ----- --- ---- ------- -- ---- --- --<br>------- ------,233868.70000004768,233867.79999995232,233187.006,233187.29999995232,233203.738,233891.46,,40,wary
screen,html.Screen,2_1_1_1_41,2022-05-02T11:18:02.529Z,,,,,,,,,,,,,,,,,54,,,,,,,,,,,,,,423.54000000000815,,response,,,,100,,,,,,,Space,keypress(Space),,,,,,,,-- --- ---- --- ------ ----- ------- ---- -- --- ------- --<br>------- ---------- ------ -- ----- -- ----- -- ---- ------<br>--- ----- --- --- ------ -------- ----- --- ------ ----- --<br>----- ----- ---------- --- --- ------ ------ ---- of ------<br>------- --- ------ ----- --- ---- ------- -- ---- --- --<br>------- ------,234315.79999995232,234315,233853.069,233868.79999995232,233891.46,234319.628,,41,of
screen,html.Screen,2_1_1_1_42,2022-05-02T11:18:03.226Z,,,,,,,,,,,,,,,,,54,,,,,,,,,,,,,,692.7719998569519,,response,,,,100,,,,,,,Space,keypress(Space),,,,,,,,-- --- ---- --- ------ ----- ------- ---- -- --- ------- --<br>------- ---------- ------ -- ----- -- ----- -- ---- ------<br>--- ----- --- --- ------ -------- ----- --- ------ ----- --<br>----- ----- ---------- --- --- ------ ------ ---- -- French<br>------- --- ------ ----- --- ---- ------- -- ---- --- --<br>------- ------,235012.89999985695,235012.39999985695,234302.709,234315.89999985695,234319.628,235018.933,,42,French
screen,html.Screen,2_1_1_1_43,2022-05-02T11:18:05.353Z,,,,,,,,,,,,,,,,,54,,,,,,,,,,,,,,2120.2670000476937,,response,,,,100,,,,,,,Space,keypress(Space),,,,,,,,-- --- ---- --- ------ ----- ------- ---- -- --- ------- --<br>------- ---------- ------ -- ----- -- ----- -- ---- ------<br>--- ----- --- --- ------ -------- ----- --- ------ ----- --<br>----- ----- ---------- --- --- ------ ------ ---- -- ------<br>credit. --- ------ ----- --- ---- ------- -- ---- --- --<br>------- ------,237140,237139.20000004768,235002.094,235013,235018.933,237150.199,,43,credit.
screen,html.Screen,2_1_1_1_44,2022-05-02T11:18:06.337Z,,,,,,,,,,,,,,,,,54,,,,,,,,,,,,,,973.3010000000068,,response,,,,100,,,,,,,Space,keypress(Space),,,,,,,,-- --- ---- --- ------ ----- ------- ---- -- --- ------- --<br>------- ---------- ------ -- ----- -- ----- -- ---- ------<br>--- ----- --- --- ------ -------- ----- --- ------ ----- --<br>----- ----- ---------- --- --- ------ ------ ---- -- ------<br>------- The ------ ----- --- ---- ------- -- ---- --- --<br>------- ------,238124.09999990463,238123.5,237133.455,237140.20000004768,237150.199,238132.69,,44,The
screen,html.Screen,2_1_1_1_45,2022-05-02T11:18:06.906Z,,,,,,,,,,,,,,,,,54,,,,,,,,,,,,,,559.5100000476814,,response,,,,100,,,,,,,Space,keypress(Space),,,,,,,,-- --- ---- --- ------ ----- ------- ---- -- --- ------- --<br>------- ---------- ------ -- ----- -- ----- -- ---- ------<br>--- ----- --- --- ------ -------- ----- --- ------ ----- --<br>----- ----- ---------- --- --- ------ ------ ---- -- ------<br>------- --- French ----- --- ---- ------- -- ---- --- --<br>------- ------,238693,238692.20000004768,238115.999,238124.20000004768,238132.69,238698.844,,45,French
screen,html.Screen,2_1_1_1_46,2022-05-02T11:18:07.370Z,,,,,,,,,,,,,,,,,54,,,,,,,,,,,,,,457.35600004767184,,response,,,,100,,,,,,,Space,keypress(Space),,,,,,,,-- --- ---- --- ------ ----- ------- ---- -- --- ------- --<br>------- ---------- ------ -- ----- -- ----- -- ---- ------<br>--- ----- --- --- ------ -------- ----- --- ------ ----- --<br>----- ----- ---------- --- --- ------ ------ ---- -- ------<br>------- --- ------ state --- ---- ------- -- ---- --- --<br>------- ------,239156.70000004768,239156.20000004768,238682.21,238693,238698.844,239165.077,,46,state
screen,html.Screen,2_1_1_1_47,2022-05-02T11:18:07.912Z,,,,,,,,,,,,,,,,,54,,,,,,,,,,,,,,533.1230000476935,,response,,,,100,,,,,,,Space,keypress(Space),,,,,,,,-- --- ---- --- ------ ----- ------- ---- -- --- ------- --<br>------- ---------- ------ -- ----- -- ----- -- ---- ------<br>--- ----- --- --- ------ -------- ----- --- ------ ----- --<br>----- ----- ---------- --- --- ------ ------ ---- -- ------<br>------- --- ------ ----- was ---- ------- -- ---- --- --<br>------- ------,239698.70000004768,239698.20000004768,239148.417,239156.79999995232,239165.077,239714.65,,47,was
screen,html.Screen,2_1_1_1_48,2022-05-02T11:18:08.452Z,,,,,,,,,,,,,,,,,54,,,,,,,,,,,,,,523.6499999523221,,response,,,,100,,,,,,,Space,keypress(Space),,,,,,,,-- --- ---- --- ------ ----- ------- ---- -- --- ------- --<br>------- ---------- ------ -- ----- -- ----- -- ---- ------<br>--- ----- --- --- ------ -------- ----- --- ------ ----- --<br>----- ----- ---------- --- --- ------ ------ ---- -- ------<br>------- --- ------ ----- --- left ------- -- ---- --- --<br>------- ------,240238.79999995232,240238.29999995232,239697.933,239698.89999985695,239714.65,240247.459,,48,left
screen,html.Screen,2_1_1_1_49,2022-05-02T11:18:08.931Z,,,,,,,,,,,,,,,,,54,,,,,,,,,,,,,,469.74100004768115,,response,,,,100,,,,,,,Space,keypress(Space),,,,,,,,-- --- ---- --- ------ ----- ------- ---- -- --- ------- --<br>------- ---------- ------ -- ----- -- ----- -- ---- ------<br>--- ----- --- --- ------ -------- ----- --- ------ ----- --<br>----- ----- ---------- --- --- ------ ------ ---- -- ------<br>------- --- ------ ----- --- ---- without -- ---- --- --<br>------- ------,240718.09999990463,240717.20000004768,240230.83,240238.89999985695,240247.459,240730.425,,49,without
screen,html.Screen,2_1_1_1_50,2022-05-02T11:18:09.287Z,,,,,,,,,,,,,,,,,54,,,,,,,,,,,,,,343.1749999046442,,response,,,,100,,,,,,,Space,keypress(Space),,,,,,,,-- --- ---- --- ------ ----- ------- ---- -- --- ------- --<br>------- ---------- ------ -- ----- -- ----- -- ---- ------<br>--- ----- --- --- ------ -------- ----- --- ------ ----- --<br>----- ----- ---------- --- --- ------ ------ ---- -- ------<br>------- --- ------ ----- --- ---- ------- an ---- --- --<br>------- ------,241074,241073.59999990463,240713.711,240718.20000004768,240730.425,241080.06,,50,an
screen,html.Screen,2_1_1_1_51,2022-05-02T11:18:09.657Z,,,,,,,,,,,,,,,,,54,,,,,,,,,,,,,,362.8399998569512,,response,,,,100,,,,,,,Space,keypress(Space),,,,,,,,-- --- ---- --- ------ ----- ------- ---- -- --- ------- --<br>------- ---------- ------ -- ----- -- ----- -- ---- ------<br>--- ----- --- --- ------ -------- ----- --- ------ ----- --<br>----- ----- ---------- --- --- ------ ------ ---- -- ------<br>------- --- ------ ----- --- ---- ------- -- easy --- --<br>------- ------,241443.70000004768,241442.89999985695,241063.463,241074.20000004768,241080.06,241447.019,,51,easy
screen,html.Screen,2_1_1_1_52,2022-05-02T11:18:10.060Z,,,,,,,,,,,,,,,,,54,,,,,,,,,,,,,,398.08099990463234,,response,,,,100,,,,,,,Space,keypress(Space),,,,,,,,-- --- ---- --- ------ ----- ------- ---- -- --- ------- --<br>------- ---------- ------ -- ----- -- ----- -- ---- ------<br>--- ----- --- --- ------ -------- ----- --- ------ ----- --<br>----- ----- ---------- --- --- ------ ------ ---- -- ------<br>------- --- ------ ----- --- ---- ------- -- ---- way --<br>------- ------,241846.59999990463,241845.09999990463,241429.751,241443.79999995232,241447.019,241862.894,,52,way
screen,html.Screen,2_1_1_1_53,2022-05-02T11:18:10.476Z,,,,,,,,,,,,,,,,,54,,,,,,,,,,,,,,399.3060000476835,,response,,,,100,,,,,,,Space,keypress(Space),,,,,,,,-- --- ---- --- ------ ----- ------- ---- -- --- ------- --<br>------- ---------- ------ -- ----- -- ----- -- ---- ------<br>--- ----- --- --- ------ -------- ----- --- ------ ----- --<br>----- ----- ---------- --- --- ------ ------ ---- -- ------<br>------- --- ------ ----- --- ---- ------- -- ---- --- of<br>------- ------,242263.20000004768,242262.20000004768,241846.053,241846.70000004768,241862.894,242279.01,,53,of
screen,html.Screen,2_1_1_1_54,2022-05-02T11:18:10.955Z,,,,,,,,,,,,,,,,,54,,,,,,,,,,,,,,462.08999990462326,,response,,,,100,,,,,,,Space,keypress(Space),,,,,,,,-- --- ---- --- ------ ----- ------- ---- -- --- ------- --<br>------- ---------- ------ -- ----- -- ----- -- ---- ------<br>--- ----- --- --- ------ -------- ----- --- ------ ----- --<br>----- ----- ---------- --- --- ------ ------ ---- -- ------<br>------- --- ------ ----- --- ---- ------- -- ---- --- --<br>raising ------,242741.79999995232,242741.09999990463,242262.343,242263.29999995232,242279.01,242745.317,,54,raising
screen,html.Screen,2_1_1_1_55,2022-05-02T11:18:11.323Z,,,,,,,,,,,,,,,,,54,,,,,,,,,,,,,,364.3830000476737,,response,,,,100,,,,,,,Space,keypress(Space),,,,,,,,-- --- ---- --- ------ ----- ------- ---- -- --- ------- --<br>------- ---------- ------ -- ----- -- ----- -- ---- ------<br>--- ----- --- --- ------ -------- ----- --- ------ ----- --<br>----- ----- ---------- --- --- ------ ------ ---- -- ------<br>------- --- ------ ----- --- ---- ------- -- ---- --- --<br>------- money.,243110.39999985695,243109.70000004768,242728.629,242741.89999985695,242745.317,243133.216,,55,money.
Item 100,flow.Loop,2_1_1_1,2022-05-02T11:18:11.324Z,,,,,,,,,,,,,,,,,,,,,,,,,,,,,,,33818.26100004767,,completion,,,,,F,,,,,,,,,,,silence,,,,,243110.5,243109.70000004768,209274.825,209275.5,209291.439,243133.216,,,
Question 1,html.Screen,2_1_1_2,2022-05-02T11:18:14.225Z,,,,,,,,,,,,,,,,,,,,,,,,,,,,true,TRUE,,2878.183999856963,,response,,,,100,F,,,,,,TRUE,click #choice-1,,,,silence,,,,,246012.39999985695,246011.39999985695,243094.988,243110.59999990463,243133.216,246025.694,,,
Question 2,html.Screen,2_1_1_3,2022-05-02T11:18:15.852Z,,,,,,,,,,,,,,,,,,,,,,,,,,,,true,FALSE,,1612.3060000000114,,response,,,,100,F,,,,,,FALSE,click #choice-2,,,,silence,,,,,247638.70000004768,247638,246009.086,246012.5,246025.694,247640.993,,,
Item 100,flow.Sequence,2_1_1,2022-05-02T11:18:15.852Z,,,,,,,,,,,,,,,,,,,,,,,,,,,,,,,48354.386,,completion,,,,,,,,,,,,,,,,,,,,,247638.79999995232,247638,199266.973,199251.59999990463,199283.614,247640.993,,,
End of Practice,html.Page,2_1_2,2022-05-02T11:18:20.515Z,,,,,,,,,,,,,,,,,,,,,,,,,,,,,,,4660.207000047696,,form submission,,,,,,,,,,,,,,,,,,,,,252301.59999990463,252301.20000004768,247624.349,247638.79999995232,247640.993,252303.535,,,
Practice,flow.Sequence,2_1,2022-05-02T11:18:20.515Z,,,,,,,,,,,,,,,,,,,,,,,,,,,,,,,115062.86000004769,,completion,,,,,,,,,,,,,,,,,,,,,252301.70000004768,252301.20000004768,137221.815,137227.09999990463,137238.34,252303.535,,,
Trap_instruction,html.Page,2_2_0,2022-05-02T11:18:26.675Z,,,,,,,,,,,,,,,,,,,,,,,,,,,,,,,6158.4649999999965,,form submission,,,,,,,,,,,,,,,,,,,,,258462.29999995232,258462,252286.881,252301.79999995232,252303.535,258464.769,,,
trap_trial,html.Screen,2_2_1,2022-05-02T11:18:31.499Z,,,,,,,,,,,,,,,,,,,,,,,,,,,,true,1,,4820.231,,response,,,,,,,,,,,1,click #choice-1,,,,,,,,,263285.7000000477,263285,258448.109,258462.39999985695,258464.769,263293.915,,,
end of trap trial,html.Page,2_2_2,2022-05-02T11:18:33.136Z,,,,,,,,,,,,,,,,,,,,,,,,,,,,,,,1628.4849998569698,,form submission,,,,,,,,,,,,,,,,,,,,,264922.7000000477,264922.39999985695,263277.212,263285.89999985695,263293.915,264926.235,,,
Trap 1,flow.Sequence,2_2,2022-05-02T11:18:33.136Z,,,,,,,,,,,,,,,,,,,,,,,,,,,,,,,12618.864999856945,,completion,,,,,,,,,,,,,,,,,,,,,264922.7999999523,264922.39999985695,252286.881,252301.79999995232,252303.535,264926.235,,,
Standby,html.Page,2_3_0,2022-05-02T11:18:41.116Z,,,,,,,,,,,,,,,,,,,,,,,,,,,,,,,7992.39300000004,,timeout,,,,,,,,,,,,,,,,,,,,,272902.5,272902.02,264909.086,264922.89999985695,264926.235,272918.628,,,
Holding screen,html.Screen,2_3_1_0_0,2022-05-02T11:18:48.110Z,,,,,,,,,,,,,,,,,,,,,,,,,,,,,,,6993.914999999979,,timeout,,,,,,,,,,,,,,,,,,,,,279897.2000000477,279895.929,272902.02,272902.59999990463,272918.628,279912.543,,,
screen,html.Screen,2_3_1_0_1_0,2022-05-02T11:18:51.960Z,,,,,,,,,,,,,,,,,2,,,,,,,,,,,,,,3833.256999952311,,response,,,,1,F,,,,,,Space,keypress(Space),,,,lyrical,,,,Two ---- ------ --- ------- ---------- ------- ----------<br>--- --------- --- ----------- ------- ----- ------- ---<br>--------- ---- -- --- ---- -- --------- -- ---- -------<br>-- --------- ------ --- ----- ------ ---- --- --------- --<br>------ - ---- -- --- ----------- ------- ---- ----- -----<br>--- -------- - ------ ---- -- ----- ---- --- --- -----------<br>-- -------,283746.89999985695,283745.7999999523,279895.929,279897.5,279912.543,283759.081,,0,Two
screen,html.Screen,2_3_1_0_1_1,2022-05-02T11:18:52.829Z,,,,,,,,,,,,,,,,,2,,,,,,,,,,,,,,855.9189999999944,,response,,,,1,F,,,,,,Space,keypress(Space),,,,lyrical,,,,--- days ------ --- ------- ---------- ------- ----------<br>--- --------- --- ----------- ------- ----- ------- ---<br>--------- ---- -- --- ---- -- --------- -- ---- -------<br>-- --------- ------ --- ----- ------ ---- --- --------- --<br>------ - ---- -- --- ----------- ------- ---- ----- -----<br>--- -------- - ------ ---- -- ----- ---- --- --- -----------<br>-- -------,284615.7999999523,284615,283742.004,283747.09999990463,283759.081,284624.99,,1,days
screen,html.Screen,2_3_1_0_1_2,2022-05-02T11:18:53.857Z,,,,,,,,,,,,,,,,,2,,,,,,,,,,,,,,1017.5100000000093,,response,,,,1,F,,,,,,Space,keypress(Space),,,,lyrical,,,,"--- ---- later, --- ------- ---------- ------- ----------<br>--- --------- --- ----------- ------- ----- ------- ---<br>--------- ---- -- --- ---- -- --------- -- ---- -------<br>-- --------- ------ --- ----- ------ ---- --- --------- --<br>------ - ---- -- --- ----------- ------- ---- ----- -----<br>--- -------- - ------ ---- -- ----- ---- --- --- -----------<br>-- -------",285643.5,285642.5,284608.279,284615.89999985695,284624.99,285657.434,,2,"later,"
screen,html.Screen,2_3_1_0_1_3,2022-05-02T11:18:54.434Z,,,,,,,,,,,,,,,,,2,,,,,,,,,,,,,,563.3659999523079,,response,,,,1,F,,,,,,Space,keypress(Space),,,,lyrical,,,,--- ---- ------ the ------- ---------- ------- ----------<br>--- --------- --- ----------- ------- ----- ------- ---<br>--------- ---- -- --- ---- -- --------- -- ---- -------<br>-- --------- ------ --- ----- ------ ---- --- --------- --<br>------ - ---- -- --- ----------- ------- ---- ----- -----<br>--- -------- - ------ ---- -- ----- ---- --- --- -----------<br>-- -------,286221.39999985695,286220.7999999523,285640.669,285643.59999990463,285657.434,286223.599,,3,the
screen,html.Screen,2_3_1_0_1_4,2022-05-02T11:18:54.923Z,,,,,,,,,,,,,,,,,2,,,,,,,,,,,,,,485.70099995232886,,response,,,,1,F,,,,,,Space,keypress(Space),,,,lyrical,,,,--- ---- ------ --- British ---------- ------- ----------<br>--- --------- --- ----------- ------- ----- ------- ---<br>--------- ---- -- --- ---- -- --------- -- ---- -------<br>-- --------- ------ --- ----- ------ ---- --- --------- --<br>------ - ---- -- --- ----------- ------- ---- ----- -----<br>--- -------- - ------ ---- -- ----- ---- --- --- -----------<br>-- -------,286710,286709.2999999523,286206.9,286221.5,286223.599,286723.235,,4,British
screen,html.Screen,2_3_1_0_1_5,2022-05-02T11:18:55.599Z,,,,,,,,,,,,,,,,,2,,,,,,,,,,,,,,661.8649999046465,,response,,,,1,F,,,,,,Space,keypress(Space),,,,lyrical,,,,--- ---- ------ --- ------- astronomer ------- ----------<br>--- --------- --- ----------- ------- ----- ------- ---<br>--------- ---- -- --- ---- -- --------- -- ---- -------<br>-- --------- ------ --- ----- ------ ---- --- --------- --<br>------ - ---- -- --- ----------- ------- ---- ----- -----<br>--- -------- - ------ ---- -- ----- ---- --- --- -----------<br>-- -------,287385.7999999523,287385.09999990463,286706.472,286710,286723.235,287389.244,,5,astronomer
screen,html.Screen,2_3_1_0_1_6,2022-05-02T11:18:56.417Z,,,,,,,,,,,,,,,,,2,,,,,,,,,,,,,,813.755999999994,,response,,,,1,F,,,,,,Space,keypress(Space),,,,lyrical,,,,--- ---- ------ --- ------- ---------- Richard ----------<br>--- --------- --- ----------- ------- ----- ------- ---<br>--------- ---- -- --- ---- -- --------- -- ---- -------<br>-- --------- ------ --- ----- ------ ---- --- --------- --<br>------ - ---- -- --- ----------- ------- ---- ----- -----<br>--- -------- - ------ ---- -- ----- ---- --- --- -----------<br>-- -------,288203.5,288203,287372.518,287386,287389.244,288205.218,,6,Richard
screen,html.Screen,2_3_1_0_1_7,2022-05-02T11:18:57.102Z,,,,,,,,,,,,,,,,,2,,,,,,,,,,,,,,682.0819999523228,,response,,,,1,F,,,,,,Space,keypress(Space),,,,lyrical,,,,--- ---- ------ --- ------- ---------- ------- Carrington<br>--- --------- --- ----------- ------- ----- ------- ---<br>--------- ---- -- --- ---- -- --------- -- ---- -------<br>-- --------- ------ --- ----- ------ ---- --- --------- --<br>------ - ---- -- --- ----------- ------- ---- ----- -----<br>--- -------- - ------ ---- -- ----- ---- --- --- -----------<br>-- -------,288888.7000000477,288887.2999999523,288188.508,288203.59999990463,288205.218,288904.581,,7,Carrington
screen,html.Screen,2_3_1_0_1_8,2022-05-02T11:18:57.873Z,,,,,,,,,,,,,,,,,2,,,,,,,,,,,,,,754.6190000476781,,response,,,,1,F,,,,,,Space,keypress(Space),,,,lyrical,,,,--- ---- ------ --- ------- ---------- ------- ----------<br>was --------- --- ----------- ------- ----- ------- ---<br>--------- ---- -- --- ---- -- --------- -- ---- -------<br>-- --------- ------ --- ----- ------ ---- --- --------- --<br>------ - ---- -- --- ----------- ------- ---- ----- -----<br>--- -------- - ------ ---- -- ----- ---- --- --- -----------<br>-- -------,289660,289659.2000000477,288887.847,288888.89999985695,288904.581,289670.628,,8,was
screen,html.Screen,2_3_1_0_1_9,2022-05-02T11:18:58.572Z,,,,,,,,,,,,,,,,,2,,,,,,,,,,,,,,687.4719999046065,,response,,,,1,F,,,,,,Space,keypress(Space),,,,lyrical,,,,--- ---- ------ --- ------- ---------- ------- ----------<br>--- observing --- ----------- ------- ----- ------- ---<br>--------- ---- -- --- ---- -- --------- -- ---- -------<br>-- --------- ------ --- ----- ------ ---- --- --------- --<br>------ - ---- -- --- ----------- ------- ---- ----- -----<br>--- -------- - ------ ---- -- ----- ---- --- --- -----------<br>-- -------,290358.7999999523,290358.09999990463,289653.833,289660.2000000477,289670.628,290369.959,,9,observing
screen,html.Screen,2_3_1_0_1_10,2022-05-02T11:18:59.414Z,,,,,,,,,,,,,,,,,2,,,,,,,,,,,,,,830.1409999046591,,response,,,,1,F,,,,,,Space,keypress(Space),,,,lyrical,,,,--- ---- ------ --- ------- ---------- ------- ----------<br>--- --------- the ----------- ------- ----- ------- ---<br>--------- ---- -- --- ---- -- --------- -- ---- -------<br>-- --------- ------ --- ----- ------ ---- --- --------- --<br>------ - ---- -- --- ----------- ------- ---- ----- -----<br>--- -------- - ------ ---- -- ----- ---- --- --- -----------<br>-- -------,291200.7999999523,291200.09999990463,290353.23,290358.89999985695,290369.959,291202.591,,10,the
screen,html.Screen,2_3_1_0_1_11,2022-05-02T11:19:00.867Z,,,,,,,,,,,,,,,,,2,,,,,,,,,,,,,,1451.0089999046177,,response,,,,1,F,,,,,,Space,keypress(Space),,,,lyrical,,,,--- ---- ------ --- ------- ---------- ------- ----------<br>--- --------- --- interesting ------- ----- ------- ---<br>--------- ---- -- --- ---- -- --------- -- ---- -------<br>-- --------- ------ --- ----- ------ ---- --- --------- --<br>------ - ---- -- --- ----------- ------- ---- ----- -----<br>--- -------- - ------ ---- -- ----- ---- --- --- -----------<br>-- -------,292654.2000000477,292653.59999990463,291185.795,291200.89999985695,291202.591,292667.937,,11,interesting
screen,html.Screen,2_3_1_0_1_12,2022-05-02T11:19:02.399Z,,,,,,,,,,,,,,,,,2,,,,,,,,,,,,,,1516.7630000477075,,response,,,,1,F,,,,,,Space,keypress(Space),,,,lyrical,,,,--- ---- ------ --- ------- ---------- ------- ----------<br>--- --------- --- ----------- sunspot ----- ------- ---<br>--------- ---- -- --- ---- -- --------- -- ---- -------<br>-- --------- ------ --- ----- ------ ---- --- --------- --<br>------ - ---- -- --- ----------- ------- ---- ----- -----<br>--- -------- - ------ ---- -- ----- ---- --- --- -----------<br>-- -------,294185.39999985695,294184.7000000477,292651.127,292654.2999999523,292667.937,294199.894,,12,sunspot
screen,html.Screen,2_3_1_0_1_13,2022-05-02T11:19:03.756Z,,,,,,,,,,,,,,,,,2,,,,,,,,,,,,,,1342.6060000000289,,response,,,,1,F,,,,,,Space,keypress(Space),,,,lyrical,,,,--- ---- ------ --- ------- ---------- ------- ----------<br>--- --------- --- ----------- ------- group ------- ---<br>--------- ---- -- --- ---- -- --------- -- ---- -------<br>-- --------- ------ --- ----- ------ ---- --- --------- --<br>------ - ---- -- --- ----------- ------- ---- ----- -----<br>--- -------- - ------ ---- -- ----- ---- --- --- -----------<br>-- -------,295543.2999999523,295542.5,294183.08,294185.5,294199.894,295548.683,,13,group
screen,html.Screen,2_3_1_0_1_14,2022-05-02T11:19:04.872Z,,,,,,,,,,,,,,,,,2,,,,,,,,,,,,,,1109.1169999522972,,response,,,,1,F,,,,,,Space,keypress(Space),,,,lyrical,,,,--- ---- ------ --- ------- ---------- ------- ----------<br>--- --------- --- ----------- ------- ----- through ---<br>--------- ---- -- --- ---- -- --------- -- ---- -------<br>-- --------- ------ --- ----- ------ ---- --- --------- --<br>------ - ---- -- --- ----------- ------- ---- ----- -----<br>--- -------- - ------ ---- -- ----- ---- --- --- -----------<br>-- -------,296658.39999985695,296657.7999999523,295531.905,295543.2999999523,295548.683,296664.391,,14,through
screen,html.Screen,2_3_1_0_1_15,2022-05-02T11:19:05.897Z,,,,,,,,,,,,,,,,,2,,,,,,,,,,,,,,1018.1089999999967,,response,,,,1,F,,,,,,Space,keypress(Space),,,,lyrical,,,,--- ---- ------ --- ------- ---------- ------- ----------<br>--- --------- --- ----------- ------- ----- ------- his<br>--------- ---- -- --- ---- -- --------- -- ---- -------<br>-- --------- ------ --- ----- ------ ---- --- --------- --<br>------ - ---- -- --- ----------- ------- ---- ----- -----<br>--- -------- - ------ ---- -- ----- ---- --- --- -----------<br>-- -------,297683.59999990463,297682.5,296647.64,296658.59999990463,296664.391,297696.843,,15,his
screen,html.Screen,2_3_1_0_1_16,2022-05-02T11:19:06.756Z,,,,,,,,,,,,,,,,,2,,,,,,,,,,,,,,844.9569999523228,,response,,,,1,F,,,,,,Space,keypress(Space),,,,lyrical,,,,--- ---- ------ --- ------- ---------- ------- ----------<br>--- --------- --- ----------- ------- ----- ------- ---<br>telescope ---- -- --- ---- -- --------- -- ---- -------<br>-- --------- ------ --- ----- ------ ---- --- --------- --<br>------ - ---- -- --- ----------- ------- ---- ----- -----<br>--- -------- - ------ ---- -- ----- ---- --- --- -----------<br>-- -------,298542.7000000477,298541.7999999523,297680.055,297683.7999999523,297696.843,298546.071,,16,telescope
screen,html.Screen,2_3_1_0_1_17,2022-05-02T11:19:07.638Z,,,,,,,,,,,,,,,,,2,,,,,,,,,,,,,,878.1290000476874,,response,,,,1,F,,,,,,Space,keypress(Space),,,,lyrical,,,,--- ---- ------ --- ------- ---------- ------- ----------<br>--- --------- --- ----------- ------- ----- ------- ---<br>--------- when -- --- ---- -- --------- -- ---- -------<br>-- --------- ------ --- ----- ------ ---- --- --------- --<br>------ - ---- -- --- ----------- ------- ---- ----- -----<br>--- -------- - ------ ---- -- ----- ---- --- --- -----------<br>-- -------,299424.7999999523,299424.2000000477,298529.323,298542.7999999523,298546.071,299428.601,,17,when
screen,html.Screen,2_3_1_0_1_18,2022-05-02T11:19:08.178Z,,,,,,,,,,,,,,,,,2,,,,,,,,,,,,,,534.4989999046084,,response,,,,1,F,,,,,,Space,keypress(Space),,,,lyrical,,,,--- ---- ------ --- ------- ---------- ------- ----------<br>--- --------- --- ----------- ------- ----- ------- ---<br>--------- ---- he --- ---- -- --------- -- ---- -------<br>-- --------- ------ --- ----- ------ ---- --- --------- --<br>------ - ---- -- --- ----------- ------- ---- ----- -----<br>--- -------- - ------ ---- -- ----- ---- --- --- -----------<br>-- -------,299964.39999985695,299963.09999990463,299411.876,299424.89999985695,299428.601,299978.142,,18,he
screen,html.Screen,2_3_1_0_1_19,2022-05-02T11:19:08.637Z,,,,,,,,,,,,,,,,,2,,,,,,,,,,,,,,444.7579998569563,,response,,,,1,F,,,,,,Space,keypress(Space),,,,lyrical,,,,--- ---- ------ --- ------- ---------- ------- ----------<br>--- --------- --- ----------- ------- ----- ------- ---<br>--------- ---- -- saw ---- -- --------- -- ---- -------<br>-- --------- ------ --- ----- ------ ---- --- --------- --<br>------ - ---- -- --- ----------- ------- ---- ----- -----<br>--- -------- - ------ ---- -- ----- ---- --- --- -----------<br>-- -------,300423.39999985695,300422.89999985695,299961.423,299964.5,299978.142,300427.753,,19,saw
screen,html.Screen,2_3_1_0_1_20,2022-05-02T11:19:08.996Z,,,,,,,,,,,,,,,,,2,,,,,,,,,,,,,,354.44700004765764,,response,,,,1,F,,,,,,Space,keypress(Space),,,,lyrical,,,,--- ---- ------ --- ------- ---------- ------- ----------<br>--- --------- --- ----------- ------- ----- ------- ---<br>--------- ---- -- --- what -- --------- -- ---- -------<br>-- --------- ------ --- ----- ------ ---- --- --------- --<br>------ - ---- -- --- ----------- ------- ---- ----- -----<br>--- -------- - ------ ---- -- ----- ---- --- --- -----------<br>-- -------,300782.89999985695,300782.2000000477,300411.044,300423.5,300427.753,300794.081,,20,what
screen,html.Screen,2_3_1_0_1_21,2022-05-02T11:19:09.361Z,,,,,,,,,,,,,,,,,2,,,,,,,,,,,,,,352.518999904627,,response,,,,1,F,,,,,,Space,keypress(Space),,,,lyrical,,,,--- ---- ------ --- ------- ---------- ------- ----------<br>--- --------- --- ----------- ------- ----- ------- ---<br>--------- ---- -- --- ---- he --------- -- ---- -------<br>-- --------- ------ --- ----- ------ ---- --- --------- --<br>------ - ---- -- --- ----------- ------- ---- ----- -----<br>--- -------- - ------ ---- -- ----- ---- --- --- -----------<br>-- -------,301148.09999990463,301146.59999990463,300777.449,300783.09999990463,300794.081,301160.506,,21,he
screen,html.Screen,2_3_1_0_1_22,2022-05-02T11:19:09.780Z,,,,,,,,,,,,,,,,,2,,,,,,,,,,,,,,405.0939999046386,,response,,,,1,F,,,,,,Space,keypress(Space),,,,lyrical,,,,--- ---- ------ --- ------- ---------- ------- ----------<br>--- --------- --- ----------- ------- ----- ------- ---<br>--------- ---- -- --- ---- -- described -- ---- -------<br>-- --------- ------ --- ----- ------ ---- --- --------- --<br>------ - ---- -- --- ----------- ------- ---- ----- -----<br>--- -------- - ------ ---- -- ----- ---- --- --- -----------<br>-- -------,301566.59999990463,301565.59999990463,301143.752,301148.2000000477,301160.506,301576.828,,22,described
screen,html.Screen,2_3_1_0_1_23,2022-05-02T11:19:10.152Z,,,,,,,,,,,,,,,,,2,,,,,,,,,,,,,,361.27199990465306,,response,,,,1,F,,,,,,Space,keypress(Space),,,,lyrical,,,,--- ---- ------ --- ------- ---------- ------- ----------<br>--- --------- --- ----------- ------- ----- ------- ---<br>--------- ---- -- --- ---- -- --------- as ---- -------<br>-- --------- ------ --- ----- ------ ---- --- --------- --<br>------ - ---- -- --- ----------- ------- ---- ----- -----<br>--- -------- - ------ ---- -- ----- ---- --- --- -----------<br>-- -------,301938.89999985695,301938.09999990463,301560.05,301566.7999999523,301576.828,301943.077,,23,as
screen,html.Screen,2_3_1_0_1_24,2022-05-02T11:19:10.503Z,,,,,,,,,,,,,,,,,2,,,,,,,,,,,,,,346.1230000476935,,response,,,,1,F,,,,,,Space,keypress(Space),,,,lyrical,,,,"--- ---- ------ --- ------- ---------- ------- ----------<br>--- --------- --- ----------- ------- ----- ------- ---<br>--------- ---- -- --- ---- -- --------- -- ""two -------<br>-- --------- ------ --- ----- ------ ---- --- --------- --<br>------ - ---- -- --- ----------- ------- ---- ----- -----<br>--- -------- - ------ ---- -- ----- ---- --- --- -----------<br>-- -------",302289.89999985695,302289.2000000477,301926.38,301939,301943.077,302293.152,,24,"""two"
screen,html.Screen,2_3_1_0_1_25,2022-05-02T11:19:10.975Z,,,,,,,,,,,,,,,,,2,,,,,,,,,,,,,,466.54800004768185,,response,,,,1,F,,,,,,Space,keypress(Space),,,,lyrical,,,,--- ---- ------ --- ------- ---------- ------- ----------<br>--- --------- --- ----------- ------- ----- ------- ---<br>--------- ---- -- --- ---- -- --------- -- ---- patches<br>-- --------- ------ --- ----- ------ ---- --- --------- --<br>------ - ---- -- --- ----------- ------- ---- ----- -----<br>--- -------- - ------ ---- -- ----- ---- --- --- -----------<br>-- -------,302761.7999999523,302759.7000000477,302276.074,302289.89999985695,302293.152,302775.659,,25,patches
screen,html.Screen,2_3_1_0_1_26,2022-05-02T11:19:11.407Z,,,,,,,,,,,,,,,,,2,,,,,,,,,,,,,,417.1409999523312,,response,,,,1,F,,,,,,Space,keypress(Space),,,,lyrical,,,,--- ---- ------ --- ------- ---------- ------- ----------<br>--- --------- --- ----------- ------- ----- ------- ---<br>--------- ---- -- --- ---- -- --------- -- ---- -------<br>of --------- ------ --- ----- ------ ---- --- --------- --<br>------ - ---- -- --- ----------- ------- ---- ----- -----<br>--- -------- - ------ ---- -- ----- ---- --- --- -----------<br>-- -------,303194.2000000477,303192.7999999523,302758.981,302761.89999985695,302775.659,303208.611,,26,of
screen,html.Screen,2_3_1_0_1_27,2022-05-02T11:19:11.847Z,,,,,,,,,,,,,,,,,2,,,,,,,,,,,,,,424.5890000477084,,response,,,,1,F,,,,,,Space,keypress(Space),,,,lyrical,,,,--- ---- ------ --- ------- ---------- ------- ----------<br>--- --------- --- ----------- ------- ----- ------- ---<br>--------- ---- -- --- ---- -- --------- -- ---- -------<br>-- intensely ------ --- ----- ------ ---- --- --------- --<br>------ - ---- -- --- ----------- ------- ---- ----- -----<br>--- -------- - ------ ---- -- ----- ---- --- --- -----------<br>-- -------,303634,303633.2000000477,303191.927,303194.39999985695,303208.611,303641.527,,27,intensely
screen,html.Screen,2_3_1_0_1_28,2022-05-02T11:19:12.344Z,,,,,,,,,,,,,,,,,2,,,,,,,,,,,,,,488.47299999999814,,response,,,,1,F,,,,,,Space,keypress(Space),,,,lyrical,,,,--- ---- ------ --- ------- ---------- ------- ----------<br>--- --------- --- ----------- ------- ----- ------- ---<br>--------- ---- -- --- ---- -- --------- -- ---- -------<br>-- --------- bright --- ----- ------ ---- --- --------- --<br>------ - ---- -- --- ----------- ------- ---- ----- -----<br>--- -------- - ------ ---- -- ----- ---- --- --- -----------<br>-- -------,304130.7000000477,304130,303624.918,303634.09999990463,303641.527,304141.093,,28,bright
screen,html.Screen,2_3_1_0_1_29,2022-05-02T11:19:12.753Z,,,,,,,,,,,,,,,,,2,,,,,,,,,,,,,,397.9070000000065,,response,,,,1,F,,,,,,Space,keypress(Space),,,,lyrical,,,,--- ---- ------ --- ------- ---------- ------- ----------<br>--- --------- --- ----------- ------- ----- ------- ---<br>--------- ---- -- --- ---- -- --------- -- ---- -------<br>-- --------- ------ and ----- ------ ---- --- --------- --<br>------ - ---- -- --- ----------- ------- ---- ----- -----<br>--- -------- - ------ ---- -- ----- ---- --- --- -----------<br>-- -------,304539.7000000477,304539,304124.429,304130.7999999523,304141.093,304560.372,,29,and
screen,html.Screen,2_3_1_0_1_30,2022-05-02T11:19:13.243Z,,,,,,,,,,,,,,,,,2,,,,,,,,,,,,,,469.3280000477098,,response,,,,1,F,,,,,,Space,keypress(Space),,,,lyrical,,,,--- ---- ------ --- ------- ---------- ------- ----------<br>--- --------- --- ----------- ------- ----- ------- ---<br>--------- ---- -- --- ---- -- --------- -- ---- -------<br>-- --------- ------ --- white ------ ---- --- --------- --<br>------ - ---- -- --- ----------- ------- ---- ----- -----<br>--- -------- - ------ ---- -- ----- ---- --- --- -----------<br>-- -------,305030.2000000477,305029.7000000477,304524.091,304539.7999999523,304560.372,305040.367,,30,white
screen,html.Screen,2_3_1_0_1_31,2022-05-02T11:19:13.652Z,,,,,,,,,,,,,,,,,2,,,,,,,,,,,,,,397.33300004765624,,response,,,,1,F,,,,,,Space,keypress(Space),,,,lyrical,,,,"--- ---- ------ --- ------- ---------- ------- ----------<br>--- --------- --- ----------- ------- ----- ------- ---<br>--------- ---- -- --- ---- -- --------- -- ---- -------<br>-- --------- ------ --- ----- light"" ---- --- --------- --<br>------ - ---- -- --- ----------- ------- ---- ----- -----<br>--- -------- - ------ ---- -- ----- ---- --- --- -----------<br>-- -------",305438.5,305437.7000000477,305023.64,305030.2999999523,305040.367,305439.979,,31,"light"""
screen,html.Screen,2_3_1_0_1_32,2022-05-02T11:19:14.152Z,,,,,,,,,,,,,,,,,2,,,,,,,,,,,,,,498.3209999523242,,response,,,,1,F,,,,,,Space,keypress(Space),,,,lyrical,,,,--- ---- ------ --- ------- ---------- ------- ----------<br>--- --------- --- ----------- ------- ----- ------- ---<br>--------- ---- -- --- ---- -- --------- -- ---- -------<br>-- --------- ------ --- ----- ------ over --- --------- --<br>------ - ---- -- --- ----------- ------- ---- ----- -----<br>--- -------- - ------ ---- -- ----- ---- --- --- -----------<br>-- -------,305939,305938.2999999523,305423.566,305438.59999990463,305439.979,305972.9,,32,over
screen,html.Screen,2_3_1_0_1_33,2022-05-02T11:19:14.617Z,,,,,,,,,,,,,,,,,2,,,,,,,,,,,,,,430.49999985692557,,response,,,,1,F,,,,,,Space,keypress(Space),,,,lyrical,,,,--- ---- ------ --- ------- ---------- ------- ----------<br>--- --------- --- ----------- ------- ----- ------- ---<br>--------- ---- -- --- ---- -- --------- -- ---- -------<br>-- --------- ------ --- ----- ------ ---- the --------- --<br>------ - ---- -- --- ----------- ------- ---- ----- -----<br>--- -------- - ------ ---- -- ----- ---- --- --- -----------<br>-- -------,306403.89999985695,306403.39999985695,305956.2,305939.09999990463,305972.9,306406.037,,33,the
screen,html.Screen,2_3_1_0_1_34,2022-05-02T11:19:15.027Z,,,,,,,,,,,,,,,,,2,,,,,,,,,,,,,,406.9629999999888,,response,,,,1,F,,,,,,Space,keypress(Space),,,,lyrical,,,,--- ---- ------ --- ------- ---------- ------- ----------<br>--- --------- --- ----------- ------- ----- ------- ---<br>--------- ---- -- --- ---- -- --------- -- ---- -------<br>-- --------- ------ --- ----- ------ ---- --- sunspots. --<br>------ - ---- -- --- ----------- ------- ---- ----- -----<br>--- -------- - ------ ---- -- ----- ---- --- --- -----------<br>-- -------,306813.7000000477,306813,306389.155,306403.89999985695,306406.037,306822.055,,34,sunspots.
screen,html.Screen,2_3_1_0_1_35,2022-05-02T11:19:15.513Z,,,,,,,,,,,,,,,,,2,,,,,,,,,,,,,,477.34499985695584,,response,,,,1,F,,,,,,Space,keypress(Space),,,,lyrical,,,,--- ---- ------ --- ------- ---------- ------- ----------<br>--- --------- --- ----------- ------- ----- ------- ---<br>--------- ---- -- --- ---- -- --------- -- ---- -------<br>-- --------- ------ --- ----- ------ ---- --- --------- He<br>------ - ---- -- --- ----------- ------- ---- ----- -----<br>--- -------- - ------ ---- -- ----- ---- --- --- -----------<br>-- -------,307300,307299.39999985695,306805.411,306813.7999999523,306822.055,307305.042,,35,He
screen,html.Screen,2_3_1_0_1_36,2022-05-02T11:19:16.018Z,,,,,,,,,,,,,,,,,2,,,,,,,,,,,,,,499.05799990461674,,response,,,,1,F,,,,,,Space,keypress(Space),,,,lyrical,,,,--- ---- ------ --- ------- ---------- ------- ----------<br>--- --------- --- ----------- ------- ----- ------- ---<br>--------- ---- -- --- ---- -- --------- -- ---- -------<br>-- --------- ------ --- ----- ------ ---- --- --------- --<br>jotted - ---- -- --- ----------- ------- ---- ----- -----<br>--- -------- - ------ ---- -- ----- ---- --- --- -----------<br>-- -------,307805.09999990463,307804.09999990463,307288.361,307300.09999990463,307305.042,307821.216,,36,jotted
screen,html.Screen,2_3_1_0_1_37,2022-05-02T11:19:16.493Z,,,,,,,,,,,,,,,,,2,,,,,,,,,,,,,,457.9840000476688,,response,,,,1,F,,,,,,Space,keypress(Space),,,,lyrical,,,,--- ---- ------ --- ------- ---------- ------- ----------<br>--- --------- --- ----------- ------- ----- ------- ---<br>--------- ---- -- --- ---- -- --------- -- ---- -------<br>-- --------- ------ --- ----- ------ ---- --- --------- --<br>------ a ---- -- --- ----------- ------- ---- ----- -----<br>--- -------- - ------ ---- -- ----- ---- --- --- -----------<br>-- -------,308280,308279.2000000477,307804.537,307805.2999999523,307821.216,308287.454,,37,a
