sender,sender_type,sender_id,timestamp,meta,,Blues,Classical,Country,Dance,Electronic,Folk,Gospel,Hip-Hop,Jazz,Latin,Musical/Film,New-age,Pop,Prolific_id,Provo_ID,R&B,Rap,Reggae,Religious,Rock,Soul,Swing,Traditional,age,artist_name,correct,correctResponse,distraction,duration,education,ended_on,familiarity,gender,headphone_check_performance,item,list,music_frequency,offensiveness,pleasantness,position_correct,preference,response,response_action,snippet_file,song_name,song_rating,sound,stimulus_1,stimulus_2,stimulus_3,text,time_commit,time_end,time_render,time_run,time_show,time_switch,url,word,word_ID
Prolific ID,html.Form,0,2022-05-09T10:13:42.248Z,"{""labjs_version"":""20.2.2"",""labjs_build"":{""flavor"":""production"",""commit"":""a25486e0c714a0ae2ce03ff94b7bb6896854dcfa""},""location"":""https://run.pavlovia.org/mvasilev/prolific3_music_c/"",""userAgent"":""Mozilla/5.0 (Macintosh; Intel Mac OS X 10.15; rv:99.0) Gecko/20100101 Firefox/99.0"",""platform"":""MacIntel"",""language"":""en-US"",""locale"":""en-GB"",""timeZone"":""Europe/London"",""timezoneOffset"":-60,""screen_width"":1440,""screen_height"":900,""scroll_width"":1440,""scroll_height"":767,""window_innerWidth"":1440,""window_innerHeight"":815,""devicePixelRatio"":2}",,,,,,,,,,,,,,,607da171f464f9e638d62de2,,,,,,,,,,,,,,,3773.92,,form submission,,,,,,,,,,,,,,,,,,,,,14789,14788,10980.6,11005,11014.08,14793.22,{},,
Introduction,html.Screen,1_0,2022-05-09T10:13:46.619Z,,,,,,,,,,,,,,,,,,,,,,,,,,,,,,,4364.780000000001,,response,,,,,,,,,,,continue,click button,,,,,,,,,19160,19158,14785.7,14791,14793.22,19160.16,,,
Volume calibration,html.Screen,1_1,2022-05-09T10:14:04.346Z,,,,,,,,,,,,,,,,,,,,,,,,,,,,,,,17725.84,,response,,,,,,,,,,,continue,click button,,,,,,,,,36888,36886,19159.78,19161,19160.16,36888.16,,,
Task instructions,html.Screen,1_2,2022-05-09T10:14:17.558Z,,,,,,,,,,,,,,,,,,,,,,,,,,,,,,,13209.839999999997,,response,,,,,,,,,,,continue,click button,,,,,,,,,50100,50098,36887.74,36889,36888.16,50099.98,,,
Sounds,html.Screen,1_3_0_0,2022-05-09T10:14:21.795Z,,,,,,,,,,,,,,,,,,,,,,,,,,,,,,,4254.759999999995,,timeout,,,,,,,,,3,,,,,,,,I,O,S,,54338,54337.06,50099.54,50101,50099.98,54354.74,,,
Judgement,html.Screen,1_3_0_1,2022-05-09T10:14:23.219Z,,,,,,,,,,,,,,,,,,,,,,,,,,,,true,3,,1405.260000000002,,response,,,,,,,,,3,,3,click #choice-3,,,,,I,O,S,,55762,55760,54337.06,54338,54354.74,55762.1,,,
Trial,flow.Sequence,1_3_0,2022-05-09T10:14:23.221Z,,,,,,,,,,,,,,,,,,,,,,,,,,,,,,,5660.019999999997,,completion,,,,,,,,,3,,,,,,,,I,O,S,,55763,55760,50099.54,50101,50099.98,55762.1,,,
Sounds,html.Screen,1_3_1_0,2022-05-09T10:14:27.447Z,,,,,,,,,,,,,,,,,,,,,,,,,,,,,,,4244.18,,timeout,,,,,,,,,1,,,,,,,,S,I,O,,59990,59988.74,55761.62,55764,55762.1,60006.28,,,
Judgement,html.Screen,1_3_1_1,2022-05-09T10:14:27.903Z,,,,,,,,,,,,,,,,,,,,,,,,,,,,true,1,,437.72000000000116,,response,,,,,,,,,1,,1,click #choice-1,,,,,S,I,O,,60446,60444,59988.74,59990,60006.28,60445.88,,,
Trial,flow.Sequence,1_3_1,2022-05-09T10:14:27.903Z,,,,,,,,,,,,,,,,,,,,,,,,,,,,,,,4681.9000000000015,,completion,,,,,,,,,1,,,,,,,,S,I,O,,60447,60444,55761.62,55763,55762.1,60445.88,,,
Sounds,html.Screen,1_3_2_0,2022-05-09T10:14:32.129Z,,,,,,,,,,,,,,,,,,,,,,,,,,,,,,,4241.639999999999,,timeout,,,,,,,,,1,,,,,,,,S,O,I,,64673,64671.34,60445.48,60447,60445.88,64687.52,,,
Judgement,html.Screen,1_3_2_1,2022-05-09T10:14:35.164Z,,,,,,,,,,,,,,,,,,,,,,,,,,,,false,1,,3016.480000000003,,response,,,,,,,,,1,,3,click #choice-3,,,,,S,O,I,,67707,67704,64671.34,64673,64687.52,67713.92,,,
Trial,flow.Sequence,1_3_2,2022-05-09T10:14:35.164Z,,,,,,,,,,,,,,,,,,,,,,,,,,,,,,,7258.120000000003,,completion,,,,,,,,,1,,,,,,,,S,O,I,,67707,67704,60445.48,60447,60445.88,67713.92,,,
Sounds,html.Screen,1_3_3_0,2022-05-09T10:14:39.402Z,,,,,,,,,,,,,,,,,,,,,,,,,,,,,,,4246.919999999998,,timeout,,,,,,,,,2,,,,,,,,O,S,I,,71945,71944.16,67705.86,67707,67713.92,71960.84,,,
Judgement,html.Screen,1_3_3_1,2022-05-09T10:14:39.982Z,,,,,,,,,,,,,,,,,,,,,,,,,,,,true,2,,561.1600000000035,,response,,,,,,,,,2,,2,click #choice-2,,,,,O,S,I,,72525,72522,71944.16,71945,71960.84,72524.22,,,
Trial,flow.Sequence,1_3_3,2022-05-09T10:14:39.982Z,,,,,,,,,,,,,,,,,,,,,,,,,,,,,,,4808.080000000002,,completion,,,,,,,,,2,,,,,,,,O,S,I,,72525,72522,67705.86,67707,67713.92,72524.22,,,
Sounds,html.Screen,1_3_4_0,2022-05-09T10:14:44.218Z,,,,,,,,,,,,,,,,,,,,,,,,,,,,,,,4252.199999999997,,timeout,,,,,,,,,2,,,,,,,,I,S,O,,76761,76760.22,72523.78,72525,72524.22,76776.42,,,
Judgement,html.Screen,1_3_4_1,2022-05-09T10:14:44.752Z,,,,,,,,,,,,,,,,,,,,,,,,,,,,true,2,,515.5800000000017,,response,,,,,,,,,2,,2,click #choice-2,,,,,I,S,O,,77295,77292,76760.22,76763,76776.42,77294.2,,,
Trial,flow.Sequence,1_3_4,2022-05-09T10:14:44.752Z,,,,,,,,,,,,,,,,,,,,,,,,,,,,,,,4767.779999999999,,completion,,,,,,,,,2,,,,,,,,I,S,O,,77295,77292,72523.78,72525,72524.22,77294.2,,,
Sounds,html.Screen,1_3_5_0,2022-05-09T10:14:48.983Z,,,,,,,,,,,,,,,,,,,,,,,,,,,,,,,4248.260000000009,,timeout,,,,,,,,,3,,,,,,,,O,I,S,,81527,81526.12,77293.78,77296,77294.2,81542.46,,,
Judgement,html.Screen,1_3_5_1,2022-05-09T10:14:49.652Z,,,,,,,,,,,,,,,,,,,,,,,,,,,,true,3,,649.5399999999936,,response,,,,,,,,,3,,3,click #choice-3,,,,,O,I,S,,82195,82192,81526.12,81527,81542.46,82194.14,,,
Trial,flow.Sequence,1_3_5,2022-05-09T10:14:49.652Z,,,,,,,,,,,,,,,,,,,,,,,,,,,,,,,4897.800000000003,,completion,,,,,,,,,3,,,,,,,,O,I,S,,82195,82192,77293.78,77296,77294.2,82194.14,,,
Task,flow.Loop,1_3,2022-05-09T10:14:49.653Z,,,,,,,,,,,,,,,,,,,,,,,,,,,,,,,32092.019999999997,,completion,,,0.8333333333333334,,,,,,,,,,,,,,,,,,82196,82192,50099.54,50101,50099.98,82194.14,,,
Trap,html.Screen,1_4,2022-05-09T10:14:49.655Z,,,,,,,,,,,,,,,,,,,,,,,,,,,,,,,NaN,,skipped,,,,,,,,,,,,,,,,,,,,,82198,82192,,82198,,82194.14,,,
Thanks,html.Screen,1_5,2022-05-09T10:14:52.813Z,,,,,,,,,,,,,,,,,,,,,,,,,,,,,,,3159.8600000000006,,response,,,,,,,,,,,continue,click button,,,,,,,,,85356,85354,82193.72,82198,82194.14,87996.16,,,
Headphone screening,flow.Sequence,1,2022-05-09T10:14:52.814Z,,,,,,,,,,,,,,,,,,,,,,,,,,,,,,,70560.78,,completion,,,,,,,,,,,,,,,,,,,,,85357,85354,14785.7,14791,14793.22,87996.16,,,
Instructions,html.Page,2_0,2022-05-09T10:15:11.334Z,,,,,,,,,,,,,,,,,,,,,,,,,,,,,,,15881.839999999997,,form submission,,,,,,,,,,,,,,,,,,,,,103878,103878,87965.82,87968,87996.16,103875.92,,,
Holding screen,html.Screen,2_1_0_0,2022-05-09T10:15:21.320Z,,,,,,,,,,,,,,,,,,,,,,,,,,,,,,,10004.779999999999,,timeout,,,,,,,,,,,,,,,,,,,,,113865,113864,103875.54,103879,103875.92,113880.7,,,
screen,html.Screen,2_1_0_1_0,2022-05-09T10:15:22.145Z,,,,,,,,,,,,,,,,,53,,,,,,,,,,,,,,802.3000000000029,,response,,,,99,,,,,,,Space,keypress(Space),,,,,,,,When -- ----- -- ------ - ------- --- ----------<br>------------- ------ ------ ---- ---- ------- ----- -- ----<br>-------- ------- -- ---------- --- - --- ----- ----- ----<br>---- --- --- ----- --- ---- ---- ------- ----- ---- -------<br>--- --- -- ----- -- --- ---- -- --- ---- -- ------ ------<br>--- ----- -- ----,114689,114683,113864,113865,113880.7,114689.74,,0,When
screen,html.Screen,2_1_0_1_1,2022-05-09T10:15:22.655Z,,,,,,,,,,,,,,,,,53,,,,,,,,,,,,,,506.25999999999476,,response,,,,99,,,,,,,Space,keypress(Space),,,,,,,,---- it ----- -- ------ - ------- --- ----------<br>------------- ------ ------ ---- ---- ------- ----- -- ----<br>-------- ------- -- ---------- --- - --- ----- ----- ----<br>---- --- --- ----- --- ---- ---- ------- ----- ---- -------<br>--- --- -- ----- -- --- ---- -- --- ---- -- ------ ------<br>--- ----- -- ----,115198,115196,114689.16,114689,114689.74,115199.28,,1,it
screen,html.Screen,2_1_0_1_2,2022-05-09T10:15:22.969Z,,,,,,,,,,,,,,,,,53,,,,,,,,,,,,,,308.72000000000116,,response,,,,99,,,,,,,Space,keypress(Space),,,,,,,,---- -- comes -- ------ - ------- --- ----------<br>------------- ------ ------ ---- ---- ------- ----- -- ----<br>-------- ------- -- ---------- --- - --- ----- ----- ----<br>---- --- --- ----- --- ---- ---- ------- ----- ---- -------<br>--- --- -- ----- -- --- ---- -- --- ---- -- ------ ------<br>--- ----- -- ----,115513,115508,115198.7,115198,115199.28,115513.88,,2,comes
screen,html.Screen,2_1_0_1_3,2022-05-09T10:15:23.302Z,,,,,,,,,,,,,,,,,53,,,,,,,,,,,,,,330.11999999999534,,response,,,,99,,,,,,,Space,keypress(Space),,,,,,,,---- -- ----- to ------ - ------- --- ----------<br>------------- ------ ------ ---- ---- ------- ----- -- ----<br>-------- ------- -- ---------- --- - --- ----- ----- ----<br>---- --- --- ----- --- ---- ---- ------- ----- ---- -------<br>--- --- -- ----- -- --- ---- -- --- ---- -- ------ ------<br>--- ----- -- ----,115846,115844,115513.26,115514,115513.88,115846.96,,3,to
screen,html.Screen,2_1_0_1_4,2022-05-09T10:15:23.600Z,,,,,,,,,,,,,,,,,53,,,,,,,,,,,,,,293.0399999999936,,response,,,,99,,,,,,,Space,keypress(Space),,,,,,,,---- -- ----- -- having - ------- --- ----------<br>------------- ------ ------ ---- ---- ------- ----- -- ----<br>-------- ------- -- ---------- --- - --- ----- ----- ----<br>---- --- --- ----- --- ---- ---- ------- ----- ---- -------<br>--- --- -- ----- -- --- ---- -- --- ---- -- ------ ------<br>--- ----- -- ----,116144,116140,115846.32,115846,115846.96,116145.48,,4,having
screen,html.Screen,2_1_0_1_5,2022-05-09T10:15:23.975Z,,,,,,,,,,,,,,,,,53,,,,,,,,,,,,,,369.5200000000041,,response,,,,99,,,,,,,Space,keypress(Space),,,,,,,,---- -- ----- -- ------ a ------- --- ----------<br>------------- ------ ------ ---- ---- ------- ----- -- ----<br>-------- ------- -- ---------- --- - --- ----- ----- ----<br>---- --- --- ----- --- ---- ---- ------- ----- ---- -------<br>--- --- -- ----- -- --- ---- -- --- ---- -- ------ ------<br>--- ----- -- ----,116518,116515,116144.88,116145,116145.48,116539.44,,5,a
screen,html.Screen,2_1_0_1_6,2022-05-09T10:15:24.329Z,,,,,,,,,,,,,,,,,53,,,,,,,,,,,,,,327.5599999999977,,response,,,,99,,,,,,,Space,keypress(Space),,,,,,,,---- -- ----- -- ------ - lasting --- ----------<br>------------- ------ ------ ---- ---- ------- ----- -- ----<br>-------- ------- -- ---------- --- - --- ----- ----- ----<br>---- --- --- ----- --- ---- ---- ------- ----- ---- -------<br>--- --- -- ----- -- --- ---- -- --- ---- -- ------ ------<br>--- ----- -- ----,116873,116867,116496.7,116518,116539.44,116889.74,,6,lasting
screen,html.Screen,2_1_0_1_7,2022-05-09T10:15:24.734Z,,,,,,,,,,,,,,,,,53,,,,,,,,,,,,,,386.25999999999476,,response,,,,99,,,,,,,Space,keypress(Space),,,,,,,,---- -- ----- -- ------ - ------- and ----------<br>------------- ------ ------ ---- ---- ------- ----- -- ----<br>-------- ------- -- ---------- --- - --- ----- ----- ----<br>---- --- --- ----- --- ---- ---- ------- ----- ---- -------<br>--- --- -- ----- -- --- ---- -- --- ---- -- ------ ------<br>--- ----- -- ----,117278,117276,116873.92,116873,116889.74,117279.2,,7,and
screen,html.Screen,2_1_0_1_8,2022-05-09T10:15:25.121Z,,,,,,,,,,,,,,,,,53,,,,,,,,,,,,,,380.8000000000029,,response,,,,99,,,,,,,Space,keypress(Space),,,,,,,,---- -- ----- -- ------ - ------- --- fulfilling<br>------------- ------ ------ ---- ---- ------- ----- -- ----<br>-------- ------- -- ---------- --- - --- ----- ----- ----<br>---- --- --- ----- --- ---- ---- ------- ----- ---- -------<br>--- --- -- ----- -- --- ---- -- --- ---- -- ------ ------<br>--- ----- -- ----,117665,117660,117278.58,117278,117279.2,117665.12,,8,fulfilling
screen,html.Screen,2_1_0_1_9,2022-05-09T10:15:25.534Z,,,,,,,,,,,,,,,,,53,,,,,,,,,,,,,,410.88000000000466,,response,,,,99,,,,,,,Space,keypress(Space),,,,,,,,"---- -- ----- -- ------ - ------- --- ----------<br>relationship, ------ ------ ---- ---- ------- ----- -- ----<br>-------- ------- -- ---------- --- - --- ----- ----- ----<br>---- --- --- ----- --- ---- ---- ------- ----- ---- -------<br>--- --- -- ----- -- --- ---- -- --- ---- -- ------ ------<br>--- ----- -- ----",118079,118076,117664.52,117665,117665.12,118079.16,,9,"relationship,"
screen,html.Screen,2_1_0_1_10,2022-05-09T10:15:25.984Z,,,,,,,,,,,,,,,,,53,,,,,,,,,,,,,,444.8399999999965,,response,,,,99,,,,,,,Space,keypress(Space),,,,,,,,---- -- ----- -- ------ - ------- --- ----------<br>------------- common ------ ---- ---- ------- ----- -- ----<br>-------- ------- -- ---------- --- - --- ----- ----- ----<br>---- --- --- ----- --- ---- ---- ------- ----- ---- -------<br>--- --- -- ----- -- --- ---- -- --- ---- -- ------ ------<br>--- ----- -- ----,118529,118524,118078.5,118079,118079.16,118529.48,,10,common
screen,html.Screen,2_1_0_1_11,2022-05-09T10:15:26.390Z,,,,,,,,,,,,,,,,,53,,,,,,,,,,,,,,402.5200000000041,,response,,,,99,,,,,,,Space,keypress(Space),,,,,,,,---- -- ----- -- ------ - ------- --- ----------<br>------------- ------ wisdom ---- ---- ------- ----- -- ----<br>-------- ------- -- ---------- --- - --- ----- ----- ----<br>---- --- --- ----- --- ---- ---- ------- ----- ---- -------<br>--- --- -- ----- -- --- ---- -- --- ---- -- ------ ------<br>--- ----- -- ----,118934,118932,118528.9,118529,118529.48,118934.84,,11,wisdom
screen,html.Screen,2_1_0_1_12,2022-05-09T10:15:26.776Z,,,,,,,,,,,,,,,,,53,,,,,,,,,,,,,,381.1600000000035,,response,,,,99,,,,,,,Space,keypress(Space),,,,,,,,---- -- ----- -- ------ - ------- --- ----------<br>------------- ------ ------ says ---- ------- ----- -- ----<br>-------- ------- -- ---------- --- - --- ----- ----- ----<br>---- --- --- ----- --- ---- ---- ------- ----- ---- -------<br>--- --- -- ----- -- --- ---- -- --- ---- -- ------ ------<br>--- ----- -- ----,119320,119316,118934.12,118934,118934.84,119321.16,,12,says
screen,html.Screen,2_1_0_1_13,2022-05-09T10:15:27.207Z,,,,,,,,,,,,,,,,,53,,,,,,,,,,,,,,425.8399999999965,,response,,,,99,,,,,,,Space,keypress(Space),,,,,,,,---- -- ----- -- ------ - ------- --- ----------<br>------------- ------ ------ ---- that ------- ----- -- ----<br>-------- ------- -- ---------- --- - --- ----- ----- ----<br>---- --- --- ----- --- ---- ---- ------- ----- ---- -------<br>--- --- -- ----- -- --- ---- -- --- ---- -- ------ ------<br>--- ----- -- ----,119750,119747,119320.5,119321,119321.16,119751.42,,13,that
screen,html.Screen,2_1_0_1_14,2022-05-09T10:15:28.160Z,,,,,,,,,,,,,,,,,53,,,,,,,,,,,,,,948.5800000000017,,response,,,,99,,,,,,,Space,keypress(Space),,,,,,,,---- -- ----- -- ------ - ------- --- ----------<br>------------- ------ ------ ---- ---- feeling ----- -- ----<br>-------- ------- -- ---------- --- - --- ----- ----- ----<br>---- --- --- ----- --- ---- ---- ------- ----- ---- -------<br>--- --- -- ----- -- --- ---- -- --- ---- -- ------ ------<br>--- ----- -- ----,120704,120700,119750.8,119750,119751.42,120705.14,,14,feeling
screen,html.Screen,2_1_0_1_15,2022-05-09T10:15:28.494Z,,,,,,,,,,,,,,,,,53,,,,,,,,,,,,,,330.8600000000006,,response,,,,99,,,,,,,Space,keypress(Space),,,,,,,,---- -- ----- -- ------ - ------- --- ----------<br>------------- ------ ------ ---- ---- ------- close -- ----<br>-------- ------- -- ---------- --- - --- ----- ----- ----<br>---- --- --- ----- --- ---- ---- ------- ----- ---- -------<br>--- --- -- ----- -- --- ---- -- --- ---- -- ------ ------<br>--- ----- -- ----,121039,121036,120704.52,120704,120705.14,121039.14,,15,close
screen,html.Screen,2_1_0_1_16,2022-05-09T10:15:28.824Z,,,,,,,,,,,,,,,,,53,,,,,,,,,,,,,,324.8600000000006,,response,,,,99,,,,,,,Space,keypress(Space),,,,,,,,---- -- ----- -- ------ - ------- --- ----------<br>------------- ------ ------ ---- ---- ------- ----- to ----<br>-------- ------- -- ---------- --- - --- ----- ----- ----<br>---- --- --- ----- --- ---- ---- ------- ----- ---- -------<br>--- --- -- ----- -- --- ---- -- --- ---- -- ------ ------<br>--- ----- -- ----,121369,121364,121038.5,121039,121039.14,121369.26,,16,to
screen,html.Screen,2_1_0_1_17,2022-05-09T10:15:29.182Z,,,,,,,,,,,,,,,,,53,,,,,,,,,,,,,,354.74000000000524,,response,,,,99,,,,,,,Space,keypress(Space),,,,,,,,---- -- ----- -- ------ - ------- --- ----------<br>------------- ------ ------ ---- ---- ------- ----- -- your<br>-------- ------- -- ---------- --- - --- ----- ----- ----<br>---- --- --- ----- --- ---- ---- ------- ----- ---- -------<br>--- --- -- ----- -- --- ---- -- --- ---- -- ------ ------<br>--- ----- -- ----,121726,121724,121368.64,121369,121369.26,121726.82,,17,your
screen,html.Screen,2_1_0_1_18,2022-05-09T10:15:29.488Z,,,,,,,,,,,,,,,,,53,,,,,,,,,,,,,,300.179999999993,,response,,,,99,,,,,,,Space,keypress(Space),,,,,,,,---- -- ----- -- ------ - ------- --- ----------<br>------------- ------ ------ ---- ---- ------- ----- -- ----<br>romantic ------- -- ---------- --- - --- ----- ----- ----<br>---- --- --- ----- --- ---- ---- ------- ----- ---- -------<br>--- --- -- ----- -- --- ---- -- --- ---- -- ------ ------<br>--- ----- -- ----,122033,122027,121726.2,121726,121726.82,122033.36,,18,romantic
screen,html.Screen,2_1_0_1_19,2022-05-09T10:15:30.014Z,,,,,,,,,,,,,,,,,53,,,,,,,,,,,,,,522.6399999999994,,response,,,,99,,,,,,,Space,keypress(Space),,,,,,,,---- -- ----- -- ------ - ------- --- ----------<br>------------- ------ ------ ---- ---- ------- ----- -- ----<br>-------- partner -- ---------- --- - --- ----- ----- ----<br>---- --- --- ----- --- ---- ---- ------- ----- ---- -------<br>--- --- -- ----- -- --- ---- -- --- ---- -- ------ ------<br>--- ----- -- ----,122558,122556,122032.74,122033,122033.36,122558.84,,19,partner
screen,html.Screen,2_1_0_1_20,2022-05-09T10:15:30.289Z,,,,,,,,,,,,,,,,,53,,,,,,,,,,,,,,268.1600000000035,,response,,,,99,,,,,,,Space,keypress(Space),,,,,,,,---- -- ----- -- ------ - ------- --- ----------<br>------------- ------ ------ ---- ---- ------- ----- -- ----<br>-------- ------- is ---------- --- - --- ----- ----- ----<br>---- --- --- ----- --- ---- ---- ------- ----- ---- -------<br>--- --- -- ----- -- --- ---- -- --- ---- -- ------ ------<br>--- ----- -- ----,122833,122827,122558.22,122558,122558.84,122833.18,,20,is
screen,html.Screen,2_1_0_1_21,2022-05-09T10:15:30.534Z,,,,,,,,,,,,,,,,,53,,,,,,,,,,,,,,241.82000000000698,,response,,,,99,,,,,,,Space,keypress(Space),,,,,,,,---- -- ----- -- ------ - ------- --- ----------<br>------------- ------ ------ ---- ---- ------- ----- -- ----<br>-------- ------- -- paramount. --- - --- ----- ----- ----<br>---- --- --- ----- --- ---- ---- ------- ----- ---- -------<br>--- --- -- ----- -- --- ---- -- --- ---- -- ------ ------<br>--- ----- -- ----,123078,123075,122832.54,122833,122833.18,123079.02,,21,paramount.
screen,html.Screen,2_1_0_1_22,2022-05-09T10:15:30.881Z,,,,,,,,,,,,,,,,,53,,,,,,,,,,,,,,340.9799999999959,,response,,,,99,,,,,,,Space,keypress(Space),,,,,,,,---- -- ----- -- ------ - ------- --- ----------<br>------------- ------ ------ ---- ---- ------- ----- -- ----<br>-------- ------- -- ---------- But - --- ----- ----- ----<br>---- --- --- ----- --- ---- ---- ------- ----- ---- -------<br>--- --- -- ----- -- --- ---- -- --- ---- -- ------ ------<br>--- ----- -- ----,123424,123420,123078.36,123079,123079.02,123425.4,,22,But
screen,html.Screen,2_1_0_1_23,2022-05-09T10:15:31.286Z,,,,,,,,,,,,,,,,,53,,,,,,,,,,,,,,401.6000000000058,,response,,,,99,,,,,,,Space,keypress(Space),,,,,,,,---- -- ----- -- ------ - ------- --- ----------<br>------------- ------ ------ ---- ---- ------- ----- -- ----<br>-------- ------- -- ---------- --- a --- ----- ----- ----<br>---- --- --- ----- --- ---- ---- ------- ----- ---- -------<br>--- --- -- ----- -- --- ---- -- --- ---- -- ------ ------<br>--- ----- -- ----,123829,123827,123424.78,123424,123425.4,123845.78,,23,a
screen,html.Screen,2_1_0_1_24,2022-05-09T10:15:31.696Z,,,,,,,,,,,,,,,,,53,,,,,,,,,,,,,,389.22000000000116,,response,,,,99,,,,,,,Space,keypress(Space),,,,,,,,---- -- ----- -- ------ - ------- --- ----------<br>------------- ------ ------ ---- ---- ------- ----- -- ----<br>-------- ------- -- ---------- --- - new ----- ----- ----<br>---- --- --- ----- --- ---- ---- ------- ----- ---- -------<br>--- --- -- ----- -- --- ---- -- --- ---- -- ------ ------<br>--- ----- -- ----,124241,124235,123829.44,123829,123845.78,124247,,24,new
screen,html.Screen,2_1_0_1_25,2022-05-09T10:15:32.135Z,,,,,,,,,,,,,,,,,53,,,,,,,,,,,,,,429,,response,,,,99,,,,,,,Space,keypress(Space),,,,,,,,---- -- ----- -- ------ - ------- --- ----------<br>------------- ------ ------ ---- ---- ------- ----- -- ----<br>-------- ------- -- ---------- --- - --- study ----- ----<br>---- --- --- ----- --- ---- ---- ------- ----- ---- -------<br>--- --- -- ----- -- --- ---- -- --- ---- -- ------ ------<br>--- ----- -- ----,124679,124676,124231,124241,124247,124698.24,,25,study
screen,html.Screen,2_1_0_1_26,2022-05-09T10:15:32.521Z,,,,,,,,,,,,,,,,,53,,,,,,,,,,,,,,360.75999999999476,,response,,,,99,,,,,,,Space,keypress(Space),,,,,,,,---- -- ----- -- ------ - ------- --- ----------<br>------------- ------ ------ ---- ---- ------- ----- -- ----<br>-------- ------- -- ---------- --- - --- ----- finds ----<br>---- --- --- ----- --- ---- ---- ------- ----- ---- -------<br>--- --- -- ----- -- --- ---- -- --- ---- -- ------ ------<br>--- ----- -- ----,125065,125059,124662.66,124679,124698.24,125065.36,,26,finds
screen,html.Screen,2_1_0_1_27,2022-05-09T10:15:32.934Z,,,,,,,,,,,,,,,,,53,,,,,,,,,,,,,,410.6399999999994,,response,,,,99,,,,,,,Space,keypress(Space),,,,,,,,---- -- ----- -- ------ - ------- --- ----------<br>------------- ------ ------ ---- ---- ------- ----- -- ----<br>-------- ------- -- ---------- --- - --- ----- ----- that<br>---- --- --- ----- --- ---- ---- ------- ----- ---- -------<br>--- --- -- ----- -- --- ---- -- --- ---- -- ------ ------<br>--- ----- -- ----,125478,125476,125064.7,125065,125065.36,125479.24,,27,that
screen,html.Screen,2_1_0_1_28,2022-05-09T10:15:33.328Z,,,,,,,,,,,,,,,,,53,,,,,,,,,,,,,,388.75999999999476,,response,,,,99,,,,,,,Space,keypress(Space),,,,,,,,---- -- ----- -- ------ - ------- --- ----------<br>------------- ------ ------ ---- ---- ------- ----- -- ----<br>-------- ------- -- ---------- --- - --- ----- ----- ----<br>it's --- --- ----- --- ---- ---- ------- ----- ---- -------<br>--- --- -- ----- -- --- ---- -- --- ---- -- ------ ------<br>--- ----- -- ----,125872,125868,125478.46,125478,125479.24,125872.8,,28,it's
screen,html.Screen,2_1_0_1_29,2022-05-09T10:15:33.670Z,,,,,,,,,,,,,,,,,53,,,,,,,,,,,,,,338.1999999999971,,response,,,,99,,,,,,,Space,keypress(Space),,,,,,,,---- -- ----- -- ------ - ------- --- ----------<br>------------- ------ ------ ---- ---- ------- ----- -- ----<br>-------- ------- -- ---------- --- - --- ----- ----- ----<br>---- not --- ----- --- ---- ---- ------- ----- ---- -------<br>--- --- -- ----- -- --- ---- -- --- ---- -- ------ ------<br>--- ----- -- ----,126214,126211,125872.24,125872,125872.8,126215.38,,29,not
screen,html.Screen,2_1_0_1_30,2022-05-09T10:15:34.041Z,,,,,,,,,,,,,,,,,53,,,,,,,,,,,,,,364.61999999999534,,response,,,,99,,,,,,,Space,keypress(Space),,,,,,,,---- -- ----- -- ------ - ------- --- ----------<br>------------- ------ ------ ---- ---- ------- ----- -- ----<br>-------- ------- -- ---------- --- - --- ----- ----- ----<br>---- --- how ----- --- ---- ---- ------- ----- ---- -------<br>--- --- -- ----- -- --- ---- -- --- ---- -- ------ ------<br>--- ----- -- ----,126584,126580,126214.74,126214,126215.38,126585.56,,30,how
screen,html.Screen,2_1_0_1_31,2022-05-09T10:15:34.374Z,,,,,,,,,,,,,,,,,53,,,,,,,,,,,,,,330.4400000000023,,response,,,,99,,,,,,,Space,keypress(Space),,,,,,,,---- -- ----- -- ------ - ------- --- ----------<br>------------- ------ ------ ---- ---- ------- ----- -- ----<br>-------- ------- -- ---------- --- - --- ----- ----- ----<br>---- --- --- close --- ---- ---- ------- ----- ---- -------<br>--- --- -- ----- -- --- ---- -- --- ---- -- ------ ------<br>--- ----- -- ----,126919,126916,126584.96,126584,126585.56,126919.6,,31,close
screen,html.Screen,2_1_0_1_32,2022-05-09T10:15:34.680Z,,,,,,,,,,,,,,,,,53,,,,,,,,,,,,,,300.3999999999942,,response,,,,99,,,,,,,Space,keypress(Space),,,,,,,,---- -- ----- -- ------ - ------- --- ----------<br>------------- ------ ------ ---- ---- ------- ----- -- ----<br>-------- ------- -- ---------- --- - --- ----- ----- ----<br>---- --- --- ----- you ---- ---- ------- ----- ---- -------<br>--- --- -- ----- -- --- ---- -- --- ---- -- ------ ------<br>--- ----- -- ----,127225,127220,126918.94,126919,126919.6,127225.44,,32,you
screen,html.Screen,2_1_0_1_33,2022-05-09T10:15:35.022Z,,,,,,,,,,,,,,,,,53,,,,,,,,,,,,,,337.5599999999977,,response,,,,99,,,,,,,Space,keypress(Space),,,,,,,,---- -- ----- -- ------ - ------- --- ----------<br>------------- ------ ------ ---- ---- ------- ----- -- ----<br>-------- ------- -- ---------- --- - --- ----- ----- ----<br>---- --- --- ----- --- feel ---- ------- ----- ---- -------<br>--- --- -- ----- -- --- ---- -- --- ---- -- ------ ------<br>--- ----- -- ----,127567,127563,127224.7,127225,127225.44,127566.94,,33,feel
screen,html.Screen,2_1_0_1_34,2022-05-09T10:15:35.376Z,,,,,,,,,,,,,,,,,53,,,,,,,,,,,,,,349.0599999999977,,response,,,,99,,,,,,,Space,keypress(Space),,,,,,,,---- -- ----- -- ------ - ------- --- ----------<br>------------- ------ ------ ---- ---- ------- ----- -- ----<br>-------- ------- -- ---------- --- - --- ----- ----- ----<br>---- --- --- ----- --- ---- that ------- ----- ---- -------<br>--- --- -- ----- -- --- ---- -- --- ---- -- ------ ------<br>--- ----- -- ----,127920,127916,127566.26,127567,127566.94,127921.78,,34,that
screen,html.Screen,2_1_0_1_35,2022-05-09T10:15:35.702Z,,,,,,,,,,,,,,,,,53,,,,,,,,,,,,,,322.22000000000116,,response,,,,99,,,,,,,Space,keypress(Space),,,,,,,,---- -- ----- -- ------ - ------- --- ----------<br>------------- ------ ------ ---- ---- ------- ----- -- ----<br>-------- ------- -- ---------- --- - --- ----- ----- ----<br>---- --- --- ----- --- ---- ---- matters ----- ---- -------<br>--- --- -- ----- -- --- ---- -- --- ---- -- ------ ------<br>--- ----- -- ----,128246,128244,127921.18,127921,127921.78,128246.8,,35,matters
screen,html.Screen,2_1_0_1_36,2022-05-09T10:15:36.096Z,,,,,,,,,,,,,,,,,53,,,,,,,,,,,,,,388.1999999999971,,response,,,,99,,,,,,,Space,keypress(Space),,,,,,,,"---- -- ----- -- ------ - ------- --- ----------<br>------------- ------ ------ ---- ---- ------- ----- -- ----<br>-------- ------- -- ---------- --- - --- ----- ----- ----<br>---- --- --- ----- --- ---- ---- ------- most, ---- -------<br>--- --- -- ----- -- --- ---- -- --- ---- -- ------ ------<br>--- ----- -- ----",128641,128635,128246.18,128246,128246.8,128641.42,,36,"most,"
screen,html.Screen,2_1_0_1_37,2022-05-09T10:15:36.574Z,,,,,,,,,,,,,,,,,53,,,,,,,,,,,,,,474.58000000000175,,response,,,,99,,,,,,,Space,keypress(Space),,,,,,,,---- -- ----- -- ------ - ------- --- ----------<br>------------- ------ ------ ---- ---- ------- ----- -- ----<br>-------- ------- -- ---------- --- - --- ----- ----- ----<br>---- --- --- ----- --- ---- ---- ------- ----- it's -------<br>--- --- -- ----- -- --- ---- -- --- ---- -- ------ ------<br>--- ----- -- ----,129118,129116,128640.74,128641,128641.42,129118.92,,37,it's
screen,html.Screen,2_1_0_1_38,2022-05-09T10:15:36.936Z,,,,,,,,,,,,,,,,,53,,,,,,,,,,,,,,357.08000000000175,,response,,,,99,,,,,,,Space,keypress(Space),,,,,,,,---- -- ----- -- ------ - ------- --- ----------<br>------------- ------ ------ ---- ---- ------- ----- -- ----<br>-------- ------- -- ---------- --- - --- ----- ----- ----<br>---- --- --- ----- --- ---- ---- ------- ----- ---- whether<br>--- --- -- ----- -- --- ---- -- --- ---- -- ------ ------<br>--- ----- -- ----,129481,129476,129118.26,129118,129118.92,129481.18,,38,whether
screen,html.Screen,2_1_0_1_39,2022-05-09T10:15:37.302Z,,,,,,,,,,,,,,,,,53,,,,,,,,,,,,,,361.820000000007,,response,,,,99,,,,,,,Space,keypress(Space),,,,,,,,---- -- ----- -- ------ - ------- --- ----------<br>------------- ------ ------ ---- ---- ------- ----- -- ----<br>-------- ------- -- ---------- --- - --- ----- ----- ----<br>---- --- --- ----- --- ---- ---- ------- ----- ---- -------<br>you --- -- ----- -- --- ---- -- --- ---- -- ------ ------<br>--- ----- -- ----,129846,129843,129480.56,129481,129481.18,129847.22,,39,you
screen,html.Screen,2_1_0_1_40,2022-05-09T10:15:37.664Z,,,,,,,,,,,,,,,,,53,,,,,,,,,,,,,,356.77999999999884,,response,,,,99,,,,,,,Space,keypress(Space),,,,,,,,---- -- ----- -- ------ - ------- --- ----------<br>------------- ------ ------ ---- ---- ------- ----- -- ----<br>-------- ------- -- ---------- --- - --- ----- ----- ----<br>---- --- --- ----- --- ---- ---- ------- ----- ---- -------<br>--- are -- ----- -- --- ---- -- --- ---- -- ------ ------<br>--- ----- -- ----,130209,130204,129846.5,129846,129847.22,130209.48,,40,are
screen,html.Screen,2_1_0_1_41,2022-05-09T10:15:37.919Z,,,,,,,,,,,,,,,,,53,,,,,,,,,,,,,,250.52000000000407,,response,,,,99,,,,,,,Space,keypress(Space),,,,,,,,---- -- ----- -- ------ - ------- --- ----------<br>------------- ------ ------ ---- ---- ------- ----- -- ----<br>-------- ------- -- ---------- --- - --- ----- ----- ----<br>---- --- --- ----- --- ---- ---- ------- ----- ---- -------<br>--- --- as ----- -- --- ---- -- --- ---- -- ------ ------<br>--- ----- -- ----,130463,130460,130208.66,130209,130209.48,130463.24,,41,as
screen,html.Screen,2_1_0_1_42,2022-05-09T10:15:38.208Z,,,,,,,,,,,,,,,,,53,,,,,,,,,,,,,,284.75999999999476,,response,,,,99,,,,,,,Space,keypress(Space),,,,,,,,---- -- ----- -- ------ - ------- --- ----------<br>------------- ------ ------ ---- ---- ------- ----- -- ----<br>-------- ------- -- ---------- --- - --- ----- ----- ----<br>---- --- --- ----- --- ---- ---- ------- ----- ---- -------<br>--- --- -- close -- --- ---- -- --- ---- -- ------ ------<br>--- ----- -- ----,130753,130748,130462.6,130463,130463.24,130753.46,,42,close
screen,html.Screen,2_1_0_1_43,2022-05-09T10:15:38.566Z,,,,,,,,,,,,,,,,,53,,,,,,,,,,,,,,353.5399999999936,,response,,,,99,,,,,,,Space,keypress(Space),,,,,,,,---- -- ----- -- ------ - ------- --- ----------<br>------------- ------ ------ ---- ---- ------- ----- -- ----<br>-------- ------- -- ---------- --- - --- ----- ----- ----<br>---- --- --- ----- --- ---- ---- ------- ----- ---- -------<br>--- --- -- ----- as --- ---- -- --- ---- -- ------ ------<br>--- ----- -- ----,131110,131107,130752.74,130753,130753.46,131110.78,,43,as
screen,html.Screen,2_1_0_1_44,2022-05-09T10:15:38.880Z,,,,,,,,,,,,,,,,,53,,,,,,,,,,,,,,308.22000000000116,,response,,,,99,,,,,,,Space,keypress(Space),,,,,,,,---- -- ----- -- ------ - ------- --- ----------<br>------------- ------ ------ ---- ---- ------- ----- -- ----<br>-------- ------- -- ---------- --- - --- ----- ----- ----<br>---- --- --- ----- --- ---- ---- ------- ----- ---- -------<br>--- --- -- ----- -- you ---- -- --- ---- -- ------ ------<br>--- ----- -- ----,131424,131419,131110.08,131110,131110.78,131425.24,,44,you
screen,html.Screen,2_1_0_1_45,2022-05-09T10:15:39.222Z,,,,,,,,,,,,,,,,,53,,,,,,,,,,,,,,338.7600000000093,,response,,,,99,,,,,,,Space,keypress(Space),,,,,,,,---- -- ----- -- ------ - ------- --- ----------<br>------------- ------ ------ ---- ---- ------- ----- -- ----<br>-------- ------- -- ---------- --- - --- ----- ----- ----<br>---- --- --- ----- --- ---- ---- ------- ----- ---- -------<br>--- --- -- ----- -- --- want -- --- ---- -- ------ ------<br>--- ----- -- ----,131767,131764,131424.48,131424,131425.24,131766.9,,45,want
screen,html.Screen,2_1_0_1_46,2022-05-09T10:15:39.561Z,,,,,,,,,,,,,,,,,53,,,,,,,,,,,,,,332.1000000000058,,response,,,,99,,,,,,,Space,keypress(Space),,,,,,,,---- -- ----- -- ------ - ------- --- ----------<br>------------- ------ ------ ---- ---- ------- ----- -- ----<br>-------- ------- -- ---------- --- - --- ----- ----- ----<br>---- --- --- ----- --- ---- ---- ------- ----- ---- -------<br>--- --- -- ----- -- --- ---- to --- ---- -- ------ ------<br>--- ----- -- ----,132104,132099,131766.26,131767,131766.9,132105.32,,46,to
screen,html.Screen,2_1_0_1_47,2022-05-09T10:15:39.838Z,,,,,,,,,,,,,,,,,53,,,,,,,,,,,,,,274.679999999993,,response,,,,99,,,,,,,Space,keypress(Space),,,,,,,,"---- -- ----- -- ------ - ------- --- ----------<br>------------- ------ ------ ---- ---- ------- ----- -- ----<br>-------- ------- -- ---------- --- - --- ----- ----- ----<br>---- --- --- ----- --- ---- ---- ------- ----- ---- -------<br>--- --- -- ----- -- --- ---- -- be, ---- -- ------ ------<br>--- ----- -- ----",132382,132380,132104.66,132104,132105.32,132382.72,,47,"be,"
screen,html.Screen,2_1_0_1_48,2022-05-09T10:15:40.344Z,,,,,,,,,,,,,,,,,53,,,,,,,,,,,,,,501.27999999999884,,response,,,,99,,,,,,,Space,keypress(Space),,,,,,,,---- -- ----- -- ------ - ------- --- ----------<br>------------- ------ ------ ---- ---- ------- ----- -- ----<br>-------- ------- -- ---------- --- - --- ----- ----- ----<br>---- --- --- ----- --- ---- ---- ------- ----- ---- -------<br>--- --- -- ----- -- --- ---- -- --- even -- ------ ------<br>--- ----- -- ----,132888,132884,132382.06,132382,132382.72,132889.22,,48,even
screen,html.Screen,2_1_0_1_49,2022-05-09T10:15:40.726Z,,,,,,,,,,,,,,,,,53,,,,,,,,,,,,,,378.77999999999884,,response,,,,99,,,,,,,Space,keypress(Space),,,,,,,,---- -- ----- -- ------ - ------- --- ----------<br>------------- ------ ------ ---- ---- ------- ----- -- ----<br>-------- ------- -- ---------- --- - --- ----- ----- ----<br>---- --- --- ----- --- ---- ---- ------- ----- ---- -------<br>--- --- -- ----- -- --- ---- -- --- ---- if ------ ------<br>--- ----- -- ----,133270,133268,132888.44,132888,132889.22,133271.12,,49,if
screen,html.Screen,2_1_0_1_50,2022-05-09T10:15:41.016Z,,,,,,,,,,,,,,,,,53,,,,,,,,,,,,,,284.88000000000466,,response,,,,99,,,,,,,Space,keypress(Space),,,,,,,,---- -- ----- -- ------ - ------- --- ----------<br>------------- ------ ------ ---- ---- ------- ----- -- ----<br>-------- ------- -- ---------- --- - --- ----- ----- ----<br>---- --- --- ----- --- ---- ---- ------- ----- ---- -------<br>--- --- -- ----- -- --- ---- -- --- ---- -- that's ------<br>--- ----- -- ----,133560,133556,133270.5,133270,133271.12,133561,,50,that's
screen,html.Screen,2_1_0_1_51,2022-05-09T10:15:41.310Z,,,,,,,,,,,,,,,,,53,,,,,,,,,,,,,,290,,response,,,,99,,,,,,,Space,keypress(Space),,,,,,,,---- -- ----- -- ------ - ------- --- ----------<br>------------- ------ ------ ---- ---- ------- ----- -- ----<br>-------- ------- -- ---------- --- - --- ----- ----- ----<br>---- --- --- ----- --- ---- ---- ------- ----- ---- -------<br>--- --- -- ----- -- --- ---- -- --- ---- -- ------ really<br>--- ----- -- ----,133854,133851,133560.36,133560,133561,133854.98,,51,really
screen,html.Screen,2_1_0_1_52,2022-05-09T10:15:41.609Z,,,,,,,,,,,,,,,,,53,,,,,,,,,,,,,,293.0199999999895,,response,,,,99,,,,,,,Space,keypress(Space),,,,,,,,---- -- ----- -- ------ - ------- --- ----------<br>------------- ------ ------ ---- ---- ------- ----- -- ----<br>-------- ------- -- ---------- --- - --- ----- ----- ----<br>---- --- --- ----- --- ---- ---- ------- ----- ---- -------<br>--- --- -- ----- -- --- ---- -- --- ---- -- ------ ------<br>not ----- -- ----,134152,134148,133854.28,133854,133854.98,134153.46,,52,not
screen,html.Screen,2_1_0_1_53,2022-05-09T10:15:41.918Z,,,,,,,,,,,,,,,,,53,,,,,,,,,,,,,,306.54000000000815,,response,,,,99,,,,,,,Space,keypress(Space),,,,,,,,---- -- ----- -- ------ - ------- --- ----------<br>------------- ------ ------ ---- ---- ------- ----- -- ----<br>-------- ------- -- ---------- --- - --- ----- ----- ----<br>---- --- --- ----- --- ---- ---- ------- ----- ---- -------<br>--- --- -- ----- -- --- ---- -- --- ---- -- ------ ------<br>--- close -- ----,134463,134460,134152.78,134153,134153.46,134463.24,,53,close
screen,html.Screen,2_1_0_1_54,2022-05-09T10:15:42.184Z,,,,,,,,,,,,,,,,,53,,,,,,,,,,,,,,260.7600000000093,,response,,,,99,,,,,,,Space,keypress(Space),,,,,,,,---- -- ----- -- ------ - ------- --- ----------<br>------------- ------ ------ ---- ---- ------- ----- -- ----<br>-------- ------- -- ---------- --- - --- ----- ----- ----<br>---- --- --- ----- --- ---- ---- ------- ----- ---- -------<br>--- --- -- ----- -- --- ---- -- --- ---- -- ------ ------<br>--- ----- at ----,134728,134724,134462.56,134463,134463.24,134729.2,,54,at
screen,html.Screen,2_1_0_1_55,2022-05-09T10:15:42.525Z,,,,,,,,,,,,,,,,,53,,,,,,,,,,,,,,337.79999999998836,,response,,,,99,,,,,,,Space,keypress(Space),,,,,,,,---- -- ----- -- ------ - ------- --- ----------<br>------------- ------ ------ ---- ---- ------- ----- -- ----<br>-------- ------- -- ---------- --- - --- ----- ----- ----<br>---- --- --- ----- --- ---- ---- ------- ----- ---- -------<br>--- --- -- ----- -- --- ---- -- --- ---- -- ------ ------<br>--- ----- -- all.,135070,135067,134728.56,134728,134729.2,135071.28,,55,all.
Item 99,flow.Loop,2_1_0_1,2022-05-09T10:15:42.526Z,,,,,,,,,,,,,,,,,,,,,,,,,,,,,,,21186.300000000003,,completion,,,,,C,,,,,,,,,,,silence,,,,,135071,135067,113864,113865,113880.7,135071.28,,,
Question 1,html.Screen,2_1_0_2,2022-05-09T10:15:45.968Z,,,,,,,,,,,,,,,,,,,,,,,,,,,,true,FALSE,,3438.720000000001,,response,,,,99,C,,,,,,FALSE,click #choice-2,,,,silence,,,,,138512,138510,135070.66,135071,135071.28,138512.04,,,
Question 2,html.Screen,2_1_0_3,2022-05-09T10:15:52.788Z,,,,,,,,,,,,,,,,,,,,,,,,,,,,true,TRUE,,6817.959999999992,,response,,,,99,C,,,,,,TRUE,click #choice-1,,,,silence,,,,,145332,145330,138511.68,138512,138512.04,145331.92,,,
Item 99,flow.Sequence,2_1_0,2022-05-09T10:15:52.788Z,,,,,,,,,,,,,,,,,,,,,,,,,,,,,,,41454.08,,completion,,,,,,,,,,,,,,,,,,,,,145332,145330,103875.54,103879,103875.92,145331.92,,,
Holding screen,html.Screen,2_1_1_0,2022-05-09T10:16:02.771Z,,,,,,,,,,,,,,,,,,,,,,,,,,,,,,,9999.73999999999,,timeout,,,,,,,,,,,,,,,,,,,,,155315,155314.64,145331.52,145332,145331.92,155331.66,,,
screen,html.Screen,2_1_1_1_0,2022-05-09T10:16:03.590Z,,,,,,,,,,,,,,,,,54,,,,,,,,,,,,,,797.3399999999965,,response,,,,100,,,,,,,Space,keypress(Space),,,,,,,,At --- ---- --- ------ ----- ------- ---- -- --- ------- --<br>------- ---------- ------ -- ----- -- ----- -- ---- ------<br>--- ----- --- --- ------ -------- ----- --- ------ ----- --<br>----- ----- ---------- --- --- ------ ------ ---- -- ------<br>------- --- ------ ----- --- ---- ------- -- ---- --- --<br>------- ------,156135,156129,155314.64,155315,155331.66,156136.24,,0,At
screen,html.Screen,2_1_1_1_1,2022-05-09T10:16:03.900Z,,,,,,,,,,,,,,,,,54,,,,,,,,,,,,,,305.7600000000093,,response,,,,100,,,,,,,Space,keypress(Space),,,,,,,,-- the ---- --- ------ ----- ------- ---- -- --- ------- --<br>------- ---------- ------ -- ----- -- ----- -- ---- ------<br>--- ----- --- --- ------ -------- ----- --- ------ ----- --<br>----- ----- ---------- --- --- ------ ------ ---- -- ------<br>------- --- ------ ----- --- ---- ------- -- ---- --- --<br>------- ------,156444,156442,156135.48,156135,156136.24,156445.14,,1,the
screen,html.Screen,2_1_1_1_2,2022-05-09T10:16:04.221Z,,,,,,,,,,,,,,,,,54,,,,,,,,,,,,,,316.85999999998603,,response,,,,100,,,,,,,Space,keypress(Space),,,,,,,,-- --- time --- ------ ----- ------- ---- -- --- ------- --<br>------- ---------- ------ -- ----- -- ----- -- ---- ------<br>--- ----- --- --- ------ -------- ----- --- ------ ----- --<br>----- ----- ---------- --- --- ------ ------ ---- -- ------<br>------- --- ------ ----- --- ---- ------- -- ---- --- --<br>------- ------,156766,156762,156444.42,156444,156445.14,156767.36,,2,time
screen,html.Screen,2_1_1_1_3,2022-05-09T10:16:04.539Z,,,,,,,,,,,,,,,,,54,,,,,,,,,,,,,,314.64000000001397,,response,,,,100,,,,,,,Space,keypress(Space),,,,,,,,-- --- ---- the ------ ----- ------- ---- -- --- ------- --<br>------- ---------- ------ -- ----- -- ----- -- ---- ------<br>--- ----- --- --- ------ -------- ----- --- ------ ----- --<br>----- ----- ---------- --- --- ------ ------ ---- -- ------<br>------- --- ------ ----- --- ---- ------- -- ---- --- --<br>------- ------,157085,157082,156766.74,156766,156767.36,157085.08,,3,the
screen,html.Screen,2_1_1_1_4,2022-05-09T10:16:04.782Z,,,,,,,,,,,,,,,,,54,,,,,,,,,,,,,,236.9200000000128,,response,,,,100,,,,,,,Space,keypress(Space),,,,,,,,-- --- ---- --- French ----- ------- ---- -- --- ------- --<br>------- ---------- ------ -- ----- -- ----- -- ---- ------<br>--- ----- --- --- ------ -------- ----- --- ------ ----- --<br>----- ----- ---------- --- --- ------ ------ ---- -- ------<br>------- --- ------ ----- --- ---- ------- -- ---- --- --<br>------- ------,157327,157322,157084.4,157085,157085.08,157327.66,,4,French
screen,html.Screen,2_1_1_1_5,2022-05-09T10:16:05.043Z,,,,,,,,,,,,,,,,,54,,,,,,,,,,,,,,258.3399999999965,,response,,,,100,,,,,,,Space,keypress(Space),,,,,,,,-- --- ---- --- ------ crown ------- ---- -- --- ------- --<br>------- ---------- ------ -- ----- -- ----- -- ---- ------<br>--- ----- --- --- ------ -------- ----- --- ------ ----- --<br>----- ----- ---------- --- --- ------ ------ ---- -- ------<br>------- --- ------ ----- --- ---- ------- -- ---- --- --<br>------- ------,157588,157586,157327,157327,157327.66,157588.88,,5,crown
screen,html.Screen,2_1_1_1_6,2022-05-09T10:16:05.430Z,,,,,,,,,,,,,,,,,54,,,,,,,,,,,,,,381.11999999999534,,response,,,,100,,,,,,,Space,keypress(Space),,,,,,,,-- --- ---- --- ------ ----- secured ---- -- --- ------- --<br>------- ---------- ------ -- ----- -- ----- -- ---- ------<br>--- ----- --- --- ------ -------- ----- --- ------ ----- --<br>----- ----- ---------- --- --- ------ ------ ---- -- ------<br>------- --- ------ ----- --- ---- ------- -- ---- --- --<br>------- ------,157974,157970,157588.2,157588,157588.88,157975.4,,6,secured
screen,html.Screen,2_1_1_1_7,2022-05-09T10:16:05.755Z,,,,,,,,,,,,,,,,,54,,,,,,,,,,,,,,322.6000000000058,,response,,,,100,,,,,,,Space,keypress(Space),,,,,,,,-- --- ---- --- ------ ----- ------- much -- --- ------- --<br>------- ---------- ------ -- ----- -- ----- -- ---- ------<br>--- ----- --- --- ------ -------- ----- --- ------ ----- --<br>----- ----- ---------- --- --- ------ ------ ---- -- ------<br>------- --- ------ ----- --- ---- ------- -- ---- --- --<br>------- ------,158300,158298,157974.8,157974,157975.4,158301.04,,7,much
screen,html.Screen,2_1_1_1_8,2022-05-09T10:16:06.126Z,,,,,,,,,,,,,,,,,54,,,,,,,,,,,,,,364.95999999999185,,response,,,,100,,,,,,,Space,keypress(Space),,,,,,,,-- --- ---- --- ------ ----- ------- ---- of --- ------- --<br>------- ---------- ------ -- ----- -- ----- -- ---- ------<br>--- ----- --- --- ------ -------- ----- --- ------ ----- --<br>----- ----- ---------- --- --- ------ ------ ---- -- ------<br>------- --- ------ ----- --- ---- ------- -- ---- --- --<br>------- ------,158671,158666,158300.4,158300,158301.04,158671.34,,8,of
screen,html.Screen,2_1_1_1_9,2022-05-09T10:16:06.451Z,,,,,,,,,,,,,,,,,54,,,,,,,,,,,,,,321.6600000000035,,response,,,,100,,,,,,,Space,keypress(Space),,,,,,,,-- --- ---- --- ------ ----- ------- ---- -- its ------- --<br>------- ---------- ------ -- ----- -- ----- -- ---- ------<br>--- ----- --- --- ------ -------- ----- --- ------ ----- --<br>----- ----- ---------- --- --- ------ ------ ---- -- ------<br>------- --- ------ ----- --- ---- ------- -- ---- --- --<br>------- ------,158996,158993,158670.68,158671,158671.34,158996.98,,9,its
screen,html.Screen,2_1_1_1_10,2022-05-09T10:16:06.886Z,,,,,,,,,,,,,,,,,54,,,,,,,,,,,,,,429.0199999999895,,response,,,,100,,,,,,,Space,keypress(Space),,,,,,,,-- --- ---- --- ------ ----- ------- ---- -- --- revenue --<br>------- ---------- ------ -- ----- -- ----- -- ---- ------<br>--- ----- --- --- ------ -------- ----- --- ------ ----- --<br>----- ----- ---------- --- --- ------ ------ ---- -- ------<br>------- --- ------ ----- --- ---- ------- -- ---- --- --<br>------- ------,159430,159426,158996.34,158996,158996.98,159431.32,,10,revenue
screen,html.Screen,2_1_1_1_11,2022-05-09T10:16:07.371Z,,,,,,,,,,,,,,,,,54,,,,,,,,,,,,,,481.679999999993,,response,,,,100,,,,,,,Space,keypress(Space),,,,,,,,-- --- ---- --- ------ ----- ------- ---- -- --- ------- by<br>------- ---------- ------ -- ----- -- ----- -- ---- ------<br>--- ----- --- --- ------ -------- ----- --- ------ ----- --<br>----- ----- ---------- --- --- ------ ------ ---- -- ------<br>------- --- ------ ----- --- ---- ------- -- ---- --- --<br>------- ------,159916,159913,159430.7,159431,159431.32,159917.08,,11,by
screen,html.Screen,2_1_1_1_12,2022-05-09T10:16:07.854Z,,,,,,,,,,,,,,,,,54,,,,,,,,,,,,,,476.9200000000128,,response,,,,100,,,,,,,Space,keypress(Space),,,,,,,,-- --- ---- --- ------ ----- ------- ---- -- --- ------- --<br>issuing ---------- ------ -- ----- -- ----- -- ---- ------<br>--- ----- --- --- ------ -------- ----- --- ------ ----- --<br>----- ----- ---------- --- --- ------ ------ ---- -- ------<br>------- --- ------ ----- --- ---- ------- -- ---- --- --<br>------- ------,160399,160394,159916.42,159916,159917.08,160399.48,,12,issuing
screen,html.Screen,2_1_1_1_13,2022-05-09T10:16:08.228Z,,,,,,,,,,,,,,,,,54,,,,,,,,,,,,,,370.5199999999895,,response,,,,100,,,,,,,Space,keypress(Space),,,,,,,,-- --- ---- --- ------ ----- ------- ---- -- --- ------- --<br>------- government ------ -- ----- -- ----- -- ---- ------<br>--- ----- --- --- ------ -------- ----- --- ------ ----- --<br>----- ----- ---------- --- --- ------ ------ ---- -- ------<br>------- --- ------ ----- --- ---- ------- -- ---- --- --<br>------- ------,160772,160770,160398.72,160399,160399.48,160773.02,,13,government
screen,html.Screen,2_1_1_1_14,2022-05-09T10:16:08.518Z,,,,,,,,,,,,,,,,,54,,,,,,,,,,,,,,284.9800000000105,,response,,,,100,,,,,,,Space,keypress(Space),,,,,,,,-- --- ---- --- ------ ----- ------- ---- -- --- ------- --<br>------- ---------- bonds. -- ----- -- ----- -- ---- ------<br>--- ----- --- --- ------ -------- ----- --- ------ ----- --<br>----- ----- ---------- --- --- ------ ------ ---- -- ------<br>------- --- ------ ----- --- ---- ------- -- ---- --- --<br>------- ------,161062,161058,160772.4,160773,160773.02,161063.38,,14,bonds.
screen,html.Screen,2_1_1_1_15,2022-05-09T10:16:09.011Z,,,,,,,,,,,,,,,,,54,,,,,,,,,,,,,,490.61999999999534,,response,,,,100,,,,,,,Space,keypress(Space),,,,,,,,-- --- ---- --- ------ ----- ------- ---- -- --- ------- --<br>------- ---------- ------ In ----- -- ----- -- ---- ------<br>--- ----- --- --- ------ -------- ----- --- ------ ----- --<br>----- ----- ---------- --- --- ------ ------ ---- -- ------<br>------- --- ------ ----- --- ---- ------- -- ---- --- --<br>------- ------,161556,161554,161062.78,161062,161063.38,161557.08,,15,In
screen,html.Screen,2_1_1_1_16,2022-05-09T10:16:09.358Z,,,,,,,,,,,,,,,,,54,,,,,,,,,,,,,,339.9200000000128,,response,,,,100,,,,,,,Space,keypress(Space),,,,,,,,"-- --- ---- --- ------ ----- ------- ---- -- --- ------- --<br>------- ---------- ------ -- 1727, -- ----- -- ---- ------<br>--- ----- --- --- ------ -------- ----- --- ------ ----- --<br>----- ----- ---------- --- --- ------ ------ ---- -- ------<br>------- --- ------ ----- --- ---- ------- -- ---- --- --<br>------- ------",161902,161897,161556.4,161556,161557.08,161903.22,,16,"1727,"
screen,html.Screen,2_1_1_1_17,2022-05-09T10:16:10.107Z,,,,,,,,,,,,,,,,,54,,,,,,,,,,,,,,746.7799999999988,,response,,,,100,,,,,,,Space,keypress(Space),,,,,,,,-- --- ---- --- ------ ----- ------- ---- -- --- ------- --<br>------- ---------- ------ -- ----- in ----- -- ---- ------<br>--- ----- --- --- ------ -------- ----- --- ------ ----- --<br>----- ----- ---------- --- --- ------ ------ ---- -- ------<br>------- --- ------ ----- --- ---- ------- -- ---- --- --<br>------- ------,162652,162650,161902.58,161902,161903.22,162652.78,,17,in
screen,html.Screen,2_1_1_1_18,2022-05-09T10:16:10.565Z,,,,,,,,,,,,,,,,,54,,,,,,,,,,,,,,453.22000000000116,,response,,,,100,,,,,,,Space,keypress(Space),,,,,,,,-- --- ---- --- ------ ----- ------- ---- -- --- ------- --<br>------- ---------- ------ -- ----- -- order -- ---- ------<br>--- ----- --- --- ------ -------- ----- --- ------ ----- --<br>----- ----- ---------- --- --- ------ ------ ---- -- ------<br>------- --- ------ ----- --- ---- ------- -- ---- --- --<br>------- ------,163110,163106,162652.18,162652,162652.78,163111.3,,18,order
screen,html.Screen,2_1_1_1_19,2022-05-09T10:16:10.947Z,,,,,,,,,,,,,,,,,54,,,,,,,,,,,,,,378.70000000001164,,response,,,,100,,,,,,,Space,keypress(Space),,,,,,,,-- --- ---- --- ------ ----- ------- ---- -- --- ------- --<br>------- ---------- ------ -- ----- -- ----- to ---- ------<br>--- ----- --- --- ------ -------- ----- --- ------ ----- --<br>----- ----- ---------- --- --- ------ ------ ---- -- ------<br>------- --- ------ ----- --- ---- ------- -- ---- --- --<br>------- ------,163492,163490,163110.58,163111,163111.3,163493,,19,to
screen,html.Screen,2_1_1_1_20,2022-05-09T10:16:11.349Z,,,,,,,,,,,,,,,,,54,,,,,,,,,,,,,,397,,response,,,,100,,,,,,,Space,keypress(Space),,,,,,,,-- --- ---- --- ------ ----- ------- ---- -- --- ------- --<br>------- ---------- ------ -- ----- -- ----- -- save ------<br>--- ----- --- --- ------ -------- ----- --- ------ ----- --<br>----- ----- ---------- --- --- ------ ------ ---- -- ------<br>------- --- ------ ----- --- ---- ------- -- ---- --- --<br>------- ------,163895,163890,163492.38,163492,163493,163895.26,,20,save
screen,html.Screen,2_1_1_1_21,2022-05-09T10:16:11.899Z,,,,,,,,,,,,,,,,,54,,,,,,,,,,,,,,546.7399999999907,,response,,,,100,,,,,,,Space,keypress(Space),,,,,,,,"-- --- ---- --- ------ ----- ------- ---- -- --- ------- --<br>------- ---------- ------ -- ----- -- ----- -- ---- money,<br>--- ----- --- --- ------ -------- ----- --- ------ ----- --<br>----- ----- ---------- --- --- ------ ------ ---- -- ------<br>------- --- ------ ----- --- ---- ------- -- ---- --- --<br>------- ------",164444,164442,163894.66,163895,163895.26,164444.9,,21,"money,"
screen,html.Screen,2_1_1_1_22,2022-05-09T10:16:12.430Z,,,,,,,,,,,,,,,,,54,,,,,,,,,,,,,,524.1000000000058,,response,,,,100,,,,,,,Space,keypress(Space),,,,,,,,-- --- ---- --- ------ ----- ------- ---- -- --- ------- --<br>------- ---------- ------ -- ----- -- ----- -- ---- ------<br>the ----- --- --- ------ -------- ----- --- ------ ----- --<br>----- ----- ---------- --- --- ------ ------ ---- -- ------<br>------- --- ------ ----- --- ---- ------- -- ---- --- --<br>------- ------,164974,164969,164444.24,164444,164444.9,164975.14,,22,the
screen,html.Screen,2_1_1_1_23,2022-05-09T10:16:12.771Z,,,,,,,,,,,,,,,,,54,,,,,,,,,,,,,,337.85999999998603,,response,,,,100,,,,,,,Space,keypress(Space),,,,,,,,-- --- ---- --- ------ ----- ------- ---- -- --- ------- --<br>------- ---------- ------ -- ----- -- ----- -- ---- ------<br>--- state --- --- ------ -------- ----- --- ------ ----- --<br>----- ----- ---------- --- --- ------ ------ ---- -- ------<br>------- --- ------ ----- --- ---- ------- -- ---- --- --<br>------- ------,165316,165313,164974.5,164974,164975.14,165316.9,,23,state
screen,html.Screen,2_1_1_1_24,2022-05-09T10:16:13.182Z,,,,,,,,,,,,,,,,,54,,,,,,,,,,,,,,405.1000000000058,,response,,,,100,,,,,,,Space,keypress(Space),,,,,,,,-- --- ---- --- ------ ----- ------- ---- -- --- ------- --<br>------- ---------- ------ -- ----- -- ----- -- ---- ------<br>--- ----- cut --- ------ -------- ----- --- ------ ----- --<br>----- ----- ---------- --- --- ------ ------ ---- -- ------<br>------- --- ------ ----- --- ---- ------- -- ---- --- --<br>------- ------,165726,165722,165316.2,165316,165316.9,165727.18,,24,cut
screen,html.Screen,2_1_1_1_25,2022-05-09T10:16:13.579Z,,,,,,,,,,,,,,,,,54,,,,,,,,,,,,,,394.820000000007,,response,,,,100,,,,,,,Space,keypress(Space),,,,,,,,-- --- ---- --- ------ ----- ------- ---- -- --- ------- --<br>------- ---------- ------ -- ----- -- ----- -- ---- ------<br>--- ----- --- the ------ -------- ----- --- ------ ----- --<br>----- ----- ---------- --- --- ------ ------ ---- -- ------<br>------- --- ------ ----- --- ---- ------- -- ---- --- --<br>------- ------,166124,166122,165726.58,165726,165727.18,166125.12,,25,the
screen,html.Screen,2_1_1_1_26,2022-05-09T10:16:13.895Z,,,,,,,,,,,,,,,,,54,,,,,,,,,,,,,,308.88000000000466,,response,,,,100,,,,,,,Space,keypress(Space),,,,,,,,-- --- ---- --- ------ ----- ------- ---- -- --- ------- --<br>------- ---------- ------ -- ----- -- ----- -- ---- ------<br>--- ----- --- --- bonds' -------- ----- --- ------ ----- --<br>----- ----- ---------- --- --- ------ ------ ---- -- ------<br>------- --- ------ ----- --- ---- ------- -- ---- --- --<br>------- ------,166439,166434,166124.5,166125,166125.12,166440.06,,26,bonds'
screen,html.Screen,2_1_1_1_27,2022-05-09T10:16:14.268Z,,,,,,,,,,,,,,,,,54,,,,,,,,,,,,,,369.9400000000023,,response,,,,100,,,,,,,Space,keypress(Space),,,,,,,,-- --- ---- --- ------ ----- ------- ---- -- --- ------- --<br>------- ---------- ------ -- ----- -- ----- -- ---- ------<br>--- ----- --- --- ------ interest ----- --- ------ ----- --<br>----- ----- ---------- --- --- ------ ------ ---- -- ------<br>------- --- ------ ----- --- ---- ------- -- ---- --- --<br>------- ------,166812,166810,166439.46,166439,166440.06,166813.04,,27,interest
screen,html.Screen,2_1_1_1_28,2022-05-09T10:16:14.693Z,,,,,,,,,,,,,,,,,54,,,,,,,,,,,,,,420.95999999999185,,response,,,,100,,,,,,,Space,keypress(Space),,,,,,,,-- --- ---- --- ------ ----- ------- ---- -- --- ------- --<br>------- ---------- ------ -- ----- -- ----- -- ---- ------<br>--- ----- --- --- ------ -------- rate. --- ------ ----- --<br>----- ----- ---------- --- --- ------ ------ ---- -- ------<br>------- --- ------ ----- --- ---- ------- -- ---- --- --<br>------- ------,167239,167234,166812.4,166812,166813.04,167239.14,,28,rate.
screen,html.Screen,2_1_1_1_29,2022-05-09T10:16:15.459Z,,,,,,,,,,,,,,,,,54,,,,,,,,,,,,,,761.859999999986,,response,,,,100,,,,,,,Space,keypress(Space),,,,,,,,-- --- ---- --- ------ ----- ------- ---- -- --- ------- --<br>------- ---------- ------ -- ----- -- ----- -- ---- ------<br>--- ----- --- --- ------ -------- ----- The ------ ----- --<br>----- ----- ---------- --- --- ------ ------ ---- -- ------<br>------- --- ------ ----- --- ---- ------- -- ---- --- --<br>------- ------,168004,168001,167238.5,167239,167239.14,168004.86,,29,The
screen,html.Screen,2_1_1_1_30,2022-05-09T10:16:16.221Z,,,,,,,,,,,,,,,,,54,,,,,,,,,,,,,,756.140000000014,,response,,,,100,,,,,,,Space,keypress(Space),,,,,,,,-- --- ---- --- ------ ----- ------- ---- -- --- ------- --<br>------- ---------- ------ -- ----- -- ----- -- ---- ------<br>--- ----- --- --- ------ -------- ----- --- market ----- --<br>----- ----- ---------- --- --- ------ ------ ---- -- ------<br>------- --- ------ ----- --- ---- ------- -- ---- --- --<br>------- ------,168767,168761,168004.14,168004,168004.86,168767.42,,30,market
screen,html.Screen,2_1_1_1_31,2022-05-09T10:16:16.667Z,,,,,,,,,,,,,,,,,54,,,,,,,,,,,,,,442.5799999999872,,response,,,,100,,,,,,,Space,keypress(Space),,,,,,,,-- --- ---- --- ------ ----- ------- ---- -- --- ------- --<br>------- ---------- ------ -- ----- -- ----- -- ---- ------<br>--- ----- --- --- ------ -------- ----- --- ------ value --<br>----- ----- ---------- --- --- ------ ------ ---- -- ------<br>------- --- ------ ----- --- ---- ------- -- ---- --- --<br>------- ------,169213,169210,168766.64,168767,168767.42,169213.1,,31,value
screen,html.Screen,2_1_1_1_32,2022-05-09T10:16:17.102Z,,,,,,,,,,,,,,,,,54,,,,,,,,,,,,,,428.8999999999942,,response,,,,100,,,,,,,Space,keypress(Space),,,,,,,,-- --- ---- --- ------ ----- ------- ---- -- --- ------- --<br>------- ---------- ------ -- ----- -- ----- -- ---- ------<br>--- ----- --- --- ------ -------- ----- --- ------ ----- of<br>----- ----- ---------- --- --- ------ ------ ---- -- ------<br>------- --- ------ ----- --- ---- ------- -- ---- --- --<br>------- ------,169646,169642,169212.5,169213,169213.1,169647.16,,32,of
screen,html.Screen,2_1_1_1_33,2022-05-09T10:16:17.484Z,,,,,,,,,,,,,,,,,54,,,,,,,,,,,,,,378.8399999999965,,response,,,,100,,,,,,,Space,keypress(Space),,,,,,,,-- --- ---- --- ------ ----- ------- ---- -- --- ------- --<br>------- ---------- ------ -- ----- -- ----- -- ---- ------<br>--- ----- --- --- ------ -------- ----- --- ------ ----- --<br>these ----- ---------- --- --- ------ ------ ---- -- ------<br>------- --- ------ ----- --- ---- ------- -- ---- --- --<br>------- ------,170028,170026,169646.44,169646,169647.16,170029.5,,33,these
screen,html.Screen,2_1_1_1_34,2022-05-09T10:16:17.797Z,,,,,,,,,,,,,,,,,54,,,,,,,,,,,,,,308.5,,response,,,,100,,,,,,,Space,keypress(Space),,,,,,,,-- --- ---- --- ------ ----- ------- ---- -- --- ------- --<br>------- ---------- ------ -- ----- -- ----- -- ---- ------<br>--- ----- --- --- ------ -------- ----- --- ------ ----- --<br>----- bonds ---------- --- --- ------ ------ ---- -- ------<br>------- --- ------ ----- --- ---- ------- -- ---- --- --<br>------- ------,170342,170338,170028.82,170029,170029.5,170343.54,,34,bonds
screen,html.Screen,2_1_1_1_35,2022-05-09T10:16:18.107Z,,,,,,,,,,,,,,,,,54,,,,,,,,,,,,,,305.45999999999185,,response,,,,100,,,,,,,Space,keypress(Space),,,,,,,,"-- --- ---- --- ------ ----- ------- ---- -- --- ------- --<br>------- ---------- ------ -- ----- -- ----- -- ---- ------<br>--- ----- --- --- ------ -------- ----- --- ------ ----- --<br>----- ----- plummeted, --- --- ------ ------ ---- -- ------<br>------- --- ------ ----- --- ---- ------- -- ---- --- --<br>------- ------",170652,170649,170342.88,170343,170343.54,170653.26,,35,"plummeted,"
screen,html.Screen,2_1_1_1_36,2022-05-09T10:16:18.501Z,,,,,,,,,,,,,,,,,54,,,,,,,,,,,,,,388.7399999999907,,response,,,,100,,,,,,,Space,keypress(Space),,,,,,,,-- --- ---- --- ------ ----- ------- ---- -- --- ------- --<br>------- ---------- ------ -- ----- -- ----- -- ---- ------<br>--- ----- --- --- ------ -------- ----- --- ------ ----- --<br>----- ----- ---------- and --- ------ ------ ---- -- ------<br>------- --- ------ ----- --- ---- ------- -- ---- --- --<br>------- ------,171047,171042,170652.64,170652,170653.26,171047.52,,36,and
screen,html.Screen,2_1_1_1_37,2022-05-09T10:16:18.851Z,,,,,,,,,,,,,,,,,54,,,,,,,,,,,,,,346.4800000000105,,response,,,,100,,,,,,,Space,keypress(Space),,,,,,,,-- --- ---- --- ------ ----- ------- ---- -- --- ------- --<br>------- ---------- ------ -- ----- -- ----- -- ---- ------<br>--- ----- --- --- ------ -------- ----- --- ------ ----- --<br>----- ----- ---------- --- the ------ ------ ---- -- ------<br>------- --- ------ ----- --- ---- ------- -- ---- --- --<br>------- ------,171396,171394,171046.92,171047,171047.52,171396.8,,37,the
screen,html.Screen,2_1_1_1_38,2022-05-09T10:16:19.213Z,,,,,,,,,,,,,,,,,54,,,,,,,,,,,,,,357.20000000001164,,response,,,,100,,,,,,,Space,keypress(Space),,,,,,,,-- --- ---- --- ------ ----- ------- ---- -- --- ------- --<br>------- ---------- ------ -- ----- -- ----- -- ---- ------<br>--- ----- --- --- ------ -------- ----- --- ------ ----- --<br>----- ----- ---------- --- --- market ------ ---- -- ------<br>------- --- ------ ----- --- ---- ------- -- ---- --- --<br>------- ------,171759,171754,171396.18,171396,171396.8,171759.14,,38,market
screen,html.Screen,2_1_1_1_39,2022-05-09T10:16:19.571Z,,,,,,,,,,,,,,,,,54,,,,,,,,,,,,,,354.85999999998603,,response,,,,100,,,,,,,Space,keypress(Space),,,,,,,,-- --- ---- --- ------ ----- ------- ---- -- --- ------- --<br>------- ---------- ------ -- ----- -- ----- -- ---- ------<br>--- ----- --- --- ------ -------- ----- --- ------ ----- --<br>----- ----- ---------- --- --- ------ became ---- -- ------<br>------- --- ------ ----- --- ---- ------- -- ---- --- --<br>------- ------,172116,172114,171758.48,171759,171759.14,172117.06,,39,became
screen,html.Screen,2_1_1_1_40,2022-05-09T10:16:19.917Z,,,,,,,,,,,,,,,,,54,,,,,,,,,,,,,,340.9400000000023,,response,,,,100,,,,,,,Space,keypress(Space),,,,,,,,-- --- ---- --- ------ ----- ------- ---- -- --- ------- --<br>------- ---------- ------ -- ----- -- ----- -- ---- ------<br>--- ----- --- --- ------ -------- ----- --- ------ ----- --<br>----- ----- ---------- --- --- ------ ------ wary -- ------<br>------- --- ------ ----- --- ---- ------- -- ---- --- --<br>------- ------,172462,172458,172116.34,172116,172117.06,172463.24,,40,wary
screen,html.Screen,2_1_1_1_41,2022-05-09T10:16:20.283Z,,,,,,,,,,,,,,,,,54,,,,,,,,,,,,,,362.7600000000093,,response,,,,100,,,,,,,Space,keypress(Space),,,,,,,,-- --- ---- --- ------ ----- ------- ---- -- --- ------- --<br>------- ---------- ------ -- ----- -- ----- -- ---- ------<br>--- ----- --- --- ------ -------- ----- --- ------ ----- --<br>----- ----- ---------- --- --- ------ ------ ---- of ------<br>------- --- ------ ----- --- ---- ------- -- ---- --- --<br>------- ------,172828,172826,172462.62,172462,172463.24,172828.82,,41,of
screen,html.Screen,2_1_1_1_42,2022-05-09T10:16:20.685Z,,,,,,,,,,,,,,,,,54,,,,,,,,,,,,,,397.179999999993,,response,,,,100,,,,,,,Space,keypress(Space),,,,,,,,-- --- ---- --- ------ ----- ------- ---- -- --- ------- --<br>------- ---------- ------ -- ----- -- ----- -- ---- ------<br>--- ----- --- --- ------ -------- ----- --- ------ ----- --<br>----- ----- ---------- --- --- ------ ------ ---- -- French<br>------- --- ------ ----- --- ---- ------- -- ---- --- --<br>------- ------,173231,173226,172828.1,172828,172828.82,173231.18,,42,French
screen,html.Screen,2_1_1_1_43,2022-05-09T10:16:21.076Z,,,,,,,,,,,,,,,,,54,,,,,,,,,,,,,,386.820000000007,,response,,,,100,,,,,,,Space,keypress(Space),,,,,,,,-- --- ---- --- ------ ----- ------- ---- -- --- ------- --<br>------- ---------- ------ -- ----- -- ----- -- ---- ------<br>--- ----- --- --- ------ -------- ----- --- ------ ----- --<br>----- ----- ---------- --- --- ------ ------ ---- -- ------<br>credit. --- ------ ----- --- ---- ------- -- ---- --- --<br>------- ------,173620,173618,173230.52,173231,173231.18,173621.08,,43,credit.
screen,html.Screen,2_1_1_1_44,2022-05-09T10:16:21.573Z,,,,,,,,,,,,,,,,,54,,,,,,,,,,,,,,492.9200000000128,,response,,,,100,,,,,,,Space,keypress(Space),,,,,,,,-- --- ---- --- ------ ----- ------- ---- -- --- ------- --<br>------- ---------- ------ -- ----- -- ----- -- ---- ------<br>--- ----- --- --- ------ -------- ----- --- ------ ----- --<br>----- ----- ---------- --- --- ------ ------ ---- -- ------<br>------- The ------ ----- --- ---- ------- -- ---- --- --<br>------- ------,174119,174114,173620.46,173621,173621.08,174119.44,,44,The
screen,html.Screen,2_1_1_1_45,2022-05-09T10:16:21.843Z,,,,,,,,,,,,,,,,,54,,,,,,,,,,,,,,266.5599999999977,,response,,,,100,,,,,,,Space,keypress(Space),,,,,,,,-- --- ---- --- ------ ----- ------- ---- -- --- ------- --<br>------- ---------- ------ -- ----- -- ----- -- ---- ------<br>--- ----- --- --- ------ -------- ----- --- ------ ----- --<br>----- ----- ---------- --- --- ------ ------ ---- -- ------<br>------- --- French ----- --- ---- ------- -- ---- --- --<br>------- ------,174388,174386,174118.76,174119,174119.44,174388.92,,45,French
screen,html.Screen,2_1_1_1_46,2022-05-09T10:16:22.174Z,,,,,,,,,,,,,,,,,54,,,,,,,,,,,,,,325.0799999999872,,response,,,,100,,,,,,,Space,keypress(Space),,,,,,,,-- --- ---- --- ------ ----- ------- ---- -- --- ------- --<br>------- ---------- ------ -- ----- -- ----- -- ---- ------<br>--- ----- --- --- ------ -------- ----- --- ------ ----- --<br>----- ----- ---------- --- --- ------ ------ ---- -- ------<br>------- --- ------ state --- ---- ------- -- ---- --- --<br>------- ------,174719,174714,174388.2,174388,174388.92,174719.66,,46,state
screen,html.Screen,2_1_1_1_47,2022-05-09T10:16:22.523Z,,,,,,,,,,,,,,,,,54,,,,,,,,,,,,,,346.3399999999965,,response,,,,100,,,,,,,Space,keypress(Space),,,,,,,,-- --- ---- --- ------ ----- ------- ---- -- --- ------- --<br>------- ---------- ------ -- ----- -- ----- -- ---- ------<br>--- ----- --- --- ------ -------- ----- --- ------ ----- --<br>----- ----- ---------- --- --- ------ ------ ---- -- ------<br>------- --- ------ ----- was ---- ------- -- ---- --- --<br>------- ------,175069,175066,174718.84,174719,174719.66,175069.08,,47,was
screen,html.Screen,2_1_1_1_48,2022-05-09T10:16:22.893Z,,,,,,,,,,,,,,,,,54,,,,,,,,,,,,,,364.9200000000128,,response,,,,100,,,,,,,Space,keypress(Space),,,,,,,,-- --- ---- --- ------ ----- ------- ---- -- --- ------- --<br>------- ---------- ------ -- ----- -- ----- -- ---- ------<br>--- ----- --- --- ------ -------- ----- --- ------ ----- --<br>----- ----- ---------- --- --- ------ ------ ---- -- ------<br>------- --- ------ ----- --- left ------- -- ---- --- --<br>------- ------,175438,175434,175068.42,175069,175069.08,175439.5,,48,left
screen,html.Screen,2_1_1_1_49,2022-05-09T10:16:23.219Z,,,,,,,,,,,,,,,,,54,,,,,,,,,,,,,,322.5,,response,,,,100,,,,,,,Space,keypress(Space),,,,,,,,-- --- ---- --- ------ ----- ------- ---- -- --- ------- --<br>------- ---------- ------ -- ----- -- ----- -- ---- ------<br>--- ----- --- --- ------ -------- ----- --- ------ ----- --<br>----- ----- ---------- --- --- ------ ------ ---- -- ------<br>------- --- ------ ----- --- ---- without -- ---- --- --<br>------- ------,175764,175762,175438.84,175438,175439.5,175764.98,,49,without
screen,html.Screen,2_1_1_1_50,2022-05-09T10:16:23.533Z,,,,,,,,,,,,,,,,,54,,,,,,,,,,,,,,309.0199999999895,,response,,,,100,,,,,,,Space,keypress(Space),,,,,,,,-- --- ---- --- ------ ----- ------- ---- -- --- ------- --<br>------- ---------- ------ -- ----- -- ----- -- ---- ------<br>--- ----- --- --- ------ -------- ----- --- ------ ----- --<br>----- ----- ---------- --- --- ------ ------ ---- -- ------<br>------- --- ------ ----- --- ---- ------- an ---- --- --<br>------- ------,176079,176074,175764.36,175764,175764.98,176079.46,,50,an
screen,html.Screen,2_1_1_1_51,2022-05-09T10:16:23.819Z,,,,,,,,,,,,,,,,,54,,,,,,,,,,,,,,282.54000000000815,,response,,,,100,,,,,,,Space,keypress(Space),,,,,,,,-- --- ---- --- ------ ----- ------- ---- -- --- ------- --<br>------- ---------- ------ -- ----- -- ----- -- ---- ------<br>--- ----- --- --- ------ -------- ----- --- ------ ----- --<br>----- ----- ---------- --- --- ------ ------ ---- -- ------<br>------- --- ------ ----- --- ---- ------- -- easy --- --<br>------- ------,176364,176362,176078.7,176079,176079.46,176365.16,,51,easy
screen,html.Screen,2_1_1_1_52,2022-05-09T10:16:24.253Z,,,,,,,,,,,,,,,,,54,,,,,,,,,,,,,,427.8399999999965,,response,,,,100,,,,,,,Space,keypress(Space),,,,,,,,-- --- ---- --- ------ ----- ------- ---- -- --- ------- --<br>------- ---------- ------ -- ----- -- ----- -- ---- ------<br>--- ----- --- --- ------ -------- ----- --- ------ ----- --<br>----- ----- ---------- --- --- ------ ------ ---- -- ------<br>------- --- ------ ----- --- ---- ------- -- ---- way --<br>------- ------,176798,176793,176364.46,176364,176365.16,176799.3,,52,way
screen,html.Screen,2_1_1_1_53,2022-05-09T10:16:24.715Z,,,,,,,,,,,,,,,,,54,,,,,,,,,,,,,,458.70000000001164,,response,,,,100,,,,,,,Space,keypress(Space),,,,,,,,-- --- ---- --- ------ ----- ------- ---- -- --- ------- --<br>------- ---------- ------ -- ----- -- ----- -- ---- ------<br>--- ----- --- --- ------ -------- ----- --- ------ ----- --<br>----- ----- ---------- --- --- ------ ------ ---- -- ------<br>------- --- ------ ----- --- ---- ------- -- ---- --- of<br>------- ------,177259,177258,176798.62,176798,176799.3,177260.78,,53,of
screen,html.Screen,2_1_1_1_54,2022-05-09T10:16:25.469Z,,,,,,,,,,,,,,,,,54,,,,,,,,,,,,,,749.2200000000012,,response,,,,100,,,,,,,Space,keypress(Space),,,,,,,,-- --- ---- --- ------ ----- ------- ---- -- --- ------- --<br>------- ---------- ------ -- ----- -- ----- -- ---- ------<br>--- ----- --- --- ------ -------- ----- --- ------ ----- --<br>----- ----- ---------- --- --- ------ ------ ---- -- ------<br>------- --- ------ ----- --- ---- ------- -- ---- --- --<br>raising ------,178015,178010,177260.04,177260,177260.78,178038.3,,54,raising
screen,html.Screen,2_1_1_1_55,2022-05-09T10:16:25.915Z,,,,,,,,,,,,,,,,,54,,,,,,,,,,,,,,419.70000000001164,,response,,,,100,,,,,,,Space,keypress(Space),,,,,,,,-- --- ---- --- ------ ----- ------- ---- -- --- ------- --<br>------- ---------- ------ -- ----- -- ----- -- ---- ------<br>--- ----- --- --- ------ -------- ----- --- ------ ----- --<br>----- ----- ---------- --- --- ------ ------ ---- -- ------<br>------- --- ------ ----- --- ---- ------- -- ---- --- --<br>------- money.,178460,178458,178014.72,178015,178038.3,178461.18,,55,money.
Item 100,flow.Loop,2_1_1_1,2022-05-09T10:16:25.915Z,,,,,,,,,,,,,,,,,,,,,,,,,,,,,,,23126.339999999997,,completion,,,,,C,,,,,,,,,,,silence,,,,,178460,178458,155314.64,155315,155331.66,178461.18,,,
Question 1,html.Screen,2_1_1_2,2022-05-09T10:16:28.440Z,,,,,,,,,,,,,,,,,,,,,,,,,,,,true,TRUE,,2522.820000000007,,response,,,,100,C,,,,,,TRUE,click #choice-1,,,,silence,,,,,180986,180984,178460.56,178461,178461.18,180985.88,,,
Question 2,html.Screen,2_1_1_3,2022-05-09T10:16:30.387Z,,,,,,,,,,,,,,,,,,,,,,,,,,,,false,FALSE,,1944.1199999999953,,response,,,,100,C,,,,,,TRUE,click #choice-1,,,,silence,,,,,182932,182930,180985.52,180986,180985.88,182932.04,,,
Item 100,flow.Sequence,2_1_1,2022-05-09T10:16:30.387Z,,,,,,,,,,,,,,,,,,,,,,,,,,,,,,,37598.07999999999,,completion,,,,,,,,,,,,,,,,,,,,,182932,182930,145331.52,145332,145331.92,182932.04,,,
End of Practice,html.Page,2_1_2,2022-05-09T10:16:33.754Z,,,,,,,,,,,,,,,,,,,,,,,,,,,,,,,3366.959999999992,,form submission,,,,,,,,,,,,,,,,,,,,,186299,186299,182931.54,182932,182932.04,186297.96,,,
Practice,flow.Sequence,2_1,2022-05-09T10:16:33.754Z,,,,,,,,,,,,,,,,,,,,,,,,,,,,,,,82423.08,,completion,,,,,,,,,,,,,,,,,,,,,186299,186299,103875.54,103879,103875.92,186297.96,,,
Trap_instruction,html.Page,2_2_0,2022-05-09T10:16:44.819Z,,,,,,,,,,,,,,,,,,,,,,,,,,,,,,,11067.040000000008,,form submission,,,,,,,,,,,,,,,,,,,,,197365,197365,186297.58,186299,186297.96,197364.24,,,
trap_trial,html.Screen,2_2_1,2022-05-09T10:16:47.339Z,,,,,,,,,,,,,,,,,,,,,,,,,,,,true,1,,2517.7600000000093,,response,,,,,,,,,,,1,click #choice-1,,,,,,,,,199885,199882,197363.84,197365,197364.24,199884.2,,,
end of trap trial,html.Page,2_2_2,2022-05-09T10:16:48.798Z,,,,,,,,,,,,,,,,,,,,,,,,,,,,,,,1459.7999999999884,,form submission,,,,,,,,,,,,,,,,,,,,,201344,201344,199883.8,199885,199884.2,201346.4,,,
Trap 1,flow.Sequence,2_2,2022-05-09T10:16:48.798Z,,,,,,,,,,,,,,,,,,,,,,,,,,,,,,,15046.040000000008,,completion,,,,,,,,,,,,,,,,,,,,,201344,201344,186297.58,186299,186297.96,201346.4,,,
Standby,html.Page,2_3_0,2022-05-09T10:16:56.778Z,,,,,,,,,,,,,,,,,,,,,,,,,,,,,,,7993.559999999998,,timeout,,,,,,,,,,,,,,,,,,,,,209323,209322.52,201341.9,201344,201346.4,209339.96,,,
Holding screen,html.Screen,2_3_1_0_0,2022-05-09T10:17:03.784Z,,,,,,,,,,,,,,,,,,,,,,,,,,,,,,,7005.520000000019,,timeout,,,,,,,,,,,,,,,,,,,,,216330,216328.96,209322.52,209323,209339.96,216345.48,,,
screen,html.Screen,2_3_1_0_1_0,2022-05-09T10:17:06.202Z,,,,,,,,,,,,,,,,,2,,,,,,,,,,,,,,2396.5199999999895,,response,,,,1,C,,,,,,Space,keypress(Space),,,,instrumental,,,,Two ---- ------ --- ------- ---------- ------- ----------<br>--- --------- --- ----------- ------- ----- ------- ---<br>--------- ---- -- --- ---- -- --------- -- ---- -------<br>-- --------- ------ --- ----- ------ ---- --- --------- --<br>------ - ---- -- --- ----------- ------- ---- ----- -----<br>--- -------- - ------ ---- -- ----- ---- --- --- -----------<br>-- -------,218747,218742,216328.96,216330,216345.48,218748.4,,0,Two
screen,html.Screen,2_3_1_0_1_1,2022-05-09T10:17:06.567Z,,,,,,,,,,,,,,,,,2,,,,,,,,,,,,,,361.6000000000058,,response,,,,1,C,,,,,,Space,keypress(Space),,,,instrumental,,,,--- days ------ --- ------- ---------- ------- ----------<br>--- --------- --- ----------- ------- ----- ------- ---<br>--------- ---- -- --- ---- -- --------- -- ---- -------<br>-- --------- ------ --- ----- ------ ---- --- --------- --<br>------ - ---- -- --- ----------- ------- ---- ----- -----<br>--- -------- - ------ ---- -- ----- ---- --- --- -----------<br>-- -------,219112,219110,218747.56,218748,218748.4,219113.48,,1,days
screen,html.Screen,2_3_1_0_1_2,2022-05-09T10:17:06.985Z,,,,,,,,,,,,,,,,,2,,,,,,,,,,,,,,412.5199999999895,,response,,,,1,C,,,,,,Space,keypress(Space),,,,instrumental,,,,"--- ---- later, --- ------- ---------- ------- ----------<br>--- --------- --- ----------- ------- ----- ------- ---<br>--------- ---- -- --- ---- -- --------- -- ---- -------<br>-- --------- ------ --- ----- ------ ---- --- --------- --<br>------ - ---- -- --- ----------- ------- ---- ----- -----<br>--- -------- - ------ ---- -- ----- ---- --- --- -----------<br>-- -------",219531,219526,219112.86,219113,219113.48,219539.5,,2,"later,"
screen,html.Screen,2_3_1_0_1_3,2022-05-09T10:17:07.382Z,,,,,,,,,,,,,,,,,2,,,,,,,,,,,,,,386.5,,response,,,,1,C,,,,,,Space,keypress(Space),,,,instrumental,,,,--- ---- ------ the ------- ---------- ------- ----------<br>--- --------- --- ----------- ------- ----- ------- ---<br>--------- ---- -- --- ---- -- --------- -- ---- -------<br>-- --------- ------ --- ----- ------ ---- --- --------- --<br>------ - ---- -- --- ----------- ------- ---- ----- -----<br>--- -------- - ------ ---- -- ----- ---- --- --- -----------<br>-- -------,219928,219926,219522.5,219531,219539.5,219940.52,,3,the
screen,html.Screen,2_3_1_0_1_4,2022-05-09T10:17:07.777Z,,,,,,,,,,,,,,,,,2,,,,,,,,,,,,,,377.4800000000105,,response,,,,1,C,,,,,,Space,keypress(Space),,,,instrumental,,,,--- ---- ------ --- British ---------- ------- ----------<br>--- --------- --- ----------- ------- ----- ------- ---<br>--------- ---- -- --- ---- -- --------- -- ---- -------<br>-- --------- ------ --- ----- ------ ---- --- --------- --<br>------ - ---- -- --- ----------- ------- ---- ----- -----<br>--- -------- - ------ ---- -- ----- ---- --- --- -----------<br>-- -------,220323,220318,219923.78,219929,219940.52,220323.86,,4,British
screen,html.Screen,2_3_1_0_1_5,2022-05-09T10:17:08.135Z,,,,,,,,,,,,,,,,,2,,,,,,,,,,,,,,354.14000000001397,,response,,,,1,C,,,,,,Space,keypress(Space),,,,instrumental,,,,--- ---- ------ --- ------- astronomer ------- ----------<br>--- --------- --- ----------- ------- ----- ------- ---<br>--------- ---- -- --- ---- -- --------- -- ---- -------<br>-- --------- ------ --- ----- ------ ---- --- --------- --<br>------ - ---- -- --- ----------- ------- ---- ----- -----<br>--- -------- - ------ ---- -- ----- ---- --- --- -----------<br>-- -------,220680,220678,220323.18,220323,220323.86,220681.02,,5,astronomer
screen,html.Screen,2_3_1_0_1_6,2022-05-09T10:17:08.616Z,,,,,,,,,,,,,,,,,2,,,,,,,,,,,,,,475.9800000000105,,response,,,,1,C,,,,,,Space,keypress(Space),,,,instrumental,,,,--- ---- ------ --- ------- ---------- Richard ----------<br>--- --------- --- ----------- ------- ----- ------- ---<br>--------- ---- -- --- ---- -- --------- -- ---- -------<br>-- --------- ------ --- ----- ------ ---- --- --------- --<br>------ - ---- -- --- ----------- ------- ---- ----- -----<br>--- -------- - ------ ---- -- ----- ---- --- --- -----------<br>-- -------,221162,221157,220680.4,220680,220681.02,221163.12,,6,Richard
screen,html.Screen,2_3_1_0_1_7,2022-05-09T10:17:09.110Z,,,,,,,,,,,,,,,,,2,,,,,,,,,,,,,,490.88000000000466,,response,,,,1,C,,,,,,Space,keypress(Space),,,,instrumental,,,,--- ---- ------ --- ------- ---------- ------- Carrington<br>--- --------- --- ----------- ------- ----- ------- ---<br>--------- ---- -- --- ---- -- --------- -- ---- -------<br>-- --------- ------ --- ----- ------ ---- --- --------- --<br>------ - ---- -- --- ----------- ------- ---- ----- -----<br>--- -------- - ------ ---- -- ----- ---- --- --- -----------<br>-- -------,221656,221654,221162.56,221163,221163.12,221657.14,,7,Carrington
screen,html.Screen,2_3_1_0_1_8,2022-05-09T10:17:09.649Z,,,,,,,,,,,,,,,,,2,,,,,,,,,,,,,,532.859999999986,,response,,,,1,C,,,,,,Space,keypress(Space),,,,instrumental,,,,--- ---- ------ --- ------- ---------- ------- ----------<br>was --------- --- ----------- ------- ----- ------- ---<br>--------- ---- -- --- ---- -- --------- -- ---- -------<br>-- --------- ------ --- ----- ------ ---- --- --------- --<br>------ - ---- -- --- ----------- ------- ---- ----- -----<br>--- -------- - ------ ---- -- ----- ---- --- --- -----------<br>-- -------,222195,222190,221656.46,221656,221657.14,222195.84,,8,was
screen,html.Screen,2_3_1_0_1_9,2022-05-09T10:17:10.078Z,,,,,,,,,,,,,,,,,2,,,,,,,,,,,,,,425.1600000000035,,response,,,,1,C,,,,,,Space,keypress(Space),,,,instrumental,,,,--- ---- ------ --- ------- ---------- ------- ----------<br>--- observing --- ----------- ------- ----- ------- ---<br>--------- ---- -- --- ---- -- --------- -- ---- -------<br>-- --------- ------ --- ----- ------ ---- --- --------- --<br>------ - ---- -- --- ----------- ------- ---- ----- -----<br>--- -------- - ------ ---- -- ----- ---- --- --- -----------<br>-- -------,222624,222621,222195.22,222195,222195.84,222625.54,,9,observing
screen,html.Screen,2_3_1_0_1_10,2022-05-09T10:17:10.505Z,,,,,,,,,,,,,,,,,2,,,,,,,,,,,,,,420.45999999999185,,response,,,,1,C,,,,,,Space,keypress(Space),,,,instrumental,,,,--- ---- ------ --- ------- ---------- ------- ----------<br>--- --------- the ----------- ------- ----- ------- ---<br>--------- ---- -- --- ---- -- --------- -- ---- -------<br>-- --------- ------ --- ----- ------ ---- --- --------- --<br>------ - ---- -- --- ----------- ------- ---- ----- -----<br>--- -------- - ------ ---- -- ----- ---- --- --- -----------<br>-- -------,223051,223046,222624.92,222624,222625.54,223051.76,,10,the
screen,html.Screen,2_3_1_0_1_11,2022-05-09T10:17:10.870Z,,,,,,,,,,,,,,,,,2,,,,,,,,,,,,,,362.2399999999907,,response,,,,1,C,,,,,,Space,keypress(Space),,,,instrumental,,,,--- ---- ------ --- ------- ---------- ------- ----------<br>--- --------- --- interesting ------- ----- ------- ---<br>--------- ---- -- --- ---- -- --------- -- ---- -------<br>-- --------- ------ --- ----- ------ ---- --- --------- --<br>------ - ---- -- --- ----------- ------- ---- ----- -----<br>--- -------- - ------ ---- -- ----- ---- --- --- -----------<br>-- -------,223417,223414,223051.12,223052,223051.76,223417.16,,11,interesting
screen,html.Screen,2_3_1_0_1_12,2022-05-09T10:17:11.217Z,,,,,,,,,,,,,,,,,2,,,,,,,,,,,,,,340.8399999999965,,response,,,,1,C,,,,,,Space,keypress(Space),,,,instrumental,,,,--- ---- ------ --- ------- ---------- ------- ----------<br>--- --------- --- ----------- sunspot ----- ------- ---<br>--------- ---- -- --- ---- -- --------- -- ---- -------<br>-- --------- ------ --- ----- ------ ---- --- --------- --<br>------ - ---- -- --- ----------- ------- ---- ----- -----<br>--- -------- - ------ ---- -- ----- ---- --- --- -----------<br>-- -------,223762,223758,223416.4,223417,223417.16,223763.4,,12,sunspot
screen,html.Screen,2_3_1_0_1_13,2022-05-09T10:17:11.582Z,,,,,,,,,,,,,,,,,2,,,,,,,,,,,,,,361.6000000000058,,response,,,,1,C,,,,,,Space,keypress(Space),,,,instrumental,,,,--- ---- ------ --- ------- ---------- ------- ----------<br>--- --------- --- ----------- ------- group ------- ---<br>--------- ---- -- --- ---- -- --------- -- ---- -------<br>-- --------- ------ --- ----- ------ ---- --- --------- --<br>------ - ---- -- --- ----------- ------- ---- ----- -----<br>--- -------- - ------ ---- -- ----- ---- --- --- -----------<br>-- -------,224128,224125,223762.78,223762,223763.4,224128.86,,13,group
screen,html.Screen,2_3_1_0_1_14,2022-05-09T10:17:12.288Z,,,,,,,,,,,,,,,,,2,,,,,,,,,,,,,,701.140000000014,,response,,,,1,C,,,,,,Space,keypress(Space),,,,instrumental,,,,--- ---- ------ --- ------- ---------- ------- ----------<br>--- --------- --- ----------- ------- ----- through ---<br>--------- ---- -- --- ---- -- --------- -- ---- -------<br>-- --------- ------ --- ----- ------ ---- --- --------- --<br>------ - ---- -- --- ----------- ------- ---- ----- -----<br>--- -------- - ------ ---- -- ----- ---- --- --- -----------<br>-- -------,224835,224830,224128.26,224128,224128.86,224835.42,,14,through
screen,html.Screen,2_3_1_0_1_15,2022-05-09T10:17:12.718Z,,,,,,,,,,,,,,,,,2,,,,,,,,,,,,,,426.5799999999872,,response,,,,1,C,,,,,,Space,keypress(Space),,,,instrumental,,,,--- ---- ------ --- ------- ---------- ------- ----------<br>--- --------- --- ----------- ------- ----- ------- his<br>--------- ---- -- --- ---- -- --------- -- ---- -------<br>-- --------- ------ --- ----- ------ ---- --- --------- --<br>------ - ---- -- --- ----------- ------- ---- ----- -----<br>--- -------- - ------ ---- -- ----- ---- --- --- -----------<br>-- -------,225264,225262,224834.76,224835,224835.42,225264.92,,15,his
screen,html.Screen,2_3_1_0_1_16,2022-05-09T10:17:13.288Z,,,,,,,,,,,,,,,,,2,,,,,,,,,,,,,,565.0799999999872,,response,,,,1,C,,,,,,Space,keypress(Space),,,,instrumental,,,,--- ---- ------ --- ------- ---------- ------- ----------<br>--- --------- --- ----------- ------- ----- ------- ---<br>telescope ---- -- --- ---- -- --------- -- ---- -------<br>-- --------- ------ --- ----- ------ ---- --- --------- --<br>------ - ---- -- --- ----------- ------- ---- ----- -----<br>--- -------- - ------ ---- -- ----- ---- --- --- -----------<br>-- -------,225835,225830,225264.22,225264,225264.92,225835.2,,16,telescope
screen,html.Screen,2_3_1_0_1_17,2022-05-09T10:17:13.774Z,,,,,,,,,,,,,,,,,2,,,,,,,,,,,,,,481.79999999998836,,response,,,,1,C,,,,,,Space,keypress(Space),,,,instrumental,,,,--- ---- ------ --- ------- ---------- ------- ----------<br>--- --------- --- ----------- ------- ----- ------- ---<br>--------- when -- --- ---- -- --------- -- ---- -------<br>-- --------- ------ --- ----- ------ ---- --- --------- --<br>------ - ---- -- --- ----------- ------- ---- ----- -----<br>--- -------- - ------ ---- -- ----- ---- --- --- -----------<br>-- -------,226320,226317,225834.56,225835,225835.2,226321.02,,17,when
screen,html.Screen,2_3_1_0_1_18,2022-05-09T10:17:14.121Z,,,,,,,,,,,,,,,,,2,,,,,,,,,,,,,,340.9800000000105,,response,,,,1,C,,,,,,Space,keypress(Space),,,,instrumental,,,,--- ---- ------ --- ------- ---------- ------- ----------<br>--- --------- --- ----------- ------- ----- ------- ---<br>--------- ---- he --- ---- -- --------- -- ---- -------<br>-- --------- ------ --- ----- ------ ---- --- --------- --<br>------ - ---- -- --- ----------- ------- ---- ----- -----<br>--- -------- - ------ ---- -- ----- ---- --- --- -----------<br>-- -------,226667,226662,226320.34,226320,226321.02,226667.64,,18,he
screen,html.Screen,2_3_1_0_1_19,2022-05-09T10:17:14.478Z,,,,,,,,,,,,,,,,,2,,,,,,,,,,,,,,354.35999999998603,,response,,,,1,C,,,,,,Space,keypress(Space),,,,instrumental,,,,--- ---- ------ --- ------- ---------- ------- ----------<br>--- --------- --- ----------- ------- ----- ------- ---<br>--------- ---- -- saw ---- -- --------- -- ---- -------<br>-- --------- ------ --- ----- ------ ---- --- --------- --<br>------ - ---- -- --- ----------- ------- ---- ----- -----<br>--- -------- - ------ ---- -- ----- ---- --- --- -----------<br>-- -------,227024,227022,226667.02,226667,226667.64,227024.9,,19,saw
screen,html.Screen,2_3_1_0_1_20,2022-05-09T10:17:15.088Z,,,,,,,,,,,,,,,,,2,,,,,,,,,,,,,,605.1000000000058,,response,,,,1,C,,,,,,Space,keypress(Space),,,,instrumental,,,,--- ---- ------ --- ------- ---------- ------- ----------<br>--- --------- --- ----------- ------- ----- ------- ---<br>--------- ---- -- --- what -- --------- -- ---- -------<br>-- --------- ------ --- ----- ------ ---- --- --------- --<br>------ - ---- -- --- ----------- ------- ---- ----- -----<br>--- -------- - ------ ---- -- ----- ---- --- --- -----------<br>-- -------,227634,227630,227024.2,227024,227024.9,227635.54,,20,what
screen,html.Screen,2_3_1_0_1_21,2022-05-09T10:17:15.518Z,,,,,,,,,,,,,,,,,2,,,,,,,,,,,,,,426.45999999999185,,response,,,,1,C,,,,,,Space,keypress(Space),,,,instrumental,,,,--- ---- ------ --- ------- ---------- ------- ----------<br>--- --------- --- ----------- ------- ----- ------- ---<br>--------- ---- -- --- ---- he --------- -- ---- -------<br>-- --------- ------ --- ----- ------ ---- --- --------- --<br>------ - ---- -- --- ----------- ------- ---- ----- -----<br>--- -------- - ------ ---- -- ----- ---- --- --- -----------<br>-- -------,228065,228062,227634.82,227635,227635.54,228065.2,,21,he
screen,html.Screen,2_3_1_0_1_22,2022-05-09T10:17:15.824Z,,,,,,,,,,,,,,,,,2,,,,,,,,,,,,,,299.79999999998836,,response,,,,1,C,,,,,,Space,keypress(Space),,,,instrumental,,,,--- ---- ------ --- ------- ---------- ------- ----------<br>--- --------- --- ----------- ------- ----- ------- ---<br>--------- ---- -- --- ---- -- described -- ---- -------<br>-- --------- ------ --- ----- ------ ---- --- --------- --<br>------ - ---- -- --- ----------- ------- ---- ----- -----<br>--- -------- - ------ ---- -- ----- ---- --- --- -----------<br>-- -------,228371,228365,228064.56,228065,228065.2,228371.38,,22,described
screen,html.Screen,2_3_1_0_1_23,2022-05-09T10:17:16.182Z,,,,,,,,,,,,,,,,,2,,,,,,,,,,,,,,354.61999999999534,,response,,,,1,C,,,,,,Space,keypress(Space),,,,instrumental,,,,--- ---- ------ --- ------- ---------- ------- ----------<br>--- --------- --- ----------- ------- ----- ------- ---<br>--------- ---- -- --- ---- -- --------- as ---- -------<br>-- --------- ------ --- ----- ------ ---- --- --------- --<br>------ - ---- -- --- ----------- ------- ---- ----- -----<br>--- -------- - ------ ---- -- ----- ---- --- --- -----------<br>-- -------,228729,228726,228370.72,228371,228371.38,228729.12,,23,as
screen,html.Screen,2_3_1_0_1_24,2022-05-09T10:17:16.656Z,,,,,,,,,,,,,,,,,2,,,,,,,,,,,,,,467.88000000000466,,response,,,,1,C,,,,,,Space,keypress(Space),,,,instrumental,,,,"--- ---- ------ --- ------- ---------- ------- ----------<br>--- --------- --- ----------- ------- ----- ------- ---<br>--------- ---- -- --- ---- -- --------- -- ""two -------<br>-- --------- ------ --- ----- ------ ---- --- --------- --<br>------ - ---- -- --- ----------- ------- ---- ----- -----<br>--- -------- - ------ ---- -- ----- ---- --- --- -----------<br>-- -------",229202,229197,228728.54,228729,228729.12,229203.02,,24,"""two"
screen,html.Screen,2_3_1_0_1_25,2022-05-09T10:17:17.262Z,,,,,,,,,,,,,,,,,2,,,,,,,,,,,,,,602.9800000000105,,response,,,,1,C,,,,,,Space,keypress(Space),,,,instrumental,,,,--- ---- ------ --- ------- ---------- ------- ----------<br>--- --------- --- ----------- ------- ----- ------- ---<br>--------- ---- -- --- ---- -- --------- -- ---- patches<br>-- --------- ------ --- ----- ------ ---- --- --------- --<br>------ - ---- -- --- ----------- ------- ---- ----- -----<br>--- -------- - ------ ---- -- ----- ---- --- --- -----------<br>-- -------,229808,229806,229202.38,229202,229203.02,229809,,25,patches
screen,html.Screen,2_3_1_0_1_26,2022-05-09T10:17:17.673Z,,,,,,,,,,,,,,,,,2,,,,,,,,,,,,,,405,,response,,,,1,C,,,,,,Space,keypress(Space),,,,instrumental,,,,--- ---- ------ --- ------- ---------- ------- ----------<br>--- --------- --- ----------- ------- ----- ------- ---<br>--------- ---- -- --- ---- -- --------- -- ---- -------<br>of --------- ------ --- ----- ------ ---- --- --------- --<br>------ - ---- -- --- ----------- ------- ---- ----- -----<br>--- -------- - ------ ---- -- ----- ---- --- --- -----------<br>-- -------,230219,230214,229808.38,229808,229809,230219.64,,26,of
screen,html.Screen,2_3_1_0_1_27,2022-05-09T10:17:18.174Z,,,,,,,,,,,,,,,,,2,,,,,,,,,,,,,,498.35999999998603,,response,,,,1,C,,,,,,Space,keypress(Space),,,,instrumental,,,,--- ---- ------ --- ------- ---------- ------- ----------<br>--- --------- --- ----------- ------- ----- ------- ---<br>--------- ---- -- --- ---- -- --------- -- ---- -------<br>-- intensely ------ --- ----- ------ ---- --- --------- --<br>------ - ---- -- --- ----------- ------- ---- ----- -----<br>--- -------- - ------ ---- -- ----- ---- --- --- -----------<br>-- -------,230720,230718,230219,230219,230219.64,230720.98,,27,intensely
screen,html.Screen,2_3_1_0_1_28,2022-05-09T10:17:18.744Z,,,,,,,,,,,,,,,,,2,,,,,,,,,,,,,,565.0199999999895,,response,,,,1,C,,,,,,Space,keypress(Space),,,,instrumental,,,,--- ---- ------ --- ------- ---------- ------- ----------<br>--- --------- --- ----------- ------- ----- ------- ---<br>--------- ---- -- --- ---- -- --------- -- ---- -------<br>-- --------- bright --- ----- ------ ---- --- --------- --<br>------ - ---- -- --- ----------- ------- ---- ----- -----<br>--- -------- - ------ ---- -- ----- ---- --- --- -----------<br>-- -------,231290,231286,230720.32,230720,230720.98,231291.28,,28,bright
screen,html.Screen,2_3_1_0_1_29,2022-05-09T10:17:19.431Z,,,,,,,,,,,,,,,,,2,,,,,,,,,,,,,,682.7200000000012,,response,,,,1,C,,,,,,Space,keypress(Space),,,,instrumental,,,,--- ---- ------ --- ------- ---------- ------- ----------<br>--- --------- --- ----------- ------- ----- ------- ---<br>--------- ---- -- --- ---- -- --------- -- ---- -------<br>-- --------- ------ and ----- ------ ---- --- --------- --<br>------ - ---- -- --- ----------- ------- ---- ----- -----<br>--- -------- - ------ ---- -- ----- ---- --- --- -----------<br>-- -------,231977,231974,231290.64,231290,231291.28,231977.22,,29,and
screen,html.Screen,2_3_1_0_1_30,2022-05-09T10:17:19.953Z,,,,,,,,,,,,,,,,,2,,,,,,,,,,,,,,516.7799999999988,,response,,,,1,C,,,,,,Space,keypress(Space),,,,instrumental,,,,--- ---- ------ --- ------- ---------- ------- ----------<br>--- --------- --- ----------- ------- ----- ------- ---<br>--------- ---- -- --- ---- -- --------- -- ---- -------<br>-- --------- ------ --- white ------ ---- --- --------- --<br>------ - ---- -- --- ----------- ------- ---- ----- -----<br>--- -------- - ------ ---- -- ----- ---- --- --- -----------<br>-- -------,232498,232494,231976.58,231977,231977.22,232499.62,,30,white
screen,html.Screen,2_3_1_0_1_31,2022-05-09T10:17:20.582Z,,,,,,,,,,,,,,,,,2,,,,,,,,,,,,,,626.3800000000047,,response,,,,1,C,,,,,,Space,keypress(Space),,,,instrumental,,,,"--- ---- ------ --- ------- ---------- ------- ----------<br>--- --------- --- ----------- ------- ----- ------- ---<br>--------- ---- -- --- ---- -- --------- -- ---- -------<br>-- --------- ------ --- ----- light"" ---- --- --------- --<br>------ - ---- -- --- ----------- ------- ---- ----- -----<br>--- -------- - ------ ---- -- ----- ---- --- --- -----------<br>-- -------",233129,233126,232499,232498,232499.62,233129.12,,31,"light"""
screen,html.Screen,2_3_1_0_1_32,2022-05-09T10:17:21.120Z,,,,,,,,,,,,,,,,,2,,,,,,,,,,,,,,532.8800000000047,,response,,,,1,C,,,,,,Space,keypress(Space),,,,instrumental,,,,--- ---- ------ --- ------- ---------- ------- ----------<br>--- --------- --- ----------- ------- ----- ------- ---<br>--------- ---- -- --- ---- -- --------- -- ---- -------<br>-- --------- ------ --- ----- ------ over --- --------- --<br>------ - ---- -- --- ----------- ------- ---- ----- -----<br>--- -------- - ------ ---- -- ----- ---- --- --- -----------<br>-- -------,233666,233662,233128.38,233129,233129.12,233667.38,,32,over
screen,html.Screen,2_3_1_0_1_33,2022-05-09T10:17:21.478Z,,,,,,,,,,,,,,,,,2,,,,,,,,,,,,,,353.61999999999534,,response,,,,1,C,,,,,,Space,keypress(Space),,,,instrumental,,,,--- ---- ------ --- ------- ---------- ------- ----------<br>--- --------- --- ----------- ------- ----- ------- ---<br>--------- ---- -- --- ---- -- --------- -- ---- -------<br>-- --------- ------ --- ----- ------ ---- the --------- --<br>------ - ---- -- --- ----------- ------- ---- ----- -----<br>--- -------- - ------ ---- -- ----- ---- --- --- -----------<br>-- -------,234024,234021,233666.74,233667,233667.38,234024.98,,33,the
screen,html.Screen,2_3_1_0_1_34,2022-05-09T10:17:21.800Z,,,,,,,,,,,,,,,,,2,,,,,,,,,,,,,,316.0199999999895,,response,,,,1,C,,,,,,Space,keypress(Space),,,,instrumental,,,,--- ---- ------ --- ------- ---------- ------- ----------<br>--- --------- --- ----------- ------- ----- ------- ---<br>--------- ---- -- --- ---- -- --------- -- ---- -------<br>-- --------- ------ --- ----- ------ ---- --- sunspots. --<br>------ - ---- -- --- ----------- ------- ---- ----- -----<br>--- -------- - ------ ---- -- ----- ---- --- --- -----------<br>-- -------,234346,234341,234024.26,234024,234024.98,234347.2,,34,sunspots.
screen,html.Screen,2_3_1_0_1_35,2022-05-09T10:17:22.510Z,,,,,,,,,,,,,,,,,2,,,,,,,,,,,,,,706.7999999999884,,response,,,,1,C,,,,,,Space,keypress(Space),,,,instrumental,,,,--- ---- ------ --- ------- ---------- ------- ----------<br>--- --------- --- ----------- ------- ----- ------- ---<br>--------- ---- -- --- ---- -- --------- -- ---- -------<br>-- --------- ------ --- ----- ------ ---- --- --------- He<br>------ - ---- -- --- ----------- ------- ---- ----- -----<br>--- -------- - ------ ---- -- ----- ---- --- --- -----------<br>-- -------,235057,235054,234346.54,234346,234347.2,235057.06,,35,He
screen,html.Screen,2_3_1_0_1_36,2022-05-09T10:17:22.920Z,,,,,,,,,,,,,,,,,2,,,,,,,,,,,,,,404.9400000000023,,response,,,,1,C,,,,,,Space,keypress(Space),,,,instrumental,,,,--- ---- ------ --- ------- ---------- ------- ----------<br>--- --------- --- ----------- ------- ----- ------- ---<br>--------- ---- -- --- ---- -- --------- -- ---- -------<br>-- --------- ------ --- ----- ------ ---- --- --------- --<br>jotted - ---- -- --- ----------- ------- ---- ----- -----<br>--- -------- - ------ ---- -- ----- ---- --- --- -----------<br>-- -------,235466,235462,235056.42,235057,235057.06,235467.48,,36,jotted
screen,html.Screen,2_3_1_0_1_37,2022-05-09T10:17:23.279Z,,,,,,,,,,,,,,,,,2,,,,,,,,,,,,,,354.5199999999895,,response,,,,1,C,,,,,,Space,keypress(Space),,,,instrumental,,,,--- ---- ------ --- ------- ---------- ------- ----------<br>--- --------- --- ----------- ------- ----- ------- ---<br>--------- ---- -- --- ---- -- --------- -- ---- -------<br>-- --------- ------ --- ----- ------ ---- --- --------- --<br>------ a ---- -- --- ----------- ------- ---- ----- -----<br>--- -------- - ------ ---- -- ----- ---- --- --- -----------<br>-- -------,235825,235822,235466.74,235467,235467.48,235825.34,,37,a
screen,html.Screen,2_3_1_0_1_38,2022-05-09T10:17:23.648Z,,,,,,,,,,,,,,,,,2,,,,,,,,,,,,,,364.6600000000035,,response,,,,1,C,,,,,,Space,keypress(Space),,,,instrumental,,,,--- ---- ------ --- ------- ---------- ------- ----------<br>--- --------- --- ----------- ------- ----- ------- ---<br>--------- ---- -- --- ---- -- --------- -- ---- -------<br>-- --------- ------ --- ----- ------ ---- --- --------- --<br>------ - note -- --- ----------- ------- ---- ----- -----<br>--- -------- - ------ ---- -- ----- ---- --- --- -----------<br>-- -------,236194,236190,235824.7,235825,235825.34,236195.42,,38,note
screen,html.Screen,2_3_1_0_1_39,2022-05-09T10:17:24.230Z,,,,,,,,,,,,,,,,,2,,,,,,,,,,,,,,578.5799999999872,,response,,,,1,C,,,,,,Space,keypress(Space),,,,instrumental,,,,--- ---- ------ --- ------- ---------- ------- ----------<br>--- --------- --- ----------- ------- ----- ------- ---<br>--------- ---- -- --- ---- -- --------- -- ---- -------<br>-- --------- ------ --- ----- ------ ---- --- --------- --<br>------ - ---- in --- ----------- ------- ---- ----- -----<br>--- -------- - ------ ---- -- ----- ---- --- --- -----------<br>-- -------,236776,236774,236194.7,236194,236195.42,236776.96,,39,in
screen,html.Screen,2_3_1_0_1_40,2022-05-09T10:17:24.600Z,,,,,,,,,,,,,,,,,2,,,,,,,,,,,,,,365.04000000000815,,response,,,,1,C,,,,,,Space,keypress(Space),,,,instrumental,,,,--- ---- ------ --- ------- ---------- ------- ----------<br>--- --------- --- ----------- ------- ----- ------- ---<br>--------- ---- -- --- ---- -- --------- -- ---- -------<br>-- --------- ------ --- ----- ------ ---- --- --------- --<br>------ - ---- -- his ----------- ------- ---- ----- -----<br>--- -------- - ------ ---- -- ----- ---- --- --- -----------<br>-- -------,237147,237142,236776.3,236776,236776.96,237147.12,,40,his
screen,html.Screen,2_3_1_0_1_41,2022-05-09T10:17:25.150Z,,,,,,,,,,,,,,,,,2,,,,,,,,,,,,,,546.8800000000047,,response,,,,1,C,,,,,,Space,keypress(Space),,,,instrumental,,,,--- ---- ------ --- ------- ---------- ------- ----------<br>--- --------- --- ----------- ------- ----- ------- ---<br>--------- ---- -- --- ---- -- --------- -- ---- -------<br>-- --------- ------ --- ----- ------ ---- --- --------- --<br>------ - ---- -- --- painstaking ------- ---- ----- -----<br>--- -------- - ------ ---- -- ----- ---- --- --- -----------<br>-- -------,237696,237694,237146.54,237147,237147.12,237697.42,,41,painstaking
screen,html.Screen,2_3_1_0_1_42,2022-05-09T10:17:25.712Z,,,,,,,,,,,,,,,,,2,,,,,,,,,,,,,,556.5799999999872,,response,,,,1,C,,,,,,Space,keypress(Space),,,,instrumental,,,,--- ---- ------ --- ------- ---------- ------- ----------<br>--- --------- --- ----------- ------- ----- ------- ---<br>--------- ---- -- --- ---- -- --------- -- ---- -------<br>-- --------- ------ --- ----- ------ ---- --- --------- --<br>------ - ---- -- --- ----------- record. ---- ----- -----<br>--- -------- - ------ ---- -- ----- ---- --- --- -----------<br>-- -------,238259,238254,237696.82,237697,237697.42,238259.34,,42,record.
screen,html.Screen,2_3_1_0_1_43,2022-05-09T10:17:26.174Z,,,,,,,,,,,,,,,,,2,,,,,,,,,,,,,,458.6600000000035,,response,,,,1,C,,,,,,Space,keypress(Space),,,,instrumental,,,,--- ---- ------ --- ------- ---------- ------- ----------<br>--- --------- --- ----------- ------- ----- ------- ---<br>--------- ---- -- --- ---- -- --------- -- ---- -------<br>-- --------- ------ --- ----- ------ ---- --- --------- --<br>------ - ---- -- --- ----------- ------- That ----- -----<br>--- -------- - ------ ---- -- ----- ---- --- --- -----------<br>-- -------,238721,238718,238258.62,238259,238259.34,238721.1,,43,That
screen,html.Screen,2_3_1_0_1_44,2022-05-09T10:17:26.544Z,,,,,,,,,,,,,,,,,2,,,,,,,,,,,,,,364.8999999999942,,response,,,,1,C,,,,,,Space,keypress(Space),,,,instrumental,,,,--- ---- ------ --- ------- ---------- ------- ----------<br>--- --------- --- ----------- ------- ----- ------- ---<br>--------- ---- -- --- ---- -- --------- -- ---- -------<br>-- --------- ------ --- ----- ------ ---- --- --------- --<br>------ - ---- -- --- ----------- ------- ---- night -----<br>--- -------- - ------ ---- -- ----- ---- --- --- -----------<br>-- -------,239091,239086,238720.44,238721,238721.1,239091.24,,44,night
screen,html.Screen,2_3_1_0_1_45,2022-05-09T10:17:26.958Z,,,,,,,,,,,,,,,,,2,,,,,,,,,,,,,,410.7600000000093,,response,,,,1,C,,,,,,Space,keypress(Space),,,,instrumental,,,,--- ---- ------ --- ------- ---------- ------- ----------<br>--- --------- --- ----------- ------- ----- ------- ---<br>--------- ---- -- --- ---- -- --------- -- ---- -------<br>-- --------- ------ --- ----- ------ ---- --- --------- --<br>------ - ---- -- --- ----------- ------- ---- ----- there<br>--- -------- - ------ ---- -- ----- ---- --- --- -----------<br>-- -------,239504,239502,239090.6,239091,239091.24,239505.48,,45,there
screen,html.Screen,2_3_1_0_1_46,2022-05-09T10:17:27.361Z,,,,,,,,,,,,,,,,,2,,,,,,,,,,,,,,396.5199999999895,,response,,,,1,C,,,,,,Space,keypress(Space),,,,instrumental,,,,--- ---- ------ --- ------- ---------- ------- ----------<br>--- --------- --- ----------- ------- ----- ------- ---<br>--------- ---- -- --- ---- -- --------- -- ---- -------<br>-- --------- ------ --- ----- ------ ---- --- --------- --<br>------ - ---- -- --- ----------- ------- ---- ----- -----<br>was -------- - ------ ---- -- ----- ---- --- --- -----------<br>-- -------,239906,239902,239504.84,239505,239505.48,239907.6,,46,was
screen,html.Screen,2_3_1_0_1_47,2022-05-09T10:17:27.830Z,,,,,,,,,,,,,,,,,2,,,,,,,,,,,,,,466.3999999999942,,response,,,,1,C,,,,,,Space,keypress(Space),,,,instrumental,,,,--- ---- ------ --- ------- ---------- ------- ----------<br>--- --------- --- ----------- ------- ----- ------- ---<br>--------- ---- -- --- ---- -- --------- -- ---- -------<br>-- --------- ------ --- ----- ------ ---- --- --------- --<br>------ - ---- -- --- ----------- ------- ---- ----- -----<br>--- scarcely - ------ ---- -- ----- ---- --- --- -----------<br>-- -------,240376,240374,239906.9,239906,239907.6,240377.58,,47,scarcely
screen,html.Screen,2_3_1_0_1_48,2022-05-09T10:17:28.272Z,,,,,,,,,,,,,,,,,2,,,,,,,,,,,,,,435.4200000000128,,response,,,,1,C,,,,,,Space,keypress(Space),,,,instrumental,,,,--- ---- ------ --- ------- ---------- ------- ----------<br>--- --------- --- ----------- ------- ----- ------- ---<br>--------- ---- -- --- ---- -- --------- -- ---- -------<br>-- --------- ------ --- ----- ------ ---- --- --------- --<br>------ - ---- -- --- ----------- ------- ---- ----- -----<br>--- -------- a ------ ---- -- ----- ---- --- --- -----------<br>-- -------,240818,240813,240376.9,240376,240377.58,240819.34,,48,a
