sender,sender_type,sender_id,timestamp,meta,,Blues,Classical,Country,Dance,Electronic,Folk,Gospel,Hip-Hop,Jazz,Latin,Musical/Film,New-age,Pop,Prolific_id,Provo_ID,R&B,Rap,Reggae,Religious,Rock,Soul,Swing,Traditional,age,artist_name,correct,correctResponse,distraction,duration,education,ended_on,familiarity,gender,headphone_check_performance,item,list,music_frequency,offensiveness,pleasantness,position_correct,preference,response,response_action,snippet_file,song_name,song_rating,sound,stimulus_1,stimulus_2,stimulus_3,text,time_commit,time_end,time_render,time_run,time_show,time_switch,url,word,word_ID
Prolific ID,html.Form,0,2022-05-04T09:11:09.693Z,"{""labjs_version"":""20.2.2"",""labjs_build"":{""flavor"":""production"",""commit"":""a25486e0c714a0ae2ce03ff94b7bb6896854dcfa""},""location"":""https://run.pavlovia.org/mvasilev/prolific3_music_b/"",""userAgent"":""Mozilla/5.0 (Windows NT 10.0; Win64; x64) AppleWebKit/537.36 (KHTML, like Gecko) Chrome/100.0.4896.127 Safari/537.36"",""platform"":""Win32"",""language"":""en-GB"",""locale"":""en-GB"",""timeZone"":""Europe/London"",""timezoneOffset"":-60,""screen_width"":1280,""screen_height"":720,""scroll_width"":1268,""scroll_height"":562,""window_innerWidth"":1268,""window_innerHeight"":562,""devicePixelRatio"":2.5}",,,,,,,,,,,,,,,5f9160442946fa044a722175,,,,,,,,,,,,,,,104585.94699998808,,form submission,,,,,,,,,,,,,,,,,,,,,116318.80000001192,116318.19999998808,11715.209,11718.5,11732.253,116332.539,{},,
Introduction,html.Screen,1_0,2022-05-04T09:11:54.338Z,,,,,,,,,,,,,,,,,,,,,,,,,,,,,,,44628.76100001192,,response,,,,,,,,,,,continue,click button,,,,,,,,,160963.69999998808,160961.30000001192,116316.118,116319.19999998808,116332.539,160966.042,,,
Volume calibration,html.Screen,1_1,2022-05-04T09:12:42.184Z,,,,,,,,,,,,,,,,,,,,,,,,,,,,,,,47839.95800000001,,response,,,,,,,,,,,continue,click button,,,,,,,,,208809.39999997616,208806,160949.678,160963.80000001192,160966.042,208816.18,,,
Task instructions,html.Screen,1_2,2022-05-04T09:12:55.143Z,,,,,,,,,,,,,,,,,,,,,,,,,,,,,,,12951.519999988086,,response,,,,,,,,,,,continue,click button,,,,,,,,,221768.5,221767.69999998808,208799.882,208809.5,208816.18,221782.934,,,
Sounds,html.Screen,1_3_0_0,2022-05-04T09:12:59.401Z,,,,,,,,,,,,,,,,,,,,,,,,,,,,,,,4250.141000000003,,timeout,,,,,,,,,2,,,,,,,,O,S,I,,226026,226016.546,221766.248,221768.69999998808,221782.934,226033.075,,,
Judgement,html.Screen,1_3_0_1,2022-05-04T09:13:00.441Z,,,,,,,,,,,,,,,,,,,,,,,,,,,,true,2,,1032.1249999880674,,response,,,,,,,,,2,,2,click #choice-2,,,,,O,S,I,,227066.39999997616,227065.19999998808,226016.546,226026.5,226033.075,227097.661,,,
Trial,flow.Sequence,1_3_0,2022-05-04T09:13:00.441Z,,,,,,,,,,,,,,,,,,,,,,,,,,,,,,,5282.265999988071,,completion,,,,,,,,,2,,,,,,,,O,S,I,,227066.59999996424,227065.19999998808,221766.248,221768.59999996424,221782.934,227097.661,,,
Sounds,html.Screen,1_3_1_0,2022-05-04T09:13:04.709Z,,,,,,,,,,,,,,,,,,,,,,,,,,,,,,,4252.0350000000035,,timeout,,,,,,,,,1,,,,,,,,S,O,I,,231334,231333.029,227049.812,227066.80000001192,227097.661,231349.696,,,
Judgement,html.Screen,1_3_1_1,2022-05-04T09:13:05.456Z,,,,,,,,,,,,,,,,,,,,,,,,,,,,true,1,,731.4039999642409,,response,,,,,,,,,1,,1,click #choice-1,,,,,S,O,I,,232081.80000001192,232081.09999996424,231333.029,231334.09999996424,231349.696,232082.97,,,
Trial,flow.Sequence,1_3_1,2022-05-04T09:13:05.457Z,,,,,,,,,,,,,,,,,,,,,,,,,,,,,,,4983.438999964244,,completion,,,,,,,,,1,,,,,,,,S,O,I,,232082,232081.09999996424,227049.812,227066.80000001192,227097.661,232082.97,,,
Sounds,html.Screen,1_3_2_0,2022-05-04T09:13:09.693Z,,,,,,,,,,,,,,,,,,,,,,,,,,,,,,,4250.108999999997,,timeout,,,,,,,,,1,,,,,,,,S,I,O,,236318.39999997616,236316.345,232066.621,232082.09999996424,232082.97,236333.079,,,
Judgement,html.Screen,1_3_2_1,2022-05-04T09:13:10.617Z,,,,,,,,,,,,,,,,,,,,,,,,,,,,true,1,,909.0209999642393,,response,,,,,,,,,1,,1,click #choice-1,,,,,S,I,O,,237243,237242.09999996424,236316.345,236318.69999998808,236333.079,237249.775,,,
Trial,flow.Sequence,1_3_2,2022-05-04T09:13:10.618Z,,,,,,,,,,,,,,,,,,,,,,,,,,,,,,,5159.129999964236,,completion,,,,,,,,,1,,,,,,,,S,I,O,,237243.09999996424,237242.09999996424,232066.621,232082.09999996424,232082.97,237249.775,,,
Sounds,html.Screen,1_3_3_0,2022-05-04T09:13:14.860Z,,,,,,,,,,,,,,,,,,,,,,,,,,,,,,,4249.936000000016,,timeout,,,,,,,,,3,,,,,,,,O,I,S,,241485.5,241483.138,237233.304,237243.30000001192,237249.775,241499.711,,,
Judgement,html.Screen,1_3_3_1,2022-05-04T09:13:15.521Z,,,,,,,,,,,,,,,,,,,,,,,,,,,,true,3,,646.4889999880688,,response,,,,,,,,,3,,3,click #choice-3,,,,,O,I,S,,242147,242146.19999998808,241483.138,241485.80000001192,241499.711,242149.633,,,
Trial,flow.Sequence,1_3_3,2022-05-04T09:13:15.522Z,,,,,,,,,,,,,,,,,,,,,,,,,,,,,,,4896.424999988085,,completion,,,,,,,,,3,,,,,,,,O,I,S,,242147.09999996424,242146.19999998808,237233.304,237243.19999998808,237249.775,242149.633,,,
Sounds,html.Screen,1_3_4_0,2022-05-04T09:13:19.760Z,,,,,,,,,,,,,,,,,,,,,,,,,,,,,,,4250.127000000008,,timeout,,,,,,,,,3,,,,,,,,I,O,S,,246385.19999998808,246383.186,242133.279,242147.19999998808,242149.633,246399.76,,,
Judgement,html.Screen,1_3_4_1,2022-05-04T09:13:20.322Z,,,,,,,,,,,,,,,,,,,,,,,,,,,,true,3,,547.4399999880698,,response,,,,,,,,,3,,3,click #choice-3,,,,,I,O,S,,246948,246947.19999998808,246383.186,246385.59999996424,246399.76,246949.682,,,
Trial,flow.Sequence,1_3_4,2022-05-04T09:13:20.323Z,,,,,,,,,,,,,,,,,,,,,,,,,,,,,,,4797.566999988077,,completion,,,,,,,,,3,,,,,,,,I,O,S,,246948.19999998808,246947.19999998808,242133.279,242147.19999998808,242149.633,246949.682,,,
Sounds,html.Screen,1_3_5_0,2022-05-04T09:13:24.559Z,,,,,,,,,,,,,,,,,,,,,,,,,,,,,,,4250.016000000003,,timeout,,,,,,,,,2,,,,,,,,I,S,O,,251184.69999998808,251183.05,246933.164,246948.19999998808,246949.682,251199.698,,,
Judgement,html.Screen,1_3_5_1,2022-05-04T09:13:25.011Z,,,,,,,,,,,,,,,,,,,,,,,,,,,,true,2,,435.40199996423326,,response,,,,,,,,,2,,2,click #choice-2,,,,,I,S,O,,251636.09999996424,251635.09999996424,251183.05,251185,251199.698,251649.687,,,
Trial,flow.Sequence,1_3_5,2022-05-04T09:13:25.011Z,,,,,,,,,,,,,,,,,,,,,,,,,,,,,,,4685.4179999642365,,completion,,,,,,,,,2,,,,,,,,I,S,O,,251636.19999998808,251635.09999996424,246933.164,246948.19999998808,246949.682,251649.687,,,
Task,flow.Loop,1_3,2022-05-04T09:13:25.016Z,,,,,,,,,,,,,,,,,,,,,,,,,,,,,,,29852.16599996423,,completion,,,1,,,,,,,,,,,,,,,,,,251641.19999998808,251635.09999996424,221766.248,221768.59999996424,221782.934,251649.687,,,
Trap,html.Screen,1_4,2022-05-04T09:13:25.017Z,,,,,,,,,,,,,,,,,,,,,,,,,,,,,,,NaN,,skipped,,,,,,,,,,,,,,,,,,,,,251642.09999996424,251635.09999996424,,251642.09999996424,,251649.687,,,
Thanks,html.Screen,1_5,2022-05-04T09:13:28.499Z,,,,,,,,,,,,,,,,,,,,,,,,,,,,,,,3474.5129999880737,,response,,,,,,,,,,,continue,click button,,,,,,,,,255125,255124.19999998808,251633.192,251642.19999998808,251649.687,260716.445,,,
Headphone screening,flow.Sequence,1,2022-05-04T09:13:28.500Z,,,,,,,,,,,,,,,,,,,,,,,,,,,,,,,138791.6609999881,,completion,,,,,,,,,,,,,,,,,,,,,255125.09999996424,255124.19999998808,116316.118,116319.09999996424,116332.539,260716.445,,,
Instructions,html.Page,2_0,2022-05-04T09:14:05.857Z,,,,,,,,,,,,,,,,,,,,,,,,,,,,,,,31765.554999999993,,form submission,,,,,,,,,,,,,,,,,,,,,292482.1999999881,292482,260683.036,260724.89999997616,260716.445,292483.153,,,
Holding screen,html.Screen,2_1_0_0,2022-05-04T09:14:15.842Z,,,,,,,,,,,,,,,,,,,,,,,,,,,,,,,10033.515000000014,,timeout,,,,,,,,,,,,,,,,,,,,,302468.39999997616,302466.815,292466.691,292482.3000000119,292483.153,302516.668,,,
screen,html.Screen,2_1_0_1_0,2022-05-04T09:14:17.090Z,,,,,,,,,,,,,,,,,53,,,,,,,,,,,,,,1189.3319999999949,,response,,,,99,,,,,,,Space,keypress(Space),,,,,,,,When -- ----- -- ------ - ------- --- ----------<br>------------- ------ ------ ---- ---- ------- ----- -- ----<br>-------- ------- -- ---------- --- - --- ----- ----- ----<br>---- --- --- ----- --- ---- ---- ------- ----- ---- -------<br>--- --- -- ----- -- --- ---- -- --- ---- -- ------ ------<br>--- ----- -- ----,303716.39999997616,303706,302466.815,302469,302516.668,303716.672,,0,When
screen,html.Screen,2_1_0_1_1,2022-05-04T09:14:17.601Z,,,,,,,,,,,,,,,,,53,,,,,,,,,,,,,,508.62800001190044,,response,,,,99,,,,,,,Space,keypress(Space),,,,,,,,---- it ----- -- ------ - ------- --- ----------<br>------------- ------ ------ ---- ---- ------- ----- -- ----<br>-------- ------- -- ---------- --- - --- ----- ----- ----<br>---- --- --- ----- --- ---- ---- ------- ----- ---- -------<br>--- --- -- ----- -- --- ---- -- --- ---- -- ------ ------<br>--- ----- -- ----,304227.39999997616,304225.3000000119,303700.03,303717.3000000119,303716.672,304233.348,,1,it
screen,html.Screen,2_1_0_1_2,2022-05-04T09:14:18.072Z,,,,,,,,,,,,,,,,,53,,,,,,,,,,,,,,461.9520000119228,,response,,,,99,,,,,,,Space,keypress(Space),,,,,,,,---- -- comes -- ------ - ------- --- ----------<br>------------- ------ ------ ---- ---- ------- ----- -- ----<br>-------- ------- -- ---------- --- - --- ----- ----- ----<br>---- --- --- ----- --- ---- ---- ------- ----- ---- -------<br>--- --- -- ----- -- --- ---- -- --- ---- -- ------ ------<br>--- ----- -- ----,304697.89999997616,304695.3000000119,304216.719,304227.8000000119,304233.348,304720.832,,2,comes
screen,html.Screen,2_1_0_1_3,2022-05-04T09:14:18.480Z,,,,,,,,,,,,,,,,,53,,,,,,,,,,,,,,383.3679999880842,,response,,,,99,,,,,,,Space,keypress(Space),,,,,,,,---- -- ----- to ------ - ------- --- ----------<br>------------- ------ ------ ---- ---- ------- ----- -- ----<br>-------- ------- -- ---------- --- - --- ----- ----- ----<br>---- --- --- ----- --- ---- ---- ------- ----- ---- -------<br>--- --- -- ----- -- --- ---- -- --- ---- -- ------ ------<br>--- ----- -- ----,305105.89999997616,305104.1999999881,304683.47,304698.3000000119,304720.832,305116.662,,3,to
screen,html.Screen,2_1_0_1_4,2022-05-04T09:14:18.942Z,,,,,,,,,,,,,,,,,53,,,,,,,,,,,,,,449.3379999999888,,response,,,,99,,,,,,,Space,keypress(Space),,,,,,,,---- -- ----- -- having - ------- --- ----------<br>------------- ------ ------ ---- ---- ------- ----- -- ----<br>-------- ------- -- ---------- --- - --- ----- ----- ----<br>---- --- --- ----- --- ---- ---- ------- ----- ---- -------<br>--- --- -- ----- -- --- ---- -- --- ---- -- ------ ------<br>--- ----- -- ----,305567.8000000119,305566,305100.167,305106.3000000119,305116.662,305583.582,,4,having
screen,html.Screen,2_1_0_1_5,2022-05-04T09:14:19.383Z,,,,,,,,,,,,,,,,,53,,,,,,,,,,,,,,424.1179999880842,,response,,,,99,,,,,,,Space,keypress(Space),,,,,,,,---- -- ----- -- ------ a ------- --- ----------<br>------------- ------ ------ ---- ---- ------- ----- -- ----<br>-------- ------- -- ---------- --- - --- ----- ----- ----<br>---- --- --- ----- --- ---- ---- ------- ----- ---- -------<br>--- --- -- ----- -- --- ---- -- --- ---- -- ------ ------<br>--- ----- -- ----,306009.39999997616,306007.6999999881,305566.699,305568.09999996424,305583.582,306016.685,,5,a
screen,html.Screen,2_1_0_1_6,2022-05-04T09:14:19.844Z,,,,,,,,,,,,,,,,,53,,,,,,,,,,,,,,451.8150000000023,,response,,,,99,,,,,,,Space,keypress(Space),,,,,,,,---- -- ----- -- ------ - lasting --- ----------<br>------------- ------ ------ ---- ---- ------- ----- -- ----<br>-------- ------- -- ---------- --- - --- ----- ----- ----<br>---- --- --- ----- --- ---- ---- ------- ----- ---- -------<br>--- --- -- ----- -- --- ---- -- --- ---- -- ------ ------<br>--- ----- -- ----,306470.1999999881,306468.5,306000.053,306009.6999999881,306016.685,306483.33,,6,lasting
screen,html.Screen,2_1_0_1_7,2022-05-04T09:14:20.292Z,,,,,,,,,,,,,,,,,53,,,,,,,,,,,,,,432.7699999642209,,response,,,,99,,,,,,,Space,keypress(Space),,,,,,,,---- -- ----- -- ------ - ------- and ----------<br>------------- ------ ------ ---- ---- ------- ----- -- ----<br>-------- ------- -- ---------- --- - --- ----- ----- ----<br>---- --- --- ----- --- ---- ---- ------- ----- ---- -------<br>--- --- -- ----- -- --- ---- -- --- ---- -- ------ ------<br>--- ----- -- ----,306918,306916.09999996424,306466.802,306470.5,306483.33,306933.304,,7,and
screen,html.Screen,2_1_0_1_8,2022-05-04T09:14:20.798Z,,,,,,,,,,,,,,,,,53,,,,,,,,,,,,,,489.0959999761544,,response,,,,99,,,,,,,Space,keypress(Space),,,,,,,,---- -- ----- -- ------ - ------- --- fulfilling<br>------------- ------ ------ ---- ---- ------- ----- -- ----<br>-------- ------- -- ---------- --- - --- ----- ----- ----<br>---- --- --- ----- --- ---- ---- ------- ----- ---- -------<br>--- --- -- ----- -- --- ---- -- --- ---- -- ------ ------<br>--- ----- -- ----,307424.1999999881,307422.39999997616,306916.738,306918.3000000119,306933.304,307433.359,,8,fulfilling
screen,html.Screen,2_1_0_1_9,2022-05-04T09:14:21.250Z,,,,,,,,,,,,,,,,,53,,,,,,,,,,,,,,440.64100000000326,,response,,,,99,,,,,,,Space,keypress(Space),,,,,,,,"---- -- ----- -- ------ - ------- --- ----------<br>relationship, ------ ------ ---- ---- ------- ----- -- ----<br>-------- ------- -- ---------- --- - --- ----- ----- ----<br>---- --- --- ----- --- ---- ---- ------- ----- ---- -------<br>--- --- -- ----- -- --- ---- -- --- ---- -- ------ ------<br>--- ----- -- ----",307876,307874,307416.712,307424.6999999881,307433.359,307883.307,,9,"relationship,"
screen,html.Screen,2_1_0_1_10,2022-05-04T09:14:21.612Z,,,,,,,,,,,,,,,,,53,,,,,,,,,,,,,,352.8929999881075,,response,,,,99,,,,,,,Space,keypress(Space),,,,,,,,---- -- ----- -- ------ - ------- --- ----------<br>------------- common ------ ---- ---- ------- ----- -- ----<br>-------- ------- -- ---------- --- - --- ----- ----- ----<br>---- --- --- ----- --- ---- ---- ------- ----- ---- -------<br>--- --- -- ----- -- --- ---- -- --- ---- -- ------ ------<br>--- ----- -- ----,308238,308236.1999999881,307866.815,307876.59999996424,307883.307,308249.943,,10,common
screen,html.Screen,2_1_0_1_11,2022-05-04T09:14:22.041Z,,,,,,,,,,,,,,,,,53,,,,,,,,,,,,,,415.5569999999716,,response,,,,99,,,,,,,Space,keypress(Space),,,,,,,,---- -- ----- -- ------ - ------- --- ----------<br>------------- ------ wisdom ---- ---- ------- ----- -- ----<br>-------- ------- -- ---------- --- - --- ----- ----- ----<br>---- --- --- ----- --- ---- ---- ------- ----- ---- -------<br>--- --- -- ----- -- --- ---- -- --- ---- -- ------ ------<br>--- ----- -- ----,308667.39999997616,308665.5,308233.42,308238.39999997616,308249.943,308683.55,,11,wisdom
screen,html.Screen,2_1_0_1_12,2022-05-04T09:14:22.392Z,,,,,,,,,,,,,,,,,53,,,,,,,,,,,,,,332.75000001193257,,response,,,,99,,,,,,,Space,keypress(Space),,,,,,,,---- -- ----- -- ------ - ------- --- ----------<br>------------- ------ ------ says ---- ------- ----- -- ----<br>-------- ------- -- ---------- --- - --- ----- ----- ----<br>---- --- --- ----- --- ---- ---- ------- ----- ---- -------<br>--- --- -- ----- -- --- ---- -- --- ---- -- ------ ------<br>--- ----- -- ----,309018.1999999881,309016.3000000119,308666.832,308667.6999999881,308683.55,309033.484,,12,says
screen,html.Screen,2_1_0_1_13,2022-05-04T09:14:22.750Z,,,,,,,,,,,,,,,,,53,,,,,,,,,,,,,,341.4159999761614,,response,,,,99,,,,,,,Space,keypress(Space),,,,,,,,---- -- ----- -- ------ - ------- --- ----------<br>------------- ------ ------ ---- that ------- ----- -- ----<br>-------- ------- -- ---------- --- - --- ----- ----- ----<br>---- --- --- ----- --- ---- ---- ------- ----- ---- -------<br>--- --- -- ----- -- --- ---- -- --- ---- -- ------ ------<br>--- ----- -- ----,309376.39999997616,309374.89999997616,309016.833,309018.6999999881,309033.484,309383.344,,13,that
screen,html.Screen,2_1_0_1_14,2022-05-04T09:14:23.184Z,,,,,,,,,,,,,,,,,53,,,,,,,,,,,,,,424.55599997617537,,response,,,,99,,,,,,,Space,keypress(Space),,,,,,,,---- -- ----- -- ------ - ------- --- ----------<br>------------- ------ ------ ---- ---- feeling ----- -- ----<br>-------- ------- -- ---------- --- - --- ----- ----- ----<br>---- --- --- ----- --- ---- ---- ------- ----- ---- -------<br>--- --- -- ----- -- --- ---- -- --- ---- -- ------ ------<br>--- ----- -- ----,309809.89999997616,309807.89999997616,309366.823,309376.8000000119,309383.344,309816.689,,14,feeling
screen,html.Screen,2_1_0_1_15,2022-05-04T09:14:23.543Z,,,,,,,,,,,,,,,,,53,,,,,,,,,,,,,,350.31099999998696,,response,,,,99,,,,,,,Space,keypress(Space),,,,,,,,---- -- ----- -- ------ - ------- --- ----------<br>------------- ------ ------ ---- ---- ------- close -- ----<br>-------- ------- -- ---------- --- - --- ----- ----- ----<br>---- --- --- ----- --- ---- ---- ------- ----- ---- -------<br>--- --- -- ----- -- --- ---- -- --- ---- -- ------ ------<br>--- ----- -- ----,310168.6999999881,310167,309800.21,309810.3000000119,309816.689,310183.491,,15,close
screen,html.Screen,2_1_0_1_16,2022-05-04T09:14:23.837Z,,,,,,,,,,,,,,,,,53,,,,,,,,,,,,,,278.30900001194095,,response,,,,99,,,,,,,Space,keypress(Space),,,,,,,,---- -- ----- -- ------ - ------- --- ----------<br>------------- ------ ------ ---- ---- ------- ----- to ----<br>-------- ------- -- ---------- --- - --- ----- ----- ----<br>---- --- --- ----- --- ---- ---- ------- ----- ---- -------<br>--- --- -- ----- -- --- ---- -- --- ---- -- ------ ------<br>--- ----- -- ----,310463.5,310461.8000000119,310166.579,310169.09999996424,310183.491,310466.692,,16,to
screen,html.Screen,2_1_0_1_17,2022-05-04T09:14:24.284Z,,,,,,,,,,,,,,,,,53,,,,,,,,,,,,,,441.8080000000191,,response,,,,99,,,,,,,Space,keypress(Space),,,,,,,,---- -- ----- -- ------ - ------- --- ----------<br>------------- ------ ------ ---- ---- ------- ----- -- your<br>-------- ------- -- ---------- --- - --- ----- ----- ----<br>---- --- --- ----- --- ---- ---- ------- ----- ---- -------<br>--- --- -- ----- -- --- ---- -- --- ---- -- ------ ------<br>--- ----- -- ----,310910.09999996424,310908.5,310450.035,310463.8000000119,310466.692,310916.709,,17,your
screen,html.Screen,2_1_0_1_18,2022-05-04T09:14:24.704Z,,,,,,,,,,,,,,,,,53,,,,,,,,,,,,,,411.9909999881056,,response,,,,99,,,,,,,Space,keypress(Space),,,,,,,,---- -- ----- -- ------ - ------- --- ----------<br>------------- ------ ------ ---- ---- ------- ----- -- ----<br>romantic ------- -- ---------- --- - --- ----- ----- ----<br>---- --- --- ----- --- ---- ---- ------- ----- ---- -------<br>--- --- -- ----- -- --- ---- -- --- ---- -- ------ ------<br>--- ----- -- ----,311329.5,311328.6999999881,310900.223,310910.39999997616,310916.709,311333.215,,18,romantic
screen,html.Screen,2_1_0_1_19,2022-05-04T09:14:25.052Z,,,,,,,,,,,,,,,,,53,,,,,,,,,,,,,,342.7849999999744,,response,,,,99,,,,,,,Space,keypress(Space),,,,,,,,---- -- ----- -- ------ - ------- --- ----------<br>------------- ------ ------ ---- ---- ------- ----- -- ----<br>-------- partner -- ---------- --- - --- ----- ----- ----<br>---- --- --- ----- --- ---- ---- ------- ----- ---- -------<br>--- --- -- ----- -- --- ---- -- --- ---- -- ------ ------<br>--- ----- -- ----,311677.6999999881,311676,311316.716,311329.59999996424,311333.215,311683.324,,19,partner
screen,html.Screen,2_1_0_1_20,2022-05-04T09:14:25.406Z,,,,,,,,,,,,,,,,,53,,,,,,,,,,,,,,347.5759999761358,,response,,,,99,,,,,,,Space,keypress(Space),,,,,,,,---- -- ----- -- ------ - ------- --- ----------<br>------------- ------ ------ ---- ---- ------- ----- -- ----<br>-------- ------- is ---------- --- - --- ----- ----- ----<br>---- --- --- ----- --- ---- ---- ------- ----- ---- -------<br>--- --- -- ----- -- --- ---- -- --- ---- -- ------ ------<br>--- ----- -- ----,312031.89999997616,312030.89999997616,311666.618,311678,311683.324,312061.929,,20,is
screen,html.Screen,2_1_0_1_21,2022-05-04T09:14:25.720Z,,,,,,,,,,,,,,,,,53,,,,,,,,,,,,,,283.6709999642335,,response,,,,99,,,,,,,Space,keypress(Space),,,,,,,,---- -- ----- -- ------ - ------- --- ----------<br>------------- ------ ------ ---- ---- ------- ----- -- ----<br>-------- ------- -- paramount. --- - --- ----- ----- ----<br>---- --- --- ----- --- ---- ---- ------- ----- ---- -------<br>--- --- -- ----- -- --- ---- -- --- ---- -- ------ ------<br>--- ----- -- ----,312346.1999999881,312345.59999996424,312016.785,312032,312061.929,312349.986,,21,paramount.
screen,html.Screen,2_1_0_1_22,2022-05-04T09:14:26.107Z,,,,,,,,,,,,,,,,,53,,,,,,,,,,,,,,380.8140000119456,,response,,,,99,,,,,,,Space,keypress(Space),,,,,,,,---- -- ----- -- ------ - ------- --- ----------<br>------------- ------ ------ ---- ---- ------- ----- -- ----<br>-------- ------- -- ---------- But - --- ----- ----- ----<br>---- --- --- ----- --- ---- ---- ------- ----- ---- -------<br>--- --- -- ----- -- --- ---- -- --- ---- -- ------ ------<br>--- ----- -- ----,312732.59999996424,312730.8000000119,312333.399,312346.3000000119,312349.986,312750.224,,22,But
screen,html.Screen,2_1_0_1_23,2022-05-04T09:14:26.422Z,,,,,,,,,,,,,,,,,53,,,,,,,,,,,,,,295.5760000119335,,response,,,,99,,,,,,,Space,keypress(Space),,,,,,,,---- -- ----- -- ------ - ------- --- ----------<br>------------- ------ ------ ---- ---- ------- ----- -- ----<br>-------- ------- -- ---------- --- a --- ----- ----- ----<br>---- --- --- ----- --- ---- ---- ------- ----- ---- -------<br>--- --- -- ----- -- --- ---- -- --- ---- -- ------ ------<br>--- ----- -- ----,313048,313045.8000000119,312733.309,312732.89999997616,312750.224,313083.324,,23,a
screen,html.Screen,2_1_0_1_24,2022-05-04T09:14:26.793Z,,,,,,,,,,,,,,,,,53,,,,,,,,,,,,,,334.17599999997765,,response,,,,99,,,,,,,Space,keypress(Space),,,,,,,,---- -- ----- -- ------ - ------- --- ----------<br>------------- ------ ------ ---- ---- ------- ----- -- ----<br>-------- ------- -- ---------- --- - new ----- ----- ----<br>---- --- --- ----- --- ---- ---- ------- ----- ---- -------<br>--- --- -- ----- -- --- ---- -- --- ---- -- ------ ------<br>--- ----- -- ----,313419.09999996424,313417.5,313076.133,313048.59999996424,313083.324,313433.478,,24,new
screen,html.Screen,2_1_0_1_25,2022-05-04T09:14:27.154Z,,,,,,,,,,,,,,,,,53,,,,,,,,,,,,,,344.42199997615535,,response,,,,99,,,,,,,Space,keypress(Space),,,,,,,,---- -- ----- -- ------ - ------- --- ----------<br>------------- ------ ------ ---- ---- ------- ----- -- ----<br>-------- ------- -- ---------- --- - --- study ----- ----<br>---- --- --- ----- --- ---- ---- ------- ----- ---- -------<br>--- --- -- ----- -- --- ---- -- --- ---- -- ------ ------<br>--- ----- -- ----,313779.5,313777.89999997616,313416.84,313419.5,313433.478,313783.618,,25,study
screen,html.Screen,2_1_0_1_26,2022-05-04T09:14:27.494Z,,,,,,,,,,,,,,,,,53,,,,,,,,,,,,,,334.88199999998324,,response,,,,99,,,,,,,Space,keypress(Space),,,,,,,,---- -- ----- -- ------ - ------- --- ----------<br>------------- ------ ------ ---- ---- ------- ----- -- ----<br>-------- ------- -- ---------- --- - --- ----- finds ----<br>---- --- --- ----- --- ---- ---- ------- ----- ---- -------<br>--- --- -- ----- -- --- ---- -- --- ---- -- ------ ------<br>--- ----- -- ----,314120.1999999881,314118.5,313766.839,313779.89999997616,313783.618,314133.452,,26,finds
screen,html.Screen,2_1_0_1_27,2022-05-04T09:14:27.863Z,,,,,,,,,,,,,,,,,53,,,,,,,,,,,,,,354.0480000000098,,response,,,,99,,,,,,,Space,keypress(Space),,,,,,,,---- -- ----- -- ------ - ------- --- ----------<br>------------- ------ ------ ---- ---- ------- ----- -- ----<br>-------- ------- -- ---------- --- - --- ----- ----- that<br>---- --- --- ----- --- ---- ---- ------- ----- ---- -------<br>--- --- -- ----- -- --- ---- -- --- ---- -- ------ ------<br>--- ----- -- ----,314489.1999999881,314487.5,314116.885,314120.5,314133.452,314500.061,,27,that
screen,html.Screen,2_1_0_1_28,2022-05-04T09:14:28.196Z,,,,,,,,,,,,,,,,,53,,,,,,,,,,,,,,320.6389999880921,,response,,,,99,,,,,,,Space,keypress(Space),,,,,,,,---- -- ----- -- ------ - ------- --- ----------<br>------------- ------ ------ ---- ---- ------- ----- -- ----<br>-------- ------- -- ---------- --- - --- ----- ----- ----<br>it's --- --- ----- --- ---- ---- ------- ----- ---- -------<br>--- --- -- ----- -- --- ---- -- --- ---- -- ------ ------<br>--- ----- -- ----,314822.39999997616,314820.6999999881,314483.504,314489.59999996424,314500.061,314833.39,,28,it's
screen,html.Screen,2_1_0_1_29,2022-05-04T09:14:28.494Z,,,,,,,,,,,,,,,,,53,,,,,,,,,,,,,,285.20999996422324,,response,,,,99,,,,,,,Space,keypress(Space),,,,,,,,---- -- ----- -- ------ - ------- --- ----------<br>------------- ------ ------ ---- ---- ------- ----- -- ----<br>-------- ------- -- ---------- --- - --- ----- ----- ----<br>---- not --- ----- --- ---- ---- ------- ----- ---- -------<br>--- --- -- ----- -- --- ---- -- --- ---- -- ------ ------<br>--- ----- -- ----,315119.6999999881,315118.59999996424,314816.759,314822.8000000119,314833.39,315133.498,,29,not
screen,html.Screen,2_1_0_1_30,2022-05-04T09:14:28.806Z,,,,,,,,,,,,,,,,,53,,,,,,,,,,,,,,297.1019999642158,,response,,,,99,,,,,,,Space,keypress(Space),,,,,,,,---- -- ----- -- ------ - ------- --- ----------<br>------------- ------ ------ ---- ---- ------- ----- -- ----<br>-------- ------- -- ---------- --- - --- ----- ----- ----<br>---- --- how ----- --- ---- ---- ------- ----- ---- -------<br>--- --- -- ----- -- --- ---- -- --- ---- -- ------ ------<br>--- ----- -- ----,315431.5,315430.59999996424,315116.838,315119.89999997616,315133.498,315452.163,,30,how
screen,html.Screen,2_1_0_1_31,2022-05-04T09:14:29.247Z,,,,,,,,,,,,,,,,,53,,,,,,,,,,,,,,419.5369999880786,,response,,,,99,,,,,,,Space,keypress(Space),,,,,,,,---- -- ----- -- ------ - ------- --- ----------<br>------------- ------ ------ ---- ---- ------- ----- -- ----<br>-------- ------- -- ---------- --- - --- ----- ----- ----<br>---- --- --- close --- ---- ---- ------- ----- ---- -------<br>--- --- -- ----- -- --- ---- -- --- ---- -- ------ ------<br>--- ----- -- ----,315873.3000000119,315871.6999999881,315416.752,315431.8000000119,315452.163,315883.366,,31,close
screen,html.Screen,2_1_0_1_32,2022-05-04T09:14:29.521Z,,,,,,,,,,,,,,,,,53,,,,,,,,,,,,,,262.03399997617817,,response,,,,99,,,,,,,Space,keypress(Space),,,,,,,,---- -- ----- -- ------ - ------- --- ----------<br>------------- ------ ------ ---- ---- ------- ----- -- ----<br>-------- ------- -- ---------- --- - --- ----- ----- ----<br>---- --- --- ----- you ---- ---- ------- ----- ---- -------<br>--- --- -- ----- -- --- ---- -- --- ---- -- ------ ------<br>--- ----- -- ----,316147.3000000119,316145.39999997616,315866.798,315873.6999999881,315883.366,316149.989,,32,you
screen,html.Screen,2_1_0_1_33,2022-05-04T09:14:29.787Z,,,,,,,,,,,,,,,,,53,,,,,,,,,,,,,,261.0109999999986,,response,,,,99,,,,,,,Space,keypress(Space),,,,,,,,---- -- ----- -- ------ - ------- --- ----------<br>------------- ------ ------ ---- ---- ------- ----- -- ----<br>-------- ------- -- ---------- --- - --- ----- ----- ----<br>---- --- --- ----- --- feel ---- ------- ----- ---- -------<br>--- --- -- ----- -- --- ---- -- --- ---- -- ------ ------<br>--- ----- -- ----,316412.89999997616,316411,316133.511,316147.59999996424,316149.989,316416.705,,33,feel
screen,html.Screen,2_1_0_1_34,2022-05-04T09:14:30.054Z,,,,,,,,,,,,,,,,,53,,,,,,,,,,,,,,261.8949999642209,,response,,,,99,,,,,,,Space,keypress(Space),,,,,,,,---- -- ----- -- ------ - ------- --- ----------<br>------------- ------ ------ ---- ---- ------- ----- -- ----<br>-------- ------- -- ---------- --- - --- ----- ----- ----<br>---- --- --- ----- --- ---- that ------- ----- ---- -------<br>--- --- -- ----- -- --- ---- -- --- ---- -- ------ ------<br>--- ----- -- ----,316680.1999999881,316678.59999996424,316400.202,316413.3000000119,316416.705,316683.384,,34,that
screen,html.Screen,2_1_0_1_35,2022-05-04T09:14:30.300Z,,,,,,,,,,,,,,,,,53,,,,,,,,,,,,,,240.9160000119009,,response,,,,99,,,,,,,Space,keypress(Space),,,,,,,,---- -- ----- -- ------ - ------- --- ----------<br>------------- ------ ------ ---- ---- ------- ----- -- ----<br>-------- ------- -- ---------- --- - --- ----- ----- ----<br>---- --- --- ----- --- ---- ---- matters ----- ---- -------<br>--- --- -- ----- -- --- ---- -- --- ---- -- ------ ------<br>--- ----- -- ----,316925.89999997616,316924.3000000119,316666.766,316680.59999996424,316683.384,316933.365,,35,matters
screen,html.Screen,2_1_0_1_36,2022-05-04T09:14:30.686Z,,,,,,,,,,,,,,,,,53,,,,,,,,,,,,,,377.8349999880884,,response,,,,99,,,,,,,Space,keypress(Space),,,,,,,,"---- -- ----- -- ------ - ------- --- ----------<br>------------- ------ ------ ---- ---- ------- ----- -- ----<br>-------- ------- -- ---------- --- - --- ----- ----- ----<br>---- --- --- ----- --- ---- ---- ------- most, ---- -------<br>--- --- -- ----- -- --- ---- -- --- ---- -- ------ ------<br>--- ----- -- ----",317312.1999999881,317311.1999999881,316916.884,316926.3000000119,316933.365,317316.61,,36,"most,"
screen,html.Screen,2_1_0_1_37,2022-05-04T09:14:31.051Z,,,,,,,,,,,,,,,,,53,,,,,,,,,,,,,,358.89000000001397,,response,,,,99,,,,,,,Space,keypress(Space),,,,,,,,---- -- ----- -- ------ - ------- --- ----------<br>------------- ------ ------ ---- ---- ------- ----- -- ----<br>-------- ------- -- ---------- --- - --- ----- ----- ----<br>---- --- --- ----- --- ---- ---- ------- ----- it's -------<br>--- --- -- ----- -- --- ---- -- --- ---- -- ------ ------<br>--- ----- -- ----,317677.09999996424,317675.5,317300.187,317312.39999997616,317316.61,317683.41,,37,it's
screen,html.Screen,2_1_0_1_38,2022-05-04T09:14:31.316Z,,,,,,,,,,,,,,,,,53,,,,,,,,,,,,,,255.98999997618375,,response,,,,99,,,,,,,Space,keypress(Space),,,,,,,,---- -- ----- -- ------ - ------- --- ----------<br>------------- ------ ------ ---- ---- ------- ----- -- ----<br>-------- ------- -- ---------- --- - --- ----- ----- ----<br>---- --- --- ----- --- ---- ---- ------- ----- ---- whether<br>--- --- -- ----- -- --- ---- -- --- ---- -- ------ ------<br>--- ----- -- ----,317941.59999996424,317939.39999997616,317666.786,317677.39999997616,317683.41,317950.043,,38,whether
screen,html.Screen,2_1_0_1_39,2022-05-04T09:14:31.744Z,,,,,,,,,,,,,,,,,53,,,,,,,,,,,,,,418.4569999999949,,response,,,,99,,,,,,,Space,keypress(Space),,,,,,,,---- -- ----- -- ------ - ------- --- ----------<br>------------- ------ ------ ---- ---- ------- ----- -- ----<br>-------- ------- -- ---------- --- - --- ----- ----- ----<br>---- --- --- ----- --- ---- ---- ------- ----- ---- -------<br>you --- -- ----- -- --- ---- -- --- ---- -- ------ ------<br>--- ----- -- ----,318370.09999996424,318368.5,317933.537,317942.09999996424,317950.043,318383.494,,39,you
screen,html.Screen,2_1_0_1_40,2022-05-04T09:14:32.022Z,,,,,,,,,,,,,,,,,53,,,,,,,,,,,,,,262.9059999761521,,response,,,,99,,,,,,,Space,keypress(Space),,,,,,,,---- -- ----- -- ------ - ------- --- ----------<br>------------- ------ ------ ---- ---- ------- ----- -- ----<br>-------- ------- -- ---------- --- - --- ----- ----- ----<br>---- --- --- ----- --- ---- ---- ------- ----- ---- -------<br>--- are -- ----- -- --- ---- -- --- ---- -- ------ ------<br>--- ----- -- ----,318648.09999996424,318646.39999997616,318366.838,318370.5,318383.494,318670.453,,40,are
screen,html.Screen,2_1_0_1_41,2022-05-04T09:14:32.332Z,,,,,,,,,,,,,,,,,53,,,,,,,,,,,,,,285.44699997617863,,response,,,,99,,,,,,,Space,keypress(Space),,,,,,,,---- -- ----- -- ------ - ------- --- ----------<br>------------- ------ ------ ---- ---- ------- ----- -- ----<br>-------- ------- -- ---------- --- - --- ----- ----- ----<br>---- --- --- ----- --- ---- ---- ------- ----- ---- -------<br>--- --- as ----- -- --- ---- -- --- ---- -- ------ ------<br>--- ----- -- ----,318957.5,318955.89999997616,318633.542,318648.39999997616,318670.453,318966.715,,41,as
screen,html.Screen,2_1_0_1_42,2022-05-04T09:14:32.628Z,,,,,,,,,,,,,,,,,53,,,,,,,,,,,,,,285.48499998805346,,response,,,,99,,,,,,,Space,keypress(Space),,,,,,,,---- -- ----- -- ------ - ------- --- ----------<br>------------- ------ ------ ---- ---- ------- ----- -- ----<br>-------- ------- -- ---------- --- - --- ----- ----- ----<br>---- --- --- ----- --- ---- ---- ------- ----- ---- -------<br>--- --- -- close -- --- ---- -- --- ---- -- ------ ------<br>--- ----- -- ----,319254.09999996424,319252.1999999881,318950.211,318958,318966.715,319266.822,,42,close
screen,html.Screen,2_1_0_1_43,2022-05-04T09:14:32.879Z,,,,,,,,,,,,,,,,,53,,,,,,,,,,,,,,236.57799997617258,,response,,,,99,,,,,,,Space,keypress(Space),,,,,,,,---- -- ----- -- ------ - ------- --- ----------<br>------------- ------ ------ ---- ---- ------- ----- -- ----<br>-------- ------- -- ---------- --- - --- ----- ----- ----<br>---- --- --- ----- --- ---- ---- ------- ----- ---- -------<br>--- --- -- ----- as --- ---- -- --- ---- -- ------ ------<br>--- ----- -- ----,319505,319503.39999997616,319250.042,319254.39999997616,319266.822,319516.743,,43,as
screen,html.Screen,2_1_0_1_44,2022-05-04T09:14:33.148Z,,,,,,,,,,,,,,,,,53,,,,,,,,,,,,,,255.4569999880623,,response,,,,99,,,,,,,Space,keypress(Space),,,,,,,,---- -- ----- -- ------ - ------- --- ----------<br>------------- ------ ------ ---- ---- ------- ----- -- ----<br>-------- ------- -- ---------- --- - --- ----- ----- ----<br>---- --- --- ----- --- ---- ---- ------- ----- ---- -------<br>--- --- -- ----- -- you ---- -- --- ---- -- ------ ------<br>--- ----- -- ----,319774,319772.1999999881,319499.945,319505.39999997616,319516.743,319783.394,,44,you
screen,html.Screen,2_1_0_1_45,2022-05-04T09:14:33.452Z,,,,,,,,,,,,,,,,,53,,,,,,,,,,,,,,293.2059999642661,,response,,,,99,,,,,,,Space,keypress(Space),,,,,,,,---- -- ----- -- ------ - ------- --- ----------<br>------------- ------ ------ ---- ---- ------- ----- -- ----<br>-------- ------- -- ---------- --- - --- ----- ----- ----<br>---- --- --- ----- --- ---- ---- ------- ----- ---- -------<br>--- --- -- ----- -- --- want -- --- ---- -- ------ ------<br>--- ----- -- ----,320078.09999996424,320076.59999996424,319766.856,319774.3000000119,319783.394,320083.404,,45,want
screen,html.Screen,2_1_0_1_46,2022-05-04T09:14:33.737Z,,,,,,,,,,,,,,,,,53,,,,,,,,,,,,,,278.59600000001956,,response,,,,99,,,,,,,Space,keypress(Space),,,,,,,,---- -- ----- -- ------ - ------- --- ----------<br>------------- ------ ------ ---- ---- ------- ----- -- ----<br>-------- ------- -- ---------- --- - --- ----- ----- ----<br>---- --- --- ----- --- ---- ---- ------- ----- ---- -------<br>--- --- -- ----- -- --- ---- to --- ---- -- ------ ------<br>--- ----- -- ----,320362.89999997616,320362,320066.872,320078.5,320083.404,320366.635,,46,to
screen,html.Screen,2_1_0_1_47,2022-05-04T09:14:34.015Z,,,,,,,,,,,,,,,,,53,,,,,,,,,,,,,,272.6650000119116,,response,,,,99,,,,,,,Space,keypress(Space),,,,,,,,"---- -- ----- -- ------ - ------- --- ----------<br>------------- ------ ------ ---- ---- ------- ----- -- ----<br>-------- ------- -- ---------- --- - --- ----- ----- ----<br>---- --- --- ----- --- ---- ---- ------- ----- ---- -------<br>--- --- -- ----- -- --- ---- -- be, ---- -- ------ ------<br>--- ----- -- ----",320640.6999999881,320639.3000000119,320350.251,320363,320366.635,320650.053,,47,"be,"
screen,html.Screen,2_1_0_1_48,2022-05-04T09:14:34.337Z,,,,,,,,,,,,,,,,,53,,,,,,,,,,,,,,311.64699998806464,,response,,,,99,,,,,,,Space,keypress(Space),,,,,,,,---- -- ----- -- ------ - ------- --- ----------<br>------------- ------ ------ ---- ---- ------- ----- -- ----<br>-------- ------- -- ---------- --- - --- ----- ----- ----<br>---- --- --- ----- --- ---- ---- ------- ----- ---- -------<br>--- --- -- ----- -- --- ---- -- --- even -- ------ ------<br>--- ----- -- ----,320963.1999999881,320961.6999999881,320633.453,320641.1999999881,320650.053,320966.739,,48,even
screen,html.Screen,2_1_0_1_49,2022-05-04T09:14:34.612Z,,,,,,,,,,,,,,,,,53,,,,,,,,,,,,,,269.9609999880777,,response,,,,99,,,,,,,Space,keypress(Space),,,,,,,,---- -- ----- -- ------ - ------- --- ----------<br>------------- ------ ------ ---- ---- ------- ----- -- ----<br>-------- ------- -- ---------- --- - --- ----- ----- ----<br>---- --- --- ----- --- ---- ---- ------- ----- ---- -------<br>--- --- -- ----- -- --- ---- -- --- ---- if ------ ------<br>--- ----- -- ----,321237.8000000119,321236.6999999881,320950.234,320963.59999996424,320966.739,321250.207,,49,if
screen,html.Screen,2_1_0_1_50,2022-05-04T09:14:34.839Z,,,,,,,,,,,,,,,,,53,,,,,,,,,,,,,,213.4929999880842,,response,,,,99,,,,,,,Space,keypress(Space),,,,,,,,---- -- ----- -- ------ - ------- --- ----------<br>------------- ------ ------ ---- ---- ------- ----- -- ----<br>-------- ------- -- ---------- --- - --- ----- ----- ----<br>---- --- --- ----- --- ---- ---- ------- ----- ---- -------<br>--- --- -- ----- -- --- ---- -- --- ---- -- that's ------<br>--- ----- -- ----,321464.5,321463.6999999881,321233.484,321238,321250.207,321466.603,,50,that's
screen,html.Screen,2_1_0_1_51,2022-05-04T09:14:35.061Z,,,,,,,,,,,,,,,,,53,,,,,,,,,,,,,,218.3969999999972,,response,,,,99,,,,,,,Space,keypress(Space),,,,,,,,---- -- ----- -- ------ - ------- --- ----------<br>------------- ------ ------ ---- ---- ------- ----- -- ----<br>-------- ------- -- ---------- --- - --- ----- ----- ----<br>---- --- --- ----- --- ---- ---- ------- ----- ---- -------<br>--- --- -- ----- -- --- ---- -- --- ---- -- ------ really<br>--- ----- -- ----,321687.09999996424,321685,321450.095,321464.6999999881,321466.603,321700.079,,51,really
screen,html.Screen,2_1_0_1_52,2022-05-04T09:14:35.603Z,,,,,,,,,,,,,,,,,53,,,,,,,,,,,,,,527.420999999973,,response,,,,99,,,,,,,Space,keypress(Space),,,,,,,,---- -- ----- -- ------ - ------- --- ----------<br>------------- ------ ------ ---- ---- ------- ----- -- ----<br>-------- ------- -- ---------- --- - --- ----- ----- ----<br>---- --- --- ----- --- ---- ---- ------- ----- ---- -------<br>--- --- -- ----- -- --- ---- -- --- ---- -- ------ ------<br>not ----- -- ----,322229.3000000119,322227.5,321683.392,321687.5,321700.079,322233.357,,52,not
screen,html.Screen,2_1_0_1_53,2022-05-04T09:14:35.952Z,,,,,,,,,,,,,,,,,53,,,,,,,,,,,,,,342.8429999880609,,response,,,,99,,,,,,,Space,keypress(Space),,,,,,,,---- -- ----- -- ------ - ------- --- ----------<br>------------- ------ ------ ---- ---- ------- ----- -- ----<br>-------- ------- -- ---------- --- - --- ----- ----- ----<br>---- --- --- ----- --- ---- ---- ------- ----- ---- -------<br>--- --- -- ----- -- --- ---- -- --- ---- -- ------ ------<br>--- close -- ----,322577.6999999881,322576.1999999881,322216.917,322229.59999996424,322233.357,322583.373,,53,close
screen,html.Screen,2_1_0_1_54,2022-05-04T09:14:36.293Z,,,,,,,,,,,,,,,,,53,,,,,,,,,,,,,,334.32699998805765,,response,,,,99,,,,,,,Space,keypress(Space),,,,,,,,---- -- ----- -- ------ - ------- --- ----------<br>------------- ------ ------ ---- ---- ------- ----- -- ----<br>-------- ------- -- ---------- --- - --- ----- ----- ----<br>---- --- --- ----- --- ---- ---- ------- ----- ---- -------<br>--- --- -- ----- -- --- ---- -- --- ---- -- ------ ------<br>--- ----- at ----,322919.39999997616,322917.6999999881,322566.59,322578.1999999881,322583.373,322933.457,,54,at
screen,html.Screen,2_1_0_1_55,2022-05-04T09:14:37.287Z,,,,,,,,,,,,,,,,,53,,,,,,,,,,,,,,978.1429999642423,,response,,,,99,,,,,,,Space,keypress(Space),,,,,,,,---- -- ----- -- ------ - ------- --- ----------<br>------------- ------ ------ ---- ---- ------- ----- -- ----<br>-------- ------- -- ---------- --- - --- ----- ----- ----<br>---- --- --- ----- --- ---- ---- ------- ----- ---- -------<br>--- --- -- ----- -- --- ---- -- --- ---- -- ------ ------<br>--- ----- -- all.,323913.39999997616,323911.59999996424,322916.957,322919.6999999881,322933.457,323943.257,,55,all.
Item 99,flow.Loop,2_1_0_1,2022-05-04T09:14:37.288Z,,,,,,,,,,,,,,,,,,,,,,,,,,,,,,,21394.931999964232,,completion,,,,,B,,,,,,,,,,,silence,,,,,323914.1999999881,323911.59999996424,302466.815,302468.8000000119,302516.668,323943.257,,,
Question 1,html.Screen,2_1_0_2,2022-05-04T09:14:41.211Z,,,,,,,,,,,,,,,,,,,,,,,,,,,,false,FALSE,,3892.842999964254,,response,,,,99,B,,,,,,TRUE,click #choice-1,,,,silence,,,,,327836.89999997616,327836.09999996424,323900.181,323914.5,323943.257,327850.169,,,
Question 2,html.Screen,2_1_0_3,2022-05-04T09:14:44.604Z,,,,,,,,,,,,,,,,,,,,,,,,,,,,true,TRUE,,3378.930999964243,,response,,,,99,B,,,,,,TRUE,click #choice-1,,,,silence,,,,,331229.89999997616,331229.09999996424,327833.556,327837,327850.169,331233.28,,,
Item 99,flow.Sequence,2_1_0,2022-05-04T09:14:44.604Z,,,,,,,,,,,,,,,,,,,,,,,,,,,,,,,38745.946999964246,,completion,,,,,,,,,,,,,,,,,,,,,331230.09999996424,331229.09999996424,292466.691,292482.3000000119,292483.153,331233.28,,,
Holding screen,html.Screen,2_1_1_0,2022-05-04T09:14:54.592Z,,,,,,,,,,,,,,,,,,,,,,,,,,,,,,,10000.11599999998,,timeout,,,,,,,,,,,,,,,,,,,,,341218.39999997616,341216.791,331216.93,331230.1999999881,331233.28,341233.396,,,
screen,html.Screen,2_1_1_1_0,2022-05-04T09:14:55.483Z,,,,,,,,,,,,,,,,,54,,,,,,,,,,,,,,873.3039999880712,,response,,,,100,,,,,,,Space,keypress(Space),,,,,,,,At --- ---- --- ------ ----- ------- ---- -- --- ------- --<br>------- ---------- ------ -- ----- -- ----- -- ---- ------<br>--- ----- --- --- ------ -------- ----- --- ------ ----- --<br>----- ----- ---------- --- --- ------ ------ ---- -- ------<br>------- --- ------ ----- --- ---- ------- -- ---- --- --<br>------- ------,342109.5,342106.6999999881,341216.791,341218.89999997616,341233.396,342116.766,,0,At
screen,html.Screen,2_1_1_1_1,2022-05-04T09:14:55.888Z,,,,,,,,,,,,,,,,,54,,,,,,,,,,,,,,395.53400001191767,,response,,,,100,,,,,,,Space,keypress(Space),,,,,,,,-- the ---- --- ------ ----- ------- ---- -- --- ------- --<br>------- ---------- ------ -- ----- -- ----- -- ---- ------<br>--- ----- --- --- ------ -------- ----- --- ------ ----- --<br>----- ----- ---------- --- --- ------ ------ ---- -- ------<br>------- --- ------ ----- --- ---- ------- -- ---- --- --<br>------- ------,342514.1999999881,342512.3000000119,342100.043,342109.89999997616,342116.766,342516.756,,1,the
screen,html.Screen,2_1_1_1_2,2022-05-04T09:14:56.234Z,,,,,,,,,,,,,,,,,54,,,,,,,,,,,,,,341.1439999761642,,response,,,,100,,,,,,,Space,keypress(Space),,,,,,,,-- --- time --- ------ ----- ------- ---- -- --- ------- --<br>------- ---------- ------ -- ----- -- ----- -- ---- ------<br>--- ----- --- --- ------ -------- ----- --- ------ ----- --<br>----- ----- ---------- --- --- ------ ------ ---- -- ------<br>------- --- ------ ----- --- ---- ------- -- ---- --- --<br>------- ------,342860,342857.89999997616,342500.265,342514.59999996424,342516.756,342866.805,,2,time
screen,html.Screen,2_1_1_1_3,2022-05-04T09:14:56.501Z,,,,,,,,,,,,,,,,,54,,,,,,,,,,,,,,258.195000000007,,response,,,,100,,,,,,,Space,keypress(Space),,,,,,,,-- --- ---- the ------ ----- ------- ---- -- --- ------- --<br>------- ---------- ------ -- ----- -- ----- -- ---- ------<br>--- ----- --- --- ------ -------- ----- --- ------ ----- --<br>----- ----- ---------- --- --- ------ ------ ---- -- ------<br>------- --- ------ ----- --- ---- ------- -- ---- --- --<br>------- ------,343127.09999996424,343125,342850.32,342860.39999997616,342866.805,343133.425,,3,the
screen,html.Screen,2_1_1_1_4,2022-05-04T09:14:56.733Z,,,,,,,,,,,,,,,,,54,,,,,,,,,,,,,,224.37500001193257,,response,,,,100,,,,,,,Space,keypress(Space),,,,,,,,-- --- ---- --- French ----- ------- ---- -- --- ------- --<br>------- ---------- ------ -- ----- -- ----- -- ---- ------<br>--- ----- --- --- ------ -------- ----- --- ------ ----- --<br>----- ----- ---------- --- --- ------ ------ ---- -- ------<br>------- --- ------ ----- --- ---- ------- -- ---- --- --<br>------- ------,343359.39999997616,343357.8000000119,343116.922,343127.59999996424,343133.425,343366.79,,4,French
screen,html.Screen,2_1_1_1_5,2022-05-04T09:14:56.985Z,,,,,,,,,,,,,,,,,54,,,,,,,,,,,,,,242.40999998810003,,response,,,,100,,,,,,,Space,keypress(Space),,,,,,,,-- --- ---- --- ------ crown ------- ---- -- --- ------- --<br>------- ---------- ------ -- ----- -- ----- -- ---- ------<br>--- ----- --- --- ------ -------- ----- --- ------ ----- --<br>----- ----- ---------- --- --- ------ ------ ---- -- ------<br>------- --- ------ ----- --- ---- ------- -- ---- --- --<br>------- ------,343610.89999997616,343609.1999999881,343350.164,343359.6999999881,343366.79,343616.764,,5,crown
screen,html.Screen,2_1_1_1_6,2022-05-04T09:14:57.255Z,,,,,,,,,,,,,,,,,54,,,,,,,,,,,,,,262.13599997613346,,response,,,,100,,,,,,,Space,keypress(Space),,,,,,,,-- --- ---- --- ------ ----- secured ---- -- --- ------- --<br>------- ---------- ------ -- ----- -- ----- -- ---- ------<br>--- ----- --- --- ------ -------- ----- --- ------ ----- --<br>----- ----- ---------- --- --- ------ ------ ---- -- ------<br>------- --- ------ ----- --- ---- ------- -- ---- --- --<br>------- ------,343880.59999996424,343878.89999997616,343600.261,343611.1999999881,343616.764,343883.463,,6,secured
screen,html.Screen,2_1_1_1_7,2022-05-04T09:14:57.660Z,,,,,,,,,,,,,,,,,54,,,,,,,,,,,,,,400.0370000000112,,response,,,,100,,,,,,,Space,keypress(Space),,,,,,,,-- --- ---- --- ------ ----- ------- much -- --- ------- --<br>------- ---------- ------ -- ----- -- ----- -- ---- ------<br>--- ----- --- --- ------ -------- ----- --- ------ ----- --<br>----- ----- ---------- --- --- ------ ------ ---- -- ------<br>------- --- ------ ----- --- ---- ------- -- ---- --- --<br>------- ------,344286,344283.5,343866.813,343880.89999997616,343883.463,344300.092,,7,much
screen,html.Screen,2_1_1_1_8,2022-05-04T09:14:57.918Z,,,,,,,,,,,,,,,,,54,,,,,,,,,,,,,,242.10799998807488,,response,,,,100,,,,,,,Space,keypress(Space),,,,,,,,-- --- ---- --- ------ ----- ------- ---- of --- ------- --<br>------- ---------- ------ -- ----- -- ----- -- ---- ------<br>--- ----- --- --- ------ -------- ----- --- ------ ----- --<br>----- ----- ---------- --- --- ------ ------ ---- -- ------<br>------- --- ------ ----- --- ---- ------- -- ---- --- --<br>------- ------,344543.89999997616,344542.1999999881,344283.441,344286.5,344300.092,344550.097,,8,of
screen,html.Screen,2_1_1_1_9,2022-05-04T09:14:58.164Z,,,,,,,,,,,,,,,,,54,,,,,,,,,,,,,,237.8029999761493,,response,,,,100,,,,,,,Space,keypress(Space),,,,,,,,-- --- ---- --- ------ ----- ------- ---- -- its ------- --<br>------- ---------- ------ -- ----- -- ----- -- ---- ------<br>--- ----- --- --- ------ -------- ----- --- ------ ----- --<br>----- ----- ---------- --- --- ------ ------ ---- -- ------<br>------- --- ------ ----- --- ---- ------- -- ---- --- --<br>------- ------,344789.8000000119,344787.89999997616,344533.51,344544.1999999881,344550.097,344800.156,,9,its
screen,html.Screen,2_1_1_1_10,2022-05-04T09:14:58.357Z,,,,,,,,,,,,,,,,,54,,,,,,,,,,,,,,181.2439999761409,,response,,,,100,,,,,,,Space,keypress(Space),,,,,,,,-- --- ---- --- ------ ----- ------- ---- -- --- revenue --<br>------- ---------- ------ -- ----- -- ----- -- ---- ------<br>--- ----- --- --- ------ -------- ----- --- ------ ----- --<br>----- ----- ---------- --- --- ------ ------ ---- -- ------<br>------- --- ------ ----- --- ---- ------- -- ---- --- --<br>------- ------,344983.1999999881,344981.39999997616,344783.509,344790.09999996424,344800.156,345000.351,,10,revenue
screen,html.Screen,2_1_1_1_11,2022-05-04T09:14:58.806Z,,,,,,,,,,,,,,,,,54,,,,,,,,,,,,,,429.9490000118967,,response,,,,100,,,,,,,Space,keypress(Space),,,,,,,,-- --- ---- --- ------ ----- ------- ---- -- --- ------- by<br>------- ---------- ------ -- ----- -- ----- -- ---- ------<br>--- ----- --- --- ------ -------- ----- --- ------ ----- --<br>----- ----- ---------- --- --- ------ ------ ---- -- ------<br>------- --- ------ ----- --- ---- ------- -- ---- --- --<br>------- ------,345432.1999999881,345430.3000000119,344983.55,344983.59999996424,345000.351,345450.034,,11,by
screen,html.Screen,2_1_1_1_12,2022-05-04T09:14:59.198Z,,,,,,,,,,,,,,,,,54,,,,,,,,,,,,,,372.26600001193583,,response,,,,100,,,,,,,Space,keypress(Space),,,,,,,,-- --- ---- --- ------ ----- ------- ---- -- --- ------- --<br>issuing ---------- ------ -- ----- -- ----- -- ---- ------<br>--- ----- --- --- ------ -------- ----- --- ------ ----- --<br>----- ----- ---------- --- --- ------ ------ ---- -- ------<br>------- --- ------ ----- --- ---- ------- -- ---- --- --<br>------- ------,345823.89999997616,345822.3000000119,345433.612,345432.89999997616,345450.034,345833.581,,12,issuing
screen,html.Screen,2_1_1_1_13,2022-05-04T09:14:59.447Z,,,,,,,,,,,,,,,,,54,,,,,,,,,,,,,,237.9189999999944,,response,,,,100,,,,,,,Space,keypress(Space),,,,,,,,-- --- ---- --- ------ ----- ------- ---- -- --- ------- --<br>------- government ------ -- ----- -- ----- -- ---- ------<br>--- ----- --- --- ------ -------- ----- --- ------ ----- --<br>----- ----- ---------- --- --- ------ ------ ---- -- ------<br>------- --- ------ ----- --- ---- ------- -- ---- --- --<br>------- ------,346073.39999997616,346071.5,345816.859,345824.3000000119,345833.581,346083.507,,13,government
screen,html.Screen,2_1_1_1_14,2022-05-04T09:14:59.708Z,,,,,,,,,,,,,,,,,54,,,,,,,,,,,,,,249.19299998809583,,response,,,,100,,,,,,,Space,keypress(Space),,,,,,,,-- --- ---- --- ------ ----- ------- ---- -- --- ------- --<br>------- ---------- bonds. -- ----- -- ----- -- ---- ------<br>--- ----- --- --- ------ -------- ----- --- ------ ----- --<br>----- ----- ---------- --- --- ------ ------ ---- -- ------<br>------- --- ------ ----- --- ---- ------- -- ---- --- --<br>------- ------,346333.59999996424,346332.6999999881,346066.945,346073.6999999881,346083.507,346350.224,,14,bonds.
screen,html.Screen,2_1_1_1_15,2022-05-04T09:15:00.010Z,,,,,,,,,,,,,,,,,54,,,,,,,,,,,,,,282.97599998809164,,response,,,,100,,,,,,,Space,keypress(Space),,,,,,,,-- --- ---- --- ------ ----- ------- ---- -- --- ------- --<br>------- ---------- ------ In ----- -- ----- -- ---- ------<br>--- ----- --- --- ------ -------- ----- --- ------ ----- --<br>----- ----- ---------- --- --- ------ ------ ---- -- ------<br>------- --- ------ ----- --- ---- ------- -- ---- --- --<br>------- ------,346635.59999996424,346633.1999999881,346333.623,346333.59999996424,346350.224,346650.036,,15,In
screen,html.Screen,2_1_1_1_16,2022-05-04T09:15:00.319Z,,,,,,,,,,,,,,,,,54,,,,,,,,,,,,,,293.26400001189904,,response,,,,100,,,,,,,Space,keypress(Space),,,,,,,,"-- --- ---- --- ------ ----- ------- ---- -- --- ------- --<br>------- ---------- ------ -- 1727, -- ----- -- ---- ------<br>--- ----- --- --- ------ -------- ----- --- ------ ----- --<br>----- ----- ---------- --- --- ------ ------ ---- -- ------<br>------- --- ------ ----- --- ---- ------- -- ---- --- --<br>------- ------",346945.09999996424,346943.3000000119,346633.515,346636.3000000119,346650.036,346950.171,,16,"1727,"
screen,html.Screen,2_1_1_1_17,2022-05-04T09:15:00.709Z,,,,,,,,,,,,,,,,,54,,,,,,,,,,,,,,384.4289999642642,,response,,,,100,,,,,,,Space,keypress(Space),,,,,,,,-- --- ---- --- ------ ----- ------- ---- -- --- ------- --<br>------- ---------- ------ -- ----- in ----- -- ---- ------<br>--- ----- --- --- ------ -------- ----- --- ------ ----- --<br>----- ----- ---------- --- --- ------ ------ ---- -- ------<br>------- --- ------ ----- --- ---- ------- -- ---- --- --<br>------- ------,347335.5,347334.59999996424,346933.365,346945.39999997616,346950.171,347350.245,,17,in
screen,html.Screen,2_1_1_1_18,2022-05-04T09:15:00.990Z,,,,,,,,,,,,,,,,,54,,,,,,,,,,,,,,263.75500000000466,,response,,,,100,,,,,,,Space,keypress(Space),,,,,,,,-- --- ---- --- ------ ----- ------- ---- -- --- ------- --<br>------- ---------- ------ -- ----- -- order -- ---- ------<br>--- ----- --- --- ------ -------- ----- --- ------ ----- --<br>----- ----- ---------- --- --- ------ ------ ---- -- ------<br>------- --- ------ ----- --- ---- ------- -- ---- --- --<br>------- ------,347615.59999996424,347614,347333.562,347335.59999996424,347350.245,347633.678,,18,order
screen,html.Screen,2_1_1_1_19,2022-05-04T09:15:01.385Z,,,,,,,,,,,,,,,,,54,,,,,,,,,,,,,,374.82199999998556,,response,,,,100,,,,,,,Space,keypress(Space),,,,,,,,-- --- ---- --- ------ ----- ------- ---- -- --- ------- --<br>------- ---------- ------ -- ----- -- ----- to ---- ------<br>--- ----- --- --- ------ -------- ----- --- ------ ----- --<br>----- ----- ---------- --- --- ------ ------ ---- -- ------<br>------- --- ------ ----- --- ---- ------- -- ---- --- --<br>------- ------,348010.89999997616,348008.5,347616.954,347616,347633.678,348016.763,,19,to
screen,html.Screen,2_1_1_1_20,2022-05-04T09:15:01.709Z,,,,,,,,,,,,,,,,,54,,,,,,,,,,,,,,316.2370000000228,,response,,,,100,,,,,,,Space,keypress(Space),,,,,,,,-- --- ---- --- ------ ----- ------- ---- -- --- ------- --<br>------- ---------- ------ -- ----- -- ----- -- save ------<br>--- ----- --- --- ------ -------- ----- --- ------ ----- --<br>----- ----- ---------- --- --- ------ ------ ---- -- ------<br>------- --- ------ ----- --- ---- ------- -- ---- --- --<br>------- ------,348335,348333,348000.208,348011.59999996424,348016.763,348350.386,,20,save
screen,html.Screen,2_1_1_1_21,2022-05-04T09:15:02.212Z,,,,,,,,,,,,,,,,,54,,,,,,,,,,,,,,486.4140000119223,,response,,,,100,,,,,,,Space,keypress(Space),,,,,,,,"-- --- ---- --- ------ ----- ------- ---- -- --- ------- --<br>------- ---------- ------ -- ----- -- ----- -- ---- money,<br>--- ----- --- --- ------ -------- ----- --- ------ ----- --<br>----- ----- ---------- --- --- ------ ------ ---- -- ------<br>------- --- ------ ----- --- ---- ------- -- ---- --- --<br>------- ------",348838.39999997616,348836.8000000119,348333.412,348335.3000000119,348350.386,348850.153,,21,"money,"
screen,html.Screen,2_1_1_1_22,2022-05-04T09:15:02.639Z,,,,,,,,,,,,,,,,,54,,,,,,,,,,,,,,413.0469999880879,,response,,,,100,,,,,,,Space,keypress(Space),,,,,,,,-- --- ---- --- ------ ----- ------- ---- -- --- ------- --<br>------- ---------- ------ -- ----- -- ----- -- ---- ------<br>the ----- --- --- ------ -------- ----- --- ------ ----- --<br>----- ----- ---------- --- --- ------ ------ ---- -- ------<br>------- --- ------ ----- --- ---- ------- -- ---- --- --<br>------- ------,349265,349263.1999999881,348833.621,348838.8000000119,348850.153,349300.087,,22,the
screen,html.Screen,2_1_1_1_23,2022-05-04T09:15:03.015Z,,,,,,,,,,,,,,,,,54,,,,,,,,,,,,,,338.5129999642377,,response,,,,100,,,,,,,Space,keypress(Space),,,,,,,,-- --- ---- --- ------ ----- ------- ---- -- --- ------- --<br>------- ---------- ------ -- ----- -- ----- -- ---- ------<br>--- state --- --- ------ -------- ----- --- ------ ----- --<br>----- ----- ---------- --- --- ------ ------ ---- -- ------<br>------- --- ------ ----- --- ---- ------- -- ---- --- --<br>------- ------,349640.5,349638.59999996424,349287.997,349265.39999997616,349300.087,349650.114,,23,state
screen,html.Screen,2_1_1_1_24,2022-05-04T09:15:03.307Z,,,,,,,,,,,,,,,,,54,,,,,,,,,,,,,,280.9859999642358,,response,,,,100,,,,,,,Space,keypress(Space),,,,,,,,-- --- ---- --- ------ ----- ------- ---- -- --- ------- --<br>------- ---------- ------ -- ----- -- ----- -- ---- ------<br>--- ----- cut --- ------ -------- ----- --- ------ ----- --<br>----- ----- ---------- --- --- ------ ------ ---- -- ------<br>------- --- ------ ----- --- ---- ------- -- ---- --- --<br>------- ------,349933,349931.09999996424,349633.426,349640.89999997616,349650.114,349950.253,,24,cut
screen,html.Screen,2_1_1_1_25,2022-05-04T09:15:03.682Z,,,,,,,,,,,,,,,,,54,,,,,,,,,,,,,,356.446999988053,,response,,,,100,,,,,,,Space,keypress(Space),,,,,,,,-- --- ---- --- ------ ----- ------- ---- -- --- ------- --<br>------- ---------- ------ -- ----- -- ----- -- ---- ------<br>--- ----- --- the ------ -------- ----- --- ------ ----- --<br>----- ----- ---------- --- --- ------ ------ ---- -- ------<br>------- --- ------ ----- --- ---- ------- -- ---- --- --<br>------- ------,350308.1999999881,350306.6999999881,349933.611,349933.39999997616,349950.253,350316.797,,25,the
screen,html.Screen,2_1_1_1_26,2022-05-04T09:15:04.049Z,,,,,,,,,,,,,,,,,54,,,,,,,,,,,,,,356.2029999999795,,response,,,,100,,,,,,,Space,keypress(Space),,,,,,,,-- --- ---- --- ------ ----- ------- ---- -- --- ------- --<br>------- ---------- ------ -- ----- -- ----- -- ---- ------<br>--- ----- --- --- bonds' -------- ----- --- ------ ----- --<br>----- ----- ---------- --- --- ------ ------ ---- -- ------<br>------- --- ------ ----- --- ---- ------- -- ---- --- --<br>------- ------,350674.6999999881,350673,350300.12,350308.39999997616,350316.797,350683.494,,26,bonds'
screen,html.Screen,2_1_1_1_27,2022-05-04T09:15:04.460Z,,,,,,,,,,,,,,,,,54,,,,,,,,,,,,,,400.60599996423116,,response,,,,100,,,,,,,Space,keypress(Space),,,,,,,,-- --- ---- --- ------ ----- ------- ---- -- --- ------- --<br>------- ---------- ------ -- ----- -- ----- -- ---- ------<br>--- ----- --- --- ------ interest ----- --- ------ ----- --<br>----- ----- ---------- --- --- ------ ------ ---- -- ------<br>------- --- ------ ----- --- ---- ------- -- ---- --- --<br>------- ------,351086.09999996424,351084.09999996424,350666.776,350675.09999996424,350683.494,351100.262,,27,interest
screen,html.Screen,2_1_1_1_28,2022-05-04T09:15:04.754Z,,,,,,,,,,,,,,,,,54,,,,,,,,,,,,,,277.63799997617025,,response,,,,100,,,,,,,Space,keypress(Space),,,,,,,,-- --- ---- --- ------ ----- ------- ---- -- --- ------- --<br>------- ---------- ------ -- ----- -- ----- -- ---- ------<br>--- ----- --- --- ------ -------- rate. --- ------ ----- --<br>----- ----- ---------- --- --- ------ ------ ---- -- ------<br>------- --- ------ ----- --- ---- ------- -- ---- --- --<br>------- ------,351379.59999996424,351377.89999997616,351083.505,351086.39999997616,351100.262,351383.512,,28,rate.
screen,html.Screen,2_1_1_1_29,2022-05-04T09:15:05.066Z,,,,,,,,,,,,,,,,,54,,,,,,,,,,,,,,306.78800001193304,,response,,,,100,,,,,,,Space,keypress(Space),,,,,,,,-- --- ---- --- ------ ----- ------- ---- -- --- ------- --<br>------- ---------- ------ -- ----- -- ----- -- ---- ------<br>--- ----- --- --- ------ -------- ----- The ------ ----- --<br>----- ----- ---------- --- --- ------ ------ ---- -- ------<br>------- --- ------ ----- --- ---- ------- -- ---- --- --<br>------- ------,351692.3000000119,351690.3000000119,351366.958,351379.89999997616,351383.512,351700.178,,29,The
screen,html.Screen,2_1_1_1_30,2022-05-04T09:15:05.401Z,,,,,,,,,,,,,,,,,54,,,,,,,,,,,,,,325.02199998806464,,response,,,,100,,,,,,,Space,keypress(Space),,,,,,,,-- --- ---- --- ------ ----- ------- ---- -- --- ------- --<br>------- ---------- ------ -- ----- -- ----- -- ---- ------<br>--- ----- --- --- ------ -------- ----- --- market ----- --<br>----- ----- ---------- --- --- ------ ------ ---- -- ------<br>------- --- ------ ----- --- ---- ------- -- ---- --- --<br>------- ------,352027,352025.1999999881,351683.621,351692.8000000119,351700.178,352033.454,,30,market
screen,html.Screen,2_1_1_1_31,2022-05-04T09:15:05.679Z,,,,,,,,,,,,,,,,,54,,,,,,,,,,,,,,269.6459999642102,,response,,,,100,,,,,,,Space,keypress(Space),,,,,,,,-- --- ---- --- ------ ----- ------- ---- -- --- ------- --<br>------- ---------- ------ -- ----- -- ----- -- ---- ------<br>--- ----- --- --- ------ -------- ----- --- ------ value --<br>----- ----- ---------- --- --- ------ ------ ---- -- ------<br>------- --- ------ ----- --- ---- ------- -- ---- --- --<br>------- ------,352305,352303.09999996424,352016.797,352027.3000000119,352033.454,352316.839,,31,value
screen,html.Screen,2_1_1_1_32,2022-05-04T09:15:06.077Z,,,,,,,,,,,,,,,,,54,,,,,,,,,,,,,,383.7609999642591,,response,,,,100,,,,,,,Space,keypress(Space),,,,,,,,-- --- ---- --- ------ ----- ------- ---- -- --- ------- --<br>------- ---------- ------ -- ----- -- ----- -- ---- ------<br>--- ----- --- --- ------ -------- ----- --- ------ ----- of<br>----- ----- ---------- --- --- ------ ------ ---- -- ------<br>------- --- ------ ----- --- ---- ------- -- ---- --- --<br>------- ------,352702.6999999881,352700.59999996424,352300.267,352305.39999997616,352316.839,352716.877,,32,of
screen,html.Screen,2_1_1_1_33,2022-05-04T09:15:06.367Z,,,,,,,,,,,,,,,,,54,,,,,,,,,,,,,,274.42300001194235,,response,,,,100,,,,,,,Space,keypress(Space),,,,,,,,-- --- ---- --- ------ ----- ------- ---- -- --- ------- --<br>------- ---------- ------ -- ----- -- ----- -- ---- ------<br>--- ----- --- --- ------ -------- ----- --- ------ ----- --<br>these ----- ---------- --- --- ------ ------ ---- -- ------<br>------- --- ------ ----- --- ---- ------- -- ---- --- --<br>------- ------,352992.5,352991.3000000119,352700.078,352702.89999997616,352716.877,353000.063,,33,these
screen,html.Screen,2_1_1_1_34,2022-05-04T09:15:06.642Z,,,,,,,,,,,,,,,,,54,,,,,,,,,,,,,,265.8369999761344,,response,,,,100,,,,,,,Space,keypress(Space),,,,,,,,-- --- ---- --- ------ ----- ------- ---- -- --- ------- --<br>------- ---------- ------ -- ----- -- ----- -- ---- ------<br>--- ----- --- --- ------ -------- ----- --- ------ ----- --<br>----- bonds ---------- --- --- ------ ------ ---- -- ------<br>------- --- ------ ----- --- ---- ------- -- ---- --- --<br>------- ------,353267.89999997616,353265.89999997616,352983.639,352992.6999999881,353000.063,353283.555,,34,bonds
screen,html.Screen,2_1_1_1_35,2022-05-04T09:15:06.916Z,,,,,,,,,,,,,,,,,54,,,,,,,,,,,,,,256.3449999761651,,response,,,,100,,,,,,,Space,keypress(Space),,,,,,,,"-- --- ---- --- ------ ----- ------- ---- -- --- ------- --<br>------- ---------- ------ -- ----- -- ----- -- ---- ------<br>--- ----- --- --- ------ -------- ----- --- ------ ----- --<br>----- ----- plummeted, --- --- ------ ------ ---- -- ------<br>------- --- ------ ----- --- ---- ------- -- ---- --- --<br>------- ------",353542.1999999881,353539.89999997616,353266.684,353268.1999999881,353283.555,353550.132,,35,"plummeted,"
screen,html.Screen,2_1_1_1_36,2022-05-04T09:15:07.300Z,,,,,,,,,,,,,,,,,54,,,,,,,,,,,,,,373.967999964254,,response,,,,100,,,,,,,Space,keypress(Space),,,,,,,,-- --- ---- --- ------ ----- ------- ---- -- --- ------- --<br>------- ---------- ------ -- ----- -- ----- -- ---- ------<br>--- ----- --- --- ------ -------- ----- --- ------ ----- --<br>----- ----- ---------- and --- ------ ------ ---- -- ------<br>------- --- ------ ----- --- ---- ------- -- ---- --- --<br>------- ------,353925.59999996424,353924.09999996424,353533.374,353542.59999996424,353550.132,353933.483,,36,and
screen,html.Screen,2_1_1_1_37,2022-05-04T09:15:07.561Z,,,,,,,,,,,,,,,,,54,,,,,,,,,,,,,,252.11699996422976,,response,,,,100,,,,,,,Space,keypress(Space),,,,,,,,-- --- ---- --- ------ ----- ------- ---- -- --- ------- --<br>------- ---------- ------ -- ----- -- ----- -- ---- ------<br>--- ----- --- --- ------ -------- ----- --- ------ ----- --<br>----- ----- ---------- --- the ------ ------ ---- -- ------<br>------- --- ------ ----- --- ---- ------- -- ---- --- --<br>------- ------,354187.3000000119,354185.59999996424,353916.868,353926.1999999881,353933.483,354200.144,,37,the
screen,html.Screen,2_1_1_1_38,2022-05-04T09:15:07.816Z,,,,,,,,,,,,,,,,,54,,,,,,,,,,,,,,240.1560000119498,,response,,,,100,,,,,,,Space,keypress(Space),,,,,,,,-- --- ---- --- ------ ----- ------- ---- -- --- ------- --<br>------- ---------- ------ -- ----- -- ----- -- ---- ------<br>--- ----- --- --- ------ -------- ----- --- ------ ----- --<br>----- ----- ---------- --- --- market ------ ---- -- ------<br>------- --- ------ ----- --- ---- ------- -- ---- --- --<br>------- ------,354442.1999999881,354440.3000000119,354183.484,354187.6999999881,354200.144,354450.117,,38,market
screen,html.Screen,2_1_1_1_39,2022-05-04T09:15:08.127Z,,,,,,,,,,,,,,,,,54,,,,,,,,,,,,,,300.8829999999725,,response,,,,100,,,,,,,Space,keypress(Space),,,,,,,,-- --- ---- --- ------ ----- ------- ---- -- --- ------- --<br>------- ---------- ------ -- ----- -- ----- -- ---- ------<br>--- ----- --- --- ------ -------- ----- --- ------ ----- --<br>----- ----- ---------- --- --- ------ became ---- -- ------<br>------- --- ------ ----- --- ---- ------- -- ---- --- --<br>------- ------,354752.59999996424,354751,354433.613,354442.5,354450.117,354766.898,,39,became
screen,html.Screen,2_1_1_1_40,2022-05-04T09:15:08.411Z,,,,,,,,,,,,,,,,,54,,,,,,,,,,,,,,268.2019999642507,,response,,,,100,,,,,,,Space,keypress(Space),,,,,,,,-- --- ---- --- ------ ----- ------- ---- -- --- ------- --<br>------- ---------- ------ -- ----- -- ----- -- ---- ------<br>--- ----- --- --- ------ -------- ----- --- ------ ----- --<br>----- ----- ---------- --- --- ------ ------ wary -- ------<br>------- --- ------ ----- --- ---- ------- -- ---- --- --<br>------- ------,355037,355035.09999996424,354750.31,354753,354766.898,355050.139,,40,wary
screen,html.Screen,2_1_1_1_41,2022-05-04T09:15:08.708Z,,,,,,,,,,,,,,,,,54,,,,,,,,,,,,,,282.66100001189625,,response,,,,100,,,,,,,Space,keypress(Space),,,,,,,,-- --- ---- --- ------ ----- ------- ---- -- --- ------- --<br>------- ---------- ------ -- ----- -- ----- -- ---- ------<br>--- ----- --- --- ------ -------- ----- --- ------ ----- --<br>----- ----- ---------- --- --- ------ ------ ---- of ------<br>------- --- ------ ----- --- ---- ------- -- ---- --- --<br>------- ------,355333.5,355332.8000000119,355033.596,355037.5,355050.139,355350.175,,41,of
screen,html.Screen,2_1_1_1_42,2022-05-04T09:15:08.990Z,,,,,,,,,,,,,,,,,54,,,,,,,,,,,,,,264.12500001193257,,response,,,,100,,,,,,,Space,keypress(Space),,,,,,,,-- --- ---- --- ------ ----- ------- ---- -- --- ------- --<br>------- ---------- ------ -- ----- -- ----- -- ---- ------<br>--- ----- --- --- ------ -------- ----- --- ------ ----- --<br>----- ----- ---------- --- --- ------ ------ ---- -- French<br>------- --- ------ ----- --- ---- ------- -- ---- --- --<br>------- ------,355616,355614.3000000119,355333.653,355333.59999996424,355350.175,355633.715,,42,French
screen,html.Screen,2_1_1_1_43,2022-05-04T09:15:09.362Z,,,,,,,,,,,,,,,,,54,,,,,,,,,,,,,,353.0850000118953,,response,,,,100,,,,,,,Space,keypress(Space),,,,,,,,-- --- ---- --- ------ ----- ------- ---- -- --- ------- --<br>------- ---------- ------ -- ----- -- ----- -- ---- ------<br>--- ----- --- --- ------ -------- ----- --- ------ ----- --<br>----- ----- ---------- --- --- ------ ------ ---- -- ------<br>credit. --- ------ ----- --- ---- ------- -- ---- --- --<br>------- ------,355988.39999997616,355986.8000000119,355616.968,355616.39999997616,355633.715,356000.178,,43,credit.
screen,html.Screen,2_1_1_1_44,2022-05-04T09:15:09.780Z,,,,,,,,,,,,,,,,,54,,,,,,,,,,,,,,403.9219999642228,,response,,,,100,,,,,,,Space,keypress(Space),,,,,,,,-- --- ---- --- ------ ----- ------- ---- -- --- ------- --<br>------- ---------- ------ -- ----- -- ----- -- ---- ------<br>--- ----- --- --- ------ -------- ----- --- ------ ----- --<br>----- ----- ---------- --- --- ------ ------ ---- -- ------<br>------- The ------ ----- --- ---- ------- -- ---- --- --<br>------- ------,356406.09999996424,356404.09999996424,355983.476,355988.89999997616,356000.178,356416.868,,44,The
screen,html.Screen,2_1_1_1_45,2022-05-04T09:15:10.018Z,,,,,,,,,,,,,,,,,54,,,,,,,,,,,,,,225.23199996422045,,response,,,,100,,,,,,,Space,keypress(Space),,,,,,,,-- --- ---- --- ------ ----- ------- ---- -- --- ------- --<br>------- ---------- ------ -- ----- -- ----- -- ---- ------<br>--- ----- --- --- ------ -------- ----- --- ------ ----- --<br>----- ----- ---------- --- --- ------ ------ ---- -- ------<br>------- --- French ----- --- ---- ------- -- ---- --- --<br>------- ------,356643.89999997616,356642.09999996424,356400.161,356406.59999996424,356416.868,356650.196,,45,French
screen,html.Screen,2_1_1_1_46,2022-05-04T09:15:10.270Z,,,,,,,,,,,,,,,,,54,,,,,,,,,,,,,,243.30400000000373,,response,,,,100,,,,,,,Space,keypress(Space),,,,,,,,-- --- ---- --- ------ ----- ------- ---- -- --- ------- --<br>------- ---------- ------ -- ----- -- ----- -- ---- ------<br>--- ----- --- --- ------ -------- ----- --- ------ ----- --<br>----- ----- ---------- --- --- ------ ------ ---- -- ------<br>------- --- ------ state --- ---- ------- -- ---- --- --<br>------- ------,356895.59999996424,356893.5,356633.42,356644.3000000119,356650.196,356900.154,,46,state
screen,html.Screen,2_1_1_1_47,2022-05-04T09:15:10.535Z,,,,,,,,,,,,,,,,,54,,,,,,,,,,,,,,258.6460000119405,,response,,,,100,,,,,,,Space,keypress(Space),,,,,,,,-- --- ---- --- ------ ----- ------- ---- -- --- ------- --<br>------- ---------- ------ -- ----- -- ----- -- ---- ------<br>--- ----- --- --- ------ -------- ----- --- ------ ----- --<br>----- ----- ---------- --- --- ------ ------ ---- -- ------<br>------- --- ------ ----- was ---- ------- -- ---- --- --<br>------- ------,357160.8000000119,357158.8000000119,356883.625,356896.1999999881,356900.154,357166.962,,47,was
screen,html.Screen,2_1_1_1_48,2022-05-04T09:15:10.799Z,,,,,,,,,,,,,,,,,54,,,,,,,,,,,,,,256.03800000000047,,response,,,,100,,,,,,,Space,keypress(Space),,,,,,,,-- --- ---- --- ------ ----- ------- ---- -- --- ------- --<br>------- ---------- ------ -- ----- -- ----- -- ---- ------<br>--- ----- --- --- ------ -------- ----- --- ------ ----- --<br>----- ----- ---------- --- --- ------ ------ ---- -- ------<br>------- --- ------ ----- --- left ------- -- ---- --- --<br>------- ------,357424.89999997616,357423,357150.064,357161.1999999881,357166.962,357433.48,,48,left
screen,html.Screen,2_1_1_1_49,2022-05-04T09:15:11.075Z,,,,,,,,,,,,,,,,,54,,,,,,,,,,,,,,265.7199999880977,,response,,,,100,,,,,,,Space,keypress(Space),,,,,,,,-- --- ---- --- ------ ----- ------- ---- -- --- ------- --<br>------- ---------- ------ -- ----- -- ----- -- ---- ------<br>--- ----- --- --- ------ -------- ----- --- ------ ----- --<br>----- ----- ---------- --- --- ------ ------ ---- -- ------<br>------- --- ------ ----- --- ---- without -- ---- --- --<br>------- ------,357701.3000000119,357699.1999999881,357417.041,357425.3000000119,357433.48,357717.048,,49,without
screen,html.Screen,2_1_1_1_50,2022-05-04T09:15:11.376Z,,,,,,,,,,,,,,,,,54,,,,,,,,,,,,,,282.75200001191115,,response,,,,100,,,,,,,Space,keypress(Space),,,,,,,,-- --- ---- --- ------ ----- ------- ---- -- --- ------- --<br>------- ---------- ------ -- ----- -- ----- -- ---- ------<br>--- ----- --- --- ------ -------- ----- --- ------ ----- --<br>----- ----- ---------- --- --- ------ ------ ---- -- ------<br>------- --- ------ ----- --- ---- ------- an ---- --- --<br>------- ------,358001.89999997616,357999.8000000119,357700.267,357701.59999996424,357717.048,358016.855,,50,an
screen,html.Screen,2_1_1_1_51,2022-05-04T09:15:11.766Z,,,,,,,,,,,,,,,,,54,,,,,,,,,,,,,,373.24499996425584,,response,,,,100,,,,,,,Space,keypress(Space),,,,,,,,-- --- ---- --- ------ ----- ------- ---- -- --- ------- --<br>------- ---------- ------ -- ----- -- ----- -- ---- ------<br>--- ----- --- --- ------ -------- ----- --- ------ ----- --<br>----- ----- ---------- --- --- ------ ------ ---- -- ------<br>------- --- ------ ----- --- ---- ------- -- easy --- --<br>------- ------,358392.39999997616,358390.09999996424,358000.258,358002.3000000119,358016.855,358400.15,,51,easy
screen,html.Screen,2_1_1_1_52,2022-05-04T09:15:12.058Z,,,,,,,,,,,,,,,,,54,,,,,,,,,,,,,,282.0499999880558,,response,,,,100,,,,,,,Space,keypress(Space),,,,,,,,-- --- ---- --- ------ ----- ------- ---- -- --- ------- --<br>------- ---------- ------ -- ----- -- ----- -- ---- ------<br>--- ----- --- --- ------ -------- ----- --- ------ ----- --<br>----- ----- ---------- --- --- ------ ------ ---- -- ------<br>------- --- ------ ----- --- ---- ------- -- ---- way --<br>------- ------,358684.1999999881,358682.1999999881,358383.661,358392.6999999881,358400.15,358700.27,,52,way
screen,html.Screen,2_1_1_1_53,2022-05-04T09:15:12.482Z,,,,,,,,,,,,,,,,,54,,,,,,,,,,,,,,406.2299999999814,,response,,,,100,,,,,,,Space,keypress(Space),,,,,,,,-- --- ---- --- ------ ----- ------- ---- -- --- ------- --<br>------- ---------- ------ -- ----- -- ----- -- ---- ------<br>--- ----- --- --- ------ -------- ----- --- ------ ----- --<br>----- ----- ---------- --- --- ------ ------ ---- -- ------<br>------- --- ------ ----- --- ---- ------- -- ---- --- of<br>------- ------,359108.09999996424,359106.5,358683.6,358684.59999996424,358700.27,359116.817,,53,of
screen,html.Screen,2_1_1_1_54,2022-05-04T09:15:12.918Z,,,,,,,,,,,,,,,,,54,,,,,,,,,,,,,,425.7829999642563,,response,,,,100,,,,,,,Space,keypress(Space),,,,,,,,-- --- ---- --- ------ ----- ------- ---- -- --- ------- --<br>------- ---------- ------ -- ----- -- ----- -- ---- ------<br>--- ----- --- --- ------ -------- ----- --- ------ ----- --<br>----- ----- ---------- --- --- ------ ------ ---- -- ------<br>------- --- ------ ----- --- ---- ------- -- ---- --- --<br>raising ------,359544.3000000119,359542.59999996424,359100.18,359108.5,359116.817,359550.153,,54,raising
screen,html.Screen,2_1_1_1_55,2022-05-04T09:15:13.848Z,,,,,,,,,,,,,,,,,54,,,,,,,,,,,,,,921.4469999642461,,response,,,,100,,,,,,,Space,keypress(Space),,,,,,,,-- --- ---- --- ------ ----- ------- ---- -- --- ------- --<br>------- ---------- ------ -- ----- -- ----- -- ---- ------<br>--- ----- --- --- ------ -------- ----- --- ------ ----- --<br>----- ----- ---------- --- --- ------ ------ ---- -- ------<br>------- --- ------ ----- --- ---- ------- -- ---- --- --<br>------- money.,360473.5,360471.59999996424,359533.587,359544.6999999881,359550.153,360483.407,,55,money.
Item 100,flow.Loop,2_1_1_1,2022-05-04T09:15:13.848Z,,,,,,,,,,,,,,,,,,,,,,,,,,,,,,,19238.20399996423,,completion,,,,,B,,,,,,,,,,,silence,,,,,360474.1999999881,360471.59999996424,341216.791,341218.6999999881,341233.396,360483.407,,,
Question 1,html.Screen,2_1_1_2,2022-05-04T09:15:16.311Z,,,,,,,,,,,,,,,,,,,,,,,,,,,,true,TRUE,,2452.3930000119144,,response,,,,100,B,,,,,,TRUE,click #choice-1,,,,silence,,,,,362936.59999996424,362935.8000000119,360466.77,360474.39999997616,360483.407,362950.203,,,
Question 2,html.Screen,2_1_1_3,2022-05-04T09:15:18.248Z,,,,,,,,,,,,,,,,,,,,,,,,,,,,false,FALSE,,1922.8969999642577,,response,,,,100,B,,,,,,TRUE,click #choice-1,,,,silence,,,,,364873.89999997616,364873.09999996424,362933.51,362936.6999999881,362950.203,364883.522,,,
Item 100,flow.Sequence,2_1_1,2022-05-04T09:15:18.248Z,,,,,,,,,,,,,,,,,,,,,,,,,,,,,,,33639.81999996421,,completion,,,,,,,,,,,,,,,,,,,,,364874,364873.09999996424,331216.93,331230.09999996424,331233.28,364883.522,,,
End of Practice,html.Page,2_1_2,2022-05-04T09:15:21.696Z,,,,,,,,,,,,,,,,,,,,,,,,,,,,,,,3437.978000000003,,form submission,,,,,,,,,,,,,,,,,,,,,368321.8000000119,368321.5,364866.944,364874.09999996424,364883.522,368333.397,,,
Practice,flow.Sequence,2_1,2022-05-04T09:15:21.696Z,,,,,,,,,,,,,,,,,,,,,,,,,,,,,,,75838.34700000001,,completion,,,,,,,,,,,,,,,,,,,,,368322,368321.5,292466.691,292482.3000000119,292483.153,368333.397,,,
Trap_instruction,html.Page,2_2_0,2022-05-04T09:15:30.169Z,,,,,,,,,,,,,,,,,,,,,,,,,,,,,,,8461.603000000003,,form submission,,,,,,,,,,,,,,,,,,,,,376795.1999999881,376795,368316.775,368322.09999996424,368333.397,376816.763,,,
trap_trial,html.Screen,2_2_1,2022-05-04T09:15:33.250Z,,,,,,,,,,,,,,,,,,,,,,,,,,,,true,1,,3058.237000000023,,response,,,,,,,,,,,1,click #choice-1,,,,,,,,,379875.6999999881,379875,376783.666,376795.3000000119,376816.763,379883.447,,,
end of trap trial,html.Page,2_2_2,2022-05-04T09:15:35.314Z,,,,,,,,,,,,,,,,,,,,,,,,,,,,,,,2056.3530000119354,,form submission,,,,,,,,,,,,,,,,,,,,,381940,381939.8000000119,379867.005,379875.89999997616,379883.447,381950.356,,,
Trap 1,flow.Sequence,2_2,2022-05-04T09:15:35.314Z,,,,,,,,,,,,,,,,,,,,,,,,,,,,,,,13606.403000011924,,completion,,,,,,,,,,,,,,,,,,,,,381940.09999996424,381939.8000000119,368316.775,368322.09999996424,368333.397,381950.356,,,
Standby,html.Page,2_3_0,2022-05-04T09:15:43.310Z,,,,,,,,,,,,,,,,,,,,,,,,,,,,,,,7999.947999999975,,timeout,,,,,,,,,,,,,,,,,,,,,389935.6999999881,389933.782,381933.673,381940.1999999881,381950.356,389950.304,,,
Holding screen,html.Screen,2_3_1_0_0,2022-05-04T09:15:50.309Z,,,,,,,,,,,,,,,,,,,,,,,,,,,,,,,6999.967000000004,,timeout,,,,,,,,,,,,,,,,,,,,,396935.39999997616,396933.725,389933.782,389936.59999996424,389950.304,396950.271,,,
screen,html.Screen,2_3_1_0_1_0,2022-05-04T09:15:51.008Z,,,,,,,,,,,,,,,,,12,,,,,,,,,,,,,,681.529000011913,,response,,,,5,B,,,,,,Space,keypress(Space),,,,lyrical,,,,Some ------ ------ ------- ------ --- ------- -----------<br>-- ----- --- ---- -- --- ------ ---- - ---- -- ----------<br>-- ------ ---- --- ---- --- --- --- ----- -- -------- ---<br>------ ------- -------- --- ---- -- ------- ------------ --<br>------ -- ---- -- --- ---- -- -------- -- --- ------ ------,397634.1999999881,397631.8000000119,396933.725,396936.09999996424,396950.271,397653.688,,0,Some
screen,html.Screen,2_3_1_0_1_1,2022-05-04T09:15:51.419Z,,,,,,,,,,,,,,,,,12,,,,,,,,,,,,,,389.81199999997625,,response,,,,5,B,,,,,,Space,keypress(Space),,,,lyrical,,,,---- months ------ ------- ------ --- ------- -----------<br>-- ----- --- ---- -- --- ------ ---- - ---- -- ----------<br>-- ------ ---- --- ---- --- --- --- ----- -- -------- ---<br>------ ------- -------- --- ---- -- ------- ------------ --<br>------ -- ---- -- --- ---- -- -------- -- --- ------ ------,398045.5,398043.5,397616.913,397634.59999996424,397653.688,398050.336,,1,months
screen,html.Screen,2_3_1_0_1_2,2022-05-04T09:15:51.832Z,,,,,,,,,,,,,,,,,12,,,,,,,,,,,,,,406.3639999880688,,response,,,,5,B,,,,,,Space,keypress(Space),,,,lyrical,,,,"---- ------ later, ------- ------ --- ------- -----------<br>-- ----- --- ---- -- --- ------ ---- - ---- -- ----------<br>-- ------ ---- --- ---- --- --- --- ----- -- -------- ---<br>------ ------- -------- --- ---- -- ------- ------------ --<br>------ -- ---- -- --- ---- -- -------- -- --- ------ ------",398457.6999999881,398456.6999999881,398033.707,398045.8000000119,398050.336,398467.01,,2,"later,"
screen,html.Screen,2_3_1_0_1_3,2022-05-04T09:15:52.251Z,,,,,,,,,,,,,,,,,12,,,,,,,,,,,,,,407.88999997614883,,response,,,,5,B,,,,,,Space,keypress(Space),,,,lyrical,,,,---- ------ ------ Michael ------ --- ------- -----------<br>-- ----- --- ---- -- --- ------ ---- - ---- -- ----------<br>-- ------ ---- --- ---- --- --- --- ----- -- -------- ---<br>------ ------- -------- --- ---- -- ------- ------------ --<br>------ -- ---- -- --- ---- -- -------- -- --- ------ ------,398876.89999997616,398874.89999997616,398450.287,398457.89999997616,398467.01,398883.727,,3,Michael
screen,html.Screen,2_3_1_0_1_4,2022-05-04T09:15:52.627Z,,,,,,,,,,,,,,,,,12,,,,,,,,,,,,,,367.7729999999865,,response,,,,5,B,,,,,,Space,keypress(Space),,,,lyrical,,,,---- ------ ------ ------- Larson --- ------- -----------<br>-- ----- --- ---- -- --- ------ ---- - ---- -- ----------<br>-- ------ ---- --- ---- --- --- --- ----- -- -------- ---<br>------ ------- -------- --- ---- -- ------- ------------ --<br>------ -- ---- -- --- ---- -- -------- -- --- ------ ------,399253.09999996424,399251.5,398867.146,398877.1999999881,398883.727,399267.002,,4,Larson
screen,html.Screen,2_3_1_0_1_5,2022-05-04T09:15:52.999Z,,,,,,,,,,,,,,,,,12,,,,,,,,,,,,,,356.1979999881005,,response,,,,5,B,,,,,,Space,keypress(Space),,,,lyrical,,,,---- ------ ------ ------- ------ saw ------- -----------<br>-- ----- --- ---- -- --- ------ ---- - ---- -- ----------<br>-- ------ ---- --- ---- --- --- --- ----- -- -------- ---<br>------ ------- -------- --- ---- -- ------- ------------ --<br>------ -- ---- -- --- ---- -- -------- -- --- ------ ------,399625.39999997616,399623.1999999881,399250.515,399253.5,399267.002,399633.721,,5,saw
screen,html.Screen,2_3_1_0_1_6,2022-05-04T09:15:53.401Z,,,,,,,,,,,,,,,,,12,,,,,,,,,,,,,,391.77899999998044,,response,,,,5,B,,,,,,Space,keypress(Space),,,,lyrical,,,,---- ------ ------ ------- ------ --- another -----------<br>-- ----- --- ---- -- --- ------ ---- - ---- -- ----------<br>-- ------ ---- --- ---- --- --- --- ----- -- -------- ---<br>------ ------- -------- --- ---- -- ------- ------------ --<br>------ -- ---- -- --- ---- -- -------- -- --- ------ ------,400027.3000000119,400025.5,399616.928,399626,399633.721,400033.66,,6,another
screen,html.Screen,2_3_1_0_1_7,2022-05-04T09:15:53.803Z,,,,,,,,,,,,,,,,,12,,,,,,,,,,,,,,393.23999997618375,,response,,,,5,B,,,,,,Space,keypress(Space),,,,lyrical,,,,---- ------ ------ ------- ------ --- ------- opportunity<br>-- ----- --- ---- -- --- ------ ---- - ---- -- ----------<br>-- ------ ---- --- ---- --- --- --- ----- -- -------- ---<br>------ ------- -------- --- ---- -- ------- ------------ --<br>------ -- ---- -- --- ---- -- -------- -- --- ------ ------,400428.59999996424,400426.89999997616,400017.117,400027.59999996424,400033.66,400433.708,,7,opportunity
screen,html.Screen,2_3_1_0_1_8,2022-05-04T09:15:54.226Z,,,,,,,,,,,,,,,,,12,,,,,,,,,,,,,,415.9919999880949,,response,,,,5,B,,,,,,Space,keypress(Space),,,,lyrical,,,,---- ------ ------ ------- ------ --- ------- -----------<br>to ----- --- ---- -- --- ------ ---- - ---- -- ----------<br>-- ------ ---- --- ---- --- --- --- ----- -- -------- ---<br>------ ------- -------- --- ---- -- ------- ------------ --<br>------ -- ---- -- --- ---- -- -------- -- --- ------ ------,400851.59999996424,400849.6999999881,400417.066,400428.89999997616,400433.708,400867.006,,8,to
screen,html.Screen,2_3_1_0_1_9,2022-05-04T09:15:54.615Z,,,,,,,,,,,,,,,,,12,,,,,,,,,,,,,,372.09399996424327,,response,,,,5,B,,,,,,Space,keypress(Space),,,,lyrical,,,,---- ------ ------ ------- ------ --- ------- -----------<br>-- stack --- ---- -- --- ------ ---- - ---- -- ----------<br>-- ------ ---- --- ---- --- --- --- ----- -- -------- ---<br>------ ------- -------- --- ---- -- ------- ------------ --<br>------ -- ---- -- --- ---- -- -------- -- --- ------ ------,401240.6999999881,401239.09999996424,400850.333,400851.89999997616,400867.006,401250.304,,9,stack
screen,html.Screen,2_3_1_0_1_10,2022-05-04T09:15:55.022Z,,,,,,,,,,,,,,,,,12,,,,,,,,,,,,,,395.5959999761544,,response,,,,5,B,,,,,,Space,keypress(Space),,,,lyrical,,,,---- ------ ------ ------- ------ --- ------- -----------<br>-- ----- the ---- -- --- ------ ---- - ---- -- ----------<br>-- ------ ---- --- ---- --- --- --- ----- -- -------- ---<br>------ ------- -------- --- ---- -- ------- ------------ --<br>------ -- ---- -- --- ---- -- -------- -- --- ------ ------,401647.89999997616,401645.89999997616,401233.732,401241.09999996424,401250.304,401673.537,,10,the
screen,html.Screen,2_3_1_0_1_11,2022-05-04T09:15:55.412Z,,,,,,,,,,,,,,,,,12,,,,,,,,,,,,,,362.36299997614697,,response,,,,5,B,,,,,,Space,keypress(Space),,,,lyrical,,,,---- ------ ------ ------- ------ --- ------- -----------<br>-- ----- --- odds -- --- ------ ---- - ---- -- ----------<br>-- ------ ---- --- ---- --- --- --- ----- -- -------- ---<br>------ ------- -------- --- ---- -- ------- ------------ --<br>------ -- ---- -- --- ---- -- -------- -- --- ------ ------,402037.59999996424,402035.89999997616,401633.693,401648.1999999881,401673.537,402050.307,,11,odds
screen,html.Screen,2_3_1_0_1_12,2022-05-04T09:15:55.791Z,,,,,,,,,,,,,,,,,12,,,,,,,,,,,,,,364.8929999881075,,response,,,,5,B,,,,,,Space,keypress(Space),,,,lyrical,,,,---- ------ ------ ------- ------ --- ------- -----------<br>-- ----- --- ---- in --- ------ ---- - ---- -- ----------<br>-- ------ ---- --- ---- --- --- --- ----- -- -------- ---<br>------ ------- -------- --- ---- -- ------- ------------ --<br>------ -- ---- -- --- ---- -- -------- -- --- ------ ------,402417.39999997616,402415.1999999881,402033.533,402037.89999997616,402050.307,402433.767,,12,in
screen,html.Screen,2_3_1_0_1_13,2022-05-04T09:15:56.145Z,,,,,,,,,,,,,,,,,12,,,,,,,,,,,,,,336.1329999761656,,response,,,,5,B,,,,,,Space,keypress(Space),,,,lyrical,,,,---- ------ ------ ------- ------ --- ------- -----------<br>-- ----- --- ---- -- his ------ ---- - ---- -- ----------<br>-- ------ ---- --- ---- --- --- --- ----- -- -------- ---<br>------ ------- -------- --- ---- -- ------- ------------ --<br>------ -- ---- -- --- ---- -- -------- -- --- ------ ------,402771.5,402769.89999997616,402417.091,402417.6999999881,402433.767,402783.631,,13,his
screen,html.Screen,2_3_1_0_1_14,2022-05-04T09:15:56.529Z,,,,,,,,,,,,,,,,,12,,,,,,,,,,,,,,368.86900000000605,,response,,,,5,B,,,,,,Space,keypress(Space),,,,lyrical,,,,---- ------ ------ ------- ------ --- ------- -----------<br>-- ----- --- ---- -- --- favour ---- - ---- -- ----------<br>-- ------ ---- --- ---- --- --- --- ----- -- -------- ---<br>------ ------- -------- --- ---- -- ------- ------------ --<br>------ -- ---- -- --- ---- -- -------- -- --- ------ ------,403154.89999997616,403152.5,402767.016,402771.8000000119,402783.631,403167.009,,14,favour
screen,html.Screen,2_3_1_0_1_15,2022-05-04T09:15:56.908Z,,,,,,,,,,,,,,,,,12,,,,,,,,,,,,,,365.2910000119009,,response,,,,5,B,,,,,,Space,keypress(Space),,,,lyrical,,,,---- ------ ------ ------- ------ --- ------- -----------<br>-- ----- --- ---- -- --- ------ with - ---- -- ----------<br>-- ------ ---- --- ---- --- --- --- ----- -- -------- ---<br>------ ------- -------- --- ---- -- ------- ------------ --<br>------ -- ---- -- --- ---- -- -------- -- --- ------ ------,403534.1999999881,403532.3000000119,403150.353,403155.6999999881,403167.009,403550.597,,15,with
screen,html.Screen,2_3_1_0_1_16,2022-05-04T09:15:57.258Z,,,,,,,,,,,,,,,,,12,,,,,,,,,,,,,,331.7030000119121,,response,,,,5,B,,,,,,Space,keypress(Space),,,,lyrical,,,,---- ------ ------ ------- ------ --- ------- -----------<br>-- ----- --- ---- -- --- ------ ---- a ---- -- ----------<br>-- ------ ---- --- ---- --- --- --- ----- -- -------- ---<br>------ ------- -------- --- ---- -- ------- ------------ --<br>------ -- ---- -- --- ---- -- -------- -- --- ------ ------,403884.39999997616,403882.3000000119,403533.846,403534.59999996424,403550.597,403900.537,,16,a
screen,html.Screen,2_3_1_0_1_17,2022-05-04T09:15:57.611Z,,,,,,,,,,,,,,,,,12,,,,,,,,,,,,,,334.56299996422604,,response,,,,5,B,,,,,,Space,keypress(Space),,,,lyrical,,,,---- ------ ------ ------- ------ --- ------- -----------<br>-- ----- --- ---- -- --- ------ ---- - dash -- ----------<br>-- ------ ---- --- ---- --- --- --- ----- -- -------- ---<br>------ ------- -------- --- ---- -- ------- ------------ --<br>------ -- ---- -- --- ---- -- -------- -- --- ------ ------,404237,404235.09999996424,403883.771,403884.8000000119,403900.537,404250.414,,17,dash
screen,html.Screen,2_3_1_0_1_18,2022-05-04T09:15:57.965Z,,,,,,,,,,,,,,,,,12,,,,,,,,,,,,,,338.9859999761684,,response,,,,5,B,,,,,,Space,keypress(Space),,,,lyrical,,,,---- ------ ------ ------- ------ --- ------- -----------<br>-- ----- --- ---- -- --- ------ ---- - ---- of ----------<br>-- ------ ---- --- ---- --- --- --- ----- -- -------- ---<br>------ ------- -------- --- ---- -- ------- ------------ --<br>------ -- ---- -- --- ---- -- -------- -- --- ------ ------,404591,404589.39999997616,404233.751,404237.39999997616,404250.414,404600.289,,18,of
screen,html.Screen,2_3_1_0_1_19,2022-05-04T09:15:58.553Z,,,,,,,,,,,,,,,,,12,,,,,,,,,,,,,,576.7110000000102,,response,,,,5,B,,,,,,Space,keypress(Space),,,,lyrical,,,,---- ------ ------ ------- ------ --- ------- -----------<br>-- ----- --- ---- -- --- ------ ---- - ---- -- ingenuity.<br>-- ------ ---- --- ---- --- --- --- ----- -- -------- ---<br>------ ------- -------- --- ---- -- ------- ------------ --<br>------ -- ---- -- --- ---- -- -------- -- --- ------ ------,405178.6999999881,405177,404583.625,404591.3000000119,404600.289,405183.669,,19,ingenuity.
screen,html.Screen,2_3_1_0_1_20,2022-05-04T09:15:58.961Z,,,,,,,,,,,,,,,,,12,,,,,,,,,,,,,,402.1310000119265,,response,,,,5,B,,,,,,Space,keypress(Space),,,,lyrical,,,,---- ------ ------ ------- ------ --- ------- -----------<br>-- ----- --- ---- -- --- ------ ---- - ---- -- ----------<br>He ------ ---- --- ---- --- --- --- ----- -- -------- ---<br>------ ------- -------- --- ---- -- ------- ------------ --<br>------ -- ---- -- --- ---- -- -------- -- --- ------ ------,405587.09999996424,405585.8000000119,405167.007,405179.09999996424,405183.669,405600.503,,20,He
screen,html.Screen,2_3_1_0_1_21,2022-05-04T09:15:59.377Z,,,,,,,,,,,,,,,,,12,,,,,,,,,,,,,,400.696999988053,,response,,,,5,B,,,,,,Space,keypress(Space),,,,lyrical,,,,---- ------ ------ ------- ------ --- ------- -----------<br>-- ----- --- ---- -- --- ------ ---- - ---- -- ----------<br>-- walked ---- --- ---- --- --- --- ----- -- -------- ---<br>------ ------- -------- --- ---- -- ------- ------------ --<br>------ -- ---- -- --- ---- -- -------- -- --- ------ ------,406002.8000000119,406001.1999999881,405583.862,405587.3000000119,405600.503,406017.101,,21,walked
screen,html.Screen,2_3_1_0_1_22,2022-05-04T09:15:59.759Z,,,,,,,,,,,,,,,,,12,,,,,,,,,,,,,,365.2989999761339,,response,,,,5,B,,,,,,Space,keypress(Space),,,,lyrical,,,,---- ------ ------ ------- ------ --- ------- -----------<br>-- ----- --- ---- -- --- ------ ---- - ---- -- ----------<br>-- ------ into --- ---- --- --- --- ----- -- -------- ---<br>------ ------- -------- --- ---- -- ------- ------------ --<br>------ -- ---- -- --- ---- -- -------- -- --- ------ ------,406384.5,406382.39999997616,406000.511,406003.1999999881,406017.101,406400.311,,22,into
screen,html.Screen,2_3_1_0_1_23,2022-05-04T09:16:00.139Z,,,,,,,,,,,,,,,,,12,,,,,,,,,,,,,,362.28899996425025,,response,,,,5,B,,,,,,Space,keypress(Space),,,,lyrical,,,,---- ------ ------ ------- ------ --- ------- -----------<br>-- ----- --- ---- -- --- ------ ---- - ---- -- ----------<br>-- ------ ---- his ---- --- --- --- ----- -- -------- ---<br>------ ------- -------- --- ---- -- ------- ------------ --<br>------ -- ---- -- --- ---- -- -------- -- --- ------ ------,406764.59999996424,406762.59999996424,406383.7,406384.89999997616,406400.311,406803.606,,23,his
screen,html.Screen,2_3_1_0_1_24,2022-05-04T09:16:00.536Z,,,,,,,,,,,,,,,,,12,,,,,,,,,,,,,,357.49399996420834,,response,,,,5,B,,,,,,Space,keypress(Space),,,,lyrical,,,,---- ------ ------ ------- ------ --- ------- -----------<br>-- ----- --- ---- -- --- ------ ---- - ---- -- ----------<br>-- ------ ---- --- bank --- --- --- ----- -- -------- ---<br>------ ------- -------- --- ---- -- ------- ------------ --<br>------ -- ---- -- --- ---- -- -------- -- --- ------ ------,407162,407161.09999996424,406750.282,406765.1999999881,406803.606,407167.032,,24,bank
screen,html.Screen,2_3_1_0_1_25,2022-05-04T09:16:00.903Z,,,,,,,,,,,,,,,,,12,,,,,,,,,,,,,,359.16799998807255,,response,,,,5,B,,,,,,Space,keypress(Space),,,,lyrical,,,,---- ------ ------ ------- ------ --- ------- -----------<br>-- ----- --- ---- -- --- ------ ---- - ---- -- ----------<br>-- ------ ---- --- ---- one --- --- ----- -- -------- ---<br>------ ------- -------- --- ---- -- ------- ------------ --<br>------ -- ---- -- --- ---- -- -------- -- --- ------ ------,407528.59999996424,407526.1999999881,407150.41,407162.09999996424,407167.032,407533.685,,25,one
screen,html.Screen,2_3_1_0_1_26,2022-05-04T09:16:01.252Z,,,,,,,,,,,,,,,,,12,,,,,,,,,,,,,,342.8150000000023,,response,,,,5,B,,,,,,Space,keypress(Space),,,,lyrical,,,,---- ------ ------ ------- ------ --- ------- -----------<br>-- ----- --- ---- -- --- ------ ---- - ---- -- ----------<br>-- ------ ---- --- ---- --- day --- ----- -- -------- ---<br>------ ------- -------- --- ---- -- ------- ------------ --<br>------ -- ---- -- --- ---- -- -------- -- --- ------ ------,407878,407876.5,407517.214,407529.09999996424,407533.685,407883.679,,26,day
screen,html.Screen,2_3_1_0_1_27,2022-05-04T09:16:01.536Z,,,,,,,,,,,,,,,,,12,,,,,,,,,,,,,,277.3209999999963,,response,,,,5,B,,,,,,Space,keypress(Space),,,,lyrical,,,,---- ------ ------ ------- ------ --- ------- -----------<br>-- ----- --- ---- -- --- ------ ---- - ---- -- ----------<br>-- ------ ---- --- ---- --- --- and ----- -- -------- ---<br>------ ------- -------- --- ---- -- ------- ------------ --<br>------ -- ---- -- --- ---- -- -------- -- --- ------ ------,408161.8000000119,408161,407867.031,407878.39999997616,407883.679,408166.903,,27,and
screen,html.Screen,2_3_1_0_1_28,2022-05-04T09:16:01.848Z,,,,,,,,,,,,,,,,,12,,,,,,,,,,,,,,305.3970000119298,,response,,,,5,B,,,,,,Space,keypress(Space),,,,lyrical,,,,---- ------ ------ ------- ------ --- ------- -----------<br>-- ----- --- ---- -- --- ------ ---- - ---- -- ----------<br>-- ------ ---- --- ---- --- --- --- asked -- -------- ---<br>------ ------- -------- --- ---- -- ------- ------------ --<br>------ -- ---- -- --- ---- -- -------- -- --- ------ ------,408473.89999997616,408472.3000000119,408150.5,408162,408166.903,408483.682,,28,asked
screen,html.Screen,2_3_1_0_1_29,2022-05-04T09:16:02.207Z,,,,,,,,,,,,,,,,,12,,,,,,,,,,,,,,347.5179999881075,,response,,,,5,B,,,,,,Space,keypress(Space),,,,lyrical,,,,---- ------ ------ ------- ------ --- ------- -----------<br>-- ----- --- ---- -- --- ------ ---- - ---- -- ----------<br>-- ------ ---- --- ---- --- --- --- ----- to -------- ---<br>------ ------- -------- --- ---- -- ------- ------------ --<br>------ -- ---- -- --- ---- -- -------- -- --- ------ ------,408832.6999999881,408831.1999999881,408467.061,408474.3000000119,408483.682,408850.597,,29,to
screen,html.Screen,2_3_1_0_1_30,2022-05-04T09:16:02.566Z,,,,,,,,,,,,,,,,,12,,,,,,,,,,,,,,340.8029999761493,,response,,,,5,B,,,,,,Space,keypress(Space),,,,lyrical,,,,---- ------ ------ ------- ------ --- ------- -----------<br>-- ----- --- ---- -- --- ------ ---- - ---- -- ----------<br>-- ------ ---- --- ---- --- --- --- ----- -- withdraw ---<br>------ ------- -------- --- ---- -- ------- ------------ --<br>------ -- ---- -- --- ---- -- -------- -- --- ------ ------,409192,409191.39999997616,408833.83,408833.09999996424,408850.597,409200.359,,30,withdraw
screen,html.Screen,2_3_1_0_1_31,2022-05-04T09:16:02.954Z,,,,,,,,,,,,,,,,,12,,,,,,,,,,,,,,378.34099998808233,,response,,,,5,B,,,,,,Space,keypress(Space),,,,lyrical,,,,---- ------ ------ ------- ------ --- ------- -----------<br>-- ----- --- ---- -- --- ------ ---- - ---- -- ----------<br>-- ------ ---- --- ---- --- --- --- ----- -- -------- his<br>------ ------- -------- --- ---- -- ------- ------------ --<br>------ -- ---- -- --- ---- -- -------- -- --- ------ ------,409580.3000000119,409578.6999999881,409183.774,409192.1999999881,409200.359,409583.7,,31,his
screen,html.Screen,2_3_1_0_1_32,2022-05-04T09:16:03.336Z,,,,,,,,,,,,,,,,,12,,,,,,,,,,,,,,376.8999999642256,,response,,,,5,B,,,,,,Space,keypress(Space),,,,lyrical,,,,---- ------ ------ ------- ------ --- ------- -----------<br>-- ----- --- ---- -- --- ------ ---- - ---- -- ----------<br>-- ------ ---- --- ---- --- --- --- ----- -- -------- ---<br>entire ------- -------- --- ---- -- ------- ------------ --<br>------ -- ---- -- --- ---- -- -------- -- --- ------ ------,409962.09999996424,409960.59999996424,409567.084,409580.6999999881,409583.7,409966.996,,32,entire
screen,html.Screen,2_3_1_0_1_33,2022-05-04T09:16:03.653Z,,,,,,,,,,,,,,,,,12,,,,,,,,,,,,,,309.4039999761735,,response,,,,5,B,,,,,,Space,keypress(Space),,,,lyrical,,,,---- ------ ------ ------- ------ --- ------- -----------<br>-- ----- --- ---- -- --- ------ ---- - ---- -- ----------<br>-- ------ ---- --- ---- --- --- --- ----- -- -------- ---<br>------ account -------- --- ---- -- ------- ------------ --<br>------ -- ---- -- --- ---- -- -------- -- --- ------ ------,410278.59999996424,410276.39999997616,409950.364,409962.5,409966.996,410283.655,,33,account
screen,html.Screen,2_3_1_0_1_34,2022-05-04T09:16:04.020Z,,,,,,,,,,,,,,,,,12,,,,,,,,,,,,,,360.145000011893,,response,,,,5,B,,,,,,Space,keypress(Space),,,,lyrical,,,,"---- ------ ------ ------- ------ --- ------- -----------<br>-- ----- --- ---- -- --- ------ ---- - ---- -- ----------<br>-- ------ ---- --- ---- --- --- --- ----- -- -------- ---<br>------ ------- balance, --- ---- -- ------- ------------ --<br>------ -- ---- -- --- ---- -- -------- -- --- ------ ------",410646,410643.8000000119,410267.185,410279.09999996424,410283.655,410650.359,,34,"balance,"
screen,html.Screen,2_3_1_0_1_35,2022-05-04T09:16:04.384Z,,,,,,,,,,,,,,,,,12,,,,,,,,,,,,,,358.0409999761614,,response,,,,5,B,,,,,,Space,keypress(Space),,,,lyrical,,,,---- ------ ------ ------- ------ --- ------- -----------<br>-- ----- --- ---- -- --- ------ ---- - ---- -- ----------<br>-- ------ ---- --- ---- --- --- --- ----- -- -------- ---<br>------ ------- -------- but ---- -- ------- ------------ --<br>------ -- ---- -- --- ---- -- -------- -- --- ------ ------,411010.09999996424,411008.39999997616,410633.56,410646.39999997616,410650.359,411017.013,,35,but
screen,html.Screen,2_3_1_0_1_36,2022-05-04T09:16:04.726Z,,,,,,,,,,,,,,,,,12,,,,,,,,,,,,,,334.1869999881019,,response,,,,5,B,,,,,,Space,keypress(Space),,,,lyrical,,,,---- ------ ------ ------- ------ --- ------- -----------<br>-- ----- --- ---- -- --- ------ ---- - ---- -- ----------<br>-- ------ ---- --- ---- --- --- --- ----- -- -------- ---<br>------ ------- -------- --- with -- ------- ------------ --<br>------ -- ---- -- --- ---- -- -------- -- --- ------ ------,411351.8000000119,411351.1999999881,411000.428,411010.39999997616,411017.013,411367.118,,36,with
screen,html.Screen,2_3_1_0_1_37,2022-05-04T09:16:05.095Z,,,,,,,,,,,,,,,,,12,,,,,,,,,,,,,,352.18200001190417,,response,,,,5,B,,,,,,Space,keypress(Space),,,,lyrical,,,,---- ------ ------ ------- ------ --- ------- -----------<br>-- ----- --- ---- -- --- ------ ---- - ---- -- ----------<br>-- ------ ---- --- ---- --- --- --- ----- -- -------- ---<br>------ ------- -------- --- ---- an ------- ------------ --<br>------ -- ---- -- --- ---- -- -------- -- --- ------ ------,411720.8000000119,411719.3000000119,411350.466,411351.89999997616,411367.118,411733.69,,37,an
screen,html.Screen,2_3_1_0_1_38,2022-05-04T09:16:05.475Z,,,,,,,,,,,,,,,,,12,,,,,,,,,,,,,,365.00999998807674,,response,,,,5,B,,,,,,Space,keypress(Space),,,,lyrical,,,,---- ------ ------ ------- ------ --- ------- -----------<br>-- ----- --- ---- -- --- ------ ---- - ---- -- ----------<br>-- ------ ---- --- ---- --- --- --- ----- -- -------- ---<br>------ ------- -------- --- ---- -- unusual ------------ --<br>------ -- ---- -- --- ---- -- -------- -- --- ------ ------,412101,412098.6999999881,411717.027,411721.09999996424,411733.69,412117.089,,38,unusual
screen,html.Screen,2_3_1_0_1_39,2022-05-04T09:16:05.829Z,,,,,,,,,,,,,,,,,12,,,,,,,,,,,,,,336.81099997618,,response,,,,5,B,,,,,,Space,keypress(Space),,,,lyrical,,,,---- ------ ------ ------- ------ --- ------- -----------<br>-- ----- --- ---- -- --- ------ ---- - ---- -- ----------<br>-- ------ ---- --- ---- --- --- --- ----- -- -------- ---<br>------ ------- -------- --- ---- -- ------- stipulation: --<br>------ -- ---- -- --- ---- -- -------- -- --- ------ ------,412454.6999999881,412453.89999997616,412100.42,412101.5,412117.089,412467.045,,39,stipulation:
screen,html.Screen,2_3_1_0_1_40,2022-05-04T09:16:06.252Z,,,,,,,,,,,,,,,,,12,,,,,,,,,,,,,,409.15499998809537,,response,,,,5,B,,,,,,Space,keypress(Space),,,,lyrical,,,,---- ------ ------ ------- ------ --- ------- -----------<br>-- ----- --- ---- -- --- ------ ---- - ---- -- ----------<br>-- ------ ---- --- ---- --- --- --- ----- -- -------- ---<br>------ ------- -------- --- ---- -- ------- ------------ He<br>------ -- ---- -- --- ---- -- -------- -- --- ------ ------,412878.1999999881,412876.1999999881,412450.507,412454.8000000119,412467.045,412883.684,,40,He
screen,html.Screen,2_3_1_0_1_41,2022-05-04T09:16:06.615Z,,,,,,,,,,,,,,,,,12,,,,,,,,,,,,,,356.0159999880707,,response,,,,5,B,,,,,,Space,keypress(Space),,,,lyrical,,,,---- ------ ------ ------- ------ --- ------- -----------<br>-- ----- --- ---- -- --- ------ ---- - ---- -- ----------<br>-- ------ ---- --- ---- --- --- --- ----- -- -------- ---<br>------ ------- -------- --- ---- -- ------- ------------ --<br>wanted -- ---- -- --- ---- -- -------- -- --- ------ ------,413240.5,413239.6999999881,412867.108,412878.59999996424,412883.684,413250.459,,41,wanted
screen,html.Screen,2_3_1_0_1_42,2022-05-04T09:16:06.892Z,,,,,,,,,,,,,,,,,12,,,,,,,,,,,,,,265.14099996426376,,response,,,,5,B,,,,,,Space,keypress(Space),,,,lyrical,,,,---- ------ ------ ------- ------ --- ------- -----------<br>-- ----- --- ---- -- --- ------ ---- - ---- -- ----------<br>-- ------ ---- --- ---- --- --- --- ----- -- -------- ---<br>------ ------- -------- --- ---- -- ------- ------------ --<br>------ as ---- -- --- ---- -- -------- -- --- ------ ------,413517.6999999881,413515.59999996424,413233.858,413240.59999996424,413250.459,413533.827,,42,as
