sender,sender_type,sender_id,timestamp,meta,,Blues,Classical,Country,Dance,Electronic,Folk,Gospel,Hip-Hop,Jazz,Latin,Musical/Film,New-age,Pop,Prolific_id,Provo_ID,R&B,Rap,Reggae,Religious,Rock,Soul,Swing,Traditional,age,artist_name,correct,correctResponse,distraction,duration,education,ended_on,familiarity,gender,headphone_check_performance,item,list,music_frequency,offensiveness,pleasantness,position_correct,preference,response,response_action,snippet_file,song_name,song_rating,sound,stimulus_1,stimulus_2,stimulus_3,text,time_commit,time_end,time_render,time_run,time_show,time_switch,url,word,word_ID
Prolific ID,html.Form,0,2022-04-27T20:39:40.826Z,"{""labjs_version"":""20.2.2"",""labjs_build"":{""flavor"":""production"",""commit"":""a25486e0c714a0ae2ce03ff94b7bb6896854dcfa""},""location"":""https://run.pavlovia.org/mvasilev/prolific3_music_c/"",""userAgent"":""Mozilla/5.0 (Windows NT 10.0; Win64; x64) AppleWebKit/537.36 (KHTML, like Gecko) Chrome/100.0.4896.127 Safari/537.36"",""platform"":""Win32"",""language"":""en-GB"",""locale"":""en-GB"",""timeZone"":""Europe/London"",""timezoneOffset"":-60,""screen_width"":1366,""screen_height"":768,""scroll_width"":1366,""scroll_height"":609,""window_innerWidth"":1366,""window_innerHeight"":657,""devicePixelRatio"":1}",,,,,,,,,,,,,,,5a9ad69adbdb470001eee577,,,,,,,,,,,,,,,8958.396,,form submission,,,,,,,,,,,,,,,,,,,,,27318.199999928474,27317.5,18309.13,18322.699999928474,18359.104,27320.386,{},,
Introduction,html.Screen,1_0,2022-04-27T20:39:44.172Z,,,,,,,,,,,,,,,,,,,,,,,,,,,,,,,3341.1140000000014,,response,,,,,,,,,,,continue,click button,,,,,,,,,30664,30661.5,27303.728,27318.600000023842,27320.386,30676.238,,,
Volume calibration,html.Screen,1_1,2022-04-27T20:40:03.796Z,,,,,,,,,,,,,,,,,,,,,,,,,,,,,,,19604.36200002384,,response,,,,,,,,,,,continue,click button,,,,,,,,,50287.89999997616,50280.60000002384,30659.58,30664.199999928474,30676.238,50283.262,,,
Task instructions,html.Screen,1_2,2022-04-27T20:40:11.324Z,,,,,,,,,,,,,,,,,,,,,,,,,,,,,,,7532.237999999998,,response,,,,,,,,,,,continue,click button,,,,,,,,,57816.5,57815.5,50266.604,50288.10000002384,50283.262,57830.403,,,
Sounds,html.Screen,1_3_0_0,2022-04-27T20:40:15.577Z,,,,,,,,,,,,,,,,,,,,,,,,,,,,,,,4251.041000000005,,timeout,,,,,,,,,3,,,,,,,,I,O,S,,62069.299999952316,62064.786,57813.745,57816.799999952316,57830.403,62081.444,,,
Judgement,html.Screen,1_3_0_1,2022-04-27T20:40:19.718Z,,,,,,,,,,,,,,,,,,,,,,,,,,,,true,3,,4127.755999928471,,response,,,,,,,,,3,,3,click #choice-3,,,,,I,O,S,,66210.29999995232,66209.19999992847,62064.786,62069.5,62081.444,66213.041,,,
Trial,flow.Sequence,1_3_0,2022-04-27T20:40:19.720Z,,,,,,,,,,,,,,,,,,,,,,,,,,,,,,,8378.796999928476,,completion,,,,,,,,,3,,,,,,,,I,O,S,,66212.5,66209.19999992847,57813.745,57816.799999952316,57830.403,66213.041,,,
Sounds,html.Screen,1_3_1_0,2022-04-27T20:40:23.958Z,,,,,,,,,,,,,,,,,,,,,,,,,,,,,,,4251.921000000002,,timeout,,,,,,,,,2,,,,,,,,O,S,I,,70450,70448.304,66196.383,66212.89999997616,66213.041,70464.962,,,
Judgement,html.Screen,1_3_1_1,2022-04-27T20:40:26.131Z,,,,,,,,,,,,,,,,,,,,,,,,,,,,true,2,,2156.5380000000005,,response,,,,,,,,,2,,2,click #choice-2,,,,,O,S,I,,72622.79999995232,72621.5,70448.304,70450.5,70464.962,72628.538,,,
Trial,flow.Sequence,1_3_1,2022-04-27T20:40:26.131Z,,,,,,,,,,,,,,,,,,,,,,,,,,,,,,,6408.459000000003,,completion,,,,,,,,,2,,,,,,,,O,S,I,,72623.19999992847,72621.5,66196.383,66212.69999992847,66213.041,72628.538,,,
Sounds,html.Screen,1_3_2_0,2022-04-27T20:40:30.371Z,,,,,,,,,,,,,,,,,,,,,,,,,,,,,,,4249.335999999996,,timeout,,,,,,,,,2,,,,,,,,I,S,O,,76862.69999992847,76861.216,72611.88,72623.5,72628.538,76877.874,,,
Judgement,html.Screen,1_3_2_1,2022-04-27T20:40:31.506Z,,,,,,,,,,,,,,,,,,,,,,,,,,,,true,2,,1119.4259999523201,,response,,,,,,,,,2,,2,click #choice-2,,,,,I,S,O,,77998.39999997616,77997.29999995232,76861.216,76863.10000002384,76877.874,78003.559,,,
Trial,flow.Sequence,1_3_2,2022-04-27T20:40:31.506Z,,,,,,,,,,,,,,,,,,,,,,,,,,,,,,,5368.761999952316,,completion,,,,,,,,,2,,,,,,,,I,S,O,,77998.60000002384,77997.29999995232,72611.88,72623.39999997616,72628.538,78003.559,,,
Sounds,html.Screen,1_3_3_0,2022-04-27T20:40:35.747Z,,,,,,,,,,,,,,,,,,,,,,,,,,,,,,,4250.544000000009,,timeout,,,,,,,,,3,,,,,,,,O,I,S,,82239,82237.445,77986.901,77998.89999997616,78003.559,82254.103,,,
Judgement,html.Screen,1_3_3_1,2022-04-27T20:40:36.743Z,,,,,,,,,,,,,,,,,,,,,,,,,,,,true,3,,980.1969999523135,,response,,,,,,,,,3,,3,click #choice-3,,,,,O,I,S,,83235.19999992847,83234.29999995232,82237.445,82239.10000002384,82254.103,83248.742,,,
Trial,flow.Sequence,1_3_3,2022-04-27T20:40:36.743Z,,,,,,,,,,,,,,,,,,,,,,,,,,,,,,,5230.740999952322,,completion,,,,,,,,,3,,,,,,,,O,I,S,,83235.5,83234.29999995232,77986.901,77998.69999992847,78003.559,83248.742,,,
Sounds,html.Screen,1_3_4_0,2022-04-27T20:40:40.992Z,,,,,,,,,,,,,,,,,,,,,,,,,,,,,,,4249.206999999995,,timeout,,,,,,,,,1,,,,,,,,S,I,O,,87484.19999992847,87481.291,83232.084,83235.60000002384,83248.742,87497.949,,,
Judgement,html.Screen,1_3_4_1,2022-04-27T20:40:42.295Z,,,,,,,,,,,,,,,,,,,,,,,,,,,,true,1,,1288.6510000238486,,response,,,,,,,,,1,,1,click #choice-1,,,,,S,I,O,,88787.60000002384,88786.60000002384,87481.291,87484.5,87497.949,88793.041,,,
Trial,flow.Sequence,1_3_4,2022-04-27T20:40:42.296Z,,,,,,,,,,,,,,,,,,,,,,,,,,,,,,,5537.8580000238435,,completion,,,,,,,,,1,,,,,,,,S,I,O,,88788,88786.60000002384,83232.084,83235.5,83248.742,88793.041,,,
Sounds,html.Screen,1_3_5_0,2022-04-27T20:40:46.536Z,,,,,,,,,,,,,,,,,,,,,,,,,,,,,,,4249.453000000009,,timeout,,,,,,,,,1,,,,,,,,S,O,I,,93028.19999992847,93025.836,88776.383,88788.29999995232,88793.041,93042.494,,,
Judgement,html.Screen,1_3_5_1,2022-04-27T20:40:49.294Z,,,,,,,,,,,,,,,,,,,,,,,,,,,,true,1,,2742.8059999523102,,response,,,,,,,,,1,,1,click #choice-1,,,,,S,O,I,,95786.39999997616,95785.29999995232,93025.836,93028.60000002384,93042.494,95791.903,,,
Trial,flow.Sequence,1_3_5,2022-04-27T20:40:49.294Z,,,,,,,,,,,,,,,,,,,,,,,,,,,,,,,6992.258999952319,,completion,,,,,,,,,1,,,,,,,,S,O,I,,95786.5,95785.29999995232,88776.383,88788.19999992847,88793.041,95791.903,,,
Task,flow.Loop,1_3,2022-04-27T20:40:49.301Z,,,,,,,,,,,,,,,,,,,,,,,,,,,,,,,37954.89699995232,,completion,,,1,,,,,,,,,,,,,,,,,,95793.19999992847,95785.29999995232,57813.745,57816.699999928474,57830.403,95791.903,,,
Trap,html.Screen,1_4,2022-04-27T20:40:49.303Z,,,,,,,,,,,,,,,,,,,,,,,,,,,,,,,NaN,,skipped,,,,,,,,,,,,,,,,,,,,,95795.10000002384,95785.29999995232,,95794.89999997616,,95791.903,,,
Thanks,html.Screen,1_5,2022-04-27T20:41:07.532Z,,,,,,,,,,,,,,,,,,,,,,,,,,,,,,,18231.496999976152,,response,,,,,,,,,,,continue,click button,,,,,,,,,114024.29999995232,114023.39999997616,95775.245,95795.29999995232,95791.903,116994.033,,,
Headphone screening,flow.Sequence,1,2022-04-27T20:41:07.532Z,,,,,,,,,,,,,,,,,,,,,,,,,,,,,,,86703.01399997616,,completion,,,,,,,,,,,,,,,,,,,,,114024.5,114023.39999997616,27303.728,27318.5,27320.386,116994.033,,,
Instructions,html.Page,2_0,2022-04-27T20:41:22.910Z,,,,,,,,,,,,,,,,,,,,,,,,,,,,,,,12413.067000023846,,form submission,,,,,,,,,,,,,,,,,,,,,129407.5,129407.10000002384,116977.375,116983.89999997616,116994.033,129407.926,,,
Holding screen,html.Screen,2_1_0_0,2022-04-27T20:41:32.902Z,,,,,,,,,,,,,,,,,,,,,,,,,,,,,,,10000.404999999999,,timeout,,,,,,,,,,,,,,,,,,,,,139399.39999997616,139391.673,129391.268,129407.79999995232,129407.926,139408.331,,,
screen,html.Screen,2_1_0_1_0,2022-04-27T20:41:33.818Z,,,,,,,,,,,,,,,,,53,,,,,,,,,,,,,,904.4689999523107,,response,,,,99,,,,,,,Space,keypress(Space),,,,,,,,When -- ----- -- ------ - ------- --- ----------<br>------------- ------ ------ ---- ---- ------- ----- -- ----<br>-------- ------- -- ---------- --- - --- ----- ----- ----<br>---- --- --- ----- --- ---- ---- ------- ----- ---- -------<br>--- --- -- ----- -- --- ---- -- --- ---- -- ------ ------<br>--- ----- -- ----,140315.10000002384,140312.79999995232,139391.673,139399.60000002384,139408.331,140327.044,,0,When
screen,html.Screen,2_1_0_1_1,2022-04-27T20:41:34.211Z,,,,,,,,,,,,,,,,,53,,,,,,,,,,,,,,379.9560000000056,,response,,,,99,,,,,,,Space,keypress(Space),,,,,,,,---- it ----- -- ------ - ------- --- ----------<br>------------- ------ ------ ---- ---- ------- ----- -- ----<br>-------- ------- -- ---------- --- - --- ----- ----- ----<br>---- --- --- ----- --- ---- ---- ------- ----- ---- -------<br>--- --- -- ----- -- --- ---- -- --- ---- -- ------ ------<br>--- ----- -- ----,140707.79999995232,140707,140310.386,140315.29999995232,140327.044,140712.775,,1,it
screen,html.Screen,2_1_0_1_2,2022-04-27T20:41:34.753Z,,,,,,,,,,,,,,,,,53,,,,,,,,,,,,,,535.5249999523221,,response,,,,99,,,,,,,Space,keypress(Space),,,,,,,,---- -- comes -- ------ - ------- --- ----------<br>------------- ------ ------ ---- ---- ------- ----- -- ----<br>-------- ------- -- ---------- --- - --- ----- ----- ----<br>---- --- --- ----- --- ---- ---- ------- ----- ---- -------<br>--- --- -- ----- -- --- ---- -- --- ---- -- ------ ------<br>--- ----- -- ----,141250.19999992847,141248.29999995232,140696.117,140708,140712.775,141265.688,,2,comes
screen,html.Screen,2_1_0_1_3,2022-04-27T20:41:35.191Z,,,,,,,,,,,,,,,,,53,,,,,,,,,,,,,,421.4120000238472,,response,,,,99,,,,,,,Space,keypress(Space),,,,,,,,---- -- ----- to ------ - ------- --- ----------<br>------------- ------ ------ ---- ---- ------- ----- -- ----<br>-------- ------- -- ---------- --- - --- ----- ----- ----<br>---- --- --- ----- --- ---- ---- ------- ----- ---- -------<br>--- --- -- ----- -- --- ---- -- --- ---- -- ------ ------<br>--- ----- -- ----,141687.69999992847,141687.10000002384,141249.03,141252.5,141265.688,141698.81,,3,to
screen,html.Screen,2_1_0_1_4,2022-04-27T20:41:35.666Z,,,,,,,,,,,,,,,,,53,,,,,,,,,,,,,,464.1900000000023,,response,,,,99,,,,,,,Space,keypress(Space),,,,,,,,---- -- ----- -- having - ------- --- ----------<br>------------- ------ ------ ---- ---- ------- ----- -- ----<br>-------- ------- -- ---------- --- - --- ----- ----- ----<br>---- --- --- ----- --- ---- ---- ------- ----- ---- -------<br>--- --- -- ----- -- --- ---- -- --- ---- -- ------ ------<br>--- ----- -- ----,142163.5,142163,141682.152,141687.89999997616,141698.81,142166.749,,4,having
screen,html.Screen,2_1_0_1_5,2022-04-27T20:41:36.069Z,,,,,,,,,,,,,,,,,53,,,,,,,,,,,,,,397.4509999284637,,response,,,,99,,,,,,,Space,keypress(Space),,,,,,,,---- -- ----- -- ------ a ------- --- ----------<br>------------- ------ ------ ---- ---- ------- ----- -- ----<br>-------- ------- -- ---------- --- - --- ----- ----- ----<br>---- --- --- ----- --- ---- ---- ------- ----- ---- -------<br>--- --- -- ----- -- --- ---- -- --- ---- -- ------ ------<br>--- ----- -- ----,142565.69999992847,142564.19999992847,142150.091,142163.69999992847,142166.749,142567.538,,5,a
screen,html.Screen,2_1_0_1_6,2022-04-27T20:41:36.555Z,,,,,,,,,,,,,,,,,53,,,,,,,,,,,,,,483.8619999761577,,response,,,,99,,,,,,,Space,keypress(Space),,,,,,,,---- -- ----- -- ------ - lasting --- ----------<br>------------- ------ ------ ---- ---- ------- ----- -- ----<br>-------- ------- -- ---------- --- - --- ----- ----- ----<br>---- --- --- ----- --- ---- ---- ------- ----- ---- -------<br>--- --- -- ----- -- --- ---- -- --- ---- -- ------ ------<br>--- ----- -- ----,143052,143051.39999997616,142550.88,142566,142567.538,143069.539,,6,lasting
screen,html.Screen,2_1_0_1_7,2022-04-27T20:41:37.016Z,,,,,,,,,,,,,,,,,53,,,,,,,,,,,,,,443.46100000001024,,response,,,,99,,,,,,,Space,keypress(Space),,,,,,,,---- -- ----- -- ------ - ------- and ----------<br>------------- ------ ------ ---- ---- ------- ----- -- ----<br>-------- ------- -- ---------- --- - --- ----- ----- ----<br>---- --- --- ----- --- ---- ---- ------- ----- ---- -------<br>--- --- -- ----- -- --- ---- -- --- ---- -- ------ ------<br>--- ----- -- ----,143513.60000002384,143513,143052.881,143052.29999995232,143069.539,143520.456,,7,and
screen,html.Screen,2_1_0_1_8,2022-04-27T20:41:37.542Z,,,,,,,,,,,,,,,,,53,,,,,,,,,,,,,,517.8439999523107,,response,,,,99,,,,,,,Space,keypress(Space),,,,,,,,---- -- ----- -- ------ - ------- --- fulfilling<br>------------- ------ ------ ---- ---- ------- ----- -- ----<br>-------- ------- -- ---------- --- - --- ----- ----- ----<br>---- --- --- ----- --- ---- ---- ------- ----- ---- -------<br>--- --- -- ----- -- --- ---- -- --- ---- -- ------ ------<br>--- ----- -- ----,144039.10000002384,144038.29999995232,143503.798,143513.79999995232,143520.456,144054.659,,8,fulfilling
screen,html.Screen,2_1_0_1_9,2022-04-27T20:41:37.983Z,,,,,,,,,,,,,,,,,53,,,,,,,,,,,,,,423.0409999284602,,response,,,,99,,,,,,,Space,keypress(Space),,,,,,,,"---- -- ----- -- ------ - ------- --- ----------<br>relationship, ------ ------ ---- ---- ------- ----- -- ----<br>-------- ------- -- ---------- --- - --- ----- ----- ----<br>---- --- --- ----- --- ---- ---- ------- ----- ---- -------<br>--- --- -- ----- -- --- ---- -- --- ---- -- ------ ------<br>--- ----- -- ----",144480.19999992847,144477.69999992847,144038.001,144039.19999992847,144054.659,144489.1,,9,"relationship,"
screen,html.Screen,2_1_0_1_10,2022-04-27T20:41:38.431Z,,,,,,,,,,,,,,,,,53,,,,,,,,,,,,,,437.8999999999942,,response,,,,99,,,,,,,Space,keypress(Space),,,,,,,,---- -- ----- -- ------ - ------- --- ----------<br>------------- common ------ ---- ---- ------- ----- -- ----<br>-------- ------- -- ---------- --- - --- ----- ----- ----<br>---- --- --- ----- --- ---- ---- ------- ----- ---- -------<br>--- --- -- ----- -- --- ---- -- --- ---- -- ------ ------<br>--- ----- -- ----,144928.5,144927,144472.442,144480.89999997616,144489.1,144940.041,,10,common
screen,html.Screen,2_1_0_1_11,2022-04-27T20:41:38.973Z,,,,,,,,,,,,,,,,,53,,,,,,,,,,,,,,528.2589999523188,,response,,,,99,,,,,,,Space,keypress(Space),,,,,,,,---- -- ----- -- ------ - ------- --- ----------<br>------------- ------ wisdom ---- ---- ------- ----- -- ----<br>-------- ------- -- ---------- --- - --- ----- ----- ----<br>---- --- --- ----- --- ---- ---- ------- ----- ---- -------<br>--- --- -- ----- -- --- ---- -- --- ---- -- ------ ------<br>--- ----- -- ----,145470,145468.29999995232,144923.383,144928.79999995232,144940.041,145474.226,,11,wisdom
screen,html.Screen,2_1_0_1_12,2022-04-27T20:41:39.340Z,,,,,,,,,,,,,,,,,53,,,,,,,,,,,,,,361.37400002384675,,response,,,,99,,,,,,,Space,keypress(Space),,,,,,,,---- -- ----- -- ------ - ------- --- ----------<br>------------- ------ ------ says ---- ------- ----- -- ----<br>-------- ------- -- ---------- --- - --- ----- ----- ----<br>---- --- --- ----- --- ---- ---- ------- ----- ---- -------<br>--- --- -- ----- -- --- ---- -- --- ---- -- ------ ------<br>--- ----- -- ----,145837.19999992847,145835.60000002384,145457.568,145470.39999997616,145474.226,145842.138,,12,says
screen,html.Screen,2_1_0_1_13,2022-04-27T20:41:39.753Z,,,,,,,,,,,,,,,,,53,,,,,,,,,,,,,,407.56199992846814,,response,,,,99,,,,,,,Space,keypress(Space),,,,,,,,---- -- ----- -- ------ - ------- --- ----------<br>------------- ------ ------ ---- that ------- ----- -- ----<br>-------- ------- -- ---------- --- - --- ----- ----- ----<br>---- --- --- ----- --- ---- ---- ------- ----- ---- -------<br>--- --- -- ----- -- --- ---- -- --- ---- -- ------ ------<br>--- ----- -- ----,146250.29999995232,146249.69999992847,145825.48,145837.60000002384,145842.138,146258.581,,13,that
screen,html.Screen,2_1_0_1_14,2022-04-27T20:41:40.219Z,,,,,,,,,,,,,,,,,53,,,,,,,,,,,,,,457.2189999523107,,response,,,,99,,,,,,,Space,keypress(Space),,,,,,,,---- -- ----- -- ------ - ------- --- ----------<br>------------- ------ ------ ---- ---- feeling ----- -- ----<br>-------- ------- -- ---------- --- - --- ----- ----- ----<br>---- --- --- ----- --- ---- ---- ------- ----- ---- -------<br>--- --- -- ----- -- --- ---- -- --- ---- -- ------ ------<br>--- ----- -- ----,146716.60000002384,146715.79999995232,146241.923,146250.29999995232,146258.581,146726.576,,14,feeling
screen,html.Screen,2_1_0_1_15,2022-04-27T20:41:40.743Z,,,,,,,,,,,,,,,,,53,,,,,,,,,,,,,,513.2239999523154,,response,,,,99,,,,,,,Space,keypress(Space),,,,,,,,---- -- ----- -- ------ - ------- --- ----------<br>------------- ------ ------ ---- ---- ------- close -- ----<br>-------- ------- -- ---------- --- - --- ----- ----- ----<br>---- --- --- ----- --- ---- ---- ------- ----- ---- -------<br>--- --- -- ----- -- --- ---- -- --- ---- -- ------ ------<br>--- ----- -- ----,147240.39999997616,147239.79999995232,146709.918,146716.69999992847,146726.576,147243.366,,15,close
screen,html.Screen,2_1_0_1_16,2022-04-27T20:41:41.125Z,,,,,,,,,,,,,,,,,53,,,,,,,,,,,,,,377.53399997614906,,response,,,,99,,,,,,,Space,keypress(Space),,,,,,,,---- -- ----- -- ------ - ------- --- ----------<br>------------- ------ ------ ---- ---- ------- ----- to ----<br>-------- ------- -- ---------- --- - --- ----- ----- ----<br>---- --- --- ----- --- ---- ---- ------- ----- ---- -------<br>--- --- -- ----- -- --- ---- -- --- ---- -- ------ ------<br>--- ----- -- ----,147621.69999992847,147620.89999997616,147226.708,147240.5,147243.366,147628.9,,16,to
screen,html.Screen,2_1_0_1_17,2022-04-27T20:41:41.540Z,,,,,,,,,,,,,,,,,53,,,,,,,,,,,,,,407.6000000000058,,response,,,,99,,,,,,,Space,keypress(Space),,,,,,,,---- -- ----- -- ------ - ------- --- ----------<br>------------- ------ ------ ---- ---- ------- ----- -- your<br>-------- ------- -- ---------- --- - --- ----- ----- ----<br>---- --- --- ----- --- ---- ---- ------- ----- ---- -------<br>--- --- -- ----- -- --- ---- -- --- ---- -- ------ ------<br>--- ----- -- ----,148037.29999995232,148036.5,147612.242,147621.79999995232,147628.9,148046.341,,17,your
screen,html.Screen,2_1_0_1_18,2022-04-27T20:41:41.991Z,,,,,,,,,,,,,,,,,53,,,,,,,,,,,,,,441.05899997617234,,response,,,,99,,,,,,,Space,keypress(Space),,,,,,,,---- -- ----- -- ------ - ------- --- ----------<br>------------- ------ ------ ---- ---- ------- ----- -- ----<br>romantic ------- -- ---------- --- - --- ----- ----- ----<br>---- --- --- ----- --- ---- ---- ------- ----- ---- -------<br>--- --- -- ----- -- --- ---- -- --- ---- -- ------ ------<br>--- ----- -- ----,148488.39999997616,148487.39999997616,148029.683,148037.5,148046.341,148497.158,,18,romantic
screen,html.Screen,2_1_0_1_19,2022-04-27T20:41:42.398Z,,,,,,,,,,,,,,,,,53,,,,,,,,,,,,,,397.3420000000042,,response,,,,99,,,,,,,Space,keypress(Space),,,,,,,,---- -- ----- -- ------ - ------- --- ----------<br>------------- ------ ------ ---- ---- ------- ----- -- ----<br>-------- partner -- ---------- --- - --- ----- ----- ----<br>---- --- --- ----- --- ---- ---- ------- ----- ---- -------<br>--- --- -- ----- -- --- ---- -- --- ---- -- ------ ------<br>--- ----- -- ----,148895.29999995232,148894.5,148480.5,148488.5,148497.158,148897.002,,19,partner
screen,html.Screen,2_1_0_1_20,2022-04-27T20:41:42.717Z,,,,,,,,,,,,,,,,,53,,,,,,,,,,,,,,315.7979999523086,,response,,,,99,,,,,,,Space,keypress(Space),,,,,,,,---- -- ----- -- ------ - ------- --- ----------<br>------------- ------ ------ ---- ---- ------- ----- -- ----<br>-------- ------- is ---------- --- - --- ----- ----- ----<br>---- --- --- ----- --- ---- ---- ------- ----- ---- -------<br>--- --- -- ----- -- --- ---- -- --- ---- -- ------ ------<br>--- ----- -- ----,149214.10000002384,149212.79999995232,148880.344,148895.39999997616,148897.002,149215.613,,20,is
screen,html.Screen,2_1_0_1_21,2022-04-27T20:41:43.954Z,,,,,,,,,,,,,,,,,53,,,,,,,,,,,,,,1232.4870000238298,,response,,,,99,,,,,,,Space,keypress(Space),,,,,,,,---- -- ----- -- ------ - ------- --- ----------<br>------------- ------ ------ ---- ---- ------- ----- -- ----<br>-------- ------- -- paramount. --- - --- ----- ----- ----<br>---- --- --- ----- --- ---- ---- ------- ----- ---- -------<br>--- --- -- ----- -- --- ---- -- --- ---- -- ------ ------<br>--- ----- -- ----,150451.60000002384,150448.10000002384,149198.955,149214.29999995232,149215.613,150465.909,,21,paramount.
screen,html.Screen,2_1_0_1_22,2022-04-27T20:41:44.404Z,,,,,,,,,,,,,,,,,53,,,,,,,,,,,,,,433.8909999523021,,response,,,,99,,,,,,,Space,keypress(Space),,,,,,,,---- -- ----- -- ------ - ------- --- ----------<br>------------- ------ ------ ---- ---- ------- ----- -- ----<br>-------- ------- -- ---------- But - --- ----- ----- ----<br>---- --- --- ----- --- ---- ---- ------- ----- ---- -------<br>--- --- -- ----- -- --- ---- -- --- ---- -- ------ ------<br>--- ----- -- ----,150900.69999992847,150899.79999995232,150449.251,150452.19999992847,150465.909,150915.718,,22,But
screen,html.Screen,2_1_0_1_23,2022-04-27T20:41:44.811Z,,,,,,,,,,,,,,,,,53,,,,,,,,,,,,,,391.48199992848095,,response,,,,99,,,,,,,Space,keypress(Space),,,,,,,,---- -- ----- -- ------ - ------- --- ----------<br>------------- ------ ------ ---- ---- ------- ----- -- ----<br>-------- ------- -- ---------- --- a --- ----- ----- ----<br>---- --- --- ----- --- ---- ---- ------- ----- ---- -------<br>--- --- -- ----- -- --- ---- -- --- ---- -- ------ ------<br>--- ----- -- ----,151307.79999995232,151307.19999992847,150899.06,150900.89999997616,150915.718,151318.57,,23,a
screen,html.Screen,2_1_0_1_24,2022-04-27T20:41:45.240Z,,,,,,,,,,,,,,,,,53,,,,,,,,,,,,,,416.32999997615116,,response,,,,99,,,,,,,Space,keypress(Space),,,,,,,,---- -- ----- -- ------ - ------- --- ----------<br>------------- ------ ------ ---- ---- ------- ----- -- ----<br>-------- ------- -- ---------- --- - new ----- ----- ----<br>---- --- --- ----- --- ---- ---- ------- ----- ---- -------<br>--- --- -- ----- -- --- ---- -- --- ---- -- ------ ------<br>--- ----- -- ----,151736.60000002384,151734.89999997616,151301.912,151308,151318.57,151753.783,,24,new
screen,html.Screen,2_1_0_1_25,2022-04-27T20:41:45.568Z,,,,,,,,,,,,,,,,,53,,,,,,,,,,,,,,308.61699997616233,,response,,,,99,,,,,,,Space,keypress(Space),,,,,,,,---- -- ----- -- ------ - ------- --- ----------<br>------------- ------ ------ ---- ---- ------- ----- -- ----<br>-------- ------- -- ---------- --- - --- study ----- ----<br>---- --- --- ----- --- ---- ---- ------- ----- ---- -------<br>--- --- -- ----- -- --- ---- -- --- ---- -- ------ ------<br>--- ----- -- ----,152064.89999997616,152062.39999997616,151737.125,151737.10000002384,151753.783,152071.43,,25,study
screen,html.Screen,2_1_0_1_26,2022-04-27T20:41:45.920Z,,,,,,,,,,,,,,,,,53,,,,,,,,,,,,,,344.2699999284814,,response,,,,99,,,,,,,Space,keypress(Space),,,,,,,,---- -- ----- -- ------ - ------- --- ----------<br>------------- ------ ------ ---- ---- ------- ----- -- ----<br>-------- ------- -- ---------- --- - --- ----- finds ----<br>---- --- --- ----- --- ---- ---- ------- ----- ---- -------<br>--- --- -- ----- -- --- ---- -- --- ---- -- ------ ------<br>--- ----- -- ----,152417.5,152415.69999992847,152054.772,152065.39999997616,152071.43,152422.065,,26,finds
screen,html.Screen,2_1_0_1_27,2022-04-27T20:41:46.300Z,,,,,,,,,,,,,,,,,53,,,,,,,,,,,,,,372.1349999284721,,response,,,,99,,,,,,,Space,keypress(Space),,,,,,,,---- -- ----- -- ------ - ------- --- ----------<br>------------- ------ ------ ---- ---- ------- ----- -- ----<br>-------- ------- -- ---------- --- - --- ----- ----- that<br>---- --- --- ----- --- ---- ---- ------- ----- ---- -------<br>--- --- -- ----- -- --- ---- -- --- ---- -- ------ ------<br>--- ----- -- ----,152797,152794.19999992847,152405.407,152417.79999995232,152422.065,152806.078,,27,that
screen,html.Screen,2_1_0_1_28,2022-04-27T20:41:46.738Z,,,,,,,,,,,,,,,,,53,,,,,,,,,,,,,,427.02200002383324,,response,,,,99,,,,,,,Space,keypress(Space),,,,,,,,---- -- ----- -- ------ - ------- --- ----------<br>------------- ------ ------ ---- ---- ------- ----- -- ----<br>-------- ------- -- ---------- --- - --- ----- ----- ----<br>it's --- --- ----- --- ---- ---- ------- ----- ---- -------<br>--- --- -- ----- -- --- ---- -- --- ---- -- ------ ------<br>--- ----- -- ----,153235.60000002384,153233.10000002384,152789.42,152797.39999997616,152806.078,153240.196,,28,it's
screen,html.Screen,2_1_0_1_29,2022-04-27T20:41:47.132Z,,,,,,,,,,,,,,,,,53,,,,,,,,,,,,,,386.9040000238456,,response,,,,99,,,,,,,Space,keypress(Space),,,,,,,,---- -- ----- -- ------ - ------- --- ----------<br>------------- ------ ------ ---- ---- ------- ----- -- ----<br>-------- ------- -- ---------- --- - --- ----- ----- ----<br>---- not --- ----- --- ---- ---- ------- ----- ---- -------<br>--- --- -- ----- -- --- ---- -- --- ---- -- ------ ------<br>--- ----- -- ----,153629.60000002384,153627.10000002384,153223.538,153236.10000002384,153240.196,153641.024,,29,not
screen,html.Screen,2_1_0_1_30,2022-04-27T20:41:47.479Z,,,,,,,,,,,,,,,,,53,,,,,,,,,,,,,,333.87599997615325,,response,,,,99,,,,,,,Space,keypress(Space),,,,,,,,---- -- ----- -- ------ - ------- --- ----------<br>------------- ------ ------ ---- ---- ------- ----- -- ----<br>-------- ------- -- ---------- --- - --- ----- ----- ----<br>---- --- how ----- --- ---- ---- ------- ----- ---- -------<br>--- --- -- ----- -- --- ---- -- --- ---- -- ------ ------<br>--- ----- -- ----,153976.60000002384,153974.89999997616,153624.366,153629.89999997616,153641.024,153991.871,,30,how
screen,html.Screen,2_1_0_1_31,2022-04-27T20:41:47.834Z,,,,,,,,,,,,,,,,,53,,,,,,,,,,,,,,337.92899995230255,,response,,,,99,,,,,,,Space,keypress(Space),,,,,,,,---- -- ----- -- ------ - ------- --- ----------<br>------------- ------ ------ ---- ---- ------- ----- -- ----<br>-------- ------- -- ---------- --- - --- ----- ----- ----<br>---- --- --- close --- ---- ---- ------- ----- ---- -------<br>--- --- -- ----- -- --- ---- -- --- ---- -- ------ ------<br>--- ----- -- ----,154330.69999992847,154329.79999995232,153975.213,153976.89999997616,153991.871,154342.545,,31,close
screen,html.Screen,2_1_0_1_32,2022-04-27T20:41:48.175Z,,,,,,,,,,,,,,,,,53,,,,,,,,,,,,,,327.55500002382905,,response,,,,99,,,,,,,Space,keypress(Space),,,,,,,,---- -- ----- -- ------ - ------- --- ----------<br>------------- ------ ------ ---- ---- ------- ----- -- ----<br>-------- ------- -- ---------- --- - --- ----- ----- ----<br>---- --- --- ----- you ---- ---- ------- ----- ---- -------<br>--- --- -- ----- -- --- ---- -- --- ---- -- ------ ------<br>--- ----- -- ----,154671.89999997616,154670.10000002384,154325.887,154331,154342.545,154676.596,,32,you
screen,html.Screen,2_1_0_1_33,2022-04-27T20:41:48.494Z,,,,,,,,,,,,,,,,,53,,,,,,,,,,,,,,312.603999928484,,response,,,,99,,,,,,,Space,keypress(Space),,,,,,,,---- -- ----- -- ------ - ------- --- ----------<br>------------- ------ ------ ---- ---- ------- ----- -- ----<br>-------- ------- -- ---------- --- - --- ----- ----- ----<br>---- --- --- ----- --- feel ---- ------- ----- ---- -------<br>--- --- -- ----- -- --- ---- -- --- ---- -- ------ ------<br>--- ----- -- ----,154990.69999992847,154989.19999992847,154659.938,154672.19999992847,154676.596,154994.067,,33,feel
screen,html.Screen,2_1_0_1_34,2022-04-27T20:41:48.894Z,,,,,,,,,,,,,,,,,53,,,,,,,,,,,,,,395.7329999523063,,response,,,,99,,,,,,,Space,keypress(Space),,,,,,,,---- -- ----- -- ------ - ------- --- ----------<br>------------- ------ ------ ---- ---- ------- ----- -- ----<br>-------- ------- -- ---------- --- - --- ----- ----- ----<br>---- --- --- ----- --- ---- that ------- ----- ---- -------<br>--- --- -- ----- -- --- ---- -- --- ---- -- ------ ------<br>--- ----- -- ----,155391.39999997616,155389.79999995232,154977.409,154991.10000002384,154994.067,155394.643,,34,that
screen,html.Screen,2_1_0_1_35,2022-04-27T20:41:49.221Z,,,,,,,,,,,,,,,,,53,,,,,,,,,,,,,,322.0569999284635,,response,,,,99,,,,,,,Space,keypress(Space),,,,,,,,---- -- ----- -- ------ - ------- --- ----------<br>------------- ------ ------ ---- ---- ------- ----- -- ----<br>-------- ------- -- ---------- --- - --- ----- ----- ----<br>---- --- --- ----- --- ---- ---- matters ----- ---- -------<br>--- --- -- ----- -- --- ---- -- --- ---- -- ------ ------<br>--- ----- -- ----,155718.29999995232,155716.69999992847,155377.985,155391.79999995232,155394.643,155727.8,,35,matters
screen,html.Screen,2_1_0_1_36,2022-04-27T20:41:49.651Z,,,,,,,,,,,,,,,,,53,,,,,,,,,,,,,,418.3000000238535,,response,,,,99,,,,,,,Space,keypress(Space),,,,,,,,"---- -- ----- -- ------ - ------- --- ----------<br>------------- ------ ------ ---- ---- ------- ----- -- ----<br>-------- ------- -- ---------- --- - --- ----- ----- ----<br>---- --- --- ----- --- ---- ---- ------- most, ---- -------<br>--- --- -- ----- -- --- ---- -- --- ---- -- ------ ------<br>--- ----- -- ----",156148,156146.10000002384,155711.142,155718.79999995232,155727.8,156161.991,,36,"most,"
screen,html.Screen,2_1_0_1_37,2022-04-27T20:41:50.056Z,,,,,,,,,,,,,,,,,53,,,,,,,,,,,,,,389.1090000238328,,response,,,,99,,,,,,,Space,keypress(Space),,,,,,,,---- -- ----- -- ------ - ------- --- ----------<br>------------- ------ ------ ---- ---- ------- ----- -- ----<br>-------- ------- -- ---------- --- - --- ----- ----- ----<br>---- --- --- ----- --- ---- ---- ------- ----- it's -------<br>--- --- -- ----- -- --- ---- -- --- ---- -- ------ ------<br>--- ----- -- ----,156553,156551.10000002384,156145.333,156150.5,156161.991,156563.604,,37,it's
screen,html.Screen,2_1_0_1_38,2022-04-27T20:41:50.462Z,,,,,,,,,,,,,,,,,53,,,,,,,,,,,,,,392.9960000238498,,response,,,,99,,,,,,,Space,keypress(Space),,,,,,,,---- -- ----- -- ------ - ------- --- ----------<br>------------- ------ ------ ---- ---- ------- ----- -- ----<br>-------- ------- -- ---------- --- - --- ----- ----- ----<br>---- --- --- ----- --- ---- ---- ------- ----- ---- whether<br>--- --- -- ----- -- --- ---- -- --- ---- -- ------ ------<br>--- ----- -- ----,156959,156956.60000002384,156546.946,156553.5,156563.604,156963.38,,38,whether
screen,html.Screen,2_1_0_1_39,2022-04-27T20:41:50.825Z,,,,,,,,,,,,,,,,,53,,,,,,,,,,,,,,357.9199999523116,,response,,,,99,,,,,,,Space,keypress(Space),,,,,,,,---- -- ----- -- ------ - ------- --- ----------<br>------------- ------ ------ ---- ---- ------- ----- -- ----<br>-------- ------- -- ---------- --- - --- ----- ----- ----<br>---- --- --- ----- --- ---- ---- ------- ----- ---- -------<br>you --- -- ----- -- --- ---- -- --- ---- -- ------ ------<br>--- ----- -- ----,157322.19999992847,157321.29999995232,156946.722,156959.60000002384,156963.38,157331.833,,39,you
screen,html.Screen,2_1_0_1_40,2022-04-27T20:41:51.177Z,,,,,,,,,,,,,,,,,53,,,,,,,,,,,,,,339.66699999998673,,response,,,,99,,,,,,,Space,keypress(Space),,,,,,,,---- -- ----- -- ------ - ------- --- ----------<br>------------- ------ ------ ---- ---- ------- ----- -- ----<br>-------- ------- -- ---------- --- - --- ----- ----- ----<br>---- --- --- ----- --- ---- ---- ------- ----- ---- -------<br>--- are -- ----- -- --- ---- -- --- ---- -- ------ ------<br>--- ----- -- ----,157674.19999992847,157671.5,157315.175,157322.39999997616,157331.833,157682.579,,40,are
screen,html.Screen,2_1_0_1_41,2022-04-27T20:41:51.607Z,,,,,,,,,,,,,,,,,53,,,,,,,,,,,,,,419.4210000000021,,response,,,,99,,,,,,,Space,keypress(Space),,,,,,,,---- -- ----- -- ------ - ------- --- ----------<br>------------- ------ ------ ---- ---- ------- ----- -- ----<br>-------- ------- -- ---------- --- - --- ----- ----- ----<br>---- --- --- ----- --- ---- ---- ------- ----- ---- -------<br>--- --- as ----- -- --- ---- -- --- ---- -- ------ ------<br>--- ----- -- ----,158103.69999992847,158102,157665.921,157674.60000002384,157682.579,158116.573,,41,as
screen,html.Screen,2_1_0_1_42,2022-04-27T20:41:52.024Z,,,,,,,,,,,,,,,,,53,,,,,,,,,,,,,,402.92699999999604,,response,,,,99,,,,,,,Space,keypress(Space),,,,,,,,---- -- ----- -- ------ - ------- --- ----------<br>------------- ------ ------ ---- ---- ------- ----- -- ----<br>-------- ------- -- ---------- --- - --- ----- ----- ----<br>---- --- --- ----- --- ---- ---- ------- ----- ---- -------<br>--- --- -- close -- --- ---- -- --- ---- -- ------ ------<br>--- ----- -- ----,158521.19999992847,158519.5,158099.915,158104.10000002384,158116.573,158534.194,,42,close
screen,html.Screen,2_1_0_1_43,2022-04-27T20:41:52.413Z,,,,,,,,,,,,,,,,,53,,,,,,,,,,,,,,375.3060000000114,,response,,,,99,,,,,,,Space,keypress(Space),,,,,,,,---- -- ----- -- ------ - ------- --- ----------<br>------------- ------ ------ ---- ---- ------- ----- -- ----<br>-------- ------- -- ---------- --- - --- ----- ----- ----<br>---- --- --- ----- --- ---- ---- ------- ----- ---- -------<br>--- --- -- ----- as --- ---- -- --- ---- -- ------ ------<br>--- ----- -- ----,158910.60000002384,158909.5,158517.536,158521.60000002384,158534.194,158918.357,,43,as
screen,html.Screen,2_1_0_1_44,2022-04-27T20:41:52.908Z,,,,,,,,,,,,,,,,,53,,,,,,,,,,,,,,485.14300000001094,,response,,,,99,,,,,,,Space,keypress(Space),,,,,,,,---- -- ----- -- ------ - ------- --- ----------<br>------------- ------ ------ ---- ---- ------- ----- -- ----<br>-------- ------- -- ---------- --- - --- ----- ----- ----<br>---- --- --- ----- --- ---- ---- ------- ----- ---- -------<br>--- --- -- ----- -- you ---- -- --- ---- -- ------ ------<br>--- ----- -- ----,159405.60000002384,159403.5,158901.699,158910.79999995232,158918.357,159419.07,,44,you
screen,html.Screen,2_1_0_1_45,2022-04-27T20:41:53.311Z,,,,,,,,,,,,,,,,,53,,,,,,,,,,,,,,386.429999999993,,response,,,,99,,,,,,,Space,keypress(Space),,,,,,,,---- -- ----- -- ------ - ------- --- ----------<br>------------- ------ ------ ---- ---- ------- ----- -- ----<br>-------- ------- -- ---------- --- - --- ----- ----- ----<br>---- --- --- ----- --- ---- ---- ------- ----- ---- -------<br>--- --- -- ----- -- --- want -- --- ---- -- ------ ------<br>--- ----- -- ----,159807.69999992847,159805.5,159402.412,159405.89999997616,159419.07,159820.119,,45,want
screen,html.Screen,2_1_0_1_46,2022-04-27T20:41:53.688Z,,,,,,,,,,,,,,,,,53,,,,,,,,,,,,,,362.18099995231023,,response,,,,99,,,,,,,Space,keypress(Space),,,,,,,,---- -- ----- -- ------ - ------- --- ----------<br>------------- ------ ------ ---- ---- ------- ----- -- ----<br>-------- ------- -- ---------- --- - --- ----- ----- ----<br>---- --- --- ----- --- ---- ---- ------- ----- ---- -------<br>--- --- -- ----- -- --- ---- to --- ---- -- ------ ------<br>--- ----- -- ----,160184.69999992847,160182.29999995232,159803.461,159808.29999995232,159820.119,160187.608,,46,to
screen,html.Screen,2_1_0_1_47,2022-04-27T20:41:54.690Z,,,,,,,,,,,,,,,,,53,,,,,,,,,,,,,,997.1919999523088,,response,,,,99,,,,,,,Space,keypress(Space),,,,,,,,"---- -- ----- -- ------ - ------- --- ----------<br>------------- ------ ------ ---- ---- ------- ----- -- ----<br>-------- ------- -- ---------- --- - --- ----- ----- ----<br>---- --- --- ----- --- ---- ---- ------- ----- ---- -------<br>--- --- -- ----- -- --- ---- -- be, ---- -- ------ ------<br>--- ----- -- ----",161186.69999992847,161184.79999995232,160170.95,160185,160187.608,161204.73,,47,"be,"
screen,html.Screen,2_1_0_1_48,2022-04-27T20:41:55.274Z,,,,,,,,,,,,,,,,,53,,,,,,,,,,,,,,564.3700000238314,,response,,,,99,,,,,,,Space,keypress(Space),,,,,,,,---- -- ----- -- ------ - ------- --- ----------<br>------------- ------ ------ ---- ---- ------- ----- -- ----<br>-------- ------- -- ---------- --- - --- ----- ----- ----<br>---- --- --- ----- --- ---- ---- ------- ----- ---- -------<br>--- --- -- ----- -- --- ---- -- --- even -- ------ ------<br>--- ----- -- ----,161771,161769.10000002384,161188.072,161187.19999992847,161204.73,161773.641,,48,even
screen,html.Screen,2_1_0_1_49,2022-04-27T20:41:55.808Z,,,,,,,,,,,,,,,,,53,,,,,,,,,,,,,,530.0589999284712,,response,,,,99,,,,,,,Space,keypress(Space),,,,,,,,---- -- ----- -- ------ - ------- --- ----------<br>------------- ------ ------ ---- ---- ------- ----- -- ----<br>-------- ------- -- ---------- --- - --- ----- ----- ----<br>---- --- --- ----- --- ---- ---- ------- ----- ---- -------<br>--- --- -- ----- -- --- ---- -- --- ---- if ------ ------<br>--- ----- -- ----,162305.5,162303.69999992847,161756.983,161771.39999997616,161773.641,162308.25,,49,if
screen,html.Screen,2_1_0_1_50,2022-04-27T20:41:56.313Z,,,,,,,,,,,,,,,,,53,,,,,,,,,,,,,,501.0499999523163,,response,,,,99,,,,,,,Space,keypress(Space),,,,,,,,---- -- ----- -- ------ - ------- --- ----------<br>------------- ------ ------ ---- ---- ------- ----- -- ----<br>-------- ------- -- ---------- --- - --- ----- ----- ----<br>---- --- --- ----- --- ---- ---- ------- ----- ---- -------<br>--- --- -- ----- -- --- ---- -- --- ---- -- that's ------<br>--- ----- -- ----,162810.19999992847,162809.29999995232,162291.592,162305.79999995232,162308.25,162825.939,,50,that's
screen,html.Screen,2_1_0_1_51,2022-04-27T20:41:57.237Z,,,,,,,,,,,,,,,,,53,,,,,,,,,,,,,,907.9609999761451,,response,,,,99,,,,,,,Space,keypress(Space),,,,,,,,---- -- ----- -- ------ - ------- --- ----------<br>------------- ------ ------ ---- ---- ------- ----- -- ----<br>-------- ------- -- ---------- --- - --- ----- ----- ----<br>---- --- --- ----- --- ---- ---- ------- ----- ---- -------<br>--- --- -- ----- -- --- ---- -- --- ---- -- ------ really<br>--- ----- -- ----,163734.60000002384,163733.89999997616,162809.281,162810.5,162825.939,163743.352,,51,really
screen,html.Screen,2_1_0_1_52,2022-04-27T20:41:57.712Z,,,,,,,,,,,,,,,,,53,,,,,,,,,,,,,,464.8479999284609,,response,,,,99,,,,,,,Space,keypress(Space),,,,,,,,---- -- ----- -- ------ - ------- --- ----------<br>------------- ------ ------ ---- ---- ------- ----- -- ----<br>-------- ------- -- ---------- --- - --- ----- ----- ----<br>---- --- --- ----- --- ---- ---- ------- ----- ---- -------<br>--- --- -- ----- -- --- ---- -- --- ---- -- ------ ------<br>not ----- -- ----,164209.29999995232,164208.19999992847,163726.694,163734.69999992847,163743.352,164212.072,,52,not
screen,html.Screen,2_1_0_1_53,2022-04-27T20:41:58.457Z,,,,,,,,,,,,,,,,,53,,,,,,,,,,,,,,739.4280000000144,,response,,,,99,,,,,,,Space,keypress(Space),,,,,,,,---- -- ----- -- ------ - ------- --- ----------<br>------------- ------ ------ ---- ---- ------- ----- -- ----<br>-------- ------- -- ---------- --- - --- ----- ----- ----<br>---- --- --- ----- --- ---- ---- ------- ----- ---- -------<br>--- --- -- ----- -- --- ---- -- --- ---- -- ------ ------<br>--- close -- ----,164953.79999995232,164951.5,164195.414,164209.5,164212.072,164962.912,,53,close
screen,html.Screen,2_1_0_1_54,2022-04-27T20:41:59.132Z,,,,,,,,,,,,,,,,,53,,,,,,,,,,,,,,663.5879999999888,,response,,,,99,,,,,,,Space,keypress(Space),,,,,,,,---- -- ----- -- ------ - ------- --- ----------<br>------------- ------ ------ ---- ---- ------- ----- -- ----<br>-------- ------- -- ---------- --- - --- ----- ----- ----<br>---- --- --- ----- --- ---- ---- ------- ----- ---- -------<br>--- --- -- ----- -- --- ---- -- --- ---- -- ------ ------<br>--- ----- at ----,165628.69999992847,165626.5,164946.254,164954.19999992847,164962.912,165631.199,,54,at
screen,html.Screen,2_1_0_1_55,2022-04-27T20:42:00.477Z,,,,,,,,,,,,,,,,,53,,,,,,,,,,,,,,1341.4010000238486,,response,,,,99,,,,,,,Space,keypress(Space),,,,,,,,---- -- ----- -- ------ - ------- --- ----------<br>------------- ------ ------ ---- ---- ------- ----- -- ----<br>-------- ------- -- ---------- --- - --- ----- ----- ----<br>---- --- --- ----- --- ---- ---- ------- ----- ---- -------<br>--- --- -- ----- -- --- ---- -- --- ---- -- ------ ------<br>--- ----- -- all.,166974.19999992847,166972.60000002384,165614.541,165629.10000002384,165631.199,166998.837,,55,all.
Item 99,flow.Loop,2_1_0_1,2022-04-27T20:42:00.478Z,,,,,,,,,,,,,,,,,,,,,,,,,,,,,,,27564.269000023836,,completion,,,,,C,,,,,,,,,,,silence,,,,,166975,166972.60000002384,139391.673,139399.60000002384,139408.331,166998.837,,,
Question 1,html.Screen,2_1_0_2,2022-04-27T20:42:05.847Z,,,,,,,,,,,,,,,,,,,,,,,,,,,,true,FALSE,,5344.1630000000005,,response,,,,99,C,,,,,,FALSE,click #choice-2,,,,silence,,,,,172344.29999995232,172343,166965.521,166975.39999997616,166998.837,172345.451,,,
Question 2,html.Screen,2_1_0_3,2022-04-27T20:42:09.609Z,,,,,,,,,,,,,,,,,,,,,,,,,,,,true,TRUE,,3759.7489999284735,,response,,,,99,C,,,,,,TRUE,click #choice-1,,,,silence,,,,,176106.19999992847,176105.19999992847,172328.793,172344.5,172345.451,176118.648,,,
Item 99,flow.Sequence,2_1_0,2022-04-27T20:42:09.609Z,,,,,,,,,,,,,,,,,,,,,,,,,,,,,,,46697.27399992847,,completion,,,,,,,,,,,,,,,,,,,,,176106.39999997616,176105.19999992847,129391.268,129407.79999995232,129407.926,176118.648,,,
Holding screen,html.Screen,2_1_1_0,2022-04-27T20:42:19.610Z,,,,,,,,,,,,,,,,,,,,,,,,,,,,,,,10002.869000000006,,timeout,,,,,,,,,,,,,,,,,,,,,186106.79999995232,186104.859,176101.99,176106.60000002384,176118.648,186121.517,,,
screen,html.Screen,2_1_1_1_0,2022-04-27T20:42:20.458Z,,,,,,,,,,,,,,,,,54,,,,,,,,,,,,,,831.4830000000075,,response,,,,100,,,,,,,Space,keypress(Space),,,,,,,,At --- ---- --- ------ ----- ------- ---- -- --- ------- --<br>------- ---------- ------ -- ----- -- ----- -- ---- ------<br>--- ----- --- --- ------ -------- ----- --- ------ ----- --<br>----- ----- ---------- --- --- ------ ------ ---- -- ------<br>------- --- ------ ----- --- ---- ------- -- ---- --- --<br>------- ------,186955.60000002384,186953,186104.859,186107.10000002384,186121.517,186957.04,,0,At
screen,html.Screen,2_1_1_1_1,2022-04-27T20:42:20.819Z,,,,,,,,,,,,,,,,,54,,,,,,,,,,,,,,357.6599999284663,,response,,,,100,,,,,,,Space,keypress(Space),,,,,,,,-- the ---- --- ------ ----- ------- ---- -- --- ------- --<br>------- ---------- ------ -- ----- -- ----- -- ---- ------<br>--- ----- --- --- ------ -------- ----- --- ------ ----- --<br>----- ----- ---------- --- --- ------ ------ ---- -- ------<br>------- --- ------ ----- --- ---- ------- -- ---- --- --<br>------- ------,187316,187314.69999992847,186940.382,186956,186957.04,187325.629,,1,the
screen,html.Screen,2_1_1_1_2,2022-04-27T20:42:21.178Z,,,,,,,,,,,,,,,,,54,,,,,,,,,,,,,,347.07099992848816,,response,,,,100,,,,,,,Space,keypress(Space),,,,,,,,-- --- time --- ------ ----- ------- ---- -- --- ------- --<br>------- ---------- ------ -- ----- -- ----- -- ---- ------<br>--- ----- --- --- ------ -------- ----- --- ------ ----- --<br>----- ----- ---------- --- --- ------ ------ ---- -- ------<br>------- --- ------ ----- --- ---- ------- -- ---- --- --<br>------- ------,187674.89999997616,187672.69999992847,187308.971,187316.39999997616,187325.629,187693.06,,2,time
screen,html.Screen,2_1_1_1_3,2022-04-27T20:42:21.420Z,,,,,,,,,,,,,,,,,54,,,,,,,,,,,,,,221.44000000000233,,response,,,,100,,,,,,,Space,keypress(Space),,,,,,,,-- --- ---- the ------ ----- ------- ---- -- --- ------- --<br>------- ---------- ------ -- ----- -- ----- -- ---- ------<br>--- ----- --- --- ------ -------- ----- --- ------ ----- --<br>----- ----- ---------- --- --- ------ ------ ---- -- ------<br>------- --- ------ ----- --- ---- ------- -- ---- --- --<br>------- ------,187916.69999992847,187914.5,187676.402,187675.39999997616,187693.06,187927.16,,3,the
screen,html.Screen,2_1_1_1_4,2022-04-27T20:42:21.676Z,,,,,,,,,,,,,,,,,54,,,,,,,,,,,,,,244.8399999999965,,response,,,,100,,,,,,,Space,keypress(Space),,,,,,,,-- --- ---- --- French ----- ------- ---- -- --- ------- --<br>------- ---------- ------ -- ----- -- ----- -- ---- ------<br>--- ----- --- --- ------ -------- ----- --- ------ ----- --<br>----- ----- ---------- --- --- ------ ------ ---- -- ------<br>------- --- ------ ----- --- ---- ------- -- ---- --- --<br>------- ------,188173.5,188172,187910.502,187917.10000002384,187927.16,188177.618,,4,French
screen,html.Screen,2_1_1_1_5,2022-04-27T20:42:21.965Z,,,,,,,,,,,,,,,,,54,,,,,,,,,,,,,,282.9820000238542,,response,,,,100,,,,,,,Space,keypress(Space),,,,,,,,-- --- ---- --- ------ crown ------- ---- -- --- ------- --<br>------- ---------- ------ -- ----- -- ----- -- ---- ------<br>--- ----- --- --- ------ -------- ----- --- ------ ----- --<br>----- ----- ---------- --- --- ------ ------ ---- -- ------<br>------- --- ------ ----- --- ---- ------- -- ---- --- --<br>------- ------,188462.5,188460.60000002384,188160.96,188173.89999997616,188177.618,188478.099,,5,crown
screen,html.Screen,2_1_1_1_6,2022-04-27T20:42:22.193Z,,,,,,,,,,,,,,,,,54,,,,,,,,,,,,,,210.20099995232886,,response,,,,100,,,,,,,Space,keypress(Space),,,,,,,,-- --- ---- --- ------ ----- secured ---- -- --- ------- --<br>------- ---------- ------ -- ----- -- ----- -- ---- ------<br>--- ----- --- --- ------ -------- ----- --- ------ ----- --<br>----- ----- ---------- --- --- ------ ------ ---- -- ------<br>------- --- ------ ----- --- ---- ------- -- ---- --- --<br>------- ------,188689.79999995232,188688.29999995232,188461.441,188463,188478.099,188695.457,,6,secured
screen,html.Screen,2_1_1_1_7,2022-04-27T20:42:22.468Z,,,,,,,,,,,,,,,,,54,,,,,,,,,,,,,,267.8429999523214,,response,,,,100,,,,,,,Space,keypress(Space),,,,,,,,-- --- ---- --- ------ ----- ------- much -- --- ------- --<br>------- ---------- ------ -- ----- -- ----- -- ---- ------<br>--- ----- --- --- ------ -------- ----- --- ------ ----- --<br>----- ----- ---------- --- --- ------ ------ ---- -- ------<br>------- --- ------ ----- --- ---- ------- -- ---- --- --<br>------- ------,188965,188963.29999995232,188678.799,188690.29999995232,188695.457,188979.181,,7,much
screen,html.Screen,2_1_1_1_8,2022-04-27T20:42:22.941Z,,,,,,,,,,,,,,,,,54,,,,,,,,,,,,,,453.518999928463,,response,,,,100,,,,,,,Space,keypress(Space),,,,,,,,-- --- ---- --- ------ ----- ------- ---- of --- ------- --<br>------- ---------- ------ -- ----- -- ----- -- ---- ------<br>--- ----- --- --- ------ -------- ----- --- ------ ----- --<br>----- ----- ---------- --- --- ------ ------ ---- -- ------<br>------- --- ------ ----- --- ---- ------- -- ---- --- --<br>------- ------,189434,189432.69999992847,188962.523,188965.39999997616,188979.181,189446.267,,8,of
screen,html.Screen,2_1_1_1_9,2022-04-27T20:42:23.396Z,,,,,,,,,,,,,,,,,54,,,,,,,,,,,,,,440.3330000238493,,response,,,,100,,,,,,,Space,keypress(Space),,,,,,,,-- --- ---- --- ------ ----- ------- ---- -- its ------- --<br>------- ---------- ------ -- ----- -- ----- -- ---- ------<br>--- ----- --- --- ------ -------- ----- --- ------ ----- --<br>----- ----- ---------- --- --- ------ ------ ---- -- ------<br>------- --- ------ ----- --- ---- ------- -- ---- --- --<br>------- ------,189888.79999995232,189886.60000002384,189429.609,189434.39999997616,189446.267,189897.374,,9,its
screen,html.Screen,2_1_1_1_10,2022-04-27T20:42:23.836Z,,,,,,,,,,,,,,,,,54,,,,,,,,,,,,,,428.8259999284637,,response,,,,100,,,,,,,Space,keypress(Space),,,,,,,,-- --- ---- --- ------ ----- ------- ---- -- --- revenue --<br>------- ---------- ------ -- ----- -- ----- -- ---- ------<br>--- ----- --- --- ------ -------- ----- --- ------ ----- --<br>----- ----- ---------- --- --- ------ ------ ---- -- ------<br>------- --- ------ ----- --- ---- ------- -- ---- --- --<br>------- ------,190328.60000002384,190326.19999992847,189880.716,189889.29999995232,189897.374,190331.529,,10,revenue
screen,html.Screen,2_1_1_1_11,2022-04-27T20:42:24.244Z,,,,,,,,,,,,,,,,,54,,,,,,,,,,,,,,400.77099995230674,,response,,,,100,,,,,,,Space,keypress(Space),,,,,,,,-- --- ---- --- ------ ----- ------- ---- -- --- ------- by<br>------- ---------- ------ -- ----- -- ----- -- ---- ------<br>--- ----- --- --- ------ -------- ----- --- ------ ----- --<br>----- ----- ---------- --- --- ------ ------ ---- -- ------<br>------- --- ------ ----- --- ---- ------- -- ---- --- --<br>------- ------,190736.10000002384,190732.29999995232,190314.871,190328.89999997616,190331.529,190749.051,,11,by
screen,html.Screen,2_1_1_1_12,2022-04-27T20:42:24.660Z,,,,,,,,,,,,,,,,,54,,,,,,,,,,,,,,402.5490000238351,,response,,,,100,,,,,,,Space,keypress(Space),,,,,,,,-- --- ---- --- ------ ----- ------- ---- -- --- ------- --<br>issuing ---------- ------ -- ----- -- ----- -- ---- ------<br>--- ----- --- --- ------ -------- ----- --- ------ ----- --<br>----- ----- ---------- --- --- ------ ------ ---- -- ------<br>------- --- ------ ----- --- ---- ------- -- ---- --- --<br>------- ------,191152.5,191151.60000002384,190732.393,190736.69999992847,190749.051,191166.537,,12,issuing
screen,html.Screen,2_1_1_1_13,2022-04-27T20:42:25.197Z,,,,,,,,,,,,,,,,,54,,,,,,,,,,,,,,522.362999976147,,response,,,,100,,,,,,,Space,keypress(Space),,,,,,,,-- --- ---- --- ------ ----- ------- ---- -- --- ------- --<br>------- government ------ -- ----- -- ----- -- ---- ------<br>--- ----- --- --- ------ -------- ----- --- ------ ----- --<br>----- ----- ---------- --- --- ------ ------ ---- -- ------<br>------- --- ------ ----- --- ---- ------- -- ---- --- --<br>------- ------,191690,191688.89999997616,191149.879,191152.69999992847,191166.537,191700.659,,13,government
screen,html.Screen,2_1_1_1_14,2022-04-27T20:42:25.986Z,,,,,,,,,,,,,,,,,54,,,,,,,,,,,,,,775.3409999999858,,response,,,,100,,,,,,,Space,keypress(Space),,,,,,,,-- --- ---- --- ------ ----- ------- ---- -- --- ------- --<br>------- ---------- bonds. -- ----- -- ----- -- ---- ------<br>--- ----- --- --- ------ -------- ----- --- ------ ----- --<br>----- ----- ---------- --- --- ------ ------ ---- -- ------<br>------- --- ------ ----- --- ---- ------- -- ---- --- --<br>------- ------,192478.39999997616,192476,191684.001,191690.29999995232,191700.659,192484.946,,14,bonds.
screen,html.Screen,2_1_1_1_15,2022-04-27T20:42:26.535Z,,,,,,,,,,,,,,,,,54,,,,,,,,,,,,,,540.9539999761619,,response,,,,100,,,,,,,Space,keypress(Space),,,,,,,,-- --- ---- --- ------ ----- ------- ---- -- --- ------- --<br>------- ---------- ------ In ----- -- ----- -- ---- ------<br>--- ----- --- --- ------ -------- ----- --- ------ ----- --<br>----- ----- ---------- --- --- ------ ------ ---- -- ------<br>------- --- ------ ----- --- ---- ------- -- ---- --- --<br>------- ------,193027.39999997616,193025.89999997616,192468.288,192479,192484.946,193036.711,,15,In
screen,html.Screen,2_1_1_1_16,2022-04-27T20:42:26.745Z,,,,,,,,,,,,,,,,,54,,,,,,,,,,,,,,199.08899995230604,,response,,,,100,,,,,,,Space,keypress(Space),,,,,,,,"-- --- ---- --- ------ ----- ------- ---- -- --- ------- --<br>------- ---------- ------ -- 1727, -- ----- -- ---- ------<br>--- ----- --- --- ------ -------- ----- --- ------ ----- --<br>----- ----- ---------- --- --- ------ ------ ---- -- ------<br>------- --- ------ ----- --- ---- ------- -- ---- --- --<br>------- ------",193237.5,193235.79999995232,193020.053,193027.69999992847,193036.711,193254.728,,16,"1727,"
screen,html.Screen,2_1_1_1_17,2022-04-27T20:42:27.391Z,,,,,,,,,,,,,,,,,54,,,,,,,,,,,,,,626.8720000238391,,response,,,,100,,,,,,,Space,keypress(Space),,,,,,,,-- --- ---- --- ------ ----- ------- ---- -- --- ------- --<br>------- ---------- ------ -- ----- in ----- -- ---- ------<br>--- ----- --- --- ------ -------- ----- --- ------ ----- --<br>----- ----- ---------- --- --- ------ ------ ---- -- ------<br>------- --- ------ ----- --- ---- ------- -- ---- --- --<br>------- ------,193883.39999997616,193881.60000002384,193238.07,193237.79999995232,193254.728,193888.047,,17,in
screen,html.Screen,2_1_1_1_18,2022-04-27T20:42:27.892Z,,,,,,,,,,,,,,,,,54,,,,,,,,,,,,,,492.65299992848304,,response,,,,100,,,,,,,Space,keypress(Space),,,,,,,,-- --- ---- --- ------ ----- ------- ---- -- --- ------- --<br>------- ---------- ------ -- ----- -- order -- ---- ------<br>--- ----- --- --- ------ -------- ----- --- ------ ----- --<br>----- ----- ---------- --- --- ------ ------ ---- -- ------<br>------- --- ------ ----- --- ---- ------- -- ---- --- --<br>------- ------,194385,194380.69999992847,193871.389,193884,193888.047,194389.557,,18,order
screen,html.Screen,2_1_1_1_19,2022-04-27T20:42:28.294Z,,,,,,,,,,,,,,,,,54,,,,,,,,,,,,,,394.84299997615744,,response,,,,100,,,,,,,Space,keypress(Space),,,,,,,,-- --- ---- --- ------ ----- ------- ---- -- --- ------- --<br>------- ---------- ------ -- ----- -- ----- to ---- ------<br>--- ----- --- --- ------ -------- ----- --- ------ ----- --<br>----- ----- ---------- --- --- ------ ------ ---- -- ------<br>------- --- ------ ----- --- ---- ------- -- ---- --- --<br>------- ------,194786.5,194784.39999997616,194372.899,194385.5,194389.557,194790.65,,19,to
screen,html.Screen,2_1_1_1_20,2022-04-27T20:42:28.749Z,,,,,,,,,,,,,,,,,54,,,,,,,,,,,,,,448.9500000238477,,response,,,,100,,,,,,,Space,keypress(Space),,,,,,,,-- --- ---- --- ------ ----- ------- ---- -- --- ------- --<br>------- ---------- ------ -- ----- -- ----- -- save ------<br>--- ----- --- --- ------ -------- ----- --- ------ ----- --<br>----- ----- ---------- --- --- ------ ------ ---- -- ------<br>------- --- ------ ----- --- ---- ------- -- ---- --- --<br>------- ------,195241.89999997616,195239.60000002384,194773.992,194786.79999995232,194790.65,195257.973,,20,save
screen,html.Screen,2_1_1_1_21,2022-04-27T20:42:29.648Z,,,,,,,,,,,,,,,,,54,,,,,,,,,,,,,,881.6270000238437,,response,,,,100,,,,,,,Space,keypress(Space),,,,,,,,"-- --- ---- --- ------ ----- ------- ---- -- --- ------- --<br>------- ---------- ------ -- ----- -- ----- -- ---- money,<br>--- ----- --- --- ------ -------- ----- --- ------ ----- --<br>----- ----- ---------- --- --- ------ ------ ---- -- ------<br>------- --- ------ ----- --- ---- ------- -- ---- --- --<br>------- ------",196141.10000002384,196139.60000002384,195241.315,195242.29999995232,195257.973,196158.64,,21,"money,"
screen,html.Screen,2_1_1_1_22,2022-04-27T20:42:30.072Z,,,,,,,,,,,,,,,,,54,,,,,,,,,,,,,,404.9600000238279,,response,,,,100,,,,,,,Space,keypress(Space),,,,,,,,-- --- ---- --- ------ ----- ------- ---- -- --- ------- --<br>------- ---------- ------ -- ----- -- ----- -- ---- ------<br>the ----- --- --- ------ -------- ----- --- ------ ----- --<br>----- ----- ---------- --- --- ------ ------ ---- -- ------<br>------- --- ------ ----- --- ---- ------- -- ---- --- --<br>------- ------,196564.10000002384,196563.60000002384,196141.982,196141.5,196158.64,196577.55,,22,the
screen,html.Screen,2_1_1_1_23,2022-04-27T20:42:30.365Z,,,,,,,,,,,,,,,,,54,,,,,,,,,,,,,,278.7499999523279,,response,,,,100,,,,,,,Space,keypress(Space),,,,,,,,-- --- ---- --- ------ ----- ------- ---- -- --- ------- --<br>------- ---------- ------ -- ----- -- ----- -- ---- ------<br>--- state --- --- ------ -------- ----- --- ------ ----- --<br>----- ----- ---------- --- --- ------ ------ ---- -- ------<br>------- --- ------ ----- --- ---- ------- -- ---- --- --<br>------- ------,196857.39999997616,196856.29999995232,196560.892,196564.29999995232,196577.55,196861.668,,23,state
screen,html.Screen,2_1_1_1_24,2022-04-27T20:42:30.794Z,,,,,,,,,,,,,,,,,54,,,,,,,,,,,,,,423.8319999999949,,response,,,,100,,,,,,,Space,keypress(Space),,,,,,,,-- --- ---- --- ------ ----- ------- ---- -- --- ------- --<br>------- ---------- ------ -- ----- -- ----- -- ---- ------<br>--- ----- cut --- ------ -------- ----- --- ------ ----- --<br>----- ----- ---------- --- --- ------ ------ ---- -- ------<br>------- --- ------ ----- --- ---- ------- -- ---- --- --<br>------- ------,197286.10000002384,197285.5,196845.01,196857.69999992847,196861.668,197295.499,,24,cut
screen,html.Screen,2_1_1_1_25,2022-04-27T20:42:31.256Z,,,,,,,,,,,,,,,,,54,,,,,,,,,,,,,,450.40099997614743,,response,,,,100,,,,,,,Space,keypress(Space),,,,,,,,-- --- ---- --- ------ ----- ------- ---- -- --- ------- --<br>------- ---------- ------ -- ----- -- ----- -- ---- ------<br>--- ----- --- the ------ -------- ----- --- ------ ----- --<br>----- ----- ---------- --- --- ------ ------ ---- -- ------<br>------- --- ------ ----- --- ---- ------- -- ---- --- --<br>------- ------,197748.79999995232,197745.89999997616,197278.841,197286.29999995232,197295.499,197763.029,,25,the
screen,html.Screen,2_1_1_1_26,2022-04-27T20:42:31.640Z,,,,,,,,,,,,,,,,,54,,,,,,,,,,,,,,368.1709999284649,,response,,,,100,,,,,,,Space,keypress(Space),,,,,,,,-- --- ---- --- ------ ----- ------- ---- -- --- ------- --<br>------- ---------- ------ -- ----- -- ----- -- ---- ------<br>--- ----- --- --- bonds' -------- ----- --- ------ ----- --<br>----- ----- ---------- --- --- ------ ------ ---- -- ------<br>------- --- ------ ----- --- ---- ------- -- ---- --- --<br>------- ------,198132.89999997616,198131.19999992847,197746.371,197749.39999997616,197763.029,198147.298,,26,bonds'
screen,html.Screen,2_1_1_1_27,2022-04-27T20:42:32.054Z,,,,,,,,,,,,,,,,,54,,,,,,,,,,,,,,397.5019999523065,,response,,,,100,,,,,,,Space,keypress(Space),,,,,,,,-- --- ---- --- ------ ----- ------- ---- -- --- ------- --<br>------- ---------- ------ -- ----- -- ----- -- ---- ------<br>--- ----- --- --- ------ interest ----- --- ------ ----- --<br>----- ----- ---------- --- --- ------ ------ ---- -- ------<br>------- --- ------ ----- --- ---- ------- -- ---- --- --<br>------- ------,198546.29999995232,198544.79999995232,198130.64,198133.5,198147.298,198548.086,,27,interest
screen,html.Screen,2_1_1_1_28,2022-04-27T20:42:32.851Z,,,,,,,,,,,,,,,,,54,,,,,,,,,,,,,,794.1139999284642,,response,,,,100,,,,,,,Space,keypress(Space),,,,,,,,-- --- ---- --- ------ ----- ------- ---- -- --- ------- --<br>------- ---------- ------ -- ----- -- ----- -- ---- ------<br>--- ----- --- --- ------ -------- rate. --- ------ ----- --<br>----- ----- ---------- --- --- ------ ------ ---- -- ------<br>------- --- ------ ----- --- ---- ------- -- ---- --- --<br>------- ------,199343.5,199342.19999992847,198531.428,198546.60000002384,198548.086,199348.792,,28,rate.
screen,html.Screen,2_1_1_1_29,2022-04-27T20:42:33.889Z,,,,,,,,,,,,,,,,,54,,,,,,,,,,,,,,1030.8080000238551,,response,,,,100,,,,,,,Space,keypress(Space),,,,,,,,-- --- ---- --- ------ ----- ------- ---- -- --- ------- --<br>------- ---------- ------ -- ----- -- ----- -- ---- ------<br>--- ----- --- --- ------ -------- ----- The ------ ----- --<br>----- ----- ---------- --- --- ------ ------ ---- -- ------<br>------- --- ------ ----- --- ---- ------- -- ---- --- --<br>------- ------,200381.19999992847,200379.60000002384,199332.134,199344,199348.792,200383.654,,29,The
screen,html.Screen,2_1_1_1_30,2022-04-27T20:42:34.310Z,,,,,,,,,,,,,,,,,54,,,,,,,,,,,,,,416.4460000238323,,response,,,,100,,,,,,,Space,keypress(Space),,,,,,,,-- --- ---- --- ------ ----- ------- ---- -- --- ------- --<br>------- ---------- ------ -- ----- -- ----- -- ---- ------<br>--- ----- --- --- ------ -------- ----- --- market ----- --<br>----- ----- ---------- --- --- ------ ------ ---- -- ------<br>------- --- ------ ----- --- ---- ------- -- ---- --- --<br>------- ------,200802.79999995232,200800.10000002384,200366.996,200381.60000002384,200383.654,200819.463,,30,market
screen,html.Screen,2_1_1_1_31,2022-04-27T20:42:34.741Z,,,,,,,,,,,,,,,,,54,,,,,,,,,,,,,,413.63700002385303,,response,,,,100,,,,,,,Space,keypress(Space),,,,,,,,-- --- ---- --- ------ ----- ------- ---- -- --- ------- --<br>------- ---------- ------ -- ----- -- ----- -- ---- ------<br>--- ----- --- --- ------ -------- ----- --- ------ value --<br>----- ----- ---------- --- --- ------ ------ ---- -- ------<br>------- --- ------ ----- --- ---- ------- -- ---- --- --<br>------- ------,201233.79999995232,201233.10000002384,200802.805,200803.10000002384,200819.463,201236.863,,31,value
screen,html.Screen,2_1_1_1_32,2022-04-27T20:42:35.208Z,,,,,,,,,,,,,,,,,54,,,,,,,,,,,,,,461.23700002382975,,response,,,,100,,,,,,,Space,keypress(Space),,,,,,,,-- --- ---- --- ------ ----- ------- ---- -- --- ------- --<br>------- ---------- ------ -- ----- -- ----- -- ---- ------<br>--- ----- --- --- ------ -------- ----- --- ------ ----- of<br>----- ----- ---------- --- --- ------ ------ ---- -- ------<br>------- --- ------ ----- --- ---- ------- -- ---- --- --<br>------- ------,201700.5,201698.10000002384,201220.205,201233.89999997616,201236.863,201704.316,,32,of
screen,html.Screen,2_1_1_1_33,2022-04-27T20:42:35.679Z,,,,,,,,,,,,,,,,,54,,,,,,,,,,,,,,465.3839999284828,,response,,,,100,,,,,,,Space,keypress(Space),,,,,,,,-- --- ---- --- ------ ----- ------- ---- -- --- ------- --<br>------- ---------- ------ -- ----- -- ----- -- ---- ------<br>--- ----- --- --- ------ -------- ----- --- ------ ----- --<br>these ----- ---------- --- --- ------ ------ ---- -- ------<br>------- --- ------ ----- --- ---- ------- -- ---- --- --<br>------- ------,202171.10000002384,202169.69999992847,201687.658,201700.89999997616,201704.316,202188.615,,33,these
screen,html.Screen,2_1_1_1_34,2022-04-27T20:42:36.189Z,,,,,,,,,,,,,,,,,54,,,,,,,,,,,,,,491.08499992848374,,response,,,,100,,,,,,,Space,keypress(Space),,,,,,,,-- --- ---- --- ------ ----- ------- ---- -- --- ------- --<br>------- ---------- ------ -- ----- -- ----- -- ---- ------<br>--- ----- --- --- ------ -------- ----- --- ------ ----- --<br>----- bonds ---------- --- --- ------ ------ ---- -- ------<br>------- --- ------ ----- --- ---- ------- -- ---- --- --<br>------- ------,202681.19999992847,202679.69999992847,202171.957,202171.5,202188.615,202689.598,,34,bonds
screen,html.Screen,2_1_1_1_35,2022-04-27T20:42:36.904Z,,,,,,,,,,,,,,,,,54,,,,,,,,,,,,,,704.6019999284763,,response,,,,100,,,,,,,Space,keypress(Space),,,,,,,,"-- --- ---- --- ------ ----- ------- ---- -- --- ------- --<br>------- ---------- ------ -- ----- -- ----- -- ---- ------<br>--- ----- --- --- ------ -------- ----- --- ------ ----- --<br>----- ----- plummeted, --- --- ------ ------ ---- -- ------<br>------- --- ------ ----- --- ---- ------- -- ---- --- --<br>------- ------",203396.79999995232,203394.19999992847,202672.94,202681.60000002384,202689.598,203407.176,,35,"plummeted,"
screen,html.Screen,2_1_1_1_36,2022-04-27T20:42:37.738Z,,,,,,,,,,,,,,,,,54,,,,,,,,,,,,,,821.7239999761514,,response,,,,100,,,,,,,Space,keypress(Space),,,,,,,,-- --- ---- --- ------ ----- ------- ---- -- --- ------- --<br>------- ---------- ------ -- ----- -- ----- -- ---- ------<br>--- ----- --- --- ------ -------- ----- --- ------ ----- --<br>----- ----- ---------- and --- ------ ------ ---- -- ------<br>------- --- ------ ----- --- ---- ------- -- ---- --- --<br>------- ------,204230.39999997616,204228.89999997616,203390.518,203397.19999992847,203407.176,204241.952,,36,and
screen,html.Screen,2_1_1_1_37,2022-04-27T20:42:38.274Z,,,,,,,,,,,,,,,,,54,,,,,,,,,,,,,,522.7479999284842,,response,,,,100,,,,,,,Space,keypress(Space),,,,,,,,-- --- ---- --- ------ ----- ------- ---- -- --- ------- --<br>------- ---------- ------ -- ----- -- ----- -- ---- ------<br>--- ----- --- --- ------ -------- ----- --- ------ ----- --<br>----- ----- ---------- --- the ------ ------ ---- -- ------<br>------- --- ------ ----- --- ---- ------- -- ---- --- --<br>------- ------,204766.19999992847,204764.69999992847,204225.294,204230.69999992847,204241.952,204776.972,,37,the
screen,html.Screen,2_1_1_1_38,2022-04-27T20:42:38.533Z,,,,,,,,,,,,,,,,,54,,,,,,,,,,,,,,246.128000023833,,response,,,,100,,,,,,,Space,keypress(Space),,,,,,,,-- --- ---- --- ------ ----- ------- ---- -- --- ------- --<br>------- ---------- ------ -- ----- -- ----- -- ---- ------<br>--- ----- --- --- ------ -------- ----- --- ------ ----- --<br>----- ----- ---------- --- --- market ------ ---- -- ------<br>------- --- ------ ----- --- ---- ------- -- ---- --- --<br>------- ------,205025.39999997616,205023.10000002384,204760.314,204766.5,204776.972,205028.233,,38,market
screen,html.Screen,2_1_1_1_39,2022-04-27T20:42:38.943Z,,,,,,,,,,,,,,,,,54,,,,,,,,,,,,,,406.966999928467,,response,,,,100,,,,,,,Space,keypress(Space),,,,,,,,-- --- ---- --- ------ ----- ------- ---- -- --- ------- --<br>------- ---------- ------ -- ----- -- ----- -- ---- ------<br>--- ----- --- --- ------ -------- ----- --- ------ ----- --<br>----- ----- ---------- --- --- ------ became ---- -- ------<br>------- --- ------ ----- --- ---- ------- -- ---- --- --<br>------- ------,205436,205435.19999992847,205011.575,205025.79999995232,205028.233,205445.32,,39,became
screen,html.Screen,2_1_1_1_40,2022-04-27T20:42:39.352Z,,,,,,,,,,,,,,,,,54,,,,,,,,,,,,,,398.37999992846744,,response,,,,100,,,,,,,Space,keypress(Space),,,,,,,,-- --- ---- --- ------ ----- ------- ---- -- --- ------- --<br>------- ---------- ------ -- ----- -- ----- -- ---- ------<br>--- ----- --- --- ------ -------- ----- --- ------ ----- --<br>----- ----- ---------- --- --- ------ ------ wary -- ------<br>------- --- ------ ----- --- ---- ------- -- ---- --- --<br>------- ------,205844.39999997616,205843.69999992847,205428.662,205436.29999995232,205445.32,205846.147,,40,wary
screen,html.Screen,2_1_1_1_41,2022-04-27T20:42:39.735Z,,,,,,,,,,,,,,,,,54,,,,,,,,,,,,,,380.6529999523191,,response,,,,100,,,,,,,Space,keypress(Space),,,,,,,,-- --- ---- --- ------ ----- ------- ---- -- --- ------- --<br>------- ---------- ------ -- ----- -- ----- -- ---- ------<br>--- ----- --- --- ------ -------- ----- --- ------ ----- --<br>----- ----- ---------- --- --- ------ ------ ---- of ------<br>------- --- ------ ----- --- ---- ------- -- ---- --- --<br>------- ------,206227.5,206226.79999995232,205829.489,205844.69999992847,205846.147,206230.305,,41,of
screen,html.Screen,2_1_1_1_42,2022-04-27T20:42:40.129Z,,,,,,,,,,,,,,,,,54,,,,,,,,,,,,,,390.195000000007,,response,,,,100,,,,,,,Space,keypress(Space),,,,,,,,-- --- ---- --- ------ ----- ------- ---- -- --- ------- --<br>------- ---------- ------ -- ----- -- ----- -- ---- ------<br>--- ----- --- --- ------ -------- ----- --- ------ ----- --<br>----- ----- ---------- --- --- ------ ------ ---- -- French<br>------- --- ------ ----- --- ---- ------- -- ---- --- --<br>------- ------,206621.5,206620.5,206213.647,206227.79999995232,206230.305,206631.062,,42,French
screen,html.Screen,2_1_1_1_43,2022-04-27T20:42:40.632Z,,,,,,,,,,,,,,,,,54,,,,,,,,,,,,,,491.8379999761528,,response,,,,100,,,,,,,Space,keypress(Space),,,,,,,,-- --- ---- --- ------ ----- ------- ---- -- --- ------- --<br>------- ---------- ------ -- ----- -- ----- -- ---- ------<br>--- ----- --- --- ------ -------- ----- --- ------ ----- --<br>----- ----- ---------- --- --- ------ ------ ---- -- ------<br>credit. --- ------ ----- --- ---- ------- -- ---- --- --<br>------- ------,207124.79999995232,207122.89999997616,206614.404,206621.79999995232,206631.062,207131.866,,43,credit.
screen,html.Screen,2_1_1_1_44,2022-04-27T20:42:41.054Z,,,,,,,,,,,,,,,,,54,,,,,,,,,,,,,,413.53399997614906,,response,,,,100,,,,,,,Space,keypress(Space),,,,,,,,-- --- ---- --- ------ ----- ------- ---- -- --- ------- --<br>------- ---------- ------ -- ----- -- ----- -- ---- ------<br>--- ----- --- --- ------ -------- ----- --- ------ ----- --<br>----- ----- ---------- --- --- ------ ------ ---- -- ------<br>------- The ------ ----- --- ---- ------- -- ---- --- --<br>------- ------,207547,207545.39999997616,207115.208,207125.29999995232,207131.866,207549.655,,44,The
screen,html.Screen,2_1_1_1_45,2022-04-27T20:42:41.558Z,,,,,,,,,,,,,,,,,54,,,,,,,,,,,,,,499.445000023843,,response,,,,100,,,,,,,Space,keypress(Space),,,,,,,,-- --- ---- --- ------ ----- ------- ---- -- --- ------- --<br>------- ---------- ------ -- ----- -- ----- -- ---- ------<br>--- ----- --- --- ------ -------- ----- --- ------ ----- --<br>----- ----- ---------- --- --- ------ ------ ---- -- ------<br>------- --- French ----- --- ---- ------- -- ---- --- --<br>------- ------,208050.60000002384,208049.10000002384,207532.997,207547.39999997616,207549.655,208067.081,,45,French
screen,html.Screen,2_1_1_1_46,2022-04-27T20:42:41.935Z,,,,,,,,,,,,,,,,,54,,,,,,,,,,,,,,358.7189999523107,,response,,,,100,,,,,,,Space,keypress(Space),,,,,,,,-- --- ---- --- ------ ----- ------- ---- -- --- ------- --<br>------- ---------- ------ -- ----- -- ----- -- ---- ------<br>--- ----- --- --- ------ -------- ----- --- ------ ----- --<br>----- ----- ---------- --- --- ------ ------ ---- -- ------<br>------- --- ------ state --- ---- ------- -- ---- --- --<br>------- ------,208427.39999997616,208425.79999995232,208050.423,208051,208067.081,208434.812,,46,state
screen,html.Screen,2_1_1_1_47,2022-04-27T20:42:42.393Z,,,,,,,,,,,,,,,,,54,,,,,,,,,,,,,,447.7880000238365,,response,,,,100,,,,,,,Space,keypress(Space),,,,,,,,-- --- ---- --- ------ ----- ------- ---- -- --- ------- --<br>------- ---------- ------ -- ----- -- ----- -- ---- ------<br>--- ----- --- --- ------ -------- ----- --- ------ ----- --<br>----- ----- ---------- --- --- ------ ------ ---- -- ------<br>------- --- ------ ----- was ---- ------- -- ---- --- --<br>------- ------,208885.79999995232,208882.60000002384,208418.154,208427.69999992847,208434.812,208902.204,,47,was
screen,html.Screen,2_1_1_1_48,2022-04-27T20:42:42.802Z,,,,,,,,,,,,,,,,,54,,,,,,,,,,,,,,391.2960000000021,,response,,,,100,,,,,,,Space,keypress(Space),,,,,,,,-- --- ---- --- ------ ----- ------- ---- -- --- ------- --<br>------- ---------- ------ -- ----- -- ----- -- ---- ------<br>--- ----- --- --- ------ -------- ----- --- ------ ----- --<br>----- ----- ---------- --- --- ------ ------ ---- -- ------<br>------- --- ------ ----- --- left ------- -- ---- --- --<br>------- ------,209295.10000002384,209293.5,208885.546,208886.10000002384,208902.204,209303.128,,48,left
screen,html.Screen,2_1_1_1_49,2022-04-27T20:42:43.088Z,,,,,,,,,,,,,,,,,54,,,,,,,,,,,,,,275.77199997616117,,response,,,,100,,,,,,,Space,keypress(Space),,,,,,,,-- --- ---- --- ------ ----- ------- ---- -- --- ------- --<br>------- ---------- ------ -- ----- -- ----- -- ---- ------<br>--- ----- --- --- ------ -------- ----- --- ------ ----- --<br>----- ----- ---------- --- --- ------ ------ ---- -- ------<br>------- --- ------ ----- --- ---- without -- ---- --- --<br>------- ------,209580.39999997616,209578.89999997616,209286.47,209295.69999992847,209303.128,209587.388,,49,without
screen,html.Screen,2_1_1_1_50,2022-04-27T20:42:43.511Z,,,,,,,,,,,,,,,,,54,,,,,,,,,,,,,,413.91199995231,,response,,,,100,,,,,,,Space,keypress(Space),,,,,,,,-- --- ---- --- ------ ----- ------- ---- -- --- ------- --<br>------- ---------- ------ -- ----- -- ----- -- ---- ------<br>--- ----- --- --- ------ -------- ----- --- ------ ----- --<br>----- ----- ---------- --- --- ------ ------ ---- -- ------<br>------- --- ------ ----- --- ---- ------- an ---- --- --<br>------- ------,210003.69999992847,210001.29999995232,209570.73,209580.69999992847,209587.388,210021.249,,50,an
screen,html.Screen,2_1_1_1_51,2022-04-27T20:42:43.933Z,,,,,,,,,,,,,,,,,54,,,,,,,,,,,,,,401.35100002383115,,response,,,,100,,,,,,,Space,keypress(Space),,,,,,,,-- --- ---- --- ------ ----- ------- ---- -- --- ------- --<br>------- ---------- ------ -- ----- -- ----- -- ---- ------<br>--- ----- --- --- ------ -------- ----- --- ------ ----- --<br>----- ----- ---------- --- --- ------ ------ ---- -- ------<br>------- --- ------ ----- --- ---- ------- -- easy --- --<br>------- ------,210425.5,210422.60000002384,210004.591,210004.10000002384,210021.249,210438.765,,51,easy
screen,html.Screen,2_1_1_1_52,2022-04-27T20:42:44.326Z,,,,,,,,,,,,,,,,,54,,,,,,,,,,,,,,378.5349999523023,,response,,,,100,,,,,,,Space,keypress(Space),,,,,,,,-- --- ---- --- ------ ----- ------- ---- -- --- ------- --<br>------- ---------- ------ -- ----- -- ----- -- ---- ------<br>--- ----- --- --- ------ -------- ----- --- ------ ----- --<br>----- ----- ---------- --- --- ------ ------ ---- -- ------<br>------- --- ------ ----- --- ---- ------- -- ---- way --<br>------- ------,210819,210817.29999995232,210422.107,210425.79999995232,210438.765,210822.902,,52,way
screen,html.Screen,2_1_1_1_53,2022-04-27T20:42:45.107Z,,,,,,,,,,,,,,,,,54,,,,,,,,,,,,,,774.5979999999981,,response,,,,100,,,,,,,Space,keypress(Space),,,,,,,,-- --- ---- --- ------ ----- ------- ---- -- --- ------- --<br>------- ---------- ------ -- ----- -- ----- -- ---- ------<br>--- ----- --- --- ------ -------- ----- --- ------ ----- --<br>----- ----- ---------- --- --- ------ ------ ---- -- ------<br>------- --- ------ ----- --- ---- ------- -- ---- --- of<br>------- ------,211599.19999992847,211597.5,210806.244,210819.29999995232,210822.902,211606.836,,53,of
screen,html.Screen,2_1_1_1_54,2022-04-27T20:42:45.545Z,,,,,,,,,,,,,,,,,54,,,,,,,,,,,,,,429.96399995230604,,response,,,,100,,,,,,,Space,keypress(Space),,,,,,,,-- --- ---- --- ------ ----- ------- ---- -- --- ------- --<br>------- ---------- ------ -- ----- -- ----- -- ---- ------<br>--- ----- --- --- ------ -------- ----- --- ------ ----- --<br>----- ----- ---------- --- --- ------ ------ ---- -- ------<br>------- --- ------ ----- --- ---- ------- -- ---- --- --<br>raising ------,212037.39999997616,212036.79999995232,211590.178,211599.5,211606.836,212041.941,,54,raising
screen,html.Screen,2_1_1_1_55,2022-04-27T20:42:46.040Z,,,,,,,,,,,,,,,,,54,,,,,,,,,,,,,,489.35899995232467,,response,,,,100,,,,,,,Space,keypress(Space),,,,,,,,-- --- ---- --- ------ ----- ------- ---- -- --- ------- --<br>------- ---------- ------ -- ----- -- ----- -- ---- ------<br>--- ----- --- --- ------ -------- ----- --- ------ ----- --<br>----- ----- ---------- --- --- ------ ------ ---- -- ------<br>------- --- ------ ----- --- ---- ------- -- ---- --- --<br>------- money.,212532.79999995232,212531.29999995232,212025.283,212037.60000002384,212041.941,212542.72,,55,money.
Item 100,flow.Loop,2_1_1_1,2022-04-27T20:42:46.041Z,,,,,,,,,,,,,,,,,,,,,,,,,,,,,,,26409.782999952324,,completion,,,,,C,,,,,,,,,,,silence,,,,,212533.5,212531.29999995232,186104.859,186107,186121.517,212542.72,,,
Question 1,html.Screen,2_1_1_2,2022-04-27T20:42:50.638Z,,,,,,,,,,,,,,,,,,,,,,,,,,,,true,TRUE,,4586.979999928473,,response,,,,100,C,,,,,,TRUE,click #choice-1,,,,silence,,,,,217130.79999995232,217129.69999992847,212526.062,212534,212542.72,217135.059,,,
Question 2,html.Screen,2_1_1_3,2022-04-27T20:42:53.708Z,,,,,,,,,,,,,,,,,,,,,,,,,,,,true,FALSE,,3064.8409999761498,,response,,,,100,C,,,,,,FALSE,click #choice-2,,,,silence,,,,,220200.89999997616,220199.89999997616,217118.401,217131.10000002384,217135.059,220209.243,,,
Item 100,flow.Sequence,2_1_1,2022-04-27T20:42:53.708Z,,,,,,,,,,,,,,,,,,,,,,,,,,,,,,,44081.25199997617,,completion,,,,,,,,,,,,,,,,,,,,,220201,220199.89999997616,176101.99,176106.5,176118.648,220209.243,,,
End of Practice,html.Page,2_1_2,2022-04-27T20:42:59.219Z,,,,,,,,,,,,,,,,,,,,,,,,,,,,,,,5501.956999928487,,form submission,,,,,,,,,,,,,,,,,,,,,225711.60000002384,225711.19999992847,220192.585,220201.19999992847,220209.243,225719.105,,,
Practice,flow.Sequence,2_1,2022-04-27T20:42:59.219Z,,,,,,,,,,,,,,,,,,,,,,,,,,,,,,,96303.27399992847,,completion,,,,,,,,,,,,,,,,,,,,,225711.69999992847,225711.19999992847,129391.268,129407.60000002384,129407.926,225719.105,,,
Trap_instruction,html.Page,2_2_0,2022-04-27T20:43:02.561Z,,,,,,,,,,,,,,,,,,,,,,,,,,,,,,,3334.594999928464,,form submission,,,,,,,,,,,,,,,,,,,,,229054,229053.69999992847,225702.447,225711.89999997616,225719.105,229074.991,,,
trap_trial,html.Screen,2_2_1,2022-04-27T20:43:06.017Z,,,,,,,,,,,,,,,,,,,,,,,,,,,,true,1,,3433.2089999284653,,response,,,,,,,,,,,1,click #choice-1,,,,,,,,,232509.39999997616,232508.19999992847,229041.675,229054.29999995232,229074.991,232509.358,,,
end of trap trial,html.Page,2_2_2,2022-04-27T20:43:07.783Z,,,,,,,,,,,,,,,,,,,,,,,,,,,,,,,1765.6419999999925,,form submission,,,,,,,,,,,,,,,,,,,,,234275.29999995232,234275,232492.7,232509.5,232509.358,234286.139,,,
Trap 1,flow.Sequence,2_2,2022-04-27T20:43:07.783Z,,,,,,,,,,,,,,,,,,,,,,,,,,,,,,,8555.89499999999,,completion,,,,,,,,,,,,,,,,,,,,,234275.39999997616,234275,225702.447,225711.79999995232,225719.105,234286.139,,,
Standby,html.Page,2_3_0,2022-04-27T20:43:15.777Z,,,,,,,,,,,,,,,,,,,,,,,,,,,,,,,7997.521000000008,,timeout,,,,,,,,,,,,,,,,,,,,,242269.29999995232,242267.002,234269.481,234275.60000002384,234286.139,242283.66,,,
Holding screen,html.Screen,2_3_1_0_0,2022-04-27T20:43:22.773Z,,,,,,,,,,,,,,,,,,,,,,,,,,,,,,,6996.112999999983,,timeout,,,,,,,,,,,,,,,,,,,,,249265.10000002384,249263.115,242267.002,242269.89999997616,242283.66,249279.773,,,
screen,html.Screen,2_3_1_0_1_0,2022-04-27T20:43:24.471Z,,,,,,,,,,,,,,,,,12,,,,,,,,,,,,,,1681.0269999523298,,response,,,,5,C,,,,,,Space,keypress(Space),,,,instrumental,,,,Some ------ ------ ------- ------ --- ------- -----------<br>-- ----- --- ---- -- --- ------ ---- - ---- -- ----------<br>-- ------ ---- --- ---- --- --- --- ----- -- -------- ---<br>------ ------- -------- --- ---- -- ------- ------------ --<br>------ -- ---- -- --- ---- -- -------- -- --- ------ ------,250963.60000002384,250960.79999995232,249263.115,249265.60000002384,249279.773,250964.782,,0,Some
screen,html.Screen,2_3_1_0_1_1,2022-04-27T20:43:24.862Z,,,,,,,,,,,,,,,,,12,,,,,,,,,,,,,,388.1179999761516,,response,,,,5,C,,,,,,Space,keypress(Space),,,,instrumental,,,,---- months ------ ------- ------ --- ------- -----------<br>-- ----- --- ---- -- --- ------ ---- - ---- -- ----------<br>-- ------ ---- --- ---- --- --- --- ----- -- -------- ---<br>------ ------- -------- --- ---- -- ------- ------------ --<br>------ -- ---- -- --- ---- -- -------- -- --- ------ ------,251354.79999995232,251352.89999997616,250948.124,250964.10000002384,250964.782,251367.044,,1,months
screen,html.Screen,2_3_1_0_1_2,2022-04-27T20:43:25.263Z,,,,,,,,,,,,,,,,,12,,,,,,,,,,,,,,386.85599997616373,,response,,,,5,C,,,,,,Space,keypress(Space),,,,instrumental,,,,"---- ------ later, ------- ------ --- ------- -----------<br>-- ----- --- ---- -- --- ------ ---- - ---- -- ----------<br>-- ------ ---- --- ---- --- --- --- ----- -- -------- ---<br>------ ------- -------- --- ---- -- ------- ------------ --<br>------ -- ---- -- --- ---- -- -------- -- --- ------ ------",251755.79999995232,251753.89999997616,251350.386,251355.10000002384,251367.044,251772.144,,2,"later,"
screen,html.Screen,2_3_1_0_1_3,2022-04-27T20:43:25.670Z,,,,,,,,,,,,,,,,,12,,,,,,,,,,,,,,387.5559999284742,,response,,,,5,C,,,,,,Space,keypress(Space),,,,instrumental,,,,---- ------ ------ Michael ------ --- ------- -----------<br>-- ----- --- ---- -- --- ------ ---- - ---- -- ----------<br>-- ------ ---- --- ---- --- --- --- ----- -- -------- ---<br>------ ------- -------- --- ---- -- ------- ------------ --<br>------ -- ---- -- --- ---- -- -------- -- --- ------ ------,252162.10000002384,252159.69999992847,251755.486,251756.19999992847,251772.144,252171.993,,3,Michael
screen,html.Screen,2_3_1_0_1_4,2022-04-27T20:43:26.032Z,,,,,,,,,,,,,,,,,12,,,,,,,,,,,,,,351.1070000238542,,response,,,,5,C,,,,,,Space,keypress(Space),,,,instrumental,,,,---- ------ ------ ------- Larson --- ------- -----------<br>-- ----- --- ---- -- --- ------ ---- - ---- -- ----------<br>-- ------ ---- --- ---- --- --- --- ----- -- -------- ---<br>------ ------- -------- --- ---- -- ------- ------------ --<br>------ -- ---- -- --- ---- -- -------- -- --- ------ ------,252525,252523.10000002384,252155.335,252162.60000002384,252171.993,252539.395,,4,Larson
screen,html.Screen,2_3_1_0_1_5,2022-04-27T20:43:26.456Z,,,,,,,,,,,,,,,,,12,,,,,,,,,,,,,,407.5049999761686,,response,,,,5,C,,,,,,Space,keypress(Space),,,,instrumental,,,,---- ------ ------ ------- ------ saw ------- -----------<br>-- ----- --- ---- -- --- ------ ---- - ---- -- ----------<br>-- ------ ---- --- ---- --- --- --- ----- -- -------- ---<br>------ ------- -------- --- ---- -- ------- ------------ --<br>------ -- ---- -- --- ---- -- -------- -- --- ------ ------,252948.69999992847,252946.89999997616,252522.737,252525.5,252539.395,252957.832,,5,saw
screen,html.Screen,2_3_1_0_1_6,2022-04-27T20:43:26.824Z,,,,,,,,,,,,,,,,,12,,,,,,,,,,,,,,356.768000023847,,response,,,,5,C,,,,,,Space,keypress(Space),,,,instrumental,,,,---- ------ ------ ------- ------ --- another -----------<br>-- ----- --- ---- -- --- ------ ---- - ---- -- ----------<br>-- ------ ---- --- ---- --- --- --- ----- -- -------- ---<br>------ ------- -------- --- ---- -- ------- ------------ --<br>------ -- ---- -- --- ---- -- -------- -- --- ------ ------,253316.69999992847,253314.60000002384,252941.174,252949.10000002384,252957.832,253324.342,,6,another
screen,html.Screen,2_3_1_0_1_7,2022-04-27T20:43:27.298Z,,,,,,,,,,,,,,,,,12,,,,,,,,,,,,,,464.4579999523121,,response,,,,5,C,,,,,,Space,keypress(Space),,,,instrumental,,,,---- ------ ------ ------- ------ --- ------- opportunity<br>-- ----- --- ---- -- --- ------ ---- - ---- -- ----------<br>-- ------ ---- --- ---- --- --- --- ----- -- -------- ---<br>------ ------- -------- --- ---- -- ------- ------------ --<br>------ -- ---- -- --- ---- -- -------- -- --- ------ ------,253790.29999995232,253788.79999995232,253307.684,253317.19999992847,253324.342,253808.497,,7,opportunity
screen,html.Screen,2_3_1_0_1_8,2022-04-27T20:43:27.681Z,,,,,,,,,,,,,,,,,12,,,,,,,,,,,,,,362.30299995231326,,response,,,,5,C,,,,,,Space,keypress(Space),,,,instrumental,,,,---- ------ ------ ------- ------ --- ------- -----------<br>to ----- --- ---- -- --- ------ ---- - ---- -- ----------<br>-- ------ ---- --- ---- --- --- --- ----- -- -------- ---<br>------ ------- -------- --- ---- -- ------- ------------ --<br>------ -- ---- -- --- ---- -- -------- -- --- ------ ------,254173.39999997616,254170.79999995232,253791.839,253790.89999997616,253808.497,254175.887,,8,to
screen,html.Screen,2_3_1_0_1_9,2022-04-27T20:43:27.975Z,,,,,,,,,,,,,,,,,12,,,,,,,,,,,,,,289.4129999523284,,response,,,,5,C,,,,,,Space,keypress(Space),,,,instrumental,,,,---- ------ ------ ------- ------ --- ------- -----------<br>-- stack --- ---- -- --- ------ ---- - ---- -- ----------<br>-- ------ ---- --- ---- --- --- --- ----- -- -------- ---<br>------ ------- -------- --- ---- -- ------- ------------ --<br>------ -- ---- -- --- ---- -- -------- -- --- ------ ------,254468,254465.29999995232,254159.229,254173.69999992847,254175.887,254477.781,,9,stack
screen,html.Screen,2_3_1_0_1_10,2022-04-27T20:43:28.246Z,,,,,,,,,,,,,,,,,12,,,,,,,,,,,,,,259.4189999284863,,response,,,,5,C,,,,,,Space,keypress(Space),,,,instrumental,,,,---- ------ ------ ------- ------ --- ------- -----------<br>-- ----- the ---- -- --- ------ ---- - ---- -- ----------<br>-- ------ ---- --- ---- --- --- --- ----- -- -------- ---<br>------ ------- -------- --- ---- -- ------- ------------ --<br>------ -- ---- -- --- ---- -- -------- -- --- ------ ------,254738.69999992847,254737.19999992847,254461.123,254468.29999995232,254477.781,254744.427,,10,the
screen,html.Screen,2_3_1_0_1_11,2022-04-27T20:43:28.501Z,,,,,,,,,,,,,,,,,12,,,,,,,,,,,,,,247.67300002384582,,response,,,,5,C,,,,,,Space,keypress(Space),,,,instrumental,,,,---- ------ ------ ------- ------ --- ------- -----------<br>-- ----- --- odds -- --- ------ ---- - ---- -- ----------<br>-- ------ ---- --- ---- --- --- --- ----- -- -------- ---<br>------ ------- -------- --- ---- -- ------- ------------ --<br>------ -- ---- -- --- ---- -- -------- -- --- ------ ------,254993.10000002384,254992.10000002384,254727.769,254739.10000002384,254744.427,254995.068,,11,odds
screen,html.Screen,2_3_1_0_1_12,2022-04-27T20:43:28.835Z,,,,,,,,,,,,,,,,,12,,,,,,,,,,,,,,330.03200002384256,,response,,,,5,C,,,,,,Space,keypress(Space),,,,instrumental,,,,---- ------ ------ ------- ------ --- ------- -----------<br>-- ----- --- ---- in --- ------ ---- - ---- -- ----------<br>-- ------ ---- --- ---- --- --- --- ----- -- -------- ---<br>------ ------- -------- --- ---- -- ------- ------------ --<br>------ -- ---- -- --- ---- -- -------- -- --- ------ ------,255327.60000002384,255325.10000002384,254978.41,254993.29999995232,254995.068,255329.35,,12,in
screen,html.Screen,2_3_1_0_1_13,2022-04-27T20:43:29.099Z,,,,,,,,,,,,,,,,,12,,,,,,,,,,,,,,260.1499999999942,,response,,,,5,C,,,,,,Space,keypress(Space),,,,instrumental,,,,---- ------ ------ ------- ------ --- ------- -----------<br>-- ----- --- ---- -- his ------ ---- - ---- -- ----------<br>-- ------ ---- --- ---- --- --- --- ----- -- -------- ---<br>------ ------- -------- --- ---- -- ------- ------------ --<br>------ -- ---- -- --- ---- -- -------- -- --- ------ ------,255591.10000002384,255589.5,255312.692,255327.89999997616,255329.35,255596.754,,13,his
screen,html.Screen,2_3_1_0_1_14,2022-04-27T20:43:29.305Z,,,,,,,,,,,,,,,,,12,,,,,,,,,,,,,,199.14599997617188,,response,,,,5,C,,,,,,Space,keypress(Space),,,,instrumental,,,,---- ------ ------ ------- ------ --- ------- -----------<br>-- ----- --- ---- -- --- favour ---- - ---- -- ----------<br>-- ------ ---- --- ---- --- --- --- ----- -- -------- ---<br>------ ------- -------- --- ---- -- ------- ------------ --<br>------ -- ---- -- --- ---- -- -------- -- --- ------ ------,255797.29999995232,255795.89999997616,255580.096,255591.39999997616,255596.754,255814.083,,14,favour
screen,html.Screen,2_3_1_0_1_15,2022-04-27T20:43:29.605Z,,,,,,,,,,,,,,,,,12,,,,,,,,,,,,,,280.91699999998673,,response,,,,5,C,,,,,,Space,keypress(Space),,,,instrumental,,,,---- ------ ------ ------- ------ --- ------- -----------<br>-- ----- --- ---- -- --- ------ with - ---- -- ----------<br>-- ------ ---- --- ---- --- --- --- ----- -- -------- ---<br>------ ------- -------- --- ---- -- ------- ------------ --<br>------ -- ---- -- --- ---- -- -------- -- --- ------ ------,256097.79999995232,256095,255797.425,255797.69999992847,255814.083,256113.893,,15,with
screen,html.Screen,2_3_1_0_1_16,2022-04-27T20:43:29.894Z,,,,,,,,,,,,,,,,,12,,,,,,,,,,,,,,271.7070000238309,,response,,,,5,C,,,,,,Space,keypress(Space),,,,instrumental,,,,---- ------ ------ ------- ------ --- ------- -----------<br>-- ----- --- ---- -- --- ------ ---- a ---- -- ----------<br>-- ------ ---- --- ---- --- --- --- ----- -- -------- ---<br>------ ------- -------- --- ---- -- ------- ------------ --<br>------ -- ---- -- --- ---- -- -------- -- --- ------ ------,256387,256385.60000002384,256097.235,256098.10000002384,256113.893,256397.6,,16,a
screen,html.Screen,2_3_1_0_1_17,2022-04-27T20:43:30.184Z,,,,,,,,,,,,,,,,,12,,,,,,,,,,,,,,276.8999999999942,,response,,,,5,C,,,,,,Space,keypress(Space),,,,instrumental,,,,---- ------ ------ ------- ------ --- ------- -----------<br>-- ----- --- ---- -- --- ------ ---- - dash -- ----------<br>-- ------ ---- --- ---- --- --- --- ----- -- -------- ---<br>------ ------- -------- --- ---- -- ------- ------------ --<br>------ -- ---- -- --- ---- -- -------- -- --- ------ ------,256676.10000002384,256674.5,256380.942,256387.29999995232,256397.6,256682.266,,17,dash
screen,html.Screen,2_3_1_0_1_18,2022-04-27T20:43:30.556Z,,,,,,,,,,,,,,,,,12,,,,,,,,,,,,,,363.6339999761549,,response,,,,5,C,,,,,,Space,keypress(Space),,,,instrumental,,,,---- ------ ------ ------- ------ --- ------- -----------<br>-- ----- --- ---- -- --- ------ ---- - ---- of ----------<br>-- ------ ---- --- ---- --- --- --- ----- -- -------- ---<br>------ ------- -------- --- ---- -- ------- ------------ --<br>------ -- ---- -- --- ---- -- -------- -- --- ------ ------,257048.10000002384,257045.89999997616,256665.608,256676.39999997616,256682.266,257049.478,,18,of
screen,html.Screen,2_3_1_0_1_19,2022-04-27T20:43:31.114Z,,,,,,,,,,,,,,,,,12,,,,,,,,,,,,,,555.2219999284716,,response,,,,5,C,,,,,,Space,keypress(Space),,,,instrumental,,,,---- ------ ------ ------- ------ --- ------- -----------<br>-- ----- --- ---- -- --- ------ ---- - ---- -- ingenuity.<br>-- ------ ---- --- ---- --- --- --- ----- -- -------- ---<br>------ ------- -------- --- ---- -- ------- ------------ --<br>------ -- ---- -- --- ---- -- -------- -- --- ------ ------,257606.89999997616,257604.69999992847,257032.82,257048.39999997616,257049.478,257615.93,,19,ingenuity.
screen,html.Screen,2_3_1_0_1_20,2022-04-27T20:43:31.627Z,,,,,,,,,,,,,,,,,12,,,,,,,,,,,,,,500.86999995232327,,response,,,,5,C,,,,,,Space,keypress(Space),,,,instrumental,,,,---- ------ ------ ------- ------ --- ------- -----------<br>-- ----- --- ---- -- --- ------ ---- - ---- -- ----------<br>He ------ ---- --- ---- --- --- --- ----- -- -------- ---<br>------ ------- -------- --- ---- -- ------- ------------ --<br>------ -- ---- -- --- ---- -- -------- -- --- ------ ------,258119.10000002384,258116.79999995232,257599.272,257607.39999997616,257615.93,258133.283,,20,He
screen,html.Screen,2_3_1_0_1_21,2022-04-27T20:43:32.121Z,,,,,,,,,,,,,,,,,12,,,,,,,,,,,,,,478.61699997616233,,response,,,,5,C,,,,,,Space,keypress(Space),,,,instrumental,,,,---- ------ ------ ------- ------ --- ------- -----------<br>-- ----- --- ---- -- --- ------ ---- - ---- -- ----------<br>-- walked ---- --- ---- --- --- --- ----- -- -------- ---<br>------ ------- -------- --- ---- -- ------- ------------ --<br>------ -- ---- -- --- ---- -- -------- -- --- ------ ------,258613.5,258611.89999997616,258116.625,258119.5,258133.283,258617.799,,21,walked
screen,html.Screen,2_3_1_0_1_22,2022-04-27T20:43:32.676Z,,,,,,,,,,,,,,,,,12,,,,,,,,,,,,,,546.6009999761591,,response,,,,5,C,,,,,,Space,keypress(Space),,,,instrumental,,,,---- ------ ------ ------- ------ --- ------- -----------<br>-- ----- --- ---- -- --- ------ ---- - ---- -- ----------<br>-- ------ into --- ---- --- --- --- ----- -- -------- ---<br>------ ------- -------- --- ---- -- ------- ------------ --<br>------ -- ---- -- --- ---- -- -------- -- --- ------ ------,259168,259164.39999997616,258601.141,258613.89999997616,258617.799,259185.366,,22,into
screen,html.Screen,2_3_1_0_1_23,2022-04-27T20:43:32.974Z,,,,,,,,,,,,,,,,,12,,,,,,,,,,,,,,279.03399997614906,,response,,,,5,C,,,,,,Space,keypress(Space),,,,instrumental,,,,---- ------ ------ ------- ------ --- ------- -----------<br>-- ----- --- ---- -- --- ------ ---- - ---- -- ----------<br>-- ------ ---- his ---- --- --- --- ----- -- -------- ---<br>------ ------- -------- --- ---- -- ------- ------------ --<br>------ -- ---- -- --- ---- -- -------- -- --- ------ ------,259466.39999997616,259464.39999997616,259168.708,259168.60000002384,259185.366,259469.803,,23,his
screen,html.Screen,2_3_1_0_1_24,2022-04-27T20:43:33.176Z,,,,,,,,,,,,,,,,,12,,,,,,,,,,,,,,197.49699995230185,,response,,,,5,C,,,,,,Space,keypress(Space),,,,instrumental,,,,---- ------ ------ ------- ------ --- ------- -----------<br>-- ----- --- ---- -- --- ------ ---- - ---- -- ----------<br>-- ------ ---- --- bank --- --- --- ----- -- -------- ---<br>------ ------- -------- --- ---- -- ------- ------------ --<br>------ -- ---- -- --- ---- -- -------- -- --- ------ ------,259668.79999995232,259667.29999995232,259453.145,259466.79999995232,259469.803,259671.094,,24,bank
screen,html.Screen,2_3_1_0_1_25,2022-04-27T20:43:33.444Z,,,,,,,,,,,,,,,,,12,,,,,,,,,,,,,,262.7059999523044,,response,,,,5,C,,,,,,Space,keypress(Space),,,,instrumental,,,,---- ------ ------ ------- ------ --- ------- -----------<br>-- ----- --- ---- -- --- ------ ---- - ---- -- ----------<br>-- ------ ---- --- ---- one --- --- ----- -- -------- ---<br>------ ------- -------- --- ---- -- ------- ------------ --<br>------ -- ---- -- --- ---- -- -------- -- --- ------ ------,259936.10000002384,259933.79999995232,259654.436,259669.19999992847,259671.094,259938.883,,25,one
screen,html.Screen,2_3_1_0_1_26,2022-04-27T20:43:33.866Z,,,,,,,,,,,,,,,,,12,,,,,,,,,,,,,,417.41699995231465,,response,,,,5,C,,,,,,Space,keypress(Space),,,,instrumental,,,,---- ------ ------ ------- ------ --- ------- -----------<br>-- ----- --- ---- -- --- ------ ---- - ---- -- ----------<br>-- ------ ---- --- ---- --- day --- ----- -- -------- ---<br>------ ------- -------- --- ---- -- ------- ------------ --<br>------ -- ---- -- --- ---- -- -------- -- --- ------ ------,260358.69999992847,260356.29999995232,259922.225,259936.60000002384,259938.883,260372.707,,26,day
screen,html.Screen,2_3_1_0_1_27,2022-04-27T20:43:34.075Z,,,,,,,,,,,,,,,,,12,,,,,,,,,,,,,,193.49299992847955,,response,,,,5,C,,,,,,Space,keypress(Space),,,,instrumental,,,,---- ------ ------ ------- ------ --- ------- -----------<br>-- ----- --- ---- -- --- ------ ---- - ---- -- ----------<br>-- ------ ---- --- ---- --- --- and ----- -- -------- ---<br>------ ------- -------- --- ---- -- ------- ------------ --<br>------ -- ---- -- --- ---- -- -------- -- --- ------ ------,260567.89999997616,260566.19999992847,260356.049,260359.10000002384,260372.707,260572.62,,27,and
screen,html.Screen,2_3_1_0_1_28,2022-04-27T20:43:34.281Z,,,,,,,,,,,,,,,,,12,,,,,,,,,,,,,,199.57999992847908,,response,,,,5,C,,,,,,Space,keypress(Space),,,,instrumental,,,,---- ------ ------ ------- ------ --- ------- -----------<br>-- ----- --- ---- -- --- ------ ---- - ---- -- ----------<br>-- ------ ---- --- ---- --- --- --- asked -- -------- ---<br>------ ------- -------- --- ---- -- ------- ------------ --<br>------ -- ---- -- --- ---- -- -------- -- --- ------ ------,260773.69999992847,260772.19999992847,260555.962,260568.5,260572.62,260790.702,,28,asked
screen,html.Screen,2_3_1_0_1_29,2022-04-27T20:43:34.541Z,,,,,,,,,,,,,,,,,12,,,,,,,,,,,,,,240.19799997616792,,response,,,,5,C,,,,,,Space,keypress(Space),,,,instrumental,,,,---- ------ ------ ------- ------ --- ------- -----------<br>-- ----- --- ---- -- --- ------ ---- - ---- -- ----------<br>-- ------ ---- --- ---- --- --- --- ----- to -------- ---<br>------ ------- -------- --- ---- -- ------- ------------ --<br>------ -- ---- -- --- ---- -- -------- -- --- ------ ------,261033.29999995232,261030.89999997616,260774.044,260774,260790.702,261041.146,,29,to
screen,html.Screen,2_3_1_0_1_30,2022-04-27T20:43:34.959Z,,,,,,,,,,,,,,,,,12,,,,,,,,,,,,,,408.2539999761502,,response,,,,5,C,,,,,,Space,keypress(Space),,,,instrumental,,,,---- ------ ------ ------- ------ --- ------- -----------<br>-- ----- --- ---- -- --- ------ ---- - ---- -- ----------<br>-- ------ ---- --- ---- --- --- --- ----- -- withdraw ---<br>------ ------- -------- --- ---- -- ------- ------------ --<br>------ -- ---- -- --- ---- -- -------- -- --- ------ ------,261451.89999997616,261449.39999997616,261024.488,261033.69999992847,261041.146,261457.566,,30,withdraw
screen,html.Screen,2_3_1_0_1_31,2022-04-27T20:43:35.402Z,,,,,,,,,,,,,,,,,12,,,,,,,,,,,,,,435.03400002385024,,response,,,,5,C,,,,,,Space,keypress(Space),,,,instrumental,,,,---- ------ ------ ------- ------ --- ------- -----------<br>-- ----- --- ---- -- --- ------ ---- - ---- -- ----------<br>-- ------ ---- --- ---- --- --- --- ----- -- -------- his<br>------ ------- -------- --- ---- -- ------- ------------ --<br>------ -- ---- -- --- ---- -- -------- -- --- ------ ------,261894.89999997616,261892.60000002384,261440.908,261452.29999995232,261457.566,261909.089,,31,his
screen,html.Screen,2_3_1_0_1_32,2022-04-27T20:43:35.840Z,,,,,,,,,,,,,,,,,12,,,,,,,,,,,,,,421.51100002383464,,response,,,,5,C,,,,,,Space,keypress(Space),,,,instrumental,,,,---- ------ ------ ------- ------ --- ------- -----------<br>-- ----- --- ---- -- --- ------ ---- - ---- -- ----------<br>-- ------ ---- --- ---- --- --- --- ----- -- -------- ---<br>entire ------- -------- --- ---- -- ------- ------------ --<br>------ -- ---- -- --- ---- -- -------- -- --- ------ ------,262332.39999997616,262330.60000002384,261892.431,261895.29999995232,261909.089,262342.224,,32,entire
screen,html.Screen,2_3_1_0_1_33,2022-04-27T20:43:36.193Z,,,,,,,,,,,,,,,,,12,,,,,,,,,,,,,,340.6759999761707,,response,,,,5,C,,,,,,Space,keypress(Space),,,,instrumental,,,,---- ------ ------ ------- ------ --- ------- -----------<br>-- ----- --- ---- -- --- ------ ---- - ---- -- ----------<br>-- ------ ---- --- ---- --- --- --- ----- -- -------- ---<br>------ account -------- --- ---- -- ------- ------------ --<br>------ -- ---- -- --- ---- -- -------- -- --- ------ ------,262685.1999999285,262682.89999997616,262325.566,262332.7999999523,262342.224,262693.217,,33,account
screen,html.Screen,2_3_1_0_1_34,2022-04-27T20:43:36.629Z,,,,,,,,,,,,,,,,,12,,,,,,,,,,,,,,425.7829999999958,,response,,,,5,C,,,,,,Space,keypress(Space),,,,instrumental,,,,"---- ------ ------ ------- ------ --- ------- -----------<br>-- ----- --- ---- -- --- ------ ---- - ---- -- ----------<br>-- ------ ---- --- ---- --- --- --- ----- -- -------- ---<br>------ ------- balance, --- ---- -- ------- ------------ --<br>------ -- ---- -- --- ---- -- -------- -- --- ------ ------",263121.6999999285,263119,262676.559,262685.5,262693.217,263128.207,,34,"balance,"
screen,html.Screen,2_3_1_0_1_35,2022-04-27T20:43:37.220Z,,,,,,,,,,,,,,,,,12,,,,,,,,,,,,,,581.893000023847,,response,,,,5,C,,,,,,Space,keypress(Space),,,,instrumental,,,,---- ------ ------ ------- ------ --- ------- -----------<br>-- ----- --- ---- -- --- ------ ---- - ---- -- ----------<br>-- ------ ---- --- ---- --- --- --- ----- -- -------- ---<br>------ ------- -------- but ---- -- ------- ------------ --<br>------ -- ---- -- --- ---- -- -------- -- --- ------ ------,263712.89999997616,263710.10000002384,263111.549,263122.10000002384,263128.207,263727.979,,35,but
screen,html.Screen,2_3_1_0_1_36,2022-04-27T20:43:37.646Z,,,,,,,,,,,,,,,,,12,,,,,,,,,,,,,,408.1210000238498,,response,,,,5,C,,,,,,Space,keypress(Space),,,,instrumental,,,,---- ------ ------ ------- ------ --- ------- -----------<br>-- ----- --- ---- -- --- ------ ---- - ---- -- ----------<br>-- ------ ---- --- ---- --- --- --- ----- -- -------- ---<br>------ ------- -------- --- with -- ------- ------------ --<br>------ -- ---- -- --- ---- -- -------- -- --- ------ ------,264138.39999997616,264136.10000002384,263711.321,263713.2999999523,263727.979,264145.526,,36,with
screen,html.Screen,2_3_1_0_1_37,2022-04-27T20:43:37.958Z,,,,,,,,,,,,,,,,,12,,,,,,,,,,,,,,303.17399992846185,,response,,,,5,C,,,,,,Space,keypress(Space),,,,instrumental,,,,---- ------ ------ ------- ------ --- ------- -----------<br>-- ----- --- ---- -- --- ------ ---- - ---- -- ----------<br>-- ------ ---- --- ---- --- --- --- ----- -- -------- ---<br>------ ------- -------- --- ---- an ------- ------------ --<br>------ -- ---- -- --- ---- -- -------- -- --- ------ ------,264450.2999999523,264448.6999999285,264128.868,264138.6999999285,264145.526,264464.513,,37,an
screen,html.Screen,2_3_1_0_1_38,2022-04-27T20:43:38.400Z,,,,,,,,,,,,,,,,,12,,,,,,,,,,,,,,424.68699992849724,,response,,,,5,C,,,,,,Space,keypress(Space),,,,instrumental,,,,---- ------ ------ ------- ------ --- ------- -----------<br>-- ----- --- ---- -- --- ------ ---- - ---- -- ----------<br>-- ------ ---- --- ---- --- --- --- ----- -- -------- ---<br>------ ------- -------- --- ---- -- unusual ------------ --<br>------ -- ---- -- --- ---- -- -------- -- --- ------ ------,264892,264889.1999999285,264447.855,264450.60000002384,264464.513,264897.752,,38,unusual
screen,html.Screen,2_3_1_0_1_39,2022-04-27T20:43:38.823Z,,,,,,,,,,,,,,,,,12,,,,,,,,,,,,,,415.2480000000214,,response,,,,5,C,,,,,,Space,keypress(Space),,,,instrumental,,,,---- ------ ------ ------- ------ --- ------- -----------<br>-- ----- --- ---- -- --- ------ ---- - ---- -- ----------<br>-- ------ ---- --- ---- --- --- --- ----- -- -------- ---<br>------ ------- -------- --- ---- -- ------- stipulation: --<br>------ -- ---- -- --- ---- -- -------- -- --- ------ ------,265315.6999999285,265313,264881.094,264892.5,264897.752,265331.591,,39,stipulation:
screen,html.Screen,2_3_1_0_1_40,2022-04-27T20:43:39.306Z,,,,,,,,,,,,,,,,,12,,,,,,,,,,,,,,464.30899997614324,,response,,,,5,C,,,,,,Space,keypress(Space),,,,instrumental,,,,---- ------ ------ ------- ------ --- ------- -----------<br>-- ----- --- ---- -- --- ------ ---- - ---- -- ----------<br>-- ------ ---- --- ---- --- --- --- ----- -- -------- ---<br>------ ------- -------- --- ---- -- ------- ------------ He<br>------ -- ---- -- --- ---- -- -------- -- --- ------ ------,265798.7999999523,265795.89999997616,265314.933,265316,265331.591,265816.847,,40,He
screen,html.Screen,2_3_1_0_1_41,2022-04-27T20:43:39.693Z,,,,,,,,,,,,,,,,,12,,,,,,,,,,,,,,366.5529999761493,,response,,,,5,C,,,,,,Space,keypress(Space),,,,instrumental,,,,---- ------ ------ ------- ------ --- ------- -----------<br>-- ----- --- ---- -- --- ------ ---- - ---- -- ----------<br>-- ------ ---- --- ---- --- --- --- ----- -- -------- ---<br>------ ------- -------- --- ---- -- ------- ------------ --<br>wanted -- ---- -- --- ---- -- -------- -- --- ------ ------,266185.7999999523,266183.39999997616,265800.189,265799.1999999285,265816.847,266201.224,,41,wanted
screen,html.Screen,2_3_1_0_1_42,2022-04-27T20:43:39.910Z,,,,,,,,,,,,,,,,,12,,,,,,,,,,,,,,199.17599997617071,,response,,,,5,C,,,,,,Space,keypress(Space),,,,instrumental,,,,---- ------ ------ ------- ------ --- ------- -----------<br>-- ----- --- ---- -- --- ------ ---- - ---- -- ----------<br>-- ------ ---- --- ---- --- --- --- ----- -- -------- ---<br>------ ------- -------- --- ---- -- ------- ------------ --<br>------ as ---- -- --- ---- -- -------- -- --- ------ ------,266402.10000002384,266400.39999997616,266184.566,266186.1999999285,266201.224,266417.729,,42,as
