sender,sender_type,sender_id,timestamp,meta,,Blues,Classical,Country,Dance,Electronic,Folk,Gospel,Hip-Hop,Jazz,Latin,Musical/Film,New-age,Pop,Prolific_id,Provo_ID,R&B,Rap,Reggae,Religious,Rock,Soul,Swing,Traditional,age,artist_name,correct,correctResponse,distraction,duration,education,ended_on,familiarity,gender,headphone_check_performance,item,list,music_frequency,offensiveness,pleasantness,position_correct,preference,response,response_action,snippet_file,song_name,song_rating,sound,stimulus_1,stimulus_2,stimulus_3,text,time_commit,time_end,time_render,time_run,time_show,time_switch,url,word,word_ID
Prolific ID,html.Form,0,2022-05-03T11:55:09.530Z,"{""labjs_version"":""20.2.2"",""labjs_build"":{""flavor"":""production"",""commit"":""a25486e0c714a0ae2ce03ff94b7bb6896854dcfa""},""location"":""https://run.pavlovia.org/mvasilev/prolific3_music_h/"",""userAgent"":""Mozilla/5.0 (Windows NT 10.0; Win64; x64) AppleWebKit/537.36 (KHTML, like Gecko) Chrome/100.0.4896.127 Safari/537.36"",""platform"":""Win32"",""language"":""en-GB"",""locale"":""en-GB"",""timeZone"":""Europe/London"",""timezoneOffset"":-60,""screen_width"":1920,""screen_height"":1080,""scroll_width"":1920,""scroll_height"":889,""window_innerWidth"":1920,""window_innerHeight"":937,""devicePixelRatio"":1}",,,,,,,,,,,,,,,5929e024943e670001cde06b,,,,,,,,,,,,,,,5688.501999999255,,form submission,,,,,,,,,,,,,,,,,,,,,29103.400000000373,29103.199999999255,23396.994,23398.900000000373,23414.698,29148.262,{},,
Introduction,html.Screen,1_0,2022-05-03T11:55:15.728Z,,,,,,,,,,,,,,,,,,,,,,,,,,,,,,,6152.937999999256,,response,,,,,,,,,,,continue,click button,,,,,,,,,35301.79999999888,35301.199999999255,29098.347,29103.599999999627,29148.262,35315.118,,,
Volume calibration,html.Screen,1_1,2022-05-03T11:55:36.992Z,,,,,,,,,,,,,,,,,,,,,,,,,,,,,,,21249.881999999998,,response,,,,,,,,,,,continue,click button,,,,,,,,,56565.59999999963,56565,35298.469,35301.90000000037,35315.118,56593.861,,,
Task instructions,html.Screen,1_2,2022-05-03T11:55:48.104Z,,,,,,,,,,,,,,,,,,,,,,,,,,,,,,,11083.139000000003,,response,,,,,,,,,,,continue,click button,,,,,,,,,67677.5,67677,56549.038,56565.79999999888,56593.861,67682.788,,,
Sounds,html.Screen,1_3_0_0,2022-05-03T11:55:52.347Z,,,,,,,,,,,,,,,,,,,,,,,,,,,,,,,4250.112999999998,,timeout,,,,,,,,,2,,,,,,,,O,S,I,,71921,71916.304,67666.171,67677.69999999925,67682.788,71932.901,,,
Judgement,html.Screen,1_3_0_1,2022-05-03T11:55:54.064Z,,,,,,,,,,,,,,,,,,,,,,,,,,,,true,2,,1704.1989999996295,,response,,,,,,,,,2,,2,click #choice-2,,,,,O,S,I,,73637.90000000037,73637.09999999963,71916.304,71921.29999999888,71932.901,73649.668,,,
Trial,flow.Sequence,1_3_0,2022-05-03T11:55:54.064Z,,,,,,,,,,,,,,,,,,,,,,,,,,,,,,,5954.311999999627,,completion,,,,,,,,,2,,,,,,,,O,S,I,,73638,73637.09999999963,67666.171,67677.69999999925,67682.788,73649.668,,,
Sounds,html.Screen,1_3_1_0,2022-05-03T11:55:58.310Z,,,,,,,,,,,,,,,,,,,,,,,,,,,,,,,4250.127999999997,,timeout,,,,,,,,,2,,,,,,,,I,S,O,,77884.09999999963,77883.154,73633.026,73638,73649.668,77899.796,,,
Judgement,html.Screen,1_3_1_1,2022-05-03T11:56:01.360Z,,,,,,,,,,,,,,,,,,,,,,,,,,,,true,2,,3033.5039999988803,,response,,,,,,,,,2,,2,click #choice-2,,,,,I,S,O,,80933.79999999888,80933.29999999888,77883.154,77884.40000000037,77899.796,80949.884,,,
Trial,flow.Sequence,1_3_1,2022-05-03T11:56:01.360Z,,,,,,,,,,,,,,,,,,,,,,,,,,,,,,,7283.631999998877,,completion,,,,,,,,,2,,,,,,,,I,S,O,,80934,80933.29999999888,73633.026,73638,73649.668,80949.884,,,
Sounds,html.Screen,1_3_2_0,2022-05-03T11:56:05.610Z,,,,,,,,,,,,,,,,,,,,,,,,,,,,,,,4250.137999999992,,timeout,,,,,,,,,3,,,,,,,,O,I,S,,85183.79999999888,85183.302,80933.154,80934.09999999963,80949.884,85200.022,,,
Judgement,html.Screen,1_3_2_1,2022-05-03T11:56:06.296Z,,,,,,,,,,,,,,,,,,,,,,,,,,,,true,3,,669.0779999996303,,response,,,,,,,,,3,,3,click #choice-3,,,,,O,I,S,,85869.69999999925,85869.09999999963,85183.302,85183.79999999888,85200.022,85883.367,,,
Trial,flow.Sequence,1_3_2,2022-05-03T11:56:06.296Z,,,,,,,,,,,,,,,,,,,,,,,,,,,,,,,4919.215999999622,,completion,,,,,,,,,3,,,,,,,,O,I,S,,85869.79999999888,85869.09999999963,80933.154,80934.09999999963,80949.884,85883.367,,,
Sounds,html.Screen,1_3_3_0,2022-05-03T11:56:10.544Z,,,,,,,,,,,,,,,,,,,,,,,,,,,,,,,4250.176000000007,,timeout,,,,,,,,,1,,,,,,,,S,I,O,,90117.79999999888,90116.863,85866.729,85869.90000000037,85883.367,90133.543,,,
Judgement,html.Screen,1_3_3_1,2022-05-03T11:56:11.256Z,,,,,,,,,,,,,,,,,,,,,,,,,,,,true,1,,695.5569999996223,,response,,,,,,,,,1,,1,click #choice-1,,,,,S,I,O,,90829.69999999925,90829.09999999963,90116.863,90118,90133.543,90833.52,,,
Trial,flow.Sequence,1_3_3,2022-05-03T11:56:11.256Z,,,,,,,,,,,,,,,,,,,,,,,,,,,,,,,4945.732999999629,,completion,,,,,,,,,1,,,,,,,,S,I,O,,90829.79999999888,90829.09999999963,85866.729,85869.90000000037,85883.367,90833.52,,,
Sounds,html.Screen,1_3_4_0,2022-05-03T11:56:15.494Z,,,,,,,,,,,,,,,,,,,,,,,,,,,,,,,4250.138999999996,,timeout,,,,,,,,,1,,,,,,,,S,O,I,,95067.40000000037,95066.94,90816.9,90829.90000000037,90833.52,95083.659,,,
Judgement,html.Screen,1_3_4_1,2022-05-03T11:56:16.272Z,,,,,,,,,,,,,,,,,,,,,,,,,,,,true,1,,761.4409999996278,,response,,,,,,,,,1,,1,click #choice-1,,,,,S,O,I,,95845.59999999963,95845.09999999963,95066.94,95067.40000000037,95083.659,95850.347,,,
Trial,flow.Sequence,1_3_4,2022-05-03T11:56:16.272Z,,,,,,,,,,,,,,,,,,,,,,,,,,,,,,,5011.579999999623,,completion,,,,,,,,,1,,,,,,,,S,O,I,,95845.69999999925,95845.09999999963,90816.9,90829.90000000037,90833.52,95850.347,,,
Sounds,html.Screen,1_3_5_0,2022-05-03T11:56:20.511Z,,,,,,,,,,,,,,,,,,,,,,,,,,,,,,,4250.17300000001,,timeout,,,,,,,,,3,,,,,,,,I,O,S,,100084.69999999925,100083.849,95833.705,95845.79999999888,95850.347,100100.52,,,
Judgement,html.Screen,1_3_5_1,2022-05-03T11:56:21.992Z,,,,,,,,,,,,,,,,,,,,,,,,,,,,true,3,,1464.6799999992509,,response,,,,,,,,,3,,3,click #choice-3,,,,,I,O,S,,101565.79999999888,101565.19999999925,100083.849,100084.90000000037,100100.52,101567.15,,,
Trial,flow.Sequence,1_3_5,2022-05-03T11:56:21.992Z,,,,,,,,,,,,,,,,,,,,,,,,,,,,,,,5714.852999999261,,completion,,,,,,,,,3,,,,,,,,I,O,S,,101565.90000000037,101565.19999999925,95833.705,95845.79999999888,95850.347,101567.15,,,
Task,flow.Loop,1_3,2022-05-03T11:56:21.996Z,,,,,,,,,,,,,,,,,,,,,,,,,,,,,,,33882.411999999254,,completion,,,1,,,,,,,,,,,,,,,,,,101569.79999999888,101565.19999999925,67666.171,67677.59999999963,67682.788,101567.15,,,
Trap,html.Screen,1_4,2022-05-03T11:56:21.997Z,,,,,,,,,,,,,,,,,,,,,,,,,,,,,,,NaN,,skipped,,,,,,,,,,,,,,,,,,,,,101570.69999999925,101565.19999999925,,101570.59999999963,,101567.15,,,
Thanks,html.Screen,1_5,2022-05-03T11:56:35.536Z,,,,,,,,,,,,,,,,,,,,,,,,,,,,,,,13541.850000000006,,response,,,,,,,,,,,continue,click button,,,,,,,,,115109.5,115109,101550.546,101570.69999999925,101567.15,119601.045,,,
Headphone screening,flow.Sequence,1,2022-05-03T11:56:35.536Z,,,,,,,,,,,,,,,,,,,,,,,,,,,,,,,85960.738,,completion,,,,,,,,,,,,,,,,,,,,,115109.59999999963,115109,29098.347,29103.599999999627,29148.262,119601.045,,,
Instructions,html.Page,2_0,2022-05-03T11:57:02.440Z,,,,,,,,,,,,,,,,,,,,,,,,,,,,,,,22412.455,,form submission,,,,,,,,,,,,,,,,,,,,,142013.59999999963,142013.5,119584.367,119596.29999999888,119601.045,142018.392,,,
Holding screen,html.Screen,2_1_0_0,2022-05-03T11:57:12.429Z,,,,,,,,,,,,,,,,,,,,,,,,,,,,,,,10050.341000000015,,timeout,,,,,,,,,,,,,,,,,,,,,152003.09999999963,152002.117,142001.749,142013.79999999888,142018.392,152068.733,,,
screen,html.Screen,2_1_0_1_0,2022-05-03T11:57:13.277Z,,,,,,,,,,,,,,,,,53,,,,,,,,,,,,,,777.86699999962,,response,,,,99,,,,,,,Space,keypress(Space),,,,,,,,When -- ----- -- ------ - ------- --- ----------<br>------------- ------ ------ ---- ---- ------- ----- -- ----<br>-------- ------- -- ---------- --- - --- ----- ----- ----<br>---- --- --- ----- --- ---- ---- ------- ----- ---- -------<br>--- --- -- ----- -- --- ---- -- --- ---- -- ------ ------<br>--- ----- -- ----,152850.69999999925,152846.59999999963,152002.117,152003.40000000037,152068.733,152873.311,,0,When
screen,html.Screen,2_1_0_1_1,2022-05-03T11:57:13.729Z,,,,,,,,,,,,,,,,,53,,,,,,,,,,,,,,428.68900000001304,,response,,,,99,,,,,,,Space,keypress(Space),,,,,,,,---- it ----- -- ------ - ------- --- ----------<br>------------- ------ ------ ---- ---- ------- ----- -- ----<br>-------- ------- -- ---------- --- - --- ----- ----- ----<br>---- --- --- ----- --- ---- ---- ------- ----- ---- -------<br>--- --- -- ----- -- --- ---- -- --- ---- -- ------ ------<br>--- ----- -- ----,153302.90000000037,153302,152835.321,152850.69999999925,152873.311,153318.855,,1,it
screen,html.Screen,2_1_0_1_2,2022-05-03T11:57:14.304Z,,,,,,,,,,,,,,,,,53,,,,,,,,,,,,,,558.244999999617,,response,,,,99,,,,,,,Space,keypress(Space),,,,,,,,---- -- comes -- ------ - ------- --- ----------<br>------------- ------ ------ ---- ---- ------- ----- -- ----<br>-------- ------- -- ---------- --- - --- ----- ----- ----<br>---- --- --- ----- --- ---- ---- ------- ----- ---- -------<br>--- --- -- ----- -- --- ---- -- --- ---- -- ------ ------<br>--- ----- -- ----,153877.59999999963,153877.09999999963,153302.087,153303.09999999963,153318.855,153885.492,,2,comes
screen,html.Screen,2_1_0_1_3,2022-05-03T11:57:14.745Z,,,,,,,,,,,,,,,,,53,,,,,,,,,,,,,,432.40800000037416,,response,,,,99,,,,,,,Space,keypress(Space),,,,,,,,---- -- ----- to ------ - ------- --- ----------<br>------------- ------ ------ ---- ---- ------- ----- -- ----<br>-------- ------- -- ---------- --- - --- ----- ----- ----<br>---- --- --- ----- --- ---- ---- ------- ----- ---- -------<br>--- --- -- ----- -- --- ---- -- --- ---- -- ------ ------<br>--- ----- -- ----,154318.69999999925,154317.90000000037,153868.801,153878.19999999925,153885.492,154335.559,,3,to
screen,html.Screen,2_1_0_1_4,2022-05-03T11:57:15.176Z,,,,,,,,,,,,,,,,,53,,,,,,,,,,,,,,413.5409999996191,,response,,,,99,,,,,,,Space,keypress(Space),,,,,,,,---- -- ----- -- having - ------- --- ----------<br>------------- ------ ------ ---- ---- ------- ----- -- ----<br>-------- ------- -- ---------- --- - --- ----- ----- ----<br>---- --- --- ----- --- ---- ---- ------- ----- ---- -------<br>--- --- -- ----- -- --- ---- -- --- ---- -- ------ ------<br>--- ----- -- ----,154749.5,154749.09999999963,154318.824,154319,154335.559,154752.123,,4,having
screen,html.Screen,2_1_0_1_5,2022-05-03T11:57:15.576Z,,,,,,,,,,,,,,,,,53,,,,,,,,,,,,,,396.8770000000077,,response,,,,99,,,,,,,Space,keypress(Space),,,,,,,,---- -- ----- -- ------ a ------- --- ----------<br>------------- ------ ------ ---- ---- ------- ----- -- ----<br>-------- ------- -- ---------- --- - --- ----- ----- ----<br>---- --- --- ----- --- ---- ---- ------- ----- ---- -------<br>--- --- -- ----- -- --- ---- -- --- ---- -- ------ ------<br>--- ----- -- ----,155149.5,155149,154735.417,154749.59999999963,154752.123,155152.147,,5,a
screen,html.Screen,2_1_0_1_6,2022-05-03T11:57:16.056Z,,,,,,,,,,,,,,,,,53,,,,,,,,,,,,,,477.1529999988852,,response,,,,99,,,,,,,Space,keypress(Space),,,,,,,,---- -- ----- -- ------ - lasting --- ----------<br>------------- ------ ------ ---- ---- ------- ----- -- ----<br>-------- ------- -- ---------- --- - --- ----- ----- ----<br>---- --- --- ----- --- ---- ---- ------- ----- ---- -------<br>--- --- -- ----- -- --- ---- -- --- ---- -- ------ ------<br>--- ----- -- ----,155629.69999999925,155629.29999999888,155135.477,155149.59999999963,155152.147,155635.517,,6,lasting
screen,html.Screen,2_1_0_1_7,2022-05-03T11:57:16.408Z,,,,,,,,,,,,,,,,,53,,,,,,,,,,,,,,345.48300000000745,,response,,,,99,,,,,,,Space,keypress(Space),,,,,,,,---- -- ----- -- ------ - ------- and ----------<br>------------- ------ ------ ---- ---- ------- ----- -- ----<br>-------- ------- -- ---------- --- - --- ----- ----- ----<br>---- --- --- ----- --- ---- ---- ------- ----- ---- -------<br>--- --- -- ----- -- --- ---- -- --- ---- -- ------ ------<br>--- ----- -- ----,155981.5,155981,155618.785,155629.79999999888,155635.517,155985.468,,7,and
screen,html.Screen,2_1_0_1_8,2022-05-03T11:57:16.865Z,,,,,,,,,,,,,,,,,53,,,,,,,,,,,,,,452.5320000000065,,response,,,,99,,,,,,,Space,keypress(Space),,,,,,,,---- -- ----- -- ------ - ------- --- fulfilling<br>------------- ------ ------ ---- ---- ------- ----- -- ----<br>-------- ------- -- ---------- --- - --- ----- ----- ----<br>---- --- --- ----- --- ---- ---- ------- ----- ---- -------<br>--- --- -- ----- -- --- ---- -- --- ---- -- ------ ------<br>--- ----- -- ----,156438.79999999888,156438,155968.88,155981.59999999963,155985.468,156452.262,,8,fulfilling
screen,html.Screen,2_1_0_1_9,2022-05-03T11:57:17.337Z,,,,,,,,,,,,,,,,,53,,,,,,,,,,,,,,458.0379999988945,,response,,,,99,,,,,,,Space,keypress(Space),,,,,,,,"---- -- ----- -- ------ - ------- --- ----------<br>relationship, ------ ------ ---- ---- ------- ----- -- ----<br>-------- ------- -- ---------- --- - --- ----- ----- ----<br>---- --- --- ----- --- ---- ---- ------- ----- ---- -------<br>--- --- -- ----- -- --- ---- -- --- ---- -- ------ ------<br>--- ----- -- ----",156911.19999999925,156910.29999999888,156435.885,156439.09999999963,156452.262,156918.977,,9,"relationship,"
screen,html.Screen,2_1_0_1_10,2022-05-03T11:57:17.849Z,,,,,,,,,,,,,,,,,53,,,,,,,,,,,,,,502.923000000359,,response,,,,99,,,,,,,Space,keypress(Space),,,,,,,,---- -- ----- -- ------ - ------- --- ----------<br>------------- common ------ ---- ---- ------- ----- -- ----<br>-------- ------- -- ---------- --- - --- ----- ----- ----<br>---- --- --- ----- --- ---- ---- ------- ----- ---- -------<br>--- --- -- ----- -- --- ---- -- --- ---- -- ------ ------<br>--- ----- -- ----,157422.79999999888,157421.90000000037,156902.228,156911.5,156918.977,157435.558,,10,common
screen,html.Screen,2_1_0_1_11,2022-05-03T11:57:18.369Z,,,,,,,,,,,,,,,,,53,,,,,,,,,,,,,,506.64199999926495,,response,,,,99,,,,,,,Space,keypress(Space),,,,,,,,---- -- ----- -- ------ - ------- --- ----------<br>------------- ------ wisdom ---- ---- ------- ----- -- ----<br>-------- ------- -- ---------- --- - --- ----- ----- ----<br>---- --- --- ----- --- ---- ---- ------- ----- ---- -------<br>--- --- -- ----- -- --- ---- -- --- ---- -- ------ ------<br>--- ----- -- ----,157943,157942.19999999925,157418.939,157423,157435.558,157952.317,,11,wisdom
screen,html.Screen,2_1_0_1_12,2022-05-03T11:57:18.816Z,,,,,,,,,,,,,,,,,53,,,,,,,,,,,,,,436.9829999988724,,response,,,,99,,,,,,,Space,keypress(Space),,,,,,,,---- -- ----- -- ------ - ------- --- ----------<br>------------- ------ ------ says ---- ------- ----- -- ----<br>-------- ------- -- ---------- --- - --- ----- ----- ----<br>---- --- --- ----- --- ---- ---- ------- ----- ---- -------<br>--- --- -- ----- -- --- ---- -- --- ---- -- ------ ------<br>--- ----- -- ----,158389.59999999963,158389.29999999888,157935.536,157943.19999999925,157952.317,158402.275,,12,says
screen,html.Screen,2_1_0_1_13,2022-05-03T11:57:19.289Z,,,,,,,,,,,,,,,,,53,,,,,,,,,,,,,,459.7250000000058,,response,,,,99,,,,,,,Space,keypress(Space),,,,,,,,---- -- ----- -- ------ - ------- --- ----------<br>------------- ------ ------ ---- that ------- ----- -- ----<br>-------- ------- -- ---------- --- - --- ----- ----- ----<br>---- --- --- ----- --- ---- ---- ------- ----- ---- -------<br>--- --- -- ----- -- --- ---- -- --- ---- -- ------ ------<br>--- ----- -- ----,158862.79999999888,158862,158385.617,158389.69999999925,158402.275,158869.013,,13,that
screen,html.Screen,2_1_0_1_14,2022-05-03T11:57:19.833Z,,,,,,,,,,,,,,,,,53,,,,,,,,,,,,,,537.0869999996212,,response,,,,99,,,,,,,Space,keypress(Space),,,,,,,,---- -- ----- -- ------ - ------- --- ----------<br>------------- ------ ------ ---- ---- feeling ----- -- ----<br>-------- ------- -- ---------- --- - --- ----- ----- ----<br>---- --- --- ----- --- ---- ---- ------- ----- ---- -------<br>--- --- -- ----- -- --- ---- -- --- ---- -- ------ ------<br>--- ----- -- ----,159407.29999999888,159406.09999999963,158852.232,158863.09999999963,158869.013,159419.101,,14,feeling
screen,html.Screen,2_1_0_1_15,2022-05-03T11:57:20.273Z,,,,,,,,,,,,,,,,,53,,,,,,,,,,,,,,426.99899999963236,,response,,,,99,,,,,,,Space,keypress(Space),,,,,,,,---- -- ----- -- ------ - ------- --- ----------<br>------------- ------ ------ ---- ---- ------- close -- ----<br>-------- ------- -- ---------- --- - --- ----- ----- ----<br>---- --- --- ----- --- ---- ---- ------- ----- ---- -------<br>--- --- -- ----- -- --- ---- -- --- ---- -- ------ ------<br>--- ----- -- ----,159846.90000000037,159846.09999999963,159402.302,159407.5,159419.101,159852.492,,15,close
screen,html.Screen,2_1_0_1_16,2022-05-03T11:57:20.680Z,,,,,,,,,,,,,,,,,53,,,,,,,,,,,,,,400.6079999996291,,response,,,,99,,,,,,,Space,keypress(Space),,,,,,,,---- -- ----- -- ------ - ------- --- ----------<br>------------- ------ ------ ---- ---- ------- ----- to ----<br>-------- ------- -- ---------- --- - --- ----- ----- ----<br>---- --- --- ----- --- ---- ---- ------- ----- ---- -------<br>--- --- -- ----- -- --- ---- -- --- ---- -- ------ ------<br>--- ----- -- ----,160253.59999999963,160253.09999999963,159835.66,159847.19999999925,159852.492,160268.934,,16,to
screen,html.Screen,2_1_0_1_17,2022-05-03T11:57:21.105Z,,,,,,,,,,,,,,,,,53,,,,,,,,,,,,,,409.0659999999916,,response,,,,99,,,,,,,Space,keypress(Space),,,,,,,,---- -- ----- -- ------ - ------- --- ----------<br>------------- ------ ------ ---- ---- ------- ----- -- your<br>-------- ------- -- ---------- --- - --- ----- ----- ----<br>---- --- --- ----- --- ---- ---- ------- ----- ---- -------<br>--- --- -- ----- -- --- ---- -- --- ---- -- ------ ------<br>--- ----- -- ----,160678.79999999888,160678,160252.326,160253.69999999925,160268.934,160685.758,,17,your
screen,html.Screen,2_1_0_1_18,2022-05-03T11:57:21.529Z,,,,,,,,,,,,,,,,,53,,,,,,,,,,,,,,416.24199999999837,,response,,,,99,,,,,,,Space,keypress(Space),,,,,,,,---- -- ----- -- ------ - ------- --- ----------<br>------------- ------ ------ ---- ---- ------- ----- -- ----<br>romantic ------- -- ---------- --- - --- ----- ----- ----<br>---- --- --- ----- --- ---- ---- ------- ----- ---- -------<br>--- --- -- ----- -- --- ---- -- --- ---- -- ------ ------<br>--- ----- -- ----,161103.09999999963,161102,160668.948,160679,160685.758,161119.015,,18,romantic
screen,html.Screen,2_1_0_1_19,2022-05-03T11:57:21.905Z,,,,,,,,,,,,,,,,,53,,,,,,,,,,,,,,359.0849999996135,,response,,,,99,,,,,,,Space,keypress(Space),,,,,,,,---- -- ----- -- ------ - ------- --- ----------<br>------------- ------ ------ ---- ---- ------- ----- -- ----<br>-------- partner -- ---------- --- - --- ----- ----- ----<br>---- --- --- ----- --- ---- ---- ------- ----- ---- -------<br>--- --- -- ----- -- --- ---- -- --- ---- -- ------ ------<br>--- ----- -- ----,161479.19999999925,161478.09999999963,161102.339,161103.29999999888,161119.015,161485.747,,19,partner
screen,html.Screen,2_1_0_1_20,2022-05-03T11:57:22.272Z,,,,,,,,,,,,,,,,,53,,,,,,,,,,,,,,359.4529999992519,,response,,,,99,,,,,,,Space,keypress(Space),,,,,,,,---- -- ----- -- ------ - ------- --- ----------<br>------------- ------ ------ ---- ---- ------- ----- -- ----<br>-------- ------- is ---------- --- - --- ----- ----- ----<br>---- --- --- ----- --- ---- ---- ------- ----- ---- -------<br>--- --- -- ----- -- --- ---- -- --- ---- -- ------ ------<br>--- ----- -- ----,161845.59999999963,161845.19999999925,161469.014,161479.59999999963,161485.747,161852.404,,20,is
screen,html.Screen,2_1_0_1_21,2022-05-03T11:57:22.680Z,,,,,,,,,,,,,,,,,53,,,,,,,,,,,,,,400.7959999992454,,response,,,,99,,,,,,,Space,keypress(Space),,,,,,,,---- -- ----- -- ------ - ------- --- ----------<br>------------- ------ ------ ---- ---- ------- ----- -- ----<br>-------- ------- -- paramount. --- - --- ----- ----- ----<br>---- --- --- ----- --- ---- ---- ------- ----- ---- -------<br>--- --- -- ----- -- --- ---- -- --- ---- -- ------ ------<br>--- ----- -- ----,162253.59999999963,162253.19999999925,161835.698,161845.59999999963,161852.404,162269.08,,21,paramount.
screen,html.Screen,2_1_0_1_22,2022-05-03T11:57:23.089Z,,,,,,,,,,,,,,,,,53,,,,,,,,,,,,,,393.0199999996403,,response,,,,99,,,,,,,Space,keypress(Space),,,,,,,,---- -- ----- -- ------ - ------- --- ----------<br>------------- ------ ------ ---- ---- ------- ----- -- ----<br>-------- ------- -- ---------- But - --- ----- ----- ----<br>---- --- --- ----- --- ---- ---- ------- ----- ---- -------<br>--- --- -- ----- -- --- ---- -- --- ---- -- ------ ------<br>--- ----- -- ----,162663,162662.09999999963,162252.319,162253.59999999963,162269.08,162669.169,,22,But
screen,html.Screen,2_1_0_1_23,2022-05-03T11:57:23.562Z,,,,,,,,,,,,,,,,,53,,,,,,,,,,,,,,465.43099999963306,,response,,,,99,,,,,,,Space,keypress(Space),,,,,,,,---- -- ----- -- ------ - ------- --- ----------<br>------------- ------ ------ ---- ---- ------- ----- -- ----<br>-------- ------- -- ---------- --- a --- ----- ----- ----<br>---- --- --- ----- --- ---- ---- ------- ----- ---- -------<br>--- --- -- ----- -- --- ---- -- --- ---- -- ------ ------<br>--- ----- -- ----,163135.59999999963,163134.59999999963,162652.416,162663.19999999925,162669.169,163152.502,,23,a
screen,html.Screen,2_1_0_1_24,2022-05-03T11:57:23.944Z,,,,,,,,,,,,,,,,,53,,,,,,,,,,,,,,364.39800000036485,,response,,,,99,,,,,,,Space,keypress(Space),,,,,,,,---- -- ----- -- ------ - ------- --- ----------<br>------------- ------ ------ ---- ---- ------- ----- -- ----<br>-------- ------- -- ---------- --- - new ----- ----- ----<br>---- --- --- ----- --- ---- ---- ------- ----- ---- -------<br>--- --- -- ----- -- --- ---- -- --- ---- -- ------ ------<br>--- ----- -- ----,163517.29999999888,163516.90000000037,163135.777,163135.90000000037,163152.502,163519.059,,24,new
screen,html.Screen,2_1_0_1_25,2022-05-03T11:57:24.353Z,,,,,,,,,,,,,,,,,53,,,,,,,,,,,,,,406.9409999999916,,response,,,,99,,,,,,,Space,keypress(Space),,,,,,,,---- -- ----- -- ------ - ------- --- ----------<br>------------- ------ ------ ---- ---- ------- ----- -- ----<br>-------- ------- -- ---------- --- - --- study ----- ----<br>---- --- --- ----- --- ---- ---- ------- ----- ---- -------<br>--- --- -- ----- -- --- ---- -- --- ---- -- ------ ------<br>--- ----- -- ----,163927,163926,163502.46,163517.5,163519.059,163935.83,,25,study
screen,html.Screen,2_1_0_1_26,2022-05-03T11:57:24.752Z,,,,,,,,,,,,,,,,,53,,,,,,,,,,,,,,389.57000000038533,,response,,,,99,,,,,,,Space,keypress(Space),,,,,,,,---- -- ----- -- ------ - ------- --- ----------<br>------------- ------ ------ ---- ---- ------- ----- -- ----<br>-------- ------- -- ---------- --- - --- ----- finds ----<br>---- --- --- ----- --- ---- ---- ------- ----- ---- -------<br>--- --- -- ----- -- --- ---- -- --- ---- -- ------ ------<br>--- ----- -- ----,164325.69999999925,164325.40000000037,163919.068,163927.40000000037,163935.83,164335.805,,26,finds
screen,html.Screen,2_1_0_1_27,2022-05-03T11:57:25.113Z,,,,,,,,,,,,,,,,,53,,,,,,,,,,,,,,350.29499999963446,,response,,,,99,,,,,,,Space,keypress(Space),,,,,,,,---- -- ----- -- ------ - ------- --- ----------<br>------------- ------ ------ ---- ---- ------- ----- -- ----<br>-------- ------- -- ---------- --- - --- ----- ----- that<br>---- --- --- ----- --- ---- ---- ------- ----- ---- -------<br>--- --- -- ----- -- --- ---- -- --- ---- -- ------ ------<br>--- ----- -- ----,164686.79999999888,164686.09999999963,164319.055,164325.79999999888,164335.805,164702.533,,27,that
screen,html.Screen,2_1_0_1_28,2022-05-03T11:57:25.505Z,,,,,,,,,,,,,,,,,53,,,,,,,,,,,,,,375.3670000003767,,response,,,,99,,,,,,,Space,keypress(Space),,,,,,,,---- -- ----- -- ------ - ------- --- ----------<br>------------- ------ ------ ---- ---- ------- ----- -- ----<br>-------- ------- -- ---------- --- - --- ----- ----- ----<br>it's --- --- ----- --- ---- ---- ------- ----- ---- -------<br>--- --- -- ----- -- --- ---- -- --- ---- -- ------ ------<br>--- ----- -- ----,165078.79999999888,165077.90000000037,164685.745,164687,164702.533,165085.811,,28,it's
screen,html.Screen,2_1_0_1_29,2022-05-03T11:57:25.929Z,,,,,,,,,,,,,,,,,53,,,,,,,,,,,,,,416.388999999268,,response,,,,99,,,,,,,Space,keypress(Space),,,,,,,,---- -- ----- -- ------ - ------- --- ----------<br>------------- ------ ------ ---- ---- ------- ----- -- ----<br>-------- ------- -- ---------- --- - --- ----- ----- ----<br>---- not --- ----- --- ---- ---- ------- ----- ---- -------<br>--- --- -- ----- -- --- ---- -- --- ---- -- ------ ------<br>--- ----- -- ----,165503.09999999963,165502.19999999925,165069.161,165079.09999999963,165085.811,165519.265,,29,not
screen,html.Screen,2_1_0_1_30,2022-05-03T11:57:26.296Z,,,,,,,,,,,,,,,,,53,,,,,,,,,,,,,,349.934999999241,,response,,,,99,,,,,,,Space,keypress(Space),,,,,,,,---- -- ----- -- ------ - ------- --- ----------<br>------------- ------ ------ ---- ---- ------- ----- -- ----<br>-------- ------- -- ---------- --- - --- ----- ----- ----<br>---- --- how ----- --- ---- ---- ------- ----- ---- -------<br>--- --- -- ----- -- --- ---- -- --- ---- -- ------ ------<br>--- ----- -- ----,165869.5,165869.19999999925,165502.673,165503.40000000037,165519.265,165885.843,,30,how
screen,html.Screen,2_1_0_1_31,2022-05-03T11:57:26.680Z,,,,,,,,,,,,,,,,,53,,,,,,,,,,,,,,367.1570000000065,,response,,,,99,,,,,,,Space,keypress(Space),,,,,,,,---- -- ----- -- ------ - ------- --- ----------<br>------------- ------ ------ ---- ---- ------- ----- -- ----<br>-------- ------- -- ---------- --- - --- ----- ----- ----<br>---- --- --- close --- ---- ---- ------- ----- ---- -------<br>--- --- -- ----- -- --- ---- -- --- ---- -- ------ ------<br>--- ----- -- ----,166253.5,166253,165869.224,165869.59999999963,165885.843,166269.154,,31,close
screen,html.Screen,2_1_0_1_32,2022-05-03T11:57:27.056Z,,,,,,,,,,,,,,,,,53,,,,,,,,,,,,,,360.0459999992454,,response,,,,99,,,,,,,Space,keypress(Space),,,,,,,,---- -- ----- -- ------ - ------- --- ----------<br>------------- ------ ------ ---- ---- ------- ----- -- ----<br>-------- ------- -- ---------- --- - --- ----- ----- ----<br>---- --- --- ----- you ---- ---- ------- ----- ---- -------<br>--- --- -- ----- -- --- ---- -- --- ---- -- ------ ------<br>--- ----- -- ----,166629.69999999925,166629.19999999925,166252.427,166253.5,166269.154,166635.855,,32,you
screen,html.Screen,2_1_0_1_33,2022-05-03T11:57:27.496Z,,,,,,,,,,,,,,,,,53,,,,,,,,,,,,,,433.34499999924446,,response,,,,99,,,,,,,Space,keypress(Space),,,,,,,,---- -- ----- -- ------ - ------- --- ----------<br>------------- ------ ------ ---- ---- ------- ----- -- ----<br>-------- ------- -- ---------- --- - --- ----- ----- ----<br>---- --- --- ----- --- feel ---- ------- ----- ---- -------<br>--- --- -- ----- -- --- ---- -- --- ---- -- ------ ------<br>--- ----- -- ----,167069.5,167069.19999999925,166619.085,166629.90000000037,166635.855,167085.86,,33,feel
screen,html.Screen,2_1_0_1_34,2022-05-03T11:57:27.913Z,,,,,,,,,,,,,,,,,53,,,,,,,,,,,,,,400.23999999964144,,response,,,,99,,,,,,,Space,keypress(Space),,,,,,,,---- -- ----- -- ------ - ------- --- ----------<br>------------- ------ ------ ---- ---- ------- ----- -- ----<br>-------- ------- -- ---------- --- - --- ----- ----- ----<br>---- --- --- ----- --- ---- that ------- ----- ---- -------<br>--- --- -- ----- -- --- ---- -- --- ---- -- ------ ------<br>--- ----- -- ----,167486.90000000037,167486.09999999963,167069.139,167069.5,167085.86,167502.631,,34,that
screen,html.Screen,2_1_0_1_35,2022-05-03T11:57:28.272Z,,,,,,,,,,,,,,,,,53,,,,,,,,,,,,,,342.2690000003786,,response,,,,99,,,,,,,Space,keypress(Space),,,,,,,,---- -- ----- -- ------ - ------- --- ----------<br>------------- ------ ------ ---- ---- ------- ----- -- ----<br>-------- ------- -- ---------- --- - --- ----- ----- ----<br>---- --- --- ----- --- ---- ---- matters ----- ---- -------<br>--- --- -- ----- -- --- ---- -- --- ---- -- ------ ------<br>--- ----- -- ----,167845.40000000037,167844.90000000037,167485.809,167487.19999999925,167502.631,167852.574,,35,matters
screen,html.Screen,2_1_0_1_36,2022-05-03T11:57:28.608Z,,,,,,,,,,,,,,,,,53,,,,,,,,,,,,,,328.3260000003793,,response,,,,99,,,,,,,Space,keypress(Space),,,,,,,,"---- -- ----- -- ------ - ------- --- ----------<br>------------- ------ ------ ---- ---- ------- ----- -- ----<br>-------- ------- -- ---------- --- - --- ----- ----- ----<br>---- --- --- ----- --- ---- ---- ------- most, ---- -------<br>--- --- -- ----- -- --- ---- -- --- ---- -- ------ ------<br>--- ----- -- ----",168181.40000000037,168180.90000000037,167835.942,167845.5,167852.574,168185.9,,36,"most,"
screen,html.Screen,2_1_0_1_37,2022-05-03T11:57:28.945Z,,,,,,,,,,,,,,,,,53,,,,,,,,,,,,,,332.1999999996333,,response,,,,99,,,,,,,Space,keypress(Space),,,,,,,,---- -- ----- -- ------ - ------- --- ----------<br>------------- ------ ------ ---- ---- ------- ----- -- ----<br>-------- ------- -- ---------- --- - --- ----- ----- ----<br>---- --- --- ----- --- ---- ---- ------- ----- it's -------<br>--- --- -- ----- -- --- ---- -- --- ---- -- ------ ------<br>--- ----- -- ----,168518.90000000037,168518.09999999963,168169.177,168181.5,168185.9,168535.987,,37,it's
screen,html.Screen,2_1_0_1_38,2022-05-03T11:57:29.281Z,,,,,,,,,,,,,,,,,53,,,,,,,,,,,,,,318.11299999963376,,response,,,,99,,,,,,,Space,keypress(Space),,,,,,,,---- -- ----- -- ------ - ------- --- ----------<br>------------- ------ ------ ---- ---- ------- ----- -- ----<br>-------- ------- -- ---------- --- - --- ----- ----- ----<br>---- --- --- ----- --- ---- ---- ------- ----- ---- whether<br>--- --- -- ----- -- --- ---- -- --- ---- -- ------ ------<br>--- ----- -- ----,168855,168854.09999999963,168519.184,168519.19999999925,168535.987,168869.357,,38,whether
screen,html.Screen,2_1_0_1_39,2022-05-03T11:57:29.616Z,,,,,,,,,,,,,,,,,53,,,,,,,,,,,,,,319.7429999996384,,response,,,,99,,,,,,,Space,keypress(Space),,,,,,,,---- -- ----- -- ------ - ------- --- ----------<br>------------- ------ ------ ---- ---- ------- ----- -- ----<br>-------- ------- -- ---------- --- - --- ----- ----- ----<br>---- --- --- ----- --- ---- ---- ------- ----- ---- -------<br>you --- -- ----- -- --- ---- -- --- ---- -- ------ ------<br>--- ----- -- ----,169189.5,169189.09999999963,168852.619,168855.19999999925,168869.357,169202.552,,39,you
screen,html.Screen,2_1_0_1_40,2022-05-03T11:57:29.952Z,,,,,,,,,,,,,,,,,53,,,,,,,,,,,,,,322.54799999963143,,response,,,,99,,,,,,,Space,keypress(Space),,,,,,,,---- -- ----- -- ------ - ------- --- ----------<br>------------- ------ ------ ---- ---- ------- ----- -- ----<br>-------- ------- -- ---------- --- - --- ----- ----- ----<br>---- --- --- ----- --- ---- ---- ------- ----- ---- -------<br>--- are -- ----- -- --- ---- -- --- ---- -- ------ ------<br>--- ----- -- ----,169525.59999999963,169525.09999999963,169185.975,169189.59999999963,169202.552,169535.906,,40,are
screen,html.Screen,2_1_0_1_41,2022-05-03T11:57:30.256Z,,,,,,,,,,,,,,,,,53,,,,,,,,,,,,,,293.2939999992668,,response,,,,99,,,,,,,Space,keypress(Space),,,,,,,,---- -- ----- -- ------ - ------- --- ----------<br>------------- ------ ------ ---- ---- ------- ----- -- ----<br>-------- ------- -- ---------- --- - --- ----- ----- ----<br>---- --- --- ----- --- ---- ---- ------- ----- ---- -------<br>--- --- as ----- -- --- ---- -- --- ---- -- ------ ------<br>--- ----- -- ----,169829.69999999925,169829.19999999925,169519.202,169525.69999999925,169535.906,169835.995,,41,as
screen,html.Screen,2_1_0_1_42,2022-05-03T11:57:30.609Z,,,,,,,,,,,,,,,,,53,,,,,,,,,,,,,,346.00500000000466,,response,,,,99,,,,,,,Space,keypress(Space),,,,,,,,---- -- ----- -- ------ - ------- --- ----------<br>------------- ------ ------ ---- ---- ------- ----- -- ----<br>-------- ------- -- ---------- --- - --- ----- ----- ----<br>---- --- --- ----- --- ---- ---- ------- ----- ---- -------<br>--- --- -- close -- --- ---- -- --- ---- -- ------ ------<br>--- ----- -- ----,170182.90000000037,170182,169819.191,169829.79999999888,169835.995,170185.984,,42,close
screen,html.Screen,2_1_0_1_43,2022-05-03T11:57:30.953Z,,,,,,,,,,,,,,,,,53,,,,,,,,,,,,,,340.01600000000326,,response,,,,99,,,,,,,Space,keypress(Space),,,,,,,,---- -- ----- -- ------ - ------- --- ----------<br>------------- ------ ------ ---- ---- ------- ----- -- ----<br>-------- ------- -- ---------- --- - --- ----- ----- ----<br>---- --- --- ----- --- ---- ---- ------- ----- ---- -------<br>--- --- -- ----- as --- ---- -- --- ---- -- ------ ------<br>--- ----- -- ----,170526.90000000037,170526,170169.293,170183.40000000037,170185.984,170536.082,,43,as
screen,html.Screen,2_1_0_1_44,2022-05-03T11:57:31.304Z,,,,,,,,,,,,,,,,,53,,,,,,,,,,,,,,341.0179999996326,,response,,,,99,,,,,,,Space,keypress(Space),,,,,,,,---- -- ----- -- ------ - ------- --- ----------<br>------------- ------ ------ ---- ---- ------- ----- -- ----<br>-------- ------- -- ---------- --- - --- ----- ----- ----<br>---- --- --- ----- --- ---- ---- ------- ----- ---- -------<br>--- --- -- ----- -- you ---- -- --- ---- -- ------ ------<br>--- ----- -- ----,170877.69999999925,170877.09999999963,170519.275,170527.09999999963,170536.082,170885.99,,44,you
screen,html.Screen,2_1_0_1_45,2022-05-03T11:57:31.641Z,,,,,,,,,,,,,,,,,53,,,,,,,,,,,,,,328.1099999996368,,response,,,,99,,,,,,,Space,keypress(Space),,,,,,,,---- -- ----- -- ------ - ------- --- ----------<br>------------- ------ ------ ---- ---- ------- ----- -- ----<br>-------- ------- -- ---------- --- - --- ----- ----- ----<br>---- --- --- ----- --- ---- ---- ------- ----- ---- -------<br>--- --- -- ----- -- --- want -- --- ---- -- ------ ------<br>--- ----- -- ----,171214.79999999888,171214.09999999963,170869.308,170877.69999999925,170885.99,171219.356,,45,want
screen,html.Screen,2_1_0_1_46,2022-05-03T11:57:31.953Z,,,,,,,,,,,,,,,,,53,,,,,,,,,,,,,,306.64400000000023,,response,,,,99,,,,,,,Space,keypress(Space),,,,,,,,---- -- ----- -- ------ - ------- --- ----------<br>------------- ------ ------ ---- ---- ------- ----- -- ----<br>-------- ------- -- ---------- --- - --- ----- ----- ----<br>---- --- --- ----- --- ---- ---- ------- ----- ---- -------<br>--- --- -- ----- -- --- ---- to --- ---- -- ------ ------<br>--- ----- -- ----,171527,171526,171202.572,171215.09999999963,171219.356,171536.088,,46,to
screen,html.Screen,2_1_0_1_47,2022-05-03T11:57:32.272Z,,,,,,,,,,,,,,,,,53,,,,,,,,,,,,,,309.1119999992661,,response,,,,99,,,,,,,Space,keypress(Space),,,,,,,,"---- -- ----- -- ------ - ------- --- ----------<br>------------- ------ ------ ---- ---- ------- ----- -- ----<br>-------- ------- -- ---------- --- - --- ----- ----- ----<br>---- --- --- ----- --- ---- ---- ------- ----- ---- -------<br>--- --- -- ----- -- --- ---- -- be, ---- -- ------ ------<br>--- ----- -- ----",171845.5,171845.19999999925,171519.406,171527.29999999888,171536.088,171852.643,,47,"be,"
screen,html.Screen,2_1_0_1_48,2022-05-03T11:57:32.649Z,,,,,,,,,,,,,,,,,53,,,,,,,,,,,,,,369.2570000003616,,response,,,,99,,,,,,,Space,keypress(Space),,,,,,,,---- -- ----- -- ------ - ------- --- ----------<br>------------- ------ ------ ---- ---- ------- ----- -- ----<br>-------- ------- -- ---------- --- - --- ----- ----- ----<br>---- --- --- ----- --- ---- ---- ------- ----- ---- -------<br>--- --- -- ----- -- --- ---- -- --- even -- ------ ------<br>--- ----- -- ----,172222.79999999888,172221.90000000037,171836.033,171845.59999999963,171852.643,172236.238,,48,even
screen,html.Screen,2_1_0_1_49,2022-05-03T11:57:32.961Z,,,,,,,,,,,,,,,,,53,,,,,,,,,,,,,,297.7619999999879,,response,,,,99,,,,,,,Space,keypress(Space),,,,,,,,---- -- ----- -- ------ - ------- --- ----------<br>------------- ------ ------ ---- ---- ------- ----- -- ----<br>-------- ------- -- ---------- --- - --- ----- ----- ----<br>---- --- --- ----- --- ---- ---- ------- ----- ---- -------<br>--- --- -- ----- -- --- ---- -- --- ---- if ------ ------<br>--- ----- -- ----,172534.79999999888,172534,172219.288,172223.09999999963,172236.238,172552.758,,49,if
screen,html.Screen,2_1_0_1_50,2022-05-03T11:57:33.313Z,,,,,,,,,,,,,,,,,53,,,,,,,,,,,,,,332.9419999992533,,response,,,,99,,,,,,,Space,keypress(Space),,,,,,,,---- -- ----- -- ------ - ------- --- ----------<br>------------- ------ ------ ---- ---- ------- ----- -- ----<br>-------- ------- -- ---------- --- - --- ----- ----- ----<br>---- --- --- ----- --- ---- ---- ------- ----- ---- -------<br>--- --- -- ----- -- --- ---- -- --- ---- -- that's ------<br>--- ----- -- ----,172886.29999999888,172885.69999999925,172519.391,172535.09999999963,172552.758,172902.775,,50,that's
screen,html.Screen,2_1_0_1_51,2022-05-03T11:57:33.689Z,,,,,,,,,,,,,,,,,53,,,,,,,,,,,,,,359.7250000000058,,response,,,,99,,,,,,,Space,keypress(Space),,,,,,,,---- -- ----- -- ------ - ------- --- ----------<br>------------- ------ ------ ---- ---- ------- ----- -- ----<br>-------- ------- -- ---------- --- - --- ----- ----- ----<br>---- --- --- ----- --- ---- ---- ------- ----- ---- -------<br>--- --- -- ----- -- --- ---- -- --- ---- -- ------ really<br>--- ----- -- ----,173263.19999999925,173262.5,172886.042,172886.5,172902.775,173269.426,,51,really
screen,html.Screen,2_1_0_1_52,2022-05-03T11:57:34.072Z,,,,,,,,,,,,,,,,,53,,,,,,,,,,,,,,375.6739999996207,,response,,,,99,,,,,,,Space,keypress(Space),,,,,,,,---- -- ----- -- ------ - ------- --- ----------<br>------------- ------ ------ ---- ---- ------- ----- -- ----<br>-------- ------- -- ---------- --- - --- ----- ----- ----<br>---- --- --- ----- --- ---- ---- ------- ----- ---- -------<br>--- --- -- ----- -- --- ---- -- --- ---- -- ------ ------<br>not ----- -- ----,173645.40000000037,173645.09999999963,173252.713,173263.5,173269.426,173652.706,,52,not
screen,html.Screen,2_1_0_1_53,2022-05-03T11:57:34.424Z,,,,,,,,,,,,,,,,,53,,,,,,,,,,,,,,344.5939999988768,,response,,,,99,,,,,,,Space,keypress(Space),,,,,,,,---- -- ----- -- ------ - ------- --- ----------<br>------------- ------ ------ ---- ---- ------- ----- -- ----<br>-------- ------- -- ---------- --- - --- ----- ----- ----<br>---- --- --- ----- --- ---- ---- ------- ----- ---- -------<br>--- --- -- ----- -- --- ---- -- --- ---- -- ------ ------<br>--- close -- ----,173997.79999999888,173997.29999999888,173636.083,173645.5,173652.706,174002.778,,53,close
screen,html.Screen,2_1_0_1_54,2022-05-03T11:57:34.808Z,,,,,,,,,,,,,,,,,53,,,,,,,,,,,,,,378.4219999992638,,response,,,,99,,,,,,,Space,keypress(Space),,,,,,,,---- -- ----- -- ------ - ------- --- ----------<br>------------- ------ ------ ---- ---- ------- ----- -- ----<br>-------- ------- -- ---------- --- - --- ----- ----- ----<br>---- --- --- ----- --- ---- ---- ------- ----- ---- -------<br>--- --- -- ----- -- --- ---- -- --- ---- -- ------ ------<br>--- ----- at ----,174381.5,174381.19999999925,173986.003,173997.90000000037,174002.778,174386.101,,54,at
screen,html.Screen,2_1_0_1_55,2022-05-03T11:57:35.217Z,,,,,,,,,,,,,,,,,53,,,,,,,,,,,,,,403.7990000003774,,response,,,,99,,,,,,,Space,keypress(Space),,,,,,,,---- -- ----- -- ------ - ------- --- ----------<br>------------- ------ ------ ---- ---- ------- ----- -- ----<br>-------- ------- -- ---------- --- - --- ----- ----- ----<br>---- --- --- ----- --- ---- ---- ------- ----- ---- -------<br>--- --- -- ----- -- --- ---- -- --- ---- -- ------ ------<br>--- ----- -- all.,174790.79999999888,174789.90000000037,174369.451,174381.59999999963,174386.101,174802.807,,55,all.
Item 99,flow.Loop,2_1_0_1,2022-05-03T11:57:35.217Z,,,,,,,,,,,,,,,,,,,,,,,,,,,,,,,22721.167000000365,,completion,,,,,H,,,,,,,,,,,silence,,,,,174791.19999999925,174789.90000000037,152002.117,152003.29999999888,152068.733,174802.807,,,
Question 1,html.Screen,2_1_0_2,2022-05-03T11:57:38.960Z,,,,,,,,,,,,,,,,,,,,,,,,,,,,true,FALSE,,3730.1929999999993,,response,,,,99,H,,,,,,FALSE,click #choice-2,,,,silence,,,,,178533.59999999963,178533,174786.091,174791.5,174802.807,178536.158,,,
Question 2,html.Screen,2_1_0_3,2022-05-03T11:57:42.112Z,,,,,,,,,,,,,,,,,,,,,,,,,,,,true,TRUE,,3149.1419999988866,,response,,,,99,H,,,,,,TRUE,click #choice-1,,,,silence,,,,,181685.79999999888,181685.29999999888,178519.543,178533.69999999925,178536.158,181716.095,,,
Item 99,flow.Sequence,2_1_0,2022-05-03T11:57:42.112Z,,,,,,,,,,,,,,,,,,,,,,,,,,,,,,,39666.90799999889,,completion,,,,,,,,,,,,,,,,,,,,,181686,181685.29999999888,142001.749,142013.79999999888,142018.392,181716.095,,,
Holding screen,html.Screen,2_1_1_0,2022-05-03T11:57:52.130Z,,,,,,,,,,,,,,,,,,,,,,,,,,,,,,,10003.902000000002,,timeout,,,,,,,,,,,,,,,,,,,,,191703.79999999888,191703.304,181669.704,181686.09999999963,181716.095,191719.997,,,
screen,html.Screen,2_1_1_1_0,2022-05-03T11:57:52.778Z,,,,,,,,,,,,,,,,,54,,,,,,,,,,,,,,630.7029999992519,,response,,,,100,,,,,,,Space,keypress(Space),,,,,,,,At --- ---- --- ------ ----- ------- ---- -- --- ------- --<br>------- ---------- ------ -- ----- -- ----- -- ---- ------<br>--- ----- --- --- ------ -------- ----- --- ------ ----- --<br>----- ----- ---------- --- --- ------ ------ ---- -- ------<br>------- --- ------ ----- --- ---- ------- -- ---- --- --<br>------- ------,192351.59999999963,192350.69999999925,191703.304,191703.90000000037,191719.997,192353.384,,0,At
screen,html.Screen,2_1_1_1_1,2022-05-03T11:57:53.169Z,,,,,,,,,,,,,,,,,54,,,,,,,,,,,,,,388.5160000003816,,response,,,,100,,,,,,,Space,keypress(Space),,,,,,,,-- the ---- --- ------ ----- ------- ---- -- --- ------- --<br>------- ---------- ------ -- ----- -- ----- -- ---- ------<br>--- ----- --- --- ------ -------- ----- --- ------ ----- --<br>----- ----- ---------- --- --- ------ ------ ---- -- ------<br>------- --- ------ ----- --- ---- ------- -- ---- --- --<br>------- ------,192742.69999999925,192741.90000000037,192336.598,192351.79999999888,192353.384,192753.401,,1,the
screen,html.Screen,2_1_1_1_2,2022-05-03T11:57:53.401Z,,,,,,,,,,,,,,,,,54,,,,,,,,,,,,,,220.39899999886984,,response,,,,100,,,,,,,Space,keypress(Space),,,,,,,,-- --- time --- ------ ----- ------- ---- -- --- ------- --<br>------- ---------- ------ -- ----- -- ----- -- ---- ------<br>--- ----- --- --- ------ -------- ----- --- ------ ----- --<br>----- ----- ---------- --- --- ------ ------ ---- -- ------<br>------- --- ------ ----- --- ---- ------- -- ---- --- --<br>------- ------,192974.59999999963,192973.79999999888,192736.631,192742.90000000037,192753.401,192986.747,,2,time
screen,html.Screen,2_1_1_1_3,2022-05-03T11:57:53.623Z,,,,,,,,,,,,,,,,,54,,,,,,,,,,,,,,210.35299999962444,,response,,,,100,,,,,,,Space,keypress(Space),,,,,,,,-- --- ---- the ------ ----- ------- ---- -- --- ------- --<br>------- ---------- ------ -- ----- -- ----- -- ---- ------<br>--- ----- --- --- ------ -------- ----- --- ------ ----- --<br>----- ----- ---------- --- --- ------ ------ ---- -- ------<br>------- --- ------ ----- --- ---- ------- -- ---- --- --<br>------- ------,193197.40000000037,193197.09999999963,192970.021,192974.79999999888,192986.747,193203.371,,3,the
screen,html.Screen,2_1_1_1_4,2022-05-03T11:57:54.153Z,,,,,,,,,,,,,,,,,54,,,,,,,,,,,,,,522.9289999988687,,response,,,,100,,,,,,,Space,keypress(Space),,,,,,,,-- --- ---- --- French ----- ------- ---- -- --- ------- --<br>------- ---------- ------ -- ----- -- ----- -- ---- ------<br>--- ----- --- --- ------ -------- ----- --- ------ ----- --<br>----- ----- ---------- --- --- ------ ------ ---- -- ------<br>------- --- ------ ----- --- ---- ------- -- ---- --- --<br>------- ------,193727.09999999963,193726.29999999888,193186.699,193197.40000000037,193203.371,193736.751,,4,French
screen,html.Screen,2_1_1_1_5,2022-05-03T11:57:54.521Z,,,,,,,,,,,,,,,,,54,,,,,,,,,,,,,,357.2490000000107,,response,,,,100,,,,,,,Space,keypress(Space),,,,,,,,-- --- ---- --- ------ crown ------- ---- -- --- ------- --<br>------- ---------- ------ -- ----- -- ----- -- ---- ------<br>--- ----- --- --- ------ -------- ----- --- ------ ----- --<br>----- ----- ---------- --- --- ------ ------ ---- -- ------<br>------- --- ------ ----- --- ---- ------- -- ---- --- --<br>------- ------,194094.79999999888,194094,193719.988,193727.40000000037,193736.751,194103.438,,5,crown
screen,html.Screen,2_1_1_1_6,2022-05-03T11:57:55.007Z,,,,,,,,,,,,,,,,,54,,,,,,,,,,,,,,477.6619999996328,,response,,,,100,,,,,,,Space,keypress(Space),,,,,,,,-- --- ---- --- ------ ----- secured ---- -- --- ------- --<br>------- ---------- ------ -- ----- -- ----- -- ---- ------<br>--- ----- --- --- ------ -------- ----- --- ------ ----- --<br>----- ----- ---------- --- --- ------ ------ ---- -- ------<br>------- --- ------ ----- --- ---- ------- -- ---- --- --<br>------- ------,194581.40000000037,194581.09999999963,194086.716,194094.90000000037,194103.438,194586.707,,6,secured
screen,html.Screen,2_1_1_1_7,2022-05-03T11:57:55.465Z,,,,,,,,,,,,,,,,,54,,,,,,,,,,,,,,451.2930000000051,,response,,,,100,,,,,,,Space,keypress(Space),,,,,,,,-- --- ---- --- ------ ----- ------- much -- --- ------- --<br>------- ---------- ------ -- ----- -- ----- -- ---- ------<br>--- ----- --- --- ------ -------- ----- --- ------ ----- --<br>----- ----- ---------- --- --- ------ ------ ---- -- ------<br>------- --- ------ ----- --- ---- ------- -- ---- --- --<br>------- ------,195038.79999999888,195038,194570.056,194581.5,194586.707,195053.492,,7,much
screen,html.Screen,2_1_1_1_8,2022-05-03T11:57:55.889Z,,,,,,,,,,,,,,,,,54,,,,,,,,,,,,,,408.50800000000163,,response,,,,100,,,,,,,Space,keypress(Space),,,,,,,,-- --- ---- --- ------ ----- ------- ---- of --- ------- --<br>------- ---------- ------ -- ----- -- ----- -- ---- ------<br>--- ----- --- --- ------ -------- ----- --- ------ ----- --<br>----- ----- ---------- --- --- ------ ------ ---- -- ------<br>------- --- ------ ----- --- ---- ------- -- ---- --- --<br>------- ------,195462.79999999888,195462,195036.635,195039.09999999963,195053.492,195470.153,,8,of
screen,html.Screen,2_1_1_1_9,2022-05-03T11:57:56.225Z,,,,,,,,,,,,,,,,,54,,,,,,,,,,,,,,327.64699999889126,,response,,,,100,,,,,,,Space,keypress(Space),,,,,,,,-- --- ---- --- ------ ----- ------- ---- -- its ------- --<br>------- ---------- ------ -- ----- -- ----- -- ---- ------<br>--- ----- --- --- ------ -------- ----- --- ------ ----- --<br>----- ----- ---------- --- --- ------ ------ ---- -- ------<br>------- --- ------ ----- --- ---- ------- -- ---- --- --<br>------- ------,195798.69999999925,195797.79999999888,195453.42,195463,195470.153,195803.488,,9,its
screen,html.Screen,2_1_1_1_10,2022-05-03T11:57:56.817Z,,,,,,,,,,,,,,,,,54,,,,,,,,,,,,,,586.5119999999879,,response,,,,100,,,,,,,Space,keypress(Space),,,,,,,,-- --- ---- --- ------ ----- ------- ---- -- --- revenue --<br>------- ---------- ------ -- ----- -- ----- -- ---- ------<br>--- ----- --- --- ------ -------- ----- --- ------ ----- --<br>----- ----- ---------- --- --- ------ ------ ---- -- ------<br>------- --- ------ ----- --- ---- ------- -- ---- --- --<br>------- ------,196390.69999999925,196390,195786.781,195798.90000000037,195803.488,196403.53,,10,revenue
screen,html.Screen,2_1_1_1_11,2022-05-03T11:57:57.153Z,,,,,,,,,,,,,,,,,54,,,,,,,,,,,,,,322.3700000003737,,response,,,,100,,,,,,,Space,keypress(Space),,,,,,,,-- --- ---- --- ------ ----- ------- ---- -- --- ------- by<br>------- ---------- ------ -- ----- -- ----- -- ---- ------<br>--- ----- --- --- ------ -------- ----- --- ------ ----- --<br>----- ----- ---------- --- --- ------ ------ ---- -- ------<br>------- --- ------ ----- --- ---- ------- -- ---- --- --<br>------- ------,196726.69999999925,196725.90000000037,196386.767,196390.90000000037,196403.53,196736.809,,11,by
screen,html.Screen,2_1_1_1_12,2022-05-03T11:57:57.577Z,,,,,,,,,,,,,,,,,54,,,,,,,,,,,,,,413.1909999999916,,response,,,,100,,,,,,,Space,keypress(Space),,,,,,,,-- --- ---- --- ------ ----- ------- ---- -- --- ------- --<br>issuing ---------- ------ -- ----- -- ----- -- ---- ------<br>--- ----- --- --- ------ -------- ----- --- ------ ----- --<br>----- ----- ---------- --- --- ------ ------ ---- -- ------<br>------- --- ------ ----- --- ---- ------- -- ---- --- --<br>------- ------,197150.79999999888,197150,196720.133,196727,196736.809,197153.519,,12,issuing
screen,html.Screen,2_1_1_1_13,2022-05-03T11:57:58.009Z,,,,,,,,,,,,,,,,,54,,,,,,,,,,,,,,428.3810000003723,,response,,,,100,,,,,,,Space,keypress(Space),,,,,,,,-- --- ---- --- ------ ----- ------- ---- -- --- ------- --<br>------- government ------ -- ----- -- ----- -- ---- ------<br>--- ----- --- --- ------ -------- ----- --- ------ ----- --<br>----- ----- ---------- --- --- ------ ------ ---- -- ------<br>------- --- ------ ----- --- ---- ------- -- ---- --- --<br>------- ------,197582.69999999925,197581.90000000037,197136.778,197151,197153.519,197586.879,,13,government
screen,html.Screen,2_1_1_1_14,2022-05-03T11:57:58.433Z,,,,,,,,,,,,,,,,,54,,,,,,,,,,,,,,419.02100000038627,,response,,,,100,,,,,,,Space,keypress(Space),,,,,,,,-- --- ---- --- ------ ----- ------- ---- -- --- ------- --<br>------- ---------- bonds. -- ----- -- ----- -- ---- ------<br>--- ----- --- --- ------ -------- ----- --- ------ ----- --<br>----- ----- ---------- --- --- ------ ------ ---- -- ------<br>------- --- ------ ----- --- ---- ------- -- ---- --- --<br>------- ------,198006.69999999925,198005.90000000037,197570.157,197583,197586.879,198020.233,,14,bonds.
screen,html.Screen,2_1_1_1_15,2022-05-03T11:57:58.840Z,,,,,,,,,,,,,,,,,54,,,,,,,,,,,,,,393.06699999887496,,response,,,,100,,,,,,,Space,keypress(Space),,,,,,,,-- --- ---- --- ------ ----- ------- ---- -- --- ------- --<br>------- ---------- ------ In ----- -- ----- -- ---- ------<br>--- ----- --- --- ------ -------- ----- --- ------ ----- --<br>----- ----- ---------- --- --- ------ ------ ---- -- ------<br>------- --- ------ ----- --- ---- ------- -- ---- --- --<br>------- ------,198413.69999999925,198413.29999999888,198003.509,198007,198020.233,198420.138,,15,In
screen,html.Screen,2_1_1_1_16,2022-05-03T11:57:59.265Z,,,,,,,,,,,,,,,,,54,,,,,,,,,,,,,,417.9619999996212,,response,,,,100,,,,,,,Space,keypress(Space),,,,,,,,"-- --- ---- --- ------ ----- ------- ---- -- --- ------- --<br>------- ---------- ------ -- 1727, -- ----- -- ---- ------<br>--- ----- --- --- ------ -------- ----- --- ------ ----- --<br>----- ----- ---------- --- --- ------ ------ ---- -- ------<br>------- --- ------ ----- --- ---- ------- -- ---- --- --<br>------- ------",198838.90000000037,198838.09999999963,198403.469,198413.79999999888,198420.138,198853.582,,16,"1727,"
screen,html.Screen,2_1_1_1_17,2022-05-03T11:58:00.113Z,,,,,,,,,,,,,,,,,54,,,,,,,,,,,,,,832.3180000003777,,response,,,,100,,,,,,,Space,keypress(Space),,,,,,,,-- --- ---- --- ------ ----- ------- ---- -- --- ------- --<br>------- ---------- ------ -- ----- in ----- -- ---- ------<br>--- ----- --- --- ------ -------- ----- --- ------ ----- --<br>----- ----- ---------- --- --- ------ ------ ---- -- ------<br>------- --- ------ ----- --- ---- ------- -- ---- --- --<br>------- ------,199686.69999999925,199685.90000000037,198836.761,198839.09999999963,198853.582,199703.631,,17,in
screen,html.Screen,2_1_1_1_18,2022-05-03T11:58:00.593Z,,,,,,,,,,,,,,,,,54,,,,,,,,,,,,,,462.36900000000605,,response,,,,100,,,,,,,Space,keypress(Space),,,,,,,,-- --- ---- --- ------ ----- ------- ---- -- --- ------- --<br>------- ---------- ------ -- ----- -- order -- ---- ------<br>--- ----- --- --- ------ -------- ----- --- ------ ----- --<br>----- ----- ---------- --- --- ------ ------ ---- -- ------<br>------- --- ------ ----- --- ---- ------- -- ---- --- --<br>------- ------,200166.79999999888,200166,199686.868,199687,199703.631,200170.298,,18,order
screen,html.Screen,2_1_1_1_19,2022-05-03T11:58:00.953Z,,,,,,,,,,,,,,,,,54,,,,,,,,,,,,,,355.7019999999902,,response,,,,100,,,,,,,Space,keypress(Space),,,,,,,,-- --- ---- --- ------ ----- ------- ---- -- --- ------- --<br>------- ---------- ------ -- ----- -- ----- to ---- ------<br>--- ----- --- --- ------ -------- ----- --- ------ ----- --<br>----- ----- ---------- --- --- ------ ------ ---- -- ------<br>------- --- ------ ----- --- ---- ------- -- ---- --- --<br>------- ------,200526.79999999888,200526,200153.566,200167.09999999963,200170.298,200536.99,,19,to
screen,html.Screen,2_1_1_1_20,2022-05-03T11:58:01.409Z,,,,,,,,,,,,,,,,,54,,,,,,,,,,,,,,445.0100000000093,,response,,,,100,,,,,,,Space,keypress(Space),,,,,,,,-- --- ---- --- ------ ----- ------- ---- -- --- ------- --<br>------- ---------- ------ -- ----- -- ----- -- save ------<br>--- ----- --- --- ------ -------- ----- --- ------ ----- --<br>----- ----- ---------- --- --- ------ ------ ---- -- ------<br>------- --- ------ ----- --- ---- ------- -- ---- --- --<br>------- ------,200982.79999999888,200982,200520.243,200527,200536.99,200986.995,,20,save
screen,html.Screen,2_1_1_1_21,2022-05-03T11:58:02.073Z,,,,,,,,,,,,,,,,,54,,,,,,,,,,,,,,658.8049999988871,,response,,,,100,,,,,,,Space,keypress(Space),,,,,,,,"-- --- ---- --- ------ ----- ------- ---- -- --- ------- --<br>------- ---------- ------ -- ----- -- ----- -- ---- money,<br>--- ----- --- --- ------ -------- ----- --- ------ ----- --<br>----- ----- ---------- --- --- ------ ------ ---- -- ------<br>------- --- ------ ----- --- ---- ------- -- ---- --- --<br>------- ------",201646.69999999925,201645.79999999888,200970.256,200983,200986.995,201653.664,,21,"money,"
screen,html.Screen,2_1_1_1_22,2022-05-03T11:58:02.513Z,,,,,,,,,,,,,,,,,54,,,,,,,,,,,,,,432.2360000003828,,response,,,,100,,,,,,,Space,keypress(Space),,,,,,,,-- --- ---- --- ------ ----- ------- ---- -- --- ------- --<br>------- ---------- ------ -- ----- -- ----- -- ---- ------<br>the ----- --- --- ------ -------- ----- --- ------ ----- --<br>----- ----- ---------- --- --- ------ ------ ---- -- ------<br>------- --- ------ ----- --- ---- ------- -- ---- --- --<br>------- ------,202086.69999999925,202085.90000000037,201636.889,201646.79999999888,201653.664,202103.689,,22,the
screen,html.Screen,2_1_1_1_23,2022-05-03T11:58:02.904Z,,,,,,,,,,,,,,,,,54,,,,,,,,,,,,,,374.2110000003595,,response,,,,100,,,,,,,Space,keypress(Space),,,,,,,,-- --- ---- --- ------ ----- ------- ---- -- --- ------- --<br>------- ---------- ------ -- ----- -- ----- -- ---- ------<br>--- state --- --- ------ -------- ----- --- ------ ----- --<br>----- ----- ---------- --- --- ------ ------ ---- -- ------<br>------- --- ------ ----- --- ---- ------- -- ---- --- --<br>------- ------,202478.29999999888,202477.90000000037,202087,202086.90000000037,202103.689,202486.981,,23,state
screen,html.Screen,2_1_1_1_24,2022-05-03T11:58:03.408Z,,,,,,,,,,,,,,,,,54,,,,,,,,,,,,,,494.1189999996277,,response,,,,100,,,,,,,Space,keypress(Space),,,,,,,,-- --- ---- --- ------ ----- ------- ---- -- --- ------- --<br>------- ---------- ------ -- ----- -- ----- -- ---- ------<br>--- ----- cut --- ------ -------- ----- --- ------ ----- --<br>----- ----- ---------- --- --- ------ ------ ---- -- ------<br>------- --- ------ ----- --- ---- ------- -- ---- --- --<br>------- ------,202981.5,202981.09999999963,202470.301,202478.5,202486.981,202986.991,,24,cut
screen,html.Screen,2_1_1_1_25,2022-05-03T11:58:03.849Z,,,,,,,,,,,,,,,,,54,,,,,,,,,,,,,,434.90900000036345,,response,,,,100,,,,,,,Space,keypress(Space),,,,,,,,-- --- ---- --- ------ ----- ------- ---- -- --- ------- --<br>------- ---------- ------ -- ----- -- ----- -- ---- ------<br>--- ----- --- the ------ -------- ----- --- ------ ----- --<br>----- ----- ---------- --- --- ------ ------ ---- -- ------<br>------- --- ------ ----- --- ---- ------- -- ---- --- --<br>------- ------,203422.69999999925,203421.90000000037,202970.225,202981.59999999963,202986.991,203437.064,,25,the
screen,html.Screen,2_1_1_1_26,2022-05-03T11:58:04.505Z,,,,,,,,,,,,,,,,,54,,,,,,,,,,,,,,640.935999999987,,response,,,,100,,,,,,,Space,keypress(Space),,,,,,,,-- --- ---- --- ------ ----- ------- ---- -- --- ------- --<br>------- ---------- ------ -- ----- -- ----- -- ---- ------<br>--- ----- --- --- bonds' -------- ----- --- ------ ----- --<br>----- ----- ---------- --- --- ------ ------ ---- -- ------<br>------- --- ------ ----- --- ---- ------- -- ---- --- --<br>------- ------,204078.79999999888,204078,203420.29,203423,203437.064,204087.084,,26,bonds'
screen,html.Screen,2_1_1_1_27,2022-05-03T11:58:05.017Z,,,,,,,,,,,,,,,,,54,,,,,,,,,,,,,,502.81600000036997,,response,,,,100,,,,,,,Space,keypress(Space),,,,,,,,-- --- ---- --- ------ ----- ------- ---- -- --- ------- --<br>------- ---------- ------ -- ----- -- ----- -- ---- ------<br>--- ----- --- --- ------ interest ----- --- ------ ----- --<br>----- ----- ---------- --- --- ------ ------ ---- -- ------<br>------- --- ------ ----- --- ---- ------- -- ---- --- --<br>------- ------,204590.69999999925,204589.90000000037,204070.336,204079,204087.084,204603.766,,27,interest
screen,html.Screen,2_1_1_1_28,2022-05-03T11:58:05.497Z,,,,,,,,,,,,,,,,,54,,,,,,,,,,,,,,466.13400000036927,,response,,,,100,,,,,,,Space,keypress(Space),,,,,,,,-- --- ---- --- ------ ----- ------- ---- -- --- ------- --<br>------- ---------- ------ -- ----- -- ----- -- ---- ------<br>--- ----- --- --- ------ -------- rate. --- ------ ----- --<br>----- ----- ---------- --- --- ------ ------ ---- -- ------<br>------- --- ------ ----- --- ---- ------- -- ---- --- --<br>------- ------,205070.69999999925,205069.90000000037,204587.027,204590.90000000037,204603.766,205087.103,,28,rate.
screen,html.Screen,2_1_1_1_29,2022-05-03T11:58:06.281Z,,,,,,,,,,,,,,,,,54,,,,,,,,,,,,,,766.8969999999972,,response,,,,100,,,,,,,Space,keypress(Space),,,,,,,,-- --- ---- --- ------ ----- ------- ---- -- --- ------- --<br>------- ---------- ------ -- ----- -- ----- -- ---- ------<br>--- ----- --- --- ------ -------- ----- The ------ ----- --<br>----- ----- ---------- --- --- ------ ------ ---- -- ------<br>------- --- ------ ----- --- ---- ------- -- ---- --- --<br>------- ------,205855,205854,205070.356,205071,205087.103,205870.485,,29,The
screen,html.Screen,2_1_1_1_30,2022-05-03T11:58:06.687Z,,,,,,,,,,,,,,,,,54,,,,,,,,,,,,,,390.61499999964144,,response,,,,100,,,,,,,Space,keypress(Space),,,,,,,,-- --- ---- --- ------ ----- ------- ---- -- --- ------- --<br>------- ---------- ------ -- ----- -- ----- -- ---- ------<br>--- ----- --- --- ------ -------- ----- --- market ----- --<br>----- ----- ---------- --- --- ------ ------ ---- -- ------<br>------- --- ------ ----- --- ---- ------- -- ---- --- --<br>------- ------,206261.40000000037,206261.09999999963,205853.724,205855.19999999925,205870.485,206270.368,,30,market
screen,html.Screen,2_1_1_1_31,2022-05-03T11:58:07.088Z,,,,,,,,,,,,,,,,,54,,,,,,,,,,,,,,391.2319999996398,,response,,,,100,,,,,,,Space,keypress(Space),,,,,,,,-- --- ---- --- ------ ----- ------- ---- -- --- ------- --<br>------- ---------- ------ -- ----- -- ----- -- ---- ------<br>--- ----- --- --- ------ -------- ----- --- ------ value --<br>----- ----- ---------- --- --- ------ ------ ---- -- ------<br>------- --- ------ ----- --- ---- ------- -- ---- --- --<br>------- ------,206661.90000000037,206661.59999999963,206253.713,206261.5,206270.368,206670.459,,31,value
screen,html.Screen,2_1_1_1_32,2022-05-03T11:58:07.489Z,,,,,,,,,,,,,,,,,54,,,,,,,,,,,,,,391.44100000036997,,response,,,,100,,,,,,,Space,keypress(Space),,,,,,,,-- --- ---- --- ------ ----- ------- ---- -- --- ------- --<br>------- ---------- ------ -- ----- -- ----- -- ---- ------<br>--- ----- --- --- ------ -------- ----- --- ------ ----- of<br>----- ----- ---------- --- --- ------ ------ ---- -- ------<br>------- --- ------ ----- --- ---- ------- -- ---- --- --<br>------- ------,207062.69999999925,207061.90000000037,206653.676,206661.90000000037,206670.459,207070.398,,32,of
screen,html.Screen,2_1_1_1_33,2022-05-03T11:58:07.841Z,,,,,,,,,,,,,,,,,54,,,,,,,,,,,,,,343.6020000000135,,response,,,,100,,,,,,,Space,keypress(Space),,,,,,,,-- --- ---- --- ------ ----- ------- ---- -- --- ------- --<br>------- ---------- ------ -- ----- -- ----- -- ---- ------<br>--- ----- --- --- ------ -------- ----- --- ------ ----- --<br>these ----- ---------- --- --- ------ ------ ---- -- ------<br>------- --- ------ ----- --- ---- ------- -- ---- --- --<br>------- ------,207414.79999999888,207414,207053.735,207063,207070.398,207420.508,,33,these
screen,html.Screen,2_1_1_1_34,2022-05-03T11:58:08.201Z,,,,,,,,,,,,,,,,,54,,,,,,,,,,,,,,353.49199999999837,,response,,,,100,,,,,,,Space,keypress(Space),,,,,,,,-- --- ---- --- ------ ----- ------- ---- -- --- ------- --<br>------- ---------- ------ -- ----- -- ----- -- ---- ------<br>--- ----- --- --- ------ -------- ----- --- ------ ----- --<br>----- bonds ---------- --- --- ------ ------ ---- -- ------<br>------- --- ------ ----- --- ---- ------- -- ---- --- --<br>------- ------,207774.79999999888,207774,207403.759,207415,207420.508,207787.199,,34,bonds
screen,html.Screen,2_1_1_1_35,2022-05-03T11:58:08.785Z,,,,,,,,,,,,,,,,,54,,,,,,,,,,,,,,570.7010000003793,,response,,,,100,,,,,,,Space,keypress(Space),,,,,,,,"-- --- ---- --- ------ ----- ------- ---- -- --- ------- --<br>------- ---------- ------ -- ----- -- ----- -- ---- ------<br>--- ----- --- --- ------ -------- ----- --- ------ ----- --<br>----- ----- plummeted, --- --- ------ ------ ---- -- ------<br>------- --- ------ ----- --- ---- ------- -- ---- --- --<br>------- ------",208358.69999999925,208357.90000000037,207770.434,207775.19999999925,207787.199,208370.554,,35,"plummeted,"
screen,html.Screen,2_1_1_1_36,2022-05-03T11:58:09.233Z,,,,,,,,,,,,,,,,,54,,,,,,,,,,,,,,435.3460000003688,,response,,,,100,,,,,,,Space,keypress(Space),,,,,,,,-- --- ---- --- ------ ----- ------- ---- -- --- ------- --<br>------- ---------- ------ -- ----- -- ----- -- ---- ------<br>--- ----- --- --- ------ -------- ----- --- ------ ----- --<br>----- ----- ---------- and --- ------ ------ ---- -- ------<br>------- --- ------ ----- --- ---- ------- -- ---- --- --<br>------- ------,208806.69999999925,208805.90000000037,208353.788,208359,208370.554,208820.581,,36,and
screen,html.Screen,2_1_1_1_37,2022-05-03T11:58:09.601Z,,,,,,,,,,,,,,,,,54,,,,,,,,,,,,,,353.11899999924935,,response,,,,100,,,,,,,Space,keypress(Space),,,,,,,,-- --- ---- --- ------ ----- ------- ---- -- --- ------- --<br>------- ---------- ------ -- ----- -- ----- -- ---- ------<br>--- ----- --- --- ------ -------- ----- --- ------ ----- --<br>----- ----- ---------- --- the ------ ------ ---- -- ------<br>------- --- ------ ----- --- ---- ------- -- ---- --- --<br>------- ------,209174.59999999963,209173.69999999925,208803.83,208807,208820.581,209187.244,,37,the
screen,html.Screen,2_1_1_1_38,2022-05-03T11:58:10.023Z,,,,,,,,,,,,,,,,,54,,,,,,,,,,,,,,409.75599999999395,,response,,,,100,,,,,,,Space,keypress(Space),,,,,,,,-- --- ---- --- ------ ----- ------- ---- -- --- ------- --<br>------- ---------- ------ -- ----- -- ----- -- ---- ------<br>--- ----- --- --- ------ -------- ----- --- ------ ----- --<br>----- ----- ---------- --- --- market ------ ---- -- ------<br>------- --- ------ ----- --- ---- ------- -- ---- --- --<br>------- ------,209597.29999999888,209597,209170.497,209174.90000000037,209187.244,209603.855,,38,market
screen,html.Screen,2_1_1_1_39,2022-05-03T11:58:10.425Z,,,,,,,,,,,,,,,,,54,,,,,,,,,,,,,,393.94499999887194,,response,,,,100,,,,,,,Space,keypress(Space),,,,,,,,-- --- ---- --- ------ ----- ------- ---- -- --- ------- --<br>------- ---------- ------ -- ----- -- ----- -- ---- ------<br>--- ----- --- --- ------ -------- ----- --- ------ ----- --<br>----- ----- ---------- --- --- ------ became ---- -- ------<br>------- --- ------ ----- --- ---- ------- -- ---- --- --<br>------- ------,209998.59999999963,209997.79999999888,209587.18,209597.40000000037,209603.855,210003.955,,39,became
screen,html.Screen,2_1_1_1_40,2022-05-03T11:58:10.945Z,,,,,,,,,,,,,,,,,54,,,,,,,,,,,,,,513.9450000003853,,response,,,,100,,,,,,,Space,keypress(Space),,,,,,,,-- --- ---- --- ------ ----- ------- ---- -- --- ------- --<br>------- ---------- ------ -- ----- -- ----- -- ---- ------<br>--- ----- --- --- ------ -------- ----- --- ------ ----- --<br>----- ----- ---------- --- --- ------ ------ wary -- ------<br>------- --- ------ ----- --- ---- ------- -- ---- --- --<br>------- ------,210518.79999999888,210517.90000000037,209987.216,209998.90000000037,210003.955,210544.041,,40,wary
screen,html.Screen,2_1_1_1_41,2022-05-03T11:58:11.353Z,,,,,,,,,,,,,,,,,54,,,,,,,,,,,,,,381.758999998885,,response,,,,100,,,,,,,Space,keypress(Space),,,,,,,,-- --- ---- --- ------ ----- ------- ---- -- --- ------- --<br>------- ---------- ------ -- ----- -- ----- -- ---- ------<br>--- ----- --- --- ------ -------- ----- --- ------ ----- --<br>----- ----- ---------- --- --- ------ ------ ---- of ------<br>------- --- ------ ----- --- ---- ------- -- ---- --- --<br>------- ------,210926.59999999963,210925.79999999888,210503.784,210519.09999999963,210544.041,210937.295,,41,of
screen,html.Screen,2_1_1_1_42,2022-05-03T11:58:11.809Z,,,,,,,,,,,,,,,,,54,,,,,,,,,,,,,,444.6050000003597,,response,,,,100,,,,,,,Space,keypress(Space),,,,,,,,-- --- ---- --- ------ ----- ------- ---- -- --- ------- --<br>------- ---------- ------ -- ----- -- ----- -- ---- ------<br>--- ----- --- --- ------ -------- ----- --- ------ ----- --<br>----- ----- ---------- --- --- ------ ------ ---- -- French<br>------- --- ------ ----- --- ---- ------- -- ---- --- --<br>------- ------,211382.79999999888,211381.90000000037,210920.549,210926.79999999888,210937.295,211387.262,,42,French
screen,html.Screen,2_1_1_1_43,2022-05-03T11:58:12.657Z,,,,,,,,,,,,,,,,,54,,,,,,,,,,,,,,842.6380000003846,,response,,,,100,,,,,,,Space,keypress(Space),,,,,,,,-- --- ---- --- ------ ----- ------- ---- -- --- ------- --<br>------- ---------- ------ -- ----- -- ----- -- ---- ------<br>--- ----- --- --- ------ -------- ----- --- ------ ----- --<br>----- ----- ---------- --- --- ------ ------ ---- -- ------<br>credit. --- ------ ----- --- ---- ------- -- ---- --- --<br>------- ------,212230.79999999888,212229.90000000037,211370.575,211383,211387.262,212237.331,,43,credit.
screen,html.Screen,2_1_1_1_44,2022-05-03T11:58:13.056Z,,,,,,,,,,,,,,,,,54,,,,,,,,,,,,,,392.06900000036694,,response,,,,100,,,,,,,Space,keypress(Space),,,,,,,,-- --- ---- --- ------ ----- ------- ---- -- --- ------- --<br>------- ---------- ------ -- ----- -- ----- -- ---- ------<br>--- ----- --- --- ------ -------- ----- --- ------ ----- --<br>----- ----- ---------- --- --- ------ ------ ---- -- ------<br>------- The ------ ----- --- ---- ------- -- ---- --- --<br>------- ------,212629.79999999888,212629.40000000037,212220.574,212231,212237.331,212637.307,,44,The
screen,html.Screen,2_1_1_1_45,2022-05-03T11:58:13.449Z,,,,,,,,,,,,,,,,,54,,,,,,,,,,,,,,384.59300000037183,,response,,,,100,,,,,,,Space,keypress(Space),,,,,,,,-- --- ---- --- ------ ----- ------- ---- -- --- ------- --<br>------- ---------- ------ -- ----- -- ----- -- ---- ------<br>--- ----- --- --- ------ -------- ----- --- ------ ----- --<br>----- ----- ---------- --- --- ------ ------ ---- -- ------<br>------- --- French ----- --- ---- ------- -- ---- --- --<br>------- ------,213022.79999999888,213021.90000000037,212620.629,212629.90000000037,212637.307,213037.359,,45,French
screen,html.Screen,2_1_1_1_46,2022-05-03T11:58:13.929Z,,,,,,,,,,,,,,,,,54,,,,,,,,,,,,,,464.5410000003758,,response,,,,100,,,,,,,Space,keypress(Space),,,,,,,,-- --- ---- --- ------ ----- ------- ---- -- --- ------- --<br>------- ---------- ------ -- ----- -- ----- -- ---- ------<br>--- ----- --- --- ------ -------- ----- --- ------ ----- --<br>----- ----- ---------- --- --- ------ ------ ---- -- ------<br>------- --- ------ state --- ---- ------- -- ---- --- --<br>------- ------,213502.79999999888,213501.90000000037,213020.589,213022.90000000037,213037.359,213520.568,,46,state
screen,html.Screen,2_1_1_1_47,2022-05-03T11:58:14.440Z,,,,,,,,,,,,,,,,,54,,,,,,,,,,,,,,492.53199999962817,,response,,,,100,,,,,,,Space,keypress(Space),,,,,,,,-- --- ---- --- ------ ----- ------- ---- -- --- ------- --<br>------- ---------- ------ -- ----- -- ----- -- ---- ------<br>--- ----- --- --- ------ -------- ----- --- ------ ----- --<br>----- ----- ---------- --- --- ------ ------ ---- -- ------<br>------- --- ------ ----- was ---- ------- -- ---- --- --<br>------- ------,214013.59999999963,214013.09999999963,213487.305,213503.09999999963,213520.568,214020.583,,47,was
screen,html.Screen,2_1_1_1_48,2022-05-03T11:58:15.009Z,,,,,,,,,,,,,,,,,54,,,,,,,,,,,,,,561.4169999999867,,response,,,,100,,,,,,,Space,keypress(Space),,,,,,,,-- --- ---- --- ------ ----- ------- ---- -- --- ------- --<br>------- ---------- ------ -- ----- -- ----- -- ---- ------<br>--- ----- --- --- ------ -------- ----- --- ------ ----- --<br>----- ----- ---------- --- --- ------ ------ ---- -- ------<br>------- --- ------ ----- --- left ------- -- ---- --- --<br>------- ------,214582.79999999888,214582,214003.919,214013.69999999925,214020.583,214587.369,,48,left
screen,html.Screen,2_1_1_1_49,2022-05-03T11:58:15.377Z,,,,,,,,,,,,,,,,,54,,,,,,,,,,,,,,362.3309999992489,,response,,,,100,,,,,,,Space,keypress(Space),,,,,,,,-- --- ---- --- ------ ----- ------- ---- -- --- ------- --<br>------- ---------- ------ -- ----- -- ----- -- ---- ------<br>--- ----- --- --- ------ -------- ----- --- ------ ----- --<br>----- ----- ---------- --- --- ------ ------ ---- -- ------<br>------- --- ------ ----- --- ---- without -- ---- --- --<br>------- ------,214950.5,214949.69999999925,214570.642,214583,214587.369,214954.102,,49,without
screen,html.Screen,2_1_1_1_50,2022-05-03T11:58:15.728Z,,,,,,,,,,,,,,,,,54,,,,,,,,,,,,,,347.09799999924144,,response,,,,100,,,,,,,Space,keypress(Space),,,,,,,,-- --- ---- --- ------ ----- ------- ---- -- --- ------- --<br>------- ---------- ------ -- ----- -- ----- -- ---- ------<br>--- ----- --- --- ------ -------- ----- --- ------ ----- --<br>----- ----- ---------- --- --- ------ ------ ---- -- ------<br>------- --- ------ ----- --- ---- ------- an ---- --- --<br>------- ------,215301.79999999888,215301.19999999925,214937.347,214950.79999999888,214954.102,215303.984,,50,an
screen,html.Screen,2_1_1_1_51,2022-05-03T11:58:16.200Z,,,,,,,,,,,,,,,,,54,,,,,,,,,,,,,,469.3159999988857,,response,,,,100,,,,,,,Space,keypress(Space),,,,,,,,-- --- ---- --- ------ ----- ------- ---- -- --- ------- --<br>------- ---------- ------ -- ----- -- ----- -- ---- ------<br>--- ----- --- --- ------ -------- ----- --- ------ ----- --<br>----- ----- ---------- --- --- ------ ------ ---- -- ------<br>------- --- ------ ----- --- ---- ------- -- easy --- --<br>------- ------,215773.69999999925,215773.29999999888,215287.38,215301.79999999888,215303.984,215787.47,,51,easy
screen,html.Screen,2_1_1_1_52,2022-05-03T11:58:16.593Z,,,,,,,,,,,,,,,,,54,,,,,,,,,,,,,,378.32999999888125,,response,,,,100,,,,,,,Space,keypress(Space),,,,,,,,-- --- ---- --- ------ ----- ------- ---- -- --- ------- --<br>------- ---------- ------ -- ----- -- ----- -- ---- ------<br>--- ----- --- --- ------ -------- ----- --- ------ ----- --<br>----- ----- ---------- --- --- ------ ------ ---- -- ------<br>------- --- ------ ----- --- ---- ------- -- ---- way --<br>------- ------,216166.59999999963,216165.79999999888,215770.709,215773.90000000037,215787.47,216170.761,,52,way
screen,html.Screen,2_1_1_1_53,2022-05-03T11:58:17.112Z,,,,,,,,,,,,,,,,,54,,,,,,,,,,,,,,514.6390000003739,,response,,,,100,,,,,,,Space,keypress(Space),,,,,,,,-- --- ---- --- ------ ----- ------- ---- -- --- ------- --<br>------- ---------- ------ -- ----- -- ----- -- ---- ------<br>--- ----- --- --- ------ -------- ----- --- ------ ----- --<br>----- ----- ---------- --- --- ------ ------ ---- -- ------<br>------- --- ------ ----- --- ---- ------- -- ---- --- of<br>------- ------,216685.90000000037,216685.40000000037,216154.026,216166.79999999888,216170.761,216687.364,,53,of
screen,html.Screen,2_1_1_1_54,2022-05-03T11:58:17.497Z,,,,,,,,,,,,,,,,,54,,,,,,,,,,,,,,382.53600000037113,,response,,,,100,,,,,,,Space,keypress(Space),,,,,,,,-- --- ---- --- ------ ----- ------- ---- -- --- ------- --<br>------- ---------- ------ -- ----- -- ----- -- ---- ------<br>--- ----- --- --- ------ -------- ----- --- ------ ----- --<br>----- ----- ---------- --- --- ------ ------ ---- -- ------<br>------- --- ------ ----- --- ---- ------- -- ---- --- --<br>raising ------,217070.79999999888,217069.90000000037,216670.735,216686,216687.364,217087.495,,54,raising
screen,html.Screen,2_1_1_1_55,2022-05-03T11:58:17.833Z,,,,,,,,,,,,,,,,,54,,,,,,,,,,,,,,318.4050000003772,,response,,,,100,,,,,,,Space,keypress(Space),,,,,,,,-- --- ---- --- ------ ----- ------- ---- -- --- ------- --<br>------- ---------- ------ -- ----- -- ----- -- ---- ------<br>--- ----- --- --- ------ -------- ----- --- ------ ----- --<br>----- ----- ---------- --- --- ------ ------ ---- -- ------<br>------- --- ------ ----- --- ---- ------- -- ---- --- --<br>------- money.,217406.59999999963,217405.90000000037,217070.719,217071,217087.495,217420.79,,55,money.
Item 100,flow.Loop,2_1_1_1,2022-05-03T11:58:17.833Z,,,,,,,,,,,,,,,,,,,,,,,,,,,,,,,25685.90300000037,,completion,,,,,H,,,,,,,,,,,silence,,,,,217407,217405.90000000037,191703.304,191703.90000000037,191719.997,217420.79,,,
Question 1,html.Screen,2_1_1_2,2022-05-03T11:58:21.008Z,,,,,,,,,,,,,,,,,,,,,,,,,,,,true,TRUE,,3160.209999999992,,response,,,,100,H,,,,,,TRUE,click #choice-1,,,,silence,,,,,220581.59999999963,220581,217404.071,217407.09999999963,217420.79,220587.489,,,
Question 2,html.Screen,2_1_1_3,2022-05-03T11:58:23.424Z,,,,,,,,,,,,,,,,,,,,,,,,,,,,true,FALSE,,2409.5109999999986,,response,,,,100,H,,,,,,FALSE,click #choice-2,,,,silence,,,,,222997.59999999963,222997,220570.897,220581.69999999925,220587.489,223004.224,,,
Item 100,flow.Sequence,2_1_1,2022-05-03T11:58:23.424Z,,,,,,,,,,,,,,,,,,,,,,,,,,,,,,,41280.905,,completion,,,,,,,,,,,,,,,,,,,,,222997.59999999963,222997,181669.704,181686,181716.095,223004.224,,,
End of Practice,html.Page,2_1_2,2022-05-03T11:58:31.464Z,,,,,,,,,,,,,,,,,,,,,,,,,,,,,,,8033.276000000013,,form submission,,,,,,,,,,,,,,,,,,,,,231037.69999999925,231037.5,222987.632,222997.69999999925,223004.224,231037.805,,,
Practice,flow.Sequence,2_1,2022-05-03T11:58:31.464Z,,,,,,,,,,,,,,,,,,,,,,,,,,,,,,,89019.10800000001,,completion,,,,,,,,,,,,,,,,,,,,,231037.79999999888,231037.5,142001.749,142013.79999999888,142018.392,231037.805,,,
Trap_instruction,html.Page,2_2_0,2022-05-03T11:58:35.688Z,,,,,,,,,,,,,,,,,,,,,,,,,,,,,,,4223.695000000007,,form submission,,,,,,,,,,,,,,,,,,,,,235261.69999999925,235261.5,231021.225,231037.90000000037,231037.805,235287.96,,,
trap_trial,html.Screen,2_2_1,2022-05-03T11:58:45.647Z,,,,,,,,,,,,,,,,,,,,,,,,,,,,true,1,,9933.139999999636,,response,,,,,,,,,,,1,click #choice-1,,,,,,,,,245221.5,245221.09999999963,235254.63,235261.69999999925,235287.96,245238.227,,,
end of trap trial,html.Page,2_2_2,2022-05-03T11:58:47.048Z,,,,,,,,,,,,,,,,,,,,,,,,,,,,,,,1383.372999999614,,form submission,,,,,,,,,,,,,,,,,,,,,246621.90000000037,246621.59999999963,245204.948,245221.59999999963,245238.227,246649.269,,,
Trap 1,flow.Sequence,2_2,2022-05-03T11:58:47.048Z,,,,,,,,,,,,,,,,,,,,,,,,,,,,,,,15583.794999999634,,completion,,,,,,,,,,,,,,,,,,,,,246622.09999999963,246621.59999999963,231021.225,231037.79999999888,231037.805,246649.269,,,
Standby,html.Page,2_3_0,2022-05-03T11:58:55.066Z,,,,,,,,,,,,,,,,,,,,,,,,,,,,,,,8006,,timeout,,,,,,,,,,,,,,,,,,,,,254639.5,254638.609,246605.021,246622.19999999925,246649.269,254655.269,,,
Holding screen,html.Screen,2_3_1_0_0,2022-05-03T11:59:02.066Z,,,,,,,,,,,,,,,,,,,,,,,,,,,,,,,7000.219000000012,,timeout,,,,,,,,,,,,,,,,,,,,,261639.59999999963,261638.837,254638.609,254639.79999999888,254655.269,261655.488,,,
screen,html.Screen,2_3_1_0_1_0,2022-05-03T11:59:03.705Z,,,,,,,,,,,,,,,,,40,,,,,,,,,,,,,,1622.6119999996154,,response,,,,9,H,,,,,,Space,keypress(Space),,,,speech,,,,Police -- ------- ---- ---- ---- - -------- ----- --- --<br>----- ----- ------ -- ---- -- --- - ---- -- - ----- -----<br>------ ---- ------ ---- - -------- ------- -- --- --------<br>-------- ----------- ---- ------ ---- ------ ---- --- ---<br>-------- --- -----,263278.9000000004,263278.0999999996,261638.837,261639.90000000037,261655.488,263288.919,,0,Police
screen,html.Screen,2_3_1_0_1_1,2022-05-03T11:59:04.064Z,,,,,,,,,,,,,,,,,40,,,,,,,,,,,,,,348.18099999963306,,response,,,,9,H,,,,,,Space,keypress(Space),,,,speech,,,,------ in ------- ---- ---- ---- - -------- ----- --- --<br>----- ----- ------ -- ---- -- --- - ---- -- - ----- -----<br>------ ---- ------ ---- - -------- ------- -- --- --------<br>-------- ----------- ---- ------ ---- ------ ---- --- ---<br>-------- --- -----,263637.5,263637.0999999996,263272.046,263279.0999999996,263288.919,263662.078,,1,in
screen,html.Screen,2_3_1_0_1_2,2022-05-03T11:59:04.737Z,,,,,,,,,,,,,,,,,40,,,,,,,,,,,,,,647.822000000393,,response,,,,9,H,,,,,,Space,keypress(Space),,,,speech,,,,------ -- Georgia ---- ---- ---- - -------- ----- --- --<br>----- ----- ------ -- ---- -- --- - ---- -- - ----- -----<br>------ ---- ------ ---- - -------- ------- -- --- --------<br>-------- ----------- ---- ------ ---- ------ ---- --- ---<br>-------- --- -----,264310.7999999989,264309.9000000004,263622.204,263637.5,263662.078,264322.292,,2,Georgia
screen,html.Screen,2_3_1_0_1_3,2022-05-03T11:59:05.120Z,,,,,,,,,,,,,,,,,40,,,,,,,,,,,,,,370.9079999992391,,response,,,,9,H,,,,,,Space,keypress(Space),,,,speech,,,,------ -- ------- have ---- ---- - -------- ----- --- --<br>----- ----- ------ -- ---- -- --- - ---- -- - ----- -----<br>------ ---- ------ ---- - -------- ------- -- --- --------<br>-------- ----------- ---- ------ ---- ------ ---- --- ---<br>-------- --- -----,264693.5,264693.19999999925,264305.529,264311,264322.292,264705.535,,3,have
screen,html.Screen,2_3_1_0_1_4,2022-05-03T11:59:05.537Z,,,,,,,,,,,,,,,,,40,,,,,,,,,,,,,,404.264999998908,,response,,,,9,H,,,,,,Space,keypress(Space),,,,speech,,,,------ -- ------- ---- shut ---- - -------- ----- --- --<br>----- ----- ------ -- ---- -- --- - ---- -- - ----- -----<br>------ ---- ------ ---- - -------- ------- -- --- --------<br>-------- ----------- ---- ------ ---- ------ ---- --- ---<br>-------- --- -----,265110.69999999925,265109.7999999989,264688.867,264693.5999999996,264705.535,265122.31,,4,shut
screen,html.Screen,2_3_1_0_1_5,2022-05-03T11:59:06.121Z,,,,,,,,,,,,,,,,,40,,,,,,,,,,,,,,571.4899999988847,,response,,,,9,H,,,,,,Space,keypress(Space),,,,speech,,,,------ -- ------- ---- ---- down - -------- ----- --- --<br>----- ----- ------ -- ---- -- --- - ---- -- - ----- -----<br>------ ---- ------ ---- - -------- ------- -- --- --------<br>-------- ----------- ---- ------ ---- ------ ---- --- ---<br>-------- --- -----,265694.69999999925,265693.7999999989,265105.551,265110.9000000004,265122.31,265705.659,,5,down
screen,html.Screen,2_3_1_0_1_6,2022-05-03T11:59:08.200Z,,,,,,,,,,,,,,,,,40,,,,,,,,,,,,,,2067.341000000015,,response,,,,9,H,,,,,,Space,keypress(Space),,,,speech,,,,------ -- ------- ---- ---- ---- a -------- ----- --- --<br>----- ----- ------ -- ---- -- --- - ---- -- - ----- -----<br>------ ---- ------ ---- - -------- ------- -- --- --------<br>-------- ----------- ---- ------ ---- ------ ---- --- ---<br>-------- --- -----,267773.4000000004,267773,265688.915,265694.9000000004,265705.659,267788.988,,6,a
screen,html.Screen,2_3_1_0_1_7,2022-05-03T11:59:08.872Z,,,,,,,,,,,,,,,,,40,,,,,,,,,,,,,,655.8119999988703,,response,,,,9,H,,,,,,Space,keypress(Space),,,,speech,,,,------ -- ------- ---- ---- ---- - lemonade ----- --- --<br>----- ----- ------ -- ---- -- --- - ---- -- - ----- -----<br>------ ---- ------ ---- - -------- ------- -- --- --------<br>-------- ----------- ---- ------ ---- ------ ---- --- ---<br>-------- --- -----,268445.19999999925,268444.7999999989,267772.207,267773.5,267788.988,268455.643,,7,lemonade
screen,html.Screen,2_3_1_0_1_8,2022-05-03T11:59:09.249Z,,,,,,,,,,,,,,,,,40,,,,,,,,,,,,,,366.2570000003907,,response,,,,9,H,,,,,,Space,keypress(Space),,,,speech,,,,------ -- ------- ---- ---- ---- - -------- stand --- --<br>----- ----- ------ -- ---- -- --- - ---- -- - ----- -----<br>------ ---- ------ ---- - -------- ------- -- --- --------<br>-------- ----------- ---- ------ ---- ------ ---- --- ---<br>-------- --- -----,268822.69999999925,268821.9000000004,268438.865,268445.2999999989,268455.643,268839.058,,8,stand
screen,html.Screen,2_3_1_0_1_9,2022-05-03T11:59:09.841Z,,,,,,,,,,,,,,,,,40,,,,,,,,,,,,,,574.7419999988633,,response,,,,9,H,,,,,,Space,keypress(Space),,,,speech,,,,------ -- ------- ---- ---- ---- - -------- ----- run --<br>----- ----- ------ -- ---- -- --- - ---- -- - ----- -----<br>------ ---- ------ ---- - -------- ------- -- --- --------<br>-------- ----------- ---- ------ ---- ------ ---- --- ---<br>-------- --- -----,269414.7999999989,269413.7999999989,268822.336,268822.7999999989,268839.058,269422.301,,9,run
screen,html.Screen,2_3_1_0_1_10,2022-05-03T11:59:10.281Z,,,,,,,,,,,,,,,,,40,,,,,,,,,,,,,,431.2989999996498,,response,,,,9,H,,,,,,Space,keypress(Space),,,,speech,,,,------ -- ------- ---- ---- ---- - -------- ----- --- by<br>----- ----- ------ -- ---- -- --- - ---- -- - ----- -----<br>------ ---- ------ ---- - -------- ------- -- --- --------<br>-------- ----------- ---- ------ ---- ------ ---- --- ---<br>-------- --- -----,269854.5,269853.5999999996,269405.689,269415,269422.301,269872.433,,10,by
screen,html.Screen,2_3_1_0_1_11,2022-05-03T11:59:11.912Z,,,,,,,,,,,,,,,,,40,,,,,,,,,,,,,,1613.066999999981,,response,,,,9,H,,,,,,Space,keypress(Space),,,,speech,,,,------ -- ------- ---- ---- ---- - -------- ----- --- --<br>three ----- ------ -- ---- -- --- - ---- -- - ----- -----<br>------ ---- ------ ---- - -------- ------- -- --- --------<br>-------- ----------- ---- ------ ---- ------ ---- --- ---<br>-------- --- -----,271485.9000000004,271485.5,269839.007,269854.69999999925,269872.433,271489.111,,11,three
screen,html.Screen,2_3_1_0_1_12,2022-05-03T11:59:12.482Z,,,,,,,,,,,,,,,,,40,,,,,,,,,,,,,,565.0889999992796,,response,,,,9,H,,,,,,Space,keypress(Space),,,,speech,,,,------ -- ------- ---- ---- ---- - -------- ----- --- --<br>----- girls ------ -- ---- -- --- - ---- -- - ----- -----<br>------ ---- ------ ---- - -------- ------- -- --- --------<br>-------- ----------- ---- ------ ---- ------ ---- --- ---<br>-------- --- -----,272055,272054.19999999925,271472.416,271486.0999999996,271489.111,272072.53,,12,girls
screen,html.Screen,2_3_1_0_1_13,2022-05-03T11:59:12.921Z,,,,,,,,,,,,,,,,,40,,,,,,,,,,,,,,421.3700000003446,,response,,,,9,H,,,,,,Space,keypress(Space),,,,speech,,,,------ -- ------- ---- ---- ---- - -------- ----- --- --<br>----- ----- trying -- ---- -- --- - ---- -- - ----- -----<br>------ ---- ------ ---- - -------- ------- -- --- --------<br>-------- ----------- ---- ------ ---- ------ ---- --- ---<br>-------- --- -----,272494.69999999925,272493.9000000004,272055.729,272055.2999999989,272072.53,272505.883,,13,trying
screen,html.Screen,2_3_1_0_1_14,2022-05-03T11:59:13.257Z,,,,,,,,,,,,,,,,,40,,,,,,,,,,,,,,323.9169999989099,,response,,,,9,H,,,,,,Space,keypress(Space),,,,speech,,,,------ -- ------- ---- ---- ---- - -------- ----- --- --<br>----- ----- ------ to ---- -- --- - ---- -- - ----- -----<br>------ ---- ------ ---- - -------- ------- -- --- --------<br>-------- ----------- ---- ------ ---- ------ ---- --- ---<br>-------- --- -----,272830.69999999925,272829.7999999989,272489.138,272495,272505.883,272839.216,,14,to
screen,html.Screen,2_3_1_0_1_15,2022-05-03T11:59:13.810Z,,,,,,,,,,,,,,,,,40,,,,,,,,,,,,,,543.2839999999851,,response,,,,9,H,,,,,,Space,keypress(Space),,,,speech,,,,------ -- ------- ---- ---- ---- - -------- ----- --- --<br>----- ----- ------ -- save -- --- - ---- -- - ----- -----<br>------ ---- ------ ---- - -------- ------- -- --- --------<br>-------- ----------- ---- ------ ---- ------ ---- --- ---<br>-------- --- -----,273383.5,273382.5,272822.488,272830.7999999989,272839.216,273389.204,,15,save
screen,html.Screen,2_3_1_0_1_16,2022-05-03T11:59:14.217Z,,,,,,,,,,,,,,,,,40,,,,,,,,,,,,,,400.89599999960046,,response,,,,9,H,,,,,,Space,keypress(Space),,,,speech,,,,------ -- ------- ---- ---- ---- - -------- ----- --- --<br>----- ----- ------ -- ---- up --- - ---- -- - ----- -----<br>------ ---- ------ ---- - -------- ------- -- --- --------<br>-------- ----------- ---- ------ ---- ------ ---- --- ---<br>-------- --- -----,273791.0999999996,273790.0999999996,273372.492,273383.69999999925,273389.204,273805.91,,16,up
screen,html.Screen,2_3_1_0_1_17,2022-05-03T11:59:14.600Z,,,,,,,,,,,,,,,,,40,,,,,,,,,,,,,,367.389999998908,,response,,,,9,H,,,,,,Space,keypress(Space),,,,speech,,,,------ -- ------- ---- ---- ---- - -------- ----- --- --<br>----- ----- ------ -- ---- -- for - ---- -- - ----- -----<br>------ ---- ------ ---- - -------- ------- -- --- --------<br>-------- ----------- ---- ------ ---- ------ ---- --- ---<br>-------- --- -----,274173.69999999925,274173.2999999989,273789.179,273791.2999999989,273805.91,274189.255,,17,for
screen,html.Screen,2_3_1_0_1_18,2022-05-03T11:59:14.913Z,,,,,,,,,,,,,,,,,40,,,,,,,,,,,,,,296.4449999992503,,response,,,,9,H,,,,,,Space,keypress(Space),,,,speech,,,,------ -- ------- ---- ---- ---- - -------- ----- --- --<br>----- ----- ------ -- ---- -- --- a ---- -- - ----- -----<br>------ ---- ------ ---- - -------- ------- -- --- --------<br>-------- ----------- ---- ------ ---- ------ ---- --- ---<br>-------- --- -----,274486.5,274485.69999999925,274172.521,274173.7999999989,274189.255,274489.255,,18,a
screen,html.Screen,2_3_1_0_1_19,2022-05-03T11:59:15.249Z,,,,,,,,,,,,,,,,,40,,,,,,,,,,,,,,332.54499999887776,,response,,,,9,H,,,,,,Space,keypress(Space),,,,speech,,,,------ -- ------- ---- ---- ---- - -------- ----- --- --<br>----- ----- ------ -- ---- -- --- - trip -- - ----- -----<br>------ ---- ------ ---- - -------- ------- -- --- --------<br>-------- ----------- ---- ------ ---- ------ ---- --- ---<br>-------- --- -----,274822.5999999996,274821.7999999989,274472.545,274486.7999999989,274489.255,274839.285,,19,trip
screen,html.Screen,2_3_1_0_1_20,2022-05-03T11:59:15.600Z,,,,,,,,,,,,,,,,,40,,,,,,,,,,,,,,334.014999998908,,response,,,,9,H,,,,,,Space,keypress(Space),,,,speech,,,,------ -- ------- ---- ---- ---- - -------- ----- --- --<br>----- ----- ------ -- ---- -- --- - ---- to - ----- -----<br>------ ---- ------ ---- - -------- ------- -- --- --------<br>-------- ----------- ---- ------ ---- ------ ---- --- ---<br>-------- --- -----,275173.9000000004,275173.2999999989,274822.572,274822.9000000004,274839.285,275189.233,,20,to
screen,html.Screen,2_3_1_0_1_21,2022-05-03T11:59:15.904Z,,,,,,,,,,,,,,,,,40,,,,,,,,,,,,,,287.76699999999255,,response,,,,9,H,,,,,,Space,keypress(Space),,,,speech,,,,------ -- ------- ---- ---- ---- - -------- ----- --- --<br>----- ----- ------ -- ---- -- --- - ---- -- a ----- -----<br>------ ---- ------ ---- - -------- ------- -- --- --------<br>-------- ----------- ---- ------ ---- ------ ---- --- ---<br>-------- --- -----,275477.4000000004,275477,275172.567,275173.9000000004,275189.233,275489.273,,21,a
screen,html.Screen,2_3_1_0_1_22,2022-05-03T11:59:16.257Z,,,,,,,,,,,,,,,,,40,,,,,,,,,,,,,,340.5269999988959,,response,,,,9,H,,,,,,Space,keypress(Space),,,,speech,,,,------ -- ------- ---- ---- ---- - -------- ----- --- --<br>----- ----- ------ -- ---- -- --- - ---- -- - water -----<br>------ ---- ------ ---- - -------- ------- -- --- --------<br>-------- ----------- ---- ------ ---- ------ ---- --- ---<br>-------- --- -----,275830.69999999925,275829.7999999989,275472.625,275477.5,275489.273,275839.242,,22,water
screen,html.Screen,2_3_1_0_1_23,2022-05-03T11:59:16.673Z,,,,,,,,,,,,,,,,,40,,,,,,,,,,,,,,406.45799999922747,,response,,,,9,H,,,,,,Space,keypress(Space),,,,speech,,,,"------ -- ------- ---- ---- ---- - -------- ----- --- --<br>----- ----- ------ -- ---- -- --- - ---- -- - ----- park,<br>------ ---- ------ ---- - -------- ------- -- --- --------<br>-------- ----------- ---- ------ ---- ------ ---- --- ---<br>-------- --- -----",276246.69999999925,276245.69999999925,275822.531,275830.9000000004,275839.242,276255.937,,23,"park,"
screen,html.Screen,2_3_1_0_1_24,2022-05-03T11:59:17.105Z,,,,,,,,,,,,,,,,,40,,,,,,,,,,,,,,421.9630000003963,,response,,,,9,H,,,,,,Space,keypress(Space),,,,speech,,,,------ -- ------- ---- ---- ---- - -------- ----- --- --<br>----- ----- ------ -- ---- -- --- - ---- -- - ----- -----<br>saying ---- ------ ---- - -------- ------- -- --- --------<br>-------- ----------- ---- ------ ---- ------ ---- --- ---<br>-------- --- -----,276678.69999999925,276677.9000000004,276239.234,276246.9000000004,276255.937,276689.325,,24,saying
screen,html.Screen,2_3_1_0_1_25,2022-05-03T11:59:17.457Z,,,,,,,,,,,,,,,,,40,,,,,,,,,,,,,,340.47499999887077,,response,,,,9,H,,,,,,Space,keypress(Space),,,,speech,,,,------ -- ------- ---- ---- ---- - -------- ----- --- --<br>----- ----- ------ -- ---- -- --- - ---- -- - ----- -----<br>------ they ------ ---- - -------- ------- -- --- --------<br>-------- ----------- ---- ------ ---- ------ ---- --- ---<br>-------- --- -----,277030.5999999996,277029.7999999989,276672.572,276679,276689.325,277039.339,,25,they
screen,html.Screen,2_3_1_0_1_26,2022-05-03T11:59:17.857Z,,,,,,,,,,,,,,,,,40,,,,,,,,,,,,,,390.4609999989043,,response,,,,9,H,,,,,,Space,keypress(Space),,,,speech,,,,------ -- ------- ---- ---- ---- - -------- ----- --- --<br>----- ----- ------ -- ---- -- --- - ---- -- - ----- -----<br>------ ---- didn't ---- - -------- ------- -- --- --------<br>-------- ----------- ---- ------ ---- ------ ---- --- ---<br>-------- --- -----,277430.69999999925,277429.7999999989,277022.577,277030.7999999989,277039.339,277439.352,,26,didn't
screen,html.Screen,2_3_1_0_1_27,2022-05-03T11:59:18.289Z,,,,,,,,,,,,,,,,,40,,,,,,,,,,,,,,422.4479999988689,,response,,,,9,H,,,,,,Space,keypress(Space),,,,speech,,,,------ -- ------- ---- ---- ---- - -------- ----- --- --<br>----- ----- ------ -- ---- -- --- - ---- -- - ----- -----<br>------ ---- ------ have - -------- ------- -- --- --------<br>-------- ----------- ---- ------ ---- ------ ---- --- ---<br>-------- --- -----,277862.69999999925,277861.7999999989,277422.622,277430.9000000004,277439.352,277872.707,,27,have
screen,html.Screen,2_3_1_0_1_28,2022-05-03T11:59:18.657Z,,,,,,,,,,,,,,,,,40,,,,,,,,,,,,,,357.49299999926006,,response,,,,9,H,,,,,,Space,keypress(Space),,,,speech,,,,------ -- ------- ---- ---- ---- - -------- ----- --- --<br>----- ----- ------ -- ---- -- --- - ---- -- - ----- -----<br>------ ---- ------ ---- a -------- ------- -- --- --------<br>-------- ----------- ---- ------ ---- ------ ---- --- ---<br>-------- --- -----,278231,278230.19999999925,277855.941,277862.9000000004,277872.707,278239.379,,28,a
screen,html.Screen,2_3_1_0_1_29,2022-05-03T11:59:19.001Z,,,,,,,,,,,,,,,,,40,,,,,,,,,,,,,,334.42099999886705,,response,,,,9,H,,,,,,Space,keypress(Space),,,,speech,,,,------ -- ------- ---- ---- ---- - -------- ----- --- --<br>----- ----- ------ -- ---- -- --- - ---- -- - ----- -----<br>------ ---- ------ ---- - business ------- -- --- --------<br>-------- ----------- ---- ------ ---- ------ ---- --- ---<br>-------- --- -----,278574.5999999996,278573.7999999989,278222.655,278231.2999999989,278239.379,278589.403,,29,business
screen,html.Screen,2_3_1_0_1_30,2022-05-03T11:59:19.361Z,,,,,,,,,,,,,,,,,40,,,,,,,,,,,,,,344.4970000003814,,response,,,,9,H,,,,,,Space,keypress(Space),,,,speech,,,,------ -- ------- ---- ---- ---- - -------- ----- --- --<br>----- ----- ------ -- ---- -- --- - ---- -- - ----- -----<br>------ ---- ------ ---- - -------- license -- --- --------<br>-------- ----------- ---- ------ ---- ------ ---- --- ---<br>-------- --- -----,278934.69999999925,278933.9000000004,278572.657,278574.9000000004,278589.403,278939.352,,30,license
screen,html.Screen,2_3_1_0_1_31,2022-05-03T11:59:19.712Z,,,,,,,,,,,,,,,,,40,,,,,,,,,,,,,,345.4479999988689,,response,,,,9,H,,,,,,Space,keypress(Space),,,,speech,,,,------ -- ------- ---- ---- ---- - -------- ----- --- --<br>----- ----- ------ -- ---- -- --- - ---- -- - ----- -----<br>------ ---- ------ ---- - -------- ------- or --- --------<br>-------- ----------- ---- ------ ---- ------ ---- --- ---<br>-------- --- -----,279285.2999999989,279284.7999999989,278922.688,278934.9000000004,278939.352,279289.269,,31,or
screen,html.Screen,2_3_1_0_1_32,2022-05-03T11:59:20.065Z,,,,,,,,,,,,,,,,,40,,,,,,,,,,,,,,348.5309999989113,,response,,,,9,H,,,,,,Space,keypress(Space),,,,speech,,,,------ -- ------- ---- ---- ---- - -------- ----- --- --<br>----- ----- ------ -- ---- -- --- - ---- -- - ----- -----<br>------ ---- ------ ---- - -------- ------- -- the --------<br>-------- ----------- ---- ------ ---- ------ ---- --- ---<br>-------- --- -----,279638.69999999925,279637.7999999989,279272.677,279285.2999999989,279289.269,279656.075,,32,the
screen,html.Screen,2_3_1_0_1_33,2022-05-03T11:59:20.401Z,,,,,,,,,,,,,,,,,40,,,,,,,,,,,,,,317.6249999992433,,response,,,,9,H,,,,,,Space,keypress(Space),,,,speech,,,,------ -- ------- ---- ---- ---- - -------- ----- --- --<br>----- ----- ------ -- ---- -- --- - ---- -- - ----- -----<br>------ ---- ------ ---- - -------- ------- -- --- required<br>-------- ----------- ---- ------ ---- ------ ---- --- ---<br>-------- --- -----,279974.5999999996,279973.69999999925,279639.299,279638.9000000004,279656.075,279989.43,,33,required
screen,html.Screen,2_3_1_0_1_34,2022-05-03T11:59:20.777Z,,,,,,,,,,,,,,,,,40,,,,,,,,,,,,,,360.2699999992619,,response,,,,9,H,,,,,,Space,keypress(Space),,,,speech,,,,------ -- ------- ---- ---- ---- - -------- ----- --- --<br>----- ----- ------ -- ---- -- --- - ---- -- - ----- -----<br>------ ---- ------ ---- - -------- ------- -- --- --------<br>permits. ----------- ---- ------ ---- ------ ---- --- ---<br>-------- --- -----,280350.5999999996,280349.69999999925,279972.681,279974.7999999989,279989.43,280356.062,,34,permits.
screen,html.Screen,2_3_1_0_1_35,2022-05-03T11:59:21.152Z,,,,,,,,,,,,,,,,,40,,,,,,,,,,,,,,368.93800000002375,,response,,,,9,H,,,,,,Space,keypress(Space),,,,speech,,,,------ -- ------- ---- ---- ---- - -------- ----- --- --<br>----- ----- ------ -- ---- -- --- - ---- -- - ----- -----<br>------ ---- ------ ---- - -------- ------- -- --- --------<br>-------- Morningstar ---- ------ ---- ------ ---- --- ---<br>-------- --- -----,280725.4000000004,280725,280339.377,280350.7999999989,280356.062,280739.432,,35,Morningstar
screen,html.Screen,2_3_1_0_1_36,2022-05-03T11:59:21.601Z,,,,,,,,,,,,,,,,,40,,,,,,,,,,,,,,434.3679999989108,,response,,,,9,H,,,,,,Space,keypress(Space),,,,speech,,,,------ -- ------- ---- ---- ---- - -------- ----- --- --<br>----- ----- ------ -- ---- -- --- - ---- -- - ----- -----<br>------ ---- ------ ---- - -------- ------- -- --- --------<br>-------- ----------- says ------ ---- ------ ---- --- ---<br>-------- --- -----,281174.7999999989,281173.7999999989,280722.732,280725.5,280739.432,281189.474,,36,says
screen,html.Screen,2_3_1_0_1_37,2022-05-03T11:59:21.985Z,,,,,,,,,,,,,,,,,40,,,,,,,,,,,,,,368.2259999992675,,response,,,,9,H,,,,,,Space,keypress(Space),,,,speech,,,,------ -- ------- ---- ---- ---- - -------- ----- --- --<br>----- ----- ------ -- ---- -- --- - ---- -- - ----- -----<br>------ ---- ------ ---- - -------- ------- -- --- --------<br>-------- ----------- ---- police ---- ------ ---- --- ---<br>-------- --- -----,281558.5,281557.69999999925,281172.741,281175,281189.474,281572.721,,37,police
screen,html.Screen,2_3_1_0_1_38,2022-05-03T11:59:22.345Z,,,,,,,,,,,,,,,,,40,,,,,,,,,,,,,,345.17900000035297,,response,,,,9,H,,,,,,Space,keypress(Space),,,,speech,,,,------ -- ------- ---- ---- ---- - -------- ----- --- --<br>----- ----- ------ -- ---- -- --- - ---- -- - ----- -----<br>------ ---- ------ ---- - -------- ------- -- --- --------<br>-------- ----------- ---- ------ also ------ ---- --- ---<br>-------- --- -----,281918.69999999925,281917.9000000004,281556.086,281558.7999999989,281572.721,281922.815,,38,also
screen,html.Screen,2_3_1_0_1_39,2022-05-03T11:59:22.729Z,,,,,,,,,,,,,,,,,40,,,,,,,,,,,,,,378.9849999988801,,response,,,,9,H,,,,,,Space,keypress(Space),,,,speech,,,,------ -- ------- ---- ---- ---- - -------- ----- --- --<br>----- ----- ------ -- ---- -- --- - ---- -- - ----- -----<br>------ ---- ------ ---- - -------- ------- -- --- --------<br>-------- ----------- ---- ------ ---- didn't ---- --- ---<br>-------- --- -----,282302.5999999996,282301.7999999989,281906.051,281918.9000000004,281922.815,282306.137,,39,didn't
screen,html.Screen,2_3_1_0_1_40,2022-05-03T11:59:23.128Z,,,,,,,,,,,,,,,,,40,,,,,,,,,,,,,,394.76300000038464,,response,,,,9,H,,,,,,Space,keypress(Space),,,,speech,,,,------ -- ------- ---- ---- ---- - -------- ----- --- --<br>----- ----- ------ -- ---- -- --- - ---- -- - ----- -----<br>------ ---- ------ ---- - -------- ------- -- --- --------<br>-------- ----------- ---- ------ ---- ------ know --- ---<br>-------- --- -----,282701.4000000004,282700.9000000004,282289.436,282302.7999999989,282306.137,282706.137,,40,know
screen,html.Screen,2_3_1_0_1_41,2022-05-03T11:59:23.577Z,,,,,,,,,,,,,,,,,40,,,,,,,,,,,,,,443.6629999988945,,response,,,,9,H,,,,,,Space,keypress(Space),,,,speech,,,,------ -- ------- ---- ---- ---- - -------- ----- --- --<br>----- ----- ------ -- ---- -- --- - ---- -- - ----- -----<br>------ ---- ------ ---- - -------- ------- -- --- --------<br>-------- ----------- ---- ------ ---- ------ ---- how ---<br>-------- --- -----,283150.69999999925,283149.7999999989,282689.397,282701.4000000004,282706.137,283156.184,,41,how
screen,html.Screen,2_3_1_0_1_42,2022-05-03T11:59:24.089Z,,,,,,,,,,,,,,,,,40,,,,,,,,,,,,,,505.71600000036415,,response,,,,9,H,,,,,,Space,keypress(Space),,,,speech,,,,------ -- ------- ---- ---- ---- - -------- ----- --- --<br>----- ----- ------ -- ---- -- --- - ---- -- - ----- -----<br>------ ---- ------ ---- - -------- ------- -- --- --------<br>-------- ----------- ---- ------ ---- ------ ---- --- the<br>-------- --- -----,283662.4000000004,283661.9000000004,283139.46,283150.9000000004,283156.184,283672.877,,42,the
screen,html.Screen,2_3_1_0_1_43,2022-05-03T11:59:24.617Z,,,,,,,,,,,,,,,,,40,,,,,,,,,,,,,,516.9229999989038,,response,,,,9,H,,,,,,Space,keypress(Space),,,,speech,,,,------ -- ------- ---- ---- ---- - -------- ----- --- --<br>----- ----- ------ -- ---- -- --- - ---- -- - ----- -----<br>------ ---- ------ ---- - -------- ------- -- --- --------<br>-------- ----------- ---- ------ ---- ------ ---- --- ---<br>lemonade --- -----,284190.69999999925,284189.7999999989,283656.121,283662.69999999925,283672.877,284206.236,,43,lemonade
screen,html.Screen,2_3_1_0_1_44,2022-05-03T11:59:25.065Z,,,,,,,,,,,,,,,,,40,,,,,,,,,,,,,,431.5639999989071,,response,,,,9,H,,,,,,Space,keypress(Space),,,,speech,,,,------ -- ------- ---- ---- ---- - -------- ----- --- --<br>----- ----- ------ -- ---- -- --- - ---- -- - ----- -----<br>------ ---- ------ ---- - -------- ------- -- --- --------<br>-------- ----------- ---- ------ ---- ------ ---- --- ---<br>-------- was -----,284638.5999999996,284637.7999999989,284189.499,284190.9000000004,284206.236,284656.172,,44,was
screen,html.Screen,2_3_1_0_1_45,2022-05-03T11:59:25.497Z,,,,,,,,,,,,,,,,,40,,,,,,,,,,,,,,413.6279999988619,,response,,,,9,H,,,,,,Space,keypress(Space),,,,speech,,,,------ -- ------- ---- ---- ---- - -------- ----- --- --<br>----- ----- ------ -- ---- -- --- - ---- -- - ----- -----<br>------ ---- ------ ---- - -------- ------- -- --- --------<br>-------- ----------- ---- ------ ---- ------ ---- --- ---<br>-------- --- made.,285070.69999999925,285069.7999999989,284639.513,284638.7999999989,284656.172,285091.086,,45,made.
Item 9,flow.Loop,2_3_1_0_1,2022-05-03T11:59:25.497Z,,,,,,,,,,,,,,,,,,,,,,,,,,,,,,,23414.31199999887,,completion,,,,,,,,,,,,,,,,,,,,,285071,285069.7999999989,261638.837,261639.79999999888,261655.488,285091.086,,,
Question 1,html.Screen,2_3_1_0_2,2022-05-03T11:59:27.872Z,,,,,,,,,,,,,,,,,,,,,,,,,,,,true,FALSE,,2353.8140000003623,,response,,,,9,H,,,,,,FALSE,click #choice-2,,,,speech,,,,,287445.5,287444.9000000004,285056.156,285071.2999999989,285091.086,287456.291,,,
Question 2,html.Screen,2_3_1_0_3,2022-05-03T11:59:30.000Z,,,,,,,,,,,,,,,,,,,,,,,,,,,,true,FALSE,,2116.7089999999735,,response,,,,9,H,,,,,,FALSE,click #choice-2,,,,speech,,,,,289573.5,289573,287439.561,287445.5999999996,287456.291,289589.616,,,
Item 9,flow.Sequence,2_3_1_0,2022-05-03T11:59:30.000Z,,,,,,,,,,,,,,,,,,,,,,,,,,,,,,,34917.731,,completion,,,,,,,,,,,,,,,,,,,,,289573.5,289573,254638.609,254639.79999999888,254655.269,289589.616,,,
