sender,sender_type,sender_id,timestamp,meta,,Blues,Classical,Country,Dance,Electronic,Folk,Gospel,Hip-Hop,Jazz,Latin,Musical/Film,New-age,Pop,Prolific_id,Provo_ID,R&B,Rap,Reggae,Religious,Rock,Soul,Swing,Traditional,age,artist_name,correct,correctResponse,distraction,duration,education,ended_on,familiarity,gender,headphone_check_performance,item,list,music_frequency,offensiveness,pleasantness,position_correct,preference,response,response_action,snippet_file,song_name,song_rating,sound,stimulus_1,stimulus_2,stimulus_3,text,time_commit,time_end,time_render,time_run,time_show,time_switch,url,word,word_ID
Prolific ID,html.Form,0,2022-05-09T10:59:07.746Z,"{""labjs_version"":""20.2.2"",""labjs_build"":{""flavor"":""production"",""commit"":""a25486e0c714a0ae2ce03ff94b7bb6896854dcfa""},""location"":""https://run.pavlovia.org/mvasilev/prolific3_music_c/"",""userAgent"":""Mozilla/5.0 (Windows NT 10.0; Win64; x64) AppleWebKit/537.36 (KHTML, like Gecko) Chrome/100.0.4896.127 Safari/537.36 Edg/100.0.1185.50"",""platform"":""Win32"",""language"":""en-US"",""locale"":""en-US"",""timeZone"":""Europe/London"",""timezoneOffset"":-60,""screen_width"":1536,""screen_height"":864,""scroll_width"":1600,""scroll_height"":737,""window_innerWidth"":1600,""window_innerHeight"":785,""devicePixelRatio"":1.1999999284744263}",,,,,,,,,,,,,,,614778280f3a996d2b520388,,,,,,,,,,,,,,,4702.727000047682,,form submission,,,,,,,,,,,,,,,,,,,,,22900,22899.200000047684,18146.446,18146.899999976158,18196.473,22928.179,{},,
Introduction,html.Screen,1_0,2022-05-09T10:59:14.079Z,,,,,,,,,,,,,,,,,,,,,,,,,,,,,,,6302.521000047684,,response,,,,,,,,,,,continue,click button,,,,,,,,,29232.899999976158,29230.700000047684,22894.857,22900.399999976158,22928.179,29242.742,,,
Volume calibration,html.Screen,1_1,2022-05-09T11:00:07.561Z,,,,,,,,,,,,,,,,,,,,,,,,,,,,,,,53468.15799997616,,response,,,,,,,,,,,continue,click button,,,,,,,,,82715.20000004768,82710.89999997616,29226.319,29233.100000023842,29242.742,82725.022,,,
Task instructions,html.Screen,1_2,2022-05-09T11:00:23.582Z,,,,,,,,,,,,,,,,,,,,,,,,,,,,,,,16009.778000071528,,response,,,,,,,,,,,continue,click button,,,,,,,,,98735.80000007153,98734.80000007153,82708.33,82715.30000007153,82725.022,98759.468,,,
Sounds,html.Screen,1_3_0_0,2022-05-09T11:00:27.834Z,,,,,,,,,,,,,,,,,,,,,,,,,,,,,,,4241.700000000012,,timeout,,,,,,,,,3,,,,,,,,I,O,S,,102988.10000002384,102984.501,98719.395,98736.30000007153,98759.468,103001.168,,,
Judgement,html.Screen,1_3_0_1,2022-05-09T11:00:29.398Z,,,,,,,,,,,,,,,,,,,,,,,,,,,,true,3,,1549.8319999999949,,response,,,,,,,,,3,,3,click #choice-3,,,,,I,O,S,,104552.39999997616,104551,102984.501,102988.39999997616,103001.168,104567.339,,,
Trial,flow.Sequence,1_3_0,2022-05-09T11:00:29.398Z,,,,,,,,,,,,,,,,,,,,,,,,,,,,,,,5791.5320000000065,,completion,,,,,,,,,3,,,,,,,,I,O,S,,104552.70000004768,104551,98719.395,98736.20000004768,98759.468,104567.339,,,
Sounds,html.Screen,1_3_1_0,2022-05-09T11:00:33.647Z,,,,,,,,,,,,,,,,,,,,,,,,,,,,,,,4248.70199999999,,timeout,,,,,,,,,3,,,,,,,,O,I,S,,108801.39999997616,108799.419,104550.922,104552.80000007153,104567.339,108816.041,,,
Judgement,html.Screen,1_3_1_1,2022-05-09T11:00:34.647Z,,,,,,,,,,,,,,,,,,,,,,,,,,,,true,3,,982.5590000238444,,response,,,,,,,,,3,,3,click #choice-3,,,,,O,I,S,,109801.20000004768,109798.60000002384,108799.419,108801.70000004768,108816.041,109815.639,,,
Trial,flow.Sequence,1_3_1,2022-05-09T11:00:34.647Z,,,,,,,,,,,,,,,,,,,,,,,,,,,,,,,5231.261000023835,,completion,,,,,,,,,3,,,,,,,,O,I,S,,109801.39999997616,109798.60000002384,104550.922,104552.70000004768,104567.339,109815.639,,,
Sounds,html.Screen,1_3_2_0,2022-05-09T11:00:38.895Z,,,,,,,,,,,,,,,,,,,,,,,,,,,,,,,4248.74500000001,,timeout,,,,,,,,,1,,,,,,,,S,I,O,,114048.89999997616,114047.456,109798.9,109801.80000007153,109815.639,114064.384,,,
Judgement,html.Screen,1_3_2_1,2022-05-09T11:00:39.814Z,,,,,,,,,,,,,,,,,,,,,,,,,,,,true,1,,902.2160000238364,,response,,,,,,,,,1,,1,click #choice-1,,,,,S,I,O,,114968.10000002384,114966.60000002384,114047.456,114048.89999997616,114064.384,114980.749,,,
Trial,flow.Sequence,1_3_2,2022-05-09T11:00:39.814Z,,,,,,,,,,,,,,,,,,,,,,,,,,,,,,,5150.961000023846,,completion,,,,,,,,,1,,,,,,,,S,I,O,,114968.5,114966.60000002384,109798.9,109801.5,109815.639,114980.749,,,
Sounds,html.Screen,1_3_3_0,2022-05-09T11:00:44.060Z,,,,,,,,,,,,,,,,,,,,,,,,,,,,,,,4248.574000000008,,timeout,,,,,,,,,2,,,,,,,,O,S,I,,119214.70000004768,119212.672,114964.862,114968.60000002384,114980.749,119229.323,,,
Judgement,html.Screen,1_3_3_1,2022-05-09T11:00:44.877Z,,,,,,,,,,,,,,,,,,,,,,,,,,,,true,2,,801.2770000238379,,response,,,,,,,,,2,,2,click #choice-2,,,,,O,S,I,,120031.60000002384,120030.60000002384,119212.672,119215,119229.323,120045.735,,,
Trial,flow.Sequence,1_3_3,2022-05-09T11:00:44.878Z,,,,,,,,,,,,,,,,,,,,,,,,,,,,,,,5049.851000023846,,completion,,,,,,,,,2,,,,,,,,O,S,I,,120031.70000004768,120030.60000002384,114964.862,114968.60000002384,114980.749,120045.735,,,
Sounds,html.Screen,1_3_4_0,2022-05-09T11:00:49.125Z,,,,,,,,,,,,,,,,,,,,,,,,,,,,,,,4248.429000000004,,timeout,,,,,,,,,1,,,,,,,,S,O,I,,124278.5,124277.607,120028.827,120031.89999997616,120045.735,124294.164,,,
Judgement,html.Screen,1_3_4_1,2022-05-09T11:00:50.126Z,,,,,,,,,,,,,,,,,,,,,,,,,,,,true,1,,984.4360000238376,,response,,,,,,,,,1,,1,click #choice-1,,,,,S,O,I,,125279.30000007153,125278.60000002384,124277.607,124278.60000002384,124294.164,125293.85,,,
Trial,flow.Sequence,1_3_4,2022-05-09T11:00:50.126Z,,,,,,,,,,,,,,,,,,,,,,,,,,,,,,,5232.865000023841,,completion,,,,,,,,,1,,,,,,,,S,O,I,,125279.5,125278.60000002384,120028.827,120031.89999997616,120045.735,125293.85,,,
Sounds,html.Screen,1_3_5_0,2022-05-09T11:00:54.374Z,,,,,,,,,,,,,,,,,,,,,,,,,,,,,,,4248.422999999995,,timeout,,,,,,,,,2,,,,,,,,I,S,O,,129527.10000002384,129525.728,125277.302,125279.60000002384,125293.85,129542.273,,,
Judgement,html.Screen,1_3_5_1,2022-05-09T11:00:55.015Z,,,,,,,,,,,,,,,,,,,,,,,,,,,,true,2,,624.6269999761571,,response,,,,,,,,,2,,2,click #choice-2,,,,,I,S,O,,130168.5,130166.89999997616,129525.728,129527.20000004768,129542.273,130175.389,,,
Trial,flow.Sequence,1_3_5,2022-05-09T11:00:55.015Z,,,,,,,,,,,,,,,,,,,,,,,,,,,,,,,4873.049999976152,,completion,,,,,,,,,2,,,,,,,,I,S,O,,130168.70000004768,130166.89999997616,125277.302,125279.5,125293.85,130175.389,,,
Task,flow.Loop,1_3,2022-05-09T11:00:55.023Z,,,,,,,,,,,,,,,,,,,,,,,,,,,,,,,31407.431999976165,,completion,,,1,,,,,,,,,,,,,,,,,,130176.30000007153,130166.89999997616,98719.395,98736.10000002384,98759.468,130175.389,,,
Trap,html.Screen,1_4,2022-05-09T11:00:55.025Z,,,,,,,,,,,,,,,,,,,,,,,,,,,,,,,NaN,,skipped,,,,,,,,,,,,,,,,,,,,,130178.80000007153,130166.89999997616,,130178.70000004768,,130175.389,,,
Thanks,html.Screen,1_5,2022-05-09T11:00:58.575Z,,,,,,,,,,,,,,,,,,,,,,,,,,,,,,,3551.5109999761626,,response,,,,,,,,,,,continue,click button,,,,,,,,,133728.10000002384,133726.89999997616,130158.945,130179,130175.389,144920.726,,,
Headphone screening,flow.Sequence,1,2022-05-09T11:00:58.575Z,,,,,,,,,,,,,,,,,,,,,,,,,,,,,,,110798.72099997615,,completion,,,,,,,,,,,,,,,,,,,,,133728.20000004768,133726.89999997616,22894.857,22900.399999976158,22928.179,144920.726,,,
Instructions,html.Page,2_0,2022-05-09T11:01:59.794Z,,,,,,,,,,,,,,,,,,,,,,,,,,,,,,,50026.37400002385,,form submission,,,,,,,,,,,,,,,,,,,,,194947.39999997616,194947.10000002384,144903.762,144901.89999997616,144920.726,194953.5,,,
Holding screen,html.Screen,2_1_0_0,2022-05-09T11:02:09.782Z,,,,,,,,,,,,,,,,,,,,,,,,,,,,,,,10013.342999999993,,timeout,,,,,,,,,,,,,,,,,,,,,204935.39999997616,204933.628,194937.105,194947.60000002384,194953.5,204966.843,,,
screen,html.Screen,2_1_0_1_0,2022-05-09T11:02:11.060Z,,,,,,,,,,,,,,,,,53,,,,,,,,,,,,,,1243.7570000238484,,response,,,,99,,,,,,,Space,keypress(Space),,,,,,,,When -- ----- -- ------ - ------- --- ----------<br>------------- ------ ------ ---- ---- ------- ----- -- ----<br>-------- ------- -- ---------- --- - --- ----- ----- ----<br>---- --- --- ----- --- ---- ---- ------- ----- ---- -------<br>--- --- -- ----- -- --- ---- -- --- ---- -- ------ ------<br>--- ----- -- ----,206213.89999997616,206210.60000002384,204933.628,204935.89999997616,204966.843,206216.372,,0,When
screen,html.Screen,2_1_0_1_1,2022-05-09T11:02:11.930Z,,,,,,,,,,,,,,,,,53,,,,,,,,,,,,,,864.2280000238388,,response,,,,99,,,,,,,Space,keypress(Space),,,,,,,,---- it ----- -- ------ - ------- --- ----------<br>------------- ------ ------ ---- ---- ------- ----- -- ----<br>-------- ------- -- ---------- --- - --- ----- ----- ----<br>---- --- --- ----- --- ---- ---- ------- ----- ---- -------<br>--- --- -- ----- -- --- ---- -- --- ---- -- ------ ------<br>--- ----- -- ----,207083.30000007153,207080.60000002384,206199.729,206214,206216.372,207099.447,,1,it
screen,html.Screen,2_1_0_1_2,2022-05-09T11:02:12.734Z,,,,,,,,,,,,,,,,,53,,,,,,,,,,,,,,787.9529999761726,,response,,,,99,,,,,,,Space,keypress(Space),,,,,,,,---- -- comes -- ------ - ------- --- ----------<br>------------- ------ ------ ---- ---- ------- ----- -- ----<br>-------- ------- -- ---------- --- - --- ----- ----- ----<br>---- --- --- ----- --- ---- ---- ------- ----- ---- -------<br>--- --- -- ----- -- --- ---- -- --- ---- -- ------ ------<br>--- ----- -- ----,207888.10000002384,207887.39999997616,207082.68,207083.70000004768,207099.447,207899.256,,2,comes
screen,html.Screen,2_1_0_1_3,2022-05-09T11:02:13.584Z,,,,,,,,,,,,,,,,,53,,,,,,,,,,,,,,837.0440000715316,,response,,,,99,,,,,,,Space,keypress(Space),,,,,,,,---- -- ----- to ------ - ------- --- ----------<br>------------- ------ ------ ---- ---- ------- ----- -- ----<br>-------- ------- -- ---------- --- - --- ----- ----- ----<br>---- --- --- ----- --- ---- ---- ------- ----- ---- -------<br>--- --- -- ----- -- --- ---- -- --- ---- -- ------ ------<br>--- ----- -- ----,208737.39999997616,208736.30000007153,207882.787,207888.20000004768,207899.256,208748.873,,3,to
screen,html.Screen,2_1_0_1_4,2022-05-09T11:02:14.272Z,,,,,,,,,,,,,,,,,53,,,,,,,,,,,,,,675.5269999761658,,response,,,,99,,,,,,,Space,keypress(Space),,,,,,,,---- -- ----- -- having - ------- --- ----------<br>------------- ------ ------ ---- ---- ------- ----- -- ----<br>-------- ------- -- ---------- --- - --- ----- ----- ----<br>---- --- --- ----- --- ---- ---- ------- ----- ---- -------<br>--- --- -- ----- -- --- ---- -- --- ---- -- ------ ------<br>--- ----- -- ----,209425.89999997616,209424.39999997616,208732.476,208737.60000002384,208748.873,209432.014,,4,having
screen,html.Screen,2_1_0_1_5,2022-05-09T11:02:14.814Z,,,,,,,,,,,,,,,,,53,,,,,,,,,,,,,,535.1860000476881,,response,,,,99,,,,,,,Space,keypress(Space),,,,,,,,---- -- ----- -- ------ a ------- --- ----------<br>------------- ------ ------ ---- ---- ------- ----- -- ----<br>-------- ------- -- ---------- --- - --- ----- ----- ----<br>---- --- --- ----- --- ---- ---- ------- ----- ---- -------<br>--- --- -- ----- -- --- ---- -- --- ---- -- ------ ------<br>--- ----- -- ----,209967.60000002384,209967.20000004768,209415.612,209426.10000002384,209432.014,209981.787,,5,a
screen,html.Screen,2_1_0_1_6,2022-05-09T11:02:15.567Z,,,,,,,,,,,,,,,,,53,,,,,,,,,,,,,,737.7129999999888,,response,,,,99,,,,,,,Space,keypress(Space),,,,,,,,---- -- ----- -- ------ - lasting --- ----------<br>------------- ------ ------ ---- ---- ------- ----- -- ----<br>-------- ------- -- ---------- --- - --- ----- ----- ----<br>---- --- --- ----- --- ---- ---- ------- ----- ---- -------<br>--- --- -- ----- -- --- ---- -- --- ---- -- ------ ------<br>--- ----- -- ----,210720.60000002384,210719.5,209965.169,209967.70000004768,209981.787,210731.524,,6,lasting
screen,html.Screen,2_1_0_1_7,2022-05-09T11:02:16.311Z,,,,,,,,,,,,,,,,,53,,,,,,,,,,,,,,731.9759999999951,,response,,,,99,,,,,,,Space,keypress(Space),,,,,,,,---- -- ----- -- ------ - ------- and ----------<br>------------- ------ ------ ---- ---- ------- ----- -- ----<br>-------- ------- -- ---------- --- - --- ----- ----- ----<br>---- --- --- ----- --- ---- ---- ------- ----- ---- -------<br>--- --- -- ----- -- --- ---- -- --- ---- -- ------ ------<br>--- ----- -- ----,211464.20000004768,211463.5,210714.845,210720.70000004768,210731.524,211481.53,,7,and
screen,html.Screen,2_1_0_1_8,2022-05-09T11:02:16.992Z,,,,,,,,,,,,,,,,,53,,,,,,,,,,,,,,662.9700000000012,,response,,,,99,,,,,,,Space,keypress(Space),,,,,,,,---- -- ----- -- ------ - ------- --- fulfilling<br>------------- ------ ------ ---- ---- ------- ----- -- ----<br>-------- ------- -- ---------- --- - --- ----- ----- ----<br>---- --- --- ----- --- ---- ---- ------- ----- ---- -------<br>--- --- -- ----- -- --- ---- -- --- ---- -- ------ ------<br>--- ----- -- ----,212145.89999997616,212144.5,211464.86,211464.39999997616,211481.53,212171.999,,8,fulfilling
screen,html.Screen,2_1_0_1_9,2022-05-09T11:02:17.814Z,,,,,,,,,,,,,,,,,53,,,,,,,,,,,,,,794.701000047673,,response,,,,99,,,,,,,Space,keypress(Space),,,,,,,,"---- -- ----- -- ------ - ------- --- ----------<br>relationship, ------ ------ ---- ---- ------- ----- -- ----<br>-------- ------- -- ---------- --- - --- ----- ----- ----<br>---- --- --- ----- --- ---- ---- ------- ----- ---- -------<br>--- --- -- ----- -- --- ---- -- --- ---- -- ------ ------<br>--- ----- -- ----",212967.20000004768,212966.70000004768,212131.261,212146.20000004768,212171.999,212980.778,,9,"relationship,"
screen,html.Screen,2_1_0_1_10,2022-05-09T11:02:18.686Z,,,,,,,,,,,,,,,,,53,,,,,,,,,,,,,,858.5220000715344,,response,,,,99,,,,,,,Space,keypress(Space),,,,,,,,---- -- ----- -- ------ - ------- --- ----------<br>------------- common ------ ---- ---- ------- ----- -- ----<br>-------- ------- -- ---------- --- - --- ----- ----- ----<br>---- --- --- ----- --- ---- ---- ------- ----- ---- -------<br>--- --- -- ----- -- --- ---- -- --- ---- -- ------ ------<br>--- ----- -- ----,213840.10000002384,213839.30000007153,212964.486,212967.39999997616,212980.778,213847.187,,10,common
screen,html.Screen,2_1_0_1_11,2022-05-09T11:02:19.384Z,,,,,,,,,,,,,,,,,53,,,,,,,,,,,,,,689.2129999761528,,response,,,,99,,,,,,,Space,keypress(Space),,,,,,,,---- -- ----- -- ------ - ------- --- ----------<br>------------- ------ wisdom ---- ---- ------- ----- -- ----<br>-------- ------- -- ---------- --- - --- ----- ----- ----<br>---- --- --- ----- --- ---- ---- ------- ----- ---- -------<br>--- --- -- ----- -- --- ---- -- --- ---- -- ------ ------<br>--- ----- -- ----,214537.80000007153,214536.39999997616,213830.494,213840.20000004768,213847.187,214546.984,,11,wisdom
screen,html.Screen,2_1_0_1_12,2022-05-09T11:02:20.096Z,,,,,,,,,,,,,,,,,53,,,,,,,,,,,,,,700.716000047687,,response,,,,99,,,,,,,Space,keypress(Space),,,,,,,,---- -- ----- -- ------ - ------- --- ----------<br>------------- ------ ------ says ---- ------- ----- -- ----<br>-------- ------- -- ---------- --- - --- ----- ----- ----<br>---- --- --- ----- --- ---- ---- ------- ----- ---- -------<br>--- --- -- ----- -- --- ---- -- --- ---- -- ------ ------<br>--- ----- -- ----,215249.5,215247.70000004768,214530.485,214538.10000002384,214546.984,215263.429,,12,says
screen,html.Screen,2_1_0_1_13,2022-05-09T11:02:20.758Z,,,,,,,,,,,,,,,,,53,,,,,,,,,,,,,,647.8710000715218,,response,,,,99,,,,,,,Space,keypress(Space),,,,,,,,---- -- ----- -- ------ - ------- --- ----------<br>------------- ------ ------ ---- that ------- ----- -- ----<br>-------- ------- -- ---------- --- - --- ----- ----- ----<br>---- --- --- ----- --- ---- ---- ------- ----- ---- -------<br>--- --- -- ----- -- --- ---- -- --- ---- -- ------ ------<br>--- ----- -- ----,215912,215911.30000007153,215247.045,215249.80000007153,215263.429,215913.12,,13,that
screen,html.Screen,2_1_0_1_14,2022-05-09T11:02:21.509Z,,,,,,,,,,,,,,,,,53,,,,,,,,,,,,,,747.9800000238465,,response,,,,99,,,,,,,Space,keypress(Space),,,,,,,,---- -- ----- -- ------ - ------- --- ----------<br>------------- ------ ------ ---- ---- feeling ----- -- ----<br>-------- ------- -- ---------- --- - --- ----- ----- ----<br>---- --- --- ----- --- ---- ---- ------- ----- ---- -------<br>--- --- -- ----- -- --- ---- -- --- ---- -- ------ ------<br>--- ----- -- ----,216662.70000004768,216661.10000002384,215896.46,215912.20000004768,215913.12,216679.563,,14,feeling
screen,html.Screen,2_1_0_1_15,2022-05-09T11:02:22.174Z,,,,,,,,,,,,,,,,,53,,,,,,,,,,,,,,647.4370000000054,,response,,,,99,,,,,,,Space,keypress(Space),,,,,,,,---- -- ----- -- ------ - ------- --- ----------<br>------------- ------ ------ ---- ---- ------- close -- ----<br>-------- ------- -- ---------- --- - --- ----- ----- ----<br>---- --- --- ----- --- ---- ---- ------- ----- ---- -------<br>--- --- -- ----- -- --- ---- -- --- ---- -- ------ ------<br>--- ----- -- ----,217327.70000004768,217327,216662.841,216663.39999997616,216679.563,217329.321,,15,close
screen,html.Screen,2_1_0_1_16,2022-05-09T11:02:22.767Z,,,,,,,,,,,,,,,,,53,,,,,,,,,,,,,,590.3790000476874,,response,,,,99,,,,,,,Space,keypress(Space),,,,,,,,---- -- ----- -- ------ - ------- --- ----------<br>------------- ------ ------ ---- ---- ------- ----- to ----<br>-------- ------- -- ---------- --- - --- ----- ----- ----<br>---- --- --- ----- --- ---- ---- ------- ----- ---- -------<br>--- --- -- ----- -- --- ---- -- --- ---- -- ------ ------<br>--- ----- -- ----,217920.39999997616,217919.70000004768,217312.861,217327.89999997616,217329.321,217929.094,,16,to
screen,html.Screen,2_1_0_1_17,2022-05-09T11:02:23.390Z,,,,,,,,,,,,,,,,,53,,,,,,,,,,,,,,613.7060000715137,,response,,,,99,,,,,,,Space,keypress(Space),,,,,,,,---- -- ----- -- ------ - ------- --- ----------<br>------------- ------ ------ ---- ---- ------- ----- -- your<br>-------- ------- -- ---------- --- - --- ----- ----- ----<br>---- --- --- ----- --- ---- ---- ------- ----- ---- -------<br>--- --- -- ----- -- --- ---- -- --- ---- -- ------ ------<br>--- ----- -- ----,218543.5,218542.80000007153,217912.468,217920.5,217929.094,218545.545,,17,your
screen,html.Screen,2_1_0_1_18,2022-05-09T11:02:24.022Z,,,,,,,,,,,,,,,,,53,,,,,,,,,,,,,,630.055000023829,,response,,,,99,,,,,,,Space,keypress(Space),,,,,,,,---- -- ----- -- ------ - ------- --- ----------<br>------------- ------ ------ ---- ---- ------- ----- -- ----<br>romantic ------- -- ---------- --- - --- ----- ----- ----<br>---- --- --- ----- --- ---- ---- ------- ----- ---- -------<br>--- --- -- ----- -- --- ---- -- --- ---- -- ------ ------<br>--- ----- -- ----,219176.10000002384,219175.60000002384,218528.843,218543.60000002384,218545.545,219178.67,,18,romantic
screen,html.Screen,2_1_0_1_19,2022-05-09T11:02:24.534Z,,,,,,,,,,,,,,,,,53,,,,,,,,,,,,,,508.63000007151277,,response,,,,99,,,,,,,Space,keypress(Space),,,,,,,,---- -- ----- -- ------ - ------- --- ----------<br>------------- ------ ------ ---- ---- ------- ----- -- ----<br>-------- partner -- ---------- --- - --- ----- ----- ----<br>---- --- --- ----- --- ---- ---- ------- ----- ---- -------<br>--- --- -- ----- -- --- ---- -- --- ---- -- ------ ------<br>--- ----- -- ----,219687.89999997616,219687.30000007153,219162.25,219176.30000007153,219178.67,219695.185,,19,partner
screen,html.Screen,2_1_0_1_20,2022-05-09T11:02:25.015Z,,,,,,,,,,,,,,,,,53,,,,,,,,,,,,,,472.4150000238442,,response,,,,99,,,,,,,Space,keypress(Space),,,,,,,,---- -- ----- -- ------ - ------- --- ----------<br>------------- ------ ------ ---- ---- ------- ----- -- ----<br>-------- ------- is ---------- --- - --- ----- ----- ----<br>---- --- --- ----- --- ---- ---- ------- ----- ---- -------<br>--- --- -- ----- -- --- ---- -- --- ---- -- ------ ------<br>--- ----- -- ----,220168.30000007153,220167.60000002384,219678.592,219688,219695.185,220178.493,,20,is
screen,html.Screen,2_1_0_1_21,2022-05-09T11:02:26.270Z,,,,,,,,,,,,,,,,,53,,,,,,,,,,,,,,1244.307000071538,,response,,,,99,,,,,,,Space,keypress(Space),,,,,,,,---- -- ----- -- ------ - ------- --- ----------<br>------------- ------ ------ ---- ---- ------- ----- -- ----<br>-------- ------- -- paramount. --- - --- ----- ----- ----<br>---- --- --- ----- --- ---- ---- ------- ----- ---- -------<br>--- --- -- ----- -- --- ---- -- --- ---- -- ------ ------<br>--- ----- -- ----,221423.70000004768,221422.80000007153,220161.895,220168.39999997616,220178.493,221427.891,,21,paramount.
screen,html.Screen,2_1_0_1_22,2022-05-09T11:02:26.942Z,,,,,,,,,,,,,,,,,53,,,,,,,,,,,,,,667.5089999761549,,response,,,,99,,,,,,,Space,keypress(Space),,,,,,,,---- -- ----- -- ------ - ------- --- ----------<br>------------- ------ ------ ---- ---- ------- ----- -- ----<br>-------- ------- -- ---------- But - --- ----- ----- ----<br>---- --- --- ----- --- ---- ---- ------- ----- ---- -------<br>--- --- -- ----- -- --- ---- -- --- ---- -- ------ ------<br>--- ----- -- ----,222095.89999997616,222095.39999997616,221411.181,221423.80000007153,221427.891,222111.125,,22,But
screen,html.Screen,2_1_0_1_23,2022-05-09T11:02:27.439Z,,,,,,,,,,,,,,,,,53,,,,,,,,,,,,,,480.47500002384186,,response,,,,99,,,,,,,Space,keypress(Space),,,,,,,,---- -- ----- -- ------ - ------- --- ----------<br>------------- ------ ------ ---- ---- ------- ----- -- ----<br>-------- ------- -- ---------- --- a --- ----- ----- ----<br>---- --- --- ----- --- ---- ---- ------- ----- ---- -------<br>--- --- -- ----- -- --- ---- -- --- ---- -- ------ ------<br>--- ----- -- ----,222592.5,222591.60000002384,222094.651,222095.89999997616,222111.125,222617.921,,23,a
screen,html.Screen,2_1_0_1_24,2022-05-09T11:02:28.054Z,,,,,,,,,,,,,,,,,53,,,,,,,,,,,,,,588.8790000715235,,response,,,,99,,,,,,,Space,keypress(Space),,,,,,,,---- -- ----- -- ------ - ------- --- ----------<br>------------- ------ ------ ---- ---- ------- ----- -- ----<br>-------- ------- -- ---------- --- - new ----- ----- ----<br>---- --- --- ----- --- ---- ---- ------- ----- ---- -------<br>--- --- -- ----- -- --- ---- -- --- ---- -- ------ ------<br>--- ----- -- ----,223207.39999997616,223206.80000007153,222577.778,222592.70000004768,222617.921,223210.619,,24,new
screen,html.Screen,2_1_0_1_25,2022-05-09T11:02:28.750Z,,,,,,,,,,,,,,,,,53,,,,,,,,,,,,,,692.7809999761521,,response,,,,99,,,,,,,Space,keypress(Space),,,,,,,,---- -- ----- -- ------ - ------- --- ----------<br>------------- ------ ------ ---- ---- ------- ----- -- ----<br>-------- ------- -- ---------- --- - --- study ----- ----<br>---- --- --- ----- --- ---- ---- ------- ----- ---- -------<br>--- --- -- ----- -- --- ---- -- --- ---- -- ------ ------<br>--- ----- -- ----,223904,223903.39999997616,223193.965,223207.60000002384,223210.619,223910.539,,25,study
screen,html.Screen,2_1_0_1_26,2022-05-09T11:02:29.422Z,,,,,,,,,,,,,,,,,53,,,,,,,,,,,,,,664.7610000715358,,response,,,,99,,,,,,,Space,keypress(Space),,,,,,,,---- -- ----- -- ------ - ------- --- ----------<br>------------- ------ ------ ---- ---- ------- ----- -- ----<br>-------- ------- -- ---------- --- - --- ----- finds ----<br>---- --- --- ----- --- ---- ---- ------- ----- ---- -------<br>--- --- -- ----- -- --- ---- -- --- ---- -- ------ ------<br>--- ----- -- ----,224575.80000007153,224575.30000007153,223893.756,223904.20000004768,223910.539,224598.733,,26,finds
screen,html.Screen,2_1_0_1_27,2022-05-09T11:02:30.006Z,,,,,,,,,,,,,,,,,53,,,,,,,,,,,,,,560.4670000476763,,response,,,,99,,,,,,,Space,keypress(Space),,,,,,,,---- -- ----- -- ------ - ------- --- ----------<br>------------- ------ ------ ---- ---- ------- ----- -- ----<br>-------- ------- -- ---------- --- - --- ----- ----- that<br>---- --- --- ----- --- ---- ---- ------- ----- ---- -------<br>--- --- -- ----- -- --- ---- -- --- ---- -- ------ ------<br>--- ----- -- ----,225159.80000007153,225159.20000004768,224560.206,224576,224598.733,225176.902,,27,that
screen,html.Screen,2_1_0_1_28,2022-05-09T11:02:30.648Z,,,,,,,,,,,,,,,,,53,,,,,,,,,,,,,,623.4979999761563,,response,,,,99,,,,,,,Space,keypress(Space),,,,,,,,---- -- ----- -- ------ - ------- --- ----------<br>------------- ------ ------ ---- ---- ------- ----- -- ----<br>-------- ------- -- ---------- --- - --- ----- ----- ----<br>it's --- --- ----- --- ---- ---- ------- ----- ---- -------<br>--- --- -- ----- -- --- ---- -- --- ---- -- ------ ------<br>--- ----- -- ----,225801.5,225800.39999997616,225143.635,225159.80000007153,225176.902,225809.798,,28,it's
screen,html.Screen,2_1_0_1_29,2022-05-09T11:02:31.279Z,,,,,,,,,,,,,,,,,53,,,,,,,,,,,,,,622.0020000715158,,response,,,,99,,,,,,,Space,keypress(Space),,,,,,,,---- -- ----- -- ------ - ------- --- ----------<br>------------- ------ ------ ---- ---- ------- ----- -- ----<br>-------- ------- -- ---------- --- - --- ----- ----- ----<br>---- not --- ----- --- ---- ---- ------- ----- ---- -------<br>--- --- -- ----- -- --- ---- -- --- ---- -- ------ ------<br>--- ----- -- ----,226432.39999997616,226431.80000007153,225793.141,225801.80000007153,225809.798,226459.762,,29,not
screen,html.Screen,2_1_0_1_30,2022-05-09T11:02:31.993Z,,,,,,,,,,,,,,,,,53,,,,,,,,,,,,,,685.9380000476958,,response,,,,99,,,,,,,Space,keypress(Space),,,,,,,,---- -- ----- -- ------ - ------- --- ----------<br>------------- ------ ------ ---- ---- ------- ----- -- ----<br>-------- ------- -- ---------- --- - --- ----- ----- ----<br>---- --- how ----- --- ---- ---- ------- ----- ---- -------<br>--- --- -- ----- -- --- ---- -- --- ---- -- ------ ------<br>--- ----- -- ----,227146.30000007153,227145.70000004768,226442.927,226432.5,226459.762,227159.375,,30,how
screen,html.Screen,2_1_0_1_31,2022-05-09T11:02:32.806Z,,,,,,,,,,,,,,,,,53,,,,,,,,,,,,,,799.7250000238419,,response,,,,99,,,,,,,Space,keypress(Space),,,,,,,,---- -- ----- -- ------ - ------- --- ----------<br>------------- ------ ------ ---- ---- ------- ----- -- ----<br>-------- ------- -- ---------- --- - --- ----- ----- ----<br>---- --- --- close --- ---- ---- ------- ----- ---- -------<br>--- --- -- ----- -- --- ---- -- --- ---- -- ------ ------<br>--- ----- -- ----,227959.80000007153,227959.10000002384,227142.939,227146.30000007153,227159.375,227975.759,,31,close
screen,html.Screen,2_1_0_1_32,2022-05-09T11:02:33.342Z,,,,,,,,,,,,,,,,,53,,,,,,,,,,,,,,519.5410000715347,,response,,,,99,,,,,,,Space,keypress(Space),,,,,,,,---- -- ----- -- ------ - ------- --- ----------<br>------------- ------ ------ ---- ---- ------- ----- -- ----<br>-------- ------- -- ---------- --- - --- ----- ----- ----<br>---- --- --- ----- you ---- ---- ------- ----- ---- -------<br>--- --- -- ----- -- --- ---- -- --- ---- -- ------ ------<br>--- ----- -- ----,228496,228495.30000007153,227959.303,227959.89999997616,227975.759,228508.903,,32,you
screen,html.Screen,2_1_0_1_33,2022-05-09T11:02:33.921Z,,,,,,,,,,,,,,,,,53,,,,,,,,,,,,,,563.7970000476926,,response,,,,99,,,,,,,Space,keypress(Space),,,,,,,,---- -- ----- -- ------ - ------- --- ----------<br>------------- ------ ------ ---- ---- ------- ----- -- ----<br>-------- ------- -- ---------- --- - --- ----- ----- ----<br>---- --- --- ----- --- feel ---- ------- ----- ---- -------<br>--- --- -- ----- -- --- ---- -- --- ---- -- ------ ------<br>--- ----- -- ----,229074.39999997616,229072.70000004768,228492.216,228496.10000002384,228508.903,229108.725,,33,feel
screen,html.Screen,2_1_0_1_34,2022-05-09T11:02:34.497Z,,,,,,,,,,,,,,,,,53,,,,,,,,,,,,,,540.7749999999942,,response,,,,99,,,,,,,Space,keypress(Space),,,,,,,,---- -- ----- -- ------ - ------- --- ----------<br>------------- ------ ------ ---- ---- ------- ----- -- ----<br>-------- ------- -- ---------- --- - --- ----- ----- ----<br>---- --- --- ----- --- ---- that ------- ----- ---- -------<br>--- --- -- ----- -- --- ---- -- --- ---- -- ------ ------<br>--- ----- -- ----,229650.89999997616,229649.5,229092.275,229074.60000002384,229108.725,229658.57,,34,that
screen,html.Screen,2_1_0_1_35,2022-05-09T11:02:35.143Z,,,,,,,,,,,,,,,,,53,,,,,,,,,,,,,,637.1300000476767,,response,,,,99,,,,,,,Space,keypress(Space),,,,,,,,---- -- ----- -- ------ - ------- --- ----------<br>------------- ------ ------ ---- ---- ------- ----- -- ----<br>-------- ------- -- ---------- --- - --- ----- ----- ----<br>---- --- --- ----- --- ---- ---- matters ----- ---- -------<br>--- --- -- ----- -- --- ---- -- --- ---- -- ------ ------<br>--- ----- -- ----,230296.70000004768,230295.70000004768,229641.804,229651.30000007153,229658.57,230308.293,,35,matters
screen,html.Screen,2_1_0_1_36,2022-05-09T11:02:35.831Z,,,,,,,,,,,,,,,,,53,,,,,,,,,,,,,,675.4070000476786,,response,,,,99,,,,,,,Space,keypress(Space),,,,,,,,"---- -- ----- -- ------ - ------- --- ----------<br>------------- ------ ------ ---- ---- ------- ----- -- ----<br>-------- ------- -- ---------- --- - --- ----- ----- ----<br>---- --- --- ----- --- ---- ---- ------- most, ---- -------<br>--- --- -- ----- -- --- ---- -- --- ---- -- ------ ------<br>--- ----- -- ----",230984.30000007153,230983.70000004768,230291.823,230296.89999997616,230308.293,230991.632,,36,"most,"
screen,html.Screen,2_1_0_1_37,2022-05-09T11:02:36.470Z,,,,,,,,,,,,,,,,,53,,,,,,,,,,,,,,631.5680000476714,,response,,,,99,,,,,,,Space,keypress(Space),,,,,,,,---- -- ----- -- ------ - ------- --- ----------<br>------------- ------ ------ ---- ---- ------- ----- -- ----<br>-------- ------- -- ---------- --- - --- ----- ----- ----<br>---- --- --- ----- --- ---- ---- ------- ----- it's -------<br>--- --- -- ----- -- --- ---- -- --- ---- -- ------ ------<br>--- ----- -- ----,231624,231623.20000004768,230974.975,230984.30000007153,230991.632,231657.9,,37,it's
screen,html.Screen,2_1_0_1_38,2022-05-09T11:02:37.070Z,,,,,,,,,,,,,,,,,53,,,,,,,,,,,,,,564.9000000715314,,response,,,,99,,,,,,,Space,keypress(Space),,,,,,,,---- -- ----- -- ------ - ------- --- ----------<br>------------- ------ ------ ---- ---- ------- ----- -- ----<br>-------- ------- -- ---------- --- - --- ----- ----- ----<br>---- --- --- ----- --- ---- ---- ------- ----- ---- whether<br>--- --- -- ----- -- --- ---- -- --- ---- -- ------ ------<br>--- ----- -- ----,232223.5,232222.80000007153,231641.38,231624.10000002384,231657.9,232254.353,,38,whether
screen,html.Screen,2_1_0_1_39,2022-05-09T11:02:37.671Z,,,,,,,,,,,,,,,,,53,,,,,,,,,,,,,,569.5469999761553,,response,,,,99,,,,,,,Space,keypress(Space),,,,,,,,---- -- ----- -- ------ - ------- --- ----------<br>------------- ------ ------ ---- ---- ------- ----- -- ----<br>-------- ------- -- ---------- --- - --- ----- ----- ----<br>---- --- --- ----- --- ---- ---- ------- ----- ---- -------<br>you --- -- ----- -- --- ---- -- --- ---- -- ------ ------<br>--- ----- -- ----,232824.80000007153,232823.89999997616,232207.668,232223.60000002384,232254.353,232840.984,,39,you
screen,html.Screen,2_1_0_1_40,2022-05-09T11:02:38.190Z,,,,,,,,,,,,,,,,,53,,,,,,,,,,,,,,502.4159999761614,,response,,,,99,,,,,,,Space,keypress(Space),,,,,,,,---- -- ----- -- ------ - ------- --- ----------<br>------------- ------ ------ ---- ---- ------- ----- -- ----<br>-------- ------- -- ---------- --- - --- ----- ----- ----<br>---- --- --- ----- --- ---- ---- ------- ----- ---- -------<br>--- are -- ----- -- --- ---- -- --- ---- -- ------ ------<br>--- ----- -- ----,233344,233343.39999997616,232824.311,232824.89999997616,232840.984,233357.479,,40,are
screen,html.Screen,2_1_0_1_41,2022-05-09T11:02:38.726Z,,,,,,,,,,,,,,,,,53,,,,,,,,,,,,,,521.8210000715335,,response,,,,99,,,,,,,Space,keypress(Space),,,,,,,,---- -- ----- -- ------ - ------- --- ----------<br>------------- ------ ------ ---- ---- ------- ----- -- ----<br>-------- ------- -- ---------- --- - --- ----- ----- ----<br>---- --- --- ----- --- ---- ---- ------- ----- ---- -------<br>--- --- as ----- -- --- ---- -- --- ---- -- ------ ------<br>--- ----- -- ----,233880.20000004768,233879.30000007153,233340.576,233344.10000002384,233357.479,233890.457,,41,as
screen,html.Screen,2_1_0_1_42,2022-05-09T11:02:39.350Z,,,,,,,,,,,,,,,,,53,,,,,,,,,,,,,,612.4429999761633,,response,,,,99,,,,,,,Space,keypress(Space),,,,,,,,---- -- ----- -- ------ - ------- --- ----------<br>------------- ------ ------ ---- ---- ------- ----- -- ----<br>-------- ------- -- ---------- --- - --- ----- ----- ----<br>---- --- --- ----- --- ---- ---- ------- ----- ---- -------<br>--- --- -- close -- --- ---- -- --- ---- -- ------ ------<br>--- ----- -- ----,234503.60000002384,234502.89999997616,233873.778,233880.30000007153,233890.457,234506.814,,42,close
screen,html.Screen,2_1_0_1_43,2022-05-09T11:02:39.919Z,,,,,,,,,,,,,,,,,53,,,,,,,,,,,,,,564.5859999761451,,response,,,,99,,,,,,,Space,keypress(Space),,,,,,,,---- -- ----- -- ------ - ------- --- ----------<br>------------- ------ ------ ---- ---- ------- ----- -- ----<br>-------- ------- -- ---------- --- - --- ----- ----- ----<br>---- --- --- ----- --- ---- ---- ------- ----- ---- -------<br>--- --- -- ----- as --- ---- -- --- ---- -- ------ ------<br>--- ----- -- ----,235072.20000004768,235071.39999997616,234490.186,234503.70000004768,234506.814,235092.185,,43,as
screen,html.Screen,2_1_0_1_44,2022-05-09T11:02:40.422Z,,,,,,,,,,,,,,,,,53,,,,,,,,,,,,,,483.21499997616047,,response,,,,99,,,,,,,Space,keypress(Space),,,,,,,,---- -- ----- -- ------ - ------- --- ----------<br>------------- ------ ------ ---- ---- ------- ----- -- ----<br>-------- ------- -- ---------- --- - --- ----- ----- ----<br>---- --- --- ----- --- ---- ---- ------- ----- ---- -------<br>--- --- -- ----- -- you ---- -- --- ---- -- ------ ------<br>--- ----- -- ----,235576,235575.39999997616,235056.767,235072.30000007153,235092.185,235590.084,,44,you
screen,html.Screen,2_1_0_1_45,2022-05-09T11:02:40.928Z,,,,,,,,,,,,,,,,,53,,,,,,,,,,,,,,490.216000071523,,response,,,,99,,,,,,,Space,keypress(Space),,,,,,,,---- -- ----- -- ------ - ------- --- ----------<br>------------- ------ ------ ---- ---- ------- ----- -- ----<br>-------- ------- -- ---------- --- - --- ----- ----- ----<br>---- --- --- ----- --- ---- ---- ------- ----- ---- -------<br>--- --- -- ----- -- --- want -- --- ---- -- ------ ------<br>--- ----- -- ----,236081.60000002384,236080.30000007153,235573.393,235576.10000002384,235590.084,236089.805,,45,want
screen,html.Screen,2_1_0_1_46,2022-05-09T11:02:41.471Z,,,,,,,,,,,,,,,,,53,,,,,,,,,,,,,,534.195000000007,,response,,,,99,,,,,,,Space,keypress(Space),,,,,,,,---- -- ----- -- ------ - ------- --- ----------<br>------------- ------ ------ ---- ---- ------- ----- -- ----<br>-------- ------- -- ---------- --- - --- ----- ----- ----<br>---- --- --- ----- --- ---- ---- ------- ----- ---- -------<br>--- --- -- ----- -- --- ---- to --- ---- -- ------ ------<br>--- ----- -- ----,236624.80000007153,236624,236072.958,236081.89999997616,236089.805,236639.571,,46,to
screen,html.Screen,2_1_0_1_47,2022-05-09T11:02:42.321Z,,,,,,,,,,,,,,,,,53,,,,,,,,,,,,,,834.0290000238456,,response,,,,99,,,,,,,Space,keypress(Space),,,,,,,,"---- -- ----- -- ------ - ------- --- ----------<br>------------- ------ ------ ---- ---- ------- ----- -- ----<br>-------- ------- -- ---------- --- - --- ----- ----- ----<br>---- --- --- ----- --- ---- ---- ------- ----- ---- -------<br>--- --- -- ----- -- --- ---- -- be, ---- -- ------ ------<br>--- ----- -- ----",237474.30000007153,237473.60000002384,236623.097,236625,236639.571,237489.429,,47,"be,"
screen,html.Screen,2_1_0_1_48,2022-05-09T11:02:42.926Z,,,,,,,,,,,,,,,,,53,,,,,,,,,,,,,,589.5709999999963,,response,,,,99,,,,,,,Space,keypress(Space),,,,,,,,---- -- ----- -- ------ - ------- --- ----------<br>------------- ------ ------ ---- ---- ------- ----- -- ----<br>-------- ------- -- ---------- --- - --- ----- ----- ----<br>---- --- --- ----- --- ---- ---- ------- ----- ---- -------<br>--- --- -- ----- -- --- ---- -- --- even -- ------ ------<br>--- ----- -- ----,238079.60000002384,238079,237472.473,237474.39999997616,237489.429,238089.208,,48,even
screen,html.Screen,2_1_0_1_49,2022-05-09T11:02:43.422Z,,,,,,,,,,,,,,,,,53,,,,,,,,,,,,,,485.99200004767044,,response,,,,99,,,,,,,Space,keypress(Space),,,,,,,,---- -- ----- -- ------ - ------- --- ----------<br>------------- ------ ------ ---- ---- ------- ----- -- ----<br>-------- ------- -- ---------- --- - --- ----- ----- ----<br>---- --- --- ----- --- ---- ---- ------- ----- ---- -------<br>--- --- -- ----- -- --- ---- -- --- ---- if ------ ------<br>--- ----- -- ----,238576.10000002384,238575.20000004768,238072.591,238079.70000004768,238089.208,238588.797,,49,if
screen,html.Screen,2_1_0_1_50,2022-05-09T11:02:44.366Z,,,,,,,,,,,,,,,,,53,,,,,,,,,,,,,,930.5030000715342,,response,,,,99,,,,,,,Space,keypress(Space),,,,,,,,---- -- ----- -- ------ - ------- --- ----------<br>------------- ------ ------ ---- ---- ------- ----- -- ----<br>-------- ------- -- ---------- --- - --- ----- ----- ----<br>---- --- --- ----- --- ---- ---- ------- ----- ---- -------<br>--- --- -- ----- -- --- ---- -- --- ---- -- that's ------<br>--- ----- -- ----,239519.70000004768,239519.30000007153,238572.12,238576.30000007153,238588.797,239551.08,,50,that's
screen,html.Screen,2_1_0_1_51,2022-05-09T11:02:44.990Z,,,,,,,,,,,,,,,,,53,,,,,,,,,,,,,,592.819999976171,,response,,,,99,,,,,,,Space,keypress(Space),,,,,,,,---- -- ----- -- ------ - ------- --- ----------<br>------------- ------ ------ ---- ---- ------- ----- -- ----<br>-------- ------- -- ---------- --- - --- ----- ----- ----<br>---- --- --- ----- --- ---- ---- ------- ----- ---- -------<br>--- --- -- ----- -- --- ---- -- --- ---- -- ------ really<br>--- ----- -- ----,240144.70000004768,240143.89999997616,239505.14,239519.80000007153,239551.08,240155.17,,51,really
screen,html.Screen,2_1_0_1_52,2022-05-09T11:02:45.551Z,,,,,,,,,,,,,,,,,53,,,,,,,,,,,,,,548.6300000715128,,response,,,,99,,,,,,,Space,keypress(Space),,,,,,,,---- -- ----- -- ------ - ------- --- ----------<br>------------- ------ ------ ---- ---- ------- ----- -- ----<br>-------- ------- -- ---------- --- - --- ----- ----- ----<br>---- --- --- ----- --- ---- ---- ------- ----- ---- -------<br>--- --- -- ----- -- --- ---- -- --- ---- -- ------ ------<br>not ----- -- ----,240705.80000007153,240703.80000007153,240138.246,240144.70000004768,240155.17,240738.263,,52,not
screen,html.Screen,2_1_0_1_53,2022-05-09T11:02:46.150Z,,,,,,,,,,,,,,,,,53,,,,,,,,,,,,,,565.1369999761519,,response,,,,99,,,,,,,Space,keypress(Space),,,,,,,,---- -- ----- -- ------ - ------- --- ----------<br>------------- ------ ------ ---- ---- ------- ----- -- ----<br>-------- ------- -- ---------- --- - --- ----- ----- ----<br>---- --- --- ----- --- ---- ---- ------- ----- ---- -------<br>--- --- -- ----- -- --- ---- -- --- ---- -- ------ ------<br>--- close -- ----,241304.10000002384,241303.39999997616,240721.437,240705.89999997616,240738.263,241338.111,,53,close
screen,html.Screen,2_1_0_1_54,2022-05-09T11:02:46.614Z,,,,,,,,,,,,,,,,,53,,,,,,,,,,,,,,429.8889999999956,,response,,,,99,,,,,,,Space,keypress(Space),,,,,,,,---- -- ----- -- ------ - ------- --- ----------<br>------------- ------ ------ ---- ---- ------- ----- -- ----<br>-------- ------- -- ---------- --- - --- ----- ----- ----<br>---- --- --- ----- --- ---- ---- ------- ----- ---- -------<br>--- --- -- ----- -- --- ---- -- --- ---- -- ------ ------<br>--- ----- at ----,241768.60000002384,241768,241321.277,241304.20000004768,241338.111,241771.082,,54,at
screen,html.Screen,2_1_0_1_55,2022-05-09T11:02:50.438Z,,,,,,,,,,,,,,,,,53,,,,,,,,,,,,,,3820.8179999761633,,response,,,,99,,,,,,,Space,keypress(Space),,,,,,,,---- -- ----- -- ------ - ------- --- ----------<br>------------- ------ ------ ---- ---- ------- ----- -- ----<br>-------- ------- -- ---------- --- - --- ----- ----- ----<br>---- --- --- ----- --- ---- ---- ------- ----- ---- -------<br>--- --- -- ----- -- --- ---- -- --- ---- -- ------ ------<br>--- ----- -- all.,245592.80000007153,245591.89999997616,241754.375,241768.70000004768,241771.082,245603.114,,55,all.
Item 99,flow.Loop,2_1_0_1,2022-05-09T11:02:50.439Z,,,,,,,,,,,,,,,,,,,,,,,,,,,,,,,40625.056999976165,,completion,,,,,C,,,,,,,,,,,silence,,,,,245593.20000004768,245591.89999997616,204933.628,204935.80000007153,204966.843,245603.114,,,
Question 1,html.Screen,2_1_0_2,2022-05-09T11:02:58.462Z,,,,,,,,,,,,,,,,,,,,,,,,,,,,false,FALSE,,8012.586000047682,,response,,,,99,C,,,,,,TRUE,click #choice-1,,,,silence,,,,,253616.70000004768,253615.70000004768,245586.411,245593.30000007153,245603.114,253633.711,,,
Question 2,html.Screen,2_1_0_3,2022-05-09T11:03:07.383Z,,,,,,,,,,,,,,,,,,,,,,,,,,,,true,TRUE,,8901.989000047673,,response,,,,99,C,,,,,,TRUE,click #choice-1,,,,silence,,,,,262537.39999997616,262535.7000000477,253617.045,253616.70000004768,253633.711,262547.573,,,
Item 99,flow.Sequence,2_1_0,2022-05-09T11:03:07.383Z,,,,,,,,,,,,,,,,,,,,,,,,,,,,,,,67582.20000004768,,completion,,,,,,,,,,,,,,,,,,,,,262537.60000002384,262535.7000000477,194937.105,194947.5,194953.5,262547.573,,,
Holding screen,html.Screen,2_1_1_0,2022-05-09T11:03:17.374Z,,,,,,,,,,,,,,,,,,,,,,,,,,,,,,,9996.443000000028,,timeout,,,,,,,,,,,,,,,,,,,,,272528.39999997616,272527.579,262530.763,262537.7000000477,262547.573,272544.016,,,
screen,html.Screen,2_1_1_1_0,2022-05-09T11:03:18.130Z,,,,,,,,,,,,,,,,,54,,,,,,,,,,,,,,739.2840000715223,,response,,,,100,,,,,,,Space,keypress(Space),,,,,,,,At --- ---- --- ------ ----- ------- ---- -- --- ------- --<br>------- ---------- ------ -- ----- -- ----- -- ---- ------<br>--- ----- --- --- ------ -------- ----- --- ------ ----- --<br>----- ----- ---------- --- --- ------ ------ ---- -- ------<br>------- --- ------ ----- --- ---- ------- -- ---- --- --<br>------- ------,273284.2000000477,273283.3000000715,272527.579,272528.5,272544.016,273293.737,,0,At
screen,html.Screen,2_1_1_1_1,2022-05-09T11:03:18.728Z,,,,,,,,,,,,,,,,,54,,,,,,,,,,,,,,586.6629999761353,,response,,,,100,,,,,,,Space,keypress(Space),,,,,,,,-- the ---- --- ------ ----- ------- ---- -- --- ------- --<br>------- ---------- ------ -- ----- -- ----- -- ---- ------<br>--- ----- --- --- ------ -------- ----- --- ------ ----- --<br>----- ----- ---------- --- --- ------ ------ ---- -- ------<br>------- --- ------ ----- --- ---- ------- -- ---- --- --<br>------- ------,273882.3000000715,273880.39999997616,273277.285,273284.3000000715,273293.737,273893.588,,1,the
screen,html.Screen,2_1_1_1_2,2022-05-09T11:03:19.381Z,,,,,,,,,,,,,,,,,54,,,,,,,,,,,,,,641.2120000715367,,response,,,,100,,,,,,,Space,keypress(Space),,,,,,,,-- --- time --- ------ ----- ------- ---- -- --- ------- --<br>------- ---------- ------ -- ----- -- ----- -- ---- ------<br>--- ----- --- --- ------ -------- ----- --- ------ ----- --<br>----- ----- ---------- --- --- ------ ------ ---- -- ------<br>------- --- ------ ----- --- ---- ------- -- ---- --- --<br>------- ------,274535.3000000715,274534.8000000715,273876.865,273882.7000000477,273893.588,274543.312,,2,time
screen,html.Screen,2_1_1_1_3,2022-05-09T11:03:20.143Z,,,,,,,,,,,,,,,,,54,,,,,,,,,,,,,,752.4880000715493,,response,,,,100,,,,,,,Space,keypress(Space),,,,,,,,-- --- ---- the ------ ----- ------- ---- -- --- ------- --<br>------- ---------- ------ -- ----- -- ----- -- ---- ------<br>--- ----- --- --- ------ -------- ----- --- ------ ----- --<br>----- ----- ---------- --- --- ------ ------ ---- -- ------<br>------- --- ------ ----- --- ---- ------- -- ---- --- --<br>------- ------,275297.7000000477,275295.8000000715,274526.651,274535.39999997616,274543.312,275309.859,,3,the
screen,html.Screen,2_1_1_1_4,2022-05-09T11:03:20.813Z,,,,,,,,,,,,,,,,,54,,,,,,,,,,,,,,657.2410000238451,,response,,,,100,,,,,,,Space,keypress(Space),,,,,,,,-- --- ---- --- French ----- ------- ---- -- --- ------- --<br>------- ---------- ------ -- ----- -- ----- -- ---- ------<br>--- ----- --- --- ------ -------- ----- --- ------ ----- --<br>----- ----- ---------- --- --- ------ ------ ---- -- ------<br>------- --- ------ ----- --- ---- ------- -- ---- --- --<br>------- ------,275967.8000000715,275967.10000002384,275293.031,275297.89999997616,275309.859,275976.246,,4,French
screen,html.Screen,2_1_1_1_5,2022-05-09T11:03:21.417Z,,,,,,,,,,,,,,,,,54,,,,,,,,,,,,,,592.2540000000154,,response,,,,100,,,,,,,Space,keypress(Space),,,,,,,,-- --- ---- --- ------ crown ------- ---- -- --- ------- --<br>------- ---------- ------ -- ----- -- ----- -- ---- ------<br>--- ----- --- --- ------ -------- ----- --- ------ ----- --<br>----- ----- ---------- --- --- ------ ------ ---- -- ------<br>------- --- ------ ----- --- ---- ------- -- ---- --- --<br>------- ------,276571.60000002384,276568.5,275959.487,275967.8000000715,275976.246,276576.069,,5,crown
screen,html.Screen,2_1_1_1_6,2022-05-09T11:03:21.989Z,,,,,,,,,,,,,,,,,54,,,,,,,,,,,,,,566.8309999761404,,response,,,,100,,,,,,,Space,keypress(Space),,,,,,,,-- --- ---- --- ------ ----- secured ---- -- --- ------- --<br>------- ---------- ------ -- ----- -- ----- -- ---- ------<br>--- ----- --- --- ------ -------- ----- --- ------ ----- --<br>----- ----- ---------- --- --- ------ ------ ---- -- ------<br>------- --- ------ ----- --- ---- ------- -- ---- --- --<br>------- ------,277143.39999997616,277142.89999997616,276559.538,276572.10000002384,276576.069,277159.108,,6,secured
screen,html.Screen,2_1_1_1_7,2022-05-09T11:03:22.517Z,,,,,,,,,,,,,,,,,54,,,,,,,,,,,,,,511.59200004767627,,response,,,,100,,,,,,,Space,keypress(Space),,,,,,,,-- --- ---- --- ------ ----- ------- much -- --- ------- --<br>------- ---------- ------ -- ----- -- ----- -- ---- ------<br>--- ----- --- --- ------ -------- ----- --- ------ ----- --<br>----- ----- ---------- --- --- ------ ------ ---- -- ------<br>------- --- ------ ----- --- ---- ------- -- ---- --- --<br>------- ------,277671.5,277670.7000000477,277142.55,277143.5,277159.108,277675.597,,7,much
screen,html.Screen,2_1_1_1_8,2022-05-09T11:03:23.069Z,,,,,,,,,,,,,,,,,54,,,,,,,,,,,,,,547.503000023833,,response,,,,100,,,,,,,Space,keypress(Space),,,,,,,,-- --- ---- --- ------ ----- ------- ---- of --- ------- --<br>------- ---------- ------ -- ----- -- ----- -- ---- ------<br>--- ----- --- --- ------ -------- ----- --- ------ ----- --<br>----- ----- ---------- --- --- ------ ------ ---- -- ------<br>------- --- ------ ----- --- ---- ------- -- ---- --- --<br>------- ------,278223.7000000477,278223.10000002384,277658.982,277671.60000002384,277675.597,278225.448,,8,of
screen,html.Screen,2_1_1_1_9,2022-05-09T11:03:23.453Z,,,,,,,,,,,,,,,,,54,,,,,,,,,,,,,,381.3520000715507,,response,,,,100,,,,,,,Space,keypress(Space),,,,,,,,-- --- ---- --- ------ ----- ------- ---- -- its ------- --<br>------- ---------- ------ -- ----- -- ----- -- ---- ------<br>--- ----- --- --- ------ -------- ----- --- ------ ----- --<br>----- ----- ---------- --- --- ------ ------ ---- -- ------<br>------- --- ------ ----- --- ---- ------- -- ---- --- --<br>------- ------,278607.39999997616,278606.8000000715,278208.758,278223.8000000715,278225.448,278632.218,,9,its
screen,html.Screen,2_1_1_1_10,2022-05-09T11:03:23.945Z,,,,,,,,,,,,,,,,,54,,,,,,,,,,,,,,465.2820000000065,,response,,,,100,,,,,,,Space,keypress(Space),,,,,,,,-- --- ---- --- ------ ----- ------- ---- -- --- revenue --<br>------- ---------- ------ -- ----- -- ----- -- ---- ------<br>--- ----- --- --- ------ -------- ----- --- ------ ----- --<br>----- ----- ---------- --- --- ------ ------ ---- -- ------<br>------- --- ------ ----- --- ---- ------- -- ---- --- --<br>------- ------,279099.5,279097.5,278592.026,278607.5,278632.218,279108.574,,10,revenue
screen,html.Screen,2_1_1_1_11,2022-05-09T11:03:24.501Z,,,,,,,,,,,,,,,,,54,,,,,,,,,,,,,,546.2260000715032,,response,,,,100,,,,,,,Space,keypress(Space),,,,,,,,-- --- ---- --- ------ ----- ------- ---- -- --- ------- by<br>------- ---------- ------ -- ----- -- ----- -- ---- ------<br>--- ----- --- --- ------ -------- ----- --- ------ ----- --<br>----- ----- ---------- --- --- ------ ------ ---- -- ------<br>------- --- ------ ----- --- ---- ------- -- ---- --- --<br>------- ------,279655.3000000715,279654.8000000715,279091.825,279099.8000000715,279108.574,279658.266,,11,by
screen,html.Screen,2_1_1_1_12,2022-05-09T11:03:25.142Z,,,,,,,,,,,,,,,,,54,,,,,,,,,,,,,,637.6339999761549,,response,,,,100,,,,,,,Space,keypress(Space),,,,,,,,-- --- ---- --- ------ ----- ------- ---- -- --- ------- --<br>issuing ---------- ------ -- ----- -- ----- -- ---- ------<br>--- ----- --- --- ------ -------- ----- --- ------ ----- --<br>----- ----- ---------- --- --- ------ ------ ---- -- ------<br>------- --- ------ ----- --- ---- ------- -- ---- --- --<br>------- ------,280296.3000000715,280295.89999997616,279641.818,279655.39999997616,279658.266,280308.047,,12,issuing
screen,html.Screen,2_1_1_1_13,2022-05-09T11:03:25.950Z,,,,,,,,,,,,,,,,,54,,,,,,,,,,,,,,795.2530000715051,,response,,,,100,,,,,,,Space,keypress(Space),,,,,,,,-- --- ---- --- ------ ----- ------- ---- -- --- ------- --<br>------- government ------ -- ----- -- ----- -- ---- ------<br>--- ----- --- --- ------ -------- ----- --- ------ ----- --<br>----- ----- ---------- --- --- ------ ------ ---- -- ------<br>------- --- ------ ----- --- ---- ------- -- ---- --- --<br>------- ------,281103.8000000715,281103.3000000715,280291.362,280296.39999997616,280308.047,281107.806,,13,government
screen,html.Screen,2_1_1_1_14,2022-05-09T11:03:27.375Z,,,,,,,,,,,,,,,,,54,,,,,,,,,,,,,,1420.0939999761758,,response,,,,100,,,,,,,Space,keypress(Space),,,,,,,,-- --- ---- --- ------ ----- ------- ---- -- --- ------- --<br>------- ---------- bonds. -- ----- -- ----- -- ---- ------<br>--- ----- --- --- ------ -------- ----- --- ------ ----- --<br>----- ----- ---------- --- --- ------ ------ ---- -- ------<br>------- --- ------ ----- --- ---- ------- -- ---- --- --<br>------- ------,282529.2000000477,282527.89999997616,281091.353,281104,281107.806,282540.677,,14,bonds.
screen,html.Screen,2_1_1_1_15,2022-05-09T11:03:27.935Z,,,,,,,,,,,,,,,,,54,,,,,,,,,,,,,,547.3229999999749,,response,,,,100,,,,,,,Space,keypress(Space),,,,,,,,-- --- ---- --- ------ ----- ------- ---- -- --- ------- --<br>------- ---------- ------ In ----- -- ----- -- ---- ------<br>--- ----- --- --- ------ -------- ----- --- ------ ----- --<br>----- ----- ---------- --- --- ------ ------ ---- -- ------<br>------- --- ------ ----- --- ---- ------- -- ---- --- --<br>------- ------,283089,283088,282523.912,282529.3000000715,282540.677,283109.573,,15,In
screen,html.Screen,2_1_1_1_16,2022-05-09T11:03:29.481Z,,,,,,,,,,,,,,,,,54,,,,,,,,,,,,,,1525.3269999761833,,response,,,,100,,,,,,,Space,keypress(Space),,,,,,,,"-- --- ---- --- ------ ----- ------- ---- -- --- ------- --<br>------- ---------- ------ -- 1727, -- ----- -- ---- ------<br>--- ----- --- --- ------ -------- ----- --- ------ ----- --<br>----- ----- ---------- --- --- ------ ------ ---- -- ------<br>------- --- ------ ----- --- ---- ------- -- ---- --- --<br>------- ------",284635.60000002384,284634.89999997616,283073.757,283089.2000000477,283109.573,284639.915,,16,"1727,"
screen,html.Screen,2_1_1_1_17,2022-05-09T11:03:30.238Z,,,,,,,,,,,,,,,,,54,,,,,,,,,,,,,,751.3850000715465,,response,,,,100,,,,,,,Space,keypress(Space),,,,,,,,-- --- ---- --- ------ ----- ------- ---- -- --- ------- --<br>------- ---------- ------ -- ----- in ----- -- ---- ------<br>--- ----- --- --- ------ -------- ----- --- ------ ----- --<br>----- ----- ---------- --- --- ------ ------ ---- -- ------<br>------- --- ------ ----- --- ---- ------- -- ---- --- --<br>------- ------,285392.5,285391.3000000715,284623.234,284635.60000002384,284639.915,285406.352,,17,in
screen,html.Screen,2_1_1_1_18,2022-05-09T11:03:31.326Z,,,,,,,,,,,,,,,,,54,,,,,,,,,,,,,,1073.3480000476702,,response,,,,100,,,,,,,Space,keypress(Space),,,,,,,,-- --- ---- --- ------ ----- ------- ---- -- --- ------- --<br>------- ---------- ------ -- ----- -- order -- ---- ------<br>--- ----- --- --- ------ -------- ----- --- ------ ----- --<br>----- ----- ---------- --- --- ------ ------ ---- -- ------<br>------- --- ------ ----- --- ---- ------- -- ---- --- --<br>------- ------,286480.3000000715,286479.7000000477,285389.694,285392.7000000477,285406.352,286489.365,,18,order
screen,html.Screen,2_1_1_1_19,2022-05-09T11:03:32.062Z,,,,,,,,,,,,,,,,,54,,,,,,,,,,,,,,726.2350000238512,,response,,,,100,,,,,,,Space,keypress(Space),,,,,,,,-- --- ---- --- ------ ----- ------- ---- -- --- ------- --<br>------- ---------- ------ -- ----- -- ----- to ---- ------<br>--- ----- --- --- ------ -------- ----- --- ------ ----- --<br>----- ----- ---------- --- --- ------ ------ ---- -- ------<br>------- --- ------ ----- --- ---- ------- -- ---- --- --<br>------- ------,287216.7000000477,287215.60000002384,286472.745,286480.5,286489.365,287222.608,,19,to
screen,html.Screen,2_1_1_1_20,2022-05-09T11:03:33.272Z,,,,,,,,,,,,,,,,,54,,,,,,,,,,,,,,1201.4920000238344,,response,,,,100,,,,,,,Space,keypress(Space),,,,,,,,-- --- ---- --- ------ ----- ------- ---- -- --- ------- --<br>------- ---------- ------ -- ----- -- ----- -- save ------<br>--- ----- --- --- ------ -------- ----- --- ------ ----- --<br>----- ----- ---------- --- --- ------ ------ ---- -- ------<br>------- --- ------ ----- --- ---- ------- -- ---- --- --<br>------- ------,288426.2000000477,288424.10000002384,287205.753,287216.8000000715,287222.608,288438.724,,20,save
screen,html.Screen,2_1_1_1_21,2022-05-09T11:03:35.141Z,,,,,,,,,,,,,,,,,54,,,,,,,,,,,,,,1856.4760000476963,,response,,,,100,,,,,,,Space,keypress(Space),,,,,,,,"-- --- ---- --- ------ ----- ------- ---- -- --- ------- --<br>------- ---------- ------ -- ----- -- ----- -- ---- money,<br>--- ----- --- --- ------ -------- ----- --- ------ ----- --<br>----- ----- ---------- --- --- ------ ------ ---- -- ------<br>------- --- ------ ----- --- ---- ------- -- ---- --- --<br>------- ------",290295.8000000715,290295.2000000477,288421.905,288426.39999997616,288438.724,290304.813,,21,"money,"
screen,html.Screen,2_1_1_1_22,2022-05-09T11:03:35.686Z,,,,,,,,,,,,,,,,,54,,,,,,,,,,,,,,534.6869999999763,,response,,,,100,,,,,,,Space,keypress(Space),,,,,,,,-- --- ---- --- ------ ----- ------- ---- -- --- ------- --<br>------- ---------- ------ -- ----- -- ----- -- ---- ------<br>the ----- --- --- ------ -------- ----- --- ------ ----- --<br>----- ----- ---------- --- --- ------ ------ ---- -- ------<br>------- --- ------ ----- --- ---- ------- -- ---- --- --<br>------- ------,290840.10000002384,290839.5,290288.218,290295.89999997616,290304.813,290854.754,,22,the
screen,html.Screen,2_1_1_1_23,2022-05-09T11:03:36.102Z,,,,,,,,,,,,,,,,,54,,,,,,,,,,,,,,400.74599999998463,,response,,,,100,,,,,,,Space,keypress(Space),,,,,,,,-- --- ---- --- ------ ----- ------- ---- -- --- ------- --<br>------- ---------- ------ -- ----- -- ----- -- ---- ------<br>--- state --- --- ------ -------- ----- --- ------ ----- --<br>----- ----- ---------- --- --- ------ ------ ---- -- ------<br>------- --- ------ ----- --- ---- ------- -- ---- --- --<br>------- ------,291256,291255.5,290837.84,290840.3000000715,290854.754,291271.179,,23,state
screen,html.Screen,2_1_1_1_24,2022-05-09T11:03:36.454Z,,,,,,,,,,,,,,,,,54,,,,,,,,,,,,,,336.12100007152185,,response,,,,100,,,,,,,Space,keypress(Space),,,,,,,,-- --- ---- --- ------ ----- ------- ---- -- --- ------- --<br>------- ---------- ------ -- ----- -- ----- -- ---- ------<br>--- ----- cut --- ------ -------- ----- --- ------ ----- --<br>----- ----- ---------- --- --- ------ ------ ---- -- ------<br>------- --- ------ ----- --- ---- ------- -- ---- --- --<br>------- ------,291607.8000000715,291607.3000000715,291254.353,291256.2000000477,291271.179,291620.948,,24,cut
screen,html.Screen,2_1_1_1_25,2022-05-09T11:03:37.287Z,,,,,,,,,,,,,,,,,54,,,,,,,,,,,,,,819.0520000000251,,response,,,,100,,,,,,,Space,keypress(Space),,,,,,,,-- --- ---- --- ------ ----- ------- ---- -- --- ------- --<br>------- ---------- ------ -- ----- -- ----- -- ---- ------<br>--- ----- --- the ------ -------- ----- --- ------ ----- --<br>----- ----- ---------- --- --- ------ ------ ---- -- ------<br>------- --- ------ ----- --- ---- ------- -- ---- --- --<br>------- ------,292441.3000000715,292440,291604.474,291608,291620.948,292454.197,,25,the
screen,html.Screen,2_1_1_1_26,2022-05-09T11:03:38.263Z,,,,,,,,,,,,,,,,,54,,,,,,,,,,,,,,962.3030000000144,,response,,,,100,,,,,,,Space,keypress(Space),,,,,,,,-- --- ---- --- ------ ----- ------- ---- -- --- ------- --<br>------- ---------- ------ -- ----- -- ----- -- ---- ------<br>--- ----- --- --- bonds' -------- ----- --- ------ ----- --<br>----- ----- ---------- --- --- ------ ------ ---- -- ------<br>------- --- ------ ----- --- ---- ------- -- ---- --- --<br>------- ------,293417.8000000715,293416.5,292437.394,292441.5,292454.197,293420.366,,26,bonds'
screen,html.Screen,2_1_1_1_27,2022-05-09T11:03:38.846Z,,,,,,,,,,,,,,,,,54,,,,,,,,,,,,,,579.3340000477037,,response,,,,100,,,,,,,Space,keypress(Space),,,,,,,,-- --- ---- --- ------ ----- ------- ---- -- --- ------- --<br>------- ---------- ------ -- ----- -- ----- -- ---- ------<br>--- ----- --- --- ------ interest ----- --- ------ ----- --<br>----- ----- ---------- --- --- ------ ------ ---- -- ------<br>------- --- ------ ----- --- ---- ------- -- ---- --- --<br>------- ------,294000.3000000715,293999.7000000477,293403.64,293418,293420.366,294003.46,,27,interest
screen,html.Screen,2_1_1_1_28,2022-05-09T11:03:39.285Z,,,,,,,,,,,,,,,,,54,,,,,,,,,,,,,,435.3400000715046,,response,,,,100,,,,,,,Space,keypress(Space),,,,,,,,-- --- ---- --- ------ ----- ------- ---- -- --- ------- --<br>------- ---------- ------ -- ----- -- ----- -- ---- ------<br>--- ----- --- --- ------ -------- rate. --- ------ ----- --<br>----- ----- ---------- --- --- ------ ------ ---- -- ------<br>------- --- ------ ----- --- ---- ------- -- ---- --- --<br>------- ------,294439.39999997616,294438.8000000715,293987.063,294000.39999997616,294003.46,294453.563,,28,rate.
screen,html.Screen,2_1_1_1_29,2022-05-09T11:03:39.869Z,,,,,,,,,,,,,,,,,54,,,,,,,,,,,,,,568.4369999999763,,response,,,,100,,,,,,,Space,keypress(Space),,,,,,,,-- --- ---- --- ------ ----- ------- ---- -- --- ------- --<br>------- ---------- ------ -- ----- -- ----- -- ---- ------<br>--- ----- --- --- ------ -------- ----- The ------ ----- --<br>----- ----- ---------- --- --- ------ ------ ---- -- ------<br>------- --- ------ ----- --- ---- ------- -- ---- --- --<br>------- ------,295022.89999997616,295022,294436.684,294439.5,294453.563,295036.423,,29,The
screen,html.Screen,2_1_1_1_30,2022-05-09T11:03:40.390Z,,,,,,,,,,,,,,,,,54,,,,,,,,,,,,,,507.47699997614836,,response,,,,100,,,,,,,Space,keypress(Space),,,,,,,,-- --- ---- --- ------ ----- ------- ---- -- --- ------- --<br>------- ---------- ------ -- ----- -- ----- -- ---- ------<br>--- ----- --- --- ------ -------- ----- --- market ----- --<br>----- ----- ---------- --- --- ------ ------ ---- -- ------<br>------- --- ------ ----- --- ---- ------- -- ---- --- --<br>------- ------,295544.7000000477,295543.89999997616,295019.987,295023,295036.423,295553.164,,30,market
screen,html.Screen,2_1_1_1_31,2022-05-09T11:03:40.918Z,,,,,,,,,,,,,,,,,54,,,,,,,,,,,,,,518.3360000000102,,response,,,,100,,,,,,,Space,keypress(Space),,,,,,,,-- --- ---- --- ------ ----- ------- ---- -- --- ------- --<br>------- ---------- ------ -- ----- -- ----- -- ---- ------<br>--- ----- --- --- ------ -------- ----- --- ------ value --<br>----- ----- ---------- --- --- ------ ------ ---- -- ------<br>------- --- ------ ----- --- ---- ------- -- ---- --- --<br>------- ------,296072.3000000715,296071.5,295536.275,295544.89999997616,295553.164,296086.264,,31,value
screen,html.Screen,2_1_1_1_32,2022-05-09T11:03:41.359Z,,,,,,,,,,,,,,,,,54,,,,,,,,,,,,,,425.8360000238172,,response,,,,100,,,,,,,Space,keypress(Space),,,,,,,,-- --- ---- --- ------ ----- ------- ---- -- --- ------- --<br>------- ---------- ------ -- ----- -- ----- -- ---- ------<br>--- ----- --- --- ------ -------- ----- --- ------ ----- of<br>----- ----- ---------- --- --- ------ ------ ---- -- ------<br>------- --- ------ ----- --- ---- ------- -- ---- --- --<br>------- ------,296512.89999997616,296512.10000002384,296069.683,296072.5,296086.264,296519.424,,32,of
screen,html.Screen,2_1_1_1_33,2022-05-09T11:03:41.758Z,,,,,,,,,,,,,,,,,54,,,,,,,,,,,,,,391.57600000000093,,response,,,,100,,,,,,,Space,keypress(Space),,,,,,,,-- --- ---- --- ------ ----- ------- ---- -- --- ------- --<br>------- ---------- ------ -- ----- -- ----- -- ---- ------<br>--- ----- --- --- ------ -------- ----- --- ------ ----- --<br>these ----- ---------- --- --- ------ ------ ---- -- ------<br>------- --- ------ ----- --- ---- ------- -- ---- --- --<br>------- ------,296912.10000002384,296911,296502.6,296513.10000002384,296519.424,296919.107,,33,these
screen,html.Screen,2_1_1_1_34,2022-05-09T11:03:42.198Z,,,,,,,,,,,,,,,,,54,,,,,,,,,,,,,,432.09300004766556,,response,,,,100,,,,,,,Space,keypress(Space),,,,,,,,-- --- ---- --- ------ ----- ------- ---- -- --- ------- --<br>------- ---------- ------ -- ----- -- ----- -- ---- ------<br>--- ----- --- --- ------ -------- ----- --- ------ ----- --<br>----- bonds ---------- --- --- ------ ------ ---- -- ------<br>------- --- ------ ----- --- ---- ------- -- ---- --- --<br>------- ------,297352.60000002384,297351.2000000477,296902.69,296912.3000000715,296919.107,297368.992,,34,bonds
screen,html.Screen,2_1_1_1_35,2022-05-09T11:03:42.869Z,,,,,,,,,,,,,,,,,54,,,,,,,,,,,,,,654.1080000238144,,response,,,,100,,,,,,,Space,keypress(Space),,,,,,,,"-- --- ---- --- ------ ----- ------- ---- -- --- ------- --<br>------- ---------- ------ -- ----- -- ----- -- ---- ------<br>--- ----- --- --- ------ -------- ----- --- ------ ----- --<br>----- ----- plummeted, --- --- ------ ------ ---- -- ------<br>------- --- ------ ----- --- ---- ------- -- ---- --- --<br>------- ------",298023.7000000477,298023.10000002384,297352.286,297352.8000000715,297368.992,298035.408,,35,"plummeted,"
screen,html.Screen,2_1_1_1_36,2022-05-09T11:03:43.366Z,,,,,,,,,,,,,,,,,54,,,,,,,,,,,,,,483.7920000476879,,response,,,,100,,,,,,,Space,keypress(Space),,,,,,,,-- --- ---- --- ------ ----- ------- ---- -- --- ------- --<br>------- ---------- ------ -- ----- -- ----- -- ---- ------<br>--- ----- --- --- ------ -------- ----- --- ------ ----- --<br>----- ----- ---------- and --- ------ ------ ---- -- ------<br>------- --- ------ ----- --- ---- ------- -- ---- --- --<br>------- ------,298520,298519.2000000477,298018.714,298023.8000000715,298035.408,298535.289,,36,and
screen,html.Screen,2_1_1_1_37,2022-05-09T11:03:43.760Z,,,,,,,,,,,,,,,,,54,,,,,,,,,,,,,,377.21100000001024,,response,,,,100,,,,,,,Space,keypress(Space),,,,,,,,-- --- ---- --- ------ ----- ------- ---- -- --- ------- --<br>------- ---------- ------ -- ----- -- ----- -- ---- ------<br>--- ----- --- --- ------ -------- ----- --- ------ ----- --<br>----- ----- ---------- --- the ------ ------ ---- -- ------<br>------- --- ------ ----- --- ---- ------- -- ---- --- --<br>------- ------,298913.8000000715,298912.5,298518.593,298520.10000002384,298535.289,298918.538,,37,the
screen,html.Screen,2_1_1_1_38,2022-05-09T11:03:44.398Z,,,,,,,,,,,,,,,,,54,,,,,,,,,,,,,,632.4619999999995,,response,,,,100,,,,,,,Space,keypress(Space),,,,,,,,-- --- ---- --- ------ ----- ------- ---- -- --- ------- --<br>------- ---------- ------ -- ----- -- ----- -- ---- ------<br>--- ----- --- --- ------ -------- ----- --- ------ ----- --<br>----- ----- ---------- --- --- market ------ ---- -- ------<br>------- --- ------ ----- --- ---- ------- -- ---- --- --<br>------- ------,299552.2000000477,299551,298901.776,298914.10000002384,298918.538,299568.239,,38,market
screen,html.Screen,2_1_1_1_39,2022-05-09T11:03:44.888Z,,,,,,,,,,,,,,,,,54,,,,,,,,,,,,,,472.4610000476823,,response,,,,100,,,,,,,Space,keypress(Space),,,,,,,,-- --- ---- --- ------ ----- ------- ---- -- --- ------- --<br>------- ---------- ------ -- ----- -- ----- -- ---- ------<br>--- ----- --- --- ------ -------- ----- --- ------ ----- --<br>----- ----- ---------- --- --- ------ became ---- -- ------<br>------- --- ------ ----- --- ---- ------- -- ---- --- --<br>------- ------,300042.60000002384,300040.7000000477,299551.794,299552.3000000715,299568.239,300051.464,,39,became
screen,html.Screen,2_1_1_1_40,2022-05-09T11:03:45.599Z,,,,,,,,,,,,,,,,,54,,,,,,,,,,,,,,700.1360000238637,,response,,,,100,,,,,,,Space,keypress(Space),,,,,,,,-- --- ---- --- ------ ----- ------- ---- -- --- ------- --<br>------- ---------- ------ -- ----- -- ----- -- ---- ------<br>--- ----- --- --- ------ -------- ----- --- ------ ----- --<br>----- ----- ---------- --- --- ------ ------ wary -- ------<br>------- --- ------ ----- --- ---- ------- -- ---- --- --<br>------- ------,300752.5,300751.60000002384,300034.932,300042.89999997616,300051.464,300767.869,,40,wary
screen,html.Screen,2_1_1_1_41,2022-05-09T11:03:45.975Z,,,,,,,,,,,,,,,,,54,,,,,,,,,,,,,,359.5309999761521,,response,,,,100,,,,,,,Space,keypress(Space),,,,,,,,-- --- ---- --- ------ ----- ------- ---- -- --- ------- --<br>------- ---------- ------ -- ----- -- ----- -- ---- ------<br>--- ----- --- --- ------ -------- ----- --- ------ ----- --<br>----- ----- ---------- --- --- ------ ------ ---- of ------<br>------- --- ------ ----- --- ---- ------- -- ---- --- --<br>------- ------,301128,301127.39999997616,300751.381,300752.5,300767.869,301134.354,,41,of
screen,html.Screen,2_1_1_1_42,2022-05-09T11:03:46.583Z,,,,,,,,,,,,,,,,,54,,,,,,,,,,,,,,601.4460000715335,,response,,,,100,,,,,,,Space,keypress(Space),,,,,,,,-- --- ---- --- ------ ----- ------- ---- -- --- ------- --<br>------- ---------- ------ -- ----- -- ----- -- ---- ------<br>--- ----- --- --- ------ -------- ----- --- ------ ----- --<br>----- ----- ---------- --- --- ------ ------ ---- -- French<br>------- --- ------ ----- --- ---- ------- -- ---- --- --<br>------- ------,301736.60000002384,301735.8000000715,301117.919,301128.2000000477,301134.354,301751.047,,42,French
screen,html.Screen,2_1_1_1_43,2022-05-09T11:03:48.001Z,,,,,,,,,,,,,,,,,54,,,,,,,,,,,,,,1401.4529999999795,,response,,,,100,,,,,,,Space,keypress(Space),,,,,,,,-- --- ---- --- ------ ----- ------- ---- -- --- ------- --<br>------- ---------- ------ -- ----- -- ----- -- ---- ------<br>--- ----- --- --- ------ -------- ----- --- ------ ----- --<br>----- ----- ---------- --- --- ------ ------ ---- -- ------<br>credit. --- ------ ----- --- ---- ------- -- ---- --- --<br>------- ------,303154.89999997616,303152.5,301734.398,301736.7000000477,301751.047,303167.227,,43,credit.
screen,html.Screen,2_1_1_1_44,2022-05-09T11:03:48.575Z,,,,,,,,,,,,,,,,,54,,,,,,,,,,,,,,560.4730000476702,,response,,,,100,,,,,,,Space,keypress(Space),,,,,,,,-- --- ---- --- ------ ----- ------- ---- -- --- ------- --<br>------- ---------- ------ -- ----- -- ----- -- ---- ------<br>--- ----- --- --- ------ -------- ----- --- ------ ----- --<br>----- ----- ---------- --- --- ------ ------ ---- -- ------<br>------- The ------ ----- --- ---- ------- -- ---- --- --<br>------- ------,303728.60000002384,303727.7000000477,303150.502,303155.60000002384,303167.227,303733.512,,44,The
screen,html.Screen,2_1_1_1_45,2022-05-09T11:03:49.159Z,,,,,,,,,,,,,,,,,54,,,,,,,,,,,,,,577.7880000715377,,response,,,,100,,,,,,,Space,keypress(Space),,,,,,,,-- --- ---- --- ------ ----- ------- ---- -- --- ------- --<br>------- ---------- ------ -- ----- -- ----- -- ---- ------<br>--- ----- --- --- ------ -------- ----- --- ------ ----- --<br>----- ----- ---------- --- --- ------ ------ ---- -- ------<br>------- --- French ----- --- ---- ------- -- ---- --- --<br>------- ------,304312,304311.3000000715,303717.108,303728.8000000715,303733.512,304316.619,,45,French
screen,html.Screen,2_1_1_1_46,2022-05-09T11:03:49.713Z,,,,,,,,,,,,,,,,,54,,,,,,,,,,,,,,548.0810000476777,,response,,,,100,,,,,,,Space,keypress(Space),,,,,,,,-- --- ---- --- ------ ----- ------- ---- -- --- ------- --<br>------- ---------- ------ -- ----- -- ----- -- ---- ------<br>--- ----- --- --- ------ -------- ----- --- ------ ----- --<br>----- ----- ---------- --- --- ------ ------ ---- -- ------<br>------- --- ------ state --- ---- ------- -- ---- --- --<br>------- ------,304866.2000000477,304864.7000000477,304300.142,304312.39999997616,304316.619,304883.138,,46,state
screen,html.Screen,2_1_1_1_47,2022-05-09T11:03:50.179Z,,,,,,,,,,,,,,,,,54,,,,,,,,,,,,,,432.76199997618096,,response,,,,100,,,,,,,Space,keypress(Space),,,,,,,,-- --- ---- --- ------ ----- ------- ---- -- --- ------- --<br>------- ---------- ------ -- ----- -- ----- -- ---- ------<br>--- ----- --- --- ------ -------- ----- --- ------ ----- --<br>----- ----- ---------- --- --- ------ ------ ---- -- ------<br>------- --- ------ ----- was ---- ------- -- ---- --- --<br>------- ------,305332.10000002384,305315.89999997616,304866.489,304867,304883.138,305352.548,,47,was
screen,html.Screen,2_1_1_1_48,2022-05-09T11:03:50.726Z,,,,,,,,,,,,,,,,,54,,,,,,,,,,,,,,526.2520000715158,,response,,,,100,,,,,,,Space,keypress(Space),,,,,,,,-- --- ---- --- ------ ----- ------- ---- -- --- ------- --<br>------- ---------- ------ -- ----- -- ----- -- ---- ------<br>--- ----- --- --- ------ -------- ----- --- ------ ----- --<br>----- ----- ---------- --- --- ------ ------ ---- -- ------<br>------- --- ------ ----- --- left ------- -- ---- --- --<br>------- ------,305879.5,305878.8000000715,305316.28,305332.3000000715,305352.548,305882.771,,48,left
screen,html.Screen,2_1_1_1_49,2022-05-09T11:03:51.206Z,,,,,,,,,,,,,,,,,54,,,,,,,,,,,,,,476.32900002383394,,response,,,,100,,,,,,,Space,keypress(Space),,,,,,,,-- --- ---- --- ------ ----- ------- ---- -- --- ------- --<br>------- ---------- ------ -- ----- -- ----- -- ---- ------<br>--- ----- --- --- ------ -------- ----- --- ------ ----- --<br>----- ----- ---------- --- --- ------ ------ ---- -- ------<br>------- --- ------ ----- --- ---- without -- ---- --- --<br>------- ------,306359.8000000715,306359.10000002384,305866.066,305879.60000002384,305882.771,306366.183,,49,without
screen,html.Screen,2_1_1_1_50,2022-05-09T11:03:51.750Z,,,,,,,,,,,,,,,,,54,,,,,,,,,,,,,,537.0170000476646,,response,,,,100,,,,,,,Space,keypress(Space),,,,,,,,-- --- ---- --- ------ ----- ------- ---- -- --- ------- --<br>------- ---------- ------ -- ----- -- ----- -- ---- ------<br>--- ----- --- --- ------ -------- ----- --- ------ ----- --<br>----- ----- ---------- --- --- ------ ------ ---- -- ------<br>------- --- ------ ----- --- ---- ------- an ---- --- --<br>------- ------,306903.89999997616,306903.2000000477,306349.238,306360.10000002384,306366.183,306915.733,,50,an
screen,html.Screen,2_1_1_1_51,2022-05-09T11:03:52.291Z,,,,,,,,,,,,,,,,,54,,,,,,,,,,,,,,526.4670000476763,,response,,,,100,,,,,,,Space,keypress(Space),,,,,,,,-- --- ---- --- ------ ----- ------- ---- -- --- ------- --<br>------- ---------- ------ -- ----- -- ----- -- ---- ------<br>--- ----- --- --- ------ -------- ----- --- ------ ----- --<br>----- ----- ---------- --- --- ------ ------ ---- -- ------<br>------- --- ------ ----- --- ---- ------- -- easy --- --<br>------- ------,307444.39999997616,307442.2000000477,306899.101,306904.10000002384,306915.733,307449.084,,51,easy
screen,html.Screen,2_1_1_1_52,2022-05-09T11:03:52.784Z,,,,,,,,,,,,,,,,,54,,,,,,,,,,,,,,487.0160000238684,,response,,,,100,,,,,,,Space,keypress(Space),,,,,,,,-- --- ---- --- ------ ----- ------- ---- -- --- ------- --<br>------- ---------- ------ -- ----- -- ----- -- ---- ------<br>--- ----- --- --- ------ -------- ----- --- ------ ----- --<br>----- ----- ---------- --- --- ------ ------ ---- -- ------<br>------- --- ------ ----- --- ---- ------- -- ---- way --<br>------- ------,307937.2000000477,307936.10000002384,307432.185,307445,307449.084,307948.814,,52,way
screen,html.Screen,2_1_1_1_53,2022-05-09T11:03:53.238Z,,,,,,,,,,,,,,,,,54,,,,,,,,,,,,,,442.0859999761451,,response,,,,100,,,,,,,Space,keypress(Space),,,,,,,,-- --- ---- --- ------ ----- ------- ---- -- --- ------- --<br>------- ---------- ------ -- ----- -- ----- -- ---- ------<br>--- ----- --- --- ------ -------- ----- --- ------ ----- --<br>----- ----- ---------- --- --- ------ ------ ---- -- ------<br>------- --- ------ ----- --- ---- ------- -- ---- --- of<br>------- ------,308391.3000000715,308390.89999997616,307932.071,307937.5,307948.814,308398.617,,53,of
screen,html.Screen,2_1_1_1_54,2022-05-09T11:03:53.919Z,,,,,,,,,,,,,,,,,54,,,,,,,,,,,,,,672.9830000238144,,response,,,,100,,,,,,,Space,keypress(Space),,,,,,,,-- --- ---- --- ------ ----- ------- ---- -- --- ------- --<br>------- ---------- ------ -- ----- -- ----- -- ---- ------<br>--- ----- --- --- ------ -------- ----- --- ------ ----- --<br>----- ----- ---------- --- --- ------ ------ ---- -- ------<br>------- --- ------ ----- --- ---- ------- -- ---- --- --<br>raising ------,309072.5,309071.60000002384,308381.942,308391.39999997616,308398.617,309081.689,,54,raising
screen,html.Screen,2_1_1_1_55,2022-05-09T11:03:56.999Z,,,,,,,,,,,,,,,,,54,,,,,,,,,,,,,,3070.1110000715125,,response,,,,100,,,,,,,Space,keypress(Space),,,,,,,,-- --- ---- --- ------ ----- ------- ---- -- --- ------- --<br>------- ---------- ------ -- ----- -- ----- -- ---- ------<br>--- ----- --- --- ------ -------- ----- --- ------ ----- --<br>----- ----- ---------- --- --- ------ ------ ---- -- ------<br>------- --- ------ ----- --- ---- ------- -- ---- --- --<br>------- money.,312152.60000002384,312151.8000000715,309065.159,309072.5,309081.689,312163.978,,55,money.
Item 100,flow.Loop,2_1_1_1,2022-05-09T11:03:56.999Z,,,,,,,,,,,,,,,,,,,,,,,,,,,,,,,39607.78400007152,,completion,,,,,C,,,,,,,,,,,silence,,,,,312152.89999997616,312151.8000000715,272527.579,272528.5,272544.016,312163.978,,,
Question 1,html.Screen,2_1_1_2,2022-05-09T11:04:00.974Z,,,,,,,,,,,,,,,,,,,,,,,,,,,,true,TRUE,,3962.722000047681,,response,,,,100,C,,,,,,TRUE,click #choice-1,,,,silence,,,,,316127.7000000477,316126.7000000477,312147.369,312152.89999997616,312163.978,316130.423,,,
Question 2,html.Screen,2_1_1_3,2022-05-09T11:04:06.174Z,,,,,,,,,,,,,,,,,,,,,,,,,,,,true,FALSE,,5196.277000047674,,response,,,,100,C,,,,,,FALSE,click #choice-2,,,,silence,,,,,321327.7000000477,321326.7000000477,316113.096,316127.89999997616,316130.423,321354.551,,,
Item 100,flow.Sequence,2_1_1,2022-05-09T11:04:06.175Z,,,,,,,,,,,,,,,,,,,,,,,,,,,,,,,58779.12700004771,,completion,,,,,,,,,,,,,,,,,,,,,321328,321326.7000000477,262530.763,262537.7000000477,262547.573,321354.551,,,
End of Practice,html.Page,2_1_2,2022-05-09T11:04:11.167Z,,,,,,,,,,,,,,,,,,,,,,,,,,,,,,,4965.149000047706,,form submission,,,,,,,,,,,,,,,,,,,,,326320,326319.7000000477,321310.922,321328.2000000477,321354.551,326326.301,,,
Practice,flow.Sequence,2_1,2022-05-09T11:04:11.167Z,,,,,,,,,,,,,,,,,,,,,,,,,,,,,,,131366.20000004768,,completion,,,,,,,,,,,,,,,,,,,,,326320.2000000477,326319.7000000477,194937.105,194947.5,194953.5,326326.301,,,
Trap_instruction,html.Page,2_2_0,2022-05-09T11:04:18.135Z,,,,,,,,,,,,,,,,,,,,,,,,,,,,,,,6961.999000071548,,form submission,,,,,,,,,,,,,,,,,,,,,333288.60000002384,333288.3000000715,326309.249,326320.3000000715,326326.301,333323.51,,,
trap_trial,html.Screen,2_2_1,2022-05-09T11:04:22.303Z,,,,,,,,,,,,,,,,,,,,,,,,,,,,true,1,,4131.0900000238325,,response,,,,,,,,,,,1,click #choice-1,,,,,,,,,337456.10000002384,337454.60000002384,333273.532,333288.60000002384,333323.51,337486.463,,,
end of trap trial,html.Page,2_2_2,2022-05-09T11:04:25.270Z,,,,,,,,,,,,,,,,,,,,,,,,,,,,,,,2937.137000023853,,form submission,,,,,,,,,,,,,,,,,,,,,340423.8000000715,340423.60000002384,337455.567,337456.8000000715,337486.463,340437.948,,,
Trap 1,flow.Sequence,2_2,2022-05-09T11:04:25.270Z,,,,,,,,,,,,,,,,,,,,,,,,,,,,,,,14097.299000023864,,completion,,,,,,,,,,,,,,,,,,,,,340424,340423.60000002384,326309.249,326320.3000000715,326326.301,340437.948,,,
Standby,html.Page,2_3_0,2022-05-09T11:04:33.266Z,,,,,,,,,,,,,,,,,,,,,,,,,,,,,,,7997.146999999997,,timeout,,,,,,,,,,,,,,,,,,,,,348420,348418.527,340421.116,340424.10000002384,340437.948,348435.095,,,
Holding screen,html.Screen,2_3_1_0_0,2022-05-09T11:04:40.263Z,,,,,,,,,,,,,,,,,,,,,,,,,,,,,,,6997.7420000000275,,timeout,,,,,,,,,,,,,,,,,,,,,355416.89999997616,355416.123,348418.527,348420.39999997616,348435.095,355432.837,,,
screen,html.Screen,2_3_1_0_1_0,2022-05-09T11:04:41.593Z,,,,,,,,,,,,,,,,,2,,,,,,,,,,,,,,1313.1630000000005,,response,,,,1,C,,,,,,Space,keypress(Space),,,,instrumental,,,,Two ---- ------ --- ------- ---------- ------- ----------<br>--- --------- --- ----------- ------- ----- ------- ---<br>--------- ---- -- --- ---- -- --------- -- ---- -------<br>-- --------- ------ --- ----- ------ ---- --- --------- --<br>------ - ---- -- --- ----------- ------- ---- ----- -----<br>--- -------- - ------ ---- -- ----- ---- --- --- -----------<br>-- -------,356747,356746,355416.123,355417,355432.837,356748.932,,0,Two
screen,html.Screen,2_3_1_0_1_1,2022-05-09T11:04:42.246Z,,,,,,,,,,,,,,,,,2,,,,,,,,,,,,,,649.9679999761865,,response,,,,1,C,,,,,,Space,keypress(Space),,,,instrumental,,,,--- days ------ --- ------- ---------- ------- ----------<br>--- --------- --- ----------- ------- ----- ------- ---<br>--------- ---- -- --- ---- -- --------- -- ---- -------<br>-- --------- ------ --- ----- ------ ---- --- --------- --<br>------ - ---- -- --- ----------- ------- ---- ----- -----<br>--- -------- - ------ ---- -- ----- ---- --- --- -----------<br>-- -------,357399.8000000715,357398.89999997616,356732.415,356747.10000002384,356748.932,357415.391,,1,days
screen,html.Screen,2_3_1_0_1_2,2022-05-09T11:04:42.767Z,,,,,,,,,,,,,,,,,2,,,,,,,,,,,,,,504.2090000238386,,response,,,,1,C,,,,,,Space,keypress(Space),,,,instrumental,,,,"--- ---- later, --- ------- ---------- ------- ----------<br>--- --------- --- ----------- ------- ----- ------- ---<br>--------- ---- -- --- ---- -- --------- -- ---- -------<br>-- --------- ------ --- ----- ------ ---- --- --------- --<br>------ - ---- -- --- ----------- ------- ---- ----- -----<br>--- -------- - ------ ---- -- ----- ---- --- --- -----------<br>-- -------",357920.7000000477,357919.60000002384,357398.704,357400,357415.391,357931.866,,2,"later,"
screen,html.Screen,2_3_1_0_1_3,2022-05-09T11:04:43.328Z,,,,,,,,,,,,,,,,,2,,,,,,,,,,,,,,548.63400000002,,response,,,,1,C,,,,,,Space,keypress(Space),,,,instrumental,,,,--- ---- ------ the ------- ---------- ------- ----------<br>--- --------- --- ----------- ------- ----- ------- ---<br>--------- ---- -- --- ---- -- --------- -- ---- -------<br>-- --------- ------ --- ----- ------ ---- --- --------- --<br>------ - ---- -- --- ----------- ------- ---- ----- -----<br>--- -------- - ------ ---- -- ----- ---- --- --- -----------<br>-- -------,358481.2000000477,358480.5,357915.282,357920.89999997616,357931.866,358498.383,,3,the
screen,html.Screen,2_3_1_0_1_4,2022-05-09T11:04:43.896Z,,,,,,,,,,,,,,,,,2,,,,,,,,,,,,,,551.0169999761856,,response,,,,1,C,,,,,,Space,keypress(Space),,,,instrumental,,,,--- ---- ------ --- British ---------- ------- ----------<br>--- --------- --- ----------- ------- ----- ------- ---<br>--------- ---- -- --- ---- -- --------- -- ---- -------<br>-- --------- ------ --- ----- ------ ---- --- --------- --<br>------ - ---- -- --- ----------- ------- ---- ----- -----<br>--- -------- - ------ ---- -- ----- ---- --- --- -----------<br>-- -------,359050,359049.39999997616,358481.668,358481.3000000715,358498.383,359064.846,,4,British
screen,html.Screen,2_3_1_0_1_5,2022-05-09T11:04:44.551Z,,,,,,,,,,,,,,,,,2,,,,,,,,,,,,,,638.8540000476642,,response,,,,1,C,,,,,,Space,keypress(Space),,,,instrumental,,,,--- ---- ------ --- ------- astronomer ------- ----------<br>--- --------- --- ----------- ------- ----- ------- ---<br>--------- ---- -- --- ---- -- --------- -- ---- -------<br>-- --------- ------ --- ----- ------ ---- --- --------- --<br>------ - ---- -- --- ----------- ------- ---- ----- -----<br>--- -------- - ------ ---- -- ----- ---- --- --- -----------<br>-- -------,359704.3000000715,359703.7000000477,359048.313,359050.10000002384,359064.846,359714.78,,5,astronomer
screen,html.Screen,2_3_1_0_1_6,2022-05-09T11:04:45.121Z,,,,,,,,,,,,,,,,,2,,,,,,,,,,,,,,564.8200000238139,,response,,,,1,C,,,,,,Space,keypress(Space),,,,instrumental,,,,--- ---- ------ --- ------- ---------- Richard ----------<br>--- --------- --- ----------- ------- ----- ------- ---<br>--------- ---- -- --- ---- -- --------- -- ---- -------<br>-- --------- ------ --- ----- ------ ---- --- --------- --<br>------ - ---- -- --- ----------- ------- ---- ----- -----<br>--- -------- - ------ ---- -- ----- ---- --- --- -----------<br>-- -------,360280.3000000715,360279.60000002384,359698.104,359704.60000002384,359714.78,360331.099,,6,Richard
screen,html.Screen,2_3_1_0_1_7,2022-05-09T11:04:45.833Z,,,,,,,,,,,,,,,,,2,,,,,,,,,,,,,,660.5010000238544,,response,,,,1,C,,,,,,Space,keypress(Space),,,,instrumental,,,,--- ---- ------ --- ------- ---------- ------- Carrington<br>--- --------- --- ----------- ------- ----- ------- ---<br>--------- ---- -- --- ---- -- --------- -- ---- -------<br>-- --------- ------ --- ----- ------ ---- --- --------- --<br>------ - ---- -- --- ----------- ------- ---- ----- -----<br>--- -------- - ------ ---- -- ----- ---- --- --- -----------<br>-- -------,360992,360991.60000002384,360314.633,360280.39999997616,360331.099,360997.637,,7,Carrington
screen,html.Screen,2_3_1_0_1_8,2022-05-09T11:04:46.354Z,,,,,,,,,,,,,,,,,2,,,,,,,,,,,,,,514.7629999761702,,response,,,,1,C,,,,,,Space,keypress(Space),,,,instrumental,,,,--- ---- ------ --- ------- ---------- ------- ----------<br>was --------- --- ----------- ------- ----- ------- ---<br>--------- ---- -- --- ---- -- --------- -- ---- -------<br>-- --------- ------ --- ----- ------ ---- --- --------- --<br>------ - ---- -- --- ----------- ------- ---- ----- -----<br>--- -------- - ------ ---- -- ----- ---- --- --- -----------<br>-- -------,361513.60000002384,361512.39999997616,360980.97,360992.10000002384,360997.637,361530.682,,8,was
screen,html.Screen,2_3_1_0_1_9,2022-05-09T11:04:46.865Z,,,,,,,,,,,,,,,,,2,,,,,,,,,,,,,,492.91800002387026,,response,,,,1,C,,,,,,Space,keypress(Space),,,,instrumental,,,,--- ---- ------ --- ------- ---------- ------- ----------<br>--- observing --- ----------- ------- ----- ------- ---<br>--------- ---- -- --- ---- -- --------- -- ---- -------<br>-- --------- ------ --- ----- ------ ---- --- --------- --<br>------ - ---- -- --- ----------- ------- ---- ----- -----<br>--- -------- - ------ ---- -- ----- ---- --- --- -----------<br>-- -------,362024.5,362023.60000002384,361514.259,361513.89999997616,361530.682,362030.813,,9,observing
screen,html.Screen,2_3_1_0_1_10,2022-05-09T11:04:47.337Z,,,,,,,,,,,,,,,,,2,,,,,,,,,,,,,,464.9870000715018,,response,,,,1,C,,,,,,Space,keypress(Space),,,,instrumental,,,,--- ---- ------ --- ------- ---------- ------- ----------<br>--- --------- the ----------- ------- ----- ------- ---<br>--------- ---- -- --- ---- -- --------- -- ---- -------<br>-- --------- ------ --- ----- ------ ---- --- --------- --<br>------ - ---- -- --- ----------- ------- ---- ----- -----<br>--- -------- - ------ ---- -- ----- ---- --- --- -----------<br>-- -------,362496.60000002384,362495.8000000715,362013.819,362024.7000000477,362030.813,362513.719,,10,the
screen,html.Screen,2_3_1_0_1_11,2022-05-09T11:04:48.001Z,,,,,,,,,,,,,,,,,2,,,,,,,,,,,,,,646.0810000715428,,response,,,,1,C,,,,,,Space,keypress(Space),,,,instrumental,,,,--- ---- ------ --- ------- ---------- ------- ----------<br>--- --------- --- interesting ------- ----- ------- ---<br>--------- ---- -- --- ---- -- --------- -- ---- -------<br>-- --------- ------ --- ----- ------ ---- --- --------- --<br>------ - ---- -- --- ----------- ------- ---- ----- -----<br>--- -------- - ------ ---- -- ----- ---- --- --- -----------<br>-- -------,363160.8000000715,363159.8000000715,362496.996,362496.7000000477,362513.719,363163.461,,11,interesting
screen,html.Screen,2_3_1_0_1_12,2022-05-09T11:04:48.561Z,,,,,,,,,,,,,,,,,2,,,,,,,,,,,,,,555.9389999761479,,response,,,,1,C,,,,,,Space,keypress(Space),,,,instrumental,,,,--- ---- ------ --- ------- ---------- ------- ----------<br>--- --------- --- ----------- sunspot ----- ------- ---<br>--------- ---- -- --- ---- -- --------- -- ---- -------<br>-- --------- ------ --- ----- ------ ---- --- --------- --<br>------ - ---- -- --- ----------- ------- ---- ----- -----<br>--- -------- - ------ ---- -- ----- ---- --- --- -----------<br>-- -------,363720,363719.39999997616,363146.783,363161,363163.461,363729.955,,12,sunspot
screen,html.Screen,2_3_1_0_1_13,2022-05-09T11:04:49.217Z,,,,,,,,,,,,,,,,,2,,,,,,,,,,,,,,645.7450000476674,,response,,,,1,C,,,,,,Space,keypress(Space),,,,instrumental,,,,--- ---- ------ --- ------- ---------- ------- ----------<br>--- --------- --- ----------- ------- group ------- ---<br>--------- ---- -- --- ---- -- --------- -- ---- -------<br>-- --------- ------ --- ----- ------ ---- --- --------- --<br>------ - ---- -- --- ----------- ------- ---- ----- -----<br>--- -------- - ------ ---- -- ----- ---- --- --- -----------<br>-- -------,364376.5,364375.7000000477,363713.21,363720.10000002384,363729.955,364379.739,,13,group
screen,html.Screen,2_3_1_0_1_14,2022-05-09T11:04:49.825Z,,,,,,,,,,,,,,,,,2,,,,,,,,,,,,,,603.9610000476823,,response,,,,1,C,,,,,,Space,keypress(Space),,,,instrumental,,,,--- ---- ------ --- ------- ---------- ------- ----------<br>--- --------- --- ----------- ------- ----- through ---<br>--------- ---- -- --- ---- -- --------- -- ---- -------<br>-- --------- ------ --- ----- ------ ---- --- --------- --<br>------ - ---- -- --- ----------- ------- ---- ----- -----<br>--- -------- - ------ ---- -- ----- ---- --- --- -----------<br>-- -------,364984.8000000715,364983.7000000477,364363.285,364376.60000002384,364379.739,364996.408,,14,through
screen,html.Screen,2_3_1_0_1_15,2022-05-09T11:04:50.314Z,,,,,,,,,,,,,,,,,2,,,,,,,,,,,,,,475.99199997616233,,response,,,,1,C,,,,,,Space,keypress(Space),,,,instrumental,,,,--- ---- ------ --- ------- ---------- ------- ----------<br>--- --------- --- ----------- ------- ----- ------- his<br>--------- ---- -- --- ---- -- --------- -- ---- -------<br>-- --------- ------ --- ----- ------ ---- --- --------- --<br>------ - ---- -- --- ----------- ------- ---- ----- -----<br>--- -------- - ------ ---- -- ----- ---- --- --- -----------<br>-- -------,365473.60000002384,365472.39999997616,364979.666,364985,364996.408,365479.403,,15,his
screen,html.Screen,2_3_1_0_1_16,2022-05-09T11:04:51.241Z,,,,,,,,,,,,,,,,,2,,,,,,,,,,,,,,920.2970000476926,,response,,,,1,C,,,,,,Space,keypress(Space),,,,instrumental,,,,--- ---- ------ --- ------- ---------- ------- ----------<br>--- --------- --- ----------- ------- ----- ------- ---<br>telescope ---- -- --- ---- -- --------- -- ---- -------<br>-- --------- ------ --- ----- ------ ---- --- --------- --<br>------ - ---- -- --- ----------- ------- ---- ----- -----<br>--- -------- - ------ ---- -- ----- ---- --- --- -----------<br>-- -------,366400.3000000715,366399.7000000477,365462.735,365473.8000000715,365479.403,366412.379,,16,telescope
screen,html.Screen,2_3_1_0_1_17,2022-05-09T11:04:51.771Z,,,,,,,,,,,,,,,,,2,,,,,,,,,,,,,,517.0209999761428,,response,,,,1,C,,,,,,Space,keypress(Space),,,,instrumental,,,,--- ---- ------ --- ------- ---------- ------- ----------<br>--- --------- --- ----------- ------- ----- ------- ---<br>--------- when -- --- ---- -- --------- -- ---- -------<br>-- --------- ------ --- ----- ------ ---- --- --------- --<br>------ - ---- -- --- ----------- ------- ---- ----- -----<br>--- -------- - ------ ---- -- ----- ---- --- --- -----------<br>-- -------,366930.10000002384,366929.39999997616,366395.638,366400.39999997616,366412.379,366945.552,,17,when
screen,html.Screen,2_3_1_0_1_18,2022-05-09T11:04:52.233Z,,,,,,,,,,,,,,,,,2,,,,,,,,,,,,,,446.14800004765857,,response,,,,1,C,,,,,,Space,keypress(Space),,,,instrumental,,,,--- ---- ------ --- ------- ---------- ------- ----------<br>--- --------- --- ----------- ------- ----- ------- ---<br>--------- ---- he --- ---- -- --------- -- ---- -------<br>-- --------- ------ --- ----- ------ ---- --- --------- --<br>------ - ---- -- --- ----------- ------- ---- ----- -----<br>--- -------- - ------ ---- -- ----- ---- --- --- -----------<br>-- -------,367392.5,367391.7000000477,366928.839,366930.2000000477,366945.552,367395.346,,18,he
screen,html.Screen,2_3_1_0_1_19,2022-05-09T11:04:52.698Z,,,,,,,,,,,,,,,,,2,,,,,,,,,,,,,,460.2540000238223,,response,,,,1,C,,,,,,Space,keypress(Space),,,,instrumental,,,,--- ---- ------ --- ------- ---------- ------- ----------<br>--- --------- --- ----------- ------- ----- ------- ---<br>--------- ---- -- saw ---- -- --------- -- ---- -------<br>-- --------- ------ --- ----- ------ ---- --- --------- --<br>------ - ---- -- --- ----------- ------- ---- ----- -----<br>--- -------- - ------ ---- -- ----- ---- --- --- -----------<br>-- -------,367857.5,367855.60000002384,367378.879,367392.60000002384,367395.346,367861.858,,19,saw
screen,html.Screen,2_3_1_0_1_20,2022-05-09T11:04:53.673Z,,,,,,,,,,,,,,,,,2,,,,,,,,,,,,,,969.9420000715181,,response,,,,1,C,,,,,,Space,keypress(Space),,,,instrumental,,,,--- ---- ------ --- ------- ---------- ------- ----------<br>--- --------- --- ----------- ------- ----- ------- ---<br>--------- ---- -- --- what -- --------- -- ---- -------<br>-- --------- ------ --- ----- ------ ---- --- --------- --<br>------ - ---- -- --- ----------- ------- ---- ----- -----<br>--- -------- - ------ ---- -- ----- ---- --- --- -----------<br>-- -------,368832.3000000715,368831.8000000715,367845.466,367857.7000000477,367861.858,368845.162,,20,what
screen,html.Screen,2_3_1_0_1_21,2022-05-09T11:04:54.057Z,,,,,,,,,,,,,,,,,2,,,,,,,,,,,,,,370.6380000715144,,response,,,,1,C,,,,,,Space,keypress(Space),,,,instrumental,,,,--- ---- ------ --- ------- ---------- ------- ----------<br>--- --------- --- ----------- ------- ----- ------- ---<br>--------- ---- -- --- ---- he --------- -- ---- -------<br>-- --------- ------ --- ----- ------ ---- --- --------- --<br>------ - ---- -- --- ----------- ------- ---- ----- -----<br>--- -------- - ------ ---- -- ----- ---- --- --- -----------<br>-- -------,369216.60000002384,369215.8000000715,368828.217,368832.39999997616,368845.162,369228.327,,21,he
screen,html.Screen,2_3_1_0_1_22,2022-05-09T11:04:54.443Z,,,,,,,,,,,,,,,,,2,,,,,,,,,,,,,,372.47300007153535,,response,,,,1,C,,,,,,Space,keypress(Space),,,,instrumental,,,,--- ---- ------ --- ------- ---------- ------- ----------<br>--- --------- --- ----------- ------- ----- ------- ---<br>--------- ---- -- --- ---- -- described -- ---- -------<br>-- --------- ------ --- ----- ------ ---- --- --------- --<br>------ - ---- -- --- ----------- ------- ---- ----- -----<br>--- -------- - ------ ---- -- ----- ---- --- --- -----------<br>-- -------,369602.10000002384,369600.8000000715,369211.409,369216.89999997616,369228.327,369611.301,,22,described
screen,html.Screen,2_3_1_0_1_23,2022-05-09T11:04:54.899Z,,,,,,,,,,,,,,,,,2,,,,,,,,,,,,,,444.7990000238642,,response,,,,1,C,,,,,,Space,keypress(Space),,,,instrumental,,,,--- ---- ------ --- ------- ---------- ------- ----------<br>--- --------- --- ----------- ------- ----- ------- ---<br>--------- ---- -- --- ---- -- --------- as ---- -------<br>-- --------- ------ --- ----- ------ ---- --- --------- --<br>------ - ---- -- --- ----------- ------- ---- ----- -----<br>--- -------- - ------ ---- -- ----- ---- --- --- -----------<br>-- -------,370057.89999997616,370056.10000002384,369594.623,369602.39999997616,369611.301,370061.136,,23,as
screen,html.Screen,2_3_1_0_1_24,2022-05-09T11:04:55.233Z,,,,,,,,,,,,,,,,,2,,,,,,,,,,,,,,330.5640000476851,,response,,,,1,C,,,,,,Space,keypress(Space),,,,instrumental,,,,"--- ---- ------ --- ------- ---------- ------- ----------<br>--- --------- --- ----------- ------- ----- ------- ---<br>--------- ---- -- --- ---- -- --------- -- ""two -------<br>-- --------- ------ --- ----- ------ ---- --- --------- --<br>------ - ---- -- --- ----------- ------- ---- ----- -----<br>--- -------- - ------ ---- -- ----- ---- --- --- -----------<br>-- -------",370392.10000002384,370391.7000000477,370044.635,370058.10000002384,370061.136,370394.334,,24,"""two"
screen,html.Screen,2_3_1_0_1_25,2022-05-09T11:04:55.889Z,,,,,,,,,,,,,,,,,2,,,,,,,,,,,,,,652.8660000477103,,response,,,,1,C,,,,,,Space,keypress(Space),,,,instrumental,,,,--- ---- ------ --- ------- ---------- ------- ----------<br>--- --------- --- ----------- ------- ----- ------- ---<br>--------- ---- -- --- ---- -- --------- -- ---- patches<br>-- --------- ------ --- ----- ------ ---- --- --------- --<br>------ - ---- -- --- ----------- ------- ---- ----- -----<br>--- -------- - ------ ---- -- ----- ---- --- --- -----------<br>-- -------,371048,371047.2000000477,370377.98,370392.3000000715,370394.334,371060.774,,25,patches
screen,html.Screen,2_3_1_0_1_26,2022-05-09T11:04:56.354Z,,,,,,,,,,,,,,,,,2,,,,,,,,,,,,,,451.5260000715498,,response,,,,1,C,,,,,,Space,keypress(Space),,,,instrumental,,,,--- ---- ------ --- ------- ---------- ------- ----------<br>--- --------- --- ----------- ------- ----- ------- ---<br>--------- ---- -- --- ---- -- --------- -- ---- -------<br>of --------- ------ --- ----- ------ ---- --- --------- --<br>------ - ---- -- --- ----------- ------- ---- ----- -----<br>--- -------- - ------ ---- -- ----- ---- --- --- -----------<br>-- -------,371513.2000000477,371512.3000000715,371044.08,371048.10000002384,371060.774,371527.361,,26,of
screen,html.Screen,2_3_1_0_1_27,2022-05-09T11:04:56.954Z,,,,,,,,,,,,,,,,,2,,,,,,,,,,,,,,584.6390000000247,,response,,,,1,C,,,,,,Space,keypress(Space),,,,instrumental,,,,--- ---- ------ --- ------- ---------- ------- ----------<br>--- --------- --- ----------- ------- ----- ------- ---<br>--------- ---- -- --- ---- -- --------- -- ---- -------<br>-- intensely ------ --- ----- ------ ---- --- --------- --<br>------ - ---- -- --- ----------- ------- ---- ----- -----<br>--- -------- - ------ ---- -- ----- ---- --- --- -----------<br>-- -------,372112.89999997616,372112,371510.823,371513.39999997616,371527.361,372127.315,,27,intensely
screen,html.Screen,2_3_1_0_1_28,2022-05-09T11:04:57.345Z,,,,,,,,,,,,,,,,,2,,,,,,,,,,,,,,376.5849999761558,,response,,,,1,C,,,,,,Space,keypress(Space),,,,instrumental,,,,--- ---- ------ --- ------- ---------- ------- ----------<br>--- --------- --- ----------- ------- ----- ------- ---<br>--------- ---- -- --- ---- -- --------- -- ---- -------<br>-- --------- bright --- ----- ------ ---- --- --------- --<br>------ - ---- -- --- ----------- ------- ---- ----- -----<br>--- -------- - ------ ---- -- ----- ---- --- --- -----------<br>-- -------,372504.7000000477,372503.89999997616,372110.412,372113.10000002384,372127.315,372510.561,,28,bright
screen,html.Screen,2_3_1_0_1_29,2022-05-09T11:04:57.738Z,,,,,,,,,,,,,,,,,2,,,,,,,,,,,,,,385.13900004769675,,response,,,,1,C,,,,,,Space,keypress(Space),,,,instrumental,,,,--- ---- ------ --- ------- ---------- ------- ----------<br>--- --------- --- ----------- ------- ----- ------- ---<br>--------- ---- -- --- ---- -- --------- -- ---- -------<br>-- --------- ------ and ----- ------ ---- --- --------- --<br>------ - ---- -- --- ----------- ------- ---- ----- -----<br>--- -------- - ------ ---- -- ----- ---- --- --- -----------<br>-- -------,372896.8000000715,372895.7000000477,372493.852,372504.8000000715,372510.561,372910.214,,29,and
screen,html.Screen,2_3_1_0_1_30,2022-05-09T11:04:58.113Z,,,,,,,,,,,,,,,,,2,,,,,,,,,,,,,,361.38600002386374,,response,,,,1,C,,,,,,Space,keypress(Space),,,,instrumental,,,,--- ---- ------ --- ------- ---------- ------- ----------<br>--- --------- --- ----------- ------- ----- ------- ---<br>--------- ---- -- --- ---- -- --------- -- ---- -------<br>-- --------- ------ --- white ------ ---- --- --------- --<br>------ - ---- -- --- ----------- ------- ---- ----- -----<br>--- -------- - ------ ---- -- ----- ---- --- --- -----------<br>-- -------,373272,373271.60000002384,372893.783,372897.10000002384,372910.214,373276.687,,30,white
screen,html.Screen,2_3_1_0_1_31,2022-05-09T11:04:59.217Z,,,,,,,,,,,,,,,,,2,,,,,,,,,,,,,,1098.3130000000237,,response,,,,1,C,,,,,,Space,keypress(Space),,,,instrumental,,,,"--- ---- ------ --- ------- ---------- ------- ----------<br>--- --------- --- ----------- ------- ----- ------- ---<br>--------- ---- -- --- ---- -- --------- -- ---- -------<br>-- --------- ------ --- ----- light"" ---- --- --------- --<br>------ - ---- -- --- ----------- ------- ---- ----- -----<br>--- -------- - ------ ---- -- ----- ---- --- --- -----------<br>-- -------",374375.89999997616,374375,373260.141,373272.10000002384,373276.687,374393.028,,31,"light"""
screen,html.Screen,2_3_1_0_1_32,2022-05-09T11:04:59.786Z,,,,,,,,,,,,,,,,,2,,,,,,,,,,,,,,551.0720000238507,,response,,,,1,C,,,,,,Space,keypress(Space),,,,instrumental,,,,--- ---- ------ --- ------- ---------- ------- ----------<br>--- --------- --- ----------- ------- ----- ------- ---<br>--------- ---- -- --- ---- -- --------- -- ---- -------<br>-- --------- ------ --- ----- ------ over --- --------- --<br>------ - ---- -- --- ----------- ------- ---- ----- -----<br>--- -------- - ------ ---- -- ----- ---- --- --- -----------<br>-- -------,374945.3000000715,374944.10000002384,374376.273,374376,374393.028,374959.544,,32,over
screen,html.Screen,2_3_1_0_1_33,2022-05-09T11:05:00.201Z,,,,,,,,,,,,,,,,,2,,,,,,,,,,,,,,399.85599997616373,,response,,,,1,C,,,,,,Space,keypress(Space),,,,instrumental,,,,--- ---- ------ --- ------- ---------- ------- ----------<br>--- --------- --- ----------- ------- ----- ------- ---<br>--------- ---- -- --- ---- -- --------- -- ---- -------<br>-- --------- ------ --- ----- ------ ---- the --------- --<br>------ - ---- -- --- ----------- ------- ---- ----- -----<br>--- -------- - ------ ---- -- ----- ---- --- --- -----------<br>-- -------,375360,375359.39999997616,374943.041,374945.5,374959.544,375376.277,,33,the
screen,html.Screen,2_3_1_0_1_34,2022-05-09T11:05:00.776Z,,,,,,,,,,,,,,,,,2,,,,,,,,,,,,,,558.6229999761563,,response,,,,1,C,,,,,,Space,keypress(Space),,,,instrumental,,,,--- ---- ------ --- ------- ---------- ------- ----------<br>--- --------- --- ----------- ------- ----- ------- ---<br>--------- ---- -- --- ---- -- --------- -- ---- -------<br>-- --------- ------ --- ----- ------ ---- --- sunspots. --<br>------ - ---- -- --- ----------- ------- ---- ----- -----<br>--- -------- - ------ ---- -- ----- ---- --- --- -----------<br>-- -------,375935.60000002384,375934.89999997616,375359.347,375360.10000002384,375376.277,375942.46,,34,sunspots.
screen,html.Screen,2_3_1_0_1_35,2022-05-09T11:05:01.353Z,,,,,,,,,,,,,,,,,2,,,,,,,,,,,,,,568.9399999761372,,response,,,,1,C,,,,,,Space,keypress(Space),,,,instrumental,,,,--- ---- ------ --- ------- ---------- ------- ----------<br>--- --------- --- ----------- ------- ----- ------- ---<br>--------- ---- -- --- ---- -- --------- -- ---- -------<br>-- --------- ------ --- ----- ------ ---- --- --------- He<br>------ - ---- -- --- ----------- ------- ---- ----- -----<br>--- -------- - ------ ---- -- ----- ---- --- --- -----------<br>-- -------,376512,376511.39999997616,375925.796,375935.7000000477,375942.46,376525.656,,35,He
screen,html.Screen,2_3_1_0_1_36,2022-05-09T11:05:02.165Z,,,,,,,,,,,,,,,,,2,,,,,,,,,,,,,,797.9440000238246,,response,,,,1,C,,,,,,Space,keypress(Space),,,,instrumental,,,,--- ---- ------ --- ------- ---------- ------- ----------<br>--- --------- --- ----------- ------- ----- ------- ---<br>--------- ---- -- --- ---- -- --------- -- ---- -------<br>-- --------- ------ --- ----- ------ ---- --- --------- --<br>jotted - ---- -- --- ----------- ------- ---- ----- -----<br>--- -------- - ------ ---- -- ----- ---- --- --- -----------<br>-- -------,377324.39999997616,377323.60000002384,376508.998,376512.2000000477,376525.656,377344.165,,36,jotted
screen,html.Screen,2_3_1_0_1_37,2022-05-09T11:05:02.545Z,,,,,,,,,,,,,,,,,2,,,,,,,,,,,,,,359.7349999761791,,response,,,,1,C,,,,,,Space,keypress(Space),,,,instrumental,,,,--- ---- ------ --- ------- ---------- ------- ----------<br>--- --------- --- ----------- ------- ----- ------- ---<br>--------- ---- -- --- ---- -- --------- -- ---- -------<br>-- --------- ------ --- ----- ------ ---- --- --------- --<br>------ a ---- -- --- ----------- ------- ---- ----- -----<br>--- -------- - ------ ---- -- ----- ---- --- --- -----------<br>-- -------,377704.7000000477,377703.89999997616,377308.845,377324.60000002384,377344.165,377708.547,,37,a
