sender,sender_type,sender_id,timestamp,meta,,Blues,Classical,Country,Dance,Electronic,Folk,Gospel,Hip-Hop,Jazz,Latin,Musical/Film,New-age,Pop,Prolific_id,Provo_ID,R&B,Rap,Reggae,Religious,Rock,Soul,Swing,Traditional,age,artist_name,correct,correctResponse,distraction,duration,education,ended_on,familiarity,gender,headphone_check_performance,item,list,music_frequency,offensiveness,pleasantness,position_correct,preference,response,response_action,snippet_file,song_name,song_rating,sound,stimulus_1,stimulus_2,stimulus_3,text,time_commit,time_end,time_render,time_run,time_show,time_switch,url,word,word_ID
Prolific ID,html.Form,0,2022-04-27T11:07:14.175Z,"{""labjs_version"":""20.2.2"",""labjs_build"":{""flavor"":""production"",""commit"":""a25486e0c714a0ae2ce03ff94b7bb6896854dcfa""},""location"":""https://run.pavlovia.org/mvasilev/prolific3_music_b/"",""userAgent"":""Mozilla/5.0 (Windows NT 10.0; Win64; x64) AppleWebKit/537.36 (KHTML, like Gecko) Chrome/100.0.4896.127 Safari/537.36"",""platform"":""Win32"",""language"":""en-GB"",""locale"":""en-US"",""timeZone"":""Europe/London"",""timezoneOffset"":-60,""screen_width"":1280,""screen_height"":720,""scroll_width"":1600,""scroll_height"":673,""window_innerWidth"":1600,""window_innerHeight"":722,""devicePixelRatio"":1.2000000476837158}",,,,,,,,,,,,,,,61449269c23dcad4e01c9f94,,,,,,,,,,,,,,,5227.476999999255,,form submission,,,,,,,,,,,,,,,,,,,,,10964,10963.699999999255,5702.919,5717.89999999851,5736.223,10965.526,{},,
Introduction,html.Screen,1_0,2022-04-27T11:07:19.505Z,,,,,,,,,,,,,,,,,,,,,,,,,,,,,,,5326.173999999255,,response,,,,,,,,,,,continue,click button,,,,,,,,,16293.89999999851,16291.699999999255,10948.874,10964.199999999255,10965.526,16294.451,,,
Volume calibration,html.Screen,1_1,2022-04-27T11:07:40.075Z,,,,,,,,,,,,,,,,,,,,,,,,,,,,,,,20566.549,,response,,,,,,,,,,,continue,click button,,,,,,,,,36863.59999999963,36861,16277.799,16293.89999999851,16294.451,36877.53,,,
Task instructions,html.Screen,1_2,2022-04-27T11:07:50.269Z,,,,,,,,,,,,,,,,,,,,,,,,,,,,,,,10178.669999999256,,response,,,,,,,,,,,continue,click button,,,,,,,,,47057.699999999255,47056.199999999255,36860.878,36863.699999999255,36877.53,47068.571,,,
Sounds,html.Screen,1_3_0_0,2022-04-27T11:07:54.512Z,,,,,,,,,,,,,,,,,,,,,,,,,,,,,,,4246.956999999995,,timeout,,,,,,,,,2,,,,,,,,I,S,O,,51300.89999999851,51298.876,47051.919,47057.79999999888,47068.571,51315.528,,,
Judgement,html.Screen,1_3_0_1,2022-04-27T11:07:55.764Z,,,,,,,,,,,,,,,,,,,,,,,,,,,,true,2,,1235.771999998884,,response,,,,,,,,,2,,2,click #choice-2,,,,,I,S,O,,52553,52551.29999999888,51298.876,51301,51315.528,52564.631,,,
Trial,flow.Sequence,1_3_0,2022-04-27T11:07:55.765Z,,,,,,,,,,,,,,,,,,,,,,,,,,,,,,,5482.728999998879,,completion,,,,,,,,,2,,,,,,,,I,S,O,,52553.09999999963,52551.29999999888,47051.919,47057.79999999888,47068.571,52564.631,,,
Sounds,html.Screen,1_3_1_0,2022-04-27T11:08:00.007Z,,,,,,,,,,,,,,,,,,,,,,,,,,,,,,,4246.239999999998,,timeout,,,,,,,,,2,,,,,,,,O,S,I,,56795.29999999888,56794.219,52547.979,52553.199999999255,52564.631,56810.871,,,
Judgement,html.Screen,1_3_1_1,2022-04-27T11:08:00.854Z,,,,,,,,,,,,,,,,,,,,,,,,,,,,true,2,,830.5289999985107,,response,,,,,,,,,2,,2,click #choice-2,,,,,O,S,I,,57642.79999999888,57641.39999999851,56794.219,56795.39999999851,56810.871,57643.611,,,
Trial,flow.Sequence,1_3_1,2022-04-27T11:08:00.854Z,,,,,,,,,,,,,,,,,,,,,,,,,,,,,,,5076.768999998509,,completion,,,,,,,,,2,,,,,,,,O,S,I,,57643,57641.39999999851,52547.979,52553.199999999255,52564.631,57643.611,,,
Sounds,html.Screen,1_3_2_0,2022-04-27T11:08:05.086Z,,,,,,,,,,,,,,,,,,,,,,,,,,,,,,,4246.300000000003,,timeout,,,,,,,,,1,,,,,,,,S,I,O,,61874.39999999851,61873.259,57626.959,57643.09999999963,57643.611,61889.911,,,
Judgement,html.Screen,1_3_2_1,2022-04-27T11:08:06.364Z,,,,,,,,,,,,,,,,,,,,,,,,,,,,true,1,,1261.2889999992549,,response,,,,,,,,,1,,1,click #choice-1,,,,,S,I,O,,63152.699999999255,63151.199999999255,61873.259,61874.5,61889.911,63155.807,,,
Trial,flow.Sequence,1_3_2,2022-04-27T11:08:06.364Z,,,,,,,,,,,,,,,,,,,,,,,,,,,,,,,5507.588999999258,,completion,,,,,,,,,1,,,,,,,,S,I,O,,63153,63151.199999999255,57626.959,57643.09999999963,57643.611,63155.807,,,
Sounds,html.Screen,1_3_3_0,2022-04-27T11:08:10.598Z,,,,,,,,,,,,,,,,,,,,,,,,,,,,,,,4246.255000000005,,timeout,,,,,,,,,3,,,,,,,,I,O,S,,67386.39999999851,67385.41,63139.155,63153.09999999963,63155.807,67402.062,,,
Judgement,html.Screen,1_3_3_1,2022-04-27T11:08:11.504Z,,,,,,,,,,,,,,,,,,,,,,,,,,,,true,3,,889.2379999988771,,response,,,,,,,,,3,,3,click #choice-3,,,,,I,O,S,,68292.89999999851,68291.29999999888,67385.41,67386.39999999851,67402.062,68301.545,,,
Trial,flow.Sequence,1_3_3,2022-04-27T11:08:11.504Z,,,,,,,,,,,,,,,,,,,,,,,,,,,,,,,5135.492999998882,,completion,,,,,,,,,3,,,,,,,,I,O,S,,68293,68291.29999999888,63139.155,63153.09999999963,63155.807,68301.545,,,
Sounds,html.Screen,1_3_4_0,2022-04-27T11:08:15.744Z,,,,,,,,,,,,,,,,,,,,,,,,,,,,,,,4246.2820000000065,,timeout,,,,,,,,,3,,,,,,,,O,I,S,,72532.5,72531.175,68284.893,68293,68301.545,72547.827,,,
Judgement,html.Screen,1_3_4_1,2022-04-27T11:08:16.495Z,,,,,,,,,,,,,,,,,,,,,,,,,,,,true,3,,733.8729999992502,,response,,,,,,,,,3,,3,click #choice-3,,,,,O,I,S,,73283.19999999925,73281.69999999925,72531.175,72532.59999999963,72547.827,73297.568,,,
Trial,flow.Sequence,1_3_4,2022-04-27T11:08:16.495Z,,,,,,,,,,,,,,,,,,,,,,,,,,,,,,,4980.154999999257,,completion,,,,,,,,,3,,,,,,,,O,I,S,,73283.29999999888,73281.69999999925,68284.893,68293,68301.545,73297.568,,,
Sounds,html.Screen,1_3_5_0,2022-04-27T11:08:20.740Z,,,,,,,,,,,,,,,,,,,,,,,,,,,,,,,4246.294999999998,,timeout,,,,,,,,,1,,,,,,,,S,O,I,,77528.29999999888,77527.211,73280.916,73283.39999999851,73297.568,77543.863,,,
Judgement,html.Screen,1_3_5_1,2022-04-27T11:08:21.374Z,,,,,,,,,,,,,,,,,,,,,,,,,,,,true,1,,617.3369999992574,,response,,,,,,,,,1,,1,click #choice-1,,,,,S,O,I,,78162.89999999851,78161.19999999925,77527.211,77528.29999999888,77543.863,78176.886,,,
Trial,flow.Sequence,1_3_5,2022-04-27T11:08:21.374Z,,,,,,,,,,,,,,,,,,,,,,,,,,,,,,,4863.631999999256,,completion,,,,,,,,,1,,,,,,,,S,O,I,,78163.09999999963,78161.19999999925,73280.916,73283.29999999888,73297.568,78176.886,,,
Task,flow.Loop,1_3,2022-04-27T11:08:21.377Z,,,,,,,,,,,,,,,,,,,,,,,,,,,,,,,31092.62899999925,,completion,,,1,,,,,,,,,,,,,,,,,,78165.5,78161.19999999925,47051.919,47057.79999999888,47068.571,78176.886,,,
Trap,html.Screen,1_4,2022-04-27T11:08:21.378Z,,,,,,,,,,,,,,,,,,,,,,,,,,,,,,,NaN,,skipped,,,,,,,,,,,,,,,,,,,,,78166.19999999925,78161.19999999925,,78166.09999999963,,78176.886,,,
Thanks,html.Screen,1_5,2022-04-27T11:08:25.619Z,,,,,,,,,,,,,,,,,,,,,,,,,,,,,,,4230.013999998511,,response,,,,,,,,,,,continue,click button,,,,,,,,,82408.09999999963,82406.89999999851,78160.234,78166.29999999888,78176.886,87369.078,,,
Headphone screening,flow.Sequence,1,2022-04-27T11:08:25.619Z,,,,,,,,,,,,,,,,,,,,,,,,,,,,,,,71441.37399999851,,completion,,,,,,,,,,,,,,,,,,,,,82408.09999999963,82406.89999999851,10948.874,10964.099999999627,10965.526,87369.078,,,
Instructions,html.Page,2_0,2022-04-27T11:08:40.935Z,,,,,,,,,,,,,,,,,,,,,,,,,,,,,,,10353.922000000006,,form submission,,,,,,,,,,,,,,,,,,,,,97723.5,97723,87352.426,87364.39999999851,87369.078,97727.433,,,
Holding screen,html.Screen,2_1_0_0,2022-04-27T11:08:50.915Z,,,,,,,,,,,,,,,,,,,,,,,,,,,,,,,9991.818,,timeout,,,,,,,,,,,,,,,,,,,,,107703.69999999925,107702.599,97710.781,97723.79999999888,97727.433,107719.251,,,
screen,html.Screen,2_1_0_1_0,2022-04-27T11:08:52.036Z,,,,,,,,,,,,,,,,,53,,,,,,,,,,,,,,1103.448999999251,,response,,,,99,,,,,,,Space,keypress(Space),,,,,,,,When -- ----- -- ------ - ------- --- ----------<br>------------- ------ ------ ---- ---- ------- ----- -- ----<br>-------- ------- -- ---------- --- - --- ----- ----- ----<br>---- --- --- ----- --- ---- ---- ------- ----- ---- -------<br>--- --- -- ----- -- --- ---- -- --- ---- -- ------ ------<br>--- ----- -- ----,108824.29999999888,108822.69999999925,107702.599,107703.89999999851,107719.251,108835.001,,0,When
screen,html.Screen,2_1_0_1_1,2022-04-27T11:08:52.534Z,,,,,,,,,,,,,,,,,53,,,,,,,,,,,,,,487.39899999850604,,response,,,,99,,,,,,,Space,keypress(Space),,,,,,,,---- it ----- -- ------ - ------- --- ----------<br>------------- ------ ------ ---- ---- ------- ----- -- ----<br>-------- ------- -- ---------- --- - --- ----- ----- ----<br>---- --- --- ----- --- ---- ---- ------- ----- ---- -------<br>--- --- -- ----- -- --- ---- -- --- ---- -- ------ ------<br>--- ----- -- ----,109323.09999999963,109322.39999999851,108818.349,108824.39999999851,108835.001,109334.592,,1,it
screen,html.Screen,2_1_0_1_2,2022-04-27T11:08:52.934Z,,,,,,,,,,,,,,,,,53,,,,,,,,,,,,,,387.7079999988782,,response,,,,99,,,,,,,Space,keypress(Space),,,,,,,,---- -- comes -- ------ - ------- --- ----------<br>------------- ------ ------ ---- ---- ------- ----- -- ----<br>-------- ------- -- ---------- --- - --- ----- ----- ----<br>---- --- --- ----- --- ---- ---- ------- ----- ---- -------<br>--- --- -- ----- -- --- ---- -- --- ---- -- ------ ------<br>--- ----- -- ----,109723,109722.29999999888,109317.94,109323.09999999963,109334.592,109734.43,,2,comes
screen,html.Screen,2_1_0_1_3,2022-04-27T11:08:53.340Z,,,,,,,,,,,,,,,,,53,,,,,,,,,,,,,,393.070000000007,,response,,,,99,,,,,,,Space,keypress(Space),,,,,,,,---- -- ----- to ------ - ------- --- ----------<br>------------- ------ ------ ---- ---- ------- ----- -- ----<br>-------- ------- -- ---------- --- - --- ----- ----- ----<br>---- --- --- ----- --- ---- ---- ------- ----- ---- -------<br>--- --- -- ----- -- --- ---- -- --- ---- -- ------ ------<br>--- ----- -- ----,110128.19999999925,110127.5,109717.778,109723,109734.43,110134.008,,3,to
screen,html.Screen,2_1_0_1_4,2022-04-27T11:08:53.616Z,,,,,,,,,,,,,,,,,53,,,,,,,,,,,,,,270.49199999999837,,response,,,,99,,,,,,,Space,keypress(Space),,,,,,,,---- -- ----- -- having - ------- --- ----------<br>------------- ------ ------ ---- ---- ------- ----- -- ----<br>-------- ------- -- ---------- --- - --- ----- ----- ----<br>---- --- --- ----- --- ---- ---- ------- ----- ---- -------<br>--- --- -- ----- -- --- ---- -- --- ---- -- ------ ------<br>--- ----- -- ----,110405.19999999925,110404.5,110117.356,110128.19999999925,110134.008,110417.078,,4,having
screen,html.Screen,2_1_0_1_5,2022-04-27T11:08:53.959Z,,,,,,,,,,,,,,,,,53,,,,,,,,,,,,,,330.1219999992609,,response,,,,99,,,,,,,Space,keypress(Space),,,,,,,,---- -- ----- -- ------ a ------- --- ----------<br>------------- ------ ------ ---- ---- ------- ----- -- ----<br>-------- ------- -- ---------- --- - --- ----- ----- ----<br>---- --- --- ----- --- ---- ---- ------- ----- ---- -------<br>--- --- -- ----- -- --- ---- -- --- ---- -- ------ ------<br>--- ----- -- ----,110747.79999999888,110747.19999999925,110400.426,110405.29999999888,110417.078,110750.157,,5,a
screen,html.Screen,2_1_0_1_6,2022-04-27T11:08:54.271Z,,,,,,,,,,,,,,,,,53,,,,,,,,,,,,,,309.3429999999935,,response,,,,99,,,,,,,Space,keypress(Space),,,,,,,,---- -- ----- -- ------ - lasting --- ----------<br>------------- ------ ------ ---- ---- ------- ----- -- ----<br>-------- ------- -- ---------- --- - --- ----- ----- ----<br>---- --- --- ----- --- ---- ---- ------- ----- ---- -------<br>--- --- -- ----- -- --- ---- -- --- ---- -- ------ ------<br>--- ----- -- ----,111060.09999999963,111059.5,110733.505,110747.89999999851,110750.157,111066.546,,6,lasting
screen,html.Screen,2_1_0_1_7,2022-04-27T11:08:54.719Z,,,,,,,,,,,,,,,,,53,,,,,,,,,,,,,,440.2539999988803,,response,,,,99,,,,,,,Space,keypress(Space),,,,,,,,---- -- ----- -- ------ - ------- and ----------<br>------------- ------ ------ ---- ---- ------- ----- -- ----<br>-------- ------- -- ---------- --- - --- ----- ----- ----<br>---- --- --- ----- --- ---- ---- ------- ----- ---- -------<br>--- --- -- ----- -- --- ---- -- --- ---- -- ------ ------<br>--- ----- -- ----,111507.59999999963,111506.79999999888,111049.894,111060.19999999925,111066.546,111516.164,,7,and
screen,html.Screen,2_1_0_1_8,2022-04-27T11:08:55.020Z,,,,,,,,,,,,,,,,,53,,,,,,,,,,,,,,292.1359999988781,,response,,,,99,,,,,,,Space,keypress(Space),,,,,,,,---- -- ----- -- ------ - ------- --- fulfilling<br>------------- ------ ------ ---- ---- ------- ----- -- ----<br>-------- ------- -- ---------- --- - --- ----- ----- ----<br>---- --- --- ----- --- ---- ---- ------- ----- ---- -------<br>--- --- -- ----- -- --- ---- -- --- ---- -- ------ ------<br>--- ----- -- ----,111808.89999999851,111808.29999999888,111499.512,111507.69999999925,111516.164,111816.07,,8,fulfilling
screen,html.Screen,2_1_0_1_9,2022-04-27T11:08:55.585Z,,,,,,,,,,,,,,,,,53,,,,,,,,,,,,,,557.2299999988754,,response,,,,99,,,,,,,Space,keypress(Space),,,,,,,,"---- -- ----- -- ------ - ------- --- ----------<br>relationship, ------ ------ ---- ---- ------- ----- -- ----<br>-------- ------- -- ---------- --- - --- ----- ----- ----<br>---- --- --- ----- --- ---- ---- ------- ----- ---- -------<br>--- --- -- ----- -- --- ---- -- --- ---- -- ------ ------<br>--- ----- -- ----",112373.79999999888,112373.29999999888,111799.418,111809,111816.07,112382.134,,9,"relationship,"
screen,html.Screen,2_1_0_1_10,2022-04-27T11:08:55.890Z,,,,,,,,,,,,,,,,,53,,,,,,,,,,,,,,295.7659999985044,,response,,,,99,,,,,,,Space,keypress(Space),,,,,,,,---- -- ----- -- ------ - ------- --- ----------<br>------------- common ------ ---- ---- ------- ----- -- ----<br>-------- ------- -- ---------- --- - --- ----- ----- ----<br>---- --- --- ----- --- ---- ---- ------- ----- ---- -------<br>--- --- -- ----- -- --- ---- -- --- ---- -- ------ ------<br>--- ----- -- ----,112678.59999999963,112677.89999999851,112365.482,112373.89999999851,112382.134,112681.869,,10,common
screen,html.Screen,2_1_0_1_11,2022-04-27T11:08:56.321Z,,,,,,,,,,,,,,,,,53,,,,,,,,,,,,,,427.2309999996214,,response,,,,99,,,,,,,Space,keypress(Space),,,,,,,,---- -- ----- -- ------ - ------- --- ----------<br>------------- ------ wisdom ---- ---- ------- ----- -- ----<br>-------- ------- -- ---------- --- - --- ----- ----- ----<br>---- --- --- ----- --- ---- ---- ------- ----- ---- -------<br>--- --- -- ----- -- --- ---- -- --- ---- -- ------ ------<br>--- ----- -- ----,113109.5,113109.09999999963,112665.217,112678.59999999963,112681.869,113115.011,,11,wisdom
screen,html.Screen,2_1_0_1_12,2022-04-27T11:08:56.657Z,,,,,,,,,,,,,,,,,53,,,,,,,,,,,,,,330.58899999962887,,response,,,,99,,,,,,,Space,keypress(Space),,,,,,,,---- -- ----- -- ------ - ------- --- ----------<br>------------- ------ ------ says ---- ------- ----- -- ----<br>-------- ------- -- ---------- --- - --- ----- ----- ----<br>---- --- --- ----- --- ---- ---- ------- ----- ---- -------<br>--- --- -- ----- -- --- ---- -- --- ---- -- ------ ------<br>--- ----- -- ----,113446.19999999925,113445.59999999963,113098.359,113109.59999999963,113115.011,113447.754,,12,says
screen,html.Screen,2_1_0_1_13,2022-04-27T11:08:57.056Z,,,,,,,,,,,,,,,,,53,,,,,,,,,,,,,,396.4459999992541,,response,,,,99,,,,,,,Space,keypress(Space),,,,,,,,---- -- ----- -- ------ - ------- --- ----------<br>------------- ------ ------ ---- that ------- ----- -- ----<br>-------- ------- -- ---------- --- - --- ----- ----- ----<br>---- --- --- ----- --- ---- ---- ------- ----- ---- -------<br>--- --- -- ----- -- --- ---- -- --- ---- -- ------ ------<br>--- ----- -- ----,113844.69999999925,113844.19999999925,113431.102,113446.29999999888,113447.754,113847.693,,13,that
screen,html.Screen,2_1_0_1_14,2022-04-27T11:08:57.366Z,,,,,,,,,,,,,,,,,53,,,,,,,,,,,,,,306.3070000000007,,response,,,,99,,,,,,,Space,keypress(Space),,,,,,,,---- -- ----- -- ------ - ------- --- ----------<br>------------- ------ ------ ---- ---- feeling ----- -- ----<br>-------- ------- -- ---------- --- - --- ----- ----- ----<br>---- --- --- ----- --- ---- ---- ------- ----- ---- -------<br>--- --- -- ----- -- --- ---- -- --- ---- -- ------ ------<br>--- ----- -- ----,114154.59999999963,114154,113831.041,113844.79999999888,113847.693,114163.979,,14,feeling
screen,html.Screen,2_1_0_1_15,2022-04-27T11:08:57.678Z,,,,,,,,,,,,,,,,,53,,,,,,,,,,,,,,301.92099999850325,,response,,,,99,,,,,,,Space,keypress(Space),,,,,,,,---- -- ----- -- ------ - ------- --- ----------<br>------------- ------ ------ ---- ---- ------- close -- ----<br>-------- ------- -- ---------- --- - --- ----- ----- ----<br>---- --- --- ----- --- ---- ---- ------- ----- ---- -------<br>--- --- -- ----- -- --- ---- -- --- ---- -- ------ ------<br>--- ----- -- ----,114466.5,114465.89999999851,114147.327,114154.69999999925,114163.979,114480.381,,15,close
screen,html.Screen,2_1_0_1_16,2022-04-27T11:08:57.934Z,,,,,,,,,,,,,,,,,53,,,,,,,,,,,,,,242.01899999851594,,response,,,,99,,,,,,,Space,keypress(Space),,,,,,,,---- -- ----- -- ------ - ------- --- ----------<br>------------- ------ ------ ---- ---- ------- ----- to ----<br>-------- ------- -- ---------- --- - --- ----- ----- ----<br>---- --- --- ----- --- ---- ---- ------- ----- ---- -------<br>--- --- -- ----- -- --- ---- -- --- ---- -- ------ ------<br>--- ----- -- ----,114723,114722.39999999851,114463.729,114466.59999999963,114480.381,114730.206,,16,to
screen,html.Screen,2_1_0_1_17,2022-04-27T11:08:58.174Z,,,,,,,,,,,,,,,,,53,,,,,,,,,,,,,,231.49399999924935,,response,,,,99,,,,,,,Space,keypress(Space),,,,,,,,---- -- ----- -- ------ - ------- --- ----------<br>------------- ------ ------ ---- ---- ------- ----- -- your<br>-------- ------- -- ---------- --- - --- ----- ----- ----<br>---- --- --- ----- --- ---- ---- ------- ----- ---- -------<br>--- --- -- ----- -- --- ---- -- --- ---- -- ------ ------<br>--- ----- -- ----,114962.29999999888,114961.69999999925,114713.554,114723.09999999963,114730.206,114963.368,,17,your
screen,html.Screen,2_1_0_1_18,2022-04-27T11:08:58.555Z,,,,,,,,,,,,,,,,,53,,,,,,,,,,,,,,379.83199999925273,,response,,,,99,,,,,,,Space,keypress(Space),,,,,,,,---- -- ----- -- ------ - ------- --- ----------<br>------------- ------ ------ ---- ---- ------- ----- -- ----<br>romantic ------- -- ---------- --- - --- ----- ----- ----<br>---- --- --- ----- --- ---- ---- ------- ----- ---- -------<br>--- --- -- ----- -- --- ---- -- --- ---- -- ------ ------<br>--- ----- -- ----,115343.79999999888,115343.19999999925,114946.716,114962.39999999851,114963.368,115346.512,,18,romantic
screen,html.Screen,2_1_0_1_19,2022-04-27T11:08:58.802Z,,,,,,,,,,,,,,,,,53,,,,,,,,,,,,,,243.78799999887997,,response,,,,99,,,,,,,Space,keypress(Space),,,,,,,,---- -- ----- -- ------ - ------- --- ----------<br>------------- ------ ------ ---- ---- ------- ----- -- ----<br>-------- partner -- ---------- --- - --- ----- ----- ----<br>---- --- --- ----- --- ---- ---- ------- ----- ---- -------<br>--- --- -- ----- -- --- ---- -- --- ---- -- ------ ------<br>--- ----- -- ----,115590.89999999851,115590.29999999888,115329.86,115343.89999999851,115346.512,115596.152,,19,partner
screen,html.Screen,2_1_0_1_20,2022-04-27T11:08:59.004Z,,,,,,,,,,,,,,,,,53,,,,,,,,,,,,,,196.4479999996256,,response,,,,99,,,,,,,Space,keypress(Space),,,,,,,,---- -- ----- -- ------ - ------- --- ----------<br>------------- ------ ------ ---- ---- ------- ----- -- ----<br>-------- ------- is ---------- --- - --- ----- ----- ----<br>---- --- --- ----- --- ---- ---- ------- ----- ---- -------<br>--- --- -- ----- -- --- ---- -- --- ---- -- ------ ------<br>--- ----- -- ----,115793.19999999925,115792.59999999963,115579.5,115590.89999999851,115596.152,115796.062,,20,is
screen,html.Screen,2_1_0_1_21,2022-04-27T11:08:59.322Z,,,,,,,,,,,,,,,,,53,,,,,,,,,,,,,,314.1379999992496,,response,,,,99,,,,,,,Space,keypress(Space),,,,,,,,---- -- ----- -- ------ - ------- --- ----------<br>------------- ------ ------ ---- ---- ------- ----- -- ----<br>-------- ------- -- paramount. --- - --- ----- ----- ----<br>---- --- --- ----- --- ---- ---- ------- ----- ---- -------<br>--- --- -- ----- -- --- ---- -- --- ---- -- ------ ------<br>--- ----- -- ----,116110.89999999851,116110.19999999925,115779.41,115793.19999999925,115796.062,116112.429,,21,paramount.
screen,html.Screen,2_1_0_1_22,2022-04-27T11:08:59.867Z,,,,,,,,,,,,,,,,,53,,,,,,,,,,,,,,542.9709999985062,,response,,,,99,,,,,,,Space,keypress(Space),,,,,,,,---- -- ----- -- ------ - ------- --- ----------<br>------------- ------ ------ ---- ---- ------- ----- -- ----<br>-------- ------- -- ---------- But - --- ----- ----- ----<br>---- --- --- ----- --- ---- ---- ------- ----- ---- -------<br>--- --- -- ----- -- --- ---- -- --- ---- -- ------ ------<br>--- ----- -- ----,116655.89999999851,116655.39999999851,116095.777,116110.89999999851,116112.429,116661.992,,22,But
screen,html.Screen,2_1_0_1_23,2022-04-27T11:09:00.183Z,,,,,,,,,,,,,,,,,53,,,,,,,,,,,,,,308.9079999985115,,response,,,,99,,,,,,,Space,keypress(Space),,,,,,,,---- -- ----- -- ------ - ------- --- ----------<br>------------- ------ ------ ---- ---- ------- ----- -- ----<br>-------- ------- -- ---------- --- a --- ----- ----- ----<br>---- --- --- ----- --- ---- ---- ------- ----- ---- -------<br>--- --- -- ----- -- --- ---- -- --- ---- -- ------ ------<br>--- ----- -- ----,116971.69999999925,116970.89999999851,116645.34,116656.09999999963,116661.992,116978.329,,23,a
screen,html.Screen,2_1_0_1_24,2022-04-27T11:09:00.442Z,,,,,,,,,,,,,,,,,53,,,,,,,,,,,,,,251.6710000000021,,response,,,,99,,,,,,,Space,keypress(Space),,,,,,,,---- -- ----- -- ------ - ------- --- ----------<br>------------- ------ ------ ---- ---- ------- ----- -- ----<br>-------- ------- -- ---------- --- - new ----- ----- ----<br>---- --- --- ----- --- ---- ---- ------- ----- ---- -------<br>--- --- -- ----- -- --- ---- -- --- ---- -- ------ ------<br>--- ----- -- ----,117230.59999999963,117230,116961.677,116971.69999999925,116978.329,117244.957,,24,new
screen,html.Screen,2_1_0_1_25,2022-04-27T11:09:00.692Z,,,,,,,,,,,,,,,,,53,,,,,,,,,,,,,,234.74299999926006,,response,,,,99,,,,,,,Space,keypress(Space),,,,,,,,---- -- ----- -- ------ - ------- --- ----------<br>------------- ------ ------ ---- ---- ------- ----- -- ----<br>-------- ------- -- ---------- --- - --- study ----- ----<br>---- --- --- ----- --- ---- ---- ------- ----- ---- -------<br>--- --- -- ----- -- --- ---- -- --- ---- -- ------ ------<br>--- ----- -- ----,117480.29999999888,117479.69999999925,117228.305,117230.69999999925,117244.957,117494.451,,25,study
screen,html.Screen,2_1_0_1_26,2022-04-27T11:09:00.931Z,,,,,,,,,,,,,,,,,53,,,,,,,,,,,,,,224.34899999888148,,response,,,,99,,,,,,,Space,keypress(Space),,,,,,,,---- -- ----- -- ------ - ------- --- ----------<br>------------- ------ ------ ---- ---- ------- ----- -- ----<br>-------- ------- -- ---------- --- - --- ----- finds ----<br>---- --- --- ----- --- ---- ---- ------- ----- ---- -------<br>--- --- -- ----- -- --- ---- -- --- ---- -- ------ ------<br>--- ----- -- ----,117719.39999999851,117718.79999999888,117477.799,117480.39999999851,117494.451,117727.775,,26,finds
screen,html.Screen,2_1_0_1_27,2022-04-27T11:09:01.112Z,,,,,,,,,,,,,,,,,53,,,,,,,,,,,,,,172.22500000000582,,response,,,,99,,,,,,,Space,keypress(Space),,,,,,,,---- -- ----- -- ------ - ------- --- ----------<br>------------- ------ ------ ---- ---- ------- ----- -- ----<br>-------- ------- -- ---------- --- - --- ----- ----- that<br>---- --- --- ----- --- ---- ---- ------- ----- ---- -------<br>--- --- -- ----- -- --- ---- -- --- ---- -- ------ ------<br>--- ----- -- ----,117900.5,117900,117711.123,117719.5,117727.775,117911.034,,27,that
screen,html.Screen,2_1_0_1_28,2022-04-27T11:09:01.530Z,,,,,,,,,,,,,,,,,53,,,,,,,,,,,,,,407.26599999888276,,response,,,,99,,,,,,,Space,keypress(Space),,,,,,,,---- -- ----- -- ------ - ------- --- ----------<br>------------- ------ ------ ---- ---- ------- ----- -- ----<br>-------- ------- -- ---------- --- - --- ----- ----- ----<br>it's --- --- ----- --- ---- ---- ------- ----- ---- -------<br>--- --- -- ----- -- --- ---- -- --- ---- -- ------ ------<br>--- ----- -- ----,118318.79999999888,118318.29999999888,117894.382,117900.59999999963,117911.034,118327.267,,28,it's
screen,html.Screen,2_1_0_1_29,2022-04-27T11:09:01.829Z,,,,,,,,,,,,,,,,,53,,,,,,,,,,,,,,290.2329999999929,,response,,,,99,,,,,,,Space,keypress(Space),,,,,,,,---- -- ----- -- ------ - ------- --- ----------<br>------------- ------ ------ ---- ---- ------- ----- -- ----<br>-------- ------- -- ---------- --- - --- ----- ----- ----<br>---- not --- ----- --- ---- ---- ------- ----- ---- -------<br>--- --- -- ----- -- --- ---- -- --- ---- -- ------ ------<br>--- ----- -- ----,118618,118617.5,118310.615,118318.89999999851,118327.267,118627.085,,29,not
screen,html.Screen,2_1_0_1_30,2022-04-27T11:09:02.094Z,,,,,,,,,,,,,,,,,53,,,,,,,,,,,,,,254.714999998876,,response,,,,99,,,,,,,Space,keypress(Space),,,,,,,,---- -- ----- -- ------ - ------- --- ----------<br>------------- ------ ------ ---- ---- ------- ----- -- ----<br>-------- ------- -- ---------- --- - --- ----- ----- ----<br>---- --- how ----- --- ---- ---- ------- ----- ---- -------<br>--- --- -- ----- -- --- ---- -- --- ---- -- ------ ------<br>--- ----- -- ----,118882.5,118881.79999999888,118610.433,118618.19999999925,118627.085,118893.443,,30,how
screen,html.Screen,2_1_0_1_31,2022-04-27T11:09:02.637Z,,,,,,,,,,,,,,,,,53,,,,,,,,,,,,,,532.0570000000007,,response,,,,99,,,,,,,Space,keypress(Space),,,,,,,,---- -- ----- -- ------ - ------- --- ----------<br>------------- ------ ------ ---- ---- ------- ----- -- ----<br>-------- ------- -- ---------- --- - --- ----- ----- ----<br>---- --- --- close --- ---- ---- ------- ----- ---- -------<br>--- --- -- ----- -- --- ---- -- --- ---- -- ------ ------<br>--- ----- -- ----,119426,119425.5,118876.791,118882.59999999963,118893.443,119443.008,,31,close
screen,html.Screen,2_1_0_1_32,2022-04-27T11:09:02.841Z,,,,,,,,,,,,,,,,,53,,,,,,,,,,,,,,186.09199999962584,,response,,,,99,,,,,,,Space,keypress(Space),,,,,,,,---- -- ----- -- ------ - ------- --- ----------<br>------------- ------ ------ ---- ---- ------- ----- -- ----<br>-------- ------- -- ---------- --- - --- ----- ----- ----<br>---- --- --- ----- you ---- ---- ------- ----- ---- -------<br>--- --- -- ----- -- --- ---- -- --- ---- -- ------ ------<br>--- ----- -- ----,119629.69999999925,119629.09999999963,119426.356,119426.19999999925,119443.008,119642.847,,32,you
screen,html.Screen,2_1_0_1_33,2022-04-27T11:09:03.035Z,,,,,,,,,,,,,,,,,53,,,,,,,,,,,,,,180.5529999985156,,response,,,,99,,,,,,,Space,keypress(Space),,,,,,,,---- -- ----- -- ------ - ------- --- ----------<br>------------- ------ ------ ---- ---- ------- ----- -- ----<br>-------- ------- -- ---------- --- - --- ----- ----- ----<br>---- --- --- ----- --- feel ---- ------- ----- ---- -------<br>--- --- -- ----- -- --- ---- -- --- ---- -- ------ ------<br>--- ----- -- ----,119823.89999999851,119823.39999999851,119626.195,119629.69999999925,119642.847,119826.056,,33,feel
screen,html.Screen,2_1_0_1_34,2022-04-27T11:09:03.359Z,,,,,,,,,,,,,,,,,53,,,,,,,,,,,,,,321.1439999992581,,response,,,,99,,,,,,,Space,keypress(Space),,,,,,,,---- -- ----- -- ------ - ------- --- ----------<br>------------- ------ ------ ---- ---- ------- ----- -- ----<br>-------- ------- -- ---------- --- - --- ----- ----- ----<br>---- --- --- ----- --- ---- that ------- ----- ---- -------<br>--- --- -- ----- -- --- ---- -- --- ---- -- ------ ------<br>--- ----- -- ----,120147.89999999851,120147.19999999925,119809.404,119824.09999999963,119826.056,120159.057,,34,that
screen,html.Screen,2_1_0_1_35,2022-04-27T11:09:03.612Z,,,,,,,,,,,,,,,,,53,,,,,,,,,,,,,,241.04299999962677,,response,,,,99,,,,,,,Space,keypress(Space),,,,,,,,---- -- ----- -- ------ - ------- --- ----------<br>------------- ------ ------ ---- ---- ------- ----- -- ----<br>-------- ------- -- ---------- --- - --- ----- ----- ----<br>---- --- --- ----- --- ---- ---- matters ----- ---- -------<br>--- --- -- ----- -- --- ---- -- --- ---- -- ------ ------<br>--- ----- -- ----,120400.79999999888,120400.09999999963,120142.405,120147.89999999851,120159.057,120408.867,,35,matters
screen,html.Screen,2_1_0_1_36,2022-04-27T11:09:03.859Z,,,,,,,,,,,,,,,,,53,,,,,,,,,,,,,,238.33299999925657,,response,,,,99,,,,,,,Space,keypress(Space),,,,,,,,"---- -- ----- -- ------ - ------- --- ----------<br>------------- ------ ------ ---- ---- ------- ----- -- ----<br>-------- ------- -- ---------- --- - --- ----- ----- ----<br>---- --- --- ----- --- ---- ---- ------- most, ---- -------<br>--- --- -- ----- -- --- ---- -- --- ---- -- ------ ------<br>--- ----- -- ----",120647.79999999888,120647.19999999925,120392.215,120400.89999999851,120408.867,120658.706,,36,"most,"
screen,html.Screen,2_1_0_1_37,2022-04-27T11:09:04.393Z,,,,,,,,,,,,,,,,,53,,,,,,,,,,,,,,522.4939999992494,,response,,,,99,,,,,,,Space,keypress(Space),,,,,,,,---- -- ----- -- ------ - ------- --- ----------<br>------------- ------ ------ ---- ---- ------- ----- -- ----<br>-------- ------- -- ---------- --- - --- ----- ----- ----<br>---- --- --- ----- --- ---- ---- ------- ----- it's -------<br>--- --- -- ----- -- --- ---- -- --- ---- -- ------ ------<br>--- ----- -- ----,121181.79999999888,121181.19999999925,120642.054,120647.89999999851,120658.706,121191.427,,37,it's
screen,html.Screen,2_1_0_1_38,2022-04-27T11:09:04.633Z,,,,,,,,,,,,,,,,,53,,,,,,,,,,,,,,230.47299999851384,,response,,,,99,,,,,,,Space,keypress(Space),,,,,,,,---- -- ----- -- ------ - ------- --- ----------<br>------------- ------ ------ ---- ---- ------- ----- -- ----<br>-------- ------- -- ---------- --- - --- ----- ----- ----<br>---- --- --- ----- --- ---- ---- ------- ----- ---- whether<br>--- --- -- ----- -- --- ---- -- --- ---- -- ------ ------<br>--- ----- -- ----,121422.39999999851,121421.89999999851,121174.775,121181.89999999851,121191.427,121424.523,,38,whether
screen,html.Screen,2_1_0_1_39,2022-04-27T11:09:04.985Z,,,,,,,,,,,,,,,,,53,,,,,,,,,,,,,,349.5769999996264,,response,,,,99,,,,,,,Space,keypress(Space),,,,,,,,---- -- ----- -- ------ - ------- --- ----------<br>------------- ------ ------ ---- ---- ------- ----- -- ----<br>-------- ------- -- ---------- --- - --- ----- ----- ----<br>---- --- --- ----- --- ---- ---- ------- ----- ---- -------<br>you --- -- ----- -- --- ---- -- --- ---- -- ------ ------<br>--- ----- -- ----,121774.59999999963,121774.09999999963,121407.871,121422.5,121424.523,121791.176,,39,you
screen,html.Screen,2_1_0_1_40,2022-04-27T11:09:05.241Z,,,,,,,,,,,,,,,,,53,,,,,,,,,,,,,,238.5239999992482,,response,,,,99,,,,,,,Space,keypress(Space),,,,,,,,---- -- ----- -- ------ - ------- --- ----------<br>------------- ------ ------ ---- ---- ------- ----- -- ----<br>-------- ------- -- ---------- --- - --- ----- ----- ----<br>---- --- --- ----- --- ---- ---- ------- ----- ---- -------<br>--- are -- ----- -- --- ---- -- --- ---- -- ------ ------<br>--- ----- -- ----,122030.39999999851,122029.69999999925,121774.524,121774.69999999925,121791.176,122040.859,,40,are
screen,html.Screen,2_1_0_1_41,2022-04-27T11:09:05.459Z,,,,,,,,,,,,,,,,,53,,,,,,,,,,,,,,206.94099999888567,,response,,,,99,,,,,,,Space,keypress(Space),,,,,,,,---- -- ----- -- ------ - ------- --- ----------<br>------------- ------ ------ ---- ---- ------- ----- -- ----<br>-------- ------- -- ---------- --- - --- ----- ----- ----<br>---- --- --- ----- --- ---- ---- ------- ----- ---- -------<br>--- --- as ----- -- --- ---- -- --- ---- -- ------ ------<br>--- ----- -- ----,122248.39999999851,122247.79999999888,122024.207,122030.5,122040.859,122257.211,,41,as
screen,html.Screen,2_1_0_1_42,2022-04-27T11:09:05.672Z,,,,,,,,,,,,,,,,,53,,,,,,,,,,,,,,203.38899999963178,,response,,,,99,,,,,,,Space,keypress(Space),,,,,,,,---- -- ----- -- ------ - ------- --- ----------<br>------------- ------ ------ ---- ---- ------- ----- -- ----<br>-------- ------- -- ---------- --- - --- ----- ----- ----<br>---- --- --- ----- --- ---- ---- ------- ----- ---- -------<br>--- --- -- close -- --- ---- -- --- ---- -- ------ ------<br>--- ----- -- ----,122461.09999999963,122460.59999999963,122240.559,122248.5,122257.211,122473.913,,42,close
screen,html.Screen,2_1_0_1_43,2022-04-27T11:09:05.935Z,,,,,,,,,,,,,,,,,53,,,,,,,,,,,,,,249.58699999999953,,response,,,,99,,,,,,,Space,keypress(Space),,,,,,,,---- -- ----- -- ------ - ------- --- ----------<br>------------- ------ ------ ---- ---- ------- ----- -- ----<br>-------- ------- -- ---------- --- - --- ----- ----- ----<br>---- --- --- ----- --- ---- ---- ------- ----- ---- -------<br>--- --- -- ----- as --- ---- -- --- ---- -- ------ ------<br>--- ----- -- ----,122724.09999999963,122723.5,122457.261,122461.19999999925,122473.913,122740.52,,43,as
screen,html.Screen,2_1_0_1_44,2022-04-27T11:09:06.189Z,,,,,,,,,,,,,,,,,53,,,,,,,,,,,,,,236.97999999999593,,response,,,,99,,,,,,,Space,keypress(Space),,,,,,,,---- -- ----- -- ------ - ------- --- ----------<br>------------- ------ ------ ---- ---- ------- ----- -- ----<br>-------- ------- -- ---------- --- - --- ----- ----- ----<br>---- --- --- ----- --- ---- ---- ------- ----- ---- -------<br>--- --- -- ----- -- you ---- -- --- ---- -- ------ ------<br>--- ----- -- ----,122978,122977.5,122723.868,122724.09999999963,122740.52,122989.99,,44,you
screen,html.Screen,2_1_0_1_45,2022-04-27T11:09:06.466Z,,,,,,,,,,,,,,,,,53,,,,,,,,,,,,,,264.90999999850465,,response,,,,99,,,,,,,Space,keypress(Space),,,,,,,,---- -- ----- -- ------ - ------- --- ----------<br>------------- ------ ------ ---- ---- ------- ----- -- ----<br>-------- ------- -- ---------- --- - --- ----- ----- ----<br>---- --- --- ----- --- ---- ---- ------- ----- ---- -------<br>--- --- -- ----- -- --- want -- --- ---- -- ------ ------<br>--- ----- -- ----,123255.5,123254.89999999851,122973.338,122978.09999999963,122989.99,123256.383,,45,want
screen,html.Screen,2_1_0_1_46,2022-04-27T11:09:06.754Z,,,,,,,,,,,,,,,,,53,,,,,,,,,,,,,,285.9169999988808,,response,,,,99,,,,,,,Space,keypress(Space),,,,,,,,---- -- ----- -- ------ - ------- --- ----------<br>------------- ------ ------ ---- ---- ------- ----- -- ----<br>-------- ------- -- ---------- --- - --- ----- ----- ----<br>---- --- --- ----- --- ---- ---- ------- ----- ---- -------<br>--- --- -- ----- -- --- ---- to --- ---- -- ------ ------<br>--- ----- -- ----,123542.89999999851,123542.29999999888,123239.731,123255.59999999963,123256.383,123556.141,,46,to
screen,html.Screen,2_1_0_1_47,2022-04-27T11:09:07.086Z,,,,,,,,,,,,,,,,,53,,,,,,,,,,,,,,318.4589999996242,,response,,,,99,,,,,,,Space,keypress(Space),,,,,,,,"---- -- ----- -- ------ - ------- --- ----------<br>------------- ------ ------ ---- ---- ------- ----- -- ----<br>-------- ------- -- ---------- --- - --- ----- ----- ----<br>---- --- --- ----- --- ---- ---- ------- ----- ---- -------<br>--- --- -- ----- -- --- ---- -- be, ---- -- ------ ------<br>--- ----- -- ----",123875.19999999925,123874.59999999963,123539.489,123543,123556.141,123889.409,,47,"be,"
screen,html.Screen,2_1_0_1_48,2022-04-27T11:09:07.552Z,,,,,,,,,,,,,,,,,53,,,,,,,,,,,,,,451.49099999851023,,response,,,,99,,,,,,,Space,keypress(Space),,,,,,,,---- -- ----- -- ------ - ------- --- ----------<br>------------- ------ ------ ---- ---- ------- ----- -- ----<br>-------- ------- -- ---------- --- - --- ----- ----- ----<br>---- --- --- ----- --- ---- ---- ------- ----- ---- -------<br>--- --- -- ----- -- --- ---- -- --- even -- ------ ------<br>--- ----- -- ----,124341.39999999851,124340.89999999851,123872.757,123875.19999999925,123889.409,124355.716,,48,even
screen,html.Screen,2_1_0_1_49,2022-04-27T11:09:08.036Z,,,,,,,,,,,,,,,,,53,,,,,,,,,,,,,,468.8839999996271,,response,,,,99,,,,,,,Space,keypress(Space),,,,,,,,---- -- ----- -- ------ - ------- --- ----------<br>------------- ------ ------ ---- ---- ------- ----- -- ----<br>-------- ------- -- ---------- --- - --- ----- ----- ----<br>---- --- --- ----- --- ---- ---- ------- ----- ---- -------<br>--- --- -- ----- -- --- ---- -- --- ---- if ------ ------<br>--- ----- -- ----,124825.09999999963,124824.59999999963,124339.064,124341.5,124355.716,124838.429,,49,if
screen,html.Screen,2_1_0_1_50,2022-04-27T11:09:08.285Z,,,,,,,,,,,,,,,,,53,,,,,,,,,,,,,,235.07099999999627,,response,,,,99,,,,,,,Space,keypress(Space),,,,,,,,---- -- ----- -- ------ - ------- --- ----------<br>------------- ------ ------ ---- ---- ------- ----- -- ----<br>-------- ------- -- ---------- --- - --- ----- ----- ----<br>---- --- --- ----- --- ---- ---- ------- ----- ---- -------<br>--- --- -- ----- -- --- ---- -- --- ---- -- that's ------<br>--- ----- -- ----,125074,125073.5,124821.777,124825.19999999925,124838.429,125088.364,,50,that's
screen,html.Screen,2_1_0_1_51,2022-04-27T11:09:08.526Z,,,,,,,,,,,,,,,,,53,,,,,,,,,,,,,,226.1359999999986,,response,,,,99,,,,,,,Space,keypress(Space),,,,,,,,---- -- ----- -- ------ - ------- --- ----------<br>------------- ------ ------ ---- ---- ------- ----- -- ----<br>-------- ------- -- ---------- --- - --- ----- ----- ----<br>---- --- --- ----- --- ---- ---- ------- ----- ---- -------<br>--- --- -- ----- -- --- ---- -- --- ---- -- ------ really<br>--- ----- -- ----,125315.09999999963,125314.5,125071.712,125074.09999999963,125088.364,125321.402,,51,really
screen,html.Screen,2_1_0_1_52,2022-04-27T11:09:09.059Z,,,,,,,,,,,,,,,,,53,,,,,,,,,,,,,,526.0979999999981,,response,,,,99,,,,,,,Space,keypress(Space),,,,,,,,---- -- ----- -- ------ - ------- --- ----------<br>------------- ------ ------ ---- ---- ------- ----- -- ----<br>-------- ------- -- ---------- --- - --- ----- ----- ----<br>---- --- --- ----- --- ---- ---- ------- ----- ---- -------<br>--- --- -- ----- -- --- ---- -- --- ---- -- ------ ------<br>not ----- -- ----,125848,125847.5,125304.75,125315.09999999963,125321.402,125854.245,,52,not
screen,html.Screen,2_1_0_1_53,2022-04-27T11:09:09.303Z,,,,,,,,,,,,,,,,,53,,,,,,,,,,,,,,237.4549999992596,,response,,,,99,,,,,,,Space,keypress(Space),,,,,,,,---- -- ----- -- ------ - ------- --- ----------<br>------------- ------ ------ ---- ---- ------- ----- -- ----<br>-------- ------- -- ---------- --- - --- ----- ----- ----<br>---- --- --- ----- --- ---- ---- ------- ----- ---- -------<br>--- --- -- ----- -- --- ---- -- --- ---- -- ------ ------<br>--- close -- ----,126092.39999999851,126091.69999999925,125837.593,125848.09999999963,125854.245,126104.226,,53,close
screen,html.Screen,2_1_0_1_54,2022-04-27T11:09:09.630Z,,,,,,,,,,,,,,,,,53,,,,,,,,,,,,,,314.2740000000049,,response,,,,99,,,,,,,Space,keypress(Space),,,,,,,,---- -- ----- -- ------ - ------- --- ----------<br>------------- ------ ------ ---- ---- ------- ----- -- ----<br>-------- ------- -- ---------- --- - --- ----- ----- ----<br>---- --- --- ----- --- ---- ---- ------- ----- ---- -------<br>--- --- -- ----- -- --- ---- -- --- ---- -- ------ ------<br>--- ----- at ----,126419.19999999925,126418.5,126087.574,126092.5,126104.226,126420.725,,54,at
screen,html.Screen,2_1_0_1_55,2022-04-27T11:09:10.190Z,,,,,,,,,,,,,,,,,53,,,,,,,,,,,,,,557.7749999999942,,response,,,,99,,,,,,,Space,keypress(Space),,,,,,,,---- -- ----- -- ------ - ------- --- ----------<br>------------- ------ ------ ---- ---- ------- ----- -- ----<br>-------- ------- -- ---------- --- - --- ----- ----- ----<br>---- --- --- ----- --- ---- ---- ------- ----- ---- -------<br>--- --- -- ----- -- --- ---- -- --- ---- -- ------ ------<br>--- ----- -- all.,126979.19999999925,126978.5,126404.073,126419.19999999925,126420.725,126986.63,,55,all.
Item 99,flow.Loop,2_1_0_1,2022-04-27T11:09:10.190Z,,,,,,,,,,,,,,,,,,,,,,,,,,,,,,,19259.248999999996,,completion,,,,,B,,,,,,,,,,,silence,,,,,126979.29999999888,126978.5,107702.599,107703.89999999851,107719.251,126986.63,,,
Question 1,html.Screen,2_1_0_2,2022-04-27T11:09:14.521Z,,,,,,,,,,,,,,,,,,,,,,,,,,,,true,FALSE,,4321.769999998505,,response,,,,99,B,,,,,,FALSE,click #choice-2,,,,silence,,,,,131309.8999999985,131308.3999999985,126969.978,126979.29999999888,126986.63,131316.649,,,
Question 2,html.Screen,2_1_0_3,2022-04-27T11:09:20.615Z,,,,,,,,,,,,,,,,,,,,,,,,,,,,true,TRUE,,6085.850999999995,,response,,,,99,B,,,,,,TRUE,click #choice-1,,,,silence,,,,,137403.69999999925,137402.5,131299.997,131309.8999999985,131316.649,137411.724,,,
Item 99,flow.Sequence,2_1_0,2022-04-27T11:09:20.615Z,,,,,,,,,,,,,,,,,,,,,,,,,,,,,,,39675.066999999995,,completion,,,,,,,,,,,,,,,,,,,,,137403.79999999888,137402.5,97710.781,97723.79999999888,97727.433,137411.724,,,
Holding screen,html.Screen,2_1_1_0,2022-04-27T11:09:30.615Z,,,,,,,,,,,,,,,,,,,,,,,,,,,,,,,10008.195000000007,,timeout,,,,,,,,,,,,,,,,,,,,,147404.29999999888,147403.267,137395.072,137403.8999999985,137411.724,147419.919,,,
screen,html.Screen,2_1_1_1_0,2022-04-27T11:09:31.095Z,,,,,,,,,,,,,,,,,54,,,,,,,,,,,,,,464.0810000000056,,response,,,,100,,,,,,,Space,keypress(Space),,,,,,,,At --- ---- --- ------ ----- ------- ---- -- --- ------- --<br>------- ---------- ------ -- ----- -- ----- -- ---- ------<br>--- ----- --- --- ------ -------- ----- --- ------ ----- --<br>----- ----- ---------- --- --- ------ ------ ---- -- ------<br>------- --- ------ ----- --- ---- ------- -- ---- --- --<br>------- ------,147884.59999999963,147884,147403.267,147404.5,147419.919,147886.212,,0,At
screen,html.Screen,2_1_1_1_1,2022-04-27T11:09:31.487Z,,,,,,,,,,,,,,,,,54,,,,,,,,,,,,,,389.28800000000047,,response,,,,100,,,,,,,Space,keypress(Space),,,,,,,,-- the ---- --- ------ ----- ------- ---- -- --- ------- --<br>------- ---------- ------ -- ----- -- ----- -- ---- ------<br>--- ----- --- --- ------ -------- ----- --- ------ ----- --<br>----- ----- ---------- --- --- ------ ------ ---- -- ------<br>------- --- ------ ----- --- ---- ------- -- ---- --- --<br>------- ------,148276.19999999925,148275.5,147869.56,147884.69999999925,147886.212,148285.962,,1,the
screen,html.Screen,2_1_1_1_2,2022-04-27T11:09:31.705Z,,,,,,,,,,,,,,,,,54,,,,,,,,,,,,,,207.43799999851035,,response,,,,100,,,,,,,Space,keypress(Space),,,,,,,,-- --- time --- ------ ----- ------- ---- -- --- ------- --<br>------- ---------- ------ -- ----- -- ----- -- ---- ------<br>--- ----- --- --- ------ -------- ----- --- ------ ----- --<br>----- ----- ---------- --- --- ------ ------ ---- -- ------<br>------- --- ------ ----- --- ---- ------- -- ---- --- --<br>------- ------,148494,148493.3999999985,148269.31,148276.19999999925,148285.962,148502.525,,2,time
screen,html.Screen,2_1_1_1_3,2022-04-27T11:09:31.899Z,,,,,,,,,,,,,,,,,54,,,,,,,,,,,,,,184.77499999888823,,response,,,,100,,,,,,,Space,keypress(Space),,,,,,,,-- --- ---- the ------ ----- ------- ---- -- --- ------- --<br>------- ---------- ------ -- ----- -- ----- -- ---- ------<br>--- ----- --- --- ------ -------- ----- --- ------ ----- --<br>----- ----- ---------- --- --- ------ ------ ---- -- ------<br>------- --- ------ ----- --- ---- ------- -- ---- --- --<br>------- ------,148687.8999999985,148687.29999999888,148485.873,148494.09999999963,148502.525,148702.285,,3,the
screen,html.Screen,2_1_1_1_4,2022-04-27T11:09:32.138Z,,,,,,,,,,,,,,,,,54,,,,,,,,,,,,,,224.2149999999965,,response,,,,100,,,,,,,Space,keypress(Space),,,,,,,,-- --- ---- --- French ----- ------- ---- -- --- ------- --<br>------- ---------- ------ -- ----- -- ----- -- ---- ------<br>--- ----- --- --- ------ -------- ----- --- ------ ----- --<br>----- ----- ---------- --- --- ------ ------ ---- -- ------<br>------- --- ------ ----- --- ---- ------- -- ---- --- --<br>------- ------,148927.19999999925,148926.5,148685.633,148688,148702.285,148935.471,,4,French
screen,html.Screen,2_1_1_1_5,2022-04-27T11:09:32.709Z,,,,,,,,,,,,,,,,,54,,,,,,,,,,,,,,562.5290000000095,,response,,,,100,,,,,,,Space,keypress(Space),,,,,,,,-- --- ---- --- ------ crown ------- ---- -- --- ------- --<br>------- ---------- ------ -- ----- -- ----- -- ---- ------<br>--- ----- --- --- ------ -------- ----- --- ------ ----- --<br>----- ----- ---------- --- --- ------ ------ ---- -- ------<br>------- --- ------ ----- --- ---- ------- -- ---- --- --<br>------- ------,149498.59999999963,149498,148918.819,148927.29999999888,148935.471,149501.464,,5,crown
screen,html.Screen,2_1_1_1_6,2022-04-27T11:09:32.982Z,,,,,,,,,,,,,,,,,54,,,,,,,,,,,,,,268.7359999992477,,response,,,,100,,,,,,,Space,keypress(Space),,,,,,,,-- --- ---- --- ------ ----- secured ---- -- --- ------- --<br>------- ---------- ------ -- ----- -- ----- -- ---- ------<br>--- ----- --- --- ------ -------- ----- --- ------ ----- --<br>----- ----- ---------- --- --- ------ ------ ---- -- ------<br>------- --- ------ ----- --- ---- ------- -- ---- --- --<br>------- ------,149770.79999999888,149770.19999999925,149484.812,149498.69999999925,149501.464,149784.784,,6,secured
screen,html.Screen,2_1_1_1_7,2022-04-27T11:09:33.410Z,,,,,,,,,,,,,,,,,54,,,,,,,,,,,,,,414.1159999984957,,response,,,,100,,,,,,,Space,keypress(Space),,,,,,,,-- --- ---- --- ------ ----- ------- much -- --- ------- --<br>------- ---------- ------ -- ----- -- ----- -- ---- ------<br>--- ----- --- --- ------ -------- ----- --- ------ ----- --<br>----- ----- ---------- --- --- ------ ------ ---- -- ------<br>------- --- ------ ----- --- ---- ------- -- ---- --- --<br>------- ------,150199.5,150198.8999999985,149768.132,149770.79999999888,149784.784,150200.943,,7,much
screen,html.Screen,2_1_1_1_8,2022-04-27T11:09:33.773Z,,,,,,,,,,,,,,,,,54,,,,,,,,,,,,,,360.0570000000007,,response,,,,100,,,,,,,Space,keypress(Space),,,,,,,,-- --- ---- --- ------ ----- ------- ---- of --- ------- --<br>------- ---------- ------ -- ----- -- ----- -- ---- ------<br>--- ----- --- --- ------ -------- ----- --- ------ ----- --<br>----- ----- ---------- --- --- ------ ------ ---- -- ------<br>------- --- ------ ----- --- ---- ------- -- ---- --- --<br>------- ------,150561.69999999925,150561,150184.291,150199.5,150200.943,150567.52,,8,of
screen,html.Screen,2_1_1_1_9,2022-04-27T11:09:34.016Z,,,,,,,,,,,,,,,,,54,,,,,,,,,,,,,,236.67999999926542,,response,,,,100,,,,,,,Space,keypress(Space),,,,,,,,-- --- ---- --- ------ ----- ------- ---- -- its ------- --<br>------- ---------- ------ -- ----- -- ----- -- ---- ------<br>--- ----- --- --- ------ -------- ----- --- ------ ----- --<br>----- ----- ---------- --- --- ------ ------ ---- -- ------<br>------- --- ------ ----- --- ---- ------- -- ---- --- --<br>------- ------,150804.79999999888,150804.19999999925,150550.868,150561.8999999985,150567.52,150817.201,,9,its
screen,html.Screen,2_1_1_1_10,2022-04-27T11:09:34.219Z,,,,,,,,,,,,,,,,,54,,,,,,,,,,,,,,190.19899999850895,,response,,,,100,,,,,,,Space,keypress(Space),,,,,,,,-- --- ---- --- ------ ----- ------- ---- -- --- revenue --<br>------- ---------- ------ -- ----- -- ----- -- ---- ------<br>--- ----- --- --- ------ -------- ----- --- ------ ----- --<br>----- ----- ---------- --- --- ------ ------ ---- -- ------<br>------- --- ------ ----- --- ---- ------- -- ---- --- --<br>------- ------,151007.8999999985,151007.3999999985,150800.549,150804.8999999985,150817.201,151017.064,,10,revenue
screen,html.Screen,2_1_1_1_11,2022-04-27T11:09:34.422Z,,,,,,,,,,,,,,,,,54,,,,,,,,,,,,,,193.93599999998696,,response,,,,100,,,,,,,Space,keypress(Space),,,,,,,,-- --- ---- --- ------ ----- ------- ---- -- --- ------- by<br>------- ---------- ------ -- ----- -- ----- -- ---- ------<br>--- ----- --- --- ------ -------- ----- --- ------ ----- --<br>----- ----- ---------- --- --- ------ ------ ---- -- ------<br>------- --- ------ ----- --- ---- ------- -- ---- --- --<br>------- ------,151211.5,151211,151000.412,151008,151017.064,151217.051,,11,by
screen,html.Screen,2_1_1_1_12,2022-04-27T11:09:34.697Z,,,,,,,,,,,,,,,,,54,,,,,,,,,,,,,,268.24899999887566,,response,,,,100,,,,,,,Space,keypress(Space),,,,,,,,-- --- ---- --- ------ ----- ------- ---- -- --- ------- --<br>issuing ---------- ------ -- ----- -- ----- -- ---- ------<br>--- ----- --- --- ------ -------- ----- --- ------ ----- --<br>----- ----- ---------- --- --- ------ ------ ---- -- ------<br>------- --- ------ ----- --- ---- ------- -- ---- --- --<br>------- ------,151486,151485.29999999888,151200.399,151211.59999999963,151217.051,151499.994,,12,issuing
screen,html.Screen,2_1_1_1_13,2022-04-27T11:09:34.927Z,,,,,,,,,,,,,,,,,54,,,,,,,,,,,,,,216.00599999999395,,response,,,,100,,,,,,,Space,keypress(Space),,,,,,,,-- --- ---- --- ------ ----- ------- ---- -- --- ------- --<br>------- government ------ -- ----- -- ----- -- ---- ------<br>--- ----- --- --- ------ -------- ----- --- ------ ----- --<br>----- ----- ---------- --- --- ------ ------ ---- -- ------<br>------- --- ------ ----- --- ---- ------- -- ---- --- --<br>------- ------,151716.3999999985,151716,151483.342,151486.09999999963,151499.994,151733.212,,13,government
screen,html.Screen,2_1_1_1_14,2022-04-27T11:09:35.135Z,,,,,,,,,,,,,,,,,54,,,,,,,,,,,,,,190.58799999888288,,response,,,,100,,,,,,,Space,keypress(Space),,,,,,,,-- --- ---- --- ------ ----- ------- ---- -- --- ------- --<br>------- ---------- bonds. -- ----- -- ----- -- ---- ------<br>--- ----- --- --- ------ -------- ----- --- ------ ----- --<br>----- ----- ---------- --- --- ------ ------ ---- -- ------<br>------- --- ------ ----- --- ---- ------- -- ---- --- --<br>------- ------,151924.5,151923.79999999888,151716.56,151716.5,151733.212,151933.035,,14,bonds.
screen,html.Screen,2_1_1_1_15,2022-04-27T11:09:35.866Z,,,,,,,,,,,,,,,,,54,,,,,,,,,,,,,,721.3649999985064,,response,,,,100,,,,,,,Space,keypress(Space),,,,,,,,-- --- ---- --- ------ ----- ------- ---- -- --- ------- --<br>------- ---------- ------ In ----- -- ----- -- ---- ------<br>--- ----- --- --- ------ -------- ----- --- ------ ----- --<br>----- ----- ---------- --- --- ------ ------ ---- -- ------<br>------- --- ------ ----- --- ---- ------- -- ---- --- --<br>------- ------,152655.09999999963,152654.3999999985,151916.383,151924.5,151933.035,152665.674,,15,In
screen,html.Screen,2_1_1_1_16,2022-04-27T11:09:36.167Z,,,,,,,,,,,,,,,,,54,,,,,,,,,,,,,,289.9259999996284,,response,,,,100,,,,,,,Space,keypress(Space),,,,,,,,"-- --- ---- --- ------ ----- ------- ---- -- --- ------- --<br>------- ---------- ------ -- 1727, -- ----- -- ---- ------<br>--- ----- --- --- ------ -------- ----- --- ------ ----- --<br>----- ----- ---------- --- --- ------ ------ ---- -- ------<br>------- --- ------ ----- --- ---- ------- -- ---- --- --<br>------- ------",152956.19999999925,152955.59999999963,152649.022,152655.09999999963,152665.674,152965.4,,16,"1727,"
screen,html.Screen,2_1_1_1_17,2022-04-27T11:09:37.102Z,,,,,,,,,,,,,,,,,54,,,,,,,,,,,,,,925.1999999996333,,response,,,,100,,,,,,,Space,keypress(Space),,,,,,,,-- --- ---- --- ------ ----- ------- ---- -- --- ------- --<br>------- ---------- ------ -- ----- in ----- -- ---- ------<br>--- ----- --- --- ------ -------- ----- --- ------ ----- --<br>----- ----- ---------- --- --- ------ ------ ---- -- ------<br>------- --- ------ ----- --- ---- ------- -- ---- --- --<br>------- ------,153891.5,153890.59999999963,152948.748,152956.29999999888,152965.4,153897.986,,17,in
screen,html.Screen,2_1_1_1_18,2022-04-27T11:09:37.648Z,,,,,,,,,,,,,,,,,54,,,,,,,,,,,,,,538.9139999985055,,response,,,,100,,,,,,,Space,keypress(Space),,,,,,,,-- --- ---- --- ------ ----- ------- ---- -- --- ------- --<br>------- ---------- ------ -- ----- -- order -- ---- ------<br>--- ----- --- --- ------ -------- ----- --- ------ ----- --<br>----- ----- ---------- --- --- ------ ------ ---- -- ------<br>------- --- ------ ----- --- ---- ------- -- ---- --- --<br>------- ------,154437.3999999985,154436.8999999985,153881.334,153891.59999999963,153897.986,154447.561,,18,order
screen,html.Screen,2_1_1_1_19,2022-04-27T11:09:37.906Z,,,,,,,,,,,,,,,,,54,,,,,,,,,,,,,,247.13899999926798,,response,,,,100,,,,,,,Space,keypress(Space),,,,,,,,-- --- ---- --- ------ ----- ------- ---- -- --- ------- --<br>------- ---------- ------ -- ----- -- ----- to ---- ------<br>--- ----- --- --- ------ -------- ----- --- ------ ----- --<br>----- ----- ---------- --- --- ------ ------ ---- -- ------<br>------- --- ------ ----- --- ---- ------- -- ---- --- --<br>------- ------,154695.29999999888,154694.69999999925,154430.909,154437.59999999963,154447.561,154697.225,,19,to
screen,html.Screen,2_1_1_1_20,2022-04-27T11:09:38.120Z,,,,,,,,,,,,,,,,,54,,,,,,,,,,,,,,211.97499999924912,,response,,,,100,,,,,,,Space,keypress(Space),,,,,,,,-- --- ---- --- ------ ----- ------- ---- -- --- ------- --<br>------- ---------- ------ -- ----- -- ----- -- save ------<br>--- ----- --- --- ------ -------- ----- --- ------ ----- --<br>----- ----- ---------- --- --- ------ ------ ---- -- ------<br>------- --- ------ ----- --- ---- ------- -- ---- --- --<br>------- ------,154909.59999999963,154909.19999999925,154680.573,154695.3999999985,154697.225,154913.777,,20,save
screen,html.Screen,2_1_1_1_21,2022-04-27T11:09:38.374Z,,,,,,,,,,,,,,,,,54,,,,,,,,,,,,,,248.42299999925308,,response,,,,100,,,,,,,Space,keypress(Space),,,,,,,,"-- --- ---- --- ------ ----- ------- ---- -- --- ------- --<br>------- ---------- ------ -- ----- -- ----- -- ---- money,<br>--- ----- --- --- ------ -------- ----- --- ------ ----- --<br>----- ----- ---------- --- --- ------ ------ ---- -- ------<br>------- --- ------ ----- --- ---- ------- -- ---- --- --<br>------- ------",155162.79999999888,155162.19999999925,154897.125,154909.69999999925,154913.777,155163.675,,21,"money,"
screen,html.Screen,2_1_1_1_22,2022-04-27T11:09:38.760Z,,,,,,,,,,,,,,,,,54,,,,,,,,,,,,,,385.2249999985215,,response,,,,100,,,,,,,Space,keypress(Space),,,,,,,,-- --- ---- --- ------ ----- ------- ---- -- --- ------- --<br>------- ---------- ------ -- ----- -- ----- -- ---- ------<br>the ----- --- --- ------ -------- ----- --- ------ ----- --<br>----- ----- ---------- --- --- ------ ------ ---- -- ------<br>------- --- ------ ----- --- ---- ------- -- ---- --- --<br>------- ------,155549.5,155548.8999999985,155147.023,155162.8999999985,155163.675,155563.316,,22,the
screen,html.Screen,2_1_1_1_23,2022-04-27T11:09:39.010Z,,,,,,,,,,,,,,,,,54,,,,,,,,,,,,,,235.68400000000838,,response,,,,100,,,,,,,Space,keypress(Space),,,,,,,,-- --- ---- --- ------ ----- ------- ---- -- --- ------- --<br>------- ---------- ------ -- ----- -- ----- -- ---- ------<br>--- state --- --- ------ -------- ----- --- ------ ----- --<br>----- ----- ---------- --- --- ------ ------ ---- -- ------<br>------- --- ------ ----- --- ---- ------- -- ---- --- --<br>------- ------,155799.59999999963,155799,155546.664,155549.59999999963,155563.316,155813.075,,23,state
screen,html.Screen,2_1_1_1_24,2022-04-27T11:09:39.248Z,,,,,,,,,,,,,,,,,54,,,,,,,,,,,,,,223.82499999849824,,response,,,,100,,,,,,,Space,keypress(Space),,,,,,,,-- --- ---- --- ------ ----- ------- ---- -- --- ------- --<br>------- ---------- ------ -- ----- -- ----- -- ---- ------<br>--- ----- cut --- ------ -------- ----- --- ------ ----- --<br>----- ----- ---------- --- --- ------ ------ ---- -- ------<br>------- --- ------ ----- --- ---- ------- -- ---- --- --<br>------- ------,156037.5,156036.8999999985,155796.423,155799.69999999925,155813.075,156046.258,,24,cut
screen,html.Screen,2_1_1_1_25,2022-04-27T11:09:39.501Z,,,,,,,,,,,,,,,,,54,,,,,,,,,,,,,,243.64199999850825,,response,,,,100,,,,,,,Space,keypress(Space),,,,,,,,-- --- ---- --- ------ ----- ------- ---- -- --- ------- --<br>------- ---------- ------ -- ----- -- ----- -- ---- ------<br>--- ----- --- the ------ -------- ----- --- ------ ----- --<br>----- ----- ---------- --- --- ------ ------ ---- -- ------<br>------- --- ------ ----- --- ---- ------- -- ---- --- --<br>------- ------,156290.5,156289.8999999985,156029.606,156037.59999999963,156046.258,156296.067,,25,the
screen,html.Screen,2_1_1_1_26,2022-04-27T11:09:39.754Z,,,,,,,,,,,,,,,,,54,,,,,,,,,,,,,,246.53299999961746,,response,,,,100,,,,,,,Space,keypress(Space),,,,,,,,-- --- ---- --- ------ ----- ------- ---- -- --- ------- --<br>------- ---------- ------ -- ----- -- ----- -- ---- ------<br>--- ----- --- --- bonds' -------- ----- --- ------ ----- --<br>----- ----- ---------- --- --- ------ ------ ---- -- ------<br>------- --- ------ ----- --- ---- ------- -- ---- --- --<br>------- ------,156543.3999999985,156542.59999999963,156279.415,156290.5,156296.067,156546.014,,26,bonds'
screen,html.Screen,2_1_1_1_27,2022-04-27T11:09:40.217Z,,,,,,,,,,,,,,,,,54,,,,,,,,,,,,,,459.18599999925937,,response,,,,100,,,,,,,Space,keypress(Space),,,,,,,,-- --- ---- --- ------ ----- ------- ---- -- --- ------- --<br>------- ---------- ------ -- ----- -- ----- -- ---- ------<br>--- ----- --- --- ------ interest ----- --- ------ ----- --<br>----- ----- ---------- --- --- ------ ------ ---- -- ------<br>------- --- ------ ----- --- ---- ------- -- ---- --- --<br>------- ------,157005.79999999888,157005.19999999925,156529.362,156543.3999999985,156546.014,157012.101,,27,interest
screen,html.Screen,2_1_1_1_28,2022-04-27T11:09:40.499Z,,,,,,,,,,,,,,,,,54,,,,,,,,,,,,,,275.2989999985148,,response,,,,100,,,,,,,Space,keypress(Space),,,,,,,,-- --- ---- --- ------ ----- ------- ---- -- --- ------- --<br>------- ---------- ------ -- ----- -- ----- -- ---- ------<br>--- ----- --- --- ------ -------- rate. --- ------ ----- --<br>----- ----- ---------- --- --- ------ ------ ---- -- ------<br>------- --- ------ ----- --- ---- ------- -- ---- --- --<br>------- ------,157288,157287.3999999985,156995.449,157005.8999999985,157012.101,157295.184,,28,rate.
screen,html.Screen,2_1_1_1_29,2022-04-27T11:09:41.277Z,,,,,,,,,,,,,,,,,54,,,,,,,,,,,,,,770.3159999999916,,response,,,,100,,,,,,,Space,keypress(Space),,,,,,,,-- --- ---- --- ------ ----- ------- ---- -- --- ------- --<br>------- ---------- ------ -- ----- -- ----- -- ---- ------<br>--- ----- --- --- ------ -------- ----- The ------ ----- --<br>----- ----- ---------- --- --- ------ ------ ---- -- ------<br>------- --- ------ ----- --- ---- ------- -- ---- --- --<br>------- ------,158066,158065.5,157278.532,157288.09999999963,157295.184,158077.9,,29,The
screen,html.Screen,2_1_1_1_30,2022-04-27T11:09:41.556Z,,,,,,,,,,,,,,,,,54,,,,,,,,,,,,,,266.39999999888823,,response,,,,100,,,,,,,Space,keypress(Space),,,,,,,,-- --- ---- --- ------ ----- ------- ---- -- --- ------- --<br>------- ---------- ------ -- ----- -- ----- -- ---- ------<br>--- ----- --- --- ------ -------- ----- --- market ----- --<br>----- ----- ---------- --- --- ------ ------ ---- -- ------<br>------- --- ------ ----- --- ---- ------- -- ---- --- --<br>------- ------,158344.79999999888,158344.29999999888,158061.248,158066,158077.9,158361.034,,30,market
screen,html.Screen,2_1_1_1_31,2022-04-27T11:09:41.879Z,,,,,,,,,,,,,,,,,54,,,,,,,,,,,,,,306.3659999984957,,response,,,,100,,,,,,,Space,keypress(Space),,,,,,,,-- --- ---- --- ------ ----- ------- ---- -- --- ------- --<br>------- ---------- ------ -- ----- -- ----- -- ---- ------<br>--- ----- --- --- ------ -------- ----- --- ------ value --<br>----- ----- ---------- --- --- ------ ------ ---- -- ------<br>------- --- ------ ----- --- ---- ------- -- ---- --- --<br>------- ------,158668.09999999963,158667.3999999985,158344.382,158345,158361.034,158677.277,,31,value
screen,html.Screen,2_1_1_1_32,2022-04-27T11:09:42.206Z,,,,,,,,,,,,,,,,,54,,,,,,,,,,,,,,317.122999998508,,response,,,,100,,,,,,,Space,keypress(Space),,,,,,,,-- --- ---- --- ------ ----- ------- ---- -- --- ------- --<br>------- ---------- ------ -- ----- -- ----- -- ---- ------<br>--- ----- --- --- ------ -------- ----- --- ------ ----- of<br>----- ----- ---------- --- --- ------ ------ ---- -- ------<br>------- --- ------ ----- --- ---- ------- -- ---- --- --<br>------- ------,158994.8999999985,158994.3999999985,158660.625,158668.09999999963,158677.277,159010.522,,32,of
screen,html.Screen,2_1_1_1_33,2022-04-27T11:09:42.478Z,,,,,,,,,,,,,,,,,54,,,,,,,,,,,,,,255.87799999851268,,response,,,,100,,,,,,,Space,keypress(Space),,,,,,,,-- --- ---- --- ------ ----- ------- ---- -- --- ------- --<br>------- ---------- ------ -- ----- -- ----- -- ---- ------<br>--- ----- --- --- ------ -------- ----- --- ------ ----- --<br>these ----- ---------- --- --- ------ ------ ---- -- ------<br>------- --- ------ ----- --- ---- ------- -- ---- --- --<br>------- ------,159266.79999999888,159266.3999999985,158993.87,158995,159010.522,159277.024,,33,these
screen,html.Screen,2_1_1_1_34,2022-04-27T11:09:42.725Z,,,,,,,,,,,,,,,,,54,,,,,,,,,,,,,,236.875999998505,,response,,,,100,,,,,,,Space,keypress(Space),,,,,,,,-- --- ---- --- ------ ----- ------- ---- -- --- ------- --<br>------- ---------- ------ -- ----- -- ----- -- ---- ------<br>--- ----- --- --- ------ -------- ----- --- ------ ----- --<br>----- bonds ---------- --- --- ------ ------ ---- -- ------<br>------- --- ------ ----- --- ---- ------- -- ---- --- --<br>------- ------,159514.3999999985,159513.8999999985,159260.372,159266.8999999985,159277.024,159526.729,,34,bonds
screen,html.Screen,2_1_1_1_35,2022-04-27T11:09:42.984Z,,,,,,,,,,,,,,,,,54,,,,,,,,,,,,,,246.1709999985178,,response,,,,100,,,,,,,Space,keypress(Space),,,,,,,,"-- --- ---- --- ------ ----- ------- ---- -- --- ------- --<br>------- ---------- ------ -- ----- -- ----- -- ---- ------<br>--- ----- --- --- ------ -------- ----- --- ------ ----- --<br>----- ----- plummeted, --- --- ------ ------ ---- -- ------<br>------- --- ------ ----- --- ---- ------- -- ---- --- --<br>------- ------",159773.3999999985,159772.8999999985,159510.077,159514.5,159526.729,159776.536,,35,"plummeted,"
screen,html.Screen,2_1_1_1_36,2022-04-27T11:09:43.444Z,,,,,,,,,,,,,,,,,54,,,,,,,,,,,,,,455.9640000000072,,response,,,,100,,,,,,,Space,keypress(Space),,,,,,,,-- --- ---- --- ------ ----- ------- ---- -- --- ------- --<br>------- ---------- ------ -- ----- -- ----- -- ---- ------<br>--- ----- --- --- ------ -------- ----- --- ------ ----- --<br>----- ----- ---------- and --- ------ ------ ---- -- ------<br>------- --- ------ ----- --- ---- ------- -- ---- --- --<br>------- ------,160233.19999999925,160232.5,159759.884,159773.3999999985,159776.536,160242.823,,36,and
screen,html.Screen,2_1_1_1_37,2022-04-27T11:09:43.760Z,,,,,,,,,,,,,,,,,54,,,,,,,,,,,,,,305.2769999996235,,response,,,,100,,,,,,,Space,keypress(Space),,,,,,,,-- --- ---- --- ------ ----- ------- ---- -- --- ------- --<br>------- ---------- ------ -- ----- -- ----- -- ---- ------<br>--- ----- --- --- ------ -------- ----- --- ------ ----- --<br>----- ----- ---------- --- the ------ ------ ---- -- ------<br>------- --- ------ ----- --- ---- ------- -- ---- --- --<br>------- ------,160548.79999999888,160548.09999999963,160226.171,160233.19999999925,160242.823,160559.213,,37,the
screen,html.Screen,2_1_1_1_38,2022-04-27T11:09:44.129Z,,,,,,,,,,,,,,,,,54,,,,,,,,,,,,,,358.7870000000112,,response,,,,100,,,,,,,Space,keypress(Space),,,,,,,,-- --- ---- --- ------ ----- ------- ---- -- --- ------- --<br>------- ---------- ------ -- ----- -- ----- -- ---- ------<br>--- ----- --- --- ------ -------- ----- --- ------ ----- --<br>----- ----- ---------- --- --- market ------ ---- -- ------<br>------- --- ------ ----- --- ---- ------- -- ---- --- --<br>------- ------,160918.59999999963,160918,160542.561,160548.8999999985,160559.213,160925.432,,38,market
screen,html.Screen,2_1_1_1_39,2022-04-27T11:09:44.405Z,,,,,,,,,,,,,,,,,54,,,,,,,,,,,,,,268.3679999988817,,response,,,,100,,,,,,,Space,keypress(Space),,,,,,,,-- --- ---- --- ------ ----- ------- ---- -- --- ------- --<br>------- ---------- ------ -- ----- -- ----- -- ---- ------<br>--- ----- --- --- ------ -------- ----- --- ------ ----- --<br>----- ----- ---------- --- --- ------ became ---- -- ------<br>------- --- ------ ----- --- ---- ------- -- ---- --- --<br>------- ------,161194.3999999985,161193.79999999888,160908.78,160918.69999999925,160925.432,161208.773,,39,became
screen,html.Screen,2_1_1_1_40,2022-04-27T11:09:44.657Z,,,,,,,,,,,,,,,,,54,,,,,,,,,,,,,,237.32699999964098,,response,,,,100,,,,,,,Space,keypress(Space),,,,,,,,-- --- ---- --- ------ ----- ------- ---- -- --- ------- --<br>------- ---------- ------ -- ----- -- ----- -- ---- ------<br>--- ----- --- --- ------ -------- ----- --- ------ ----- --<br>----- ----- ---------- --- --- ------ ------ wary -- ------<br>------- --- ------ ----- --- ---- ------- -- ---- --- --<br>------- ------,161446.59999999963,161446.09999999963,161192.121,161194.3999999985,161208.773,161458.468,,40,wary
screen,html.Screen,2_1_1_1_41,2022-04-27T11:09:44.927Z,,,,,,,,,,,,,,,,,54,,,,,,,,,,,,,,257.631999999634,,response,,,,100,,,,,,,Space,keypress(Space),,,,,,,,-- --- ---- --- ------ ----- ------- ---- -- --- ------- --<br>------- ---------- ------ -- ----- -- ----- -- ---- ------<br>--- ----- --- --- ------ -------- ----- --- ------ ----- --<br>----- ----- ---------- --- --- ------ ------ ---- of ------<br>------- --- ------ ----- --- ---- ------- -- ---- --- --<br>------- ------,161716.59999999963,161716.09999999963,161441.816,161446.79999999888,161458.468,161724.803,,41,of
screen,html.Screen,2_1_1_1_42,2022-04-27T11:09:45.291Z,,,,,,,,,,,,,,,,,54,,,,,,,,,,,,,,354.69699999998556,,response,,,,100,,,,,,,Space,keypress(Space),,,,,,,,-- --- ---- --- ------ ----- ------- ---- -- --- ------- --<br>------- ---------- ------ -- ----- -- ----- -- ---- ------<br>--- ----- --- --- ------ -------- ----- --- ------ ----- --<br>----- ----- ---------- --- --- ------ ------ ---- -- French<br>------- --- ------ ----- --- ---- ------- -- ---- --- --<br>------- ------,162080.09999999963,162079.5,161708.151,161716.69999999925,161724.803,162091.303,,42,French
screen,html.Screen,2_1_1_1_43,2022-04-27T11:09:45.618Z,,,,,,,,,,,,,,,,,54,,,,,,,,,,,,,,314.79699999961304,,response,,,,100,,,,,,,Space,keypress(Space),,,,,,,,-- --- ---- --- ------ ----- ------- ---- -- --- ------- --<br>------- ---------- ------ -- ----- -- ----- -- ---- ------<br>--- ----- --- --- ------ -------- ----- --- ------ ----- --<br>----- ----- ---------- --- --- ------ ------ ---- -- ------<br>credit. --- ------ ----- --- ---- ------- -- ---- --- --<br>------- ------,162406.79999999888,162406.09999999963,162074.651,162080.19999999925,162091.303,162407.679,,43,credit.
screen,html.Screen,2_1_1_1_44,2022-04-27T11:09:46.141Z,,,,,,,,,,,,,,,,,54,,,,,,,,,,,,,,521.5209999992512,,response,,,,100,,,,,,,Space,keypress(Space),,,,,,,,-- --- ---- --- ------ ----- ------- ---- -- --- ------- --<br>------- ---------- ------ -- ----- -- ----- -- ---- ------<br>--- ----- --- --- ------ -------- ----- --- ------ ----- --<br>----- ----- ---------- --- --- ------ ------ ---- -- ------<br>------- The ------ ----- --- ---- ------- -- ---- --- --<br>------- ------,162929.8999999985,162929.19999999925,162391.027,162406.8999999985,162407.679,162940.639,,44,The
screen,html.Screen,2_1_1_1_45,2022-04-27T11:09:46.543Z,,,,,,,,,,,,,,,,,54,,,,,,,,,,,,,,390.7609999985143,,response,,,,100,,,,,,,Space,keypress(Space),,,,,,,,-- --- ---- --- ------ ----- ------- ---- -- --- ------- --<br>------- ---------- ------ -- ----- -- ----- -- ---- ------<br>--- ----- --- --- ------ -------- ----- --- ------ ----- --<br>----- ----- ---------- --- --- ------ ------ ---- -- ------<br>------- --- French ----- --- ---- ------- -- ---- --- --<br>------- ------,163332,163331.3999999985,162923.987,162929.8999999985,162940.639,163340.174,,45,French
screen,html.Screen,2_1_1_1_46,2022-04-27T11:09:46.781Z,,,,,,,,,,,,,,,,,54,,,,,,,,,,,,,,229.82600000000093,,response,,,,100,,,,,,,Space,keypress(Space),,,,,,,,-- --- ---- --- ------ ----- ------- ---- -- --- ------- --<br>------- ---------- ------ -- ----- -- ----- -- ---- ------<br>--- ----- --- --- ------ -------- ----- --- ------ ----- --<br>----- ----- ---------- --- --- ------ ------ ---- -- ------<br>------- --- ------ state --- ---- ------- -- ---- --- --<br>------- ------,163570.69999999925,163570,163323.522,163332.09999999963,163340.174,163573.404,,46,state
screen,html.Screen,2_1_1_1_47,2022-04-27T11:09:47.004Z,,,,,,,,,,,,,,,,,54,,,,,,,,,,,,,,218.89599999887287,,response,,,,100,,,,,,,Space,keypress(Space),,,,,,,,-- --- ---- --- ------ ----- ------- ---- -- --- ------- --<br>------- ---------- ------ -- ----- -- ----- -- ---- ------<br>--- ----- --- --- ------ -------- ----- --- ------ ----- --<br>----- ----- ---------- --- --- ------ ------ ---- -- ------<br>------- --- ------ ----- was ---- ------- -- ---- --- --<br>------- ------,163792.79999999888,163792.29999999888,163556.752,163570.79999999888,163573.404,163806.604,,47,was
screen,html.Screen,2_1_1_1_48,2022-04-27T11:09:47.250Z,,,,,,,,,,,,,,,,,54,,,,,,,,,,,,,,231.89600000000792,,response,,,,100,,,,,,,Space,keypress(Space),,,,,,,,-- --- ---- --- ------ ----- ------- ---- -- --- ------- --<br>------- ---------- ------ -- ----- -- ----- -- ---- ------<br>--- ----- --- --- ------ -------- ----- --- ------ ----- --<br>----- ----- ---------- --- --- ------ ------ ---- -- ------<br>------- --- ------ ----- --- left ------- -- ---- --- --<br>------- ------,164039,164038.5,163789.952,163792.8999999985,163806.604,164039.706,,48,left
screen,html.Screen,2_1_1_1_49,2022-04-27T11:09:47.499Z,,,,,,,,,,,,,,,,,54,,,,,,,,,,,,,,248.39399999962188,,response,,,,100,,,,,,,Space,keypress(Space),,,,,,,,-- --- ---- --- ------ ----- ------- ---- -- --- ------- --<br>------- ---------- ------ -- ----- -- ----- -- ---- ------<br>--- ----- --- --- ------ -------- ----- --- ------ ----- --<br>----- ----- ---------- --- --- ------ ------ ---- -- ------<br>------- --- ------ ----- --- ---- without -- ---- --- --<br>------- ------,164288.5,164288.09999999963,164023.054,164039.09999999963,164039.706,164289.584,,49,without
screen,html.Screen,2_1_1_1_50,2022-04-27T11:09:47.778Z,,,,,,,,,,,,,,,,,54,,,,,,,,,,,,,,276.91599999999744,,response,,,,100,,,,,,,Space,keypress(Space),,,,,,,,-- --- ---- --- ------ ----- ------- ---- -- --- ------- --<br>------- ---------- ------ -- ----- -- ----- -- ---- ------<br>--- ----- --- --- ------ -------- ----- --- ------ ----- --<br>----- ----- ---------- --- --- ------ ------ ---- -- ------<br>------- --- ------ ----- --- ---- ------- an ---- --- --<br>------- ------,164567.19999999925,164566.5,164272.932,164288.69999999925,164289.584,164572.581,,50,an
screen,html.Screen,2_1_1_1_51,2022-04-27T11:09:48.073Z,,,,,,,,,,,,,,,,,54,,,,,,,,,,,,,,289.11899999924935,,response,,,,100,,,,,,,Space,keypress(Space),,,,,,,,-- --- ---- --- ------ ----- ------- ---- -- --- ------- --<br>------- ---------- ------ -- ----- -- ----- -- ---- ------<br>--- ----- --- --- ------ -------- ----- --- ------ ----- --<br>----- ----- ---------- --- --- ------ ------ ---- -- ------<br>------- --- ------ ----- --- ---- ------- -- easy --- --<br>------- ------,164862.29999999888,164861.69999999925,164555.929,164567.29999999888,164572.581,164872.406,,51,easy
screen,html.Screen,2_1_1_1_52,2022-04-27T11:09:48.328Z,,,,,,,,,,,,,,,,,54,,,,,,,,,,,,,,244.29399999926682,,response,,,,100,,,,,,,Space,keypress(Space),,,,,,,,-- --- ---- --- ------ ----- ------- ---- -- --- ------- --<br>------- ---------- ------ -- ----- -- ----- -- ---- ------<br>--- ----- --- --- ------ -------- ----- --- ------ ----- --<br>----- ----- ---------- --- --- ------ ------ ---- -- ------<br>------- --- ------ ----- --- ---- ------- -- ---- way --<br>------- ------,165117.19999999925,165116.69999999925,164855.754,164862.29999999888,164872.406,165122.179,,52,way
screen,html.Screen,2_1_1_1_53,2022-04-27T11:09:48.642Z,,,,,,,,,,,,,,,,,54,,,,,,,,,,,,,,308.8209999999963,,response,,,,100,,,,,,,Space,keypress(Space),,,,,,,,-- --- ---- --- ------ ----- ------- ---- -- --- ------- --<br>------- ---------- ------ -- ----- -- ----- -- ---- ------<br>--- ----- --- --- ------ -------- ----- --- ------ ----- --<br>----- ----- ---------- --- --- ------ ------ ---- -- ------<br>------- --- ------ ----- --- ---- ------- -- ---- --- of<br>------- ------,165431.69999999925,165431,165105.527,165117.29999999888,165122.179,165438.429,,53,of
screen,html.Screen,2_1_1_1_54,2022-04-27T11:09:49.044Z,,,,,,,,,,,,,,,,,54,,,,,,,,,,,,,,393.8709999988787,,response,,,,100,,,,,,,Space,keypress(Space),,,,,,,,-- --- ---- --- ------ ----- ------- ---- -- --- ------- --<br>------- ---------- ------ -- ----- -- ----- -- ---- ------<br>--- ----- --- --- ------ -------- ----- --- ------ ----- --<br>----- ----- ---------- --- --- ------ ------ ---- -- ------<br>------- --- ------ ----- --- ---- ------- -- ---- --- --<br>raising ------,165832.8999999985,165832.29999999888,165421.777,165431.69999999925,165438.429,165838.415,,54,raising
screen,html.Screen,2_1_1_1_55,2022-04-27T11:09:49.575Z,,,,,,,,,,,,,,,,,54,,,,,,,,,,,,,,525.4849999985017,,response,,,,100,,,,,,,Space,keypress(Space),,,,,,,,-- --- ---- --- ------ ----- ------- ---- -- --- ------- --<br>------- ---------- ------ -- ----- -- ----- -- ---- ------<br>--- ----- --- --- ------ -------- ----- --- ------ ----- --<br>----- ----- ---------- --- --- ------ ------ ---- -- ------<br>------- --- ------ ----- --- ---- ------- -- ---- --- --<br>------- money.,166364.59999999963,166363.8999999985,165821.763,165833,165838.415,166371.026,,55,money.
Item 100,flow.Loop,2_1_1_1,2022-04-27T11:09:49.575Z,,,,,,,,,,,,,,,,,,,,,,,,,,,,,,,18943.980999998515,,completion,,,,,B,,,,,,,,,,,silence,,,,,166364.79999999888,166363.8999999985,147403.267,147404.3999999985,147419.919,166371.026,,,
Question 1,html.Screen,2_1_1_2,2022-04-27T11:09:52.149Z,,,,,,,,,,,,,,,,,,,,,,,,,,,,true,TRUE,,2566.073999999615,,response,,,,100,B,,,,,,TRUE,click #choice-1,,,,silence,,,,,168938.3999999985,168937.09999999963,166354.374,166364.79999999888,166371.026,168952.195,,,
Question 2,html.Screen,2_1_1_3,2022-04-27T11:09:55.403Z,,,,,,,,,,,,,,,,,,,,,,,,,,,,true,FALSE,,3238.004999999248,,response,,,,100,B,,,,,,FALSE,click #choice-2,,,,silence,,,,,172191.79999999888,172190.19999999925,168935.543,168938.5,168952.195,172199.673,,,
Item 100,flow.Sequence,2_1_1,2022-04-27T11:09:55.403Z,,,,,,,,,,,,,,,,,,,,,,,,,,,,,,,34778.47599999927,,completion,,,,,,,,,,,,,,,,,,,,,172191.8999999985,172190.19999999925,137395.072,137403.8999999985,137411.724,172199.673,,,
End of Practice,html.Page,2_1_2,2022-04-27T11:09:59.684Z,,,,,,,,,,,,,,,,,,,,,,,,,,,,,,,4273.126999998873,,form submission,,,,,,,,,,,,,,,,,,,,,176473.5,176472.79999999888,172183.021,172192,172199.673,176479.471,,,
Practice,flow.Sequence,2_1,2022-04-27T11:09:59.684Z,,,,,,,,,,,,,,,,,,,,,,,,,,,,,,,78745.36699999888,,completion,,,,,,,,,,,,,,,,,,,,,176473.69999999925,176472.79999999888,97710.781,97723.69999999925,97727.433,176479.471,,,
Trap_instruction,html.Page,2_2_0,2022-04-27T11:10:04.373Z,,,,,,,,,,,,,,,,,,,,,,,,,,,,,,,4682.328999998892,,form submission,,,,,,,,,,,,,,,,,,,,,181162,181161.79999999888,176462.819,176473.69999999925,176479.471,181175.585,,,
trap_trial,html.Screen,2_2_1,2022-04-27T11:10:06.950Z,,,,,,,,,,,,,,,,,,,,,,,,,,,,true,1,,2562.415000000008,,response,,,,,,,,,,,1,click #choice-1,,,,,,,,,183739.3999999985,183738,181158.933,181162.09999999963,181175.585,183740.08,,,
end of trap trial,html.Page,2_2_2,2022-04-27T11:10:09.108Z,,,,,,,,,,,,,,,,,,,,,,,,,,,,,,,2156.5199999996403,,form submission,,,,,,,,,,,,,,,,,,,,,185897.09999999963,185896.59999999963,183723.428,183739.3999999985,183740.08,185905.088,,,
Trap 1,flow.Sequence,2_2,2022-04-27T11:10:09.108Z,,,,,,,,,,,,,,,,,,,,,,,,,,,,,,,9417.128999999637,,completion,,,,,,,,,,,,,,,,,,,,,185897.29999999888,185896.59999999963,176462.819,176473.69999999925,176479.471,185905.088,,,
Standby,html.Page,2_3_0,2022-04-27T11:10:17.094Z,,,,,,,,,,,,,,,,,,,,,,,,,,,,,,,7992.933000000019,,timeout,,,,,,,,,,,,,,,,,,,,,193883.79999999888,193881.369,185888.436,185897.29999999888,185905.088,193898.021,,,
Holding screen,html.Screen,2_3_1_0_0,2022-04-27T11:10:24.088Z,,,,,,,,,,,,,,,,,,,,,,,,,,,,,,,6994.856999999989,,timeout,,,,,,,,,,,,,,,,,,,,,200877,200876.226,193881.369,193883.8999999985,193898.021,200892.878,,,
screen,html.Screen,2_3_1_0_1_0,2022-04-27T11:10:31.082Z,,,,,,,,,,,,,,,,,2,,,,,,,,,,,,,,6993.716000000015,,timeout,,,,1,B,,,,,,,,,,,lyrical,,,,Two ---- ------ --- ------- ---------- ------- ----------<br>--- --------- --- ----------- ------- ----- ------- ---<br>--------- ---- -- --- ---- -- --------- -- ---- -------<br>-- --------- ------ --- ----- ------ ---- --- --------- --<br>------ - ---- -- --- ----------- ------- ---- ----- -----<br>--- -------- - ------ ---- -- ----- ---- --- --- -----------<br>-- -------,207870.8999999985,207869.942,200876.226,200877.09999999963,200892.878,207886.594,,0,Two
screen,html.Screen,2_3_1_0_1_1,2022-04-27T11:10:31.224Z,,,,,,,,,,,,,,,,,2,,,,,,,,,,,,,,126.20599999887054,,response,,,,1,B,,,,,,Space,keypress(Space),,,,lyrical,,,,--- days ------ --- ------- ---------- ------- ----------<br>--- --------- --- ----------- ------- ----- ------- ---<br>--------- ---- -- --- ---- -- --------- -- ---- -------<br>-- --------- ------ --- ----- ------ ---- --- --------- --<br>------ - ---- -- --- ----------- ------- ---- ----- -----<br>--- -------- - ------ ---- -- ----- ---- --- --- -----------<br>-- -------,208013.3999999985,208012.79999999888,207869.942,207870.8999999985,207886.594,208020.168,,1,days
screen,html.Screen,2_3_1_0_1_2,2022-04-27T11:10:31.986Z,,,,,,,,,,,,,,,,,2,,,,,,,,,,,,,,754.6319999988773,,response,,,,1,B,,,,,,Space,keypress(Space),,,,lyrical,,,,"--- ---- later, --- ------- ---------- ------- ----------<br>--- --------- --- ----------- ------- ----- ------- ---<br>--------- ---- -- --- ---- -- --------- -- ---- -------<br>-- --------- ------ --- ----- ------ ---- --- --------- --<br>------ - ---- -- --- ----------- ------- ---- ----- -----<br>--- -------- - ------ ---- -- ----- ---- --- --- -----------<br>-- -------",208775.3999999985,208774.79999999888,208003.516,208013.3999999985,208020.168,208786.249,,2,"later,"
screen,html.Screen,2_3_1_0_1_3,2022-04-27T11:10:32.394Z,,,,,,,,,,,,,,,,,2,,,,,,,,,,,,,,396.35099999961676,,response,,,,1,B,,,,,,Space,keypress(Space),,,,lyrical,,,,--- ---- ------ the ------- ---------- ------- ----------<br>--- --------- --- ----------- ------- ----- ------- ---<br>--------- ---- -- --- ---- -- --------- -- ---- -------<br>-- --------- ------ --- ----- ------ ---- --- --------- --<br>------ - ---- -- --- ----------- ------- ---- ----- -----<br>--- -------- - ------ ---- -- ----- ---- --- --- -----------<br>-- -------,209183.19999999925,209182.59999999963,208769.597,208775.3999999985,208786.249,209185.987,,3,the
screen,html.Screen,2_3_1_0_1_4,2022-04-27T11:10:32.621Z,,,,,,,,,,,,,,,,,2,,,,,,,,,,,,,,223.8129999988887,,response,,,,1,B,,,,,,Space,keypress(Space),,,,lyrical,,,,--- ---- ------ --- British ---------- ------- ----------<br>--- --------- --- ----------- ------- ----- ------- ---<br>--------- ---- -- --- ---- -- --------- -- ---- -------<br>-- --------- ------ --- ----- ------ ---- --- --------- --<br>------ - ---- -- --- ----------- ------- ---- ----- -----<br>--- -------- - ------ ---- -- ----- ---- --- --- -----------<br>-- -------,209410.5,209409.79999999888,209169.335,209183.29999999888,209185.987,209418.921,,4,British
screen,html.Screen,2_3_1_0_1_5,2022-04-27T11:10:32.855Z,,,,,,,,,,,,,,,,,2,,,,,,,,,,,,,,224.67899999962538,,response,,,,1,B,,,,,,Space,keypress(Space),,,,lyrical,,,,--- ---- ------ --- ------- astronomer ------- ----------<br>--- --------- --- ----------- ------- ----- ------- ---<br>--------- ---- -- --- ---- -- --------- -- ---- -------<br>-- --------- ------ --- ----- ------ ---- --- --------- --<br>------ - ---- -- --- ----------- ------- ---- ----- -----<br>--- -------- - ------ ---- -- ----- ---- --- --- -----------<br>-- -------,209644.19999999925,209643.59999999963,209402.269,209410.59999999963,209418.921,209652.248,,5,astronomer
screen,html.Screen,2_3_1_0_1_6,2022-04-27T11:10:33.148Z,,,,,,,,,,,,,,,,,2,,,,,,,,,,,,,,284.4519999992626,,response,,,,1,B,,,,,,Space,keypress(Space),,,,lyrical,,,,--- ---- ------ --- ------- ---------- Richard ----------<br>--- --------- --- ----------- ------- ----- ------- ---<br>--------- ---- -- --- ---- -- --------- -- ---- -------<br>-- --------- ------ --- ----- ------ ---- --- --------- --<br>------ - ---- -- --- ----------- ------- ---- ----- -----<br>--- -------- - ------ ---- -- ----- ---- --- --- -----------<br>-- -------,209937.29999999888,209936.69999999925,209635.596,209644.19999999925,209652.248,209951.868,,6,Richard
screen,html.Screen,2_3_1_0_1_7,2022-04-27T11:10:33.948Z,,,,,,,,,,,,,,,,,2,,,,,,,,,,,,,,785.0319999985222,,response,,,,1,B,,,,,,Space,keypress(Space),,,,lyrical,,,,--- ---- ------ --- ------- ---------- ------- Carrington<br>--- --------- --- ----------- ------- ----- ------- ---<br>--------- ---- -- --- ---- -- --------- -- ---- -------<br>-- --------- ------ --- ----- ------ ---- --- --------- --<br>------ - ---- -- --- ----------- ------- ---- ----- -----<br>--- -------- - ------ ---- -- ----- ---- --- --- -----------<br>-- -------,210737.59999999963,210736.8999999985,209935.216,209937.29999999888,209951.868,210751.415,,7,Carrington
screen,html.Screen,2_3_1_0_1_8,2022-04-27T11:10:34.329Z,,,,,,,,,,,,,,,,,2,,,,,,,,,,,,,,366.2849999992468,,response,,,,1,B,,,,,,Space,keypress(Space),,,,lyrical,,,,--- ---- ------ --- ------- ---------- ------- ----------<br>was --------- --- ----------- ------- ----- ------- ---<br>--------- ---- -- --- ---- -- --------- -- ---- -------<br>-- --------- ------ --- ----- ------ ---- --- --------- --<br>------ - ---- -- --- ----------- ------- ---- ----- -----<br>--- -------- - ------ ---- -- ----- ---- --- --- -----------<br>-- -------,211118.3999999985,211117.69999999925,210734.763,210737.59999999963,210751.415,211134.325,,8,was
screen,html.Screen,2_3_1_0_1_9,2022-04-27T11:10:34.600Z,,,,,,,,,,,,,,,,,2,,,,,,,,,,,,,,254.47499999887077,,response,,,,1,B,,,,,,Space,keypress(Space),,,,lyrical,,,,--- ---- ------ --- ------- ---------- ------- ----------<br>--- observing --- ----------- ------- ----- ------- ---<br>--------- ---- -- --- ---- -- --------- -- ---- -------<br>-- --------- ------ --- ----- ------ ---- --- --------- --<br>------ - ---- -- --- ----------- ------- ---- ----- -----<br>--- -------- - ------ ---- -- ----- ---- --- --- -----------<br>-- -------,211389.3999999985,211388.79999999888,211117.673,211118.5,211134.325,211400.821,,9,observing
screen,html.Screen,2_3_1_0_1_10,2022-04-27T11:10:34.843Z,,,,,,,,,,,,,,,,,2,,,,,,,,,,,,,,231.37899999925867,,response,,,,1,B,,,,,,Space,keypress(Space),,,,lyrical,,,,--- ---- ------ --- ------- ---------- ------- ----------<br>--- --------- the ----------- ------- ----- ------- ---<br>--------- ---- -- --- ---- -- --------- -- ---- -------<br>-- --------- ------ --- ----- ------ ---- --- --------- --<br>------ - ---- -- --- ----------- ------- ---- ----- -----<br>--- -------- - ------ ---- -- ----- ---- --- --- -----------<br>-- -------,211632.79999999888,211632.19999999925,211384.169,211389.5,211400.821,211633.929,,10,the
screen,html.Screen,2_3_1_0_1_11,2022-04-27T11:10:35.706Z,,,,,,,,,,,,,,,,,2,,,,,,,,,,,,,,860.2709999992512,,response,,,,1,B,,,,,,Space,keypress(Space),,,,lyrical,,,,--- ---- ------ --- ------- ---------- ------- ----------<br>--- --------- --- interesting ------- ----- ------- ---<br>--------- ---- -- --- ---- -- --------- -- ---- -------<br>-- --------- ------ --- ----- ------ ---- --- --------- --<br>------ - ---- -- --- ----------- ------- ---- ----- -----<br>--- -------- - ------ ---- -- ----- ---- --- --- -----------<br>-- -------,212494.79999999888,212494.19999999925,211617.277,211632.8999999985,211633.929,212499.877,,11,interesting
screen,html.Screen,2_3_1_0_1_12,2022-04-27T11:10:36.543Z,,,,,,,,,,,,,,,,,2,,,,,,,,,,,,,,832.0229999985022,,response,,,,1,B,,,,,,Space,keypress(Space),,,,lyrical,,,,--- ---- ------ --- ------- ---------- ------- ----------<br>--- --------- --- ----------- sunspot ----- ------- ---<br>--------- ---- -- --- ---- -- --------- -- ---- -------<br>-- --------- ------ --- ----- ------ ---- --- --------- --<br>------ - ---- -- --- ----------- ------- ---- ----- -----<br>--- -------- - ------ ---- -- ----- ---- --- --- -----------<br>-- -------,213332.5,213331.8999999985,212483.225,212494.8999999985,212499.877,213349.199,,12,sunspot
screen,html.Screen,2_3_1_0_1_13,2022-04-27T11:10:36.941Z,,,,,,,,,,,,,,,,,2,,,,,,,,,,,,,,380.5009999992617,,response,,,,1,B,,,,,,Space,keypress(Space),,,,lyrical,,,,--- ---- ------ --- ------- ---------- ------- ----------<br>--- --------- --- ----------- ------- group ------- ---<br>--------- ---- -- --- ---- -- --------- -- ---- -------<br>-- --------- ------ --- ----- ------ ---- --- --------- --<br>------ - ---- -- --- ----------- ------- ---- ----- -----<br>--- -------- - ------ ---- -- ----- ---- --- --- -----------<br>-- -------,213730.3999999985,213729.69999999925,213332.547,213332.59999999963,213349.199,213732.131,,13,group
screen,html.Screen,2_3_1_0_1_14,2022-04-27T11:10:37.366Z,,,,,,,,,,,,,,,,,2,,,,,,,,,,,,,,422.66899999888847,,response,,,,1,B,,,,,,Space,keypress(Space),,,,lyrical,,,,--- ---- ------ --- ------- ---------- ------- ----------<br>--- --------- --- ----------- ------- ----- through ---<br>--------- ---- -- --- ---- -- --------- -- ---- -------<br>-- --------- ------ --- ----- ------ ---- --- --------- --<br>------ - ---- -- --- ----------- ------- ---- ----- -----<br>--- -------- - ------ ---- -- ----- ---- --- --- -----------<br>-- -------,214155.3999999985,214154.79999999888,213715.479,213730.5,213732.131,214165.199,,14,through
screen,html.Screen,2_3_1_0_1_15,2022-04-27T11:10:37.670Z,,,,,,,,,,,,,,,,,2,,,,,,,,,,,,,,293.9009999996342,,response,,,,1,B,,,,,,Space,keypress(Space),,,,lyrical,,,,--- ---- ------ --- ------- ---------- ------- ----------<br>--- --------- --- ----------- ------- ----- ------- his<br>--------- ---- -- --- ---- -- --------- -- ---- -------<br>-- --------- ------ --- ----- ------ ---- --- --------- --<br>------ - ---- -- --- ----------- ------- ---- ----- -----<br>--- -------- - ------ ---- -- ----- ---- --- --- -----------<br>-- -------,214459.5,214459.09999999963,214148.547,214155.59999999963,214165.199,214464.787,,15,his
screen,html.Screen,2_3_1_0_1_16,2022-04-27T11:10:37.936Z,,,,,,,,,,,,,,,,,2,,,,,,,,,,,,,,260.1129999984987,,response,,,,1,B,,,,,,Space,keypress(Space),,,,lyrical,,,,--- ---- ------ --- ------- ---------- ------- ----------<br>--- --------- --- ----------- ------- ----- ------- ---<br>telescope ---- -- --- ---- -- --------- -- ---- -------<br>-- --------- ------ --- ----- ------ ---- --- --------- --<br>------ - ---- -- --- ----------- ------- ---- ----- -----<br>--- -------- - ------ ---- -- ----- ---- --- --- -----------<br>-- -------,214725.3999999985,214724.8999999985,214448.135,214459.59999999963,214464.787,214731.268,,16,telescope
screen,html.Screen,2_3_1_0_1_17,2022-04-27T11:10:38.538Z,,,,,,,,,,,,,,,,,2,,,,,,,,,,,,,,595.431999999244,,response,,,,1,B,,,,,,Space,keypress(Space),,,,lyrical,,,,--- ---- ------ --- ------- ---------- ------- ----------<br>--- --------- --- ----------- ------- ----- ------- ---<br>--------- when -- --- ---- -- --------- -- ---- -------<br>-- --------- ------ --- ----- ------ ---- --- --------- --<br>------ - ---- -- --- ----------- ------- ---- ----- -----<br>--- -------- - ------ ---- -- ----- ---- --- --- -----------<br>-- -------,215327.29999999888,215326.69999999925,214714.616,214725.5,214731.268,215330.706,,17,when
screen,html.Screen,2_3_1_0_1_18,2022-04-27T11:10:38.791Z,,,,,,,,,,,,,,,,,2,,,,,,,,,,,,,,248.7939999999944,,response,,,,1,B,,,,,,Space,keypress(Space),,,,lyrical,,,,--- ---- ------ --- ------- ---------- ------- ----------<br>--- --------- --- ----------- ------- ----- ------- ---<br>--------- ---- he --- ---- -- --------- -- ---- -------<br>-- --------- ------ --- ----- ------ ---- --- --------- --<br>------ - ---- -- --- ----------- ------- ---- ----- -----<br>--- -------- - ------ ---- -- ----- ---- --- --- -----------<br>-- -------,215580.09999999963,215579.5,215314.054,215327.5,215330.706,215580.67,,18,he
screen,html.Screen,2_3_1_0_1_19,2022-04-27T11:10:39.019Z,,,,,,,,,,,,,,,,,2,,,,,,,,,,,,,,226.42999999961467,,response,,,,1,B,,,,,,Space,keypress(Space),,,,lyrical,,,,--- ---- ------ --- ------- ---------- ------- ----------<br>--- --------- --- ----------- ------- ----- ------- ---<br>--------- ---- -- saw ---- -- --------- -- ---- -------<br>-- --------- ------ --- ----- ------ ---- --- --------- --<br>------ - ---- -- --- ----------- ------- ---- ----- -----<br>--- -------- - ------ ---- -- ----- ---- --- --- -----------<br>-- -------,215807.8999999985,215807.09999999963,215564.018,215580.19999999925,215580.67,215813.886,,19,saw
screen,html.Screen,2_3_1_0_1_20,2022-04-27T11:10:39.241Z,,,,,,,,,,,,,,,,,2,,,,,,,,,,,,,,216.01399999851128,,response,,,,1,B,,,,,,Space,keypress(Space),,,,lyrical,,,,--- ---- ------ --- ------- ---------- ------- ----------<br>--- --------- --- ----------- ------- ----- ------- ---<br>--------- ---- -- --- what -- --------- -- ---- -------<br>-- --------- ------ --- ----- ------ ---- --- --------- --<br>------ - ---- -- --- ----------- ------- ---- ----- -----<br>--- -------- - ------ ---- -- ----- ---- --- --- -----------<br>-- -------,216030.59999999963,216029.8999999985,215797.234,215807.8999999985,215813.886,216047.087,,20,what
screen,html.Screen,2_3_1_0_1_21,2022-04-27T11:10:39.433Z,,,,,,,,,,,,,,,,,2,,,,,,,,,,,,,,174.21299999888288,,response,,,,1,B,,,,,,Space,keypress(Space),,,,lyrical,,,,--- ---- ------ --- ------- ---------- ------- ----------<br>--- --------- --- ----------- ------- ----- ------- ---<br>--------- ---- -- --- ---- he --------- -- ---- -------<br>-- --------- ------ --- ----- ------ ---- --- --------- --<br>------ - ---- -- --- ----------- ------- ---- ----- -----<br>--- -------- - ------ ---- -- ----- ---- --- --- -----------<br>-- -------,216222.09999999963,216221.29999999888,216030.435,216030.69999999925,216047.087,216230.191,,21,he
screen,html.Screen,2_3_1_0_1_22,2022-04-27T11:10:39.720Z,,,,,,,,,,,,,,,,,2,,,,,,,,,,,,,,278.3090000000084,,response,,,,1,B,,,,,,Space,keypress(Space),,,,lyrical,,,,--- ---- ------ --- ------- ---------- ------- ----------<br>--- --------- --- ----------- ------- ----- ------- ---<br>--------- ---- -- --- ---- -- described -- ---- -------<br>-- --------- ------ --- ----- ------ ---- --- --------- --<br>------ - ---- -- --- ----------- ------- ---- ----- -----<br>--- -------- - ------ ---- -- ----- ---- --- --- -----------<br>-- -------,216509,216508.5,216213.539,216222.19999999925,216230.191,216513.252,,22,described
screen,html.Screen,2_3_1_0_1_23,2022-04-27T11:10:40.233Z,,,,,,,,,,,,,,,,,2,,,,,,,,,,,,,,508.3479999996198,,response,,,,1,B,,,,,,Space,keypress(Space),,,,lyrical,,,,--- ---- ------ --- ------- ---------- ------- ----------<br>--- --------- --- ----------- ------- ----- ------- ---<br>--------- ---- -- --- ---- -- --------- as ---- -------<br>-- --------- ------ --- ----- ------ ---- --- --------- --<br>------ - ---- -- --- ----------- ------- ---- ----- -----<br>--- -------- - ------ ---- -- ----- ---- --- --- -----------<br>-- -------,217022.09999999963,217021.59999999963,216496.6,216509.09999999963,216513.252,217029.491,,23,as
screen,html.Screen,2_3_1_0_1_24,2022-04-27T11:10:40.481Z,,,,,,,,,,,,,,,,,2,,,,,,,,,,,,,,239.80899999887333,,response,,,,1,B,,,,,,Space,keypress(Space),,,,lyrical,,,,"--- ---- ------ --- ------- ---------- ------- ----------<br>--- --------- --- ----------- ------- ----- ------- ---<br>--------- ---- -- --- ---- -- --------- -- ""two -------<br>-- --------- ------ --- ----- ------ ---- --- --------- --<br>------ - ---- -- --- ----------- ------- ---- ----- -----<br>--- -------- - ------ ---- -- ----- ---- --- --- -----------<br>-- -------",217269.8999999985,217269.29999999888,217012.839,217022.29999999888,217029.491,217279.251,,24,"""two"
screen,html.Screen,2_3_1_0_1_25,2022-04-27T11:10:40.880Z,,,,,,,,,,,,,,,,,2,,,,,,,,,,,,,,389.94899999926565,,response,,,,1,B,,,,,,Space,keypress(Space),,,,lyrical,,,,--- ---- ------ --- ------- ---------- ------- ----------<br>--- --------- --- ----------- ------- ----- ------- ---<br>--------- ---- -- --- ---- -- --------- -- ---- patches<br>-- --------- ------ --- ----- ------ ---- --- --------- --<br>------ - ---- -- --- ----------- ------- ---- ----- -----<br>--- -------- - ------ ---- -- ----- ---- --- --- -----------<br>-- -------,217669.69999999925,217669.19999999925,217262.599,217270,217279.251,217678.992,,25,patches
screen,html.Screen,2_3_1_0_1_26,2022-04-27T11:10:41.149Z,,,,,,,,,,,,,,,,,2,,,,,,,,,,,,,,259.2079999992566,,response,,,,1,B,,,,,,Space,keypress(Space),,,,lyrical,,,,--- ---- ------ --- ------- ---------- ------- ----------<br>--- --------- --- ----------- ------- ----- ------- ---<br>--------- ---- -- --- ---- -- --------- -- ---- -------<br>of --------- ------ --- ----- ------ ---- --- --------- --<br>------ - ---- -- --- ----------- ------- ---- ----- -----<br>--- -------- - ------ ---- -- ----- ---- --- --- -----------<br>-- -------,217938.69999999925,217938.19999999925,217662.34,217669.79999999888,217678.992,217945.241,,26,of
screen,html.Screen,2_3_1_0_1_27,2022-04-27T11:10:41.391Z,,,,,,,,,,,,,,,,,2,,,,,,,,,,,,,,234.75899999999092,,response,,,,1,B,,,,,,Space,keypress(Space),,,,lyrical,,,,--- ---- ------ --- ------- ---------- ------- ----------<br>--- --------- --- ----------- ------- ----- ------- ---<br>--------- ---- -- --- ---- -- --------- -- ---- -------<br>-- intensely ------ --- ----- ------ ---- --- --------- --<br>------ - ---- -- --- ----------- ------- ---- ----- -----<br>--- -------- - ------ ---- -- ----- ---- --- --- -----------<br>-- -------,218180.5,218180,217928.589,217938.79999999888,217945.241,218195.09,,27,intensely
screen,html.Screen,2_3_1_0_1_28,2022-04-27T11:10:41.747Z,,,,,,,,,,,,,,,,,2,,,,,,,,,,,,,,340.60999999925843,,response,,,,1,B,,,,,,Space,keypress(Space),,,,lyrical,,,,--- ---- ------ --- ------- ---------- ------- ----------<br>--- --------- --- ----------- ------- ----- ------- ---<br>--------- ---- -- --- ---- -- --------- -- ---- -------<br>-- --------- bright --- ----- ------ ---- --- --------- --<br>------ - ---- -- --- ----------- ------- ---- ----- -----<br>--- -------- - ------ ---- -- ----- ---- --- --- -----------<br>-- -------,218536.19999999925,218535.69999999925,218178.438,218180.5,218195.09,218544.891,,28,bright
screen,html.Screen,2_3_1_0_1_29,2022-04-27T11:10:42.108Z,,,,,,,,,,,,,,,,,2,,,,,,,,,,,,,,351.8089999992517,,response,,,,1,B,,,,,,Space,keypress(Space),,,,lyrical,,,,--- ---- ------ --- ------- ---------- ------- ----------<br>--- --------- --- ----------- ------- ----- ------- ---<br>--------- ---- -- --- ---- -- --------- -- ---- -------<br>-- --------- ------ and ----- ------ ---- --- --------- --<br>------ - ---- -- --- ----------- ------- ---- ----- -----<br>--- -------- - ------ ---- -- ----- ---- --- --- -----------<br>-- -------,218897.5,218896.69999999925,218528.239,218536.29999999888,218544.891,218911.277,,29,and
screen,html.Screen,2_3_1_0_1_30,2022-04-27T11:10:42.509Z,,,,,,,,,,,,,,,,,2,,,,,,,,,,,,,,386.52299999888055,,response,,,,1,B,,,,,,Space,keypress(Space),,,,lyrical,,,,--- ---- ------ --- ------- ---------- ------- ----------<br>--- --------- --- ----------- ------- ----- ------- ---<br>--------- ---- -- --- ---- -- --------- -- ---- -------<br>-- --------- ------ --- white ------ ---- --- --------- --<br>------ - ---- -- --- ----------- ------- ---- ----- -----<br>--- -------- - ------ ---- -- ----- ---- --- --- -----------<br>-- -------,219298.3999999985,219297.79999999888,218894.625,218897.5,218911.277,219310.831,,30,white
screen,html.Screen,2_3_1_0_1_31,2022-04-27T11:10:42.974Z,,,,,,,,,,,,,,,,,2,,,,,,,,,,,,,,452.0689999985043,,response,,,,1,B,,,,,,Space,keypress(Space),,,,lyrical,,,,"--- ---- ------ --- ------- ---------- ------- ----------<br>--- --------- --- ----------- ------- ----- ------- ---<br>--------- ---- -- --- ---- -- --------- -- ---- -------<br>-- --------- ------ --- ----- light"" ---- --- --------- --<br>------ - ---- -- --- ----------- ------- ---- ----- -----<br>--- -------- - ------ ---- -- ----- ---- --- --- -----------<br>-- -------",219763.3999999985,219762.8999999985,219294.179,219298.5,219310.831,219777.307,,31,"light"""
screen,html.Screen,2_3_1_0_1_32,2022-04-27T11:10:43.413Z,,,,,,,,,,,,,,,,,2,,,,,,,,,,,,,,424.7929999996268,,response,,,,1,B,,,,,,Space,keypress(Space),,,,lyrical,,,,--- ---- ------ --- ------- ---------- ------- ----------<br>--- --------- --- ----------- ------- ----- ------- ---<br>--------- ---- -- --- ---- -- --------- -- ---- -------<br>-- --------- ------ --- ----- ------ over --- --------- --<br>------ - ---- -- --- ----------- ------- ---- ----- -----<br>--- -------- - ------ ---- -- ----- ---- --- --- -----------<br>-- -------,220202.59999999963,220202.09999999963,219760.655,219763.3999999985,219777.307,220210.214,,32,over
screen,html.Screen,2_3_1_0_1_33,2022-04-27T11:10:43.730Z,,,,,,,,,,,,,,,,,2,,,,,,,,,,,,,,308.5859999988752,,response,,,,1,B,,,,,,Space,keypress(Space),,,,lyrical,,,,--- ---- ------ --- ------- ---------- ------- ----------<br>--- --------- --- ----------- ------- ----- ------- ---<br>--------- ---- -- --- ---- -- --------- -- ---- -------<br>-- --------- ------ --- ----- ------ ---- the --------- --<br>------ - ---- -- --- ----------- ------- ---- ----- -----<br>--- -------- - ------ ---- -- ----- ---- --- --- -----------<br>-- -------,220519.29999999888,220518.79999999888,220193.562,220202.59999999963,220210.214,220526.823,,33,the
screen,html.Screen,2_3_1_0_1_34,2022-04-27T11:10:44.064Z,,,,,,,,,,,,,,,,,2,,,,,,,,,,,,,,325.876999999251,,response,,,,1,B,,,,,,Space,keypress(Space),,,,lyrical,,,,--- ---- ------ --- ------- ---------- ------- ----------<br>--- --------- --- ----------- ------- ----- ------- ---<br>--------- ---- -- --- ---- -- --------- -- ---- -------<br>-- --------- ------ --- ----- ------ ---- --- sunspots. --<br>------ - ---- -- --- ----------- ------- ---- ----- -----<br>--- -------- - ------ ---- -- ----- ---- --- --- -----------<br>-- -------,220853.09999999963,220852.69999999925,220510.171,220519.3999999985,220526.823,220859.799,,34,sunspots.
screen,html.Screen,2_3_1_0_1_35,2022-04-27T11:10:44.715Z,,,,,,,,,,,,,,,,,2,,,,,,,,,,,,,,644.3009999996284,,response,,,,1,B,,,,,,Space,keypress(Space),,,,lyrical,,,,--- ---- ------ --- ------- ---------- ------- ----------<br>--- --------- --- ----------- ------- ----- ------- ---<br>--------- ---- -- --- ---- -- --------- -- ---- -------<br>-- --------- ------ --- ----- ------ ---- --- --------- He<br>------ - ---- -- --- ----------- ------- ---- ----- -----<br>--- -------- - ------ ---- -- ----- ---- --- --- -----------<br>-- -------,221504.69999999925,221504.09999999963,220843.147,220853.09999999963,220859.799,221509.294,,35,He
screen,html.Screen,2_3_1_0_1_36,2022-04-27T11:10:45.012Z,,,,,,,,,,,,,,,,,2,,,,,,,,,,,,,,291.2060000000056,,response,,,,1,B,,,,,,Space,keypress(Space),,,,lyrical,,,,--- ---- ------ --- ------- ---------- ------- ----------<br>--- --------- --- ----------- ------- ----- ------- ---<br>--------- ---- -- --- ---- -- --------- -- ---- -------<br>-- --------- ------ --- ----- ------ ---- --- --------- --<br>jotted - ---- -- --- ----------- ------- ---- ----- -----<br>--- -------- - ------ ---- -- ----- ---- --- --- -----------<br>-- -------,221801.19999999925,221800.5,221492.642,221504.79999999888,221509.294,221808.896,,36,jotted
screen,html.Screen,2_3_1_0_1_37,2022-04-27T11:10:45.590Z,,,,,,,,,,,,,,,,,2,,,,,,,,,,,,,,569.7039999996196,,response,,,,1,B,,,,,,Space,keypress(Space),,,,lyrical,,,,--- ---- ------ --- ------- ---------- ------- ----------<br>--- --------- --- ----------- ------- ----- ------- ---<br>--------- ---- -- --- ---- -- --------- -- ---- -------<br>-- --------- ------ --- ----- ------ ---- --- --------- --<br>------ a ---- -- --- ----------- ------- ---- ----- -----<br>--- -------- - ------ ---- -- ----- ---- --- --- -----------<br>-- -------,222379.19999999925,222378.59999999963,221792.244,221801.3999999985,221808.896,222391.737,,37,a
screen,html.Screen,2_3_1_0_1_38,2022-04-27T11:10:45.868Z,,,,,,,,,,,,,,,,,2,,,,,,,,,,,,,,264.4629999992612,,response,,,,1,B,,,,,,Space,keypress(Space),,,,lyrical,,,,--- ---- ------ --- ------- ---------- ------- ----------<br>--- --------- --- ----------- ------- ----- ------- ---<br>--------- ---- -- --- ---- -- --------- -- ---- -------<br>-- --------- ------ --- ----- ------ ---- --- --------- --<br>------ - note -- --- ----------- ------- ---- ----- -----<br>--- -------- - ------ ---- -- ----- ---- --- --- -----------<br>-- -------,222656.79999999888,222656.19999999925,222375.085,222379.29999999888,222391.737,222658.168,,38,note
