sender,sender_type,sender_id,timestamp,meta,,Blues,Classical,Country,Dance,Electronic,Folk,Gospel,Hip-Hop,Jazz,Latin,Musical/Film,New-age,Pop,Prolific_id,Provo_ID,R&B,Rap,Reggae,Religious,Rock,Soul,Swing,Traditional,age,artist_name,correct,correctResponse,distraction,duration,education,ended_on,familiarity,gender,headphone_check_performance,item,list,music_frequency,offensiveness,pleasantness,position_correct,preference,response,response_action,snippet_file,song_name,song_rating,sound,stimulus_1,stimulus_2,stimulus_3,text,time_commit,time_end,time_render,time_run,time_show,time_switch,url,word,word_ID
Prolific ID,html.Form,0,2022-04-25T14:37:11.710Z,"{""labjs_version"":""20.2.2"",""labjs_build"":{""flavor"":""production"",""commit"":""a25486e0c714a0ae2ce03ff94b7bb6896854dcfa""},""location"":""https://run.pavlovia.org/mvasilev/prolific3_music_a/"",""userAgent"":""Mozilla/5.0 (Windows NT 10.0; Win64; x64) AppleWebKit/537.36 (KHTML, like Gecko) Chrome/100.0.4896.88 Safari/537.36"",""platform"":""Win32"",""language"":""en-US"",""locale"":""en-US"",""timeZone"":""Europe/London"",""timezoneOffset"":-60,""screen_width"":1366,""screen_height"":768,""scroll_width"":1366,""scroll_height"":577,""window_innerWidth"":1366,""window_innerHeight"":625,""devicePixelRatio"":1}",,,,,,,,,,,,,,,5988055f631d0c000149a5ac,,,,,,,,,,,,,,,6402.374999928477,,form submission,,,,,,,,,,,,,,,,,,,,,59459.799999952316,59458.199999928474,51788.763,51383.699999928474,53055.825,59938.893,{},,
Introduction,html.Screen,1_0,2022-04-25T14:37:14.317Z,,,,,,,,,,,,,,,,,,,,,,,,,,,,,,,2126.806999928478,,response,,,,,,,,,,,continue,click button,,,,,,,,,62066.799999952316,62065.699999928474,59038.876,59461.199999928474,59938.893,62305.396,,,
Volume calibration,html.Screen,1_1,2022-04-25T14:37:47.865Z,,,,,,,,,,,,,,,,,,,,,,,,,,,,,,,33304.00399997616,,response,,,,,,,,,,,continue,click button,,,,,,,,,95614.69999992847,95609.39999997616,62055.475,62067,62305.396,95620.455,,,
Task instructions,html.Screen,1_2,2022-04-25T14:37:49.445Z,,,,,,,,,,,,,,,,,,,,,,,,,,,,,,,1572.8449999523145,,response,,,,,,,,,,,continue,click button,,,,,,,,,97194.39999997616,97193.29999995232,95603.863,95615,95620.455,97220.453,,,
Sounds,html.Screen,1_3_0_0,2022-04-25T14:37:53.734Z,,,,,,,,,,,,,,,,,,,,,,,,,,,,,,,4283.113000000012,,timeout,,,,,,,,,1,,,,,,,,S,I,O,,101483.39999997616,101453.55,97187.063,97194.79999995232,97220.453,101503.566,,,
Judgement,html.Screen,1_3_0_1,2022-04-25T14:37:54.813Z,,,,,,,,,,,,,,,,,,,,,,,,,,,,true,1,,1057.833999976152,,response,,,,,,,,,1,,1,click #choice-1,,,,,S,I,O,,102562.79999995232,102561.39999997616,101453.55,101483.69999992847,101503.566,102586.829,,,
Trial,flow.Sequence,1_3_0,2022-04-25T14:37:54.814Z,,,,,,,,,,,,,,,,,,,,,,,,,,,,,,,5340.946999976164,,completion,,,,,,,,,1,,,,,,,,S,I,O,,102563.5,102561.39999997616,97187.063,97194.79999995232,97220.453,102586.829,,,
Sounds,html.Screen,1_3_1_0,2022-04-25T14:37:59.072Z,,,,,,,,,,,,,,,,,,,,,,,,,,,,,,,4250.305999999997,,timeout,,,,,,,,,2,,,,,,,,O,S,I,,106821.59999990463,106820.027,102570.21,102563.69999992847,102586.829,106837.135,,,
Judgement,html.Screen,1_3_1_1,2022-04-25T14:37:59.613Z,,,,,,,,,,,,,,,,,,,,,,,,,,,,true,2,,524.3650000000052,,response,,,,,,,,,2,,2,click #choice-2,,,,,O,S,I,,107362.69999992847,107361.5,106820.027,106822.39999997616,106837.135,107386.65,,,
Trial,flow.Sequence,1_3_1,2022-04-25T14:37:59.640Z,,,,,,,,,,,,,,,,,,,,,,,,,,,,,,,4774.671000000002,,completion,,,,,,,,,2,,,,,,,,O,S,I,,107389.89999997616,107361.5,102570.21,102563.69999992847,102586.829,107386.65,,,
Sounds,html.Screen,1_3_2_0,2022-04-25T14:38:03.872Z,,,,,,,,,,,,,,,,,,,,,,,,,,,,,,,4249.745999999999,,timeout,,,,,,,,,1,,,,,,,,S,O,I,,111621.59999990463,111619.77,107353.285,107390.19999992847,107386.65,111636.396,,,
Judgement,html.Screen,1_3_2_1,2022-04-25T14:38:04.413Z,,,,,,,,,,,,,,,,,,,,,,,,,,,,true,1,,525.1040000000066,,response,,,,,,,,,1,,1,click #choice-1,,,,,S,O,I,,112162.79999995232,112161.5,111619.77,111622,111636.396,112169.716,,,
Trial,flow.Sequence,1_3_2,2022-04-25T14:38:04.413Z,,,,,,,,,,,,,,,,,,,,,,,,,,,,,,,4774.850000000006,,completion,,,,,,,,,1,,,,,,,,S,O,I,,112163,112161.5,107353.285,107390.19999992847,107386.65,112169.716,,,
Sounds,html.Screen,1_3_3_0,2022-04-25T14:38:08.655Z,,,,,,,,,,,,,,,,,,,,,,,,,,,,,,,4249.793000000005,,timeout,,,,,,,,,3,,,,,,,,I,O,S,,116404.69999992847,116403.33,112153.143,112163.19999992847,112169.716,116419.509,,,
Judgement,html.Screen,1_3_3_1,2022-04-25T14:38:11.229Z,,,,,,,,,,,,,,,,,,,,,,,,,,,,false,3,,2557.790999952311,,response,,,,,,,,,3,,1,click #choice-1,,,,,I,O,S,,118978.39999997616,118977.29999995232,116403.33,116404.89999997616,116419.509,118986.048,,,
Trial,flow.Sequence,1_3_3,2022-04-25T14:38:11.229Z,,,,,,,,,,,,,,,,,,,,,,,,,,,,,,,6807.583999952316,,completion,,,,,,,,,3,,,,,,,,I,O,S,,118978.69999992847,118977.29999995232,112153.143,112163.09999990463,112169.716,118986.048,,,
Sounds,html.Screen,1_3_4_0,2022-04-25T14:38:15.471Z,,,,,,,,,,,,,,,,,,,,,,,,,,,,,,,4249.831000000006,,timeout,,,,,,,,,2,,,,,,,,I,S,O,,123220.29999995232,123219.243,118969.437,118978.79999995232,118986.048,123235.879,,,
Judgement,html.Screen,1_3_4_1,2022-04-25T14:38:15.989Z,,,,,,,,,,,,,,,,,,,,,,,,,,,,true,2,,501.42099995231547,,response,,,,,,,,,2,,2,click #choice-2,,,,,I,S,O,,123738.69999992847,123737.29999995232,123219.243,123220.59999990463,123235.879,123752.457,,,
Trial,flow.Sequence,1_3_4,2022-04-25T14:38:15.989Z,,,,,,,,,,,,,,,,,,,,,,,,,,,,,,,4751.251999952321,,completion,,,,,,,,,2,,,,,,,,I,S,O,,123738.89999997616,123737.29999995232,118969.437,118978.79999995232,118986.048,123752.457,,,
Sounds,html.Screen,1_3_5_0,2022-04-25T14:38:20.237Z,,,,,,,,,,,,,,,,,,,,,,,,,,,,,,,4249.882000000012,,timeout,,,,,,,,,3,,,,,,,,O,I,S,,127986.59999990463,127985.686,123735.912,123739,123752.457,128002.339,,,
Judgement,html.Screen,1_3_5_1,2022-04-25T14:38:20.733Z,,,,,,,,,,,,,,,,,,,,,,,,,,,,true,3,,478.8609999284672,,response,,,,,,,,,3,,3,click #choice-3,,,,,O,I,S,,128482.5,128481.19999992847,127985.686,127986.69999992847,128002.339,128752.284,,,
Trial,flow.Sequence,1_3_5,2022-04-25T14:38:20.733Z,,,,,,,,,,,,,,,,,,,,,,,,,,,,,,,4728.74299992848,,completion,,,,,,,,,3,,,,,,,,O,I,S,,128482.79999995232,128481.19999992847,123735.912,123739,123752.457,128752.284,,,
Task,flow.Loop,1_3,2022-04-25T14:38:20.741Z,,,,,,,,,,,,,,,,,,,,,,,,,,,,,,,31260.74699992848,,completion,,,0.8333333333333334,,,,,,,,,,,,,,,,,,128490.5,128481.19999992847,97187.063,97194.69999992847,97220.453,128752.284,,,
Trap,html.Screen,1_4,2022-04-25T14:38:20.781Z,,,,,,,,,,,,,,,,,,,,,,,,,,,,,,,NaN,,skipped,,,,,,,,,,,,,,,,,,,,,128530.89999997616,128481.19999992847,,128530.69999992847,,128752.284,,,
Thanks,html.Screen,1_5,2022-04-25T14:38:23.597Z,,,,,,,,,,,,,,,,,,,,,,,,,,,,,,,2593.1159999761585,,response,,,,,,,,,,,continue,click button,,,,,,,,,131346.5,131345.39999997616,128468.865,128531,128752.284,148801.432,,,
Headphone screening,flow.Sequence,1,2022-04-25T14:38:23.597Z,,,,,,,,,,,,,,,,,,,,,,,,,,,,,,,71406.50699997616,,completion,,,,,,,,,,,,,,,,,,,,,131346.79999995232,131345.39999997616,59038.876,59461.09999990463,59938.893,148801.432,,,
Instructions,html.Page,2_0,2022-04-25T14:39:01.294Z,,,,,,,,,,,,,,,,,,,,,,,,,,,,,,,20241.367999952316,,form submission,,,,,,,,,,,,,,,,,,,,,169043.39999997616,169042.79999995232,147567.904,148704.89999997616,148801.432,169183.546,,,
Holding screen,html.Screen,2_1_0_0,2022-04-25T14:39:11.418Z,,,,,,,,,,,,,,,,,,,,,,,,,,,,,,,10316.152999999991,,timeout,,,,,,,,,,,,,,,,,,,,,179167.5,179166.379,168950.28,169043.79999995232,169183.546,179499.699,,,
screen,html.Screen,2_1_0_1_0,2022-04-25T14:39:12.839Z,,,,,,,,,,,,,,,,,53,,,,,,,,,,,,,,1082.200999976165,,response,,,,99,,,,,,,Space,keypress(Space),,,,,,,,When -- ----- -- ------ - ------- --- ----------<br>------------- ------ ------ ---- ---- ------- ----- -- ----<br>-------- ------- -- ---------- --- - --- ----- ----- ----<br>---- --- --- ----- --- ---- ---- ------- ----- ---- -------<br>--- --- -- ----- -- --- ---- -- --- ---- -- ------ ------<br>--- ----- -- ----,180588.29999995232,180581.89999997616,179166.379,179167.89999997616,179499.699,180599.61,,0,When
screen,html.Screen,2_1_0_1_1,2022-04-25T14:39:13.298Z,,,,,,,,,,,,,,,,,53,,,,,,,,,,,,,,446.89000000001397,,response,,,,99,,,,,,,Space,keypress(Space),,,,,,,,---- it ----- -- ------ - ------- --- ----------<br>------------- ------ ------ ---- ---- ------- ----- -- ----<br>-------- ------- -- ---------- --- - --- ----- ----- ----<br>---- --- --- ----- --- ---- ---- ------- ----- ---- -------<br>--- --- -- ----- -- --- ---- -- --- ---- -- ------ ------<br>--- ----- -- ----,181047.89999997616,181046.5,180582.976,180588.59999990463,180599.61,181066.994,,1,it
screen,html.Screen,2_1_0_1_2,2022-04-25T14:39:13.888Z,,,,,,,,,,,,,,,,,53,,,,,,,,,,,,,,568.9059999761521,,response,,,,99,,,,,,,Space,keypress(Space),,,,,,,,---- -- comes -- ------ - ------- --- ----------<br>------------- ------ ------ ---- ---- ------- ----- -- ----<br>-------- ------- -- ---------- --- - --- ----- ----- ----<br>---- --- --- ----- --- ---- ---- ------- ----- ---- -------<br>--- --- -- ----- -- --- ---- -- --- ---- -- ------ ------<br>--- ----- -- ----,181637.5,181635.89999997616,181032.932,181048.19999992847,181066.994,181649.674,,2,comes
screen,html.Screen,2_1_0_1_3,2022-04-25T14:39:14.385Z,,,,,,,,,,,,,,,,,53,,,,,,,,,,,,,,483.2259999761591,,response,,,,99,,,,,,,Space,keypress(Space),,,,,,,,---- -- ----- to ------ - ------- --- ----------<br>------------- ------ ------ ---- ---- ------- ----- -- ----<br>-------- ------- -- ---------- --- - --- ----- ----- ----<br>---- --- --- ----- --- ---- ---- ------- ----- ---- -------<br>--- --- -- ----- -- --- ---- -- --- ---- -- ------ ------<br>--- ----- -- ----,182134.29999995232,182132.89999997616,181632.954,181637.79999995232,181649.674,182149.591,,3,to
screen,html.Screen,2_1_0_1_4,2022-04-25T14:39:14.883Z,,,,,,,,,,,,,,,,,53,,,,,,,,,,,,,,480.9090000000142,,response,,,,99,,,,,,,Space,keypress(Space),,,,,,,,---- -- ----- -- having - ------- --- ----------<br>------------- ------ ------ ---- ---- ------- ----- -- ----<br>-------- ------- -- ---------- --- - --- ----- ----- ----<br>---- --- --- ----- --- ---- ---- ------- ----- ---- -------<br>--- --- -- ----- -- --- ---- -- --- ---- -- ------ ------<br>--- ----- -- ----,182632.09999990463,182630.5,182132.905,182134.59999990463,182149.591,182649.617,,4,having
screen,html.Screen,2_1_0_1_5,2022-04-25T14:39:15.287Z,,,,,,,,,,,,,,,,,53,,,,,,,,,,,,,,385.58299992847606,,response,,,,99,,,,,,,Space,keypress(Space),,,,,,,,---- -- ----- -- ------ a ------- --- ----------<br>------------- ------ ------ ---- ---- ------- ----- -- ----<br>-------- ------- -- ---------- --- - --- ----- ----- ----<br>---- --- --- ----- --- ---- ---- ------- ----- ---- -------<br>--- --- -- ----- -- --- ---- -- --- ---- -- ------ ------<br>--- ----- -- ----,183036.39999997616,183035.19999992847,182632.795,182632.5,182649.617,183049.567,,5,a
screen,html.Screen,2_1_0_1_6,2022-04-25T14:39:15.860Z,,,,,,,,,,,,,,,,,53,,,,,,,,,,,,,,557.5329999046226,,response,,,,99,,,,,,,Space,keypress(Space),,,,,,,,---- -- ----- -- ------ - lasting --- ----------<br>------------- ------ ------ ---- ---- ------- ----- -- ----<br>-------- ------- -- ---------- --- - --- ----- ----- ----<br>---- --- --- ----- --- ---- ---- ------- ----- ---- -------<br>--- --- -- ----- -- --- ---- -- --- ---- -- ------ ------<br>--- ----- -- ----,183608.69999992847,183607.09999990463,183032.858,183036.69999992847,183049.567,183616.147,,6,lasting
screen,html.Screen,2_1_0_1_7,2022-04-25T14:39:16.298Z,,,,,,,,,,,,,,,,,53,,,,,,,,,,,,,,429.3530000000028,,response,,,,99,,,,,,,Space,keypress(Space),,,,,,,,---- -- ----- -- ------ - ------- and ----------<br>------------- ------ ------ ---- ---- ------- ----- -- ----<br>-------- ------- -- ---------- --- - --- ----- ----- ----<br>---- --- --- ----- --- ---- ---- ------- ----- ---- -------<br>--- --- -- ----- -- --- ---- -- --- ---- -- ------ ------<br>--- ----- -- ----,184046.79999995232,184045.5,183599.494,183609,183616.147,184049.471,,7,and
screen,html.Screen,2_1_0_1_8,2022-04-25T14:39:18.223Z,,,,,,,,,,,,,,,,,53,,,,,,,,,,,,,,1921.4289999761677,,response,,,,99,,,,,,,Space,keypress(Space),,,,,,,,---- -- ----- -- ------ - ------- --- fulfilling<br>------------- ------ ------ ---- ---- ------- ----- -- ----<br>-------- ------- -- ---------- --- - --- ----- ----- ----<br>---- --- --- ----- --- ---- ---- ------- ----- ---- -------<br>--- --- -- ----- -- --- ---- -- --- ---- -- ------ ------<br>--- ----- -- ----,185972.39999997616,185970.89999997616,184032.85,184047,184049.471,185983.958,,8,fulfilling
screen,html.Screen,2_1_0_1_9,2022-04-25T14:39:19.206Z,,,,,,,,,,,,,,,,,53,,,,,,,,,,,,,,969.841999952303,,response,,,,99,,,,,,,Space,keypress(Space),,,,,,,,"---- -- ----- -- ------ - ------- --- ----------<br>relationship, ------ ------ ---- ---- ------- ----- -- ----<br>-------- ------- -- ---------- --- - --- ----- ----- ----<br>---- --- --- ----- --- ---- ---- ------- ----- ---- -------<br>--- --- -- ----- -- --- ---- -- --- ---- -- ------ ------<br>--- ----- -- ----",186955.29999995232,186953.79999995232,185966.012,185972.79999995232,185983.958,186966.784,,9,"relationship,"
screen,html.Screen,2_1_0_1_10,2022-04-25T14:39:19.883Z,,,,,,,,,,,,,,,,,53,,,,,,,,,,,,,,663.7159999999858,,response,,,,99,,,,,,,Space,keypress(Space),,,,,,,,---- -- ----- -- ------ - ------- --- ----------<br>------------- common ------ ---- ---- ------- ----- -- ----<br>-------- ------- -- ---------- --- - --- ----- ----- ----<br>---- --- --- ----- --- ---- ---- ------- ----- ---- -------<br>--- --- -- ----- -- --- ---- -- --- ---- -- ------ ------<br>--- ----- -- ----,187632,187630.5,186949.248,186960.89999997616,186966.784,187649.35,,10,common
screen,html.Screen,2_1_0_1_11,2022-04-25T14:39:21.073Z,,,,,,,,,,,,,,,,,53,,,,,,,,,,,,,,1170.0499999761523,,response,,,,99,,,,,,,Space,keypress(Space),,,,,,,,---- -- ----- -- ------ - ------- --- ----------<br>------------- ------ wisdom ---- ---- ------- ----- -- ----<br>-------- ------- -- ---------- --- - --- ----- ----- ----<br>---- --- --- ----- --- ---- ---- ------- ----- ---- -------<br>--- --- -- ----- -- --- ---- -- --- ---- -- ------ ------<br>--- ----- -- ----,188822.59999990463,188819.39999997616,187632.607,187632.29999995232,187649.35,188836.737,,11,wisdom
screen,html.Screen,2_1_0_1_12,2022-04-25T14:39:21.566Z,,,,,,,,,,,,,,,,,53,,,,,,,,,,,,,,477.06299995232257,,response,,,,99,,,,,,,Space,keypress(Space),,,,,,,,---- -- ----- -- ------ - ------- --- ----------<br>------------- ------ ------ says ---- ------- ----- -- ----<br>-------- ------- -- ---------- --- - --- ----- ----- ----<br>---- --- --- ----- --- ---- ---- ------- ----- ---- -------<br>--- --- -- ----- -- --- ---- -- --- ---- -- ------ ------<br>--- ----- -- ----,189315.19999992847,189313.79999995232,188815.906,188822.89999997616,188836.737,189332.58,,12,says
screen,html.Screen,2_1_0_1_13,2022-04-25T14:39:22.049Z,,,,,,,,,,,,,,,,,53,,,,,,,,,,,,,,464.2199999523291,,response,,,,99,,,,,,,Space,keypress(Space),,,,,,,,---- -- ----- -- ------ - ------- --- ----------<br>------------- ------ ------ ---- that ------- ----- -- ----<br>-------- ------- -- ---------- --- - --- ----- ----- ----<br>---- --- --- ----- --- ---- ---- ------- ----- ---- -------<br>--- --- -- ----- -- --- ---- -- --- ---- -- ------ ------<br>--- ----- -- ----,189798.29999995232,189796.79999995232,189315.867,189315.69999992847,189332.58,189815.904,,13,that
screen,html.Screen,2_1_0_1_14,2022-04-25T14:39:22.561Z,,,,,,,,,,,,,,,,,53,,,,,,,,,,,,,,492.9959999761486,,response,,,,99,,,,,,,Space,keypress(Space),,,,,,,,---- -- ----- -- ------ - ------- --- ----------<br>------------- ------ ------ ---- ---- feeling ----- -- ----<br>-------- ------- -- ---------- --- - --- ----- ----- ----<br>---- --- --- ----- --- ---- ---- ------- ----- ---- -------<br>--- --- -- ----- -- --- ---- -- --- ---- -- ------ ------<br>--- ----- -- ----,190310.39999997616,190308.89999997616,189799.183,189798.79999995232,189815.904,190315.794,,14,feeling
screen,html.Screen,2_1_0_1_15,2022-04-25T14:39:23.106Z,,,,,,,,,,,,,,,,,53,,,,,,,,,,,,,,537.90599992848,,response,,,,99,,,,,,,Space,keypress(Space),,,,,,,,---- -- ----- -- ------ - ------- --- ----------<br>------------- ------ ------ ---- ---- ------- close -- ----<br>-------- ------- -- ---------- --- - --- ----- ----- ----<br>---- --- --- ----- --- ---- ---- ------- ----- ---- -------<br>--- --- -- ----- -- --- ---- -- --- ---- -- ------ ------<br>--- ----- -- ----,190855.19999992847,190853.69999992847,190299.148,190311,190315.794,190865.841,,15,close
screen,html.Screen,2_1_0_1_16,2022-04-25T14:39:23.532Z,,,,,,,,,,,,,,,,,53,,,,,,,,,,,,,,413.85899992848863,,response,,,,99,,,,,,,Space,keypress(Space),,,,,,,,---- -- ----- -- ------ - ------- --- ----------<br>------------- ------ ------ ---- ---- ------- ----- to ----<br>-------- ------- -- ---------- --- - --- ----- ----- ----<br>---- --- --- ----- --- ---- ---- ------- ----- ---- -------<br>--- --- -- ----- -- --- ---- -- --- ---- -- ------ ------<br>--- ----- -- ----,191281.09999990463,191279.69999992847,190849.152,190855.5,190865.841,191315.75,,16,to
screen,html.Screen,2_1_0_1_17,2022-04-25T14:39:24.051Z,,,,,,,,,,,,,,,,,53,,,,,,,,,,,,,,482.4499999284744,,response,,,,99,,,,,,,Space,keypress(Space),,,,,,,,---- -- ----- -- ------ - ------- --- ----------<br>------------- ------ ------ ---- ---- ------- ----- -- your<br>-------- ------- -- ---------- --- - --- ----- ----- ----<br>---- --- --- ----- --- ---- ---- ------- ----- ---- -------<br>--- --- -- ----- -- --- ---- -- --- ---- -- ------ ------<br>--- ----- -- ----,191800.19999992847,191798.19999992847,191311.724,191281.59999990463,191315.75,191815.772,,17,your
screen,html.Screen,2_1_0_1_18,2022-04-25T14:39:24.657Z,,,,,,,,,,,,,,,,,53,,,,,,,,,,,,,,589.1279999761609,,response,,,,99,,,,,,,Space,keypress(Space),,,,,,,,---- -- ----- -- ------ - ------- --- ----------<br>------------- ------ ------ ---- ---- ------- ----- -- ----<br>romantic ------- -- ---------- --- - --- ----- ----- ----<br>---- --- --- ----- --- ---- ---- ------- ----- ---- -------<br>--- --- -- ----- -- --- ---- -- --- ---- -- ------ ------<br>--- ----- -- ----,192406.39999997616,192404.89999997616,191799.054,191800.59999990463,191815.772,192417.161,,18,romantic
screen,html.Screen,2_1_0_1_19,2022-04-25T14:39:25.132Z,,,,,,,,,,,,,,,,,53,,,,,,,,,,,,,,462.6389999523235,,response,,,,99,,,,,,,Space,keypress(Space),,,,,,,,---- -- ----- -- ------ - ------- --- ----------<br>------------- ------ ------ ---- ---- ------- ----- -- ----<br>-------- partner -- ---------- --- - --- ----- ----- ----<br>---- --- --- ----- --- ---- ---- ------- ----- ---- -------<br>--- --- -- ----- -- --- ---- -- --- ---- -- ------ ------<br>--- ----- -- ----,192881.09999990463,192879.79999995232,192399.03,192406.69999992847,192417.161,192915.678,,19,partner
screen,html.Screen,2_1_0_1_20,2022-04-25T14:39:25.584Z,,,,,,,,,,,,,,,,,53,,,,,,,,,,,,,,416.32199999998556,,response,,,,99,,,,,,,Space,keypress(Space),,,,,,,,---- -- ----- -- ------ - ------- --- ----------<br>------------- ------ ------ ---- ---- ------- ----- -- ----<br>-------- ------- is ---------- --- - --- ----- ----- ----<br>---- --- --- ----- --- ---- ---- ------- ----- ---- -------<br>--- --- -- ----- -- --- ---- -- --- ---- -- ------ ------<br>--- ----- -- ----,193333.59999990463,193332,192899.06,192881.69999992847,192915.678,193349.052,,20,is
screen,html.Screen,2_1_0_1_21,2022-04-25T14:39:26.030Z,,,,,,,,,,,,,,,,,53,,,,,,,,,,,,,,428.6479999284784,,response,,,,99,,,,,,,Space,keypress(Space),,,,,,,,---- -- ----- -- ------ - ------- --- ----------<br>------------- ------ ------ ---- ---- ------- ----- -- ----<br>-------- ------- -- paramount. --- - --- ----- ----- ----<br>---- --- --- ----- --- ---- ---- ------- ----- ---- -------<br>--- --- -- ----- -- --- ---- -- --- ---- -- ------ ------<br>--- ----- -- ----,193779,193777.69999992847,193332.323,193334.09999990463,193349.052,193782.273,,21,paramount.
screen,html.Screen,2_1_0_1_22,2022-04-25T14:39:26.497Z,,,,,,,,,,,,,,,,,53,,,,,,,,,,,,,,462.92699992848793,,response,,,,99,,,,,,,Space,keypress(Space),,,,,,,,---- -- ----- -- ------ - ------- --- ----------<br>------------- ------ ------ ---- ---- ------- ----- -- ----<br>-------- ------- -- ---------- But - --- ----- ----- ----<br>---- --- --- ----- --- ---- ---- ------- ----- ---- -------<br>--- --- -- ----- -- --- ---- -- --- ---- -- ------ ------<br>--- ----- -- ----,194246.59999990463,194245.19999992847,193765.634,193779.39999997616,193782.273,194248.891,,22,But
screen,html.Screen,2_1_0_1_23,2022-04-25T14:39:26.951Z,,,,,,,,,,,,,,,,,53,,,,,,,,,,,,,,449.408999952313,,response,,,,99,,,,,,,Space,keypress(Space),,,,,,,,---- -- ----- -- ------ - ------- --- ----------<br>------------- ------ ------ ---- ---- ------- ----- -- ----<br>-------- ------- -- ---------- --- a --- ----- ----- ----<br>---- --- --- ----- --- ---- ---- ------- ----- ---- -------<br>--- --- -- ----- -- --- ---- -- --- ---- -- ------ ------<br>--- ----- -- ----,194699.69999992847,194698.29999995232,194232.317,194247,194248.891,194715.642,,23,a
screen,html.Screen,2_1_0_1_24,2022-04-25T14:39:27.423Z,,,,,,,,,,,,,,,,,53,,,,,,,,,,,,,,454.5579999284819,,response,,,,99,,,,,,,Space,keypress(Space),,,,,,,,---- -- ----- -- ------ - ------- --- ----------<br>------------- ------ ------ ---- ---- ------- ----- -- ----<br>-------- ------- -- ---------- --- - new ----- ----- ----<br>---- --- --- ----- --- ---- ---- ------- ----- ---- -------<br>--- --- -- ----- -- --- ---- -- --- ---- -- ------ ------<br>--- ----- -- ----,195171.79999995232,195170.19999992847,194698.95,194700.09999990463,194715.642,195182.279,,24,new
screen,html.Screen,2_1_0_1_25,2022-04-25T14:39:27.890Z,,,,,,,,,,,,,,,,,53,,,,,,,,,,,,,,455.820999904623,,response,,,,99,,,,,,,Space,keypress(Space),,,,,,,,---- -- ----- -- ------ - ------- --- ----------<br>------------- ------ ------ ---- ---- ------- ----- -- ----<br>-------- ------- -- ---------- --- - --- study ----- ----<br>---- --- --- ----- --- ---- ---- ------- ----- ---- -------<br>--- --- -- ----- -- --- ---- -- --- ---- -- ------ ------<br>--- ----- -- ----,195639.39999997616,195638.09999990463,195165.521,195172.29999995232,195182.279,195648.942,,25,study
screen,html.Screen,2_1_0_1_26,2022-04-25T14:39:28.339Z,,,,,,,,,,,,,,,,,53,,,,,,,,,,,,,,437.45799997614813,,response,,,,99,,,,,,,Space,keypress(Space),,,,,,,,---- -- ----- -- ------ - ------- --- ----------<br>------------- ------ ------ ---- ---- ------- ----- -- ----<br>-------- ------- -- ---------- --- - --- ----- finds ----<br>---- --- --- ----- --- ---- ---- ------- ----- ---- -------<br>--- --- -- ----- -- --- ---- -- --- ---- -- ------ ------<br>--- ----- -- ----,196088,196086.39999997616,195632.214,195639.89999997616,195648.942,196098.889,,26,finds
screen,html.Screen,2_1_0_1_27,2022-04-25T14:39:28.783Z,,,,,,,,,,,,,,,,,53,,,,,,,,,,,,,,431.710999904637,,response,,,,99,,,,,,,Space,keypress(Space),,,,,,,,---- -- ----- -- ------ - ------- --- ----------<br>------------- ------ ------ ---- ---- ------- ----- -- ----<br>-------- ------- -- ---------- --- - --- ----- ----- that<br>---- --- --- ----- --- ---- ---- ------- ----- ---- -------<br>--- --- -- ----- -- --- ---- -- --- ---- -- ------ ------<br>--- ----- -- ----,196532,196530.59999990463,196082.189,196088.39999997616,196098.889,196548.88,,27,that
screen,html.Screen,2_1_0_1_28,2022-04-25T14:39:29.237Z,,,,,,,,,,,,,,,,,53,,,,,,,,,,,,,,436.0199999761535,,response,,,,99,,,,,,,Space,keypress(Space),,,,,,,,---- -- ----- -- ------ - ------- --- ----------<br>------------- ------ ------ ---- ---- ------- ----- -- ----<br>-------- ------- -- ---------- --- - --- ----- ----- ----<br>it's --- --- ----- --- ---- ---- ------- ----- ---- -------<br>--- --- -- ----- -- --- ---- -- --- ---- -- ------ ------<br>--- ----- -- ----,196986.39999997616,196984.89999997616,196532.082,196532.39999997616,196548.88,196998.854,,28,it's
screen,html.Screen,2_1_0_1_29,2022-04-25T14:39:29.678Z,,,,,,,,,,,,,,,,,53,,,,,,,,,,,,,,427.04599997616606,,response,,,,99,,,,,,,Space,keypress(Space),,,,,,,,---- -- ----- -- ------ - ------- --- ----------<br>------------- ------ ------ ---- ---- ------- ----- -- ----<br>-------- ------- -- ---------- --- - --- ----- ----- ----<br>---- not --- ----- --- ---- ---- ------- ----- ---- -------<br>--- --- -- ----- -- --- ---- -- --- ---- -- ------ ------<br>--- ----- -- ----,197427.39999997616,197425.89999997616,196982.116,196987,196998.854,197432.363,,29,not
screen,html.Screen,2_1_0_1_30,2022-04-25T14:39:30.126Z,,,,,,,,,,,,,,,,,53,,,,,,,,,,,,,,441.53699997614603,,response,,,,99,,,,,,,Space,keypress(Space),,,,,,,,---- -- ----- -- ------ - ------- --- ----------<br>------------- ------ ------ ---- ---- ------- ----- -- ----<br>-------- ------- -- ---------- --- - --- ----- ----- ----<br>---- --- how ----- --- ---- ---- ------- ----- ---- -------<br>--- --- -- ----- -- --- ---- -- --- ---- -- ------ ------<br>--- ----- -- ----,197875.5,197873.89999997616,197415.435,197427.79999995232,197432.363,197882.03,,30,how
screen,html.Screen,2_1_0_1_31,2022-04-25T14:39:30.632Z,,,,,,,,,,,,,,,,,53,,,,,,,,,,,,,,497.26999995231745,,response,,,,99,,,,,,,Space,keypress(Space),,,,,,,,---- -- ----- -- ------ - ------- --- ----------<br>------------- ------ ------ ---- ---- ------- ----- -- ----<br>-------- ------- -- ---------- --- - --- ----- ----- ----<br>---- --- --- close --- ---- ---- ------- ----- ---- -------<br>--- --- -- ----- -- --- ---- -- --- ---- -- ------ ------<br>--- ----- -- ----,198380.79999995232,198379.29999995232,197865.418,197875.79999995232,197882.03,198415.423,,31,close
screen,html.Screen,2_1_0_1_32,2022-04-25T14:39:31.073Z,,,,,,,,,,,,,,,,,53,,,,,,,,,,,,,,405.47699997614836,,response,,,,99,,,,,,,Space,keypress(Space),,,,,,,,---- -- ----- -- ------ - ------- --- ----------<br>------------- ------ ------ ---- ---- ------- ----- -- ----<br>-------- ------- -- ---------- --- - --- ----- ----- ----<br>---- --- --- ----- you ---- ---- ------- ----- ---- -------<br>--- --- -- ----- -- --- ---- -- --- ---- -- ------ ------<br>--- ----- -- ----,198822.29999995232,198820.89999997616,198398.703,198381.19999992847,198415.423,198832.061,,32,you
screen,html.Screen,2_1_0_1_33,2022-04-25T14:39:31.538Z,,,,,,,,,,,,,,,,,53,,,,,,,,,,,,,,453.13899992848746,,response,,,,99,,,,,,,Space,keypress(Space),,,,,,,,---- -- ----- -- ------ - ------- --- ----------<br>------------- ------ ------ ---- ---- ------- ----- -- ----<br>-------- ------- -- ---------- --- - --- ----- ----- ----<br>---- --- --- ----- --- feel ---- ------- ----- ---- -------<br>--- --- -- ----- -- --- ---- -- --- ---- -- ------ ------<br>--- ----- -- ----,199286.69999992847,199285.19999992847,198815.393,198822.69999992847,198832.061,199298.744,,33,feel
screen,html.Screen,2_1_0_1_34,2022-04-25T14:39:31.994Z,,,,,,,,,,,,,,,,,53,,,,,,,,,,,,,,443.3559999046265,,response,,,,99,,,,,,,Space,keypress(Space),,,,,,,,---- -- ----- -- ------ - ------- --- ----------<br>------------- ------ ------ ---- ---- ------- ----- -- ----<br>-------- ------- -- ---------- --- - --- ----- ----- ----<br>---- --- --- ----- --- ---- that ------- ----- ---- -------<br>--- --- -- ----- -- --- ---- -- --- ---- -- ------ ------<br>--- ----- -- ----,199743.19999992847,199742.09999990463,199282.01,199287.29999995232,199298.744,199748.668,,34,that
screen,html.Screen,2_1_0_1_35,2022-04-25T14:39:32.468Z,,,,,,,,,,,,,,,,,53,,,,,,,,,,,,,,467.0319999284693,,response,,,,99,,,,,,,Space,keypress(Space),,,,,,,,---- -- ----- -- ------ - ------- --- ----------<br>------------- ------ ------ ---- ---- ------- ----- -- ----<br>-------- ------- -- ---------- --- - --- ----- ----- ----<br>---- --- --- ----- --- ---- ---- matters ----- ---- -------<br>--- --- -- ----- -- --- ---- -- --- ---- -- ------ ------<br>--- ----- -- ----,200217.19999992847,200215.69999992847,199731.974,199743.39999997616,199748.668,200232.008,,35,matters
screen,html.Screen,2_1_0_1_36,2022-04-25T14:39:32.971Z,,,,,,,,,,,,,,,,,53,,,,,,,,,,,,,,486.59199990463094,,response,,,,99,,,,,,,Space,keypress(Space),,,,,,,,"---- -- ----- -- ------ - ------- --- ----------<br>------------- ------ ------ ---- ---- ------- ----- -- ----<br>-------- ------- -- ---------- --- - --- ----- ----- ----<br>---- --- --- ----- --- ---- ---- ------- most, ---- -------<br>--- --- -- ----- -- --- ---- -- --- ---- -- ------ ------<br>--- ----- -- ----",200720,200718.59999990463,200215.185,200217.59999990463,200232.008,200731.973,,36,"most,"
screen,html.Screen,2_1_0_1_37,2022-04-25T14:39:33.456Z,,,,,,,,,,,,,,,,,53,,,,,,,,,,,,,,472.82699995231815,,response,,,,99,,,,,,,Space,keypress(Space),,,,,,,,---- -- ----- -- ------ - ------- --- ----------<br>------------- ------ ------ ---- ---- ------- ----- -- ----<br>-------- ------- -- ---------- --- - --- ----- ----- ----<br>---- --- --- ----- --- ---- ---- ------- ----- it's -------<br>--- --- -- ----- -- --- ---- -- --- ---- -- ------ ------<br>--- ----- -- ----,201205.5,201204.79999995232,200715.226,200720.29999995232,200731.973,201215.263,,37,it's
screen,html.Screen,2_1_0_1_38,2022-04-25T14:39:33.914Z,,,,,,,,,,,,,,,,,53,,,,,,,,,,,,,,446.13699997615186,,response,,,,99,,,,,,,Space,keypress(Space),,,,,,,,---- -- ----- -- ------ - ------- --- ----------<br>------------- ------ ------ ---- ---- ------- ----- -- ----<br>-------- ------- -- ---------- --- - --- ----- ----- ----<br>---- --- --- ----- --- ---- ---- ------- ----- ---- whether<br>--- --- -- ----- -- --- ---- -- --- ---- -- ------ ------<br>--- ----- -- ----,201662.79999995232,201661.39999997616,201198.576,201205.69999992847,201215.263,201665.179,,38,whether
screen,html.Screen,2_1_0_1_39,2022-04-25T14:39:34.385Z,,,,,,,,,,,,,,,,,53,,,,,,,,,,,,,,467.42099990462884,,response,,,,99,,,,,,,Space,keypress(Space),,,,,,,,---- -- ----- -- ------ - ------- --- ----------<br>------------- ------ ------ ---- ---- ------- ----- -- ----<br>-------- ------- -- ---------- --- - --- ----- ----- ----<br>---- --- --- ----- --- ---- ---- ------- ----- ---- -------<br>you --- -- ----- -- --- ---- -- --- ---- -- ------ ------<br>--- ----- -- ----,202134,202132.59999990463,201648.589,201663.29999995232,201665.179,202148.589,,39,you
screen,html.Screen,2_1_0_1_40,2022-04-25T14:39:34.843Z,,,,,,,,,,,,,,,,,53,,,,,,,,,,,,,,442.3109999761509,,response,,,,99,,,,,,,Space,keypress(Space),,,,,,,,---- -- ----- -- ------ - ------- --- ----------<br>------------- ------ ------ ---- ---- ------- ----- -- ----<br>-------- ------- -- ---------- --- - --- ----- ----- ----<br>---- --- --- ----- --- ---- ---- ------- ----- ---- -------<br>--- are -- ----- -- --- ---- -- --- ---- -- ------ ------<br>--- ----- -- ----,202592.59999990463,202590.89999997616,202131.898,202134.5,202148.589,202598.963,,40,are
screen,html.Screen,2_1_0_1_41,2022-04-25T14:39:35.301Z,,,,,,,,,,,,,,,,,53,,,,,,,,,,,,,,449.33699995232746,,response,,,,99,,,,,,,Space,keypress(Space),,,,,,,,---- -- ----- -- ------ - ------- --- ----------<br>------------- ------ ------ ---- ---- ------- ----- -- ----<br>-------- ------- -- ---------- --- - --- ----- ----- ----<br>---- --- --- ----- --- ---- ---- ------- ----- ---- -------<br>--- --- as ----- -- --- ---- -- --- ---- -- ------ ------<br>--- ----- -- ----,203049.79999995232,203048.29999995232,202581.828,202592.89999997616,202598.963,203065.184,,41,as
screen,html.Screen,2_1_0_1_42,2022-04-25T14:39:35.754Z,,,,,,,,,,,,,,,,,53,,,,,,,,,,,,,,436.71599997614976,,response,,,,99,,,,,,,Space,keypress(Space),,,,,,,,---- -- ----- -- ------ - ------- --- ----------<br>------------- ------ ------ ---- ---- ------- ----- -- ----<br>-------- ------- -- ---------- --- - --- ----- ----- ----<br>---- --- --- ----- --- ---- ---- ------- ----- ---- -------<br>--- --- -- close -- --- ---- -- --- ---- -- ------ ------<br>--- ----- -- ----,203503.5,203501.89999997616,203048.519,203050.19999992847,203065.184,203515.176,,42,close
screen,html.Screen,2_1_0_1_43,2022-04-25T14:39:36.215Z,,,,,,,,,,,,,,,,,53,,,,,,,,,,,,,,447.9239999046258,,response,,,,99,,,,,,,Space,keypress(Space),,,,,,,,---- -- ----- -- ------ - ------- --- ----------<br>------------- ------ ------ ---- ---- ------- ----- -- ----<br>-------- ------- -- ---------- --- - --- ----- ----- ----<br>---- --- --- ----- --- ---- ---- ------- ----- ---- -------<br>--- --- -- ----- as --- ---- -- --- ---- -- ------ ------<br>--- ----- -- ----,203964.39999997616,203963.09999990463,203498.459,203504,203515.176,203981.749,,43,as
screen,html.Screen,2_1_0_1_44,2022-04-25T14:39:36.680Z,,,,,,,,,,,,,,,,,53,,,,,,,,,,,,,,446.15099997614743,,response,,,,99,,,,,,,Space,keypress(Space),,,,,,,,---- -- ----- -- ------ - ------- --- ----------<br>------------- ------ ------ ---- ---- ------- ----- -- ----<br>-------- ------- -- ---------- --- - --- ----- ----- ----<br>---- --- --- ----- --- ---- ---- ------- ----- ---- -------<br>--- --- -- ----- -- you ---- -- --- ---- -- ------ ------<br>--- ----- -- ----,204429.39999997616,204427.89999997616,203965.098,203965,203981.749,204431.803,,44,you
screen,html.Screen,2_1_0_1_45,2022-04-25T14:39:37.159Z,,,,,,,,,,,,,,,,,53,,,,,,,,,,,,,,474.49699995230185,,response,,,,99,,,,,,,Space,keypress(Space),,,,,,,,---- -- ----- -- ------ - ------- --- ----------<br>------------- ------ ------ ---- ---- ------- ----- -- ----<br>-------- ------- -- ---------- --- - --- ----- ----- ----<br>---- --- --- ----- --- ---- ---- ------- ----- ---- -------<br>--- --- -- ----- -- --- want -- --- ---- -- ------ ------<br>--- ----- -- ----,204907.69999992847,204906.29999995232,204415.072,204429.69999992847,204431.803,204918.624,,45,want
screen,html.Screen,2_1_0_1_46,2022-04-25T14:39:37.602Z,,,,,,,,,,,,,,,,,53,,,,,,,,,,,,,,431.47599990462186,,response,,,,99,,,,,,,Space,keypress(Space),,,,,,,,---- -- ----- -- ------ - ------- --- ----------<br>------------- ------ ------ ---- ---- ------- ----- -- ----<br>-------- ------- -- ---------- --- - --- ----- ----- ----<br>---- --- --- ----- --- ---- ---- ------- ----- ---- -------<br>--- --- -- ----- -- --- ---- to --- ---- -- ------ ------<br>--- ----- -- ----,205351.59999990463,205350.09999990463,204898.41,204908,204918.624,205365.04,,46,to
screen,html.Screen,2_1_0_1_47,2022-04-25T14:39:38.067Z,,,,,,,,,,,,,,,,,53,,,,,,,,,,,,,,450.0599999046244,,response,,,,99,,,,,,,Space,keypress(Space),,,,,,,,"---- -- ----- -- ------ - ------- --- ----------<br>------------- ------ ------ ---- ---- ------- ----- -- ----<br>-------- ------- -- ---------- --- - --- ----- ----- ----<br>---- --- --- ----- --- ---- ---- ------- ----- ---- -------<br>--- --- -- ----- -- --- ---- -- be, ---- -- ------ ------<br>--- ----- -- ----",205816.59999990463,205815.09999990463,205348.38,205352.19999992847,205365.04,205831.653,,47,"be,"
screen,html.Screen,2_1_0_1_48,2022-04-25T14:39:38.532Z,,,,,,,,,,,,,,,,,53,,,,,,,,,,,,,,448.0469999284833,,response,,,,99,,,,,,,Space,keypress(Space),,,,,,,,---- -- ----- -- ------ - ------- --- ----------<br>------------- ------ ------ ---- ---- ------- ----- -- ----<br>-------- ------- -- ---------- --- - --- ----- ----- ----<br>---- --- --- ----- --- ---- ---- ------- ----- ---- -------<br>--- --- -- ----- -- --- ---- -- --- even -- ------ ------<br>--- ----- -- ----,206281.29999995232,206279.69999992847,205814.942,205816.89999997616,205831.653,206298.371,,48,even
screen,html.Screen,2_1_0_1_49,2022-04-25T14:39:39.035Z,,,,,,,,,,,,,,,,,53,,,,,,,,,,,,,,483.8289999284607,,response,,,,99,,,,,,,Space,keypress(Space),,,,,,,,---- -- ----- -- ------ - ------- --- ----------<br>------------- ------ ------ ---- ---- ------- ----- -- ----<br>-------- ------- -- ---------- --- - --- ----- ----- ----<br>---- --- --- ----- --- ---- ---- ------- ----- ---- -------<br>--- --- -- ----- -- --- ---- -- --- ---- if ------ ------<br>--- ----- -- ----,206783.79999995232,206782.19999992847,206281.651,206281.59999990463,206298.371,206798.348,,49,if
screen,html.Screen,2_1_0_1_50,2022-04-25T14:39:39.518Z,,,,,,,,,,,,,,,,,53,,,,,,,,,,,,,,467.45199995231815,,response,,,,99,,,,,,,Space,keypress(Space),,,,,,,,---- -- ----- -- ------ - ------- --- ----------<br>------------- ------ ------ ---- ---- ------- ----- -- ----<br>-------- ------- -- ---------- --- - --- ----- ----- ----<br>---- --- --- ----- --- ---- ---- ------- ----- ---- -------<br>--- --- -- ----- -- --- ---- -- --- ---- -- that's ------<br>--- ----- -- ----,207267.19999992847,207265.79999995232,206781.621,206784.09999990463,206798.348,207281.647,,50,that's
screen,html.Screen,2_1_0_1_51,2022-04-25T14:39:39.996Z,,,,,,,,,,,,,,,,,53,,,,,,,,,,,,,,461.8530000000028,,response,,,,99,,,,,,,Space,keypress(Space),,,,,,,,---- -- ----- -- ------ - ------- --- ----------<br>------------- ------ ------ ---- ---- ------- ----- -- ----<br>-------- ------- -- ---------- --- - --- ----- ----- ----<br>---- --- --- ----- --- ---- ---- ------- ----- ---- -------<br>--- --- -- ----- -- --- ---- -- --- ---- -- ------ really<br>--- ----- -- ----,207745,207743.5,207264.86,207267.79999995232,207281.647,207748.19,,51,really
screen,html.Screen,2_1_0_1_52,2022-04-25T14:39:40.505Z,,,,,,,,,,,,,,,,,53,,,,,,,,,,,,,,503.90999990463024,,response,,,,99,,,,,,,Space,keypress(Space),,,,,,,,---- -- ----- -- ------ - ------- --- ----------<br>------------- ------ ------ ---- ---- ------- ----- -- ----<br>-------- ------- -- ---------- --- - --- ----- ----- ----<br>---- --- --- ----- --- ---- ---- ------- ----- ---- -------<br>--- --- -- ----- -- --- ---- -- --- ---- -- ------ ------<br>not ----- -- ----,208253.59999990463,208252.09999990463,207731.576,207745.5,207748.19,208264.941,,52,not
screen,html.Screen,2_1_0_1_53,2022-04-25T14:39:40.987Z,,,,,,,,,,,,,,,,,53,,,,,,,,,,,,,,469.9589999761665,,response,,,,99,,,,,,,Space,keypress(Space),,,,,,,,---- -- ----- -- ------ - ------- --- ----------<br>------------- ------ ------ ---- ---- ------- ----- -- ----<br>-------- ------- -- ---------- --- - --- ----- ----- ----<br>---- --- --- ----- --- ---- ---- ------- ----- ---- -------<br>--- --- -- ----- -- --- ---- -- --- ---- -- ------ ------<br>--- close -- ----,208735.69999992847,208734.89999997616,208248.251,208254.19999992847,208264.941,208748.135,,53,close
screen,html.Screen,2_1_0_1_54,2022-04-25T14:39:41.472Z,,,,,,,,,,,,,,,,,53,,,,,,,,,,,,,,471.66499995230697,,response,,,,99,,,,,,,Space,keypress(Space),,,,,,,,---- -- ----- -- ------ - ------- --- ----------<br>------------- ------ ------ ---- ---- ------- ----- -- ----<br>-------- ------- -- ---------- --- - --- ----- ----- ----<br>---- --- --- ----- --- ---- ---- ------- ----- ---- -------<br>--- --- -- ----- -- --- ---- -- --- ---- -- ------ ------<br>--- ----- at ----,209221.29999995232,209219.79999995232,208731.462,208735.89999997616,208748.135,209231.432,,54,at
screen,html.Screen,2_1_0_1_55,2022-04-25T14:39:41.981Z,,,,,,,,,,,,,,,,,53,,,,,,,,,,,,,,497.46799997615744,,response,,,,99,,,,,,,Space,keypress(Space),,,,,,,,---- -- ----- -- ------ - ------- --- ----------<br>------------- ------ ------ ---- ---- ------- ----- -- ----<br>-------- ------- -- ---------- --- - --- ----- ----- ----<br>---- --- --- ----- --- ---- ---- ------- ----- ---- -------<br>--- --- -- ----- -- --- ---- -- --- ---- -- ------ ------<br>--- ----- -- all.,209730.5,209728.89999997616,209214.826,209222.19999992847,209231.432,209748.116,,55,all.
Item 99,flow.Loop,2_1_0_1,2022-04-25T14:39:41.982Z,,,,,,,,,,,,,,,,,,,,,,,,,,,,,,,30229.200999976165,,completion,,,,,A,,,,,,,,,,,silence,,,,,209731.39999997616,209728.89999997616,179166.379,179167.69999992847,179499.699,209748.116,,,
Question 1,html.Screen,2_1_0_2,2022-04-25T14:39:46.149Z,,,,,,,,,,,,,,,,,,,,,,,,,,,,false,FALSE,,4148.9839999046235,,response,,,,99,A,,,,,,TRUE,click #choice-1,,,,silence,,,,,213898.39999997616,213897.09999990463,209731.469,209731.79999995232,209748.116,213898.674,,,
Question 2,html.Screen,2_1_0_3,2022-04-25T14:39:51.781Z,,,,,,,,,,,,,,,,,,,,,,,,,,,,true,TRUE,,5630.225999976159,,response,,,,99,A,,,,,,TRUE,click #choice-1,,,,silence,,,,,219529.89999997616,219528.89999997616,213881.182,213898.59999990463,213898.674,219531.771,,,
Item 99,flow.Sequence,2_1_0,2022-04-25T14:39:51.781Z,,,,,,,,,,,,,,,,,,,,,,,,,,,,,,,50345.353999976156,,completion,,,,,,,,,,,,,,,,,,,,,219530.19999992847,219528.89999997616,168950.28,169043.79999995232,169183.546,219531.771,,,
Holding screen,html.Screen,2_1_1_0,2022-04-25T14:40:01.765Z,,,,,,,,,,,,,,,,,,,,,,,,,,,,,,,9998.661999999982,,timeout,,,,,,,,,,,,,,,,,,,,,229514.19999992847,229513.684,219514.324,219530.39999997616,219531.771,229530.433,,,
screen,html.Screen,2_1_1_1_0,2022-04-25T14:40:03.594Z,,,,,,,,,,,,,,,,,54,,,,,,,,,,,,,,1811.06700000001,,response,,,,100,,,,,,,Space,keypress(Space),,,,,,,,At --- ---- --- ------ ----- ------- ---- -- --- ------- --<br>------- ---------- ------ -- ----- -- ----- -- ---- ------<br>--- ----- --- --- ------ -------- ----- --- ------ ----- --<br>----- ----- ---------- --- --- ------ ------ ---- -- ------<br>------- --- ------ ----- --- ---- ------- -- ---- --- --<br>------- ------,231343,231341.5,229513.684,229514.39999997616,229530.433,231347.003,,0,At
screen,html.Screen,2_1_1_1_1,2022-04-25T14:40:04.132Z,,,,,,,,,,,,,,,,,54,,,,,,,,,,,,,,532.3969999761612,,response,,,,100,,,,,,,Space,keypress(Space),,,,,,,,-- the ---- --- ------ ----- ------- ---- -- --- ------- --<br>------- ---------- ------ -- ----- -- ----- -- ---- ------<br>--- ----- --- --- ------ -------- ----- --- ------ ----- --<br>----- ----- ---------- --- --- ------ ------ ---- -- ------<br>------- --- ------ ----- --- ---- ------- -- ---- --- --<br>------- ------,231880.79999995232,231879.39999997616,231330.179,231343.39999997616,231347.003,231896.938,,1,the
screen,html.Screen,2_1_1_1_2,2022-04-25T14:40:05.408Z,,,,,,,,,,,,,,,,,54,,,,,,,,,,,,,,1258.5620000000054,,response,,,,100,,,,,,,Space,keypress(Space),,,,,,,,-- --- time --- ------ ----- ------- ---- -- --- ------- --<br>------- ---------- ------ -- ----- -- ----- -- ---- ------<br>--- ----- --- --- ------ -------- ----- --- ------ ----- --<br>----- ----- ---------- --- --- ------ ------ ---- -- ------<br>------- --- ------ ----- --- ---- ------- -- ---- --- --<br>------- ------,233157,233155.5,231880.276,231881.09999990463,231896.938,233163.546,,2,time
screen,html.Screen,2_1_1_1_3,2022-04-25T14:40:05.869Z,,,,,,,,,,,,,,,,,54,,,,,,,,,,,,,,452.9539999999979,,response,,,,100,,,,,,,Space,keypress(Space),,,,,,,,-- --- ---- the ------ ----- ------- ---- -- --- ------- --<br>------- ---------- ------ -- ----- -- ----- -- ---- ------<br>--- ----- --- --- ------ -------- ----- --- ------ ----- --<br>----- ----- ---------- --- --- ------ ------ ---- -- ------<br>------- --- ------ ----- --- ---- ------- -- ---- --- --<br>------- ------,233618.09999990463,233616.5,233146.947,233157.39999997616,233163.546,233630.23,,3,the
screen,html.Screen,2_1_1_1_4,2022-04-25T14:40:06.317Z,,,,,,,,,,,,,,,,,54,,,,,,,,,,,,,,434.46999992846395,,response,,,,100,,,,,,,Space,keypress(Space),,,,,,,,-- --- ---- --- French ----- ------- ---- -- --- ------- --<br>------- ---------- ------ -- ----- -- ----- -- ---- ------<br>--- ----- --- --- ------ -------- ----- --- ------ ----- --<br>----- ----- ---------- --- --- ------ ------ ---- -- ------<br>------- --- ------ ----- --- ---- ------- -- ---- --- --<br>------- ------,234066.5,234064.69999992847,233613.602,233618.39999997616,233630.23,234080.267,,4,French
screen,html.Screen,2_1_1_1_5,2022-04-25T14:40:06.730Z,,,,,,,,,,,,,,,,,54,,,,,,,,,,,,,,397.6329999761656,,response,,,,100,,,,,,,Space,keypress(Space),,,,,,,,-- --- ---- --- ------ crown ------- ---- -- --- ------- --<br>------- ---------- ------ -- ----- -- ----- -- ---- ------<br>--- ----- --- --- ------ -------- ----- --- ------ ----- --<br>----- ----- ---------- --- --- ------ ------ ---- -- ------<br>------- --- ------ ----- --- ---- ------- -- ---- --- --<br>------- ------,234479.5,234477.89999997616,234063.513,234066.79999995232,234080.267,234497.024,,5,crown
screen,html.Screen,2_1_1_1_6,2022-04-25T14:40:07.243Z,,,,,,,,,,,,,,,,,54,,,,,,,,,,,,,,493.17599992846954,,response,,,,100,,,,,,,Space,keypress(Space),,,,,,,,-- --- ---- --- ------ ----- secured ---- -- --- ------- --<br>------- ---------- ------ -- ----- -- ----- -- ---- ------<br>--- ----- --- --- ------ -------- ----- --- ------ ----- --<br>----- ----- ---------- --- --- ------ ------ ---- -- ------<br>------- --- ------ ----- --- ---- ------- -- ---- --- --<br>------- ------,234991.89999997616,234990.19999992847,234480.195,234479.69999992847,234497.024,234997.877,,6,secured
screen,html.Screen,2_1_1_1_7,2022-04-25T14:40:07.719Z,,,,,,,,,,,,,,,,,54,,,,,,,,,,,,,,469.2229999046249,,response,,,,100,,,,,,,Space,keypress(Space),,,,,,,,-- --- ---- --- ------ ----- ------- much -- --- ------- --<br>------- ---------- ------ -- ----- -- ----- -- ---- ------<br>--- ----- --- --- ------ -------- ----- --- ------ ----- --<br>----- ----- ---------- --- --- ------ ------ ---- -- ------<br>------- --- ------ ----- --- ---- ------- -- ---- --- --<br>------- ------,235468.29999995232,235467.09999990463,234980.092,234992.19999992847,234997.877,235480.182,,7,much
screen,html.Screen,2_1_1_1_8,2022-04-25T14:40:08.154Z,,,,,,,,,,,,,,,,,54,,,,,,,,,,,,,,422.1179999523156,,response,,,,100,,,,,,,Space,keypress(Space),,,,,,,,-- --- ---- --- ------ ----- ------- ---- of --- ------- --<br>------- ---------- ------ -- ----- -- ----- -- ---- ------<br>--- ----- --- --- ------ -------- ----- --- ------ ----- --<br>----- ----- ---------- --- --- ------ ------ ---- -- ------<br>------- --- ------ ----- --- ---- ------- -- ---- --- --<br>------- ------,235903.19999992847,235902.29999995232,235463.479,235468.5,235480.182,235913.382,,8,of
screen,html.Screen,2_1_1_1_9,2022-04-25T14:40:08.617Z,,,,,,,,,,,,,,,,,54,,,,,,,,,,,,,,450.41799995230394,,response,,,,100,,,,,,,Space,keypress(Space),,,,,,,,-- --- ---- --- ------ ----- ------- ---- -- its ------- --<br>------- ---------- ------ -- ----- -- ----- -- ---- ------<br>--- ----- --- --- ------ -------- ----- --- ------ ----- --<br>----- ----- ---------- --- --- ------ ------ ---- -- ------<br>------- --- ------ ----- --- ---- ------- -- ---- --- --<br>------- ------,236365.69999992847,236363.79999995232,235896.741,235903.29999995232,235913.382,236380.159,,9,its
screen,html.Screen,2_1_1_1_10,2022-04-25T14:40:09.136Z,,,,,,,,,,,,,,,,,54,,,,,,,,,,,,,,503.1409999523021,,response,,,,100,,,,,,,Space,keypress(Space),,,,,,,,-- --- ---- --- ------ ----- ------- ---- -- --- revenue --<br>------- ---------- ------ -- ----- -- ----- -- ---- ------<br>--- ----- --- --- ------ -------- ----- --- ------ ----- --<br>----- ----- ---------- --- --- ------ ------ ---- -- ------<br>------- --- ------ ----- --- ---- ------- -- ---- --- --<br>------- ------,236884.89999997616,236883.29999995232,236363.375,236365.89999997616,236380.159,236896.736,,10,revenue
screen,html.Screen,2_1_1_1_11,2022-04-25T14:40:09.688Z,,,,,,,,,,,,,,,,,54,,,,,,,,,,,,,,539.3639999046281,,response,,,,100,,,,,,,Space,keypress(Space),,,,,,,,-- --- ---- --- ------ ----- ------- ---- -- --- ------- by<br>------- ---------- ------ -- ----- -- ----- -- ---- ------<br>--- ----- --- --- ------ -------- ----- --- ------ ----- --<br>----- ----- ---------- --- --- ------ ------ ---- -- ------<br>------- --- ------ ----- --- ---- ------- -- ---- --- --<br>------- ------,237436.89999997616,237436.09999990463,236880.023,236885.19999992847,236896.736,237446.701,,11,by
screen,html.Screen,2_1_1_1_12,2022-04-25T14:40:10.114Z,,,,,,,,,,,,,,,,,54,,,,,,,,,,,,,,414.89899990463164,,response,,,,100,,,,,,,Space,keypress(Space),,,,,,,,-- --- ---- --- ------ ----- ------- ---- -- --- ------- --<br>issuing ---------- ------ -- ----- -- ----- -- ---- ------<br>--- ----- --- --- ------ -------- ----- --- ------ ----- --<br>----- ----- ---------- --- --- ------ ------ ---- -- ------<br>------- --- ------ ----- --- ---- ------- -- ---- --- --<br>------- ------,237862.89999997616,237861.59999990463,237430.127,237437.29999995232,237446.701,237880.074,,12,issuing
screen,html.Screen,2_1_1_1_13,2022-04-25T14:40:10.572Z,,,,,,,,,,,,,,,,,54,,,,,,,,,,,,,,439.22599995232304,,response,,,,100,,,,,,,Space,keypress(Space),,,,,,,,-- --- ---- --- ------ ----- ------- ---- -- --- ------- --<br>------- government ------ -- ----- -- ----- -- ---- ------<br>--- ----- --- --- ------ -------- ----- --- ------ ----- --<br>----- ----- ---------- --- --- ------ ------ ---- -- ------<br>------- --- ------ ----- --- ---- ------- -- ---- --- --<br>------- ------,238320.79999995232,238319.29999995232,237863.336,237863.19999992847,237880.074,238330.34,,13,government
screen,html.Screen,2_1_1_1_14,2022-04-25T14:40:11.008Z,,,,,,,,,,,,,,,,,54,,,,,,,,,,,,,,425.75999990463606,,response,,,,100,,,,,,,Space,keypress(Space),,,,,,,,-- --- ---- --- ------ ----- ------- ---- -- --- ------- --<br>------- ---------- bonds. -- ----- -- ----- -- ---- ------<br>--- ----- --- --- ------ -------- ----- --- ------ ----- --<br>----- ----- ---------- --- --- ------ ------ ---- -- ------<br>------- --- ------ ----- --- ---- ------- -- ---- --- --<br>------- ------,238757.5,238756.09999990463,238313.333,238321.19999992847,238330.34,238764.195,,14,bonds.
screen,html.Screen,2_1_1_1_15,2022-04-25T14:40:11.429Z,,,,,,,,,,,,,,,,,54,,,,,,,,,,,,,,412.9049999046256,,response,,,,100,,,,,,,Space,keypress(Space),,,,,,,,-- --- ---- --- ------ ----- ------- ---- -- --- ------- --<br>------- ---------- ------ In ----- -- ----- -- ---- ------<br>--- ----- --- --- ------ -------- ----- --- ------ ----- --<br>----- ----- ---------- --- --- ------ ------ ---- -- ------<br>------- --- ------ ----- --- ---- ------- -- ---- --- --<br>------- ------,239178.59999990463,239177.09999990463,238746.678,238757.89999997616,238764.195,239213.339,,15,In
screen,html.Screen,2_1_1_1_16,2022-04-25T14:40:11.915Z,,,,,,,,,,,,,,,,,54,,,,,,,,,,,,,,449.3609999284672,,response,,,,100,,,,,,,Space,keypress(Space),,,,,,,,"-- --- ---- --- ------ ----- ------- ---- -- --- ------- --<br>------- ---------- ------ -- 1727, -- ----- -- ---- ------<br>--- ----- --- --- ------ -------- ----- --- ------ ----- --<br>----- ----- ---------- --- --- ------ ------ ---- -- ------<br>------- --- ------ ----- --- ---- ------- -- ---- --- --<br>------- ------",239664,239662.69999992847,239196.666,239179.19999992847,239213.339,239679.973,,16,"1727,"
screen,html.Screen,2_1_1_1_17,2022-04-25T14:40:12.357Z,,,,,,,,,,,,,,,,,54,,,,,,,,,,,,,,424.12699990463443,,response,,,,100,,,,,,,Space,keypress(Space),,,,,,,,-- --- ---- --- ------ ----- ------- ---- -- --- ------- --<br>------- ---------- ------ -- ----- in ----- -- ---- ------<br>--- ----- --- --- ------ -------- ----- --- ------ ----- --<br>----- ----- ---------- --- --- ------ ------ ---- -- ------<br>------- --- ------ ----- --- ---- ------- -- ---- --- --<br>------- ------,240105.79999995232,240104.09999990463,239663.256,239664.39999997616,239679.973,240113.196,,17,in
screen,html.Screen,2_1_1_1_18,2022-04-25T14:40:12.811Z,,,,,,,,,,,,,,,,,54,,,,,,,,,,,,,,445.4039999046363,,response,,,,100,,,,,,,Space,keypress(Space),,,,,,,,-- --- ---- --- ------ ----- ------- ---- -- --- ------- --<br>------- ---------- ------ -- ----- -- order -- ---- ------<br>--- ----- --- --- ------ -------- ----- --- ------ ----- --<br>----- ----- ---------- --- --- ------ ------ ---- -- ------<br>------- --- ------ ----- --- ---- ------- -- ---- --- --<br>------- ------,240559.89999997616,240558.59999990463,240096.557,240106.19999992847,240113.196,240563.18,,18,order
screen,html.Screen,2_1_1_1_19,2022-04-25T14:40:13.232Z,,,,,,,,,,,,,,,,,54,,,,,,,,,,,,,,417.0199999284814,,response,,,,100,,,,,,,Space,keypress(Space),,,,,,,,-- --- ---- --- ------ ----- ------- ---- -- --- ------- --<br>------- ---------- ------ -- ----- -- ----- to ---- ------<br>--- ----- --- --- ------ -------- ----- --- ------ ----- --<br>----- ----- ---------- --- --- ------ ------ ---- -- ------<br>------- --- ------ ----- --- ---- ------- -- ---- --- --<br>------- ------,240981.59999990463,240980.19999992847,240546.557,240560.29999995232,240563.18,240996.555,,19,to
screen,html.Screen,2_1_1_1_20,2022-04-25T14:40:13.671Z,,,,,,,,,,,,,,,,,54,,,,,,,,,,,,,,422.54499990463955,,response,,,,100,,,,,,,Space,keypress(Space),,,,,,,,-- --- ---- --- ------ ----- ------- ---- -- --- ------- --<br>------- ---------- ------ -- ----- -- ----- -- save ------<br>--- ----- --- --- ------ -------- ----- --- ------ ----- --<br>----- ----- ---------- --- --- ------ ------ ---- -- ------<br>------- --- ------ ----- --- ---- ------- -- ---- --- --<br>------- ------,241420.5,241419.09999990463,240979.781,240982.19999992847,240996.555,241430.176,,20,save
screen,html.Screen,2_1_1_1_21,2022-04-25T14:40:14.072Z,,,,,,,,,,,,,,,,,54,,,,,,,,,,,,,,389.82399999999325,,response,,,,100,,,,,,,Space,keypress(Space),,,,,,,,"-- --- ---- --- ------ ----- ------- ---- -- --- ------- --<br>------- ---------- ------ -- ----- -- ----- -- ---- money,<br>--- ----- --- --- ------ -------- ----- --- ------ ----- --<br>----- ----- ---------- --- --- ------ ------ ---- -- ------<br>------- --- ------ ----- --- ---- ------- -- ---- --- --<br>------- ------",241821.09999990463,241820,241413.171,241420.89999997616,241430.176,241829.788,,21,"money,"
screen,html.Screen,2_1_1_1_22,2022-04-25T14:40:14.507Z,,,,,,,,,,,,,,,,,54,,,,,,,,,,,,,,425.3119999046321,,response,,,,100,,,,,,,Space,keypress(Space),,,,,,,,-- --- ---- --- ------ ----- ------- ---- -- --- ------- --<br>------- ---------- ------ -- ----- -- ----- -- ---- ------<br>the ----- --- --- ------ -------- ----- --- ------ ----- --<br>----- ----- ---------- --- --- ------ ------ ---- -- ------<br>------- --- ------ ----- --- ---- ------- -- ---- --- --<br>------- ------,242256.5,242255.09999990463,241813.179,241821.19999992847,241829.788,242263.078,,22,the
screen,html.Screen,2_1_1_1_23,2022-04-25T14:40:14.963Z,,,,,,,,,,,,,,,,,54,,,,,,,,,,,,,,447.9219999999914,,response,,,,100,,,,,,,Space,keypress(Space),,,,,,,,-- --- ---- --- ------ ----- ------- ---- -- --- ------- --<br>------- ---------- ------ -- ----- -- ----- -- ---- ------<br>--- state --- --- ------ -------- ----- --- ------ ----- --<br>----- ----- ---------- --- --- ------ ------ ---- -- ------<br>------- --- ------ ----- --- ---- ------- -- ---- --- --<br>------- ------,242711.79999995232,242711,242246.429,242256.89999997616,242263.078,242737.4,,23,state
screen,html.Screen,2_1_1_1_24,2022-04-25T14:40:15.375Z,,,,,,,,,,,,,,,,,54,,,,,,,,,,,,,,385.1999999046384,,response,,,,100,,,,,,,Space,keypress(Space),,,,,,,,-- --- ---- --- ------ ----- ------- ---- -- --- ------- --<br>------- ---------- ------ -- ----- -- ----- -- ---- ------<br>--- ----- cut --- ------ -------- ----- --- ------ ----- --<br>----- ----- ---------- --- --- ------ ------ ---- -- ------<br>------- --- ------ ----- --- ---- ------- -- ---- --- --<br>------- ------,243124,243122.59999990463,242696.45,242712.09999990463,242737.4,243130.25,,24,cut
screen,html.Screen,2_1_1_1_25,2022-04-25T14:40:15.786Z,,,,,,,,,,,,,,,,,54,,,,,,,,,,,,,,403.34999990463257,,response,,,,100,,,,,,,Space,keypress(Space),,,,,,,,-- --- ---- --- ------ ----- ------- ---- -- --- ------- --<br>------- ---------- ------ -- ----- -- ----- -- ---- ------<br>--- ----- --- the ------ -------- ----- --- ------ ----- --<br>----- ----- ---------- --- --- ------ ------ ---- -- ------<br>------- --- ------ ----- --- ---- ------- -- ---- --- --<br>------- ------,243535.19999992847,243533.59999990463,243113.159,243124.5,243130.25,243546.521,,25,the
screen,html.Screen,2_1_1_1_26,2022-04-25T14:40:16.208Z,,,,,,,,,,,,,,,,,54,,,,,,,,,,,,,,409.4789999999921,,response,,,,100,,,,,,,Space,keypress(Space),,,,,,,,-- --- ---- --- ------ ----- ------- ---- -- --- ------- --<br>------- ---------- ------ -- ----- -- ----- -- ---- ------<br>--- ----- --- --- bonds' -------- ----- --- ------ ----- --<br>----- ----- ---------- --- --- ------ ------ ---- -- ------<br>------- --- ------ ----- --- ---- ------- -- ---- --- --<br>------- ------,243957.29999995232,243956,243529.718,243535.5,243546.521,243963.503,,26,bonds'
screen,html.Screen,2_1_1_1_27,2022-04-25T14:40:16.635Z,,,,,,,,,,,,,,,,,54,,,,,,,,,,,,,,418.997000000003,,response,,,,100,,,,,,,Space,keypress(Space),,,,,,,,-- --- ---- --- ------ ----- ------- ---- -- --- ------- --<br>------- ---------- ------ -- ----- -- ----- -- ---- ------<br>--- ----- --- --- ------ interest ----- --- ------ ----- --<br>----- ----- ---------- --- --- ------ ------ ---- -- ------<br>------- --- ------ ----- --- ---- ------- -- ---- --- --<br>------- ------,244383.79999995232,244382.5,243946.301,243957.59999990463,243963.503,244396.399,,27,interest
screen,html.Screen,2_1_1_1_28,2022-04-25T14:40:17.069Z,,,,,,,,,,,,,,,,,54,,,,,,,,,,,,,,420.80099992846954,,response,,,,100,,,,,,,Space,keypress(Space),,,,,,,,-- --- ---- --- ------ ----- ------- ---- -- --- ------- --<br>------- ---------- ------ -- ----- -- ----- -- ---- ------<br>--- ----- --- --- ------ -------- rate. --- ------ ----- --<br>----- ----- ---------- --- --- ------ ------ ---- -- ------<br>------- --- ------ ----- --- ---- ------- -- ---- --- --<br>------- ------,244818.59999990463,244817.19999992847,244379.696,244384.09999990463,244396.399,244829.703,,28,rate.
screen,html.Screen,2_1_1_1_29,2022-04-25T14:40:17.484Z,,,,,,,,,,,,,,,,,54,,,,,,,,,,,,,,401.59699995230767,,response,,,,100,,,,,,,Space,keypress(Space),,,,,,,,-- --- ---- --- ------ ----- ------- ---- -- --- ------- --<br>------- ---------- ------ -- ----- -- ----- -- ---- ------<br>--- ----- --- --- ------ -------- ----- The ------ ----- --<br>----- ----- ---------- --- --- ------ ------ ---- -- ------<br>------- --- ------ ----- --- ---- ------- -- ---- --- --<br>------- ------,245233,245231.29999995232,244813.001,244818.89999997616,244829.703,245246.234,,29,The
screen,html.Screen,2_1_1_1_30,2022-04-25T14:40:17.953Z,,,,,,,,,,,,,,,,,54,,,,,,,,,,,,,,455.1659999761614,,response,,,,100,,,,,,,Space,keypress(Space),,,,,,,,-- --- ---- --- ------ ----- ------- ---- -- --- ------- --<br>------- ---------- ------ -- ----- -- ----- -- ---- ------<br>--- ----- --- --- ------ -------- ----- --- market ----- --<br>----- ----- ---------- --- --- ------ ------ ---- -- ------<br>------- --- ------ ----- --- ---- ------- -- ---- --- --<br>------- ------,245702.69999992847,245701.39999997616,245229.634,245233.19999992847,245246.234,245712.944,,30,market
screen,html.Screen,2_1_1_1_31,2022-04-25T14:40:18.374Z,,,,,,,,,,,,,,,,,54,,,,,,,,,,,,,,408.25599992848583,,response,,,,100,,,,,,,Space,keypress(Space),,,,,,,,-- --- ---- --- ------ ----- ------- ---- -- --- ------- --<br>------- ---------- ------ -- ----- -- ----- -- ---- ------<br>--- ----- --- --- ------ -------- ----- --- ------ value --<br>----- ----- ---------- --- --- ------ ------ ---- -- ------<br>------- --- ------ ----- --- ---- ------- -- ---- --- --<br>------- ------,246122.79999995232,246121.19999992847,245696.172,245703,245712.944,246129.538,,31,value
screen,html.Screen,2_1_1_1_32,2022-04-25T14:40:18.821Z,,,,,,,,,,,,,,,,,54,,,,,,,,,,,,,,437.7619999523158,,response,,,,100,,,,,,,Space,keypress(Space),,,,,,,,-- --- ---- --- ------ ----- ------- ---- -- --- ------- --<br>------- ---------- ------ -- ----- -- ----- -- ---- ------<br>--- ----- --- --- ------ -------- ----- --- ------ ----- of<br>----- ----- ---------- --- --- ------ ------ ---- -- ------<br>------- --- ------ ----- --- ---- ------- -- ---- --- --<br>------- ------,246570.09999990463,246567.29999995232,246112.95,246123.29999995232,246129.538,246579.804,,32,of
screen,html.Screen,2_1_1_1_33,2022-04-25T14:40:19.260Z,,,,,,,,,,,,,,,,,54,,,,,,,,,,,,,,428.49599995231256,,response,,,,100,,,,,,,Space,keypress(Space),,,,,,,,-- --- ---- --- ------ ----- ------- ---- -- --- ------- --<br>------- ---------- ------ -- ----- -- ----- -- ---- ------<br>--- ----- --- --- ------ -------- ----- --- ------ ----- --<br>these ----- ---------- --- --- ------ ------ ---- -- ------<br>------- --- ------ ----- --- ---- ------- -- ---- --- --<br>------- ------,247009.19999992847,247008.29999995232,246562.874,246570.29999995232,246579.804,247012.8,,33,these
screen,html.Screen,2_1_1_1_34,2022-04-25T14:40:19.680Z,,,,,,,,,,,,,,,,,54,,,,,,,,,,,,,,414.70000000001164,,response,,,,100,,,,,,,Space,keypress(Space),,,,,,,,-- --- ---- --- ------ ----- ------- ---- -- --- ------- --<br>------- ---------- ------ -- ----- -- ----- -- ---- ------<br>--- ----- --- --- ------ -------- ----- --- ------ ----- --<br>----- bonds ---------- --- --- ------ ------ ---- -- ------<br>------- --- ------ ----- --- ---- ------- -- ---- --- --<br>------- ------,247429.19999992847,247427.5,246996.221,247009.5,247012.8,247446.135,,34,bonds
screen,html.Screen,2_1_1_1_35,2022-04-25T14:40:20.135Z,,,,,,,,,,,,,,,,,54,,,,,,,,,,,,,,435.8649999999907,,response,,,,100,,,,,,,Space,keypress(Space),,,,,,,,"-- --- ---- --- ------ ----- ------- ---- -- --- ------- --<br>------- ---------- ------ -- ----- -- ----- -- ---- ------<br>--- ----- --- --- ------ -------- ----- --- ------ ----- --<br>----- ----- plummeted, --- --- ------ ------ ---- -- ------<br>------- --- ------ ----- --- ---- ------- -- ---- --- --<br>------- ------",247883.79999995232,247882,247429.43,247429.5,247446.135,247896.327,,35,"plummeted,"
screen,html.Screen,2_1_1_1_36,2022-04-25T14:40:20.557Z,,,,,,,,,,,,,,,,,54,,,,,,,,,,,,,,408.3729999284842,,response,,,,100,,,,,,,Space,keypress(Space),,,,,,,,-- --- ---- --- ------ ----- ------- ---- -- --- ------- --<br>------- ---------- ------ -- ----- -- ----- -- ---- ------<br>--- ----- --- --- ------ -------- ----- --- ------ ----- --<br>----- ----- ---------- and --- ------ ------ ---- -- ------<br>------- --- ------ ----- --- ---- ------- -- ---- --- --<br>------- ------,248306,248304.69999992847,247879.454,247884.29999995232,247896.327,248312.937,,36,and
screen,html.Screen,2_1_1_1_37,2022-04-25T14:40:21.011Z,,,,,,,,,,,,,,,,,54,,,,,,,,,,,,,,445.4629999761528,,response,,,,100,,,,,,,Space,keypress(Space),,,,,,,,-- --- ---- --- ------ ----- ------- ---- -- --- ------- --<br>------- ---------- ------ -- ----- -- ----- -- ---- ------<br>--- ----- --- --- ------ -------- ----- --- ------ ----- --<br>----- ----- ---------- --- the ------ ------ ---- -- ------<br>------- --- ------ ----- --- ---- ------- -- ---- --- --<br>------- ------,248759.79999995232,248758.39999997616,248296.147,248306.5,248312.937,248762.776,,37,the
screen,html.Screen,2_1_1_1_38,2022-04-25T14:40:21.438Z,,,,,,,,,,,,,,,,,54,,,,,,,,,,,,,,423.12399997614557,,response,,,,100,,,,,,,Space,keypress(Space),,,,,,,,-- --- ---- --- ------ ----- ------- ---- -- --- ------- --<br>------- ---------- ------ -- ----- -- ----- -- ---- ------<br>--- ----- --- --- ------ -------- ----- --- ------ ----- --<br>----- ----- ---------- --- --- market ------ ---- -- ------<br>------- --- ------ ----- --- ---- ------- -- ---- --- --<br>------- ------,249187.19999992847,249185.89999997616,248746.168,248760.39999997616,248762.776,249196.565,,38,market
screen,html.Screen,2_1_1_1_39,2022-04-25T14:40:21.858Z,,,,,,,,,,,,,,,,,54,,,,,,,,,,,,,,408.9349999999977,,response,,,,100,,,,,,,Space,keypress(Space),,,,,,,,-- --- ---- --- ------ ----- ------- ---- -- --- ------- --<br>------- ---------- ------ -- ----- -- ----- -- ---- ------<br>--- ----- --- --- ------ -------- ----- --- ------ ----- --<br>----- ----- ---------- --- --- ------ became ---- -- ------<br>------- --- ------ ----- --- ---- ------- -- ---- --- --<br>------- ------,249607,249605.5,249179.474,249187.59999990463,249196.565,249613.488,,39,became
screen,html.Screen,2_1_1_1_40,2022-04-25T14:40:22.356Z,,,,,,,,,,,,,,,,,54,,,,,,,,,,,,,,490.41199997614603,,response,,,,100,,,,,,,Space,keypress(Space),,,,,,,,-- --- ---- --- ------ ----- ------- ---- -- --- ------- --<br>------- ---------- ------ -- ----- -- ----- -- ---- ------<br>--- ----- --- --- ------ -------- ----- --- ------ ----- --<br>----- ----- ---------- --- --- ------ ------ wary -- ------<br>------- --- ------ ----- --- ---- ------- -- ---- --- --<br>------- ------,250105.29999995232,250103.89999997616,249596.113,249607.39999997616,249613.488,250113.131,,40,wary
screen,html.Screen,2_1_1_1_41,2022-04-25T14:40:22.773Z,,,,,,,,,,,,,,,,,54,,,,,,,,,,,,,,408.0689999284805,,response,,,,100,,,,,,,Space,keypress(Space),,,,,,,,-- --- ---- --- ------ ----- ------- ---- -- --- ------- --<br>------- ---------- ------ -- ----- -- ----- -- ---- ------<br>--- ----- --- --- ------ -------- ----- --- ------ ----- --<br>----- ----- ---------- --- --- ------ ------ ---- of ------<br>------- --- ------ ----- --- ---- ------- -- ---- --- --<br>------- ------,250522.69999992847,250521.19999992847,250096.031,250105.69999992847,250113.131,250530.031,,41,of
screen,html.Screen,2_1_1_1_42,2022-04-25T14:40:23.198Z,,,,,,,,,,,,,,,,,54,,,,,,,,,,,,,,415.9690000000119,,response,,,,100,,,,,,,Space,keypress(Space),,,,,,,,-- --- ---- --- ------ ----- ------- ---- -- --- ------- --<br>------- ---------- ------ -- ----- -- ----- -- ---- ------<br>--- ----- --- --- ------ -------- ----- --- ------ ----- --<br>----- ----- ---------- --- --- ------ ------ ---- -- French<br>------- --- ------ ----- --- ---- ------- -- ---- --- --<br>------- ------,250947.39999997616,250946,250512.754,250523.19999992847,250530.031,250962.763,,42,French
screen,html.Screen,2_1_1_1_43,2022-04-25T14:40:23.610Z,,,,,,,,,,,,,,,,,54,,,,,,,,,,,,,,395.3369999046263,,response,,,,100,,,,,,,Space,keypress(Space),,,,,,,,-- --- ---- --- ------ ----- ------- ---- -- --- ------- --<br>------- ---------- ------ -- ----- -- ----- -- ---- ------<br>--- ----- --- --- ------ -------- ----- --- ------ ----- --<br>----- ----- ---------- --- --- ------ ------ ---- -- ------<br>credit. --- ------ ----- --- ---- ------- -- ---- --- --<br>------- ------,251359.59999990463,251358.09999990463,250946.107,250947.89999997616,250962.763,251362.653,,43,credit.
screen,html.Screen,2_1_1_1_44,2022-04-25T14:40:24.035Z,,,,,,,,,,,,,,,,,54,,,,,,,,,,,,,,419.64699995232513,,response,,,,100,,,,,,,Space,keypress(Space),,,,,,,,-- --- ---- --- ------ ----- ------- ---- -- --- ------- --<br>------- ---------- ------ -- ----- -- ----- -- ---- ------<br>--- ----- --- --- ------ -------- ----- --- ------ ----- --<br>----- ----- ---------- --- --- ------ ------ ---- -- ------<br>------- The ------ ----- --- ---- ------- -- ---- --- --<br>------- ------,251783.89999997616,251782.29999995232,251346.016,251360.19999992847,251362.653,251795.985,,44,The
screen,html.Screen,2_1_1_1_45,2022-04-25T14:40:24.444Z,,,,,,,,,,,,,,,,,54,,,,,,,,,,,,,,395.9149999761721,,response,,,,100,,,,,,,Space,keypress(Space),,,,,,,,-- --- ---- --- ------ ----- ------- ---- -- --- ------- --<br>------- ---------- ------ -- ----- -- ----- -- ---- ------<br>--- ----- --- --- ------ -------- ----- --- ------ ----- --<br>----- ----- ---------- --- --- ------ ------ ---- -- ------<br>------- --- French ----- --- ---- ------- -- ---- --- --<br>------- ------,252193.5,252191.89999997616,251779.258,251784.29999995232,251795.985,252196.145,,45,French
screen,html.Screen,2_1_1_1_46,2022-04-25T14:40:24.881Z,,,,,,,,,,,,,,,,,54,,,,,,,,,,,,,,432.8550000000105,,response,,,,100,,,,,,,Space,keypress(Space),,,,,,,,-- --- ---- --- ------ ----- ------- ---- -- --- ------- --<br>------- ---------- ------ -- ----- -- ----- -- ---- ------<br>--- ----- --- --- ------ -------- ----- --- ------ ----- --<br>----- ----- ---------- --- --- ------ ------ ---- -- ------<br>------- --- ------ state --- ---- ------- -- ---- --- --<br>------- ------,252630.29999995232,252629,252179.273,252193.89999997616,252196.145,252646.017,,46,state
screen,html.Screen,2_1_1_1_47,2022-04-25T14:40:25.330Z,,,,,,,,,,,,,,,,,54,,,,,,,,,,,,,,432.08299990464,,response,,,,100,,,,,,,Space,keypress(Space),,,,,,,,-- --- ---- --- ------ ----- ------- ---- -- --- ------- --<br>------- ---------- ------ -- ----- -- ----- -- ---- ------<br>--- ----- --- --- ------ -------- ----- --- ------ ----- --<br>----- ----- ---------- --- --- ------ ------ ---- -- ------<br>------- --- ------ ----- was ---- ------- -- ---- --- --<br>------- ------,253079.69999992847,253078.09999990463,252629.315,252630.79999995232,252646.017,253095.983,,47,was
screen,html.Screen,2_1_1_1_48,2022-04-25T14:40:25.727Z,,,,,,,,,,,,,,,,,54,,,,,,,,,,,,,,379.1169999046251,,response,,,,100,,,,,,,Space,keypress(Space),,,,,,,,-- --- ---- --- ------ ----- ------- ---- -- --- ------- --<br>------- ---------- ------ -- ----- -- ----- -- ---- ------<br>--- ----- --- --- ------ -------- ----- --- ------ ----- --<br>----- ----- ---------- --- --- ------ ------ ---- -- ------<br>------- --- ------ ----- --- left ------- -- ---- --- --<br>------- ------,253476.5,253475.09999990463,253079.241,253080.19999992847,253095.983,253479.206,,48,left
screen,html.Screen,2_1_1_1_49,2022-04-25T14:40:26.158Z,,,,,,,,,,,,,,,,,54,,,,,,,,,,,,,,426.99399992846884,,response,,,,100,,,,,,,Space,keypress(Space),,,,,,,,-- --- ---- --- ------ ----- ------- ---- -- --- ------- --<br>------- ---------- ------ -- ----- -- ----- -- ---- ------<br>--- ----- --- --- ------ -------- ----- --- ------ ----- --<br>----- ----- ---------- --- --- ------ ------ ---- -- ------<br>------- --- ------ ----- --- ---- without -- ---- --- --<br>------- ------,253907.59999990463,253906.19999992847,253462.572,253476.79999995232,253479.206,253912.562,,49,without
screen,html.Screen,2_1_1_1_50,2022-04-25T14:40:26.607Z,,,,,,,,,,,,,,,,,54,,,,,,,,,,,,,,442.5379999046272,,response,,,,100,,,,,,,Space,keypress(Space),,,,,,,,-- --- ---- --- ------ ----- ------- ---- -- --- ------- --<br>------- ---------- ------ -- ----- -- ----- -- ---- ------<br>--- ----- --- --- ------ -------- ----- --- ------ ----- --<br>----- ----- ---------- --- --- ------ ------ ---- -- ------<br>------- --- ------ ----- --- ---- ------- an ---- --- --<br>------- ------,254356.69999992847,254355.09999990463,253895.905,253908.19999992847,253912.562,254362.994,,50,an
screen,html.Screen,2_1_1_1_51,2022-04-25T14:40:26.995Z,,,,,,,,,,,,,,,,,54,,,,,,,,,,,,,,379.50599999999395,,response,,,,100,,,,,,,Space,keypress(Space),,,,,,,,-- --- ---- --- ------ ----- ------- ---- -- --- ------- --<br>------- ---------- ------ -- ----- -- ----- -- ---- ------<br>--- ----- --- --- ------ -------- ----- --- ------ ----- --<br>----- ----- ---------- --- --- ------ ------ ---- -- ------<br>------- --- ------ ----- --- ---- ------- -- easy --- --<br>------- ------,254744,254742.5,254345.963,254357,254362.994,254775.176,,51,easy
screen,html.Screen,2_1_1_1_52,2022-04-25T14:40:27.447Z,,,,,,,,,,,,,,,,,54,,,,,,,,,,,,,,419.4239999046258,,response,,,,100,,,,,,,Space,keypress(Space),,,,,,,,-- --- ---- --- ------ ----- ------- ---- -- --- ------- --<br>------- ---------- ------ -- ----- -- ----- -- ---- ------<br>--- ----- --- --- ------ -------- ----- --- ------ ----- --<br>----- ----- ---------- --- --- ------ ------ ---- -- ------<br>------- --- ------ ----- --- ---- ------- -- ---- way --<br>------- ------,255196.09999990463,255194.59999990463,254729.142,254744.39999997616,254775.176,255238.332,,52,way
screen,html.Screen,2_1_1_1_53,2022-04-25T14:40:27.871Z,,,,,,,,,,,,,,,,,54,,,,,,,,,,,,,,379.7679999046377,,response,,,,100,,,,,,,Space,keypress(Space),,,,,,,,-- --- ---- --- ------ ----- ------- ---- -- --- ------- --<br>------- ---------- ------ -- ----- -- ----- -- ---- ------<br>--- ----- --- --- ------ -------- ----- --- ------ ----- --<br>----- ----- ---------- --- --- ------ ------ ---- -- ------<br>------- --- ------ ----- --- ---- ------- -- ---- --- of<br>------- ------,255620,255618.09999990463,255195.728,255196.5,255238.332,255629.282,,53,of
screen,html.Screen,2_1_1_1_54,2022-04-25T14:40:28.319Z,,,,,,,,,,,,,,,,,54,,,,,,,,,,,,,,438.01799995230976,,response,,,,100,,,,,,,Space,keypress(Space),,,,,,,,-- --- ---- --- ------ ----- ------- ---- -- --- ------- --<br>------- ---------- ------ -- ----- -- ----- -- ---- ------<br>--- ----- --- --- ------ -------- ----- --- ------ ----- --<br>----- ----- ---------- --- --- ------ ------ ---- -- ------<br>------- --- ------ ----- --- ---- ------- -- ---- --- --<br>raising ------,256068.19999992847,256067.29999995232,255612.371,255620.39999997616,255629.282,256079.115,,54,raising
screen,html.Screen,2_1_1_1_55,2022-04-25T14:40:28.988Z,,,,,,,,,,,,,,,,,54,,,,,,,,,,,,,,656.9849999046419,,response,,,,100,,,,,,,Space,keypress(Space),,,,,,,,-- --- ---- --- ------ ----- ------- ---- -- --- ------- --<br>------- ---------- ------ -- ----- -- ----- -- ---- ------<br>--- ----- --- --- ------ -------- ----- --- ------ ----- --<br>----- ----- ---------- --- --- ------ ------ ---- -- ------<br>------- --- ------ ----- --- ---- ------- -- ---- --- --<br>------- money.,256737.5,256736.09999990463,256062.47,256068.29999995232,256079.115,256745.723,,55,money.
Item 100,flow.Loop,2_1_1_1,2022-04-25T14:40:28.989Z,,,,,,,,,,,,,,,,,,,,,,,,,,,,,,,27205.666999904643,,completion,,,,,A,,,,,,,,,,,silence,,,,,256738.39999997616,256736.09999990463,229513.684,229514.29999995232,229530.433,256745.723,,,
Question 1,html.Screen,2_1_1_2,2022-04-25T14:40:30.861Z,,,,,,,,,,,,,,,,,,,,,,,,,,,,true,TRUE,,1863.17699997616,,response,,,,100,A,,,,,,TRUE,click #choice-1,,,,silence,,,,,258609.79999995232,258608.89999997616,256729.092,256738.69999992847,256745.723,258612.23,,,
Question 2,html.Screen,2_1_1_3,2022-04-25T14:40:32.740Z,,,,,,,,,,,,,,,,,,,,,,,,,,,,true,FALSE,,1876.369999904622,,response,,,,100,A,,,,,,FALSE,click #choice-2,,,,silence,,,,,260489.59999990463,260488.59999990463,258595.668,258610,258612.23,260495.493,,,
Item 100,flow.Sequence,2_1_1,2022-04-25T14:40:32.741Z,,,,,,,,,,,,,,,,,,,,,,,,,,,,,,,40956.828999904625,,completion,,,,,,,,,,,,,,,,,,,,,260489.79999995232,260488.59999990463,219514.324,219530.29999995232,219531.771,260495.493,,,
End of Practice,html.Page,2_1_2,2022-04-25T14:40:34.885Z,,,,,,,,,,,,,,,,,,,,,,,,,,,,,,,2138.5070000000123,,form submission,,,,,,,,,,,,,,,,,,,,,262634.1999999285,262634,260478.782,260489.89999997616,260495.493,262645.487,,,
Practice,flow.Sequence,2_1,2022-04-25T14:40:34.885Z,,,,,,,,,,,,,,,,,,,,,,,,,,,,,,,93450.454,,completion,,,,,,,,,,,,,,,,,,,,,262634.39999997616,262634,168950.28,169043.69999992847,169183.546,262645.487,,,
Trap_instruction,html.Page,2_2_0,2022-04-25T14:40:38.325Z,,,,,,,,,,,,,,,,,,,,,,,,,,,,,,,3428.2129999284516,,form submission,,,,,,,,,,,,,,,,,,,,,266073.89999997616,266073.6999999285,262628.748,262634.5,262645.487,266495.257,,,
trap_trial,html.Screen,2_2_1,2022-04-25T14:40:42.197Z,,,,,,,,,,,,,,,,,,,,,,,,,,,,true,1,,3449.442999928491,,response,,,,,,,,,,,1,click #choice-1,,,,,,,,,269946,269944.6999999285,266061.892,266074.09999990463,266495.257,269994.971,,,
end of trap trial,html.Page,2_2_2,2022-04-25T14:40:43.709Z,,,,,,,,,,,,,,,,,,,,,,,,,,,,,,,1462.7289999284549,,form submission,,,,,,,,,,,,,,,,,,,,,271457.89999997616,271457.6999999285,269945.06,269946.1999999285,269994.971,271462.776,,,
Trap 1,flow.Sequence,2_2,2022-04-25T14:40:43.709Z,,,,,,,,,,,,,,,,,,,,,,,,,,,,,,,8812.212999928452,,completion,,,,,,,,,,,,,,,,,,,,,271458,271457.6999999285,262628.748,262634.5,262645.487,271462.776,,,
Standby,html.Page,2_3_0,2022-04-25T14:40:51.696Z,,,,,,,,,,,,,,,,,,,,,,,,,,,,,,,7998.4679999999935,,timeout,,,,,,,,,,,,,,,,,,,,,279445.6999999285,279444.543,271444.919,271458.1999999285,271462.776,279461.244,,,
Holding screen,html.Screen,2_3_1_0_0,2022-04-25T14:40:58.695Z,,,,,,,,,,,,,,,,,,,,,,,,,,,,,,,6999.631999999983,,timeout,,,,,,,,,,,,,,,,,,,,,286444.7999999523,286444.195,279444.543,279446.1999999285,279461.244,286460.876,,,
screen,html.Screen,2_3_1_0_1_0,2022-04-25T14:41:05.696Z,,,,,,,,,,,,,,,,,19,,,,,,,,,,,,,,6999.7360000000335,,timeout,,,,17,A,,,,,,,,,,,silence,,,,"Interestingly, --- -------- -------- ---------- ---- -------<br>-- ---------- -- --- ----- ------ ----- ---- --------- ----<br>------- ------ -------- -- ------ ---------- ------ ---<br>------ -- -- ---- -- ---------- -------- ------ ---- -------<br>---- --- --------- ------- ----- --------- ---- ----- --<br>------ -------- -- ------ -- ---- ------------",293445,293443.991,286444.195,286445,286460.876,293460.612,,0,"Interestingly,"
screen,html.Screen,2_3_1_0_1_1,2022-04-25T14:41:12.695Z,,,,,,,,,,,,,,,,,19,,,,,,,,,,,,,,6999.592000000004,,timeout,,,,17,A,,,,,,,,,,,silence,,,,-------------- the -------- -------- ---------- ---- -------<br>-- ---------- -- --- ----- ------ ----- ---- --------- ----<br>------- ------ -------- -- ------ ---------- ------ ---<br>------ -- -- ---- -- ---------- -------- ------ ---- -------<br>---- --- --------- ------- ----- --------- ---- ----- --<br>------ -------- -- ------ -- ---- ------------,300444.09999990463,300443.523,293443.991,293445.2999999523,293460.612,300460.204,,1,the
screen,html.Screen,2_3_1_0_1_2,2022-04-25T14:41:15.953Z,,,,,,,,,,,,,,,,,19,,,,,,,,,,,,,,3240.4959999284474,,response,,,,17,A,,,,,,Space,keypress(Space),,,,silence,,,,-------------- --- heaviest -------- ---------- ---- -------<br>-- ---------- -- --- ----- ------ ----- ---- --------- ----<br>------- ------ -------- -- ------ ---------- ------ ---<br>------ -- -- ---- -- ---------- -------- ------ ---- -------<br>---- --- --------- ------- ----- --------- ---- ----- --<br>------ -------- -- ------ -- ---- ------------,303702.7999999523,303700.6999999285,300443.523,300444.2999999523,300460.204,303710.165,,2,heaviest
screen,html.Screen,2_3_1_0_1_3,2022-04-25T14:41:16.463Z,,,,,,,,,,,,,,,,,19,,,,,,,,,,,,,,502.13499995233724,,response,,,,17,A,,,,,,Space,keypress(Space),,,,silence,,,,-------------- --- -------- isotopes ---------- ---- -------<br>-- ---------- -- --- ----- ------ ----- ---- --------- ----<br>------- ------ -------- -- ------ ---------- ------ ---<br>------ -- -- ---- -- ---------- -------- ------ ---- -------<br>---- --- --------- ------- ----- --------- ---- ----- --<br>------ -------- -- ------ -- ---- ------------,304213.1999999285,304212.2999999523,303693.282,303703.09999990463,303710.165,304226.763,,3,isotopes
screen,html.Screen,2_3_1_0_1_4,2022-04-25T14:41:17.001Z,,,,,,,,,,,,,,,,,19,,,,,,,,,,,,,,522.8369999046554,,response,,,,17,A,,,,,,Space,keypress(Space),,,,silence,,,,-------------- --- -------- -------- physicists ---- -------<br>-- ---------- -- --- ----- ------ ----- ---- --------- ----<br>------- ------ -------- -- ------ ---------- ------ ---<br>------ -- -- ---- -- ---------- -------- ------ ---- -------<br>---- --- --------- ------- ----- --------- ---- ----- --<br>------ -------- -- ------ -- ---- ------------,304751.1999999285,304749.59999990463,304210.254,304213.2999999523,304226.763,304760.56,,4,physicists
screen,html.Screen,2_3_1_0_1_5,2022-04-25T14:41:17.515Z,,,,,,,,,,,,,,,,,19,,,,,,,,,,,,,,503.7399999523186,,response,,,,17,A,,,,,,Space,keypress(Space),,,,silence,,,,-------------- --- -------- -------- ---------- have -------<br>-- ---------- -- --- ----- ------ ----- ---- --------- ----<br>------- ------ -------- -- ------ ---------- ------ ---<br>------ -- -- ---- -- ---------- -------- ------ ---- -------<br>---- --- --------- ------- ----- --------- ---- ----- --<br>------ -------- -- ------ -- ---- ------------,305265.1999999285,305264.2999999523,304743.306,304751.5,304760.56,305276.646,,5,have
screen,html.Screen,2_3_1_0_1_6,2022-04-25T14:41:17.970Z,,,,,,,,,,,,,,,,,19,,,,,,,,,,,,,,441.65399995230837,,response,,,,17,A,,,,,,Space,keypress(Space),,,,silence,,,,-------------- --- -------- -------- ---------- ---- managed<br>-- ---------- -- --- ----- ------ ----- ---- --------- ----<br>------- ------ -------- -- ------ ---------- ------ ---<br>------ -- -- ---- -- ---------- -------- ------ ---- -------<br>---- --- --------- ------- ----- --------- ---- ----- --<br>------ -------- -- ------ -- ---- ------------,305719.5,305718.2999999523,305260.086,305265.2999999523,305276.646,305726.652,,6,managed
screen,html.Screen,2_3_1_0_1_7,2022-04-25T14:41:18.397Z,,,,,,,,,,,,,,,,,19,,,,,,,,,,,,,,418.6479999523144,,response,,,,17,A,,,,,,Space,keypress(Space),,,,silence,,,,-------------- --- -------- -------- ---------- ---- -------<br>to ---------- -- --- ----- ------ ----- ---- --------- ----<br>------- ------ -------- -- ------ ---------- ------ ---<br>------ -- -- ---- -- ---------- -------- ------ ---- -------<br>---- --- --------- ------- ----- --------- ---- ----- --<br>------ -------- -- ------ -- ---- ------------,306147,306145.2999999523,305709.925,305719.6999999285,305726.652,306159.99,,7,to
screen,html.Screen,2_3_1_0_1_8,2022-04-25T14:41:18.808Z,,,,,,,,,,,,,,,,,19,,,,,,,,,,,,,,395.90999997616746,,response,,,,17,A,,,,,,Space,keypress(Space),,,,silence,,,,-------------- --- -------- -------- ---------- ---- -------<br>-- synthesize -- --- ----- ------ ----- ---- --------- ----<br>------- ------ -------- -- ------ ---------- ------ ---<br>------ -- -- ---- -- ---------- -------- ------ ---- -------<br>---- --- --------- ------- ----- --------- ---- ----- --<br>------ -------- -- ------ -- ---- ------------,306557.2999999523,306555.89999997616,306143.382,306147.1999999285,306159.99,306560.03,,8,synthesize
screen,html.Screen,2_3_1_0_1_9,2022-04-25T14:41:19.283Z,,,,,,,,,,,,,,,,,19,,,,,,,,,,,,,,471.26999995228834,,response,,,,17,A,,,,,,Space,keypress(Space),,,,silence,,,,-------------- --- -------- -------- ---------- ---- -------<br>-- ---------- so --- ----- ------ ----- ---- --------- ----<br>------- ------ -------- -- ------ ---------- ------ ---<br>------ -- -- ---- -- ---------- -------- ------ ---- -------<br>---- --- --------- ------- ----- --------- ---- ----- --<br>------ -------- -- ------ -- ---- ------------,307032.89999997616,307031.2999999523,306543.262,306557.59999990463,306560.03,307043.34,,9,so
screen,html.Screen,2_3_1_0_1_10,2022-04-25T14:41:19.702Z,,,,,,,,,,,,,,,,,19,,,,,,,,,,,,,,407.3599999284488,,response,,,,17,A,,,,,,Space,keypress(Space),,,,silence,,,,-------------- --- -------- -------- ---------- ---- -------<br>-- ---------- -- far ----- ------ ----- ---- --------- ----<br>------- ------ -------- -- ------ ---------- ------ ---<br>------ -- -- ---- -- ---------- -------- ------ ---- -------<br>---- --- --------- ------- ----- --------- ---- ----- --<br>------ -------- -- ------ -- ---- ------------,307452.1999999285,307450.6999999285,307026.655,307033.2999999523,307043.34,307460.41,,10,far
screen,html.Screen,2_3_1_0_1_11,2022-04-25T14:41:20.112Z,,,,,,,,,,,,,,,,,19,,,,,,,,,,,,,,399.8899999523419,,response,,,,17,A,,,,,,Space,keypress(Space),,,,silence,,,,-------------- --- -------- -------- ---------- ---- -------<br>-- ---------- -- --- don't ------ ----- ---- --------- ----<br>------- ------ -------- -- ------ ---------- ------ ---<br>------ -- -- ---- -- ---------- -------- ------ ---- -------<br>---- --- --------- ------- ----- --------- ---- ----- --<br>------ -------- -- ------ -- ---- ------------,307861.89999997616,307860.2999999523,307443.297,307452.39999997616,307460.41,307876.613,,11,don't
screen,html.Screen,2_3_1_0_1_12,2022-04-25T14:41:20.654Z,,,,,,,,,,,,,,,,,19,,,,,,,,,,,,,,525.9869999046205,,response,,,,17,A,,,,,,Space,keypress(Space),,,,silence,,,,-------------- --- -------- -------- ---------- ---- -------<br>-- ---------- -- --- ----- behave ----- ---- --------- ----<br>------- ------ -------- -- ------ ---------- ------ ---<br>------ -- -- ---- -- ---------- -------- ------ ---- -------<br>---- --- --------- ------- ----- --------- ---- ----- --<br>------ -------- -- ------ -- ---- ------------,308403.5,308402.59999990463,307860.765,307862.2999999523,307876.613,308409.833,,12,behave
screen,html.Screen,2_3_1_0_1_13,2022-04-25T14:41:21.108Z,,,,,,,,,,,,,,,,,19,,,,,,,,,,,,,,446.2669999046484,,response,,,,17,A,,,,,,Space,keypress(Space),,,,silence,,,,-------------- --- -------- -------- ---------- ---- -------<br>-- ---------- -- --- ----- ------ quite ---- --------- ----<br>------- ------ -------- -- ------ ---------- ------ ---<br>------ -- -- ---- -- ---------- -------- ------ ---- -------<br>---- --- --------- ------- ----- --------- ---- ----- --<br>------ -------- -- ------ -- ---- ------------,308857.39999997616,308856.09999990463,308393.225,308403.6999999285,308409.833,308859.86,,13,quite
screen,html.Screen,2_3_1_0_1_14,2022-04-25T14:41:21.519Z,,,,,,,,,,,,,,,,,19,,,,,,,,,,,,,,407.8399999284884,,response,,,,17,A,,,,,,Space,keypress(Space),,,,silence,,,,-------------- --- -------- -------- ---------- ---- -------<br>-- ---------- -- --- ----- ------ ----- like --------- ----<br>------- ------ -------- -- ------ ---------- ------ ---<br>------ -- -- ---- -- ---------- -------- ------ ---- -------<br>---- --- --------- ------- ----- --------- ---- ----- --<br>------ -------- -- ------ -- ---- ------------,309269.1999999285,309267.6999999285,308843.117,308857.6999999285,308859.86,309276.66,,14,like
screen,html.Screen,2_3_1_0_1_15,2022-04-25T14:41:21.976Z,,,,,,,,,,,,,,,,,19,,,,,,,,,,,,,,447.23999997618375,,response,,,,17,A,,,,,,Space,keypress(Space),,,,silence,,,,-------------- --- -------- -------- ---------- ---- -------<br>-- ---------- -- --- ----- ------ ----- ---- science's ----<br>------- ------ -------- -- ------ ---------- ------ ---<br>------ -- -- ---- -- ---------- -------- ------ ---- -------<br>---- --- --------- ------- ----- --------- ---- ----- --<br>------ -------- -- ------ -- ---- ------------,309725.2999999523,309723.89999997616,309259.906,309269.5,309276.66,309759.908,,15,science's
screen,html.Screen,2_3_1_0_1_16,2022-04-25T14:41:22.429Z,,,,,,,,,,,,,,,,,19,,,,,,,,,,,,,,417.2919999284786,,response,,,,17,A,,,,,,Space,keypress(Space),,,,silence,,,,-------------- --- -------- -------- ---------- ---- -------<br>-- ---------- -- --- ----- ------ ----- ---- --------- best<br>------- ------ -------- -- ------ ---------- ------ ---<br>------ -- -- ---- -- ---------- -------- ------ ---- -------<br>---- --- --------- ------- ----- --------- ---- ----- --<br>------ -------- -- ------ -- ---- ------------,310178.59999990463,310177.1999999285,309743.272,309725.6999999285,309759.908,310193.334,,16,best
screen,html.Screen,2_3_1_0_1_17,2022-04-25T14:41:22.855Z,,,,,,,,,,,,,,,,,19,,,,,,,,,,,,,,410.5659999761847,,response,,,,17,A,,,,,,Space,keypress(Space),,,,silence,,,,-------------- --- -------- -------- ---------- ---- -------<br>-- ---------- -- --- ----- ------ ----- ---- --------- ----<br>current ------ -------- -- ------ ---------- ------ ---<br>------ -- -- ---- -- ---------- -------- ------ ---- -------<br>---- --- --------- ------- ----- --------- ---- ----- --<br>------ -------- -- ------ -- ---- ------------,310605.1999999285,310603.89999997616,310176.477,310179,310193.334,310610.054,,17,current
screen,html.Screen,2_3_1_0_1_18,2022-04-25T14:41:23.274Z,,,,,,,,,,,,,,,,,19,,,,,,,,,,,,,,412.24599995231256,,response,,,,17,A,,,,,,Space,keypress(Space),,,,silence,,,,-------------- --- -------- -------- ---------- ---- -------<br>-- ---------- -- --- ----- ------ ----- ---- --------- ----<br>------- models -------- -- ------ ---------- ------ ---<br>------ -- -- ---- -- ---------- -------- ------ ---- -------<br>---- --- --------- ------- ----- --------- ---- ----- --<br>------ -------- -- ------ -- ---- ------------,311023.89999997616,311022.2999999523,310593.147,310605.6999999285,310610.054,311026.425,,18,models
screen,html.Screen,2_3_1_0_1_19,2022-04-25T14:41:23.713Z,,,,,,,,,,,,,,,,,19,,,,,,,,,,,,,,435.27499992848607,,response,,,,17,A,,,,,,Space,keypress(Space),,,,silence,,,,"-------------- --- -------- -------- ---------- ---- -------<br>-- ---------- -- --- ----- ------ ----- ---- --------- ----<br>------- ------ predict, -- ------ ---------- ------ ---<br>------ -- -- ---- -- ---------- -------- ------ ---- -------<br>---- --- --------- ------- ----- --------- ---- ----- --<br>------ -------- -- ------ -- ---- ------------",311463,311461.6999999285,311009.832,311024.1999999285,311026.425,311476.453,,19,"predict,"
screen,html.Screen,2_3_1_0_1_20,2022-04-25T14:41:24.130Z,,,,,,,,,,,,,,,,,19,,,,,,,,,,,,,,401.44699997617863,,response,,,,17,A,,,,,,Space,keypress(Space),,,,silence,,,,-------------- --- -------- -------- ---------- ---- -------<br>-- ---------- -- --- ----- ------ ----- ---- --------- ----<br>------- ------ -------- so ------ ---------- ------ ---<br>------ -- -- ---- -- ---------- -------- ------ ---- -------<br>---- --- --------- ------- ----- --------- ---- ----- --<br>------ -------- -- ------ -- ---- ------------,311879.5,311877.89999997616,311459.801,311463.5,311476.453,311893.085,,20,so
screen,html.Screen,2_3_1_0_1_21,2022-04-25T14:41:24.479Z,,,,,,,,,,,,,,,,,19,,,,,,,,,,,,,,334.61499992845347,,response,,,,17,A,,,,,,Space,keypress(Space),,,,silence,,,,-------------- --- -------- -------- ---------- ---- -------<br>-- ---------- -- --- ----- ------ ----- ---- --------- ----<br>------- ------ -------- -- stable ---------- ------ ---<br>------ -- -- ---- -- ---------- -------- ------ ---- -------<br>---- --- --------- ------- ----- --------- ---- ----- --<br>------ -------- -- ------ -- ---- ------------,312229.09999990463,312227.6999999285,311876.317,311880.09999990463,311893.085,312243.209,,21,stable
screen,html.Screen,2_3_1_0_1_22,2022-04-25T14:41:24.969Z,,,,,,,,,,,,,,,,,19,,,,,,,,,,,,,,473.6909999761847,,response,,,,17,A,,,,,,Space,keypress(Space),,,,silence,,,,-------------- --- -------- -------- ---------- ---- -------<br>-- ---------- -- --- ----- ------ ----- ---- --------- ----<br>------- ------ -------- -- ------ superheavy ------ ---<br>------ -- -- ---- -- ---------- -------- ------ ---- -------<br>---- --- --------- ------- ----- --------- ---- ----- --<br>------ -------- -- ------ -- ---- ------------,312718.5,312716.89999997616,312226.41,312235.39999997616,312243.209,312726.369,,22,superheavy
screen,html.Screen,2_3_1_0_1_23,2022-04-25T14:41:25.385Z,,,,,,,,,,,,,,,,,19,,,,,,,,,,,,,,407.0309999761521,,response,,,,17,A,,,,,,Space,keypress(Space),,,,silence,,,,-------------- --- -------- -------- ---------- ---- -------<br>-- ---------- -- --- ----- ------ ----- ---- --------- ----<br>------- ------ -------- -- ------ ---------- nuclei ---<br>------ -- -- ---- -- ---------- -------- ------ ---- -------<br>---- --- --------- ------- ----- --------- ---- ----- --<br>------ -------- -- ------ -- ---- ------------,313134.89999997616,313133.39999997616,312709.785,312718.89999997616,312726.369,313143.01,,23,nuclei
screen,html.Screen,2_3_1_0_1_24,2022-04-25T14:41:25.837Z,,,,,,,,,,,,,,,,,19,,,,,,,,,,,,,,442.4899999999907,,response,,,,17,A,,,,,,Space,keypress(Space),,,,silence,,,,-------------- --- -------- -------- ---------- ---- -------<br>-- ---------- -- --- ----- ------ ----- ---- --------- ----<br>------- ------ -------- -- ------ ---------- ------ are<br>------ -- -- ---- -- ---------- -------- ------ ---- -------<br>---- --- --------- ------- ----- --------- ---- ----- --<br>------ -------- -- ------ -- ---- ------------,313587.1999999285,313585.5,313126.403,313135.2999999523,313143.01,313593.534,,24,are
screen,html.Screen,2_3_1_0_1_25,2022-04-25T14:41:26.603Z,,,,,,,,,,,,,,,,,19,,,,,,,,,,,,,,756.1659999284893,,response,,,,17,A,,,,,,Space,keypress(Space),,,,silence,,,,-------------- --- -------- -------- ---------- ---- -------<br>-- ---------- -- --- ----- ------ ----- ---- --------- ----<br>------- ------ -------- -- ------ ---------- ------ ---<br>likely -- -- ---- -- ---------- -------- ------ ---- -------<br>---- --- --------- ------- ----- --------- ---- ----- --<br>------ -------- -- ------ -- ---- ------------,314352.6999999285,314349.6999999285,313576.361,313587.5,313593.534,314363.007,,25,likely
screen,html.Screen,2_3_1_0_1_26,2022-04-25T14:41:26.974Z,,,,,,,,,,,,,,,,,19,,,,,,,,,,,,,,359.6929999284912,,response,,,,17,A,,,,,,Space,keypress(Space),,,,silence,,,,-------------- --- -------- -------- ---------- ---- -------<br>-- ---------- -- --- ----- ------ ----- ---- --------- ----<br>------- ------ -------- -- ------ ---------- ------ ---<br>------ to -- ---- -- ---------- -------- ------ ---- -------<br>---- --- --------- ------- ----- --------- ---- ----- --<br>------ -------- -- ------ -- ---- ------------,314723.5,314722.6999999285,314342.985,314352.89999997616,314363.007,314727.28,,26,to
screen,html.Screen,2_3_1_0_1_27,2022-04-25T14:41:27.324Z,,,,,,,,,,,,,,,,,19,,,,,,,,,,,,,,345.1199999761302,,response,,,,17,A,,,,,,Space,keypress(Space),,,,silence,,,,-------------- --- -------- -------- ---------- ---- -------<br>-- ---------- -- --- ----- ------ ----- ---- --------- ----<br>------- ------ -------- -- ------ ---------- ------ ---<br>------ -- be ---- -- ---------- -------- ------ ---- -------<br>---- --- --------- ------- ----- --------- ---- ----- --<br>------ -------- -- ------ -- ---- ------------,315073.89999997616,315072.39999997616,314709.527,314723.7999999523,314727.28,315076.46,,27,be
screen,html.Screen,2_3_1_0_1_28,2022-04-25T14:41:27.681Z,,,,,,,,,,,,,,,,,19,,,,,,,,,,,,,,353.23999992845347,,response,,,,17,A,,,,,,Space,keypress(Space),,,,silence,,,,-------------- --- -------- -------- ---------- ---- -------<br>-- ---------- -- --- ----- ------ ----- ---- --------- ----<br>------- ------ -------- -- ------ ---------- ------ ---<br>------ -- -- full -- ---------- -------- ------ ---- -------<br>---- --- --------- ------- ----- --------- ---- ----- --<br>------ -------- -- ------ -- ---- ------------,315431.1999999285,315429.6999999285,315059.495,315074.5,315076.46,315442.926,,28,full
screen,html.Screen,2_3_1_0_1_29,2022-04-25T14:41:28.463Z,,,,,,,,,,,,,,,,,19,,,,,,,,,,,,,,768.4739999761805,,response,,,,17,A,,,,,,Space,keypress(Space),,,,silence,,,,-------------- --- -------- -------- ---------- ---- -------<br>-- ---------- -- --- ----- ------ ----- ---- --------- ----<br>------- ------ -------- -- ------ ---------- ------ ---<br>------ -- -- ---- of ---------- -------- ------ ---- -------<br>---- --- --------- ------- ----- --------- ---- ----- --<br>------ -------- -- ------ -- ---- ------------,316212.5,316211.39999997616,315426.288,315431.5,315442.926,316226.238,,29,of
screen,html.Screen,2_3_1_0_1_30,2022-04-25T14:41:28.909Z,,,,,,,,,,,,,,,,,19,,,,,,,,,,,,,,431.86199990462046,,response,,,,17,A,,,,,,Space,keypress(Space),,,,silence,,,,-------------- --- -------- -------- ---------- ---- -------<br>-- ---------- -- --- ----- ------ ----- ---- --------- ----<br>------- ------ -------- -- ------ ---------- ------ ---<br>------ -- -- ---- -- surprises. -------- ------ ---- -------<br>---- --- --------- ------- ----- --------- ---- ----- --<br>------ -------- -- ------ -- ---- ------------,316658.89999997616,316658.09999990463,316209.528,316212.6999999285,316226.238,316692.779,,30,surprises.
screen,html.Screen,2_3_1_0_1_31,2022-04-25T14:41:29.281Z,,,,,,,,,,,,,,,,,19,,,,,,,,,,,,,,337.1209999761777,,response,,,,17,A,,,,,,Space,keypress(Space),,,,silence,,,,-------------- --- -------- -------- ---------- ---- -------<br>-- ---------- -- --- ----- ------ ----- ---- --------- ----<br>------- ------ -------- -- ------ ---------- ------ ---<br>------ -- -- ---- -- ---------- Chemists ------ ---- -------<br>---- --- --------- ------- ----- --------- ---- ----- --<br>------ -------- -- ------ -- ---- ------------,317030.6999999285,317029.89999997616,316676.103,316659.09999990463,316692.779,317042.777,,31,Chemists
screen,html.Screen,2_3_1_0_1_32,2022-04-25T14:41:29.671Z,,,,,,,,,,,,,,,,,19,,,,,,,,,,,,,,376.1229999761563,,response,,,,17,A,,,,,,Space,keypress(Space),,,,silence,,,,-------------- --- -------- -------- ---------- ---- -------<br>-- ---------- -- --- ----- ------ ----- ---- --------- ----<br>------- ------ -------- -- ------ ---------- ------ ---<br>------ -- -- ---- -- ---------- -------- cannot ---- -------<br>---- --- --------- ------- ----- --------- ---- ----- --<br>------ -------- -- ------ -- ---- ------------,317420.2999999523,317418.89999997616,317026.065,317031,317042.777,317426.976,,32,cannot
screen,html.Screen,2_3_1_0_1_33,2022-04-25T14:41:30.091Z,,,,,,,,,,,,,,,,,19,,,,,,,,,,,,,,411.82399995229207,,response,,,,17,A,,,,,,Space,keypress(Space),,,,silence,,,,-------------- --- -------- -------- ---------- ---- -------<br>-- ---------- -- --- ----- ------ ----- ---- --------- ----<br>------- ------ -------- -- ------ ---------- ------ ---<br>------ -- -- ---- -- ---------- -------- ------ even -------<br>---- --- --------- ------- ----- --------- ---- ----- --<br>------ -------- -- ------ -- ---- ------------,317840.2999999523,317838.7999999523,317409.492,317420.6999999285,317426.976,317842.737,,33,even
screen,html.Screen,2_3_1_0_1_34,2022-04-25T14:41:30.511Z,,,,,,,,,,,,,,,,,19,,,,,,,,,,,,,,416.7629999999772,,response,,,,17,A,,,,,,Space,keypress(Space),,,,silence,,,,-------------- --- -------- -------- ---------- ---- -------<br>-- ---------- -- --- ----- ------ ----- ---- --------- ----<br>------- ------ -------- -- ------ ---------- ------ ---<br>------ -- -- ---- -- ---------- -------- ------ ---- predict<br>---- --- --------- ------- ----- --------- ---- ----- --<br>------ -------- -- ------ -- ---- ------------,318260.2999999523,318259.5,317826.175,317840.6999999285,317842.737,318276.05,,34,predict
screen,html.Screen,2_3_1_0_1_35,2022-04-25T14:41:30.892Z,,,,,,,,,,,,,,,,,19,,,,,,,,,,,,,,365.0499999046442,,response,,,,17,A,,,,,,Space,keypress(Space),,,,silence,,,,-------------- --- -------- -------- ---------- ---- -------<br>-- ---------- -- --- ----- ------ ----- ---- --------- ----<br>------- ------ -------- -- ------ ---------- ------ ---<br>------ -- -- ---- -- ---------- -------- ------ ---- -------<br>with --- --------- ------- ----- --------- ---- ----- --<br>------ -------- -- ------ -- ---- ------------,318642.09999990463,318641.09999990463,318259.348,318260.39999997616,318276.05,318659.368,,35,with
screen,html.Screen,2_3_1_0_1_36,2022-04-25T14:41:31.302Z,,,,,,,,,,,,,,,,,19,,,,,,,,,,,,,,391.9319999522995,,response,,,,17,A,,,,,,Space,keypress(Space),,,,silence,,,,-------------- --- -------- -------- ---------- ---- -------<br>-- ---------- -- --- ----- ------ ----- ---- --------- ----<br>------- ------ -------- -- ------ ---------- ------ ---<br>------ -- -- ---- -- ---------- -------- ------ ---- -------<br>---- any --------- ------- ----- --------- ---- ----- --<br>------ -------- -- ------ -- ---- ------------,319052.1999999285,319051.2999999523,318642.657,318642.2999999523,318659.368,319059.339,,36,any
screen,html.Screen,2_3_1_0_1_37,2022-04-25T14:41:31.732Z,,,,,,,,,,,,,,,,,19,,,,,,,,,,,,,,421.8609999284963,,response,,,,17,A,,,,,,Space,keypress(Space),,,,silence,,,,-------------- --- -------- -------- ---------- ---- -------<br>-- ---------- -- --- ----- ------ ----- ---- --------- ----<br>------- ------ -------- -- ------ ---------- ------ ---<br>------ -- -- ---- -- ---------- -------- ------ ---- -------<br>---- --- certainty ------- ----- --------- ---- ----- --<br>------ -------- -- ------ -- ---- ------------,319482.09999990463,319481.1999999285,319042.666,319052.39999997616,319059.339,319492.666,,37,certainty
screen,html.Screen,2_3_1_0_1_38,2022-04-25T14:41:32.272Z,,,,,,,,,,,,,,,,,19,,,,,,,,,,,,,,528.6339999522897,,response,,,,17,A,,,,,,Space,keypress(Space),,,,silence,,,,-------------- --- -------- -------- ---------- ---- -------<br>-- ---------- -- --- ----- ------ ----- ---- --------- ----<br>------- ------ -------- -- ------ ---------- ------ ---<br>------ -- -- ---- -- ---------- -------- ------ ---- -------<br>---- --- --------- whether ----- --------- ---- ----- --<br>------ -------- -- ------ -- ---- ------------,320022.1999999285,320021.2999999523,319475.954,319482.2999999523,319492.666,320025.957,,38,whether
