sender,sender_type,sender_id,timestamp,meta,,Blues,Classical,Country,Dance,Electronic,Folk,Gospel,Hip-Hop,Jazz,Latin,Musical/Film,New-age,Pop,Prolific_id,Provo_ID,R&B,Rap,Reggae,Religious,Rock,Soul,Swing,Traditional,age,artist_name,correct,correctResponse,distraction,duration,education,ended_on,familiarity,gender,headphone_check_performance,item,list,music_frequency,offensiveness,pleasantness,position_correct,preference,response,response_action,snippet_file,song_name,song_rating,sound,stimulus_1,stimulus_2,stimulus_3,text,time_commit,time_end,time_render,time_run,time_show,time_switch,url,word,word_ID
Prolific ID,html.Form,0,2022-05-02T11:01:35.649Z,"{""labjs_version"":""20.2.2"",""labjs_build"":{""flavor"":""production"",""commit"":""a25486e0c714a0ae2ce03ff94b7bb6896854dcfa""},""location"":""https://run.pavlovia.org/mvasilev/prolific3_music_e/"",""userAgent"":""Mozilla/5.0 (Windows NT 10.0; Win64; x64) AppleWebKit/537.36 (KHTML, like Gecko) Chrome/100.0.4896.127 Safari/537.36"",""platform"":""Win32"",""language"":""en-GB"",""locale"":""en-GB"",""timeZone"":""Europe/London"",""timezoneOffset"":-60,""screen_width"":1280,""screen_height"":720,""scroll_width"":1280,""scroll_height"":561,""window_innerWidth"":1280,""window_innerHeight"":609,""devicePixelRatio"":1.5}",,,,,,,,,,,,,,,5f81cf89624ff22aadd9c9a7,,,,,,,,,,,,,,,9105.868999999257,,form submission,,,,,,,,,,,,,,,,,,,,,44699.59999999963,44698.699999999255,35540.412,35548.09999999963,35592.831,44719.426,{},,
Introduction,html.Screen,1_0,2022-05-02T11:01:39.170Z,,,,,,,,,,,,,,,,,,,,,,,,,,,,,,,3498.673999999628,,response,,,,,,,,,,,continue,click button,,,,,,,,,48221,48218.09999999963,44684.702,44700.199999999255,44719.426,48226.994,,,
Volume calibration,html.Screen,1_1,2022-05-02T11:02:07.037Z,,,,,,,,,,,,,,,,,,,,,,,,,,,,,,,27854.60599999963,,response,,,,,,,,,,,continue,click button,,,,,,,,,76088,76081.59999999963,48209.618,48221.299999999814,48226.994,76095.237,,,
Task instructions,html.Screen,1_2,2022-05-02T11:02:19.374Z,,,,,,,,,,,,,,,,,,,,,,,,,,,,,,,12327.763000000006,,response,,,,,,,,,,,continue,click button,,,,,,,,,88424.89999999944,88423,76077.893,76088.39999999944,76095.237,88432.685,,,
Sounds,html.Screen,1_3_0_0,2022-05-02T11:02:23.626Z,,,,,,,,,,,,,,,,,,,,,,,,,,,,,,,4257.850999999995,,timeout,,,,,,,,,1,,,,,,,,S,O,I,,92676.89999999944,92673.237,88415.349,88425.29999999981,88432.685,92690.536,,,
Judgement,html.Screen,1_3_0_1,2022-05-02T11:02:26.179Z,,,,,,,,,,,,,,,,,,,,,,,,,,,,true,1,,2536.663999999262,,response,,,,,,,,,1,,1,click #choice-1,,,,,S,O,I,,95229.89999999944,95227.19999999925,92673.237,92677.19999999925,92690.536,95238.279,,,
Trial,flow.Sequence,1_3_0,2022-05-02T11:02:26.180Z,,,,,,,,,,,,,,,,,,,,,,,,,,,,,,,6794.514999999257,,completion,,,,,,,,,1,,,,,,,,S,O,I,,95230.39999999944,95227.19999999925,88415.349,88425.19999999925,88432.685,95238.279,,,
Sounds,html.Screen,1_3_1_0,2022-05-02T11:02:30.429Z,,,,,,,,,,,,,,,,,,,,,,,,,,,,,,,4258.047000000006,,timeout,,,,,,,,,2,,,,,,,,I,S,O,,99480.09999999963,99478.86,95220.966,95230.89999999944,95238.279,99496.326,,,
Judgement,html.Screen,1_3_1_1,2022-05-02T11:02:31.349Z,,,,,,,,,,,,,,,,,,,,,,,,,,,,true,2,,900.7739999996265,,response,,,,,,,,,2,,2,click #choice-2,,,,,I,S,O,,100399.5,100397.09999999963,99478.86,99480.29999999981,99496.326,100403.572,,,
Trial,flow.Sequence,1_3_1,2022-05-02T11:02:31.349Z,,,,,,,,,,,,,,,,,,,,,,,,,,,,,,,5158.8209999996325,,completion,,,,,,,,,2,,,,,,,,I,S,O,,100400.09999999963,100397.09999999963,95220.966,95230.59999999963,95238.279,100403.572,,,
Sounds,html.Screen,1_3_2_0,2022-05-02T11:02:35.595Z,,,,,,,,,,,,,,,,,,,,,,,,,,,,,,,4258.070999999996,,timeout,,,,,,,,,3,,,,,,,,O,I,S,,104645.59999999963,104644.115,100386.283,100400.59999999963,100403.572,104661.643,,,
Judgement,html.Screen,1_3_2_1,2022-05-02T11:02:36.459Z,,,,,,,,,,,,,,,,,,,,,,,,,,,,true,3,,845.6569999998173,,response,,,,,,,,,3,,3,click #choice-3,,,,,O,I,S,,105510,105507.29999999981,104644.115,104645.79999999981,104661.643,105516.563,,,
Trial,flow.Sequence,1_3_2,2022-05-02T11:02:36.460Z,,,,,,,,,,,,,,,,,,,,,,,,,,,,,,,5103.727999999814,,completion,,,,,,,,,3,,,,,,,,O,I,S,,105510.5,105507.29999999981,100386.283,100400.39999999944,100403.572,105516.563,,,
Sounds,html.Screen,1_3_3_0,2022-05-02T11:02:40.708Z,,,,,,,,,,,,,,,,,,,,,,,,,,,,,,,4258.0380000000005,,timeout,,,,,,,,,3,,,,,,,,I,O,S,,109758.29999999981,109757.125,105499.197,105510.69999999925,105516.563,109774.601,,,
Judgement,html.Screen,1_3_3_1,2022-05-02T11:02:41.638Z,,,,,,,,,,,,,,,,,,,,,,,,,,,,true,3,,912.5989999992598,,response,,,,,,,,,3,,3,click #choice-3,,,,,I,O,S,,110689,110687.19999999925,109757.125,109758.5,109774.601,110699.512,,,
Trial,flow.Sequence,1_3_3,2022-05-02T11:02:41.639Z,,,,,,,,,,,,,,,,,,,,,,,,,,,,,,,5170.63699999926,,completion,,,,,,,,,3,,,,,,,,I,O,S,,110689.29999999981,110687.19999999925,105499.197,105510.59999999963,105516.563,110699.512,,,
Sounds,html.Screen,1_3_4_0,2022-05-02T11:02:45.890Z,,,,,,,,,,,,,,,,,,,,,,,,,,,,,,,4257.792999999991,,timeout,,,,,,,,,1,,,,,,,,S,I,O,,114941.09999999963,114939.807,110682.024,110689.59999999963,110699.512,114957.305,,,
Judgement,html.Screen,1_3_4_1,2022-05-02T11:02:46.528Z,,,,,,,,,,,,,,,,,,,,,,,,,,,,true,1,,619.7949999996345,,response,,,,,,,,,1,,1,click #choice-1,,,,,S,I,O,,115579.09999999963,115577.09999999963,114939.807,114941.29999999981,114957.305,115585.466,,,
Trial,flow.Sequence,1_3_4,2022-05-02T11:02:46.529Z,,,,,,,,,,,,,,,,,,,,,,,,,,,,,,,4877.587999999625,,completion,,,,,,,,,1,,,,,,,,S,I,O,,115579.39999999944,115577.09999999963,110682.024,110689.5,110699.512,115585.466,,,
Sounds,html.Screen,1_3_5_0,2022-05-02T11:02:50.777Z,,,,,,,,,,,,,,,,,,,,,,,,,,,,,,,4258.016999999993,,timeout,,,,,,,,,2,,,,,,,,O,S,I,,119827.29999999981,119826.034,115568.05,115579.59999999963,115585.466,119843.483,,,
Judgement,html.Screen,1_3_5_1,2022-05-02T11:02:51.399Z,,,,,,,,,,,,,,,,,,,,,,,,,,,,true,2,,603.6169999996346,,response,,,,,,,,,2,,2,click #choice-2,,,,,O,S,I,,120449.89999999944,120447.09999999963,119826.034,119827.39999999944,119843.483,120454.109,,,
Trial,flow.Sequence,1_3_5,2022-05-02T11:02:51.400Z,,,,,,,,,,,,,,,,,,,,,,,,,,,,,,,4861.633999999627,,completion,,,,,,,,,2,,,,,,,,O,S,I,,120450.29999999981,120447.09999999963,115568.05,115579.59999999963,115585.466,120454.109,,,
Task,flow.Loop,1_3,2022-05-02T11:02:51.406Z,,,,,,,,,,,,,,,,,,,,,,,,,,,,,,,32014.41499999963,,completion,,,1,,,,,,,,,,,,,,,,,,120457.09999999963,120447.09999999963,88415.349,88425.19999999925,88432.685,120454.109,,,
Trap,html.Screen,1_4,2022-05-02T11:02:51.409Z,,,,,,,,,,,,,,,,,,,,,,,,,,,,,,,NaN,,skipped,,,,,,,,,,,,,,,,,,,,,120459.5,120447.09999999963,,120459.29999999981,,120454.109,,,
Thanks,html.Screen,1_5,2022-05-02T11:02:54.888Z,,,,,,,,,,,,,,,,,,,,,,,,,,,,,,,3482.8910000000033,,response,,,,,,,,,,,continue,click button,,,,,,,,,123938.79999999981,123937,120436.8,120459.79999999981,120454.109,128062.473,,,
Headphone screening,flow.Sequence,1,2022-05-02T11:02:54.888Z,,,,,,,,,,,,,,,,,,,,,,,,,,,,,,,79217.574,,completion,,,,,,,,,,,,,,,,,,,,,123939.09999999963,123937,44684.702,44700.09999999963,44719.426,128062.473,,,
Instructions,html.Page,2_0,2022-05-02T11:03:15.953Z,,,,,,,,,,,,,,,,,,,,,,,,,,,,,,,16941.12699999963,,form submission,,,,,,,,,,,,,,,,,,,,,145004.19999999925,145003.59999999963,128027.72,128050.29999999981,128062.473,145006.819,,,
Holding screen,html.Screen,2_1_0_0,2022-05-02T11:03:25.939Z,,,,,,,,,,,,,,,,,,,,,,,,,,,,,,,10016.54700000002,,timeout,,,,,,,,,,,,,,,,,,,,,154989.59999999963,154988.568,144989.486,145004.59999999963,145006.819,155023.366,,,
screen,html.Screen,2_1_0_1_0,2022-05-02T11:03:26.881Z,,,,,,,,,,,,,,,,,53,,,,,,,,,,,,,,904.8339999992459,,response,,,,99,,,,,,,Space,keypress(Space),,,,,,,,When -- ----- -- ------ - ------- --- ----------<br>------------- ------ ------ ---- ---- ------- ----- -- ----<br>-------- ------- -- ---------- --- - --- ----- ----- ----<br>---- --- --- ----- --- ---- ---- ------- ----- ---- -------<br>--- --- -- ----- -- --- ---- -- --- ---- -- ------ ------<br>--- ----- -- ----,155931.59999999963,155928.19999999925,154988.568,154989.89999999944,155023.366,155948.402,,0,When
screen,html.Screen,2_1_0_1_1,2022-05-02T11:03:27.203Z,,,,,,,,,,,,,,,,,53,,,,,,,,,,,,,,303.7979999992531,,response,,,,99,,,,,,,Space,keypress(Space),,,,,,,,---- it ----- -- ------ - ------- --- ----------<br>------------- ------ ------ ---- ---- ------- ----- -- ----<br>-------- ------- -- ---------- --- - --- ----- ----- ----<br>---- --- --- ----- --- ---- ---- ------- ----- ---- -------<br>--- --- -- ----- -- --- ---- -- --- ---- -- ------ ------<br>--- ----- -- ----,156253.2999999998,156252.19999999925,155931.001,155931.69999999925,155948.402,156262.373,,1,it
screen,html.Screen,2_1_0_1_2,2022-05-02T11:03:27.538Z,,,,,,,,,,,,,,,,,53,,,,,,,,,,,,,,325.8269999992626,,response,,,,99,,,,,,,Space,keypress(Space),,,,,,,,---- -- comes -- ------ - ------- --- ----------<br>------------- ------ ------ ---- ---- ------- ----- -- ----<br>-------- ------- -- ---------- --- - --- ----- ----- ----<br>---- --- --- ----- --- ---- ---- ------- ----- ---- -------<br>--- --- -- ----- -- --- ---- -- --- ---- -- ------ ------<br>--- ----- -- ----,156589.19999999925,156588.19999999925,156245.071,156253.59999999963,156262.373,156593.86,,2,comes
screen,html.Screen,2_1_0_1_3,2022-05-02T11:03:27.856Z,,,,,,,,,,,,,,,,,53,,,,,,,,,,,,,,311.3399999992689,,response,,,,99,,,,,,,Space,keypress(Space),,,,,,,,---- -- ----- to ------ - ------- --- ----------<br>------------- ------ ------ ---- ---- ------- ----- -- ----<br>-------- ------- -- ---------- --- - --- ----- ----- ----<br>---- --- --- ----- --- ---- ---- ------- ----- ---- -------<br>--- --- -- ----- -- --- ---- -- --- ---- -- ------ ------<br>--- ----- -- ----,156906.39999999944,156905.19999999925,156576.548,156589.5,156593.86,156929.677,,3,to
screen,html.Screen,2_1_0_1_4,2022-05-02T11:03:28.147Z,,,,,,,,,,,,,,,,,53,,,,,,,,,,,,,,266.92299999963143,,response,,,,99,,,,,,,Space,keypress(Space),,,,,,,,---- -- ----- -- having - ------- --- ----------<br>------------- ------ ------ ---- ---- ------- ----- -- ----<br>-------- ------- -- ---------- --- - --- ----- ----- ----<br>---- --- --- ----- --- ---- ---- ------- ----- ---- -------<br>--- --- -- ----- -- --- ---- -- --- ---- -- ------ ------<br>--- ----- -- ----,157197.59999999963,157196.59999999963,156890.714,156906.59999999963,156929.677,157204.669,,4,having
screen,html.Screen,2_1_0_1_5,2022-05-02T11:03:28.459Z,,,,,,,,,,,,,,,,,53,,,,,,,,,,,,,,304.3310000000056,,response,,,,99,,,,,,,Space,keypress(Space),,,,,,,,---- -- ----- -- ------ a ------- --- ----------<br>------------- ------ ------ ---- ---- ------- ----- -- ----<br>-------- ------- -- ---------- --- - --- ----- ----- ----<br>---- --- --- ----- --- ---- ---- ------- ----- ---- -------<br>--- --- -- ----- -- --- ---- -- --- ---- -- ------ ------<br>--- ----- -- ----,157509.89999999944,157509,157187.229,157197.7999999998,157204.669,157518.946,,5,a
screen,html.Screen,2_1_0_1_6,2022-05-02T11:03:28.750Z,,,,,,,,,,,,,,,,,53,,,,,,,,,,,,,,280.95399999944493,,response,,,,99,,,,,,,Space,keypress(Space),,,,,,,,---- -- ----- -- ------ - lasting --- ----------<br>------------- ------ ------ ---- ---- ------- ----- -- ----<br>-------- ------- -- ---------- --- - --- ----- ----- ----<br>---- --- --- ----- --- ---- ---- ------- ----- ---- -------<br>--- --- -- ----- -- --- ---- -- --- ---- -- ------ ------<br>--- ----- -- ----,157801,157799.89999999944,157501.403,157510.09999999963,157518.946,157815.6,,6,lasting
screen,html.Screen,2_1_0_1_7,2022-05-02T11:03:29.126Z,,,,,,,,,,,,,,,,,53,,,,,,,,,,,,,,359.6999999998079,,response,,,,99,,,,,,,Space,keypress(Space),,,,,,,,---- -- ----- -- ------ - ------- and ----------<br>------------- ------ ------ ---- ---- ------- ----- -- ----<br>-------- ------- -- ---------- --- - --- ----- ----- ----<br>---- --- --- ----- --- ---- ---- ------- ----- ---- -------<br>--- --- -- ----- -- --- ---- -- --- ---- -- ------ ------<br>--- ----- -- ----,158176.5,158175.2999999998,157798.023,157801.19999999925,157815.6,158181.881,,7,and
screen,html.Screen,2_1_0_1_8,2022-05-02T11:03:29.447Z,,,,,,,,,,,,,,,,,53,,,,,,,,,,,,,,314.9189999998198,,response,,,,99,,,,,,,Space,keypress(Space),,,,,,,,---- -- ----- -- ------ - ------- --- fulfilling<br>------------- ------ ------ ---- ---- ------- ----- -- ----<br>-------- ------- -- ---------- --- - --- ----- ----- ----<br>---- --- --- ----- --- ---- ---- ------- ----- ---- -------<br>--- --- -- ----- -- --- ---- -- --- ---- -- ------ ------<br>--- ----- -- ----,158497.69999999925,158496.7999999998,158164.494,158176.69999999925,158181.881,158513.501,,8,fulfilling
screen,html.Screen,2_1_0_1_9,2022-05-02T11:03:29.858Z,,,,,,,,,,,,,,,,,53,,,,,,,,,,,,,,393.79899999982445,,response,,,,99,,,,,,,Space,keypress(Space),,,,,,,,"---- -- ----- -- ------ - ------- --- ----------<br>relationship, ------ ------ ---- ---- ------- ----- -- ----<br>-------- ------- -- ---------- --- - --- ----- ----- ----<br>---- --- --- ----- --- ---- ---- ------- ----- ---- -------<br>--- --- -- ----- -- --- ---- -- --- ---- -- ------ ------<br>--- ----- -- ----",158908.59999999963,158907.2999999998,158496.097,158497.89999999944,158513.501,158914.808,,9,"relationship,"
screen,html.Screen,2_1_0_1_10,2022-05-02T11:03:30.252Z,,,,,,,,,,,,,,,,,53,,,,,,,,,,,,,,387.39199999926495,,response,,,,99,,,,,,,Space,keypress(Space),,,,,,,,---- -- ----- -- ------ - ------- --- ----------<br>------------- common ------ ---- ---- ------- ----- -- ----<br>-------- ------- -- ---------- --- - --- ----- ----- ----<br>---- --- --- ----- --- ---- ---- ------- ----- ---- -------<br>--- --- -- ----- -- --- ---- -- --- ---- -- ------ ------<br>--- ----- -- ----,159303.19999999925,159302.19999999925,158897.467,158908.7999999998,158914.808,159316.21,,10,common
screen,html.Screen,2_1_0_1_11,2022-05-02T11:03:30.594Z,,,,,,,,,,,,,,,,,53,,,,,,,,,,,,,,327.9899999992631,,response,,,,99,,,,,,,Space,keypress(Space),,,,,,,,---- -- ----- -- ------ - ------- --- ----------<br>------------- ------ wisdom ---- ---- ------- ----- -- ----<br>-------- ------- -- ---------- --- - --- ----- ----- ----<br>---- --- --- ----- --- ---- ---- ------- ----- ---- -------<br>--- --- -- ----- -- --- ---- -- --- ---- -- ------ ------<br>--- ----- -- ----,159645.2999999998,159644.19999999925,159298.737,159303.39999999944,159316.21,159647.734,,11,wisdom
screen,html.Screen,2_1_0_1_12,2022-05-02T11:03:31.184Z,,,,,,,,,,,,,,,,,53,,,,,,,,,,,,,,586.3659999996307,,response,,,,99,,,,,,,Space,keypress(Space),,,,,,,,---- -- ----- -- ------ - ------- --- ----------<br>------------- ------ ------ says ---- ------- ----- -- ----<br>-------- ------- -- ---------- --- - --- ----- ----- ----<br>---- --- --- ----- --- ---- ---- ------- ----- ---- -------<br>--- --- -- ----- -- --- ---- -- --- ---- -- ------ ------<br>--- ----- -- ----,160235.19999999925,160234.09999999963,159630.359,159645.5,159647.734,160240.993,,12,says
screen,html.Screen,2_1_0_1_13,2022-05-02T11:03:31.554Z,,,,,,,,,,,,,,,,,53,,,,,,,,,,,,,,362.50700000001234,,response,,,,99,,,,,,,Space,keypress(Space),,,,,,,,---- -- ----- -- ------ - ------- --- ----------<br>------------- ------ ------ ---- that ------- ----- -- ----<br>-------- ------- -- ---------- --- - --- ----- ----- ----<br>---- --- --- ----- --- ---- ---- ------- ----- ---- -------<br>--- --- -- ----- -- --- ---- -- --- ---- -- ------ ------<br>--- ----- -- ----,160604.59999999963,160603.5,160223.552,160235.39999999944,160240.993,160607.505,,13,that
screen,html.Screen,2_1_0_1_14,2022-05-02T11:03:31.934Z,,,,,,,,,,,,,,,,,53,,,,,,,,,,,,,,376.1949999992503,,response,,,,99,,,,,,,Space,keypress(Space),,,,,,,,---- -- ----- -- ------ - ------- --- ----------<br>------------- ------ ------ ---- ---- feeling ----- -- ----<br>-------- ------- -- ---------- --- - --- ----- ----- ----<br>---- --- --- ----- --- ---- ---- ------- ----- ---- -------<br>--- --- -- ----- -- --- ---- -- --- ---- -- ------ ------<br>--- ----- -- ----,160985,160983.69999999925,160590.094,160604.89999999944,160607.505,160991.407,,14,feeling
screen,html.Screen,2_1_0_1_15,2022-05-02T11:03:32.285Z,,,,,,,,,,,,,,,,,53,,,,,,,,,,,,,,343.4929999994347,,response,,,,99,,,,,,,Space,keypress(Space),,,,,,,,---- -- ----- -- ------ - ------- --- ----------<br>------------- ------ ------ ---- ---- ------- close -- ----<br>-------- ------- -- ---------- --- - --- ----- ----- ----<br>---- --- --- ----- --- ---- ---- ------- ----- ---- -------<br>--- --- -- ----- -- --- ---- -- --- ---- -- ------ ------<br>--- ----- -- ----,161335.89999999944,161334.89999999944,160973.967,160985.19999999925,160991.407,161340.436,,15,close
screen,html.Screen,2_1_0_1_16,2022-05-02T11:03:32.575Z,,,,,,,,,,,,,,,,,53,,,,,,,,,,,,,,284.06400000001304,,response,,,,99,,,,,,,Space,keypress(Space),,,,,,,,---- -- ----- -- ------ - ------- --- ----------<br>------------- ------ ------ ---- ---- ------- ----- to ----<br>-------- ------- -- ---------- --- - --- ----- ----- ----<br>---- --- --- ----- --- ---- ---- ------- ----- ---- -------<br>--- --- -- ----- -- --- ---- -- --- ---- -- ------ ------<br>--- ----- -- ----,161625.59999999963,161624.5,161322.982,161336.09999999963,161340.436,161637.233,,16,to
screen,html.Screen,2_1_0_1_17,2022-05-02T11:03:33.014Z,,,,,,,,,,,,,,,,,53,,,,,,,,,,,,,,426.26699999999255,,response,,,,99,,,,,,,Space,keypress(Space),,,,,,,,---- -- ----- -- ------ - ------- --- ----------<br>------------- ------ ------ ---- ---- ------- ----- -- your<br>-------- ------- -- ---------- --- - --- ----- ----- ----<br>---- --- --- ----- --- ---- ---- ------- ----- ---- -------<br>--- --- -- ----- -- --- ---- -- --- ---- -- ------ ------<br>--- ----- -- ----,162064.59999999963,162063.5,161619.735,161625.7999999998,161637.233,162073.376,,17,your
screen,html.Screen,2_1_0_1_18,2022-05-02T11:03:33.362Z,,,,,,,,,,,,,,,,,53,,,,,,,,,,,,,,338.0239999994519,,response,,,,99,,,,,,,Space,keypress(Space),,,,,,,,---- -- ----- -- ------ - ------- --- ----------<br>------------- ------ ------ ---- ---- ------- ----- -- ----<br>romantic ------- -- ---------- --- - --- ----- ----- ----<br>---- --- --- ----- --- ---- ---- ------- ----- ---- -------<br>--- --- -- ----- -- --- ---- -- --- ---- -- ------ ------<br>--- ----- -- ----,162412.59999999963,162411.39999999944,162055.951,162064.69999999925,162073.376,162422.439,,18,romantic
screen,html.Screen,2_1_0_1_19,2022-05-02T11:03:33.720Z,,,,,,,,,,,,,,,,,53,,,,,,,,,,,,,,347.7609999992419,,response,,,,99,,,,,,,Space,keypress(Space),,,,,,,,---- -- ----- -- ------ - ------- --- ----------<br>------------- ------ ------ ---- ---- ------- ----- -- ----<br>-------- partner -- ---------- --- - --- ----- ----- ----<br>---- --- --- ----- --- ---- ---- ------- ----- ---- -------<br>--- --- -- ----- -- --- ---- -- --- ---- -- ------ ------<br>--- ----- -- ----,162771.09999999963,162770.19999999925,162404.978,162412.7999999998,162422.439,162788.958,,19,partner
screen,html.Screen,2_1_0_1_20,2022-05-02T11:03:34.021Z,,,,,,,,,,,,,,,,,53,,,,,,,,,,,,,,281.34199999980046,,response,,,,99,,,,,,,Space,keypress(Space),,,,,,,,---- -- ----- -- ------ - ------- --- ----------<br>------------- ------ ------ ---- ---- ------- ----- -- ----<br>-------- ------- is ---------- --- - --- ----- ----- ----<br>---- --- --- ----- --- ---- ---- ------- ----- ---- -------<br>--- --- -- ----- -- --- ---- -- --- ---- -- ------ ------<br>--- ----- -- ----,163071.5,163070.2999999998,162771.501,162771.39999999944,162788.958,163085.614,,20,is
screen,html.Screen,2_1_0_1_21,2022-05-02T11:03:34.395Z,,,,,,,,,,,,,,,,,53,,,,,,,,,,,,,,359.4859999996261,,response,,,,99,,,,,,,Space,keypress(Space),,,,,,,,---- -- ----- -- ------ - ------- --- ----------<br>------------- ------ ------ ---- ---- ------- ----- -- ----<br>-------- ------- -- paramount. --- - --- ----- ----- ----<br>---- --- --- ----- --- ---- ---- ------- ----- ---- -------<br>--- --- -- ----- -- --- ---- -- --- ---- -- ------ ------<br>--- ----- -- ----,163446.19999999925,163445.09999999963,163068.024,163071.69999999925,163085.614,163451.869,,21,paramount.
screen,html.Screen,2_1_0_1_22,2022-05-02T11:03:34.805Z,,,,,,,,,,,,,,,,,53,,,,,,,,,,,,,,402.4309999998077,,response,,,,99,,,,,,,Space,keypress(Space),,,,,,,,---- -- ----- -- ------ - ------- --- ----------<br>------------- ------ ------ ---- ---- ------- ----- -- ----<br>-------- ------- -- ---------- But - --- ----- ----- ----<br>---- --- --- ----- --- ---- ---- ------- ----- ---- -------<br>--- --- -- ----- -- --- ---- -- --- ---- -- ------ ------<br>--- ----- -- ----,163855.39999999944,163854.2999999998,163434.442,163446.39999999944,163451.869,163870.881,,22,But
screen,html.Screen,2_1_0_1_23,2022-05-02T11:03:35.155Z,,,,,,,,,,,,,,,,,53,,,,,,,,,,,,,,333.61900000000605,,response,,,,99,,,,,,,Space,keypress(Space),,,,,,,,---- -- ----- -- ------ - ------- --- ----------<br>------------- ------ ------ ---- ---- ------- ----- -- ----<br>-------- ------- -- ---------- --- a --- ----- ----- ----<br>---- --- --- ----- --- ---- ---- ------- ----- ---- -------<br>--- --- -- ----- -- --- ---- -- --- ---- -- ------ ------<br>--- ----- -- ----,164205.59999999963,164204.5,163853.504,163855.59999999963,163870.881,164219.779,,23,a
screen,html.Screen,2_1_0_1_24,2022-05-02T11:03:35.501Z,,,,,,,,,,,,,,,,,53,,,,,,,,,,,,,,330.72099999999045,,response,,,,99,,,,,,,Space,keypress(Space),,,,,,,,---- -- ----- -- ------ - ------- --- ----------<br>------------- ------ ------ ---- ---- ------- ----- -- ----<br>-------- ------- -- ---------- --- - new ----- ----- ----<br>---- --- --- ----- --- ---- ---- ------- ----- ---- -------<br>--- --- -- ----- -- --- ---- -- --- ---- -- ------ ------<br>--- ----- -- ----,164551.5,164550.5,164202.342,164205.7999999998,164219.779,164569.034,,24,new
screen,html.Screen,2_1_0_1_25,2022-05-02T11:03:35.861Z,,,,,,,,,,,,,,,,,53,,,,,,,,,,,,,,341.865999999427,,response,,,,99,,,,,,,Space,keypress(Space),,,,,,,,---- -- ----- -- ------ - ------- --- ----------<br>------------- ------ ------ ---- ---- ------- ----- -- ----<br>-------- ------- -- ---------- --- - --- study ----- ----<br>---- --- --- ----- --- ---- ---- ------- ----- ---- -------<br>--- --- -- ----- -- --- ---- -- --- ---- -- ------ ------<br>--- ----- -- ----,164912,164910.89999999944,164551.306,164551.59999999963,164569.034,164917.717,,25,study
screen,html.Screen,2_1_0_1_26,2022-05-02T11:03:36.205Z,,,,,,,,,,,,,,,,,53,,,,,,,,,,,,,,337.182999999437,,response,,,,99,,,,,,,Space,keypress(Space),,,,,,,,---- -- ----- -- ------ - ------- --- ----------<br>------------- ------ ------ ---- ---- ------- ----- -- ----<br>-------- ------- -- ---------- --- - --- ----- finds ----<br>---- --- --- ----- --- ---- ---- ------- ----- ---- -------<br>--- --- -- ----- -- --- ---- -- --- ---- -- ------ ------<br>--- ----- -- ----,165255.89999999944,165254.89999999944,164900.467,164912.19999999925,164917.717,165266.915,,26,finds
screen,html.Screen,2_1_0_1_27,2022-05-02T11:03:36.658Z,,,,,,,,,,,,,,,,,53,,,,,,,,,,,,,,440.2849999992468,,response,,,,99,,,,,,,Space,keypress(Space),,,,,,,,---- -- ----- -- ------ - ------- --- ----------<br>------------- ------ ------ ---- ---- ------- ----- -- ----<br>-------- ------- -- ---------- --- - --- ----- ----- that<br>---- --- --- ----- --- ---- ---- ------- ----- ---- -------<br>--- --- -- ----- -- --- ---- -- --- ---- -- ------ ------<br>--- ----- -- ----,165708.39999999944,165707.19999999925,165249.387,165256.19999999925,165266.915,165720.623,,27,that
screen,html.Screen,2_1_0_1_28,2022-05-02T11:03:37.035Z,,,,,,,,,,,,,,,,,53,,,,,,,,,,,,,,363.7769999994489,,response,,,,99,,,,,,,Space,keypress(Space),,,,,,,,---- -- ----- -- ------ - ------- --- ----------<br>------------- ------ ------ ---- ---- ------- ----- -- ----<br>-------- ------- -- ---------- --- - --- ----- ----- ----<br>it's --- --- ----- --- ---- ---- ------- ----- ---- -------<br>--- --- -- ----- -- --- ---- -- --- ---- -- ------ ------<br>--- ----- -- ----,166085.39999999944,166084.39999999944,165703.075,165708.59999999963,165720.623,166110.977,,28,it's
screen,html.Screen,2_1_0_1_29,2022-05-02T11:03:37.327Z,,,,,,,,,,,,,,,,,53,,,,,,,,,,,,,,265.4229999994277,,response,,,,99,,,,,,,Space,keypress(Space),,,,,,,,---- -- ----- -- ------ - ------- --- ----------<br>------------- ------ ------ ---- ---- ------- ----- -- ----<br>-------- ------- -- ---------- --- - --- ----- ----- ----<br>---- not --- ----- --- ---- ---- ------- ----- ---- -------<br>--- --- -- ----- -- --- ---- -- --- ---- -- ------ ------<br>--- ----- -- ----,166377.5,166376.39999999944,166069.664,166085.5,166110.977,166383.578,,29,not
screen,html.Screen,2_1_0_1_30,2022-05-02T11:03:37.624Z,,,,,,,,,,,,,,,,,53,,,,,,,,,,,,,,289.8219999994326,,response,,,,99,,,,,,,Space,keypress(Space),,,,,,,,---- -- ----- -- ------ - ------- --- ----------<br>------------- ------ ------ ---- ---- ------- ----- -- ----<br>-------- ------- -- ---------- --- - --- ----- ----- ----<br>---- --- how ----- --- ---- ---- ------- ----- ---- -------<br>--- --- -- ----- -- --- ---- -- --- ---- -- ------ ------<br>--- ----- -- ----,166674.5,166673.39999999944,166366.168,166377.69999999925,166383.578,166680.192,,30,how
screen,html.Screen,2_1_0_1_31,2022-05-02T11:03:37.937Z,,,,,,,,,,,,,,,,,53,,,,,,,,,,,,,,306.6079999998037,,response,,,,99,,,,,,,Space,keypress(Space),,,,,,,,---- -- ----- -- ------ - ------- --- ----------<br>------------- ------ ------ ---- ---- ------- ----- -- ----<br>-------- ------- -- ---------- --- - --- ----- ----- ----<br>---- --- --- close --- ---- ---- ------- ----- ---- -------<br>--- --- -- ----- -- --- ---- -- --- ---- -- ------ ------<br>--- ----- -- ----,166987.69999999925,166986.7999999998,166662.877,166674.59999999963,166680.192,166994.342,,31,close
screen,html.Screen,2_1_0_1_32,2022-05-02T11:03:38.250Z,,,,,,,,,,,,,,,,,53,,,,,,,,,,,,,,305.95799999980954,,response,,,,99,,,,,,,Space,keypress(Space),,,,,,,,---- -- ----- -- ------ - ------- --- ----------<br>------------- ------ ------ ---- ---- ------- ----- -- ----<br>-------- ------- -- ---------- --- - --- ----- ----- ----<br>---- --- --- ----- you ---- ---- ------- ----- ---- -------<br>--- --- -- ----- -- --- ---- -- --- ---- -- ------ ------<br>--- ----- -- ----,167301.19999999925,167300.2999999998,166977.006,166987.89999999944,166994.342,167308.506,,32,you
screen,html.Screen,2_1_0_1_33,2022-05-02T11:03:38.595Z,,,,,,,,,,,,,,,,,53,,,,,,,,,,,,,,334.99400000000605,,response,,,,99,,,,,,,Space,keypress(Space),,,,,,,,---- -- ----- -- ------ - ------- --- ----------<br>------------- ------ ------ ---- ---- ------- ----- -- ----<br>-------- ------- -- ---------- --- - --- ----- ----- ----<br>---- --- --- ----- --- feel ---- ------- ----- ---- -------<br>--- --- -- ----- -- --- ---- -- --- ---- -- ------ ------<br>--- ----- -- ----,167645.69999999925,167643.5,167291.132,167301.5,167308.506,167657.62,,33,feel
screen,html.Screen,2_1_0_1_34,2022-05-02T11:03:38.901Z,,,,,,,,,,,,,,,,,53,,,,,,,,,,,,,,292.88000000000466,,response,,,,99,,,,,,,Space,keypress(Space),,,,,,,,---- -- ----- -- ------ - ------- --- ----------<br>------------- ------ ------ ---- ---- ------- ----- -- ----<br>-------- ------- -- ---------- --- - --- ----- ----- ----<br>---- --- --- ----- --- ---- that ------- ----- ---- -------<br>--- --- -- ----- -- --- ---- -- --- ---- -- ------ ------<br>--- ----- -- ----,167951.5,167950.5,167639.989,167646.09999999963,167657.62,167954.107,,34,that
screen,html.Screen,2_1_0_1_35,2022-05-02T11:03:39.263Z,,,,,,,,,,,,,,,,,53,,,,,,,,,,,,,,358.4929999996384,,response,,,,99,,,,,,,Space,keypress(Space),,,,,,,,---- -- ----- -- ------ - ------- --- ----------<br>------------- ------ ------ ---- ---- ------- ----- -- ----<br>-------- ------- -- ---------- --- - --- ----- ----- ----<br>---- --- --- ----- --- ---- ---- matters ----- ---- -------<br>--- --- -- ----- -- --- ---- -- --- ---- -- ------ ------<br>--- ----- -- ----,168313.69999999925,168312.59999999963,167936.757,167951.59999999963,167954.107,168320.591,,35,matters
screen,html.Screen,2_1_0_1_36,2022-05-02T11:03:39.649Z,,,,,,,,,,,,,,,,,53,,,,,,,,,,,,,,378.4090000000142,,response,,,,99,,,,,,,Space,keypress(Space),,,,,,,,"---- -- ----- -- ------ - ------- --- ----------<br>------------- ------ ------ ---- ---- ------- ----- -- ----<br>-------- ------- -- ---------- --- - --- ----- ----- ----<br>---- --- --- ----- --- ---- ---- ------- most, ---- -------<br>--- --- -- ----- -- --- ---- -- --- ---- -- ------ ------<br>--- ----- -- ----",168700,168699,168303.152,168314,168320.591,168704.424,,36,"most,"
screen,html.Screen,2_1_0_1_37,2022-05-02T11:03:40.056Z,,,,,,,,,,,,,,,,,53,,,,,,,,,,,,,,401.57600000000093,,response,,,,99,,,,,,,Space,keypress(Space),,,,,,,,---- -- ----- -- ------ - ------- --- ----------<br>------------- ------ ------ ---- ---- ------- ----- -- ----<br>-------- ------- -- ---------- --- - --- ----- ----- ----<br>---- --- --- ----- --- ---- ---- ------- ----- it's -------<br>--- --- -- ----- -- --- ---- -- --- ---- -- ------ ------<br>--- ----- -- ----,169106.89999999944,169106,168687.12,168700.19999999925,168704.424,169123.438,,37,it's
screen,html.Screen,2_1_0_1_38,2022-05-02T11:03:40.387Z,,,,,,,,,,,,,,,,,53,,,,,,,,,,,,,,312.8619999998191,,response,,,,99,,,,,,,Space,keypress(Space),,,,,,,,---- -- ----- -- ------ - ------- --- ----------<br>------------- ------ ------ ---- ---- ------- ----- -- ----<br>-------- ------- -- ---------- --- - --- ----- ----- ----<br>---- --- --- ----- --- ---- ---- ------- ----- ---- whether<br>--- --- -- ----- -- --- ---- -- --- ---- -- ------ ------<br>--- ----- -- ----,169437.39999999944,169436.2999999998,169105.806,169107.09999999963,169123.438,169454.993,,38,whether
screen,html.Screen,2_1_0_1_39,2022-05-02T11:03:40.702Z,,,,,,,,,,,,,,,,,53,,,,,,,,,,,,,,296.40699999945355,,response,,,,99,,,,,,,Space,keypress(Space),,,,,,,,---- -- ----- -- ------ - ------- --- ----------<br>------------- ------ ------ ---- ---- ------- ----- -- ----<br>-------- ------- -- ---------- --- - --- ----- ----- ----<br>---- --- --- ----- --- ---- ---- ------- ----- ---- -------<br>you --- -- ----- -- --- ---- -- --- ---- -- ------ ------<br>--- ----- -- ----,169752.5,169751.39999999944,169437.486,169437.59999999963,169454.993,169769.115,,39,you
screen,html.Screen,2_1_0_1_40,2022-05-02T11:03:41.000Z,,,,,,,,,,,,,,,,,53,,,,,,,,,,,,,,280.2849999994505,,response,,,,99,,,,,,,Space,keypress(Space),,,,,,,,---- -- ----- -- ------ - ------- --- ----------<br>------------- ------ ------ ---- ---- ------- ----- -- ----<br>-------- ------- -- ---------- --- - --- ----- ----- ----<br>---- --- --- ----- --- ---- ---- ------- ----- ---- -------<br>--- are -- ----- -- --- ---- -- --- ---- -- ------ ------<br>--- ----- -- ----,170050.2999999998,170049.39999999944,169751.666,169752.69999999925,169769.115,170065.775,,40,are
screen,html.Screen,2_1_0_1_41,2022-05-02T11:03:41.295Z,,,,,,,,,,,,,,,,,53,,,,,,,,,,,,,,279.124999999447,,response,,,,99,,,,,,,Space,keypress(Space),,,,,,,,---- -- ----- -- ------ - ------- --- ----------<br>------------- ------ ------ ---- ---- ------- ----- -- ----<br>-------- ------- -- ---------- --- - --- ----- ----- ----<br>---- --- --- ----- --- ---- ---- ------- ----- ---- -------<br>--- --- as ----- -- --- ---- -- --- ---- -- ------ ------<br>--- ----- -- ----,170345.89999999944,170344.89999999944,170048.157,170050.5,170065.775,170362.429,,41,as
screen,html.Screen,2_1_0_1_42,2022-05-02T11:03:41.652Z,,,,,,,,,,,,,,,,,53,,,,,,,,,,,,,,339.5709999999963,,response,,,,99,,,,,,,Space,keypress(Space),,,,,,,,---- -- ----- -- ------ - ------- --- ----------<br>------------- ------ ------ ---- ---- ------- ----- -- ----<br>-------- ------- -- ---------- --- - --- ----- ----- ----<br>---- --- --- ----- --- ---- ---- ------- ----- ---- -------<br>--- --- -- close -- --- ---- -- --- ---- -- ------ ------<br>--- ----- -- ----,170703,170702,170344.912,170346.09999999963,170362.429,170711.543,,42,close
screen,html.Screen,2_1_0_1_43,2022-05-02T11:03:41.981Z,,,,,,,,,,,,,,,,,53,,,,,,,,,,,,,,319.3569999994361,,response,,,,99,,,,,,,Space,keypress(Space),,,,,,,,---- -- ----- -- ------ - ------- --- ----------<br>------------- ------ ------ ---- ---- ------- ----- -- ----<br>-------- ------- -- ---------- --- - --- ----- ----- ----<br>---- --- --- ----- --- ---- ---- ------- ----- ---- -------<br>--- --- -- ----- as --- ---- -- --- ---- -- ------ ------<br>--- ----- -- ----,171031.7999999998,171030.89999999944,170693.917,170703.19999999925,170711.543,171042.996,,43,as
screen,html.Screen,2_1_0_1_44,2022-05-02T11:03:42.284Z,,,,,,,,,,,,,,,,,53,,,,,,,,,,,,,,290.8039999998,,response,,,,99,,,,,,,Space,keypress(Space),,,,,,,,---- -- ----- -- ------ - ------- --- ----------<br>------------- ------ ------ ---- ---- ------- ----- -- ----<br>-------- ------- -- ---------- --- - --- ----- ----- ----<br>---- --- --- ----- --- ---- ---- ------- ----- ---- -------<br>--- --- -- ----- -- you ---- -- --- ---- -- ------ ------<br>--- ----- -- ----,171334.7999999998,171333.7999999998,171025.475,171032,171042.996,171339.493,,44,you
screen,html.Screen,2_1_0_1_45,2022-05-02T11:03:42.649Z,,,,,,,,,,,,,,,,,53,,,,,,,,,,,,,,359.00700000001234,,response,,,,99,,,,,,,Space,keypress(Space),,,,,,,,---- -- ----- -- ------ - ------- --- ----------<br>------------- ------ ------ ---- ---- ------- ----- -- ----<br>-------- ------- -- ---------- --- - --- ----- ----- ----<br>---- --- --- ----- --- ---- ---- ------- ----- ---- -------<br>--- --- -- ----- -- --- want -- --- ---- -- ------ ------<br>--- ----- -- ----,171699.5,171698.5,171322.043,171335.09999999963,171339.493,171705.948,,45,want
screen,html.Screen,2_1_0_1_46,2022-05-02T11:03:42.981Z,,,,,,,,,,,,,,,,,53,,,,,,,,,,,,,,324.45199999943725,,response,,,,99,,,,,,,Space,keypress(Space),,,,,,,,---- -- ----- -- ------ - ------- --- ----------<br>------------- ------ ------ ---- ---- ------- ----- -- ----<br>-------- ------- -- ---------- --- - --- ----- ----- ----<br>---- --- --- ----- --- ---- ---- ------- ----- ---- -------<br>--- --- -- ----- -- --- ---- to --- ---- -- ------ ------<br>--- ----- -- ----,172031.5,172030.39999999944,171688.583,171699.59999999963,171705.948,172037.467,,46,to
screen,html.Screen,2_1_0_1_47,2022-05-02T11:03:43.302Z,,,,,,,,,,,,,,,,,53,,,,,,,,,,,,,,314.5329999999958,,response,,,,99,,,,,,,Space,keypress(Space),,,,,,,,"---- -- ----- -- ------ - ------- --- ----------<br>------------- ------ ------ ---- ---- ------- ----- -- ----<br>-------- ------- -- ---------- --- - --- ----- ----- ----<br>---- --- --- ----- --- ---- ---- ------- ----- ---- -------<br>--- --- -- ----- -- --- ---- -- be, ---- -- ------ ------<br>--- ----- -- ----",172353,172352,172020.143,172031.69999999925,172037.467,172369.123,,47,"be,"
screen,html.Screen,2_1_0_1_48,2022-05-02T11:03:43.847Z,,,,,,,,,,,,,,,,,53,,,,,,,,,,,,,,527.7769999994489,,response,,,,99,,,,,,,Space,keypress(Space),,,,,,,,---- -- ----- -- ------ - ------- --- ----------<br>------------- ------ ------ ---- ---- ------- ----- -- ----<br>-------- ------- -- ---------- --- - --- ----- ----- ----<br>---- --- --- ----- --- ---- ---- ------- ----- ---- -------<br>--- --- -- ----- -- --- ---- -- --- even -- ------ ------<br>--- ----- -- ----,172898,172896.89999999944,172351.653,172353.19999999925,172369.123,172910.184,,48,even
screen,html.Screen,2_1_0_1_49,2022-05-02T11:03:44.063Z,,,,,,,,,,,,,,,,,53,,,,,,,,,,,,,,202.4159999996191,,response,,,,99,,,,,,,Space,keypress(Space),,,,,,,,---- -- ----- -- ------ - ------- --- ----------<br>------------- ------ ------ ---- ---- ------- ----- -- ----<br>-------- ------- -- ---------- --- - --- ----- ----- ----<br>---- --- --- ----- --- ---- ---- ------- ----- ---- -------<br>--- --- -- ----- -- --- ---- -- --- ---- if ------ ------<br>--- ----- -- ----,173113.69999999925,173112.59999999963,172892.656,172898.19999999925,172910.184,173119.365,,49,if
screen,html.Screen,2_1_0_1_50,2022-05-02T11:03:44.254Z,,,,,,,,,,,,,,,,,53,,,,,,,,,,,,,,184.6350000000093,,response,,,,99,,,,,,,Space,keypress(Space),,,,,,,,---- -- ----- -- ------ - ------- --- ----------<br>------------- ------ ------ ---- ---- ------- ----- -- ----<br>-------- ------- -- ---------- --- - --- ----- ----- ----<br>---- --- --- ----- --- ---- ---- ------- ----- ---- -------<br>--- --- -- ----- -- --- ---- -- --- ---- -- that's ------<br>--- ----- -- ----,173305,173304,173102.075,173113.7999999998,173119.365,173311.407,,50,that's
screen,html.Screen,2_1_0_1_51,2022-05-02T11:03:44.781Z,,,,,,,,,,,,,,,,,53,,,,,,,,,,,,,,519.3929999998072,,response,,,,99,,,,,,,Space,keypress(Space),,,,,,,,---- -- ----- -- ------ - ------- --- ----------<br>------------- ------ ------ ---- ---- ------- ----- -- ----<br>-------- ------- -- ---------- --- - --- ----- ----- ----<br>---- --- --- ----- --- ---- ---- ------- ----- ---- -------<br>--- --- -- ----- -- --- ---- -- --- ---- -- ------ really<br>--- ----- -- ----,173831.89999999944,173830.7999999998,173294.07,173305.19999999925,173311.407,173834.878,,51,really
screen,html.Screen,2_1_0_1_52,2022-05-02T11:03:45.121Z,,,,,,,,,,,,,,,,,53,,,,,,,,,,,,,,335.42199999981676,,response,,,,99,,,,,,,Space,keypress(Space),,,,,,,,---- -- ----- -- ------ - ------- --- ----------<br>------------- ------ ------ ---- ---- ------- ----- -- ----<br>-------- ------- -- ---------- --- - --- ----- ----- ----<br>---- --- --- ----- --- ---- ---- ------- ----- ---- -------<br>--- --- -- ----- -- --- ---- -- --- ---- -- ------ ------<br>not ----- -- ----,174171.2999999998,174170.2999999998,173817.534,173832.09999999963,173834.878,174184.066,,52,not
screen,html.Screen,2_1_0_1_53,2022-05-02T11:03:45.466Z,,,,,,,,,,,,,,,,,53,,,,,,,,,,,,,,331.3339999994496,,response,,,,99,,,,,,,Space,keypress(Space),,,,,,,,---- -- ----- -- ------ - ------- --- ----------<br>------------- ------ ------ ---- ---- ------- ----- -- ----<br>-------- ------- -- ---------- --- - --- ----- ----- ----<br>---- --- --- ----- --- ---- ---- ------- ----- ---- -------<br>--- --- -- ----- -- --- ---- -- --- ---- -- ------ ------<br>--- close -- ----,174516.2999999998,174515.39999999944,174166.455,174171.5,174184.066,174533.065,,53,close
screen,html.Screen,2_1_0_1_54,2022-05-02T11:03:45.803Z,,,,,,,,,,,,,,,,,53,,,,,,,,,,,,,,319.9349999999977,,response,,,,99,,,,,,,Space,keypress(Space),,,,,,,,---- -- ----- -- ------ - ------- --- ----------<br>------------- ------ ------ ---- ---- ------- ----- -- ----<br>-------- ------- -- ---------- --- - --- ----- ----- ----<br>---- --- --- ----- --- ---- ---- ------- ----- ---- -------<br>--- --- -- ----- -- --- ---- -- --- ---- -- ------ ------<br>--- ----- at ----,174854.09999999963,174853,174515.565,174516.5,174533.065,174864.617,,54,at
screen,html.Screen,2_1_0_1_55,2022-05-02T11:03:46.598Z,,,,,,,,,,,,,,,,,53,,,,,,,,,,,,,,782.8830000000016,,response,,,,99,,,,,,,Space,keypress(Space),,,,,,,,---- -- ----- -- ------ - ------- --- ----------<br>------------- ------ ------ ---- ---- ------- ----- -- ----<br>-------- ------- -- ---------- --- - --- ----- ----- ----<br>---- --- --- ----- --- ---- ---- ------- ----- ---- -------<br>--- --- -- ----- -- --- ---- -- --- ---- -- ------ ------<br>--- ----- -- all.,175648.5,175647.5,174847.107,174854.2999999998,174864.617,175667.172,,55,all.
Item 99,flow.Loop,2_1_0_1,2022-05-02T11:03:46.598Z,,,,,,,,,,,,,,,,,,,,,,,,,,,,,,,20624.13399999999,,completion,,,,,E,,,,,,,,,,,silence,,,,,175648.89999999944,175647.5,154988.568,154989.69999999925,155023.366,175667.172,,,
Question 1,html.Screen,2_1_0_2,2022-05-02T11:03:51.572Z,,,,,,,,,,,,,,,,,,,,,,,,,,,,true,FALSE,,4953.328000000009,,response,,,,99,E,,,,,,FALSE,click #choice-2,,,,silence,,,,,180622.89999999944,180620.5,175649.715,175649,175667.172,180650.902,,,
Question 2,html.Screen,2_1_0_3,2022-05-02T11:03:54.777Z,,,,,,,,,,,,,,,,,,,,,,,,,,,,true,TRUE,,3174.597999999998,,response,,,,99,E,,,,,,TRUE,click #choice-1,,,,silence,,,,,183828.39999999944,183825.5,180605.671,180623.19999999925,180650.902,183833.913,,,
Item 99,flow.Sequence,2_1_0,2022-05-02T11:03:54.778Z,,,,,,,,,,,,,,,,,,,,,,,,,,,,,,,38818.68100000001,,completion,,,,,,,,,,,,,,,,,,,,,183828.7999999998,183825.5,144989.486,145004.5,145006.819,183833.913,,,
Holding screen,html.Screen,2_1_1_0,2022-05-02T11:04:04.766Z,,,,,,,,,,,,,,,,,,,,,,,,,,,,,,,9999.295000000013,,timeout,,,,,,,,,,,,,,,,,,,,,193816.69999999925,193815.693,183816.575,183829.09999999963,183833.913,193833.208,,,
screen,html.Screen,2_1_1_1_0,2022-05-02T11:04:05.418Z,,,,,,,,,,,,,,,,,54,,,,,,,,,,,,,,634.9919999992417,,response,,,,100,,,,,,,Space,keypress(Space),,,,,,,,At --- ---- --- ------ ----- ------- ---- -- --- ------- --<br>------- ---------- ------ -- ----- -- ----- -- ---- ------<br>--- ----- --- --- ------ -------- ----- --- ------ ----- --<br>----- ----- ---------- --- --- ------ ------ ---- -- ------<br>------- --- ------ ----- --- ---- ------- -- ---- --- --<br>------- ------,194469.5,194468.19999999925,193815.693,193817,193833.208,194478.77,,0,At
screen,html.Screen,2_1_1_1_1,2022-05-02T11:04:05.773Z,,,,,,,,,,,,,,,,,54,,,,,,,,,,,,,,344.0299999998242,,response,,,,100,,,,,,,Space,keypress(Space),,,,,,,,-- the ---- --- ------ ----- ------- ---- -- --- ------- --<br>------- ---------- ------ -- ----- -- ----- -- ---- ------<br>--- ----- --- --- ------ -------- ----- --- ------ ----- --<br>----- ----- ---------- --- --- ------ ------ ---- -- ------<br>------- --- ------ ----- --- ---- ------- -- ---- --- --<br>------- ------,194823.7999999998,194822.7999999998,194461.386,194469.7999999998,194478.77,194827.73,,1,the
screen,html.Screen,2_1_1_1_2,2022-05-02T11:04:06.108Z,,,,,,,,,,,,,,,,,54,,,,,,,,,,,,,,330.7699999999895,,response,,,,100,,,,,,,Space,keypress(Space),,,,,,,,-- --- time --- ------ ----- ------- ---- -- --- ------- --<br>------- ---------- ------ -- ----- -- ----- -- ---- ------<br>--- ----- --- --- ------ -------- ----- --- ------ ----- --<br>----- ----- ---------- --- --- ------ ------ ---- -- ------<br>------- --- ------ ----- --- ---- ------- -- ---- --- --<br>------- ------,195159.39999999944,195158.5,194810.483,194824.09999999963,194827.73,195176.881,,2,time
screen,html.Screen,2_1_1_1_3,2022-05-02T11:04:06.398Z,,,,,,,,,,,,,,,,,54,,,,,,,,,,,,,,270.818999999261,,response,,,,100,,,,,,,Space,keypress(Space),,,,,,,,-- --- ---- the ------ ----- ------- ---- -- --- ------- --<br>------- ---------- ------ -- ----- -- ----- -- ---- ------<br>--- ----- --- --- ------ -------- ----- --- ------ ----- --<br>----- ----- ---------- --- --- ------ ------ ---- -- ------<br>------- --- ------ ----- --- ---- ------- -- ---- --- --<br>------- ------,195448.69999999925,195447.69999999925,195159.375,195159.7999999998,195176.881,195455.915,,3,the
screen,html.Screen,2_1_1_1_4,2022-05-02T11:04:06.867Z,,,,,,,,,,,,,,,,,54,,,,,,,,,,,,,,460.7849999992468,,response,,,,100,,,,,,,Space,keypress(Space),,,,,,,,-- --- ---- --- French ----- ------- ---- -- --- ------- --<br>------- ---------- ------ -- ----- -- ----- -- ---- ------<br>--- ----- --- --- ------ -------- ----- --- ------ ----- --<br>----- ----- ---------- --- --- ------ ------ ---- -- ------<br>------- --- ------ ----- --- ---- ------- -- ---- --- --<br>------- ------,195917.7999999998,195916.69999999925,195438.576,195448.7999999998,195455.915,195927.186,,4,French
screen,html.Screen,2_1_1_1_5,2022-05-02T11:04:07.183Z,,,,,,,,,,,,,,,,,54,,,,,,,,,,,,,,305.513999999268,,response,,,,100,,,,,,,Space,keypress(Space),,,,,,,,-- --- ---- --- ------ crown ------- ---- -- --- ------- --<br>------- ---------- ------ -- ----- -- ----- -- ---- ------<br>--- ----- --- --- ------ -------- ----- --- ------ ----- --<br>----- ----- ---------- --- --- ------ ------ ---- -- ------<br>------- --- ------ ----- --- ---- ------- -- ---- --- --<br>------- ------,196233.69999999925,196232.69999999925,195909.705,195918,195927.186,196241.323,,5,crown
screen,html.Screen,2_1_1_1_6,2022-05-02T11:04:07.558Z,,,,,,,,,,,,,,,,,54,,,,,,,,,,,,,,367.2769999996235,,response,,,,100,,,,,,,Space,keypress(Space),,,,,,,,-- --- ---- --- ------ ----- secured ---- -- --- ------- --<br>------- ---------- ------ -- ----- -- ----- -- ---- ------<br>--- ----- --- --- ------ -------- ----- --- ------ ----- --<br>----- ----- ---------- --- --- ------ ------ ---- -- ------<br>------- --- ------ ----- --- ---- ------- -- ---- --- --<br>------- ------,196609.59999999963,196608.59999999963,196223.807,196233.89999999944,196241.323,196625.27,,6,secured
screen,html.Screen,2_1_1_1_7,2022-05-02T11:04:07.935Z,,,,,,,,,,,,,,,,,54,,,,,,,,,,,,,,360.0299999998242,,response,,,,100,,,,,,,Space,keypress(Space),,,,,,,,-- --- ---- --- ------ ----- ------- much -- --- ------- --<br>------- ---------- ------ -- ----- -- ----- -- ---- ------<br>--- ----- --- --- ------ -------- ----- --- ------ ----- --<br>----- ----- ---------- --- --- ------ ------ ---- -- ------<br>------- --- ------ ----- --- ---- ------- -- ---- --- --<br>------- ------,196986.2999999998,196985.2999999998,196607.658,196609.89999999944,196625.27,196991.534,,7,much
screen,html.Screen,2_1_1_1_8,2022-05-02T11:04:08.298Z,,,,,,,,,,,,,,,,,54,,,,,,,,,,,,,,356.4659999999858,,response,,,,100,,,,,,,Space,keypress(Space),,,,,,,,-- --- ---- --- ------ ----- ------- ---- of --- ------- --<br>------- ---------- ------ -- ----- -- ----- -- ---- ------<br>--- ----- --- --- ------ -------- ----- --- ------ ----- --<br>----- ----- ---------- --- --- ------ ------ ---- -- ------<br>------- --- ------ ----- --- ---- ------- -- ---- --- --<br>------- ------,197348.89999999944,197348,196974.207,196986.39999999944,196991.534,197358.188,,8,of
screen,html.Screen,2_1_1_1_9,2022-05-02T11:04:08.594Z,,,,,,,,,,,,,,,,,54,,,,,,,,,,,,,,285.6119999998191,,response,,,,100,,,,,,,Space,keypress(Space),,,,,,,,-- --- ---- --- ------ ----- ------- ---- -- its ------- --<br>------- ---------- ------ -- ----- -- ----- -- ---- ------<br>--- ----- --- --- ------ -------- ----- --- ------ ----- --<br>----- ----- ---------- --- --- ------ ------ ---- -- ------<br>------- --- ------ ----- --- ---- ------- -- ---- --- --<br>------- ------,197644.69999999925,197643.7999999998,197340.669,197349.09999999963,197358.188,197654.706,,9,its
screen,html.Screen,2_1_1_1_10,2022-05-02T11:04:08.927Z,,,,,,,,,,,,,,,,,54,,,,,,,,,,,,,,322.09399999980815,,response,,,,100,,,,,,,Space,keypress(Space),,,,,,,,-- --- ---- --- ------ ----- ------- ---- -- --- revenue --<br>------- ---------- ------ -- ----- -- ----- -- ---- ------<br>--- ----- --- --- ------ -------- ----- --- ------ ----- --<br>----- ----- ---------- --- --- ------ ------ ---- -- ------<br>------- --- ------ ----- --- ---- ------- -- ---- --- --<br>------- ------,197977.89999999944,197976.7999999998,197637.369,197644.89999999944,197654.706,197986.455,,10,revenue
screen,html.Screen,2_1_1_1_11,2022-05-02T11:04:09.290Z,,,,,,,,,,,,,,,,,54,,,,,,,,,,,,,,353.1449999996403,,response,,,,100,,,,,,,Space,keypress(Space),,,,,,,,-- --- ---- --- ------ ----- ------- ---- -- --- ------- by<br>------- ---------- ------ -- ----- -- ----- -- ---- ------<br>--- ----- --- --- ------ -------- ----- --- ------ ----- --<br>----- ----- ---------- --- --- ------ ------ ---- -- ------<br>------- --- ------ ----- --- ---- ------- -- ---- --- --<br>------- ------,198340.59999999963,198339.59999999963,197968.801,197978.09999999963,197986.455,198352.863,,11,by
screen,html.Screen,2_1_1_1_12,2022-05-02T11:04:09.659Z,,,,,,,,,,,,,,,,,54,,,,,,,,,,,,,,356.23699999961536,,response,,,,100,,,,,,,Space,keypress(Space),,,,,,,,-- --- ---- --- ------ ----- ------- ---- -- --- ------- --<br>issuing ---------- ------ -- ----- -- ----- -- ---- ------<br>--- ----- --- --- ------ -------- ----- --- ------ ----- --<br>----- ----- ---------- --- --- ------ ------ ---- -- ------<br>------- --- ------ ----- --- ---- ------- -- ---- --- --<br>------- ------,198710,198709.09999999963,198335.299,198340.89999999944,198352.863,198719.239,,12,issuing
screen,html.Screen,2_1_1_1_13,2022-05-02T11:04:10.095Z,,,,,,,,,,,,,,,,,54,,,,,,,,,,,,,,425.46099999925354,,response,,,,100,,,,,,,Space,keypress(Space),,,,,,,,-- --- ---- --- ------ ----- ------- ---- -- --- ------- --<br>------- government ------ -- ----- -- ----- -- ---- ------<br>--- ----- --- --- ------ -------- ----- --- ------ ----- --<br>----- ----- ---------- --- --- ------ ------ ---- -- ------<br>------- --- ------ ----- --- ---- ------- -- ---- --- --<br>------- ------,199145.7999999998,199144.69999999925,198701.727,198710.2999999998,198719.239,199155.578,,13,government
screen,html.Screen,2_1_1_1_14,2022-05-02T11:04:10.491Z,,,,,,,,,,,,,,,,,54,,,,,,,,,,,,,,385.3219999994326,,response,,,,100,,,,,,,Space,keypress(Space),,,,,,,,-- --- ---- --- ------ ----- ------- ---- -- --- ------- --<br>------- ---------- bonds. -- ----- -- ----- -- ---- ------<br>--- ----- --- --- ------ -------- ----- --- ------ ----- --<br>----- ----- ---------- --- --- ------ ------ ---- -- ------<br>------- --- ------ ----- --- ---- ------- -- ---- --- --<br>------- ------,199541.7999999998,199540.89999999944,199138.021,199146,199155.578,199556.938,,14,bonds.
screen,html.Screen,2_1_1_1_15,2022-05-02T11:04:11.234Z,,,,,,,,,,,,,,,,,54,,,,,,,,,,,,,,727.6619999996328,,response,,,,100,,,,,,,Space,keypress(Space),,,,,,,,-- --- ---- --- ------ ----- ------- ---- -- --- ------- --<br>------- ---------- ------ In ----- -- ----- -- ---- ------<br>--- ----- --- --- ------ -------- ----- --- ------ ----- --<br>----- ----- ---------- --- --- ------ ------ ---- -- ------<br>------- --- ------ ----- --- ---- ------- -- ---- --- --<br>------- ------,200285.59999999963,200284.59999999963,199539.416,199542,199556.938,200289.718,,15,In
screen,html.Screen,2_1_1_1_16,2022-05-02T11:04:12.404Z,,,,,,,,,,,,,,,,,54,,,,,,,,,,,,,,1164.381999999634,,response,,,,100,,,,,,,Space,keypress(Space),,,,,,,,"-- --- ---- --- ------ ----- ------- ---- -- --- ------- --<br>------- ---------- ------ -- 1727, -- ----- -- ---- ------<br>--- ----- --- --- ------ -------- ----- --- ------ ----- --<br>----- ----- ---------- --- --- ------ ------ ---- -- ------<br>------- --- ------ ----- --- ---- ------- -- ---- --- --<br>------- ------",201455.09999999963,201454.09999999963,200272.292,200285.89999999944,200289.718,201458.881,,16,"1727,"
screen,html.Screen,2_1_1_1_17,2022-05-02T11:04:12.829Z,,,,,,,,,,,,,,,,,54,,,,,,,,,,,,,,420.11900000000605,,response,,,,100,,,,,,,Space,keypress(Space),,,,,,,,-- --- ---- --- ------ ----- ------- ---- -- --- ------- --<br>------- ---------- ------ -- ----- in ----- -- ---- ------<br>--- ----- --- --- ------ -------- ----- --- ------ ----- --<br>----- ----- ---------- --- --- ------ ------ ---- -- ------<br>------- --- ------ ----- --- ---- ------- -- ---- --- --<br>------- ------,201879.89999999944,201879,201441.5,201455.39999999944,201458.881,201895.279,,17,in
screen,html.Screen,2_1_1_1_18,2022-05-02T11:04:13.234Z,,,,,,,,,,,,,,,,,54,,,,,,,,,,,,,,389.12099999943166,,response,,,,100,,,,,,,Space,keypress(Space),,,,,,,,-- --- ---- --- ------ ----- ------- ---- -- --- ------- --<br>------- ---------- ------ -- ----- -- order -- ---- ------<br>--- ----- --- --- ------ -------- ----- --- ------ ----- --<br>----- ----- ---------- --- --- ------ ------ ---- -- ------<br>------- --- ------ ----- --- ---- ------- -- ---- --- --<br>------- ------,202285.5,202284.39999999944,201877.71,201880.09999999963,201895.279,202296.649,,18,order
screen,html.Screen,2_1_1_1_19,2022-05-02T11:04:13.617Z,,,,,,,,,,,,,,,,,54,,,,,,,,,,,,,,370.55099999925005,,response,,,,100,,,,,,,Space,keypress(Space),,,,,,,,-- --- ---- --- ------ ----- ------- ---- -- --- ------- --<br>------- ---------- ------ -- ----- -- ----- to ---- ------<br>--- ----- --- --- ------ -------- ----- --- ------ ----- --<br>----- ----- ---------- --- --- ------ ------ ---- -- ------<br>------- --- ------ ----- --- ---- ------- -- ---- --- --<br>------- ------,202668.09999999963,202667.19999999925,202279.04,202285.7999999998,202296.649,202680.561,,19,to
screen,html.Screen,2_1_1_1_20,2022-05-02T11:04:13.936Z,,,,,,,,,,,,,,,,,54,,,,,,,,,,,,,,305.7389999998268,,response,,,,100,,,,,,,Space,keypress(Space),,,,,,,,-- --- ---- --- ------ ----- ------- ---- -- --- ------- --<br>------- ---------- ------ -- ----- -- ----- -- save ------<br>--- ----- --- --- ------ -------- ----- --- ------ ----- --<br>----- ----- ---------- --- --- ------ ------ ---- -- ------<br>------- --- ------ ----- --- ---- ------- -- ---- --- --<br>------- ------,202987.2999999998,202986.2999999998,202663.098,202668.39999999944,202680.561,202994.604,,20,save
screen,html.Screen,2_1_1_1_21,2022-05-02T11:04:14.265Z,,,,,,,,,,,,,,,,,54,,,,,,,,,,,,,,320.09599999926286,,response,,,,100,,,,,,,Space,keypress(Space),,,,,,,,"-- --- ---- --- ------ ----- ------- ---- -- --- ------- --<br>------- ---------- ------ -- ----- -- ----- -- ---- money,<br>--- ----- --- --- ------ -------- ----- --- ------ ----- --<br>----- ----- ---------- --- --- ------ ------ ---- -- ------<br>------- --- ------ ----- --- ---- ------- -- ---- --- --<br>------- ------",203315.89999999944,203314.69999999925,202977.021,202987.5,202994.604,203326.221,,21,"money,"
screen,html.Screen,2_1_1_1_22,2022-05-02T11:04:14.627Z,,,,,,,,,,,,,,,,,54,,,,,,,,,,,,,,351.378999999637,,response,,,,100,,,,,,,Space,keypress(Space),,,,,,,,-- --- ---- --- ------ ----- ------- ---- -- --- ------- --<br>------- ---------- ------ -- ----- -- ----- -- ---- ------<br>the ----- --- --- ------ -------- ----- --- ------ ----- --<br>----- ----- ---------- --- --- ------ ------ ---- -- ------<br>------- --- ------ ----- --- ---- ------- -- ---- --- --<br>------- ------,203678.59999999963,203677.59999999963,203308.597,203316.09999999963,203326.221,203692.671,,22,the
screen,html.Screen,2_1_1_1_23,2022-05-02T11:04:14.978Z,,,,,,,,,,,,,,,,,54,,,,,,,,,,,,,,335.9289999996254,,response,,,,100,,,,,,,Space,keypress(Space),,,,,,,,-- --- ---- --- ------ ----- ------- ---- -- --- ------- --<br>------- ---------- ------ -- ----- -- ----- -- ---- ------<br>--- state --- --- ------ -------- ----- --- ------ ----- --<br>----- ----- ---------- --- --- ------ ------ ---- -- ------<br>------- --- ------ ----- --- ---- ------- -- ---- --- --<br>------- ------,204029.59999999963,204028.59999999963,203675.202,203678.7999999998,203692.671,204041.675,,23,state
screen,html.Screen,2_1_1_1_24,2022-05-02T11:04:15.286Z,,,,,,,,,,,,,,,,,54,,,,,,,,,,,,,,293.9249999996391,,response,,,,100,,,,,,,Space,keypress(Space),,,,,,,,-- --- ---- --- ------ ----- ------- ---- -- --- ------- --<br>------- ---------- ------ -- ----- -- ----- -- ---- ------<br>--- ----- cut --- ------ -------- ----- --- ------ ----- --<br>----- ----- ---------- --- --- ------ ------ ---- -- ------<br>------- --- ------ ----- --- ---- ------- -- ---- --- --<br>------- ------,204336.69999999925,204335.59999999963,204024.169,204029.89999999944,204041.675,204366.423,,24,cut
screen,html.Screen,2_1_1_1_25,2022-05-02T11:04:15.601Z,,,,,,,,,,,,,,,,,54,,,,,,,,,,,,,,284.37699999980396,,response,,,,100,,,,,,,Space,keypress(Space),,,,,,,,-- --- ---- --- ------ ----- ------- ---- -- --- ------- --<br>------- ---------- ------ -- ----- -- ----- -- ---- ------<br>--- ----- --- the ------ -------- ----- --- ------ ----- --<br>----- ----- ---------- --- --- ------ ------ ---- -- ------<br>------- --- ------ ----- --- ---- ------- -- ---- --- --<br>------- ------,204651.59999999963,204650.7999999998,204320.833,204337,204366.423,204669.929,,25,the
screen,html.Screen,2_1_1_1_26,2022-05-02T11:04:15.969Z,,,,,,,,,,,,,,,,,54,,,,,,,,,,,,,,348.87099999981,,response,,,,100,,,,,,,Space,keypress(Space),,,,,,,,-- --- ---- --- ------ ----- ------- ---- -- --- ------- --<br>------- ---------- ------ -- ----- -- ----- -- ---- ------<br>--- ----- --- --- bonds' -------- ----- --- ------ ----- --<br>----- ----- ---------- --- --- ------ ------ ---- -- ------<br>------- --- ------ ----- --- ---- ------- -- ---- --- --<br>------- ------,205020,205018.7999999998,204652.246,204651.89999999944,204669.929,205036.366,,26,bonds'
screen,html.Screen,2_1_1_1_27,2022-05-02T11:04:16.413Z,,,,,,,,,,,,,,,,,54,,,,,,,,,,,,,,426.7339999996184,,response,,,,100,,,,,,,Space,keypress(Space),,,,,,,,-- --- ---- --- ------ ----- ------- ---- -- --- ------- --<br>------- ---------- ------ -- ----- -- ----- -- ---- ------<br>--- ----- --- --- ------ interest ----- --- ------ ----- --<br>----- ----- ---------- --- --- ------ ------ ---- -- ------<br>------- --- ------ ----- --- ---- ------- -- ---- --- --<br>------- ------,205464.19999999925,205463.09999999963,205018.847,205020.19999999925,205036.366,205472.43,,27,interest
screen,html.Screen,2_1_1_1_28,2022-05-02T11:04:16.787Z,,,,,,,,,,,,,,,,,54,,,,,,,,,,,,,,364.4699999994482,,response,,,,100,,,,,,,Space,keypress(Space),,,,,,,,-- --- ---- --- ------ ----- ------- ---- -- --- ------- --<br>------- ---------- ------ -- ----- -- ----- -- ---- ------<br>--- ----- --- --- ------ -------- rate. --- ------ ----- --<br>----- ----- ---------- --- --- ------ ------ ---- -- ------<br>------- --- ------ ----- --- ---- ------- -- ---- --- --<br>------- ------,205838,205836.89999999944,205455.172,205464.39999999944,205472.43,205873.982,,28,rate.
screen,html.Screen,2_1_1_1_29,2022-05-02T11:04:17.222Z,,,,,,,,,,,,,,,,,54,,,,,,,,,,,,,,397.91799999945215,,response,,,,100,,,,,,,Space,keypress(Space),,,,,,,,-- --- ---- --- ------ ----- ------- ---- -- --- ------- --<br>------- ---------- ------ -- ----- -- ----- -- ---- ------<br>--- ----- --- --- ------ -------- ----- The ------ ----- --<br>----- ----- ---------- --- --- ------ ------ ---- -- ------<br>------- --- ------ ----- --- ---- ------- -- ---- --- --<br>------- ------,206272.89999999944,206271.89999999944,205856.474,205838.19999999925,205873.982,206275.206,,29,The
screen,html.Screen,2_1_1_1_30,2022-05-02T11:04:17.514Z,,,,,,,,,,,,,,,,,54,,,,,,,,,,,,,,289.2939999999944,,response,,,,100,,,,,,,Space,keypress(Space),,,,,,,,-- --- ---- --- ------ ----- ------- ---- -- --- ------- --<br>------- ---------- ------ -- ----- -- ----- -- ---- ------<br>--- ----- --- --- ------ -------- ----- --- market ----- --<br>----- ----- ---------- --- --- ------ ------ ---- -- ------<br>------- --- ------ ----- --- ---- ------- -- ---- --- --<br>------- ------,206565.5,206564.5,206257.823,206273.09999999963,206275.206,206571.817,,30,market
screen,html.Screen,2_1_1_1_31,2022-05-02T11:04:17.902Z,,,,,,,,,,,,,,,,,54,,,,,,,,,,,,,,380.18299999999,,response,,,,100,,,,,,,Space,keypress(Space),,,,,,,,-- --- ---- --- ------ ----- ------- ---- -- --- ------- --<br>------- ---------- ------ -- ----- -- ----- -- ---- ------<br>--- ----- --- --- ------ -------- ----- --- ------ value --<br>----- ----- ---------- --- --- ------ ------ ---- -- ------<br>------- --- ------ ----- --- ---- ------- -- ---- --- --<br>------- ------,206953.09999999963,206952,206554.475,206565.69999999925,206571.817,206955.75,,31,value
screen,html.Screen,2_1_1_1_32,2022-05-02T11:04:18.299Z,,,,,,,,,,,,,,,,,54,,,,,,,,,,,,,,393.54999999981374,,response,,,,100,,,,,,,Space,keypress(Space),,,,,,,,-- --- ---- --- ------ ----- ------- ---- -- --- ------- --<br>------- ---------- ------ -- ----- -- ----- -- ---- ------<br>--- ----- --- --- ------ -------- ----- --- ------ ----- of<br>----- ----- ---------- --- --- ------ ------ ---- -- ------<br>------- --- ------ ----- --- ---- ------- -- ---- --- --<br>------- ------,207350.19999999925,207349.2999999998,206938.383,206953.2999999998,206955.75,207357.134,,32,of
screen,html.Screen,2_1_1_1_33,2022-05-02T11:04:18.591Z,,,,,,,,,,,,,,,,,54,,,,,,,,,,,,,,284.3660000000091,,response,,,,100,,,,,,,Space,keypress(Space),,,,,,,,-- --- ---- --- ------ ----- ------- ---- -- --- ------- --<br>------- ---------- ------ -- ----- -- ----- -- ---- ------<br>--- ----- --- --- ------ -------- ----- --- ------ ----- --<br>these ----- ---------- --- --- ------ ------ ---- -- ------<br>------- --- ------ ----- --- ---- ------- -- ---- --- --<br>------- ------,207642.39999999944,207641.5,207339.743,207350.5,207357.134,207653.912,,33,these
screen,html.Screen,2_1_1_1_34,2022-05-02T11:04:18.946Z,,,,,,,,,,,,,,,,,54,,,,,,,,,,,,,,342.38799999980256,,response,,,,100,,,,,,,Space,keypress(Space),,,,,,,,-- --- ---- --- ------ ----- ------- ---- -- --- ------- --<br>------- ---------- ------ -- ----- -- ----- -- ---- ------<br>--- ----- --- --- ------ -------- ----- --- ------ ----- --<br>----- bonds ---------- --- --- ------ ------ ---- -- ------<br>------- --- ------ ----- --- ---- ------- -- ---- --- --<br>------- ------,207997.2999999998,207996.2999999998,207636.404,207643.59999999963,207653.912,208002.72,,34,bonds
screen,html.Screen,2_1_1_1_35,2022-05-02T11:04:19.339Z,,,,,,,,,,,,,,,,,54,,,,,,,,,,,,,,386.07999999981257,,response,,,,100,,,,,,,Space,keypress(Space),,,,,,,,"-- --- ---- --- ------ ----- ------- ---- -- --- ------- --<br>------- ---------- ------ -- ----- -- ----- -- ---- ------<br>--- ----- --- --- ------ -------- ----- --- ------ ----- --<br>----- ----- plummeted, --- --- ------ ------ ---- -- ------<br>------- --- ------ ----- --- ---- ------- -- ---- --- --<br>------- ------",208389.7999999998,208388.7999999998,207985.325,207997.59999999963,208002.72,208404.292,,35,"plummeted,"
screen,html.Screen,2_1_1_1_36,2022-05-02T11:04:19.763Z,,,,,,,,,,,,,,,,,54,,,,,,,,,,,,,,408.70800000001327,,response,,,,100,,,,,,,Space,keypress(Space),,,,,,,,-- --- ---- --- ------ ----- ------- ---- -- --- ------- --<br>------- ---------- ------ -- ----- -- ----- -- ---- ------<br>--- ----- --- --- ------ -------- ----- --- ------ ----- --<br>----- ----- ---------- and --- ------ ------ ---- -- ------<br>------- --- ------ ----- --- ---- ------- -- ---- --- --<br>------- ------,208814.09999999963,208813,208386.882,208390.09999999963,208404.292,208823.017,,36,and
screen,html.Screen,2_1_1_1_37,2022-05-02T11:04:20.111Z,,,,,,,,,,,,,,,,,54,,,,,,,,,,,,,,338.0829999996349,,response,,,,100,,,,,,,Space,keypress(Space),,,,,,,,-- --- ---- --- ------ ----- ------- ---- -- --- ------- --<br>------- ---------- ------ -- ----- -- ----- -- ---- ------<br>--- ----- --- --- ------ -------- ----- --- ------ ----- --<br>----- ----- ---------- --- the ------ ------ ---- -- ------<br>------- --- ------ ----- --- ---- ------- -- ---- --- --<br>------- ------,209162.09999999963,209161.09999999963,208805.62,208814.2999999998,208823.017,209172.076,,37,the
screen,html.Screen,2_1_1_1_38,2022-05-02T11:04:20.443Z,,,,,,,,,,,,,,,,,54,,,,,,,,,,,,,,321.123999999254,,response,,,,100,,,,,,,Space,keypress(Space),,,,,,,,-- --- ---- --- ------ ----- ------- ---- -- --- ------- --<br>------- ---------- ------ -- ----- -- ----- -- ---- ------<br>--- ----- --- --- ------ -------- ----- --- ------ ----- --<br>----- ----- ---------- --- --- market ------ ---- -- ------<br>------- --- ------ ----- --- ---- ------- -- ---- --- --<br>------- ------,209494.2999999998,209493.19999999925,209154.59,209162.2999999998,209172.076,209503.665,,38,market
screen,html.Screen,2_1_1_1_39,2022-05-02T11:04:20.792Z,,,,,,,,,,,,,,,,,54,,,,,,,,,,,,,,338.9349999996193,,response,,,,100,,,,,,,Space,keypress(Space),,,,,,,,-- --- ---- --- ------ ----- ------- ---- -- --- ------- --<br>------- ---------- ------ -- ----- -- ----- -- ---- ------<br>--- ----- --- --- ------ -------- ----- --- ------ ----- --<br>----- ----- ---------- --- --- ------ became ---- -- ------<br>------- --- ------ ----- --- ---- ------- -- ---- --- --<br>------- ------,209843.59999999963,209842.59999999963,209486.148,209494.5,209503.665,209852.548,,39,became
screen,html.Screen,2_1_1_1_40,2022-05-02T11:04:21.157Z,,,,,,,,,,,,,,,,,54,,,,,,,,,,,,,,354.15199999924516,,response,,,,100,,,,,,,Space,keypress(Space),,,,,,,,-- --- ---- --- ------ ----- ------- ---- -- --- ------- --<br>------- ---------- ------ -- ----- -- ----- -- ---- ------<br>--- ----- --- --- ------ -------- ----- --- ------ ----- --<br>----- ----- ---------- --- --- ------ ------ wary -- ------<br>------- --- ------ ----- --- ---- ------- -- ---- --- --<br>------- ------,210207.69999999925,210206.69999999925,209835.152,209843.7999999998,209852.548,210219.115,,40,wary
screen,html.Screen,2_1_1_1_41,2022-05-02T11:04:21.490Z,,,,,,,,,,,,,,,,,54,,,,,,,,,,,,,,320.68499999982305,,response,,,,100,,,,,,,Space,keypress(Space),,,,,,,,-- --- ---- --- ------ ----- ------- ---- -- --- ------- --<br>------- ---------- ------ -- ----- -- ----- -- ---- ------<br>--- ----- --- --- ------ -------- ----- --- ------ ----- --<br>----- ----- ---------- --- --- ------ ------ ---- of ------<br>------- --- ------ ----- --- ---- ------- -- ---- --- --<br>------- ------,210540.7999999998,210539.7999999998,210201.609,210207.89999999944,210219.115,210550.663,,41,of
screen,html.Screen,2_1_1_1_42,2022-05-02T11:04:21.905Z,,,,,,,,,,,,,,,,,54,,,,,,,,,,,,,,404.33699999999953,,response,,,,100,,,,,,,Space,keypress(Space),,,,,,,,-- --- ---- --- ------ ----- ------- ---- -- --- ------- --<br>------- ---------- ------ -- ----- -- ----- -- ---- ------<br>--- ----- --- --- ------ -------- ----- --- ------ ----- --<br>----- ----- ---------- --- --- ------ ------ ---- -- French<br>------- --- ------ ----- --- ---- ------- -- ---- --- --<br>------- ------,210956,210955,210533.066,210541,210550.663,210969.603,,42,French
screen,html.Screen,2_1_1_1_43,2022-05-02T11:04:22.313Z,,,,,,,,,,,,,,,,,54,,,,,,,,,,,,,,393.2969999994384,,response,,,,100,,,,,,,Space,keypress(Space),,,,,,,,-- --- ---- --- ------ ----- ------- ---- -- --- ------- --<br>------- ---------- ------ -- ----- -- ----- -- ---- ------<br>--- ----- --- --- ------ -------- ----- --- ------ ----- --<br>----- ----- ---------- --- --- ------ ------ ---- -- ------<br>credit. --- ------ ----- --- ---- ------- -- ---- --- --<br>------- ------,211363.89999999944,211362.89999999944,210951.972,210956.19999999925,210969.603,211370.654,,43,credit.
screen,html.Screen,2_1_1_1_44,2022-05-02T11:04:22.784Z,,,,,,,,,,,,,,,,,54,,,,,,,,,,,,,,463.5459999992454,,response,,,,100,,,,,,,Space,keypress(Space),,,,,,,,-- --- ---- --- ------ ----- ------- ---- -- --- ------- --<br>------- ---------- ------ -- ----- -- ----- -- ---- ------<br>--- ----- --- --- ------ -------- ----- --- ------ ----- --<br>----- ----- ---------- --- --- ------ ------ ---- -- ------<br>------- The ------ ----- --- ---- ------- -- ---- --- --<br>------- ------,211835.2999999998,211834.19999999925,211353.328,211364.09999999963,211370.654,211841.852,,44,The
screen,html.Screen,2_1_1_1_45,2022-05-02T11:04:23.148Z,,,,,,,,,,,,,,,,,54,,,,,,,,,,,,,,356.44799999980023,,response,,,,100,,,,,,,Space,keypress(Space),,,,,,,,-- --- ---- --- ------ ----- ------- ---- -- --- ------- --<br>------- ---------- ------ -- ----- -- ----- -- ---- ------<br>--- ----- --- --- ------ -------- ----- --- ------ ----- --<br>----- ----- ---------- --- --- ------ ------ ---- -- ------<br>------- --- French ----- --- ---- ------- -- ---- --- --<br>------- ------,212199.19999999925,212198.2999999998,211824.45,211835.5,211841.852,212208.337,,45,French
screen,html.Screen,2_1_1_1_46,2022-05-02T11:04:23.492Z,,,,,,,,,,,,,,,,,54,,,,,,,,,,,,,,333.26299999962794,,response,,,,100,,,,,,,Space,keypress(Space),,,,,,,,-- --- ---- --- ------ ----- ------- ---- -- --- ------- --<br>------- ---------- ------ -- ----- -- ----- -- ---- ------<br>--- ----- --- --- ------ -------- ----- --- ------ ----- --<br>----- ----- ---------- --- --- ------ ------ ---- -- ------<br>------- --- ------ state --- ---- ------- -- ---- --- --<br>------- ------,212542.69999999925,212541.59999999963,212191.005,212199.5,212208.337,212557.479,,46,state
screen,html.Screen,2_1_1_1_47,2022-05-02T11:04:23.897Z,,,,,,,,,,,,,,,,,54,,,,,,,,,,,,,,389.4209999994491,,response,,,,100,,,,,,,Space,keypress(Space),,,,,,,,-- --- ---- --- ------ ----- ------- ---- -- --- ------- --<br>------- ---------- ------ -- ----- -- ----- -- ---- ------<br>--- ----- --- --- ------ -------- ----- --- ------ ----- --<br>----- ----- ---------- --- --- ------ ------ ---- -- ------<br>------- --- ------ ----- was ---- ------- -- ---- --- --<br>------- ------,212947.89999999944,212946.89999999944,212539.948,212542.89999999944,212557.479,212958.84,,47,was
screen,html.Screen,2_1_1_1_48,2022-05-02T11:04:24.248Z,,,,,,,,,,,,,,,,,54,,,,,,,,,,,,,,339.4599999998172,,response,,,,100,,,,,,,Space,keypress(Space),,,,,,,,-- --- ---- --- ------ ----- ------- ---- -- --- ------- --<br>------- ---------- ------ -- ----- -- ----- -- ---- ------<br>--- ----- --- --- ------ -------- ----- --- ------ ----- --<br>----- ----- ---------- --- --- ------ ------ ---- -- ------<br>------- --- ------ ----- --- left ------- -- ---- --- --<br>------- ------,213299.19999999925,213298.2999999998,212941.37,212948.19999999925,212958.84,213307.89,,48,left
screen,html.Screen,2_1_1_1_49,2022-05-02T11:04:24.544Z,,,,,,,,,,,,,,,,,54,,,,,,,,,,,,,,286.40999999979977,,response,,,,100,,,,,,,Space,keypress(Space),,,,,,,,-- --- ---- --- ------ ----- ------- ---- -- --- ------- --<br>------- ---------- ------ -- ----- -- ----- -- ---- ------<br>--- ----- --- --- ------ -------- ----- --- ------ ----- --<br>----- ----- ---------- --- --- ------ ------ ---- -- ------<br>------- --- ------ ----- --- ---- without -- ---- --- --<br>------- ------,213595.2999999998,213594.2999999998,213290.288,213299.5,213307.89,213604.479,,49,without
screen,html.Screen,2_1_1_1_50,2022-05-02T11:04:24.888Z,,,,,,,,,,,,,,,,,54,,,,,,,,,,,,,,333.22099999926286,,response,,,,100,,,,,,,Space,keypress(Space),,,,,,,,-- --- ---- --- ------ ----- ------- ---- -- --- ------- --<br>------- ---------- ------ -- ----- -- ----- -- ---- ------<br>--- ----- --- --- ------ -------- ----- --- ------ ----- --<br>----- ----- ---------- --- --- ------ ------ ---- -- ------<br>------- --- ------ ----- --- ---- ------- an ---- --- --<br>------- ------,213938.7999999998,213937.69999999925,213587.023,213595.39999999944,213604.479,213953.501,,50,an
screen,html.Screen,2_1_1_1_51,2022-05-02T11:04:25.252Z,,,,,,,,,,,,,,,,,54,,,,,,,,,,,,,,348.8989999994519,,response,,,,100,,,,,,,Space,keypress(Space),,,,,,,,-- --- ---- --- ------ ----- ------- ---- -- --- ------- --<br>------- ---------- ------ -- ----- -- ----- -- ---- ------<br>--- ----- --- --- ------ -------- ----- --- ------ ----- --<br>----- ----- ---------- --- --- ------ ------ ---- -- ------<br>------- --- ------ ----- --- ---- ------- -- easy --- --<br>------- ------,214303.2999999998,214302.39999999944,213935.981,213939,213953.501,214319.941,,51,easy
screen,html.Screen,2_1_1_1_52,2022-05-02T11:04:25.606Z,,,,,,,,,,,,,,,,,54,,,,,,,,,,,,,,336.65899999963585,,response,,,,100,,,,,,,Space,keypress(Space),,,,,,,,-- --- ---- --- ------ ----- ------- ---- -- --- ------- --<br>------- ---------- ------ -- ----- -- ----- -- ---- ------<br>--- ----- --- --- ------ -------- ----- --- ------ ----- --<br>----- ----- ---------- --- --- ------ ------ ---- -- ------<br>------- --- ------ ----- --- ---- ------- -- ---- way --<br>------- ------,214657.5,214656.59999999963,214302.523,214303.59999999963,214319.941,214668.853,,52,way
screen,html.Screen,2_1_1_1_53,2022-05-02T11:04:25.987Z,,,,,,,,,,,,,,,,,54,,,,,,,,,,,,,,367.84699999925215,,response,,,,100,,,,,,,Space,keypress(Space),,,,,,,,-- --- ---- --- ------ ----- ------- ---- -- --- ------- --<br>------- ---------- ------ -- ----- -- ----- -- ---- ------<br>--- ----- --- --- ------ -------- ----- --- ------ ----- --<br>----- ----- ---------- --- --- ------ ------ ---- -- ------<br>------- --- ------ ----- --- ---- ------- -- ---- --- of<br>------- ------,215037.7999999998,215036.69999999925,214651.457,214657.69999999925,214668.853,215052.868,,53,of
screen,html.Screen,2_1_1_1_54,2022-05-02T11:04:26.368Z,,,,,,,,,,,,,,,,,54,,,,,,,,,,,,,,365.03199999945355,,response,,,,100,,,,,,,Space,keypress(Space),,,,,,,,-- --- ---- --- ------ ----- ------- ---- -- --- ------- --<br>------- ---------- ------ -- ----- -- ----- -- ---- ------<br>--- ----- --- --- ------ -------- ----- --- ------ ----- --<br>----- ----- ---------- --- --- ------ ------ ---- -- ------<br>------- --- ------ ----- --- ---- ------- -- ---- --- --<br>raising ------,215418.7999999998,215417.89999999944,215035.372,215038.09999999963,215052.868,215436.786,,54,raising
screen,html.Screen,2_1_1_1_55,2022-05-02T11:04:26.976Z,,,,,,,,,,,,,,,,,54,,,,,,,,,,,,,,589.8139999996347,,response,,,,100,,,,,,,Space,keypress(Space),,,,,,,,-- --- ---- --- ------ ----- ------- ---- -- --- ------- --<br>------- ---------- ------ -- ----- -- ----- -- ---- ------<br>--- ----- --- --- ------ -------- ----- --- ------ ----- --<br>----- ----- ---------- --- --- ------ ------ ---- -- ------<br>------- --- ------ ----- --- ---- ------- -- ---- --- --<br>------- money.,216027.5,216026.59999999963,215419.31,215419.09999999963,215436.786,216048.157,,55,money.
Item 100,flow.Loop,2_1_1_1,2022-05-02T11:04:26.977Z,,,,,,,,,,,,,,,,,,,,,,,,,,,,,,,22193.391999999614,,completion,,,,,E,,,,,,,,,,,silence,,,,,216027.89999999944,216026.59999999963,193815.693,193816.89999999944,193833.208,216048.157,,,
Question 1,html.Screen,2_1_1_2,2022-05-02T11:04:29.441Z,,,,,,,,,,,,,,,,,,,,,,,,,,,,true,TRUE,,2441.3429999999935,,response,,,,100,E,,,,,,TRUE,click #choice-1,,,,silence,,,,,218492,218489.5,216012.586,216028,216048.157,218508.152,,,
Question 2,html.Screen,2_1_1_3,2022-05-02T11:04:31.633Z,,,,,,,,,,,,,,,,,,,,,,,,,,,,true,FALSE,,2174.047999999253,,response,,,,100,E,,,,,,FALSE,click #choice-2,,,,silence,,,,,220683.69999999925,220682.19999999925,218490.55,218492.19999999925,218508.152,220689.182,,,
Item 100,flow.Sequence,2_1_1,2022-05-02T11:04:31.633Z,,,,,,,,,,,,,,,,,,,,,,,,,,,,,,,36848.286999999254,,completion,,,,,,,,,,,,,,,,,,,,,220684.09999999963,220682.19999999925,183816.575,183829,183833.913,220689.182,,,
End of Practice,html.Page,2_1_2,2022-05-02T11:04:34.618Z,,,,,,,,,,,,,,,,,,,,,,,,,,,,,,,2979.2179999994405,,form submission,,,,,,,,,,,,,,,,,,,,,223669,223668.39999999944,220671.848,220684.2999999998,220689.182,223673.193,,,
Practice,flow.Sequence,2_1,2022-05-02T11:04:34.618Z,,,,,,,,,,,,,,,,,,,,,,,,,,,,,,,78661.58099999945,,completion,,,,,,,,,,,,,,,,,,,,,223669.2999999998,223668.39999999944,144989.486,145004.5,145006.819,223673.193,,,
Trap_instruction,html.Page,2_2_0,2022-05-02T11:04:38.621Z,,,,,,,,,,,,,,,,,,,,,,,,,,,,,,,3998.6069999998144,,form submission,,,,,,,,,,,,,,,,,,,,,227672.39999999944,227671.7999999998,223655.868,223669.39999999944,223673.193,227704.22,,,
trap_trial,html.Screen,2_2_1,2022-05-02T11:04:42.076Z,,,,,,,,,,,,,,,,,,,,,,,,,,,,true,1,,3421.3799999996263,,response,,,,,,,,,,,1,click #choice-1,,,,,,,,,231127.2999999998,231125.59999999963,227669.395,227672.59999999963,227704.22,231142.033,,,
end of trap trial,html.Page,2_2_2,2022-05-02T11:04:43.951Z,,,,,,,,,,,,,,,,,,,,,,,,,,,,,,,1860.1669999992591,,form submission,,,,,,,,,,,,,,,,,,,,,233002.59999999963,233002.19999999925,231124.515,231127.59999999963,231142.033,233009.145,,,
Trap 1,flow.Sequence,2_2,2022-05-02T11:04:43.952Z,,,,,,,,,,,,,,,,,,,,,,,,,,,,,,,9329.006999999256,,completion,,,,,,,,,,,,,,,,,,,,,233002.89999999944,233002.19999999925,223655.868,223669.39999999944,223673.193,233009.145,,,
Standby,html.Page,2_3_0,2022-05-02T11:04:51.934Z,,,,,,,,,,,,,,,,,,,,,,,,,,,,,,,7992.296000000002,,timeout,,,,,,,,,,,,,,,,,,,,,240985.09999999963,240984.105,232991.794,233003.09999999963,233009.145,241001.441,,,
Holding screen,html.Screen,2_3_1_0_0,2022-05-02T11:04:58.932Z,,,,,,,,,,,,,,,,,,,,,,,,,,,,,,,6997.738000000012,,timeout,,,,,,,,,,,,,,,,,,,,,247982.69999999925,247981.632,240984.105,240985.5,241001.441,247999.179,,,
screen,html.Screen,2_3_1_0_1_0,2022-05-02T11:04:59.766Z,,,,,,,,,,,,,,,,,2,,,,,,,,,,,,,,815.4209999996237,,response,,,,1,E,,,,,,Space,keypress(Space),,,,silence,,,,Two ---- ------ --- ------- ---------- ------- ----------<br>--- --------- --- ----------- ------- ----- ------- ---<br>--------- ---- -- --- ---- -- --------- -- ---- -------<br>-- --------- ------ --- ----- ------ ---- --- --------- --<br>------ - ---- -- --- ----------- ------- ---- ----- -----<br>--- -------- - ------ ---- -- ----- ---- --- --- -----------<br>-- -------,248816,248814.59999999963,247981.632,247982.89999999944,247999.179,248819.234,,0,Two
screen,html.Screen,2_3_1_0_1_1,2022-05-02T11:05:00.099Z,,,,,,,,,,,,,,,,,2,,,,,,,,,,,,,,329.065999999817,,response,,,,1,E,,,,,,Space,keypress(Space),,,,silence,,,,--- days ------ --- ------- ---------- ------- ----------<br>--- --------- --- ----------- ------- ----- ------- ---<br>--------- ---- -- --- ---- -- --------- -- ---- -------<br>-- --------- ------ --- ----- ------ ---- --- --------- --<br>------ - ---- -- --- ----------- ------- ---- ----- -----<br>--- -------- - ------ ---- -- ----- ---- --- --- -----------<br>-- -------,249149.39999999944,249148.2999999998,248801.718,248816.19999999925,248819.234,249182.559,,1,days
screen,html.Screen,2_3_1_0_1_2,2022-05-02T11:05:00.439Z,,,,,,,,,,,,,,,,,2,,,,,,,,,,,,,,305.14099999924656,,response,,,,1,E,,,,,,Space,keypress(Space),,,,silence,,,,"--- ---- later, --- ------- ---------- ------- ----------<br>--- --------- --- ----------- ------- ----- ------- ---<br>--------- ---- -- --- ---- -- --------- -- ---- -------<br>-- --------- ------ --- ----- ------ ---- --- --------- --<br>------ - ---- -- --- ----------- ------- ---- ----- -----<br>--- -------- - ------ ---- -- ----- ---- --- --- -----------<br>-- -------",249488.7999999998,249487.69999999925,249133.434,249149.5,249182.559,249499.914,,2,"later,"
screen,html.Screen,2_3_1_0_1_3,2022-05-02T11:05:00.743Z,,,,,,,,,,,,,,,,,2,,,,,,,,,,,,,,292.08600000001024,,response,,,,1,E,,,,,,Space,keypress(Space),,,,silence,,,,--- ---- ------ the ------- ---------- ------- ----------<br>--- --------- --- ----------- ------- ----- ------- ---<br>--------- ---- -- --- ---- -- --------- -- ---- -------<br>-- --------- ------ --- ----- ------ ---- --- --------- --<br>------ - ---- -- --- ----------- ------- ---- ----- -----<br>--- -------- - ------ ---- -- ----- ---- --- --- -----------<br>-- -------,249793.19999999925,249792,249482.444,249489,249499.914,249796.464,,3,the
screen,html.Screen,2_3_1_0_1_4,2022-05-02T11:05:01.101Z,,,,,,,,,,,,,,,,,2,,,,,,,,,,,,,,353.435999999434,,response,,,,1,E,,,,,,Space,keypress(Space),,,,silence,,,,--- ---- ------ --- British ---------- ------- ----------<br>--- --------- --- ----------- ------- ----- ------- ---<br>--------- ---- -- --- ---- -- --------- -- ---- -------<br>-- --------- ------ --- ----- ------ ---- --- --------- --<br>------ - ---- -- --- ----------- ------- ---- ----- -----<br>--- -------- - ------ ---- -- ----- ---- --- --- -----------<br>-- -------,250151,250149.89999999944,249779.124,249793.39999999944,249796.464,250163.082,,4,British
screen,html.Screen,2_3_1_0_1_5,2022-05-02T11:05:01.433Z,,,,,,,,,,,,,,,,,2,,,,,,,,,,,,,,319.4180000000051,,response,,,,1,E,,,,,,Space,keypress(Space),,,,silence,,,,--- ---- ------ --- ------- astronomer ------- ----------<br>--- --------- --- ----------- ------- ----- ------- ---<br>--------- ---- -- --- ---- -- --------- -- ---- -------<br>-- --------- ------ --- ----- ------ ---- --- --------- --<br>------ - ---- -- --- ----------- ------- ---- ----- -----<br>--- -------- - ------ ---- -- ----- ---- --- --- -----------<br>-- -------,250483.59999999963,250482.5,250145.554,250151.19999999925,250163.082,250494.528,,5,astronomer
screen,html.Screen,2_3_1_0_1_6,2022-05-02T11:05:01.846Z,,,,,,,,,,,,,,,,,2,,,,,,,,,,,,,,400.47200000000885,,response,,,,1,E,,,,,,Space,keypress(Space),,,,silence,,,,--- ---- ------ --- ------- ---------- Richard ----------<br>--- --------- --- ----------- ------- ----- ------- ---<br>--------- ---- -- --- ---- -- --------- -- ---- -------<br>-- --------- ------ --- ----- ------ ---- --- --------- --<br>------ - ---- -- --- ----------- ------- ---- ----- -----<br>--- -------- - ------ ---- -- ----- ---- --- --- -----------<br>-- -------,250896.09999999963,250895,250477.116,250483.7999999998,250494.528,250913.433,,6,Richard
screen,html.Screen,2_3_1_0_1_7,2022-05-02T11:05:02.212Z,,,,,,,,,,,,,,,,,2,,,,,,,,,,,,,,347.4669999994512,,response,,,,1,E,,,,,,Space,keypress(Space),,,,silence,,,,--- ---- ------ --- ------- ---------- ------- Carrington<br>--- --------- --- ----------- ------- ----- ------- ---<br>--------- ---- -- --- ---- -- --------- -- ---- -------<br>-- --------- ------ --- ----- ------ ---- --- --------- --<br>------ - ---- -- --- ----------- ------- ---- ----- -----<br>--- -------- - ------ ---- -- ----- ---- --- --- -----------<br>-- -------,251261.89999999944,251260.89999999944,250895.849,250896.2999999998,250913.433,251279.782,,7,Carrington
screen,html.Screen,2_3_1_0_1_8,2022-05-02T11:05:02.662Z,,,,,,,,,,,,,,,,,2,,,,,,,,,,,,,,431.7179999999935,,response,,,,1,E,,,,,,Space,keypress(Space),,,,silence,,,,--- ---- ------ --- ------- ---------- ------- ----------<br>was --------- --- ----------- ------- ----- ------- ---<br>--------- ---- -- --- ---- -- --------- -- ---- -------<br>-- --------- ------ --- ----- ------ ---- --- --------- --<br>------ - ---- -- --- ----------- ------- ---- ----- -----<br>--- -------- - ------ ---- -- ----- ---- --- --- -----------<br>-- -------,251712.69999999925,251711.5,251262.358,251262.19999999925,251279.782,251716.012,,8,was
screen,html.Screen,2_3_1_0_1_9,2022-05-02T11:05:02.978Z,,,,,,,,,,,,,,,,,2,,,,,,,,,,,,,,310.9880000000121,,response,,,,1,E,,,,,,Space,keypress(Space),,,,silence,,,,--- ---- ------ --- ------- ---------- ------- ----------<br>--- observing --- ----------- ------- ----- ------- ---<br>--------- ---- -- --- ---- -- --------- -- ---- -------<br>-- --------- ------ --- ----- ------ ---- --- --------- --<br>------ - ---- -- --- ----------- ------- ---- ----- -----<br>--- -------- - ------ ---- -- ----- ---- --- --- -----------<br>-- -------,252028,252027,251698.593,251712.89999999944,251716.012,252030.092,,9,observing
screen,html.Screen,2_3_1_0_1_10,2022-05-02T11:05:03.358Z,,,,,,,,,,,,,,,,,2,,,,,,,,,,,,,,377.0079999996233,,response,,,,1,E,,,,,,Space,keypress(Space),,,,silence,,,,--- ---- ------ --- ------- ---------- ------- ----------<br>--- --------- the ----------- ------- ----- ------- ---<br>--------- ---- -- --- ---- -- --------- -- ---- -------<br>-- --------- ------ --- ----- ------ ---- --- --------- --<br>------ - ---- -- --- ----------- ------- ---- ----- -----<br>--- -------- - ------ ---- -- ----- ---- --- --- -----------<br>-- -------,252408.19999999925,252407.09999999963,252012.608,252028.2999999998,252030.092,252414.022,,10,the
screen,html.Screen,2_3_1_0_1_11,2022-05-02T11:05:04.121Z,,,,,,,,,,,,,,,,,2,,,,,,,,,,,,,,755.7779999998165,,response,,,,1,E,,,,,,Space,keypress(Space),,,,silence,,,,--- ---- ------ --- ------- ---------- ------- ----------<br>--- --------- --- interesting ------- ----- ------- ---<br>--------- ---- -- --- ---- -- --------- -- ---- -------<br>-- --------- ------ --- ----- ------ ---- --- --------- --<br>------ - ---- -- --- ----------- ------- ---- ----- -----<br>--- -------- - ------ ---- -- ----- ---- --- --- -----------<br>-- -------,253170.7999999998,253169.7999999998,252396.66,252408.39999999944,252414.022,253181.996,,11,interesting
screen,html.Screen,2_3_1_0_1_12,2022-05-02T11:05:04.551Z,,,,,,,,,,,,,,,,,2,,,,,,,,,,,,,,418.2039999992412,,response,,,,1,E,,,,,,Space,keypress(Space),,,,silence,,,,--- ---- ------ --- ------- ---------- ------- ----------<br>--- --------- --- ----------- sunspot ----- ------- ---<br>--------- ---- -- --- ---- -- --------- -- ---- -------<br>-- --------- ------ --- ----- ------ ---- --- --------- --<br>------ - ---- -- --- ----------- ------- ---- ----- -----<br>--- -------- - ------ ---- -- ----- ---- --- --- -----------<br>-- -------,253601.19999999925,253600.19999999925,253164.413,253171,253181.996,253618.261,,12,sunspot
screen,html.Screen,2_3_1_0_1_13,2022-05-02T11:05:05.203Z,,,,,,,,,,,,,,,,,2,,,,,,,,,,,,,,633.5389999998151,,response,,,,1,E,,,,,,Space,keypress(Space),,,,silence,,,,--- ---- ------ --- ------- ---------- ------- ----------<br>--- --------- --- ----------- ------- group ------- ---<br>--------- ---- -- --- ---- -- --------- -- ---- -------<br>-- --------- ------ --- ----- ------ ---- --- --------- --<br>------ - ---- -- --- ----------- ------- ---- ----- -----<br>--- -------- - ------ ---- -- ----- ---- --- --- -----------<br>-- -------,254252.89999999944,254251.7999999998,253600.688,253601.2999999998,253618.261,254263.923,,13,group
screen,html.Screen,2_3_1_0_1_14,2022-05-02T11:05:05.576Z,,,,,,,,,,,,,,,,,2,,,,,,,,,,,,,,361.27699999924516,,response,,,,1,E,,,,,,Space,keypress(Space),,,,silence,,,,--- ---- ------ --- ------- ---------- ------- ----------<br>--- --------- --- ----------- ------- ----- through ---<br>--------- ---- -- --- ---- -- --------- -- ---- -------<br>-- --------- ------ --- ----- ------ ---- --- --------- --<br>------ - ---- -- --- ----------- ------- ---- ----- -----<br>--- -------- - ------ ---- -- ----- ---- --- --- -----------<br>-- -------,254626.59999999963,254625.19999999925,254246.388,254253.09999999963,254263.923,254630.21,,14,through
screen,html.Screen,2_3_1_0_1_15,2022-05-02T11:05:05.899Z,,,,,,,,,,,,,,,,,2,,,,,,,,,,,,,,317.68999999944936,,response,,,,1,E,,,,,,Space,keypress(Space),,,,silence,,,,--- ---- ------ --- ------- ---------- ------- ----------<br>--- --------- --- ----------- ------- ----- ------- his<br>--------- ---- -- --- ---- -- --------- -- ---- -------<br>-- --------- ------ --- ----- ------ ---- --- --------- --<br>------ - ---- -- --- ----------- ------- ---- ----- -----<br>--- -------- - ------ ---- -- ----- ---- --- --- -----------<br>-- -------,254949,254947.89999999944,254612.858,254626.69999999925,254630.21,254961.941,,15,his
screen,html.Screen,2_3_1_0_1_16,2022-05-02T11:05:06.232Z,,,,,,,,,,,,,,,,,2,,,,,,,,,,,,,,319.2589999992633,,response,,,,1,E,,,,,,Space,keypress(Space),,,,silence,,,,--- ---- ------ --- ------- ---------- ------- ----------<br>--- --------- --- ----------- ------- ----- ------- ---<br>telescope ---- -- --- ---- -- --------- -- ---- -------<br>-- --------- ------ --- ----- ------ ---- --- --------- --<br>------ - ---- -- --- ----------- ------- ---- ----- -----<br>--- -------- - ------ ---- -- ----- ---- --- --- -----------<br>-- -------,255282.19999999925,255281.19999999925,254944.34,254949.2999999998,254961.941,255293.496,,16,telescope
screen,html.Screen,2_3_1_0_1_17,2022-05-02T11:05:06.587Z,,,,,,,,,,,,,,,,,2,,,,,,,,,,,,,,342.3039999998,,response,,,,1,E,,,,,,Space,keypress(Space),,,,silence,,,,--- ---- ------ --- ------- ---------- ------- ----------<br>--- --------- --- ----------- ------- ----- ------- ---<br>--------- when -- --- ---- -- --------- -- ---- -------<br>-- --------- ------ --- ----- ------ ---- --- --------- --<br>------ - ---- -- --- ----------- ------- ---- ----- -----<br>--- -------- - ------ ---- -- ----- ---- --- --- -----------<br>-- -------,255636.7999999998,255635.7999999998,255276.014,255282.2999999998,255293.496,255642.296,,17,when
screen,html.Screen,2_3_1_0_1_18,2022-05-02T11:05:06.882Z,,,,,,,,,,,,,,,,,2,,,,,,,,,,,,,,288.8039999996254,,response,,,,1,E,,,,,,Space,keypress(Space),,,,silence,,,,--- ---- ------ --- ------- ---------- ------- ----------<br>--- --------- --- ----------- ------- ----- ------- ---<br>--------- ---- he --- ---- -- --------- -- ---- -------<br>-- --------- ------ --- ----- ------ ---- --- --------- --<br>------ - ---- -- --- ----------- ------- ---- ----- -----<br>--- -------- - ------ ---- -- ----- ---- --- --- -----------<br>-- -------,255932.19999999925,255931.09999999963,255624.934,255637,255642.296,255939.017,,18,he
screen,html.Screen,2_3_1_0_1_19,2022-05-02T11:05:07.192Z,,,,,,,,,,,,,,,,,2,,,,,,,,,,,,,,301.6829999992624,,response,,,,1,E,,,,,,Space,keypress(Space),,,,silence,,,,--- ---- ------ --- ------- ---------- ------- ----------<br>--- --------- --- ----------- ------- ----- ------- ---<br>--------- ---- -- saw ---- -- --------- -- ---- -------<br>-- --------- ------ --- ----- ------ ---- --- --------- --<br>------ - ---- -- --- ----------- ------- ---- ----- -----<br>--- -------- - ------ ---- -- ----- ---- --- --- -----------<br>-- -------,256241.7999999998,256240.69999999925,255921.66,255932.39999999944,255939.017,256253.274,,19,saw
screen,html.Screen,2_3_1_0_1_20,2022-05-02T11:05:07.489Z,,,,,,,,,,,,,,,,,2,,,,,,,,,,,,,,285.42599999925005,,response,,,,1,E,,,,,,Space,keypress(Space),,,,silence,,,,--- ---- ------ --- ------- ---------- ------- ----------<br>--- --------- --- ----------- ------- ----- ------- ---<br>--------- ---- -- --- what -- --------- -- ---- -------<br>-- --------- ------ --- ----- ------ ---- --- --------- --<br>------ - ---- -- --- ----------- ------- ---- ----- -----<br>--- -------- - ------ ---- -- ----- ---- --- --- -----------<br>-- -------,256539.7999999998,256538.69999999925,256235.674,256242,256253.274,256549.817,,20,what
screen,html.Screen,2_3_1_0_1_21,2022-05-02T11:05:07.782Z,,,,,,,,,,,,,,,,,2,,,,,,,,,,,,,,281.18299999999,,response,,,,1,E,,,,,,Space,keypress(Space),,,,silence,,,,--- ---- ------ --- ------- ---------- ------- ----------<br>--- --------- --- ----------- ------- ----- ------- ---<br>--------- ---- -- --- ---- he --------- -- ---- -------<br>-- --------- ------ --- ----- ------ ---- --- --------- --<br>------ - ---- -- --- ----------- ------- ---- ----- -----<br>--- -------- - ------ ---- -- ----- ---- --- --- -----------<br>-- -------,256832,256831,256532.403,256539.89999999944,256549.817,256846.582,,21,he
screen,html.Screen,2_3_1_0_1_22,2022-05-02T11:05:08.125Z,,,,,,,,,,,,,,,,,2,,,,,,,,,,,,,,327.11799999926006,,response,,,,1,E,,,,,,Space,keypress(Space),,,,silence,,,,--- ---- ------ --- ------- ---------- ------- ----------<br>--- --------- --- ----------- ------- ----- ------- ---<br>--------- ---- -- --- ---- -- described -- ---- -------<br>-- --------- ------ --- ----- ------ ---- --- --------- --<br>------ - ---- -- --- ----------- ------- ---- ----- -----<br>--- -------- - ------ ---- -- ----- ---- --- --- -----------<br>-- -------,257174.89999999944,257173.69999999925,256829.064,256832.19999999925,256846.582,257177.944,,22,described
screen,html.Screen,2_3_1_0_1_23,2022-05-02T11:05:08.471Z,,,,,,,,,,,,,,,,,2,,,,,,,,,,,,,,342.0560000000114,,response,,,,1,E,,,,,,Space,keypress(Space),,,,silence,,,,--- ---- ------ --- ------- ---------- ------- ----------<br>--- --------- --- ----------- ------- ----- ------- ---<br>--------- ---- -- --- ---- -- --------- as ---- -------<br>-- --------- ------ --- ----- ------ ---- --- --------- --<br>------ - ---- -- --- ----------- ------- ---- ----- -----<br>--- -------- - ------ ---- -- ----- ---- --- --- -----------<br>-- -------,257521,257520,257160.624,257175,257177.944,257526.98,,23,as
screen,html.Screen,2_3_1_0_1_24,2022-05-02T11:05:08.820Z,,,,,,,,,,,,,,,,,2,,,,,,,,,,,,,,342.0199999999895,,response,,,,1,E,,,,,,Space,keypress(Space),,,,silence,,,,"--- ---- ------ --- ------- ---------- ------- ----------<br>--- --------- --- ----------- ------- ----- ------- ---<br>--------- ---- -- --- ---- -- --------- -- ""two -------<br>-- --------- ------ --- ----- ------ ---- --- --------- --<br>------ - ---- -- --- ----------- ------- ---- ----- -----<br>--- -------- - ------ ---- -- ----- ---- --- --- -----------<br>-- -------",257869.89999999944,257869,257509.616,257521.19999999925,257526.98,257875.959,,24,"""two"
screen,html.Screen,2_3_1_0_1_25,2022-05-02T11:05:09.197Z,,,,,,,,,,,,,,,,,2,,,,,,,,,,,,,,369.94099999943865,,response,,,,1,E,,,,,,Space,keypress(Space),,,,silence,,,,--- ---- ------ --- ------- ---------- ------- ----------<br>--- --------- --- ----------- ------- ----- ------- ---<br>--------- ---- -- --- ---- -- --------- -- ---- patches<br>-- --------- ------ --- ----- ------ ---- --- --------- --<br>------ - ---- -- --- ----------- ------- ---- ----- -----<br>--- -------- - ------ ---- -- ----- ---- --- --- -----------<br>-- -------,258247,258245.89999999944,257858.63,257870.19999999925,257875.959,258260.033,,25,patches
screen,html.Screen,2_3_1_0_1_26,2022-05-02T11:05:09.542Z,,,,,,,,,,,,,,,,,2,,,,,,,,,,,,,,331.4670000000042,,response,,,,1,E,,,,,,Space,keypress(Space),,,,silence,,,,--- ---- ------ --- ------- ---------- ------- ----------<br>--- --------- --- ----------- ------- ----- ------- ---<br>--------- ---- -- --- ---- -- --------- -- ---- -------<br>of --------- ------ --- ----- ------ ---- --- --------- --<br>------ - ---- -- --- ----------- ------- ---- ----- -----<br>--- -------- - ------ ---- -- ----- ---- --- --- -----------<br>-- -------,258592.59999999963,258591.5,258242.544,258247.09999999963,258260.033,258609.07,,26,of
screen,html.Screen,2_3_1_0_1_27,2022-05-02T11:05:09.843Z,,,,,,,,,,,,,,,,,2,,,,,,,,,,,,,,283.0299999996205,,response,,,,1,E,,,,,,Space,keypress(Space),,,,silence,,,,--- ---- ------ --- ------- ---------- ------- ----------<br>--- --------- --- ----------- ------- ----- ------- ---<br>--------- ---- -- --- ---- -- --------- -- ---- -------<br>-- intensely ------ --- ----- ------ ---- --- --------- --<br>------ - ---- -- --- ----------- ------- ---- ----- -----<br>--- -------- - ------ ---- -- ----- ---- --- --- -----------<br>-- -------,258893.19999999925,258892.09999999963,258591.575,258592.7999999998,258609.07,258905.727,,27,intensely
screen,html.Screen,2_3_1_0_1_28,2022-05-02T11:05:10.171Z,,,,,,,,,,,,,,,,,2,,,,,,,,,,,,,,314.87299999961397,,response,,,,1,E,,,,,,Space,keypress(Space),,,,silence,,,,--- ---- ------ --- ------- ---------- ------- ----------<br>--- --------- --- ----------- ------- ----- ------- ---<br>--------- ---- -- --- ---- -- --------- -- ---- -------<br>-- --------- bright --- ----- ------ ---- --- --------- --<br>------ - ---- -- --- ----------- ------- ---- ----- -----<br>--- -------- - ------ ---- -- ----- ---- --- --- -----------<br>-- -------,259221.59999999963,259220.59999999963,258888.162,258893.2999999998,258905.727,259237.285,,28,bright
screen,html.Screen,2_3_1_0_1_29,2022-05-02T11:05:10.495Z,,,,,,,,,,,,,,,,,2,,,,,,,,,,,,,,306.6149999994377,,response,,,,1,E,,,,,,Space,keypress(Space),,,,silence,,,,--- ---- ------ --- ------- ---------- ------- ----------<br>--- --------- --- ----------- ------- ----- ------- ---<br>--------- ---- -- --- ---- -- --------- -- ---- -------<br>-- --------- ------ and ----- ------ ---- --- --------- --<br>------ - ---- -- --- ----------- ------- ---- ----- -----<br>--- -------- - ------ ---- -- ----- ---- --- --- -----------<br>-- -------,259545,259543.89999999944,259219.657,259221.7999999998,259237.285,259551.183,,29,and
screen,html.Screen,2_3_1_0_1_30,2022-05-02T11:05:10.845Z,,,,,,,,,,,,,,,,,2,,,,,,,,,,,,,,343.51699999926495,,response,,,,1,E,,,,,,Space,keypress(Space),,,,silence,,,,--- ---- ------ --- ------- ---------- ------- ----------<br>--- --------- --- ----------- ------- ----- ------- ---<br>--------- ---- -- --- ---- -- --------- -- ---- -------<br>-- --------- ------ --- white ------ ---- --- --------- --<br>------ - ---- -- --- ----------- ------- ---- ----- -----<br>--- -------- - ------ ---- -- ----- ---- --- --- -----------<br>-- -------,259895.69999999925,259894.69999999925,259533.871,259545.19999999925,259551.183,259900.187,,30,white
screen,html.Screen,2_3_1_0_1_31,2022-05-02T11:05:11.169Z,,,,,,,,,,,,,,,,,2,,,,,,,,,,,,,,318.21299999943585,,response,,,,1,E,,,,,,Space,keypress(Space),,,,silence,,,,"--- ---- ------ --- ------- ---------- ------- ----------<br>--- --------- --- ----------- ------- ----- ------- ---<br>--------- ---- -- --- ---- -- --------- -- ---- -------<br>-- --------- ------ --- ----- light"" ---- --- --------- --<br>------ - ---- -- --- ----------- ------- ---- ----- -----<br>--- -------- - ------ ---- -- ----- ---- --- --- -----------<br>-- -------",260219.2999999998,260218.39999999944,259882.877,259895.7999999998,259900.187,260231.943,,31,"light"""
screen,html.Screen,2_3_1_0_1_32,2022-05-02T11:05:11.506Z,,,,,,,,,,,,,,,,,2,,,,,,,,,,,,,,322.85699999981443,,response,,,,1,E,,,,,,Space,keypress(Space),,,,silence,,,,--- ---- ------ --- ------- ---------- ------- ----------<br>--- --------- --- ----------- ------- ----- ------- ---<br>--------- ---- -- --- ---- -- --------- -- ---- -------<br>-- --------- ------ --- ----- ------ over --- --------- --<br>------ - ---- -- --- ----------- ------- ---- ----- -----<br>--- -------- - ------ ---- -- ----- ---- --- --- -----------<br>-- -------,260555.89999999944,260554.7999999998,260214.437,260219.59999999963,260231.943,260563.419,,32,over
screen,html.Screen,2_3_1_0_1_33,2022-05-02T11:05:11.841Z,,,,,,,,,,,,,,,,,2,,,,,,,,,,,,,,326.68099999963306,,response,,,,1,E,,,,,,Space,keypress(Space),,,,silence,,,,--- ---- ------ --- ------- ---------- ------- ----------<br>--- --------- --- ----------- ------- ----- ------- ---<br>--------- ---- -- --- ---- -- --------- -- ---- -------<br>-- --------- ------ --- ----- ------ ---- the --------- --<br>------ - ---- -- --- ----------- ------- ---- ----- -----<br>--- -------- - ------ ---- -- ----- ---- --- --- -----------<br>-- -------,260891.19999999925,260890.09999999963,260545.993,260556,260563.419,260894.957,,33,the
screen,html.Screen,2_3_1_0_1_34,2022-05-02T11:05:12.259Z,,,,,,,,,,,,,,,,,2,,,,,,,,,,,,,,412.74299999926006,,response,,,,1,E,,,,,,Space,keypress(Space),,,,silence,,,,--- ---- ------ --- ------- ---------- ------- ----------<br>--- --------- --- ----------- ------- ----- ------- ---<br>--------- ---- -- --- ---- -- --------- -- ---- -------<br>-- --------- ------ --- ----- ------ ---- --- sunspots. --<br>------ - ---- -- --- ----------- ------- ---- ----- -----<br>--- -------- - ------ ---- -- ----- ---- --- --- -----------<br>-- -------,261308.7999999998,261307.69999999925,260877.578,260891.39999999944,260894.957,261313.752,,34,sunspots.
screen,html.Screen,2_3_1_0_1_35,2022-05-02T11:05:12.636Z,,,,,,,,,,,,,,,,,2,,,,,,,,,,,,,,371.3479999996198,,response,,,,1,E,,,,,,Space,keypress(Space),,,,silence,,,,--- ---- ------ --- ------- ---------- ------- ----------<br>--- --------- --- ----------- ------- ----- ------- ---<br>--------- ---- -- --- ---- -- --------- -- ---- -------<br>-- --------- ------ --- ----- ------ ---- --- --------- He<br>------ - ---- -- --- ----------- ------- ---- ----- -----<br>--- -------- - ------ ---- -- ----- ---- --- --- -----------<br>-- -------,261686.09999999963,261685.09999999963,261296.308,261309,261313.752,261697.778,,35,He
screen,html.Screen,2_3_1_0_1_36,2022-05-02T11:05:12.952Z,,,,,,,,,,,,,,,,,2,,,,,,,,,,,,,,303.3219999996363,,response,,,,1,E,,,,,,Space,keypress(Space),,,,silence,,,,--- ---- ------ --- ------- ---------- ------- ----------<br>--- --------- --- ----------- ------- ----- ------- ---<br>--------- ---- -- --- ---- -- --------- -- ---- -------<br>-- --------- ------ --- ----- ------ ---- --- --------- --<br>jotted - ---- -- --- ----------- ------- ---- ----- -----<br>--- -------- - ------ ---- -- ----- ---- --- --- -----------<br>-- -------,262002.19999999925,262001.09999999963,261680.199,261686.2999999998,261697.778,262012.004,,36,jotted
screen,html.Screen,2_3_1_0_1_37,2022-05-02T11:05:13.241Z,,,,,,,,,,,,,,,,,2,,,,,,,,,,,,,,278.5959999996412,,response,,,,1,E,,,,,,Space,keypress(Space),,,,silence,,,,--- ---- ------ --- ------- ---------- ------- ----------<br>--- --------- --- ----------- ------- ----- ------- ---<br>--------- ---- -- --- ---- -- --------- -- ---- -------<br>-- --------- ------ --- ----- ------ ---- --- --------- --<br>------ a ---- -- --- ----------- ------- ---- ----- -----<br>--- -------- - ------ ---- -- ----- ---- --- --- -----------<br>-- -------,262291.5999999996,262290.5999999996,261994.485,262002.39999999944,262012.004,262308.553,,37,a
screen,html.Screen,2_3_1_0_1_38,2022-05-02T11:05:13.487Z,,,,,,,,,,,,,,,,,2,,,,,,,,,,,,,,227.44699999998556,,response,,,,1,E,,,,,,Space,keypress(Space),,,,silence,,,,--- ---- ------ --- ------- ---------- ------- ----------<br>--- --------- --- ----------- ------- ----- ------- ---<br>--------- ---- -- --- ---- -- --------- -- ---- -------<br>-- --------- ------ --- ----- ------ ---- --- --------- --<br>------ - note -- --- ----------- ------- ---- ----- -----<br>--- -------- - ------ ---- -- ----- ---- --- --- -----------<br>-- -------,262537.19999999925,262536,262291.035,262291.7999999998,262308.553,262552.848,,38,note
