sender,sender_type,sender_id,timestamp,meta,,Blues,Classical,Country,Dance,Electronic,Folk,Gospel,Hip-Hop,Jazz,Latin,Musical/Film,New-age,Pop,Prolific_id,Provo_ID,R&B,Rap,Reggae,Religious,Rock,Soul,Swing,Traditional,age,artist_name,correct,correctResponse,distraction,duration,education,ended_on,familiarity,gender,headphone_check_performance,item,list,music_frequency,offensiveness,pleasantness,position_correct,preference,response,response_action,snippet_file,song_name,song_rating,sound,stimulus_1,stimulus_2,stimulus_3,text,time_commit,time_end,time_render,time_run,time_show,time_switch,url,word,word_ID
Prolific ID,html.Form,0,2022-05-02T09:41:15.995Z,"{""labjs_version"":""20.2.2"",""labjs_build"":{""flavor"":""production"",""commit"":""a25486e0c714a0ae2ce03ff94b7bb6896854dcfa""},""location"":""https://run.pavlovia.org/mvasilev/prolific3_music_e/"",""userAgent"":""Mozilla/5.0 (Windows NT 10.0; Win64; x64) AppleWebKit/537.36 (KHTML, like Gecko) Chrome/100.0.4896.127 Safari/537.36"",""platform"":""Win32"",""language"":""en-US"",""locale"":""en-GB"",""timeZone"":""Europe/London"",""timezoneOffset"":-60,""screen_width"":1280,""screen_height"":720,""scroll_width"":1280,""scroll_height"":577,""window_innerWidth"":1280,""window_innerHeight"":577,""devicePixelRatio"":1.5}",,,,,,,,,,,,,,,5f7dee73bc8c8b044cc73e18,,,,,,,,,,,,,,,9012.626,,form submission,,,,,,,,,,,,,,,,,,,,,15270.79999999702,15270.5,6241.246,6248.39999999851,6257.874,15283.801,{},,
Introduction,html.Screen,1_0,2022-05-02T09:41:29.674Z,,,,,,,,,,,,,,,,,,,,,,,,,,,,,,,13663.89899999553,,response,,,,,,,,,,,continue,click button,,,,,,,,,28950.09999999404,28947.69999999553,15267.461,15271.09999999404,15283.801,28956.028,,,
Volume calibration,html.Screen,1_1,2022-05-02T09:43:58.730Z,,,,,,,,,,,,,,,,,,,,,,,,,,,,,,,149047.37199999852,,response,,,,,,,,,,,continue,click button,,,,,,,,,178006.09999999404,178003.3999999985,28939.601,28950.19999999553,28956.028,178017.842,,,
Task instructions,html.Screen,1_2,2022-05-02T09:44:06.352Z,,,,,,,,,,,,,,,,,,,,,,,,,,,,,,,7610.157999999996,,response,,,,,,,,,,,continue,click button,,,,,,,,,185628.79999999702,185628,178001.027,178006.19999999553,178017.842,185644.77,,,
Sounds,html.Screen,1_3_0_0,2022-05-02T09:44:10.602Z,,,,,,,,,,,,,,,,,,,,,,,,,,,,,,,4246.624000000011,,timeout,,,,,,,,,1,,,,,,,,S,I,O,,189878.59999999404,189874.947,185628.315,185628.8999999985,185644.77,189891.394,,,
Judgement,html.Screen,1_3_0_1,2022-05-02T09:44:14.728Z,,,,,,,,,,,,,,,,,,,,,,,,,,,,false,1,,4112.00599999851,,response,,,,,,,,,1,,2,click #choice-2,,,,,S,I,O,,194004.09999999404,194003.3999999985,189874.947,189878.69999999553,189891.394,194030.803,,,
Trial,flow.Sequence,1_3_0,2022-05-02T09:44:14.729Z,,,,,,,,,,,,,,,,,,,,,,,,,,,,,,,8358.62999999852,,completion,,,,,,,,,1,,,,,,,,S,I,O,,194005.69999999553,194003.3999999985,185628.315,185628.8999999985,185644.77,194030.803,,,
Sounds,html.Screen,1_3_1_0,2022-05-02T09:44:18.992Z,,,,,,,,,,,,,,,,,,,,,,,,,,,,,,,4253.762999999977,,timeout,,,,,,,,,3,,,,,,,,I,O,S,,198268.69999999553,198267.811,193988.159,194005.79999999702,194030.803,198284.566,,,
Judgement,html.Screen,1_3_1_1,2022-05-02T09:44:20.168Z,,,,,,,,,,,,,,,,,,,,,,,,,,,,true,3,,1158.7339999970281,,response,,,,,,,,,3,,3,click #choice-3,,,,,I,O,S,,199444.19999999553,199443.29999999702,198267.811,198268.8999999985,198284.566,199450.295,,,
Trial,flow.Sequence,1_3_1,2022-05-02T09:44:20.168Z,,,,,,,,,,,,,,,,,,,,,,,,,,,,,,,5412.496999997005,,completion,,,,,,,,,3,,,,,,,,I,O,S,,199444.3999999985,199443.29999999702,193988.159,194005.79999999702,194030.803,199450.295,,,
Sounds,html.Screen,1_3_2_0,2022-05-02T09:44:24.405Z,,,,,,,,,,,,,,,,,,,,,,,,,,,,,,,4246.526999999973,,timeout,,,,,,,,,2,,,,,,,,O,S,I,,203681.19999999553,203680.2,199433.65,199444.5,199450.295,203696.822,,,
Judgement,html.Screen,1_3_2_1,2022-05-02T09:44:25.240Z,,,,,,,,,,,,,,,,,,,,,,,,,,,,true,2,,818.777999994054,,response,,,,,,,,,2,,2,click #choice-2,,,,,O,S,I,,204516.3999999985,204515.59999999404,203680.2,203681.29999999702,203696.822,204529.434,,,
Trial,flow.Sequence,1_3_2,2022-05-02T09:44:25.240Z,,,,,,,,,,,,,,,,,,,,,,,,,,,,,,,5065.304999994027,,completion,,,,,,,,,2,,,,,,,,O,S,I,,204516.59999999404,204515.59999999404,199433.65,199444.5,199450.295,204529.434,,,
Sounds,html.Screen,1_3_3_0,2022-05-02T09:44:29.484Z,,,,,,,,,,,,,,,,,,,,,,,,,,,,,,,4246.457999999984,,timeout,,,,,,,,,3,,,,,,,,O,I,S,,208760.5,208759.53,204512.8,204516.69999999553,204529.434,208775.892,,,
Judgement,html.Screen,1_3_3_1,2022-05-02T09:44:30.208Z,,,,,,,,,,,,,,,,,,,,,,,,,,,,true,3,,707.5079999985173,,response,,,,,,,,,3,,3,click #choice-3,,,,,O,I,S,,209484,209483.3999999985,208759.53,208760.59999999404,208775.892,209492.318,,,
Trial,flow.Sequence,1_3_3,2022-05-02T09:44:30.208Z,,,,,,,,,,,,,,,,,,,,,,,,,,,,,,,4953.9659999985015,,completion,,,,,,,,,3,,,,,,,,O,I,S,,209484.09999999404,209483.3999999985,204512.8,204516.69999999553,204529.434,209492.318,,,
Sounds,html.Screen,1_3_4_0,2022-05-02T09:44:34.447Z,,,,,,,,,,,,,,,,,,,,,,,,,,,,,,,4246.181000000011,,timeout,,,,,,,,,1,,,,,,,,S,O,I,,213723,213722.078,209475.737,209484.29999999702,209492.318,213738.499,,,
Judgement,html.Screen,1_3_4_1,2022-05-02T09:44:35.240Z,,,,,,,,,,,,,,,,,,,,,,,,,,,,true,1,,776.8009999970091,,response,,,,,,,,,1,,1,click #choice-1,,,,,S,O,I,,214515.8999999985,214515.29999999702,213722.078,213723.19999999553,213738.499,214521.247,,,
Trial,flow.Sequence,1_3_4,2022-05-02T09:44:35.240Z,,,,,,,,,,,,,,,,,,,,,,,,,,,,,,,5022.9819999970205,,completion,,,,,,,,,1,,,,,,,,S,O,I,,214516.09999999404,214515.29999999702,209475.737,209484.19999999553,209492.318,214521.247,,,
Sounds,html.Screen,1_3_5_0,2022-05-02T09:44:39.476Z,,,,,,,,,,,,,,,,,,,,,,,,,,,,,,,4246.764999999985,,timeout,,,,,,,,,2,,,,,,,,I,S,O,,218752,218751.091,214504.821,214516.09999999404,214521.247,218768.012,,,
Judgement,html.Screen,1_3_5_1,2022-05-02T09:44:40.096Z,,,,,,,,,,,,,,,,,,,,,,,,,,,,true,2,,603.2879999970319,,response,,,,,,,,,2,,2,click #choice-2,,,,,I,S,O,,219372.19999999553,219371.29999999702,218751.091,218752.19999999553,218768.012,219384.066,,,
Trial,flow.Sequence,1_3_5,2022-05-02T09:44:40.096Z,,,,,,,,,,,,,,,,,,,,,,,,,,,,,,,4850.052999997017,,completion,,,,,,,,,2,,,,,,,,I,S,O,,219372.3999999985,219371.29999999702,214504.821,214516.09999999404,214521.247,219384.066,,,
Task,flow.Loop,1_3,2022-05-02T09:44:40.100Z,,,,,,,,,,,,,,,,,,,,,,,,,,,,,,,33726.52999999703,,completion,,,0.8333333333333334,,,,,,,,,,,,,,,,,,219375.8999999985,219371.29999999702,185628.315,185628.8999999985,185644.77,219384.066,,,
Trap,html.Screen,1_4,2022-05-02T09:44:40.100Z,,,,,,,,,,,,,,,,,,,,,,,,,,,,,,,NaN,,skipped,,,,,,,,,,,,,,,,,,,,,219376.3999999985,219371.29999999702,,219376.29999999702,,219384.066,,,
Thanks,html.Screen,1_5,2022-05-02T09:44:43.232Z,,,,,,,,,,,,,,,,,,,,,,,,,,,,,,,3123.633999995538,,response,,,,,,,,,,,continue,click button,,,,,,,,,222508.5,222507.69999999553,219367.412,219376.3999999985,219384.066,224496.295,,,
Headphone screening,flow.Sequence,1,2022-05-02T09:44:43.232Z,,,,,,,,,,,,,,,,,,,,,,,,,,,,,,,207223.89899999552,,completion,,,,,,,,,,,,,,,,,,,,,222508.5,222507.69999999553,15267.461,15271.09999999404,15283.801,224496.295,,,
Instructions,html.Page,2_0,2022-05-02T09:44:50.481Z,,,,,,,,,,,,,,,,,,,,,,,,,,,,,,,5260.404999995517,,form submission,,,,,,,,,,,,,,,,,,,,,229756.79999999702,229756.69999999553,224479.793,224499.29999999702,224496.295,229758.72,,,
Holding screen,html.Screen,2_1_0_0,2022-05-02T09:45:00.458Z,,,,,,,,,,,,,,,,,,,,,,,,,,,,,,,9991.891000000003,,timeout,,,,,,,,,,,,,,,,,,,,,239734.5,239734.015,229742.192,229757.09999999404,229758.72,239750.611,,,
screen,html.Screen,2_1_0_1_0,2022-05-02T09:45:01.304Z,,,,,,,,,,,,,,,,,53,,,,,,,,,,,,,,826.2889999985055,,response,,,,99,,,,,,,Space,keypress(Space),,,,,,,,When -- ----- -- ------ - ------- --- ----------<br>------------- ------ ------ ---- ---- ------- ----- -- ----<br>-------- ------- -- ---------- --- - --- ----- ----- ----<br>---- --- --- ----- --- ---- ---- ------- ----- ---- -------<br>--- --- -- ----- -- --- ---- -- --- ---- -- ------ ------<br>--- ----- -- ----,240580.29999999702,240576.8999999985,239734.015,239734.59999999404,239750.611,240583.19,,0,When
screen,html.Screen,2_1_0_1_1,2022-05-02T09:45:01.656Z,,,,,,,,,,,,,,,,,53,,,,,,,,,,,,,,347.8099999999977,,response,,,,99,,,,,,,Space,keypress(Space),,,,,,,,---- it ----- -- ------ - ------- --- ----------<br>------------- ------ ------ ---- ---- ------- ----- -- ----<br>-------- ------- -- ---------- --- - --- ----- ----- ----<br>---- --- --- ----- --- ---- ---- ------- ----- ---- -------<br>--- --- -- ----- -- --- ---- -- --- ---- -- ------ ------<br>--- ----- -- ----,240931.59999999404,240931,240566.827,240580.59999999404,240583.19,240963.545,,1,it
screen,html.Screen,2_1_0_1_2,2022-05-02T09:45:01.932Z,,,,,,,,,,,,,,,,,53,,,,,,,,,,,,,,243.65499999551685,,response,,,,99,,,,,,,Space,keypress(Space),,,,,,,,---- -- comes -- ------ - ------- --- ----------<br>------------- ------ ------ ---- ---- ------- ----- -- ----<br>-------- ------- -- ---------- --- - --- ----- ----- ----<br>---- --- --- ----- --- ---- ---- ------- ----- ---- -------<br>--- --- -- ----- -- --- ---- -- --- ---- -- ------ ------<br>--- ----- -- ----,241207.8999999985,241207.19999999553,240916.586,240931.79999999702,240963.545,241216.309,,2,comes
screen,html.Screen,2_1_0_1_3,2022-05-02T09:45:02.244Z,,,,,,,,,,,,,,,,,53,,,,,,,,,,,,,,303.1909999999916,,response,,,,99,,,,,,,Space,keypress(Space),,,,,,,,---- -- ----- to ------ - ------- --- ----------<br>------------- ------ ------ ---- ---- ------- ----- -- ----<br>-------- ------- -- ---------- --- - --- ----- ----- ----<br>---- --- --- ----- --- ---- ---- ------- ----- ---- -------<br>--- --- -- ----- -- --- ---- -- --- ---- -- ------ ------<br>--- ----- -- ----,241520.29999999702,241519.5,241199.702,241208.09999999404,241216.309,241532.484,,3,to
screen,html.Screen,2_1_0_1_4,2022-05-02T09:45:02.517Z,,,,,,,,,,,,,,,,,53,,,,,,,,,,,,,,260.01600000000326,,response,,,,99,,,,,,,Space,keypress(Space),,,,,,,,---- -- ----- -- having - ------- --- ----------<br>------------- ------ ------ ---- ---- ------- ----- -- ----<br>-------- ------- -- ---------- --- - --- ----- ----- ----<br>---- --- --- ----- --- ---- ---- ------- ----- ---- -------<br>--- --- -- ----- -- --- ---- -- --- ---- -- ------ ------<br>--- ----- -- ----,241793.19999999553,241792.5,241516.098,241520.29999999702,241532.484,241799.063,,4,having
screen,html.Screen,2_1_0_1_5,2022-05-02T09:45:02.837Z,,,,,,,,,,,,,,,,,53,,,,,,,,,,,,,,313.0369999940449,,response,,,,99,,,,,,,Space,keypress(Space),,,,,,,,---- -- ----- -- ------ a ------- --- ----------<br>------------- ------ ------ ---- ---- ------- ----- -- ----<br>-------- ------- -- ---------- --- - --- ----- ----- ----<br>---- --- --- ----- --- ---- ---- ------- ----- ---- -------<br>--- --- -- ----- -- --- ---- -- --- ---- -- ------ ------<br>--- ----- -- ----,242112.79999999702,242112.09999999404,241782.509,241793.29999999702,241799.063,242115.313,,5,a
screen,html.Screen,2_1_0_1_6,2022-05-02T09:45:03.125Z,,,,,,,,,,,,,,,,,53,,,,,,,,,,,,,,284.9869999970251,,response,,,,99,,,,,,,Space,keypress(Space),,,,,,,,---- -- ----- -- ------ - lasting --- ----------<br>------------- ------ ------ ---- ---- ------- ----- -- ----<br>-------- ------- -- ---------- --- - --- ----- ----- ----<br>---- --- --- ----- --- ---- ---- ------- ----- ---- -------<br>--- --- -- ----- -- --- ---- -- --- ---- -- ------ ------<br>--- ----- -- ----,242401.09999999404,242400.29999999702,242098.756,242112.79999999702,242115.313,242415.306,,6,lasting
screen,html.Screen,2_1_0_1_7,2022-05-02T09:45:03.428Z,,,,,,,,,,,,,,,,,53,,,,,,,,,,,,,,288.0939999984985,,response,,,,99,,,,,,,Space,keypress(Space),,,,,,,,---- -- ----- -- ------ - ------- and ----------<br>------------- ------ ------ ---- ---- ------- ----- -- ----<br>-------- ------- -- ---------- --- - --- ----- ----- ----<br>---- --- --- ----- --- ---- ---- ------- ----- ---- -------<br>--- --- -- ----- -- --- ---- -- --- ---- -- ------ ------<br>--- ----- -- ----,242704.19999999553,242703.3999999985,242398.721,242401.29999999702,242415.306,242715.169,,7,and
screen,html.Screen,2_1_0_1_8,2022-05-02T09:45:03.715Z,,,,,,,,,,,,,,,,,53,,,,,,,,,,,,,,274.9309999940451,,response,,,,99,,,,,,,Space,keypress(Space),,,,,,,,---- -- ----- -- ------ - ------- --- fulfilling<br>------------- ------ ------ ---- ---- ------- ----- -- ----<br>-------- ------- -- ---------- --- - --- ----- ----- ----<br>---- --- --- ----- --- ---- ---- ------- ----- ---- -------<br>--- --- -- ----- -- --- ---- -- --- ---- -- ------ ------<br>--- ----- -- ----,242990.69999999553,242990.09999999404,242698.334,242704.29999999702,242715.169,242998.072,,8,fulfilling
screen,html.Screen,2_1_0_1_9,2022-05-02T09:45:04.033Z,,,,,,,,,,,,,,,,,53,,,,,,,,,,,,,,309.7279999970342,,response,,,,99,,,,,,,Space,keypress(Space),,,,,,,,"---- -- ----- -- ------ - ------- --- ----------<br>relationship, ------ ------ ---- ---- ------- ----- -- ----<br>-------- ------- -- ---------- --- - --- ----- ----- ----<br>---- --- --- ----- --- ---- ---- ------- ----- ---- -------<br>--- --- -- ----- -- --- ---- -- --- ---- -- ------ ------<br>--- ----- -- ----",243308.59999999404,243307.79999999702,242981.399,242991,242998.072,243314.514,,9,"relationship,"
screen,html.Screen,2_1_0_1_10,2022-05-02T09:45:04.330Z,,,,,,,,,,,,,,,,,53,,,,,,,,,,,,,,290.7859999970242,,response,,,,99,,,,,,,Space,keypress(Space),,,,,,,,---- -- ----- -- ------ - ------- --- ----------<br>------------- common ------ ---- ---- ------- ----- -- ----<br>-------- ------- -- ---------- --- - --- ----- ----- ----<br>---- --- --- ----- --- ---- ---- ------- ----- ---- -------<br>--- --- -- ----- -- --- ---- -- --- ---- -- ------ ------<br>--- ----- -- ----,243606.09999999404,243605.29999999702,243297.896,243308.69999999553,243314.514,243614.348,,10,common
screen,html.Screen,2_1_0_1_11,2022-05-02T09:45:04.610Z,,,,,,,,,,,,,,,,,53,,,,,,,,,,,,,,271.55199999851175,,response,,,,99,,,,,,,Space,keypress(Space),,,,,,,,---- -- ----- -- ------ - ------- --- ----------<br>------------- ------ wisdom ---- ---- ------- ----- -- ----<br>-------- ------- -- ---------- --- - --- ----- ----- ----<br>---- --- --- ----- --- ---- ---- ------- ----- ---- -------<br>--- --- -- ----- -- --- ---- -- --- ---- -- ------ ------<br>--- ----- -- ----,243886.59999999404,243885.8999999985,243597.774,243606.29999999702,243614.348,243897.416,,11,wisdom
screen,html.Screen,2_1_0_1_12,2022-05-02T09:45:04.917Z,,,,,,,,,,,,,,,,,53,,,,,,,,,,,,,,294.58400000000256,,response,,,,99,,,,,,,Space,keypress(Space),,,,,,,,---- -- ----- -- ------ - ------- --- ----------<br>------------- ------ ------ says ---- ------- ----- -- ----<br>-------- ------- -- ---------- --- - --- ----- ----- ----<br>---- --- --- ----- --- ---- ---- ------- ----- ---- -------<br>--- --- -- ----- -- --- ---- -- --- ---- -- ------ ------<br>--- ----- -- ----,244192.79999999702,244192,243880.79,243886.69999999553,243897.416,244197.038,,12,says
screen,html.Screen,2_1_0_1_13,2022-05-02T09:45:05.198Z,,,,,,,,,,,,,,,,,53,,,,,,,,,,,,,,276.46199999999953,,response,,,,99,,,,,,,Space,keypress(Space),,,,,,,,---- -- ----- -- ------ - ------- --- ----------<br>------------- ------ ------ ---- that ------- ----- -- ----<br>-------- ------- -- ---------- --- - --- ----- ----- ----<br>---- --- --- ----- --- ---- ---- ------- ----- ---- -------<br>--- --- -- ----- -- --- ---- -- --- ---- -- ------ ------<br>--- ----- -- ----,244474.3999999985,244473.5,244180.53,244193,244197.038,244480.22,,13,that
screen,html.Screen,2_1_0_1_14,2022-05-02T09:45:05.481Z,,,,,,,,,,,,,,,,,53,,,,,,,,,,,,,,276.37999999403837,,response,,,,99,,,,,,,Space,keypress(Space),,,,,,,,---- -- ----- -- ------ - ------- --- ----------<br>------------- ------ ------ ---- ---- feeling ----- -- ----<br>-------- ------- -- ---------- --- - --- ----- ----- ----<br>---- --- --- ----- --- ---- ---- ------- ----- ---- -------<br>--- --- -- ----- -- --- ---- -- --- ---- -- ------ ------<br>--- ----- -- ----,244757.29999999702,244756.59999999404,244463.539,244474.59999999404,244480.22,244763.225,,14,feeling
screen,html.Screen,2_1_0_1_15,2022-05-02T09:45:05.755Z,,,,,,,,,,,,,,,,,53,,,,,,,,,,,,,,267.47499999552383,,response,,,,99,,,,,,,Space,keypress(Space),,,,,,,,---- -- ----- -- ------ - ------- --- ----------<br>------------- ------ ------ ---- ---- ------- close -- ----<br>-------- ------- -- ---------- --- - --- ----- ----- ----<br>---- --- --- ----- --- ---- ---- ------- ----- ---- -------<br>--- --- -- ----- -- --- ---- -- --- ---- -- ------ ------<br>--- ----- -- ----,245031.5,245030.69999999553,244746.655,244757.5,244763.225,245046.46,,15,close
screen,html.Screen,2_1_0_1_16,2022-05-02T09:45:06.069Z,,,,,,,,,,,,,,,,,53,,,,,,,,,,,,,,297.8399999970279,,response,,,,99,,,,,,,Space,keypress(Space),,,,,,,,---- -- ----- -- ------ - ------- --- ----------<br>------------- ------ ------ ---- ---- ------- ----- to ----<br>-------- ------- -- ---------- --- - --- ----- ----- ----<br>---- --- --- ----- --- ---- ---- ------- ----- ---- -------<br>--- --- -- ----- -- --- ---- -- --- ---- -- ------ ------<br>--- ----- -- ----,245345.09999999404,245344.29999999702,245029.62,245031.59999999404,245046.46,245367.521,,16,to
screen,html.Screen,2_1_0_1_17,2022-05-02T09:45:06.347Z,,,,,,,,,,,,,,,,,53,,,,,,,,,,,,,,254.47899999999208,,response,,,,99,,,,,,,Space,keypress(Space),,,,,,,,---- -- ----- -- ------ - ------- --- ----------<br>------------- ------ ------ ---- ---- ------- ----- -- your<br>-------- ------- -- ---------- --- - --- ----- ----- ----<br>---- --- --- ----- --- ---- ---- ------- ----- ---- -------<br>--- --- -- ----- -- --- ---- -- --- ---- -- ------ ------<br>--- ----- -- ----,245622.69999999553,245622,245329.668,245345.19999999553,245367.521,245629.248,,17,your
screen,html.Screen,2_1_0_1_18,2022-05-02T09:45:06.658Z,,,,,,,,,,,,,,,,,53,,,,,,,,,,,,,,304.45199999553734,,response,,,,99,,,,,,,Space,keypress(Space),,,,,,,,---- -- ----- -- ------ - ------- --- ----------<br>------------- ------ ------ ---- ---- ------- ----- -- ----<br>romantic ------- -- ---------- --- - --- ----- ----- ----<br>---- --- --- ----- --- ---- ---- ------- ----- ---- -------<br>--- --- -- ----- -- --- ---- -- --- ---- -- ------ ------<br>--- ----- -- ----,245934.29999999702,245933.69999999553,245612.758,245622.8999999985,245629.248,245945.695,,18,romantic
screen,html.Screen,2_1_0_1_19,2022-05-02T09:45:06.971Z,,,,,,,,,,,,,,,,,53,,,,,,,,,,,,,,300.304999999993,,response,,,,99,,,,,,,Space,keypress(Space),,,,,,,,---- -- ----- -- ------ - ------- --- ----------<br>------------- ------ ------ ---- ---- ------- ----- -- ----<br>-------- partner -- ---------- --- - --- ----- ----- ----<br>---- --- --- ----- --- ---- ---- ------- ----- ---- -------<br>--- --- -- ----- -- --- ---- -- --- ---- -- ------ ------<br>--- ----- -- ----,246246.79999999702,246246,245928.901,245934.5,245945.695,246261.997,,19,partner
screen,html.Screen,2_1_0_1_20,2022-05-02T09:45:07.234Z,,,,,,,,,,,,,,,,,53,,,,,,,,,,,,,,246.90299999850686,,response,,,,99,,,,,,,Space,keypress(Space),,,,,,,,---- -- ----- -- ------ - ------- --- ----------<br>------------- ------ ------ ---- ---- ------- ----- -- ----<br>-------- ------- is ---------- --- - --- ----- ----- ----<br>---- --- --- ----- --- ---- ---- ------- ----- ---- -------<br>--- --- -- ----- -- --- ---- -- --- ---- -- ------ ------<br>--- ----- -- ----,246509.69999999553,246508.8999999985,246245.477,246247,246261.997,246511.812,,20,is
screen,html.Screen,2_1_0_1_21,2022-05-02T09:45:07.496Z,,,,,,,,,,,,,,,,,53,,,,,,,,,,,,,,259.8879999955243,,response,,,,99,,,,,,,Space,keypress(Space),,,,,,,,---- -- ----- -- ------ - ------- --- ----------<br>------------- ------ ------ ---- ---- ------- ----- -- ----<br>-------- ------- -- paramount. --- - --- ----- ----- ----<br>---- --- --- ----- --- ---- ---- ------- ----- ---- -------<br>--- --- -- ----- -- --- ---- -- --- ---- -- ------ ------<br>--- ----- -- ----,246772.5,246771.69999999553,246495.238,246509.8999999985,246511.812,246778.364,,21,paramount.
screen,html.Screen,2_1_0_1_22,2022-05-02T09:45:07.842Z,,,,,,,,,,,,,,,,,53,,,,,,,,,,,,,,338.6359999999986,,response,,,,99,,,,,,,Space,keypress(Space),,,,,,,,---- -- ----- -- ------ - ------- --- ----------<br>------------- ------ ------ ---- ---- ------- ----- -- ----<br>-------- ------- -- ---------- But - --- ----- ----- ----<br>---- --- --- ----- --- ---- ---- ------- ----- ---- -------<br>--- --- -- ----- -- --- ---- -- --- ---- -- ------ ------<br>--- ----- -- ----,247117.69999999553,247117,246761.761,246772.59999999404,246778.364,247128.054,,22,But
screen,html.Screen,2_1_0_1_23,2022-05-02T09:45:08.157Z,,,,,,,,,,,,,,,,,53,,,,,,,,,,,,,,304.74599999701604,,response,,,,99,,,,,,,Space,keypress(Space),,,,,,,,---- -- ----- -- ------ - ------- --- ----------<br>------------- ------ ------ ---- ---- ------- ----- -- ----<br>-------- ------- -- ---------- --- a --- ----- ----- ----<br>---- --- --- ----- --- ---- ---- ------- ----- ---- -------<br>--- --- -- ----- -- --- ---- -- --- ---- -- ------ ------<br>--- ----- -- ----,247433.5,247432.79999999702,247111.383,247117.79999999702,247128.054,247444.518,,23,a
screen,html.Screen,2_1_0_1_24,2022-05-02T09:45:08.386Z,,,,,,,,,,,,,,,,,53,,,,,,,,,,,,,,217.28199999700882,,response,,,,99,,,,,,,Space,keypress(Space),,,,,,,,---- -- ----- -- ------ - ------- --- ----------<br>------------- ------ ------ ---- ---- ------- ----- -- ----<br>-------- ------- -- ---------- --- - new ----- ----- ----<br>---- --- --- ----- --- ---- ---- ------- ----- ---- -------<br>--- --- -- ----- -- --- ---- -- --- ---- -- ------ ------<br>--- ----- -- ----,247662.5,247661.79999999702,247427.723,247433.69999999553,247444.518,247677.634,,24,new
screen,html.Screen,2_1_0_1_25,2022-05-02T09:45:08.683Z,,,,,,,,,,,,,,,,,53,,,,,,,,,,,,,,280.4659999940486,,response,,,,99,,,,,,,Space,keypress(Space),,,,,,,,---- -- ----- -- ------ - ------- --- ----------<br>------------- ------ ------ ---- ---- ------- ----- -- ----<br>-------- ------- -- ---------- --- - --- study ----- ----<br>---- --- --- ----- --- ---- ---- ------- ----- ---- -------<br>--- --- -- ----- -- --- ---- -- --- ---- -- ------ ------<br>--- ----- -- ----,247958.79999999702,247958.09999999404,247660.842,247662.59999999404,247677.634,247960.641,,25,study
screen,html.Screen,2_1_0_1_26,2022-05-02T09:45:08.986Z,,,,,,,,,,,,,,,,,53,,,,,,,,,,,,,,301.0589999955264,,response,,,,99,,,,,,,Space,keypress(Space),,,,,,,,---- -- ----- -- ------ - ------- --- ----------<br>------------- ------ ------ ---- ---- ------- ----- -- ----<br>-------- ------- -- ---------- --- - --- ----- finds ----<br>---- --- --- ----- --- ---- ---- ------- ----- ---- -------<br>--- --- -- ----- -- --- ---- -- --- ---- -- ------ ------<br>--- ----- -- ----,248262.5,248261.69999999553,247944.044,247958.8999999985,247960.641,248277.308,,26,finds
screen,html.Screen,2_1_0_1_27,2022-05-02T09:45:09.274Z,,,,,,,,,,,,,,,,,53,,,,,,,,,,,,,,272.29199999404955,,response,,,,99,,,,,,,Space,keypress(Space),,,,,,,,---- -- ----- -- ------ - ------- --- ----------<br>------------- ------ ------ ---- ---- ------- ----- -- ----<br>-------- ------- -- ---------- --- - --- ----- ----- that<br>---- --- --- ----- --- ---- ---- ------- ----- ---- -------<br>--- --- -- ----- -- --- ---- -- --- ---- -- ------ ------<br>--- ----- -- ----,248550.3999999985,248549.59999999404,248260.494,248262.59999999404,248277.308,248559.999,,27,that
screen,html.Screen,2_1_0_1_28,2022-05-02T09:45:09.567Z,,,,,,,,,,,,,,,,,53,,,,,,,,,,,,,,282.6009999940288,,response,,,,99,,,,,,,Space,keypress(Space),,,,,,,,---- -- ----- -- ------ - ------- --- ----------<br>------------- ------ ------ ---- ---- ------- ----- -- ----<br>-------- ------- -- ---------- --- - --- ----- ----- ----<br>it's --- --- ----- --- ---- ---- ------- ----- ---- -------<br>--- --- -- ----- -- --- ---- -- --- ---- -- ------ ------<br>--- ----- -- ----,248843.5,248842.59999999404,248543.421,248550.5,248559.999,248860.152,,28,it's
screen,html.Screen,2_1_0_1_29,2022-05-02T09:45:09.845Z,,,,,,,,,,,,,,,,,53,,,,,,,,,,,,,,259.6479999970179,,response,,,,99,,,,,,,Space,keypress(Space),,,,,,,,---- -- ----- -- ------ - ------- --- ----------<br>------------- ------ ------ ---- ---- ------- ----- -- ----<br>-------- ------- -- ---------- --- - --- ----- ----- ----<br>---- not --- ----- --- ---- ---- ------- ----- ---- -------<br>--- --- -- ----- -- --- ---- -- --- ---- -- ------ ------<br>--- ----- -- ----,249120.69999999553,249119.79999999702,248843.34,248843.5,248860.152,249126.438,,29,not
screen,html.Screen,2_1_0_1_30,2022-05-02T09:45:10.102Z,,,,,,,,,,,,,,,,,53,,,,,,,,,,,,,,250.761999995535,,response,,,,99,,,,,,,Space,keypress(Space),,,,,,,,---- -- ----- -- ------ - ------- --- ----------<br>------------- ------ ------ ---- ---- ------- ----- -- ----<br>-------- ------- -- ---------- --- - --- ----- ----- ----<br>---- --- how ----- --- ---- ---- ------- ----- ---- -------<br>--- --- -- ----- -- --- ---- -- --- ---- -- ------ ------<br>--- ----- -- ----,249378,249377.19999999553,249109.711,249120.79999999702,249126.438,249393.017,,30,how
screen,html.Screen,2_1_0_1_31,2022-05-02T09:45:10.385Z,,,,,,,,,,,,,,,,,53,,,,,,,,,,,,,,267.2829999970272,,response,,,,99,,,,,,,Space,keypress(Space),,,,,,,,---- -- ----- -- ------ - ------- --- ----------<br>------------- ------ ------ ---- ---- ------- ----- -- ----<br>-------- ------- -- ---------- --- - --- ----- ----- ----<br>---- --- --- close --- ---- ---- ------- ----- ---- -------<br>--- --- -- ----- -- --- ---- -- --- ---- -- ------ ------<br>--- ----- -- ----,249661.09999999404,249660.29999999702,249376.351,249378.19999999553,249393.017,249675.942,,31,close
screen,html.Screen,2_1_0_1_32,2022-05-02T09:45:10.643Z,,,,,,,,,,,,,,,,,53,,,,,,,,,,,,,,242.05799999999,,response,,,,99,,,,,,,Space,keypress(Space),,,,,,,,---- -- ----- -- ------ - ------- --- ----------<br>------------- ------ ------ ---- ---- ------- ----- -- ----<br>-------- ------- -- ---------- --- - --- ----- ----- ----<br>---- --- --- ----- you ---- ---- ------- ----- ---- -------<br>--- --- -- ----- -- --- ---- -- --- ---- -- ------ ------<br>--- ----- -- ----,249918.79999999702,249918,249659.335,249661.29999999702,249675.942,249925.82,,32,you
screen,html.Screen,2_1_0_1_33,2022-05-02T09:45:10.925Z,,,,,,,,,,,,,,,,,53,,,,,,,,,,,,,,274.179999999993,,response,,,,99,,,,,,,Space,keypress(Space),,,,,,,,---- -- ----- -- ------ - ------- --- ----------<br>------------- ------ ------ ---- ---- ------- ----- -- ----<br>-------- ------- -- ---------- --- - --- ----- ----- ----<br>---- --- --- ----- --- feel ---- ------- ----- ---- -------<br>--- --- -- ----- -- --- ---- -- --- ---- -- ------ ------<br>--- ----- -- ----,250200.69999999553,250200,249909.244,249918.8999999985,249925.82,250208.856,,33,feel
screen,html.Screen,2_1_0_1_34,2022-05-02T09:45:11.204Z,,,,,,,,,,,,,,,,,53,,,,,,,,,,,,,,270.24399999403977,,response,,,,99,,,,,,,Space,keypress(Space),,,,,,,,---- -- ----- -- ------ - ------- --- ----------<br>------------- ------ ------ ---- ---- ------- ----- -- ----<br>-------- ------- -- ---------- --- - --- ----- ----- ----<br>---- --- --- ----- --- ---- that ------- ----- ---- -------<br>--- --- -- ----- -- --- ---- -- --- ---- -- ------ ------<br>--- ----- -- ----,250479.8999999985,250479.09999999404,250192.102,250200.8999999985,250208.856,250492.037,,34,that
screen,html.Screen,2_1_0_1_35,2022-05-02T09:45:11.487Z,,,,,,,,,,,,,,,,,53,,,,,,,,,,,,,,269.7629999970086,,response,,,,99,,,,,,,Space,keypress(Space),,,,,,,,---- -- ----- -- ------ - ------- --- ----------<br>------------- ------ ------ ---- ---- ------- ----- -- ----<br>-------- ------- -- ---------- --- - --- ----- ----- ----<br>---- --- --- ----- --- ---- ---- matters ----- ---- -------<br>--- --- -- ----- -- --- ---- -- --- ---- -- ------ ------<br>--- ----- -- ----,250762.59999999404,250761.79999999702,250475.128,250480.09999999404,250492.037,250775.087,,35,matters
screen,html.Screen,2_1_0_1_36,2022-05-02T09:45:11.778Z,,,,,,,,,,,,,,,,,53,,,,,,,,,,,,,,278.31299999851035,,response,,,,99,,,,,,,Space,keypress(Space),,,,,,,,"---- -- ----- -- ------ - ------- --- ----------<br>------------- ------ ------ ---- ---- ------- ----- -- ----<br>-------- ------- -- ---------- --- - --- ----- ----- ----<br>---- --- --- ----- --- ---- ---- ------- most, ---- -------<br>--- --- -- ----- -- --- ---- -- --- ---- -- ------ ------<br>--- ----- -- ----",251054.09999999404,251053.3999999985,250758.343,250762.79999999702,250775.087,251058.095,,36,"most,"
screen,html.Screen,2_1_0_1_37,2022-05-02T09:45:12.057Z,,,,,,,,,,,,,,,,,53,,,,,,,,,,,,,,274.2049999970186,,response,,,,99,,,,,,,Space,keypress(Space),,,,,,,,---- -- ----- -- ------ - ------- --- ----------<br>------------- ------ ------ ---- ---- ------- ----- -- ----<br>-------- ------- -- ---------- --- - --- ----- ----- ----<br>---- --- --- ----- --- ---- ---- ------- ----- it's -------<br>--- --- -- ----- -- --- ---- -- --- ---- -- ------ ------<br>--- ----- -- ----,251333.09999999404,251332.29999999702,251041.662,251054.29999999702,251058.095,251341.401,,37,it's
screen,html.Screen,2_1_0_1_38,2022-05-02T09:45:12.335Z,,,,,,,,,,,,,,,,,53,,,,,,,,,,,,,,268.5989999999874,,response,,,,99,,,,,,,Space,keypress(Space),,,,,,,,---- -- ----- -- ------ - ------- --- ----------<br>------------- ------ ------ ---- ---- ------- ----- -- ----<br>-------- ------- -- ---------- --- - --- ----- ----- ----<br>---- --- --- ----- --- ---- ---- ------- ----- ---- whether<br>--- --- -- ----- -- --- ---- -- --- ---- -- ------ ------<br>--- ----- -- ----,251610.79999999702,251610,251324.764,251333.29999999702,251341.401,251624.215,,38,whether
screen,html.Screen,2_1_0_1_39,2022-05-02T09:45:12.628Z,,,,,,,,,,,,,,,,,53,,,,,,,,,,,,,,278.884999994043,,response,,,,99,,,,,,,Space,keypress(Space),,,,,,,,---- -- ----- -- ------ - ------- --- ----------<br>------------- ------ ------ ---- ---- ------- ----- -- ----<br>-------- ------- -- ---------- --- - --- ----- ----- ----<br>---- --- --- ----- --- ---- ---- ------- ----- ---- -------<br>you --- -- ----- -- --- ---- -- --- ---- -- ------ ------<br>--- ----- -- ----,251903.69999999553,251903.09999999404,251607.637,251610.8999999985,251624.215,251907.324,,39,you
screen,html.Screen,2_1_0_1_40,2022-05-02T09:45:12.904Z,,,,,,,,,,,,,,,,,53,,,,,,,,,,,,,,272.4759999970265,,response,,,,99,,,,,,,Space,keypress(Space),,,,,,,,---- -- ----- -- ------ - ------- --- ----------<br>------------- ------ ------ ---- ---- ------- ----- -- ----<br>-------- ------- -- ---------- --- - --- ----- ----- ----<br>---- --- --- ----- --- ---- ---- ------- ----- ---- -------<br>--- are -- ----- -- --- ---- -- --- ---- -- ------ ------<br>--- ----- -- ----,252180.59999999404,252179.79999999702,251890.971,251903.8999999985,251907.324,252190.574,,40,are
screen,html.Screen,2_1_0_1_41,2022-05-02T09:45:13.167Z,,,,,,,,,,,,,,,,,53,,,,,,,,,,,,,,251.32599999851664,,response,,,,99,,,,,,,Space,keypress(Space),,,,,,,,---- -- ----- -- ------ - ------- --- ----------<br>------------- ------ ------ ---- ---- ------- ----- -- ----<br>-------- ------- -- ---------- --- - --- ----- ----- ----<br>---- --- --- ----- --- ---- ---- ------- ----- ---- -------<br>--- --- as ----- -- --- ---- -- --- ---- -- ------ ------<br>--- ----- -- ----,252442.59999999404,252441.8999999985,252173.905,252180.69999999553,252190.574,252456.953,,41,as
screen,html.Screen,2_1_0_1_42,2022-05-02T09:45:13.439Z,,,,,,,,,,,,,,,,,53,,,,,,,,,,,,,,257.74699999552104,,response,,,,99,,,,,,,Space,keypress(Space),,,,,,,,---- -- ----- -- ------ - ------- --- ----------<br>------------- ------ ------ ---- ---- ------- ----- -- ----<br>-------- ------- -- ---------- --- - --- ----- ----- ----<br>---- --- --- ----- --- ---- ---- ------- ----- ---- -------<br>--- --- -- close -- --- ---- -- --- ---- -- ------ ------<br>--- ----- -- ----,252715.29999999702,252714.69999999553,252440.347,252442.79999999702,252456.953,252723.622,,42,close
screen,html.Screen,2_1_0_1_43,2022-05-02T09:45:13.702Z,,,,,,,,,,,,,,,,,53,,,,,,,,,,,,,,253.77799999850686,,response,,,,99,,,,,,,Space,keypress(Space),,,,,,,,---- -- ----- -- ------ - ------- --- ----------<br>------------- ------ ------ ---- ---- ------- ----- -- ----<br>-------- ------- -- ---------- --- - --- ----- ----- ----<br>---- --- --- ----- --- ---- ---- ------- ----- ---- -------<br>--- --- -- ----- as --- ---- -- --- ---- -- ------ ------<br>--- ----- -- ----,252978.19999999553,252977.3999999985,252706.909,252715.5,252723.622,252989.873,,43,as
screen,html.Screen,2_1_0_1_44,2022-05-02T09:45:13.991Z,,,,,,,,,,,,,,,,,53,,,,,,,,,,,,,,276.6270000000077,,response,,,,99,,,,,,,Space,keypress(Space),,,,,,,,---- -- ----- -- ------ - ------- --- ----------<br>------------- ------ ------ ---- ---- ------- ----- -- ----<br>-------- ------- -- ---------- --- - --- ----- ----- ----<br>---- --- --- ----- --- ---- ---- ------- ----- ---- -------<br>--- --- -- ----- -- you ---- -- --- ---- -- ------ ------<br>--- ----- -- ----,253267.19999999553,253266.5,252973.454,252978.3999999985,252989.873,253273.088,,44,you
screen,html.Screen,2_1_0_1_45,2022-05-02T09:45:14.270Z,,,,,,,,,,,,,,,,,53,,,,,,,,,,,,,,271.71199999703094,,response,,,,99,,,,,,,Space,keypress(Space),,,,,,,,---- -- ----- -- ------ - ------- --- ----------<br>------------- ------ ------ ---- ---- ------- ----- -- ----<br>-------- ------- -- ---------- --- - --- ----- ----- ----<br>---- --- --- ----- --- ---- ---- ------- ----- ---- -------<br>--- --- -- ----- -- --- want -- --- ---- -- ------ ------<br>--- ----- -- ----,253545.59999999404,253544.79999999702,253256.512,253267.29999999702,253273.088,253555.99,,45,want
screen,html.Screen,2_1_0_1_46,2022-05-02T09:45:14.524Z,,,,,,,,,,,,,,,,,53,,,,,,,,,,,,,,243.5100000000093,,response,,,,99,,,,,,,Space,keypress(Space),,,,,,,,---- -- ----- -- ------ - ------- --- ----------<br>------------- ------ ------ ---- ---- ------- ----- -- ----<br>-------- ------- -- ---------- --- - --- ----- ----- ----<br>---- --- --- ----- --- ---- ---- ------- ----- ---- -------<br>--- --- -- ----- -- --- ---- to --- ---- -- ------ ------<br>--- ----- -- ----,253800.19999999553,253799.5,253539.49,253545.79999999702,253555.99,253805.988,,46,to
screen,html.Screen,2_1_0_1_47,2022-05-02T09:45:14.798Z,,,,,,,,,,,,,,,,,53,,,,,,,,,,,,,,267.5119999999879,,response,,,,99,,,,,,,Space,keypress(Space),,,,,,,,"---- -- ----- -- ------ - ------- --- ----------<br>------------- ------ ------ ---- ---- ------- ----- -- ----<br>-------- ------- -- ---------- --- - --- ----- ----- ----<br>---- --- --- ----- --- ---- ---- ------- ----- ---- -------<br>--- --- -- ----- -- --- ---- -- be, ---- -- ------ ------<br>--- ----- -- ----",254074.29999999702,254073.5,253789.408,253800.3999999985,253805.988,254089.214,,47,"be,"
screen,html.Screen,2_1_0_1_48,2022-05-02T09:45:15.056Z,,,,,,,,,,,,,,,,,53,,,,,,,,,,,,,,241.68599999850267,,response,,,,99,,,,,,,Space,keypress(Space),,,,,,,,---- -- ----- -- ------ - ------- --- ----------<br>------------- ------ ------ ---- ---- ------- ----- -- ----<br>-------- ------- -- ---------- --- - --- ----- ----- ----<br>---- --- --- ----- --- ---- ---- ------- ----- ---- -------<br>--- --- -- ----- -- --- ---- -- --- even -- ------ ------<br>--- ----- -- ----,254331.79999999702,254330.8999999985,254072.41,254074.5,254089.214,254338.853,,48,even
screen,html.Screen,2_1_0_1_49,2022-05-02T09:45:15.308Z,,,,,,,,,,,,,,,,,53,,,,,,,,,,,,,,244.94699999701697,,response,,,,99,,,,,,,Space,keypress(Space),,,,,,,,---- -- ----- -- ------ - ------- --- ----------<br>------------- ------ ------ ---- ---- ------- ----- -- ----<br>-------- ------- -- ---------- --- - --- ----- ----- ----<br>---- --- --- ----- --- ---- ---- ------- ----- ---- -------<br>--- --- -- ----- -- --- ---- -- --- ---- if ------ ------<br>--- ----- -- ----,254584.5,254583.79999999702,254322.336,254331.8999999985,254338.853,254588.559,,49,if
screen,html.Screen,2_1_0_1_50,2022-05-02T09:45:15.570Z,,,,,,,,,,,,,,,,,53,,,,,,,,,,,,,,257.04099999403115,,response,,,,99,,,,,,,Space,keypress(Space),,,,,,,,---- -- ----- -- ------ - ------- --- ----------<br>------------- ------ ------ ---- ---- ------- ----- -- ----<br>-------- ------- -- ---------- --- - --- ----- ----- ----<br>---- --- --- ----- --- ---- ---- ------- ----- ---- -------<br>--- --- -- ----- -- --- ---- -- --- ---- -- that's ------<br>--- ----- -- ----,254846.29999999702,254845.59999999404,254572.045,254584.69999999553,254588.559,254855.019,,50,that's
screen,html.Screen,2_1_0_1_51,2022-05-02T09:45:15.865Z,,,,,,,,,,,,,,,,,53,,,,,,,,,,,,,,285.38099999850965,,response,,,,99,,,,,,,Space,keypress(Space),,,,,,,,---- -- ----- -- ------ - ------- --- ----------<br>------------- ------ ------ ---- ---- ------- ----- -- ----<br>-------- ------- -- ---------- --- - --- ----- ----- ----<br>---- --- --- ----- --- ---- ---- ------- ----- ---- -------<br>--- --- -- ----- -- --- ---- -- --- ---- -- ------ really<br>--- ----- -- ----,255141.09999999404,255140.3999999985,254838.602,254846.3999999985,254855.019,255154.829,,51,really
screen,html.Screen,2_1_0_1_52,2022-05-02T09:45:16.133Z,,,,,,,,,,,,,,,,,53,,,,,,,,,,,,,,253.6710000000021,,response,,,,99,,,,,,,Space,keypress(Space),,,,,,,,---- -- ----- -- ------ - ------- --- ----------<br>------------- ------ ------ ---- ---- ------- ----- -- ----<br>-------- ------- -- ---------- --- - --- ----- ----- ----<br>---- --- --- ----- --- ---- ---- ------- ----- ---- -------<br>--- --- -- ----- -- --- ---- -- --- ---- -- ------ ------<br>not ----- -- ----,255409.3999999985,255408.5,255138.313,255141.29999999702,255154.829,255421.15,,52,not
screen,html.Screen,2_1_0_1_53,2022-05-02T09:45:16.401Z,,,,,,,,,,,,,,,,,53,,,,,,,,,,,,,,254.6499999970256,,response,,,,99,,,,,,,Space,keypress(Space),,,,,,,,---- -- ----- -- ------ - ------- --- ----------<br>------------- ------ ------ ---- ---- ------- ----- -- ----<br>-------- ------- -- ---------- --- - --- ----- ----- ----<br>---- --- --- ----- --- ---- ---- ------- ----- ---- -------<br>--- --- -- ----- -- --- ---- -- --- ---- -- ------ ------<br>--- close -- ----,255676.69999999553,255675.79999999702,255404.774,255409.5,255421.15,255687.869,,53,close
screen,html.Screen,2_1_0_1_54,2022-05-02T09:45:16.653Z,,,,,,,,,,,,,,,,,53,,,,,,,,,,,,,,240.8309999955236,,response,,,,99,,,,,,,Space,keypress(Space),,,,,,,,---- -- ----- -- ------ - ------- --- ----------<br>------------- ------ ------ ---- ---- ------- ----- -- ----<br>-------- ------- -- ---------- --- - --- ----- ----- ----<br>---- --- --- ----- --- ---- ---- ------- ----- ---- -------<br>--- --- -- ----- -- --- ---- -- --- ---- -- ------ ------<br>--- ----- at ----,255929.5,255928.69999999553,255671.121,255676.79999999702,255687.869,255937.453,,54,at
screen,html.Screen,2_1_0_1_55,2022-05-02T09:45:16.989Z,,,,,,,,,,,,,,,,,53,,,,,,,,,,,,,,327.1469999940309,,response,,,,99,,,,,,,Space,keypress(Space),,,,,,,,---- -- ----- -- ------ - ------- --- ----------<br>------------- ------ ------ ---- ---- ------- ----- -- ----<br>-------- ------- -- ---------- --- - --- ----- ----- ----<br>---- --- --- ----- --- ---- ---- ------- ----- ---- -------<br>--- --- -- ----- -- --- ---- -- --- ---- -- ------ ------<br>--- ----- -- all.,256265.19999999553,256264.59999999404,255921.037,255929.59999999404,255937.453,256270.47,,55,all.
Item 99,flow.Loop,2_1_0_1,2022-05-02T09:45:16.989Z,,,,,,,,,,,,,,,,,,,,,,,,,,,,,,,16513.988999994035,,completion,,,,,E,,,,,,,,,,,silence,,,,,256265.59999999404,256264.59999999404,239734.015,239734.59999999404,239750.611,256270.47,,,
Question 1,html.Screen,2_1_0_2,2022-05-02T09:45:20.936Z,,,,,,,,,,,,,,,,,,,,,,,,,,,,true,FALSE,,3941.029999999999,,response,,,,99,E,,,,,,FALSE,click #choice-2,,,,silence,,,,,260212.19999999553,260211.5,256254.035,256265.59999999404,256270.47,260217.223,,,
Question 2,html.Screen,2_1_0_3,2022-05-02T09:45:26.721Z,,,,,,,,,,,,,,,,,,,,,,,,,,,,true,TRUE,,5778.777000000002,,response,,,,99,E,,,,,,TRUE,click #choice-1,,,,silence,,,,,265996.799999997,265996,260200.856,260212.29999999702,260217.223,266012.58,,,
Item 99,flow.Sequence,2_1_0,2022-05-02T09:45:26.721Z,,,,,,,,,,,,,,,,,,,,,,,,,,,,,,,36237.28,,completion,,,,,,,,,,,,,,,,,,,,,265997,265996,229742.192,229757.09999999404,229758.72,266012.58,,,
Holding screen,html.Screen,2_1_1_0,2022-05-02T09:45:36.729Z,,,,,,,,,,,,,,,,,,,,,,,,,,,,,,,10008.549999999988,,timeout,,,,,,,,,,,,,,,,,,,,,276005.5,276004.341,265996.051,265997,266012.58,276021.13,,,
screen,html.Screen,2_1_1_1_0,2022-05-02T09:45:37.481Z,,,,,,,,,,,,,,,,,54,,,,,,,,,,,,,,735.569999995525,,response,,,,100,,,,,,,Space,keypress(Space),,,,,,,,At --- ---- --- ------ ----- ------- ---- -- --- ------- --<br>------- ---------- ------ -- ----- -- ----- -- ---- ------<br>--- ----- --- --- ------ -------- ----- --- ------ ----- --<br>----- ----- ---------- --- --- ------ ------ ---- -- ------<br>------- --- ------ ----- --- ---- ------- -- ---- --- --<br>------- ------,276757.3999999985,276756.69999999553,276004.341,276005.69999999553,276021.13,276770.607,,0,At
screen,html.Screen,2_1_1_1_1,2022-05-02T09:45:37.801Z,,,,,,,,,,,,,,,,,54,,,,,,,,,,,,,,305.4929999940214,,response,,,,100,,,,,,,Space,keypress(Space),,,,,,,,-- the ---- --- ------ ----- ------- ---- -- --- ------- --<br>------- ---------- ------ -- ----- -- ----- -- ---- ------<br>--- ----- --- --- ------ -------- ----- --- ------ ----- --<br>----- ----- ---------- --- --- ------ ------ ---- -- ------<br>------- --- ------ ----- --- ---- ------- -- ---- --- --<br>------- ------,277076.799999997,277076.09999999404,276753.888,276757.59999999404,276770.607,277086.811,,1,the
screen,html.Screen,2_1_1_1_2,2022-05-02T09:45:38.057Z,,,,,,,,,,,,,,,,,54,,,,,,,,,,,,,,244.9889999970328,,response,,,,100,,,,,,,Space,keypress(Space),,,,,,,,-- --- time --- ------ ----- ------- ---- -- --- ------- --<br>------- ---------- ------ -- ----- -- ----- -- ---- ------<br>--- ----- --- --- ------ -------- ----- --- ------ ----- --<br>----- ----- ---------- --- --- ------ ------ ---- -- ------<br>------- --- ------ ----- --- ---- ------- -- ---- --- --<br>------- ------,277332.69999999553,277331.799999997,277070.44,277077,277086.811,277336.598,,2,time
screen,html.Screen,2_1_1_1_3,2022-05-02T09:45:38.300Z,,,,,,,,,,,,,,,,,54,,,,,,,,,,,,,,238.20199999702163,,response,,,,100,,,,,,,Space,keypress(Space),,,,,,,,-- --- ---- the ------ ----- ------- ---- -- --- ------- --<br>------- ---------- ------ -- ----- -- ----- -- ---- ------<br>--- ----- --- --- ------ -------- ----- --- ------ ----- --<br>----- ----- ---------- --- --- ------ ------ ---- -- ------<br>------- --- ------ ----- --- ---- ------- -- ---- --- --<br>------- ------,277575.69999999553,277574.799999997,277320.198,277332.799999997,277336.598,277586.526,,3,the
screen,html.Screen,2_1_1_1_4,2022-05-02T09:45:38.587Z,,,,,,,,,,,,,,,,,54,,,,,,,,,,,,,,276.07399999402696,,response,,,,100,,,,,,,Space,keypress(Space),,,,,,,,-- --- ---- --- French ----- ------- ---- -- --- ------- --<br>------- ---------- ------ -- ----- -- ----- -- ---- ------<br>--- ----- --- --- ------ -------- ----- --- ------ ----- --<br>----- ----- ---------- --- --- ------ ------ ---- -- ------<br>------- --- ------ ----- --- ---- ------- -- ---- --- --<br>------- ------,277863.299999997,277862.59999999404,277569.991,277575.799999997,277586.526,277869.522,,4,French
screen,html.Screen,2_1_1_1_5,2022-05-02T09:45:38.870Z,,,,,,,,,,,,,,,,,54,,,,,,,,,,,,,,275.27799999702256,,response,,,,100,,,,,,,Space,keypress(Space),,,,,,,,-- --- ---- --- ------ crown ------- ---- -- --- ------- --<br>------- ---------- ------ -- ----- -- ----- -- ---- ------<br>--- ----- --- --- ------ -------- ----- --- ------ ----- --<br>----- ----- ---------- --- --- ------ ------ ---- -- ------<br>------- --- ------ ----- --- ---- ------- -- ---- --- --<br>------- ------,278145.59999999404,278144.799999997,277853.108,277863.5,277869.522,278152.78,,5,crown
screen,html.Screen,2_1_1_1_6,2022-05-02T09:45:39.145Z,,,,,,,,,,,,,,,,,54,,,,,,,,,,,,,,265.9199999955017,,response,,,,100,,,,,,,Space,keypress(Space),,,,,,,,-- --- ---- --- ------ ----- secured ---- -- --- ------- --<br>------- ---------- ------ -- ----- -- ----- -- ---- ------<br>--- ----- --- --- ------ -------- ----- --- ------ ----- --<br>----- ----- ---------- --- --- ------ ------ ---- -- ------<br>------- --- ------ ----- --- ---- ------- -- ---- --- --<br>------- ------,278421.09999999404,278418.69999999553,278136.146,278145.69999999553,278152.78,278435.911,,6,secured
screen,html.Screen,2_1_1_1_7,2022-05-02T09:45:39.445Z,,,,,,,,,,,,,,,,,54,,,,,,,,,,,,,,284.18899999401765,,response,,,,100,,,,,,,Space,keypress(Space),,,,,,,,-- --- ---- --- ------ ----- ------- much -- --- ------- --<br>------- ---------- ------ -- ----- -- ----- -- ---- ------<br>--- ----- --- --- ------ -------- ----- --- ------ ----- --<br>----- ----- ---------- --- --- ------ ------ ---- -- ------<br>------- --- ------ ----- --- ---- ------- -- ---- --- --<br>------- ------,278720.8999999985,278720.09999999404,278419.224,278421.299999997,278435.911,278735.537,,7,much
screen,html.Screen,2_1_1_1_8,2022-05-02T09:45:39.906Z,,,,,,,,,,,,,,,,,54,,,,,,,,,,,,,,445.6629999955185,,response,,,,100,,,,,,,Space,keypress(Space),,,,,,,,-- --- ---- --- ------ ----- ------- ---- of --- ------- --<br>------- ---------- ------ -- ----- -- ----- -- ---- ------<br>--- ----- --- --- ------ -------- ----- --- ------ ----- --<br>----- ----- ---------- --- --- ------ ------ ---- -- ------<br>------- --- ------ ----- --- ---- ------- -- ---- --- --<br>------- ------,279181.8999999985,279181.19999999553,278719.091,278721,278735.537,279201.72,,8,of
screen,html.Screen,2_1_1_1_9,2022-05-02T09:45:40.153Z,,,,,,,,,,,,,,,,,54,,,,,,,,,,,,,,226.78000000002794,,response,,,,100,,,,,,,Space,keypress(Space),,,,,,,,-- --- ---- --- ------ ----- ------- ---- -- its ------- --<br>------- ---------- ------ -- ----- -- ----- -- ---- ------<br>--- ----- --- --- ------ -------- ----- --- ------ ----- --<br>----- ----- ---------- --- --- ------ ------ ---- -- ------<br>------- --- ------ ----- --- ---- ------- -- ---- --- --<br>------- ------,279429.299999997,279428.5,279168.475,279182,279201.72,279435.006,,9,its
screen,html.Screen,2_1_1_1_10,2022-05-02T09:45:40.396Z,,,,,,,,,,,,,,,,,54,,,,,,,,,,,,,,236.39399999851594,,response,,,,100,,,,,,,Space,keypress(Space),,,,,,,,-- --- ---- --- ------ ----- ------- ---- -- --- revenue --<br>------- ---------- ------ -- ----- -- ----- -- ---- ------<br>--- ----- --- --- ------ -------- ----- --- ------ ----- --<br>----- ----- ---------- --- --- ------ ------ ---- -- ------<br>------- --- ------ ----- --- ---- ------- -- ---- --- --<br>------- ------,279672.19999999553,279671.3999999985,279418.457,279429.5,279435.006,279684.975,,10,revenue
screen,html.Screen,2_1_1_1_11,2022-05-02T09:45:40.678Z,,,,,,,,,,,,,,,,,54,,,,,,,,,,,,,,268.5250000000233,,response,,,,100,,,,,,,Space,keypress(Space),,,,,,,,-- --- ---- --- ------ ----- ------- ---- -- --- ------- by<br>------- ---------- ------ -- ----- -- ----- -- ---- ------<br>--- ----- --- --- ------ -------- ----- --- ------ ----- --<br>----- ----- ---------- --- --- ------ ------ ---- -- ------<br>------- --- ------ ----- --- ---- ------- -- ---- --- --<br>------- ------,279954.299999997,279953.5,279668.08,279672.3999999985,279684.975,279967.884,,11,by
screen,html.Screen,2_1_1_1_12,2022-05-02T09:45:40.960Z,,,,,,,,,,,,,,,,,54,,,,,,,,,,,,,,267.01599999848986,,response,,,,100,,,,,,,Space,keypress(Space),,,,,,,,-- --- ---- --- ------ ----- ------- ---- -- --- ------- --<br>issuing ---------- ------ -- ----- -- ----- -- ---- ------<br>--- ----- --- --- ------ -------- ----- --- ------ ----- --<br>----- ----- ---------- --- --- ------ ------ ---- -- ------<br>------- --- ------ ----- --- ---- ------- -- ---- --- --<br>------- ------,280235.59999999404,280234.8999999985,279951.162,279954.3999999985,279967.884,280250.935,,12,issuing
screen,html.Screen,2_1_1_1_13,2022-05-02T09:45:41.172Z,,,,,,,,,,,,,,,,,54,,,,,,,,,,,,,,196.56500000000233,,response,,,,100,,,,,,,Space,keypress(Space),,,,,,,,-- --- ---- --- ------ ----- ------- ---- -- --- ------- --<br>------- government ------ -- ----- -- ----- -- ---- ------<br>--- ----- --- --- ------ -------- ----- --- ------ ----- --<br>----- ----- ---------- --- --- ------ ------ ---- -- ------<br>------- --- ------ ----- --- ---- ------- -- ---- --- --<br>------- ------,280448.299999997,280447.5,280234.391,280235.799999997,280250.935,280450.754,,13,government
screen,html.Screen,2_1_1_1_14,2022-05-02T09:45:41.571Z,,,,,,,,,,,,,,,,,54,,,,,,,,,,,,,,395.5459999970044,,response,,,,100,,,,,,,Space,keypress(Space),,,,,,,,-- --- ---- --- ------ ----- ------- ---- -- --- ------- --<br>------- ---------- bonds. -- ----- -- ----- -- ---- ------<br>--- ----- --- --- ------ -------- ----- --- ------ ----- --<br>----- ----- ---------- --- --- ------ ------ ---- -- ------<br>------- --- ------ ----- --- ---- ------- -- ---- --- --<br>------- ------,280847.09999999404,280846.299999997,280434.1,280448.3999999985,280450.754,280850.311,,14,bonds.
screen,html.Screen,2_1_1_1_15,2022-05-02T09:45:41.884Z,,,,,,,,,,,,,,,,,54,,,,,,,,,,,,,,308.9889999970328,,response,,,,100,,,,,,,Space,keypress(Space),,,,,,,,-- --- ---- --- ------ ----- ------- ---- -- --- ------- --<br>------- ---------- ------ In ----- -- ----- -- ---- ------<br>--- ----- --- --- ------ -------- ----- --- ------ ----- --<br>----- ----- ---------- --- --- ------ ------ ---- -- ------<br>------- --- ------ ----- --- ---- ------- -- ---- --- --<br>------- ------,281160,281159.299999997,280833.919,280847.19999999553,280850.311,281166.826,,15,In
screen,html.Screen,2_1_1_1_16,2022-05-02T09:45:42.133Z,,,,,,,,,,,,,,,,,54,,,,,,,,,,,,,,241.17399999999907,,response,,,,100,,,,,,,Space,keypress(Space),,,,,,,,"-- --- ---- --- ------ ----- ------- ---- -- --- ------- --<br>------- ---------- ------ -- 1727, -- ----- -- ---- ------<br>--- ----- --- --- ------ -------- ----- --- ------ ----- --<br>----- ----- ---------- --- --- ------ ------ ---- -- ------<br>------- --- ------ ----- --- ---- ------- -- ---- --- --<br>------- ------",281408.799999997,281408,281150.434,281160.19999999553,281166.826,281416.899,,16,"1727,"
screen,html.Screen,2_1_1_1_17,2022-05-02T09:45:42.472Z,,,,,,,,,,,,,,,,,54,,,,,,,,,,,,,,330.6010000000242,,response,,,,100,,,,,,,Space,keypress(Space),,,,,,,,-- --- ---- --- ------ ----- ------- ---- -- --- ------- --<br>------- ---------- ------ -- ----- in ----- -- ---- ------<br>--- ----- --- --- ------ -------- ----- --- ------ ----- --<br>----- ----- ---------- --- --- ------ ------ ---- -- ------<br>------- --- ------ ----- --- ---- ------- -- ---- --- --<br>------- ------,281748.09999999404,281747.5,281400.142,281408.8999999985,281416.899,281781.819,,17,in
screen,html.Screen,2_1_1_1_18,2022-05-02T09:45:42.738Z,,,,,,,,,,,,,,,,,54,,,,,,,,,,,,,,231.48099999700207,,response,,,,100,,,,,,,Space,keypress(Space),,,,,,,,-- --- ---- --- ------ ----- ------- ---- -- --- ------- --<br>------- ---------- ------ -- ----- -- order -- ---- ------<br>--- ----- --- --- ------ -------- ----- --- ------ ----- --<br>----- ----- ---------- --- --- ------ ------ ---- -- ------<br>------- --- ------ ----- --- ---- ------- -- ---- --- --<br>------- ------,282013.8999999985,282013.299999997,281733.11,281748.299999997,281781.819,282016.148,,18,order
screen,html.Screen,2_1_1_1_19,2022-05-02T09:45:43.040Z,,,,,,,,,,,,,,,,,54,,,,,,,,,,,,,,299.2519999985234,,response,,,,100,,,,,,,Space,keypress(Space),,,,,,,,-- --- ---- --- ------ ----- ------- ---- -- --- ------- --<br>------- ---------- ------ -- ----- -- ----- to ---- ------<br>--- ----- --- --- ------ -------- ----- --- ------ ----- --<br>----- ----- ---------- --- --- ------ ------ ---- -- ------<br>------- --- ------ ----- --- ---- ------- -- ---- --- --<br>------- ------,282316.09999999404,282315.3999999985,281999.724,282014.09999999404,282016.148,282332.722,,19,to
screen,html.Screen,2_1_1_1_20,2022-05-02T09:45:43.318Z,,,,,,,,,,,,,,,,,54,,,,,,,,,,,,,,260.4779999955208,,response,,,,100,,,,,,,Space,keypress(Space),,,,,,,,-- --- ---- --- ------ ----- ------- ---- -- --- ------- --<br>------- ---------- ------ -- ----- -- ----- -- save ------<br>--- ----- --- --- ------ -------- ----- --- ------ ----- --<br>----- ----- ---------- --- --- ------ ------ ---- -- ------<br>------- --- ------ ----- --- ---- ------- -- ---- --- --<br>------- ------,282593.8999999985,282593.19999999553,282316.128,282316.299999997,282332.722,282598.997,,20,save
screen,html.Screen,2_1_1_1_21,2022-05-02T09:45:43.754Z,,,,,,,,,,,,,,,,,54,,,,,,,,,,,,,,430.0030000000261,,response,,,,100,,,,,,,Space,keypress(Space),,,,,,,,"-- --- ---- --- ------ ----- ------- ---- -- --- ------- --<br>------- ---------- ------ -- ----- -- ----- -- ---- money,<br>--- ----- --- --- ------ -------- ----- --- ------ ----- --<br>----- ----- ---------- --- --- ------ ------ ---- -- ------<br>------- --- ------ ----- --- ---- ------- -- ---- --- --<br>------- ------",283029.59999999404,283029,282582.547,282594,282598.997,283031.989,,21,"money,"
screen,html.Screen,2_1_1_1_22,2022-05-02T09:45:44.027Z,,,,,,,,,,,,,,,,,54,,,,,,,,,,,,,,270.21099999552825,,response,,,,100,,,,,,,Space,keypress(Space),,,,,,,,-- --- ---- --- ------ ----- ------- ---- -- --- ------- --<br>------- ---------- ------ -- ----- -- ----- -- ---- ------<br>the ----- --- --- ------ -------- ----- --- ------ ----- --<br>----- ----- ---------- --- --- ------ ------ ---- -- ------<br>------- --- ------ ----- --- ---- ------- -- ---- --- --<br>------- ------,283303.09999999404,283302.19999999553,283015.283,283029.799999997,283031.989,283315.165,,22,the
screen,html.Screen,2_1_1_1_23,2022-05-02T09:45:44.273Z,,,,,,,,,,,,,,,,,54,,,,,,,,,,,,,,232.9349999940605,,response,,,,100,,,,,,,Space,keypress(Space),,,,,,,,-- --- ---- --- ------ ----- ------- ---- -- --- ------- --<br>------- ---------- ------ -- ----- -- ----- -- ---- ------<br>--- state --- --- ------ -------- ----- --- ------ ----- --<br>----- ----- ---------- --- --- ------ ------ ---- -- ------<br>------- --- ------ ----- --- ---- ------- -- ---- --- --<br>------- ------,283549,283548.09999999404,283298.495,283303.19999999553,283315.165,283564.843,,23,state
screen,html.Screen,2_1_1_1_24,2022-05-02T09:45:44.509Z,,,,,,,,,,,,,,,,,54,,,,,,,,,,,,,,220.0569999985164,,response,,,,100,,,,,,,Space,keypress(Space),,,,,,,,-- --- ---- --- ------ ----- ------- ---- -- --- ------- --<br>------- ---------- ------ -- ----- -- ----- -- ---- ------<br>--- ----- cut --- ------ -------- ----- --- ------ ----- --<br>----- ----- ---------- --- --- ------ ------ ---- -- ------<br>------- --- ------ ----- --- ---- ------- -- ---- --- --<br>------- ------,283785.59999999404,283784.8999999985,283548.303,283549.09999999404,283564.843,283798.179,,24,cut
screen,html.Screen,2_1_1_1_25,2022-05-02T09:45:44.772Z,,,,,,,,,,,,,,,,,54,,,,,,,,,,,,,,249.52099999552593,,response,,,,100,,,,,,,Space,keypress(Space),,,,,,,,-- --- ---- --- ------ ----- ------- ---- -- --- ------- --<br>------- ---------- ------ -- ----- -- ----- -- ---- ------<br>--- ----- --- the ------ -------- ----- --- ------ ----- --<br>----- ----- ---------- --- --- ------ ------ ---- -- ------<br>------- --- ------ ----- --- ---- ------- -- ---- --- --<br>------- ------,284048.5,284047.69999999553,283781.514,283785.69999999553,283798.179,284064.541,,25,the
screen,html.Screen,2_1_1_1_26,2022-05-02T09:45:45.020Z,,,,,,,,,,,,,,,,,54,,,,,,,,,,,,,,231.058999994013,,response,,,,100,,,,,,,Space,keypress(Space),,,,,,,,-- --- ---- --- ------ ----- ------- ---- -- --- ------- --<br>------- ---------- ------ -- ----- -- ----- -- ---- ------<br>--- ----- --- --- bonds' -------- ----- --- ------ ----- --<br>----- ----- ---------- --- --- ------ ------ ---- -- ------<br>------- --- ------ ----- --- ---- ------- -- ---- --- --<br>------- ------,284296.299999997,284295.59999999404,284047.947,284048.69999999553,284064.541,284322.991,,26,bonds'
screen,html.Screen,2_1_1_1_27,2022-05-02T09:45:45.272Z,,,,,,,,,,,,,,,,,54,,,,,,,,,,,,,,224.20899999554968,,response,,,,100,,,,,,,Space,keypress(Space),,,,,,,,-- --- ---- --- ------ ----- ------- ---- -- --- ------- --<br>------- ---------- ------ -- ----- -- ----- -- ---- ------<br>--- ----- --- --- ------ interest ----- --- ------ ----- --<br>----- ----- ---------- --- --- ------ ------ ---- -- ------<br>------- --- ------ ----- --- ---- ------- -- ---- --- --<br>------- ------,284547.69999999553,284547.19999999553,284281.205,284296.3999999985,284322.991,284564.081,,27,interest
screen,html.Screen,2_1_1_1_28,2022-05-02T09:45:45.527Z,,,,,,,,,,,,,,,,,54,,,,,,,,,,,,,,238.3189999985043,,response,,,,100,,,,,,,Space,keypress(Space),,,,,,,,-- --- ---- --- ------ ----- ------- ---- -- --- ------- --<br>------- ---------- ------ -- ----- -- ----- -- ---- ------<br>--- ----- --- --- ------ -------- rate. --- ------ ----- --<br>----- ----- ---------- --- --- ------ ------ ---- -- ------<br>------- --- ------ ----- --- ---- ------- -- ---- --- --<br>------- ------,284803.09999999404,284802.3999999985,284547.482,284547.8999999985,284564.081,284814.046,,28,rate.
screen,html.Screen,2_1_1_1_29,2022-05-02T09:45:45.831Z,,,,,,,,,,,,,,,,,54,,,,,,,,,,,,,,292.15399999555666,,response,,,,100,,,,,,,Space,keypress(Space),,,,,,,,-- --- ---- --- ------ ----- ------- ---- -- --- ------- --<br>------- ---------- ------ -- ----- -- ----- -- ---- ------<br>--- ----- --- --- ------ -------- ----- The ------ ----- --<br>----- ----- ---------- --- --- ------ ------ ---- -- ------<br>------- --- ------ ----- --- ---- ------- -- ---- --- --<br>------- ------,285107,285106.19999999553,284797.343,284803.299999997,284814.046,285113.667,,29,The
screen,html.Screen,2_1_1_1_30,2022-05-02T09:45:46.110Z,,,,,,,,,,,,,,,,,54,,,,,,,,,,,,,,271.9329999940237,,response,,,,100,,,,,,,Space,keypress(Space),,,,,,,,-- --- ---- --- ------ ----- ------- ---- -- --- ------- --<br>------- ---------- ------ -- ----- -- ----- -- ---- ------<br>--- ----- --- --- ------ -------- ----- --- market ----- --<br>----- ----- ---------- --- --- ------ ------ ---- -- ------<br>------- --- ------ ----- --- ---- ------- -- ---- --- --<br>------- ------,285386.3999999985,285385.59999999404,285096.999,285107.19999999553,285113.667,285396.817,,30,market
screen,html.Screen,2_1_1_1_31,2022-05-02T09:45:46.374Z,,,,,,,,,,,,,,,,,54,,,,,,,,,,,,,,252.58299999852898,,response,,,,100,,,,,,,Space,keypress(Space),,,,,,,,-- --- ---- --- ------ ----- ------- ---- -- --- ------- --<br>------- ---------- ------ -- ----- -- ----- -- ---- ------<br>--- ----- --- --- ------ -------- ----- --- ------ value --<br>----- ----- ---------- --- --- ------ ------ ---- -- ------<br>------- --- ------ ----- --- ---- ------- -- ---- --- --<br>------- ------,285650.19999999553,285649.3999999985,285380.041,285386.5,285396.817,285663.421,,31,value
screen,html.Screen,2_1_1_1_32,2022-05-02T09:45:46.612Z,,,,,,,,,,,,,,,,,54,,,,,,,,,,,,,,223.37899999704678,,response,,,,100,,,,,,,Space,keypress(Space),,,,,,,,-- --- ---- --- ------ ----- ------- ---- -- --- ------- --<br>------- ---------- ------ -- ----- -- ----- -- ---- ------<br>--- ----- --- --- ------ -------- ----- --- ------ ----- of<br>----- ----- ---------- --- --- ------ ------ ---- -- ------<br>------- --- ------ ----- --- ---- ------- -- ---- --- --<br>------- ------,285887.69999999553,285886.799999997,285646.752,285650.299999997,285663.421,285896.429,,32,of
screen,html.Screen,2_1_1_1_33,2022-05-02T09:45:46.854Z,,,,,,,,,,,,,,,,,54,,,,,,,,,,,,,,232.6709999940358,,response,,,,100,,,,,,,Space,keypress(Space),,,,,,,,-- --- ---- --- ------ ----- ------- ---- -- --- ------- --<br>------- ---------- ------ -- ----- -- ----- -- ---- ------<br>--- ----- --- --- ------ -------- ----- --- ------ ----- --<br>these ----- ---------- --- --- ------ ------ ---- -- ------<br>------- --- ------ ----- --- ---- ------- -- ---- --- --<br>------- ------,286129.8999999985,286129.09999999404,285879.759,285887.799999997,285896.429,286146.15,,33,these
screen,html.Screen,2_1_1_1_34,2022-05-02T09:45:47.097Z,,,,,,,,,,,,,,,,,54,,,,,,,,,,,,,,226.54999999550637,,response,,,,100,,,,,,,Space,keypress(Space),,,,,,,,-- --- ---- --- ------ ----- ------- ---- -- --- ------- --<br>------- ---------- ------ -- ----- -- ----- -- ---- ------<br>--- ----- --- --- ------ -------- ----- --- ------ ----- --<br>----- bonds ---------- --- --- ------ ------ ---- -- ------<br>------- --- ------ ----- --- ---- ------- -- ---- --- --<br>------- ------,286373.5,286372.69999999553,286129.619,286130.09999999404,286146.15,286379.343,,34,bonds
screen,html.Screen,2_1_1_1_35,2022-05-02T09:45:47.322Z,,,,,,,,,,,,,,,,,54,,,,,,,,,,,,,,218.25699999404605,,response,,,,100,,,,,,,Space,keypress(Space),,,,,,,,"-- --- ---- --- ------ ----- ------- ---- -- --- ------- --<br>------- ---------- ------ -- ----- -- ----- -- ---- ------<br>--- ----- --- --- ------ -------- ----- --- ------ ----- --<br>----- ----- plummeted, --- --- ------ ------ ---- -- ------<br>------- --- ------ ----- --- ---- ------- -- ---- --- --<br>------- ------",286598.19999999553,286597.59999999404,286362.856,286373.69999999553,286379.343,286612.439,,35,"plummeted,"
screen,html.Screen,2_1_1_1_36,2022-05-02T09:45:47.615Z,,,,,,,,,,,,,,,,,54,,,,,,,,,,,,,,278.36099999700673,,response,,,,100,,,,,,,Space,keypress(Space),,,,,,,,-- --- ---- --- ------ ----- ------- ---- -- --- ------- --<br>------- ---------- ------ -- ----- -- ----- -- ---- ------<br>--- ----- --- --- ------ -------- ----- --- ------ ----- --<br>----- ----- ---------- and --- ------ ------ ---- -- ------<br>------- --- ------ ----- --- ---- ------- -- ---- --- --<br>------- ------,286891.59999999404,286890.799999997,286595.929,286598.3999999985,286612.439,286895.523,,36,and
screen,html.Screen,2_1_1_1_37,2022-05-02T09:45:47.903Z,,,,,,,,,,,,,,,,,54,,,,,,,,,,,,,,283.17699999554316,,response,,,,100,,,,,,,Space,keypress(Space),,,,,,,,-- --- ---- --- ------ ----- ------- ---- -- --- ------- --<br>------- ---------- ------ -- ----- -- ----- -- ---- ------<br>--- ----- --- --- ------ -------- ----- --- ------ ----- --<br>----- ----- ---------- --- the ------ ------ ---- -- ------<br>------- --- ------ ----- --- ---- ------- -- ---- --- --<br>------- ------,287179.5,287178.69999999553,286879.06,286891.69999999553,286895.523,287195.425,,37,the
screen,html.Screen,2_1_1_1_38,2022-05-02T09:45:48.140Z,,,,,,,,,,,,,,,,,54,,,,,,,,,,,,,,219.97499999852153,,response,,,,100,,,,,,,Space,keypress(Space),,,,,,,,-- --- ---- --- ------ ----- ------- ---- -- --- ------- --<br>------- ---------- ------ -- ----- -- ----- -- ---- ------<br>--- ----- --- --- ------ -------- ----- --- ------ ----- --<br>----- ----- ---------- --- --- market ------ ---- -- ------<br>------- --- ------ ----- --- ---- ------- -- ---- --- --<br>------- ------,287416.09999999404,287415.3999999985,287178.629,287179.59999999404,287195.425,287428.436,,38,market
screen,html.Screen,2_1_1_1_39,2022-05-02T09:45:48.394Z,,,,,,,,,,,,,,,,,54,,,,,,,,,,,,,,241.06400000001304,,response,,,,100,,,,,,,Space,keypress(Space),,,,,,,,-- --- ---- --- ------ ----- ------- ---- -- --- ------- --<br>------- ---------- ------ -- ----- -- ----- -- ---- ------<br>--- ----- --- --- ------ -------- ----- --- ------ ----- --<br>----- ----- ---------- --- --- ------ became ---- -- ------<br>------- --- ------ ----- --- ---- ------- -- ---- --- --<br>------- ------,287670.19999999553,287669.5,287411.852,287416.19999999553,287428.436,287678.286,,39,became
screen,html.Screen,2_1_1_1_40,2022-05-02T09:45:48.627Z,,,,,,,,,,,,,,,,,54,,,,,,,,,,,,,,224.113999998488,,response,,,,100,,,,,,,Space,keypress(Space),,,,,,,,-- --- ---- --- ------ ----- ------- ---- -- --- ------- --<br>------- ---------- ------ -- ----- -- ----- -- ---- ------<br>--- ----- --- --- ------ -------- ----- --- ------ ----- --<br>----- ----- ---------- --- --- ------ ------ wary -- ------<br>------- --- ------ ----- --- ---- ------- -- ---- --- --<br>------- ------,287903.19999999553,287902.3999999985,287661.764,287670.299999997,287678.286,287911.47,,40,wary
screen,html.Screen,2_1_1_1_41,2022-05-02T09:45:48.874Z,,,,,,,,,,,,,,,,,54,,,,,,,,,,,,,,237.8299999970477,,response,,,,100,,,,,,,Space,keypress(Space),,,,,,,,-- --- ---- --- ------ ----- ------- ---- -- --- ------- --<br>------- ---------- ------ -- ----- -- ----- -- ---- ------<br>--- ----- --- --- ------ -------- ----- --- ------ ----- --<br>----- ----- ---------- --- --- ------ ------ ---- of ------<br>------- --- ------ ----- --- ---- ------- -- ---- --- --<br>------- ------,288150.09999999404,288149.299999997,287894.85,287903.299999997,287911.47,288161.198,,41,of
screen,html.Screen,2_1_1_1_42,2022-05-02T09:45:49.115Z,,,,,,,,,,,,,,,,,54,,,,,,,,,,,,,,229.5019999955548,,response,,,,100,,,,,,,Space,keypress(Space),,,,,,,,-- --- ---- --- ------ ----- ------- ---- -- --- ------- --<br>------- ---------- ------ -- ----- -- ----- -- ---- ------<br>--- ----- --- --- ------ -------- ----- --- ------ ----- --<br>----- ----- ---------- --- --- ------ ------ ---- -- French<br>------- --- ------ ----- --- ---- ------- -- ---- --- --<br>------- ------,288391.299999997,288390.69999999553,288144.423,288150.299999997,288161.198,288394.249,,42,French
screen,html.Screen,2_1_1_1_43,2022-05-02T09:45:49.398Z,,,,,,,,,,,,,,,,,54,,,,,,,,,,,,,,278.95099999551894,,response,,,,100,,,,,,,Space,keypress(Space),,,,,,,,-- --- ---- --- ------ ----- ------- ---- -- --- ------- --<br>------- ---------- ------ -- ----- -- ----- -- ---- ------<br>--- ----- --- --- ------ -------- ----- --- ------ ----- --<br>----- ----- ---------- --- --- ------ ------ ---- -- ------<br>credit. --- ------ ----- --- ---- ------- -- ---- --- --<br>------- ------,288673.8999999985,288673.19999999553,288377.622,288391.3999999985,288394.249,288677.312,,43,credit.
screen,html.Screen,2_1_1_1_44,2022-05-02T09:45:49.680Z,,,,,,,,,,,,,,,,,54,,,,,,,,,,,,,,278.2879999940633,,response,,,,100,,,,,,,Space,keypress(Space),,,,,,,,-- --- ---- --- ------ ----- ------- ---- -- --- ------- --<br>------- ---------- ------ -- ----- -- ----- -- ---- ------<br>--- ----- --- --- ------ -------- ----- --- ------ ----- --<br>----- ----- ---------- --- --- ------ ------ ---- -- ------<br>------- The ------ ----- --- ---- ------- -- ---- --- --<br>------- ------,288956.3999999985,288955.59999999404,288660.82,288674.09999999404,288677.312,288960.477,,44,The
screen,html.Screen,2_1_1_1_45,2022-05-02T09:45:49.908Z,,,,,,,,,,,,,,,,,54,,,,,,,,,,,,,,222.92299999849638,,response,,,,100,,,,,,,Space,keypress(Space),,,,,,,,-- --- ---- --- ------ ----- ------- ---- -- --- ------- --<br>------- ---------- ------ -- ----- -- ----- -- ---- ------<br>--- ----- --- --- ------ -------- ----- --- ------ ----- --<br>----- ----- ---------- --- --- ------ ------ ---- -- ------<br>------- --- French ----- --- ---- ------- -- ---- --- --<br>------- ------,289184.09999999404,289183.3999999985,288943.934,288956.5,288960.477,289193.813,,45,French
screen,html.Screen,2_1_1_1_46,2022-05-02T09:45:50.156Z,,,,,,,,,,,,,,,,,54,,,,,,,,,,,,,,237.68699999997625,,response,,,,100,,,,,,,Space,keypress(Space),,,,,,,,-- --- ---- --- ------ ----- ------- ---- -- --- ------- --<br>------- ---------- ------ -- ----- -- ----- -- ---- ------<br>--- ----- --- --- ------ -------- ----- --- ------ ----- --<br>----- ----- ---------- --- --- ------ ------ ---- -- ------<br>------- --- ------ state --- ---- ------- -- ---- --- --<br>------- ------,289432.19999999553,289431.5,289177.197,289184.299999997,289193.813,289443.379,,46,state
screen,html.Screen,2_1_1_1_47,2022-05-02T09:45:50.369Z,,,,,,,,,,,,,,,,,54,,,,,,,,,,,,,,201.52099999849452,,response,,,,100,,,,,,,Space,keypress(Space),,,,,,,,-- --- ---- --- ------ ----- ------- ---- -- --- ------- --<br>------- ---------- ------ -- ----- -- ----- -- ---- ------<br>--- ----- --- --- ------ -------- ----- --- ------ ----- --<br>----- ----- ---------- --- --- ------ ------ ---- -- ------<br>------- --- ------ ----- was ---- ------- -- ---- --- --<br>------- ------,289645.5,289644.8999999985,289427.024,289432.299999997,289443.379,289659.896,,47,was
screen,html.Screen,2_1_1_1_48,2022-05-02T09:45:50.650Z,,,,,,,,,,,,,,,,,54,,,,,,,,,,,,,,265.1039999999921,,response,,,,100,,,,,,,Space,keypress(Space),,,,,,,,-- --- ---- --- ------ ----- ------- ---- -- --- ------- --<br>------- ---------- ------ -- ----- -- ----- -- ---- ------<br>--- ----- --- --- ------ -------- ----- --- ------ ----- --<br>----- ----- ---------- --- --- ------ ------ ---- -- ------<br>------- --- ------ ----- --- left ------- -- ---- --- --<br>------- ------,289925.799999997,289925,289643.478,289645.69999999553,289659.896,289943.153,,48,left
screen,html.Screen,2_1_1_1_49,2022-05-02T09:45:50.892Z,,,,,,,,,,,,,,,,,54,,,,,,,,,,,,,,224.5469999955385,,response,,,,100,,,,,,,Space,keypress(Space),,,,,,,,-- --- ---- --- ------ ----- ------- ---- -- --- ------- --<br>------- ---------- ------ -- ----- -- ----- -- ---- ------<br>--- ----- --- --- ------ -------- ----- --- ------ ----- --<br>----- ----- ---------- --- --- ------ ------ ---- -- ------<br>------- --- ------ ----- --- ---- without -- ---- --- --<br>------- ------,290168.5,290167.69999999553,289926.54,289926,289943.153,290176.272,,49,without
screen,html.Screen,2_1_1_1_50,2022-05-02T09:45:51.170Z,,,,,,,,,,,,,,,,,54,,,,,,,,,,,,,,268.82799999404233,,response,,,,100,,,,,,,Space,keypress(Space),,,,,,,,-- --- ---- --- ------ ----- ------- ---- -- --- ------- --<br>------- ---------- ------ -- ----- -- ----- -- ---- ------<br>--- ----- --- --- ------ -------- ----- --- ------ ----- --<br>----- ----- ---------- --- --- ------ ------ ---- -- ------<br>------- --- ------ ----- --- ---- ------- an ---- --- --<br>------- ------,290445.8999999985,290445.09999999404,290159.605,290168.69999999553,290176.272,290459.5,,50,an
screen,html.Screen,2_1_1_1_51,2022-05-02T09:45:51.386Z,,,,,,,,,,,,,,,,,54,,,,,,,,,,,,,,201.79999999701977,,response,,,,100,,,,,,,Space,keypress(Space),,,,,,,,-- --- ---- --- ------ ----- ------- ---- -- --- ------- --<br>------- ---------- ------ -- ----- -- ----- -- ---- ------<br>--- ----- --- --- ------ -------- ----- --- ------ ----- --<br>----- ----- ---------- --- --- ------ ------ ---- -- ------<br>------- --- ------ ----- --- ---- ------- -- easy --- --<br>------- ------,290662.09999999404,290661.299999997,290442.785,290446,290459.5,290675.904,,51,easy
screen,html.Screen,2_1_1_1_52,2022-05-02T09:45:51.650Z,,,,,,,,,,,,,,,,,54,,,,,,,,,,,,,,249.99599999852944,,response,,,,100,,,,,,,Space,keypress(Space),,,,,,,,-- --- ---- --- ------ ----- ------- ---- -- --- ------- --<br>------- ---------- ------ -- ----- -- ----- -- ---- ------<br>--- ----- --- --- ------ -------- ----- --- ------ ----- --<br>----- ----- ---------- --- --- ------ ------ ---- -- ------<br>------- --- ------ ----- --- ---- ------- -- ---- way --<br>------- ------,290926.59999999404,290925.8999999985,290659.12,290662.19999999553,290675.904,290942.463,,52,way
screen,html.Screen,2_1_1_1_53,2022-05-02T09:45:51.913Z,,,,,,,,,,,,,,,,,54,,,,,,,,,,,,,,246.33699999703094,,response,,,,100,,,,,,,Space,keypress(Space),,,,,,,,-- --- ---- --- ------ ----- ------- ---- -- --- ------- --<br>------- ---------- ------ -- ----- -- ----- -- ---- ------<br>--- ----- --- --- ------ -------- ----- --- ------ ----- --<br>----- ----- ---------- --- --- ------ ------ ---- -- ------<br>------- --- ------ ----- --- ---- ------- -- ---- --- of<br>------- ------,291189.5,291188.799999997,290925.693,290926.69999999553,290942.463,291191.987,,53,of
screen,html.Screen,2_1_1_1_54,2022-05-02T09:45:52.206Z,,,,,,,,,,,,,,,,,54,,,,,,,,,,,,,,288.91299999848707,,response,,,,100,,,,,,,Space,keypress(Space),,,,,,,,-- --- ---- --- ------ ----- ------- ---- -- --- ------- --<br>------- ---------- ------ -- ----- -- ----- -- ---- ------<br>--- ----- --- --- ------ -------- ----- --- ------ ----- --<br>----- ----- ---------- --- --- ------ ------ ---- -- ------<br>------- --- ------ ----- --- ---- ------- -- ---- --- --<br>raising ------,291481.59999999404,291480.8999999985,291175.36,291189.69999999553,291191.987,291491.835,,54,raising
screen,html.Screen,2_1_1_1_55,2022-05-02T09:45:52.624Z,,,,,,,,,,,,,,,,,54,,,,,,,,,,,,,,407.56499999848893,,response,,,,100,,,,,,,Space,keypress(Space),,,,,,,,-- --- ---- --- ------ ----- ------- ---- -- --- ------- --<br>------- ---------- ------ -- ----- -- ----- -- ---- ------<br>--- ----- --- --- ------ -------- ----- --- ------ ----- --<br>----- ----- ---------- --- --- ------ ------ ---- -- ------<br>------- --- ------ ----- --- ---- ------- -- ---- --- --<br>------- money.,291900.19999999553,291899.3999999985,291475.242,291481.799999997,291491.835,291908.077,,55,money.
Item 100,flow.Loop,2_1_1_1,2022-05-02T09:45:52.624Z,,,,,,,,,,,,,,,,,,,,,,,,,,,,,,,15878.269999998505,,completion,,,,,E,,,,,,,,,,,silence,,,,,291900.5,291899.3999999985,276004.341,276005.59999999404,276021.13,291908.077,,,
Question 1,html.Screen,2_1_1_2,2022-05-02T09:45:56.689Z,,,,,,,,,,,,,,,,,,,,,,,,,,,,true,TRUE,,4055.92300000001,,response,,,,100,E,,,,,,TRUE,click #choice-1,,,,silence,,,,,295964.69999999553,295964,291891.654,291900.59999999404,291908.077,295988.107,,,
Question 2,html.Screen,2_1_1_3,2022-05-02T09:46:01.937Z,,,,,,,,,,,,,,,,,,,,,,,,,,,,true,FALSE,,5223.992999994021,,response,,,,100,E,,,,,,FALSE,click #choice-2,,,,silence,,,,,301212.799999997,301212.09999999404,295971.393,295964.799999997,295988.107,301217.162,,,
Item 100,flow.Sequence,2_1_1,2022-05-02T09:46:01.937Z,,,,,,,,,,,,,,,,,,,,,,,,,,,,,,,35199.51999999402,,completion,,,,,,,,,,,,,,,,,,,,,301212.8999999985,301212.09999999404,265996.051,265997,266012.58,301217.162,,,
End of Practice,html.Page,2_1_2,2022-05-02T09:46:06.617Z,,,,,,,,,,,,,,,,,,,,,,,,,,,,,,,4675.437999994028,,form submission,,,,,,,,,,,,,,,,,,,,,305892.799999997,305892.59999999404,301200.531,301212.8999999985,301217.162,305896.576,,,
Practice,flow.Sequence,2_1,2022-05-02T09:46:06.617Z,,,,,,,,,,,,,,,,,,,,,,,,,,,,,,,76133.87999999404,,completion,,,,,,,,,,,,,,,,,,,,,305892.8999999985,305892.59999999404,229742.192,229756.8999999985,229758.72,305896.576,,,
Trap_instruction,html.Page,2_2_0,2022-05-02T09:46:10.513Z,,,,,,,,,,,,,,,,,,,,,,,,,,,,,,,3892.223999997019,,form submission,,,,,,,,,,,,,,,,,,,,,309788.8999999985,309788.799999997,305880.11,305893,305896.576,309793.404,,,
trap_trial,html.Screen,2_2_1,2022-05-02T09:46:13.136Z,,,,,,,,,,,,,,,,,,,,,,,,,,,,true,1,,2617.795999995549,,response,,,,,,,,,,,1,click #choice-1,,,,,,,,,312412.09999999404,312411.19999999553,309777.053,309789,309793.404,312424.727,,,
end of trap trial,html.Page,2_2_2,2022-05-02T09:46:14.432Z,,,,,,,,,,,,,,,,,,,,,,,,,,,,,,,1283.372999994026,,form submission,,,,,,,,,,,,,,,,,,,,,313708.3999999985,313708.09999999404,312407.949,312412.19999999553,312424.727,313723.577,,,
Trap 1,flow.Sequence,2_2,2022-05-02T09:46:14.432Z,,,,,,,,,,,,,,,,,,,,,,,,,,,,,,,7811.523999994039,,completion,,,,,,,,,,,,,,,,,,,,,313708.3999999985,313708.09999999404,305880.11,305892.8999999985,305896.576,313723.577,,,
Standby,html.Page,2_3_0,2022-05-02T09:46:22.425Z,,,,,,,,,,,,,,,,,,,,,,,,,,,,,,,7993.467000000004,,timeout,,,,,,,,,,,,,,,,,,,,,321701.299999997,321700.402,313706.924,313708.59999999404,313723.577,321717.044,,,
Holding screen,html.Screen,2_3_1_0_0,2022-05-02T09:46:29.419Z,,,,,,,,,,,,,,,,,,,,,,,,,,,,,,,6994.526000000013,,timeout,,,,,,,,,,,,,,,,,,,,,328695.3999999985,328694.642,321700.402,321701.3999999985,321717.044,328711.57,,,
screen,html.Screen,2_3_1_0_1_0,2022-05-02T09:46:30.894Z,,,,,,,,,,,,,,,,,40,,,,,,,,,,,,,,1457.7299999970128,,response,,,,9,E,,,,,,Space,keypress(Space),,,,silence,,,,Police -- ------- ---- ---- ---- - -------- ----- --- --<br>----- ----- ------ -- ---- -- --- - ---- -- - ----- -----<br>------ ---- ------ ---- - -------- ------- -- --- --------<br>-------- ----------- ---- ------ ---- ------ ---- --- ---<br>-------- --- -----,330170.299999997,330169.299999997,328694.642,328695.59999999404,328711.57,330176.932,,0,Police
screen,html.Screen,2_3_1_0_1_1,2022-05-02T09:46:31.181Z,,,,,,,,,,,,,,,,,40,,,,,,,,,,,,,,279.3679999970482,,response,,,,9,E,,,,,,Space,keypress(Space),,,,silence,,,,------ in ------- ---- ---- ---- - -------- ----- --- --<br>----- ----- ------ -- ---- -- --- - ---- -- - ----- -----<br>------ ---- ------ ---- - -------- ------- -- --- --------<br>-------- ----------- ---- ------ ---- ------ ---- --- ---<br>-------- --- -----,330457,330456.299999997,330160.257,330170.3999999985,330176.932,330459.922,,1,in
screen,html.Screen,2_3_1_0_1_2,2022-05-02T09:46:31.403Z,,,,,,,,,,,,,,,,,40,,,,,,,,,,,,,,218.5779999999795,,response,,,,9,E,,,,,,Space,keypress(Space),,,,silence,,,,------ -- Georgia ---- ---- ---- - -------- ----- --- --<br>----- ----- ------ -- ---- -- --- - ---- -- - ----- -----<br>------ ---- ------ ---- - -------- ------- -- --- --------<br>-------- ----------- ---- ------ ---- ------ ---- --- ---<br>-------- --- -----,330679.19999999553,330678.5,330443.502,330457.09999999404,330459.922,330693.321,,2,Georgia
screen,html.Screen,2_3_1_0_1_3,2022-05-02T09:46:31.607Z,,,,,,,,,,,,,,,,,40,,,,,,,,,,,,,,189.4789999970235,,response,,,,9,E,,,,,,Space,keypress(Space),,,,silence,,,,------ -- ------- have ---- ---- - -------- ----- --- --<br>----- ----- ------ -- ---- -- --- - ---- -- - ----- -----<br>------ ---- ------ ---- - -------- ------- -- --- --------<br>-------- ----------- ---- ------ ---- ------ ---- --- ---<br>-------- --- -----,330883.59999999404,330882.799999997,330676.643,330679.3999999985,330693.321,330893.051,,3,have
screen,html.Screen,2_3_1_0_1_4,2022-05-02T09:46:31.857Z,,,,,,,,,,,,,,,,,40,,,,,,,,,,,,,,239.74899999704212,,response,,,,9,E,,,,,,Space,keypress(Space),,,,silence,,,,------ -- ------- ---- shut ---- - -------- ----- --- --<br>----- ----- ------ -- ---- -- --- - ---- -- - ----- -----<br>------ ---- ------ ---- - -------- ------- -- --- --------<br>-------- ----------- ---- ------ ---- ------ ---- --- ---<br>-------- --- -----,331133.5,331132.799999997,330876.261,330883.69999999553,330893.051,331142.727,,4,shut
screen,html.Screen,2_3_1_0_1_5,2022-05-02T09:46:32.015Z,,,,,,,,,,,,,,,,,40,,,,,,,,,,,,,,147.17299999849638,,response,,,,9,E,,,,,,Space,keypress(Space),,,,silence,,,,------ -- ------- ---- ---- down - -------- ----- --- --<br>----- ----- ------ -- ---- -- --- - ---- -- - ----- -----<br>------ ---- ------ ---- - -------- ------- -- --- --------<br>-------- ----------- ---- ------ ---- ------ ---- --- ---<br>-------- --- -----,331290.69999999553,331289.8999999985,331126.272,331133.799999997,331142.727,331322.255,,5,down
screen,html.Screen,2_3_1_0_1_6,2022-05-02T09:46:32.233Z,,,,,,,,,,,,,,,,,40,,,,,,,,,,,,,,186.444999995525,,response,,,,9,E,,,,,,Space,keypress(Space),,,,silence,,,,------ -- ------- ---- ---- ---- a -------- ----- --- --<br>----- ----- ------ -- ---- -- --- - ---- -- - ----- -----<br>------ ---- ------ ---- - -------- ------- -- --- --------<br>-------- ----------- ---- ------ ---- ------ ---- --- ---<br>-------- --- -----,331509.59999999404,331508.69999999553,331276.04,331290.799999997,331322.255,331525.821,,6,a
screen,html.Screen,2_3_1_0_1_7,2022-05-02T09:46:32.428Z,,,,,,,,,,,,,,,,,40,,,,,,,,,,,,,,177.5789999985136,,response,,,,9,E,,,,,,Space,keypress(Space),,,,silence,,,,------ -- ------- ---- ---- ---- - lemonade ----- --- --<br>----- ----- ------ -- ---- -- --- - ---- -- - ----- -----<br>------ ---- ------ ---- - -------- ------- -- --- --------<br>-------- ----------- ---- ------ ---- ------ ---- --- ---<br>-------- --- -----,331704.09999999404,331703.3999999985,331509.248,331509.69999999553,331525.821,331708.919,,7,lemonade
screen,html.Screen,2_3_1_0_1_8,2022-05-02T09:46:32.646Z,,,,,,,,,,,,,,,,,40,,,,,,,,,,,,,,212.18099999404512,,response,,,,9,E,,,,,,Space,keypress(Space),,,,silence,,,,------ -- ------- ---- ---- ---- - -------- stand --- --<br>----- ----- ------ -- ---- -- --- - ---- -- - ----- -----<br>------ ---- ------ ---- - -------- ------- -- --- --------<br>-------- ----------- ---- ------ ---- ------ ---- --- ---<br>-------- --- -----,331921.799999997,331921.09999999404,331692.348,331704.19999999553,331708.919,331925.386,,8,stand
screen,html.Screen,2_3_1_0_1_9,2022-05-02T09:46:32.834Z,,,,,,,,,,,,,,,,,40,,,,,,,,,,,,,,183.6140000000014,,response,,,,9,E,,,,,,Space,keypress(Space),,,,silence,,,,------ -- ------- ---- ---- ---- - -------- ----- run --<br>----- ----- ------ -- ---- -- --- - ---- -- - ----- -----<br>------ ---- ------ ---- - -------- ------- -- --- --------<br>-------- ----------- ---- ------ ---- ------ ---- --- ---<br>-------- --- -----,332109.799999997,332109,331908.975,331921.8999999985,331925.386,332125.161,,9,run
screen,html.Screen,2_3_1_0_1_10,2022-05-02T09:46:33.050Z,,,,,,,,,,,,,,,,,40,,,,,,,,,,,,,,200.3389999999781,,response,,,,9,E,,,,,,Space,keypress(Space),,,,silence,,,,------ -- ------- ---- ---- ---- - -------- ----- --- by<br>----- ----- ------ -- ---- -- --- - ---- -- - ----- -----<br>------ ---- ------ ---- - -------- ------- -- --- --------<br>-------- ----------- ---- ------ ---- ------ ---- --- ---<br>-------- --- -----,332326.19999999553,332325.5,332108.511,332109.8999999985,332125.161,332341.719,,10,by
screen,html.Screen,2_3_1_0_1_11,2022-05-02T09:46:33.252Z,,,,,,,,,,,,,,,,,40,,,,,,,,,,,,,,185.88099999405676,,response,,,,9,E,,,,,,Space,keypress(Space),,,,silence,,,,------ -- ------- ---- ---- ---- - -------- ----- --- --<br>three ----- ------ -- ---- -- --- - ---- -- - ----- -----<br>------ ---- ------ ---- - -------- ------- -- --- --------<br>-------- ----------- ---- ------ ---- ------ ---- --- ---<br>-------- --- -----,332528.3999999985,332527.59999999404,332325.207,332326.299999997,332341.719,332541.728,,11,three
screen,html.Screen,2_3_1_0_1_12,2022-05-02T09:46:33.476Z,,,,,,,,,,,,,,,,,40,,,,,,,,,,,,,,209.47199999552686,,response,,,,9,E,,,,,,Space,keypress(Space),,,,silence,,,,------ -- ------- ---- ---- ---- - -------- ----- --- --<br>----- girls ------ -- ---- -- --- - ---- -- - ----- -----<br>------ ---- ------ ---- - -------- ------- -- --- --------<br>-------- ----------- ---- ------ ---- ------ ---- --- ---<br>-------- --- -----,332752,332751.19999999553,332525.003,332528.5,332541.728,332758.112,,12,girls
screen,html.Screen,2_3_1_0_1_13,2022-05-02T09:46:33.661Z,,,,,,,,,,,,,,,,,40,,,,,,,,,,,,,,177.88799999997718,,response,,,,9,E,,,,,,Space,keypress(Space),,,,silence,,,,------ -- ------- ---- ---- ---- - -------- ----- --- --<br>----- ----- trying -- ---- -- --- - ---- -- - ----- -----<br>------ ---- ------ ---- - -------- ------- -- --- --------<br>-------- ----------- ---- ------ ---- ------ ---- --- ---<br>-------- --- -----,332936.799999997,332936,332741.433,332752.19999999553,332758.112,332941.207,,13,trying
screen,html.Screen,2_3_1_0_1_14,2022-05-02T09:46:33.846Z,,,,,,,,,,,,,,,,,40,,,,,,,,,,,,,,180.79300000000512,,response,,,,9,E,,,,,,Space,keypress(Space),,,,silence,,,,------ -- ------- ---- ---- ---- - -------- ----- --- --<br>----- ----- ------ to ---- -- --- - ---- -- - ----- -----<br>------ ---- ------ ---- - -------- ------- -- --- --------<br>-------- ----------- ---- ------ ---- ------ ---- --- ---<br>-------- --- -----,333122.3999999985,333122,332924.714,332937,332941.207,333124.331,,14,to
screen,html.Screen,2_3_1_0_1_15,2022-05-02T09:46:34.054Z,,,,,,,,,,,,,,,,,40,,,,,,,,,,,,,,205.26899999403395,,response,,,,9,E,,,,,,Space,keypress(Space),,,,silence,,,,------ -- ------- ---- ---- ---- - -------- ----- --- --<br>----- ----- ------ -- save -- --- - ---- -- - ----- -----<br>------ ---- ------ ---- - -------- ------- -- --- --------<br>-------- ----------- ---- ------ ---- ------ ---- --- ---<br>-------- --- -----,333330.3999999985,333329.59999999404,333107.843,333122.59999999404,333124.331,333341.077,,15,save
screen,html.Screen,2_3_1_0_1_16,2022-05-02T09:46:34.246Z,,,,,,,,,,,,,,,,,40,,,,,,,,,,,,,,180.22299999702955,,response,,,,9,E,,,,,,Space,keypress(Space),,,,silence,,,,------ -- ------- ---- ---- ---- - -------- ----- --- --<br>----- ----- ------ -- ---- up --- - ---- -- - ----- -----<br>------ ---- ------ ---- - -------- ------- -- --- --------<br>-------- ----------- ---- ------ ---- ------ ---- --- ---<br>-------- --- -----,333522,333521.299999997,333324.402,333330.59999999404,333341.077,333524.122,,16,up
screen,html.Screen,2_3_1_0_1_17,2022-05-02T09:46:34.438Z,,,,,,,,,,,,,,,,,40,,,,,,,,,,,,,,189.27799999853596,,response,,,,9,E,,,,,,Space,keypress(Space),,,,silence,,,,------ -- ------- ---- ---- ---- - -------- ----- --- --<br>----- ----- ------ -- ---- -- for - ---- -- - ----- -----<br>------ ---- ------ ---- - -------- ------- -- --- --------<br>-------- ----------- ---- ------ ---- ------ ---- --- ---<br>-------- --- -----,333714.09999999404,333713.3999999985,333507.551,333522.19999999553,333524.122,333723.98,,17,for
screen,html.Screen,2_3_1_0_1_18,2022-05-02T09:46:34.630Z,,,,,,,,,,,,,,,,,40,,,,,,,,,,,,,,181.11999999405816,,response,,,,9,E,,,,,,Space,keypress(Space),,,,silence,,,,------ -- ------- ---- ---- ---- - -------- ----- --- --<br>----- ----- ------ -- ---- -- --- a ---- -- - ----- -----<br>------ ---- ------ ---- - -------- ------- -- --- --------<br>-------- ----------- ---- ------ ---- ------ ---- --- ---<br>-------- --- -----,333905.799999997,333905.09999999404,333707.222,333714.19999999553,333723.98,333925.883,,18,a
screen,html.Screen,2_3_1_0_1_19,2022-05-02T09:46:34.839Z,,,,,,,,,,,,,,,,,40,,,,,,,,,,,,,,188.61700000002747,,response,,,,9,E,,,,,,Space,keypress(Space),,,,silence,,,,------ -- ------- ---- ---- ---- - -------- ----- --- --<br>----- ----- ------ -- ---- -- --- - trip -- - ----- -----<br>------ ---- ------ ---- - -------- ------- -- --- --------<br>-------- ----------- ---- ------ ---- ------ ---- --- ---<br>-------- --- -----,334115.299999997,334114.5,333890.358,333906,333925.883,334123.686,,19,trip
screen,html.Screen,2_3_1_0_1_20,2022-05-02T09:46:35.177Z,,,,,,,,,,,,,,,,,40,,,,,,,,,,,,,,329.4139999940526,,response,,,,9,E,,,,,,Space,keypress(Space),,,,silence,,,,------ -- ------- ---- ---- ---- - -------- ----- --- --<br>----- ----- ------ -- ---- -- --- - ---- to - ----- -----<br>------ ---- ------ ---- - -------- ------- -- --- --------<br>-------- ----------- ---- ------ ---- ------ ---- --- ---<br>-------- --- -----,334453.799999997,334453.09999999404,334106.948,334115.5,334123.686,334456.584,,20,to
screen,html.Screen,2_3_1_0_1_21,2022-05-02T09:46:35.363Z,,,,,,,,,,,,,,,,,40,,,,,,,,,,,,,,182.01599999406608,,response,,,,9,E,,,,,,Space,keypress(Space),,,,silence,,,,------ -- ------- ---- ---- ---- - -------- ----- --- --<br>----- ----- ------ -- ---- -- --- - ---- -- a ----- -----<br>------ ---- ------ ---- - -------- ------- -- --- --------<br>-------- ----------- ---- ------ ---- ------ ---- --- ---<br>-------- --- -----,334639.299999997,334638.59999999404,334440.267,334453.8999999985,334456.584,334673.326,,21,a
screen,html.Screen,2_3_1_0_1_22,2022-05-02T09:46:35.544Z,,,,,,,,,,,,,,,,,40,,,,,,,,,,,,,,146.2739999940386,,response,,,,9,E,,,,,,Space,keypress(Space),,,,silence,,,,------ -- ------- ---- ---- ---- - -------- ----- --- --<br>----- ----- ------ -- ---- -- --- - ---- -- - water -----<br>------ ---- ------ ---- - -------- ------- -- --- --------<br>-------- ----------- ---- ------ ---- ------ ---- --- ---<br>-------- --- -----,334820.299999997,334819.59999999404,334656.487,334639.5,334673.326,334822.92,,22,water
screen,html.Screen,2_3_1_0_1_23,2022-05-02T09:46:35.750Z,,,,,,,,,,,,,,,,,40,,,,,,,,,,,,,,203.17999999405583,,response,,,,9,E,,,,,,Space,keypress(Space),,,,silence,,,,"------ -- ------- ---- ---- ---- - -------- ----- --- --<br>----- ----- ------ -- ---- -- --- - ---- -- - ----- park,<br>------ ---- ------ ---- - -------- ------- -- --- --------<br>-------- ----------- ---- ------ ---- ------ ---- --- ---<br>-------- --- -----",335026.8999999985,335026.09999999404,334806.536,334820.5,334822.92,335039.594,,23,"park,"
screen,html.Screen,2_3_1_0_1_24,2022-05-02T09:46:35.978Z,,,,,,,,,,,,,,,,,40,,,,,,,,,,,,,,214.3059999985271,,response,,,,9,E,,,,,,Space,keypress(Space),,,,silence,,,,------ -- ------- ---- ---- ---- - -------- ----- --- --<br>----- ----- ------ -- ---- -- --- - ---- -- - ----- -----<br>saying ---- ------ ---- - -------- ------- -- --- --------<br>-------- ----------- ---- ------ ---- ------ ---- --- ---<br>-------- --- -----,335254.5,335253.8999999985,335022.936,335027.09999999404,335039.594,335278.662,,24,saying
screen,html.Screen,2_3_1_0_1_25,2022-05-02T09:46:36.169Z,,,,,,,,,,,,,,,,,40,,,,,,,,,,,,,,166.53799999551848,,response,,,,9,E,,,,,,Space,keypress(Space),,,,silence,,,,------ -- ------- ---- ---- ---- - -------- ----- --- --<br>----- ----- ------ -- ---- -- --- - ---- -- - ----- -----<br>------ they ------ ---- - -------- ------- -- --- --------<br>-------- ----------- ---- ------ ---- ------ ---- --- ---<br>-------- --- -----,335446,335445.19999999553,335239.446,335254.69999999553,335278.662,335455.99,,25,they
screen,html.Screen,2_3_1_0_1_26,2022-05-02T09:46:36.387Z,,,,,,,,,,,,,,,,,40,,,,,,,,,,,,,,206.9099999985192,,response,,,,9,E,,,,,,Space,keypress(Space),,,,silence,,,,------ -- ------- ---- ---- ---- - -------- ----- --- --<br>----- ----- ------ -- ---- -- --- - ---- -- - ----- -----<br>------ ---- didn't ---- - -------- ------- -- --- --------<br>-------- ----------- ---- ------ ---- ------ ---- --- ---<br>-------- --- -----,335663.69999999553,335662.8999999985,335439.419,335446.09999999404,335455.99,335672.445,,26,didn't
screen,html.Screen,2_3_1_0_1_27,2022-05-02T09:46:36.601Z,,,,,,,,,,,,,,,,,40,,,,,,,,,,,,,,204.05499999999302,,response,,,,9,E,,,,,,Space,keypress(Space),,,,silence,,,,------ -- ------- ---- ---- ---- - -------- ----- --- --<br>----- ----- ------ -- ---- -- --- - ---- -- - ----- -----<br>------ ---- ------ have - -------- ------- -- --- --------<br>-------- ----------- ---- ------ ---- ------ ---- --- ---<br>-------- --- -----,335877.299999997,335876.5,335655.737,335663.8999999985,335672.445,335889.104,,27,have
screen,html.Screen,2_3_1_0_1_28,2022-05-02T09:46:36.817Z,,,,,,,,,,,,,,,,,40,,,,,,,,,,,,,,203.99599999404745,,response,,,,9,E,,,,,,Space,keypress(Space),,,,silence,,,,------ -- ------- ---- ---- ---- - -------- ----- --- --<br>----- ----- ------ -- ---- -- --- - ---- -- - ----- -----<br>------ ---- ------ ---- a -------- ------- -- --- --------<br>-------- ----------- ---- ------ ---- ------ ---- --- ---<br>-------- --- -----,336094,336093.09999999404,335872.258,335877.3999999985,335889.104,336105.364,,28,a
screen,html.Screen,2_3_1_0_1_29,2022-05-02T09:46:37.025Z,,,,,,,,,,,,,,,,,40,,,,,,,,,,,,,,195.33599999552825,,response,,,,9,E,,,,,,Space,keypress(Space),,,,silence,,,,------ -- ------- ---- ---- ---- - -------- ----- --- --<br>----- ----- ------ -- ---- -- --- - ---- -- - ----- -----<br>------ ---- ------ ---- - business ------- -- --- --------<br>-------- ----------- ---- ------ ---- ------ ---- --- ---<br>-------- --- -----,336301.5,336300.69999999553,336088.884,336094.09999999404,336105.364,336305.153,,29,business
screen,html.Screen,2_3_1_0_1_30,2022-05-02T09:46:37.280Z,,,,,,,,,,,,,,,,,40,,,,,,,,,,,,,,251.0469999955385,,response,,,,9,E,,,,,,Space,keypress(Space),,,,silence,,,,------ -- ------- ---- ---- ---- - -------- ----- --- --<br>----- ----- ------ -- ---- -- --- - ---- -- - ----- -----<br>------ ---- ------ ---- - -------- license -- --- --------<br>-------- ----------- ---- ------ ---- ------ ---- --- ---<br>-------- --- -----,336557,336556.19999999553,336288.752,336301.59999999404,336305.153,336571.618,,30,license
screen,html.Screen,2_3_1_0_1_31,2022-05-02T09:46:37.523Z,,,,,,,,,,,,,,,,,40,,,,,,,,,,,,,,227.38199999998324,,response,,,,9,E,,,,,,Space,keypress(Space),,,,silence,,,,------ -- ------- ---- ---- ---- - -------- ----- --- --<br>----- ----- ------ -- ---- -- --- - ---- -- - ----- -----<br>------ ---- ------ ---- - -------- ------- or --- --------<br>-------- ----------- ---- ------ ---- ------ ---- --- ---<br>-------- --- -----,336799.799999997,336799,336555.081,336557.19999999553,336571.618,336804.844,,31,or
screen,html.Screen,2_3_1_0_1_32,2022-05-02T09:46:37.715Z,,,,,,,,,,,,,,,,,40,,,,,,,,,,,,,,186.0559999985271,,response,,,,9,E,,,,,,Space,keypress(Space),,,,silence,,,,------ -- ------- ---- ---- ---- - -------- ----- --- --<br>----- ----- ------ -- ---- -- --- - ---- -- - ----- -----<br>------ ---- ------ ---- - -------- ------- -- the --------<br>-------- ----------- ---- ------ ---- ------ ---- --- ---<br>-------- --- -----,336991.69999999553,336990.8999999985,336788.095,336800,336804.844,337004.702,,32,the
screen,html.Screen,2_3_1_0_1_33,2022-05-02T09:46:37.989Z,,,,,,,,,,,,,,,,,40,,,,,,,,,,,,,,259.99799999553943,,response,,,,9,E,,,,,,Space,keypress(Space),,,,silence,,,,------ -- ------- ---- ---- ---- - -------- ----- --- --<br>----- ----- ------ -- ---- -- --- - ---- -- - ----- -----<br>------ ---- ------ ---- - -------- ------- -- --- required<br>-------- ----------- ---- ------ ---- ------ ---- --- ---<br>-------- --- -----,337265.5,337264.69999999553,336988.11,336991.8999999985,337004.702,337271.035,,33,required
screen,html.Screen,2_3_1_0_1_34,2022-05-02T09:46:38.195Z,,,,,,,,,,,,,,,,,40,,,,,,,,,,,,,,199.76499999704538,,response,,,,9,E,,,,,,Space,keypress(Space),,,,silence,,,,------ -- ------- ---- ---- ---- - -------- ----- --- --<br>----- ----- ------ -- ---- -- --- - ---- -- - ----- -----<br>------ ---- ------ ---- - -------- ------- -- --- --------<br>permits. ----------- ---- ------ ---- ------ ---- --- ---<br>-------- --- -----,337471.299999997,337470.799999997,337254.606,337265.5,337271.035,337487.486,,34,permits.
screen,html.Screen,2_3_1_0_1_35,2022-05-02T09:46:38.421Z,,,,,,,,,,,,,,,,,40,,,,,,,,,,,,,,209.91399999853456,,response,,,,9,E,,,,,,Space,keypress(Space),,,,silence,,,,------ -- ------- ---- ---- ---- - -------- ----- --- --<br>----- ----- ------ -- ---- -- --- - ---- -- - ----- -----<br>------ ---- ------ ---- - -------- ------- -- --- --------<br>-------- Morningstar ---- ------ ---- ------ ---- --- ---<br>-------- --- -----,337698.19999999553,337697.3999999985,337470.963,337471.3999999985,337487.486,337704.09,,35,Morningstar
screen,html.Screen,2_3_1_0_1_36,2022-05-02T09:46:38.613Z,,,,,,,,,,,,,,,,,40,,,,,,,,,,,,,,185.30999999848427,,response,,,,9,E,,,,,,Space,keypress(Space),,,,silence,,,,------ -- ------- ---- ---- ---- - -------- ----- --- --<br>----- ----- ------ -- ---- -- --- - ---- -- - ----- -----<br>------ ---- ------ ---- - -------- ------- -- --- --------<br>-------- ----------- says ------ ---- ------ ---- --- ---<br>-------- --- -----,337890.19999999553,337889.3999999985,337687.394,337698.299999997,337704.09,337903.955,,36,says
screen,html.Screen,2_3_1_0_1_37,2022-05-02T09:46:39.300Z,,,,,,,,,,,,,,,,,40,,,,,,,,,,,,,,672.0449999999837,,response,,,,9,E,,,,,,Space,keypress(Space),,,,silence,,,,------ -- ------- ---- ---- ---- - -------- ----- --- --<br>----- ----- ------ -- ---- -- --- - ---- -- - ----- -----<br>------ ---- ------ ---- - -------- ------- -- --- --------<br>-------- ----------- ---- police ---- ------ ---- --- ---<br>-------- --- -----,338576.69999999553,338576,337887.258,337890.3999999985,337903.955,338586.496,,37,police
screen,html.Screen,2_3_1_0_1_38,2022-05-02T09:46:39.552Z,,,,,,,,,,,,,,,,,40,,,,,,,,,,,,,,242.00400000001537,,response,,,,9,E,,,,,,Space,keypress(Space),,,,silence,,,,------ -- ------- ---- ---- ---- - -------- ----- --- --<br>----- ----- ------ -- ---- -- --- - ---- -- - ----- -----<br>------ ---- ------ ---- - -------- ------- -- --- --------<br>-------- ----------- ---- ------ also ------ ---- --- ---<br>-------- --- -----,338829.19999999553,338828.5,338570.045,338576.8999999985,338586.496,338836.758,,38,also
screen,html.Screen,2_3_1_0_1_39,2022-05-02T09:46:39.765Z,,,,,,,,,,,,,,,,,40,,,,,,,,,,,,,,204.14199999853736,,response,,,,9,E,,,,,,Space,keypress(Space),,,,silence,,,,------ -- ------- ---- ---- ---- - -------- ----- --- --<br>----- ----- ------ -- ---- -- --- - ---- -- - ----- -----<br>------ ---- ------ ---- - -------- ------- -- --- --------<br>-------- ----------- ---- ------ ---- didn't ---- --- ---<br>-------- --- -----,339041.69999999553,339040.8999999985,338819.942,338829.299999997,338836.758,339053.189,,39,didn't
screen,html.Screen,2_3_1_0_1_40,2022-05-02T09:46:39.998Z,,,,,,,,,,,,,,,,,40,,,,,,,,,,,,,,220.81099999998696,,response,,,,9,E,,,,,,Space,keypress(Space),,,,silence,,,,------ -- ------- ---- ---- ---- - -------- ----- --- --<br>----- ----- ------ -- ---- -- --- - ---- -- - ----- -----<br>------ ---- ------ ---- - -------- ------- -- --- --------<br>-------- ----------- ---- ------ ---- ------ know --- ---<br>-------- --- -----,339274.799999997,339274,339036.493,339041.799999997,339053.189,339286.355,,40,know
screen,html.Screen,2_3_1_0_1_41,2022-05-02T09:46:40.257Z,,,,,,,,,,,,,,,,,40,,,,,,,,,,,,,,246.24499999405816,,response,,,,9,E,,,,,,Space,keypress(Space),,,,silence,,,,------ -- ------- ---- ---- ---- - -------- ----- --- --<br>----- ----- ------ -- ---- -- --- - ---- -- - ----- -----<br>------ ---- ------ ---- - -------- ------- -- --- --------<br>-------- ----------- ---- ------ ---- ------ ---- how ---<br>-------- --- -----,339533.299999997,339532.59999999404,339269.467,339274.8999999985,339286.355,339535.731,,41,how
screen,html.Screen,2_3_1_0_1_42,2022-05-02T09:46:40.795Z,,,,,,,,,,,,,,,,,40,,,,,,,,,,,,,,534.9689999955008,,response,,,,9,E,,,,,,Space,keypress(Space),,,,silence,,,,------ -- ------- ---- ---- ---- - -------- ----- --- --<br>----- ----- ------ -- ---- -- --- - ---- -- - ----- -----<br>------ ---- ------ ---- - -------- ------- -- --- --------<br>-------- ----------- ---- ------ ---- ------ ---- --- the<br>-------- --- -----,340071.59999999404,340070.69999999553,339519.335,339533.3999999985,339535.731,340085.665,,42,the
screen,html.Screen,2_3_1_0_1_43,2022-05-02T09:46:41.093Z,,,,,,,,,,,,,,,,,40,,,,,,,,,,,,,,283.4349999940605,,response,,,,9,E,,,,,,Space,keypress(Space),,,,silence,,,,------ -- ------- ---- ---- ---- - -------- ----- --- --<br>----- ----- ------ -- ---- -- --- - ---- -- - ----- -----<br>------ ---- ------ ---- - -------- ------- -- --- --------<br>-------- ----------- ---- ------ ---- ------ ---- --- ---<br>lemonade --- -----,340369.799999997,340369.09999999404,340068.8,340071.69999999553,340085.665,340385.235,,43,lemonade
screen,html.Screen,2_3_1_0_1_44,2022-05-02T09:46:41.371Z,,,,,,,,,,,,,,,,,40,,,,,,,,,,,,,,262.3649999940535,,response,,,,9,E,,,,,,Space,keypress(Space),,,,silence,,,,------ -- ------- ---- ---- ---- - -------- ----- --- --<br>----- ----- ------ -- ---- -- --- - ---- -- - ----- -----<br>------ ---- ------ ---- - -------- ------- -- --- --------<br>-------- ----------- ---- ------ ---- ------ ---- --- ---<br>-------- was -----,340648.299999997,340647.59999999404,340368.531,340369.8999999985,340385.235,340651.529,,44,was
screen,html.Screen,2_3_1_0_1_45,2022-05-02T09:46:41.740Z,,,,,,,,,,,,,,,,,40,,,,,,,,,,,,,,364.6709999955492,,response,,,,9,E,,,,,,Space,keypress(Space),,,,silence,,,,------ -- ------- ---- ---- ---- - -------- ----- --- --<br>----- ----- ------ -- ---- -- --- - ---- -- - ----- -----<br>------ ---- ------ ---- - -------- ------- -- --- --------<br>-------- ----------- ---- ------ ---- ------ ---- --- ---<br>-------- --- made.,341016.8999999985,341016.19999999553,340635.203,340648.3999999985,340651.529,341034.804,,45,made.
Item 9,flow.Loop,2_3_1_0_1,2022-05-02T09:46:41.740Z,,,,,,,,,,,,,,,,,,,,,,,,,,,,,,,12304.629999995523,,completion,,,,,,,,,,,,,,,,,,,,,341017.09999999404,341016.19999999553,328694.642,328695.59999999404,328711.57,341034.804,,,
Question 1,html.Screen,2_3_1_0_2,2022-05-02T09:46:44.375Z,,,,,,,,,,,,,,,,,,,,,,,,,,,,true,FALSE,,2616.495999997016,,response,,,,9,E,,,,,,FALSE,click #choice-2,,,,silence,,,,,343652,343651.299999997,341017.897,341017.19999999553,341034.804,343665.935,,,
Question 2,html.Screen,2_3_1_0_3,2022-05-02T09:46:47.471Z,,,,,,,,,,,,,,,,,,,,,,,,,,,,true,FALSE,,3081.364999997022,,response,,,,9,E,,,,,,FALSE,click #choice-2,,,,silence,,,,,346748,346747.299999997,343649.293,343652.09999999404,343665.935,346763.551,,,
