sender,sender_type,sender_id,timestamp,meta,,Blues,Classical,Country,Dance,Electronic,Folk,Gospel,Hip-Hop,Jazz,Latin,Musical/Film,New-age,Pop,Prolific_id,Provo_ID,R&B,Rap,Reggae,Religious,Rock,Soul,Swing,Traditional,age,artist_name,correct,correctResponse,distraction,duration,education,ended_on,familiarity,gender,headphone_check_performance,item,list,music_frequency,offensiveness,pleasantness,position_correct,preference,response,response_action,snippet_file,song_name,song_rating,sound,stimulus_1,stimulus_2,stimulus_3,text,time_commit,time_end,time_render,time_run,time_show,time_switch,url,word,word_ID
Prolific ID,html.Form,0,2022-05-03T11:49:36.144Z,"{""labjs_version"":""20.2.2"",""labjs_build"":{""flavor"":""production"",""commit"":""a25486e0c714a0ae2ce03ff94b7bb6896854dcfa""},""location"":""https://run.pavlovia.org/mvasilev/prolific3_music_h/"",""userAgent"":""Mozilla/5.0 (Windows NT 10.0; Win64; x64) AppleWebKit/537.36 (KHTML, like Gecko) Chrome/100.0.4896.127 Safari/537.36"",""platform"":""Win32"",""language"":""en-GB"",""locale"":""en-GB"",""timeZone"":""Europe/London"",""timezoneOffset"":-60,""screen_width"":1536,""screen_height"":864,""scroll_width"":1536,""scroll_height"":674,""window_innerWidth"":1536,""window_innerHeight"":722,""devicePixelRatio"":1.25}",,,,,,,,,,,,,,,5ced66139b5b490001b688ed,,,,,,,,,,,,,,,20513.93900002384,,form submission,,,,,,,,,,,,,,,,,,,,,46630.90000003576,46629.60000002384,26049.476,26061.69999998808,26115.661,46649.385,{},,
Introduction,html.Screen,1_0,2022-05-03T11:49:44.842Z,,,,,,,,,,,,,,,,,,,,,,,,,,,,,,,8674.814999988077,,response,,,,,,,,,,,continue,click button,,,,,,,,,55328.60000002384,55324.19999998808,46616.364,46631.40000003576,46649.385,55335.43,,,
Volume calibration,html.Screen,1_1,2022-05-03T11:52:48.034Z,,,,,,,,,,,,,,,,,,,,,,,,,,,,,,,183178.47000003577,,response,,,,,,,,,,,continue,click button,,,,,,,,,238519.80000001192,238513.90000003576,55318.926,55328.80000001192,55335.43,238524.663,,,
Task instructions,html.Screen,1_2,2022-05-03T11:53:04.572Z,,,,,,,,,,,,,,,,,,,,,,,,,,,,,,,16531.43700002384,,response,,,,,,,,,,,continue,click button,,,,,,,,,255058.19999998808,255056.10000002384,238508.321,238520.10000002384,238524.663,255064.767,,,
Sounds,html.Screen,1_3_0_0,2022-05-03T11:53:08.808Z,,,,,,,,,,,,,,,,,,,,,,,,,,,,,,,4243.1630000000005,,timeout,,,,,,,,,1,,,,,,,,S,O,I,,259294.30000001192,259291.319,255048.445,255058.5,255064.767,259307.93,,,
Judgement,html.Screen,1_3_0_1,2022-05-03T11:53:13.139Z,,,,,,,,,,,,,,,,,,,,,,,,,,,,false,1,,4315.269999988086,,response,,,,,,,,,1,,3,click #choice-3,,,,,S,O,I,,263625.5,263623.1999999881,259291.319,259294.5,259307.93,263634.929,,,
Trial,flow.Sequence,1_3_0,2022-05-03T11:53:13.142Z,,,,,,,,,,,,,,,,,,,,,,,,,,,,,,,8558.432999988087,,completion,,,,,,,,,1,,,,,,,,S,O,I,,263628.1999999881,263623.1999999881,255048.445,255058.5,255064.767,263634.929,,,
Sounds,html.Screen,1_3_1_0,2022-05-03T11:53:17.376Z,,,,,,,,,,,,,,,,,,,,,,,,,,,,,,,4242.599999999977,,timeout,,,,,,,,,3,,,,,,,,I,O,S,,267862.10000002384,267860.892,263618.078,263628.60000002384,263634.929,267877.529,,,
Judgement,html.Screen,1_3_1_1,2022-05-03T11:53:18.221Z,,,,,,,,,,,,,,,,,,,,,,,,,,,,true,3,,826.6709999880986,,response,,,,,,,,,3,,3,click #choice-3,,,,,I,O,S,,268707,268704.1999999881,267860.892,267862.1999999881,267877.529,268710.147,,,
Trial,flow.Sequence,1_3_1,2022-05-03T11:53:18.221Z,,,,,,,,,,,,,,,,,,,,,,,,,,,,,,,5069.270999988075,,completion,,,,,,,,,3,,,,,,,,I,O,S,,268707.3000000119,268704.1999999881,263618.078,263628.3000000119,263634.929,268710.147,,,
Sounds,html.Screen,1_3_2_0,2022-05-03T11:53:22.452Z,,,,,,,,,,,,,,,,,,,,,,,,,,,,,,,4243.053000000014,,timeout,,,,,,,,,2,,,,,,,,O,S,I,,272937.8000000119,272936.363,268693.208,268707.5,268710.147,272953.2,,,
Judgement,html.Screen,1_3_2_1,2022-05-03T11:53:23.148Z,,,,,,,,,,,,,,,,,,,,,,,,,,,,true,2,,678.4000000238302,,response,,,,,,,,,2,,2,click #choice-2,,,,,O,S,I,,273634,273631.60000002384,272936.363,272937.90000003576,272953.2,273634.983,,,
Trial,flow.Sequence,1_3_2,2022-05-03T11:53:23.148Z,,,,,,,,,,,,,,,,,,,,,,,,,,,,,,,4921.453000023845,,completion,,,,,,,,,2,,,,,,,,O,S,I,,273634.40000003576,273631.60000002384,268693.208,268707.5,268710.147,273634.983,,,
Sounds,html.Screen,1_3_3_0,2022-05-03T11:53:27.377Z,,,,,,,,,,,,,,,,,,,,,,,,,,,,,,,4243.808000000019,,timeout,,,,,,,,,1,,,,,,,,S,I,O,,277863.1999999881,277861.667,273618.733,273634.5,273634.983,277878.791,,,
Judgement,html.Screen,1_3_3_1,2022-05-03T11:53:28.178Z,,,,,,,,,,,,,,,,,,,,,,,,,,,,true,1,,782.8090000238153,,response,,,,,,,,,1,,1,click #choice-1,,,,,S,I,O,,278664.6999999881,278661.60000002384,277861.667,277863.40000003576,277878.791,278677.834,,,
Trial,flow.Sequence,1_3_3,2022-05-03T11:53:28.179Z,,,,,,,,,,,,,,,,,,,,,,,,,,,,,,,5026.617000023834,,completion,,,,,,,,,1,,,,,,,,S,I,O,,278664.90000003576,278661.60000002384,273618.733,273634.40000003576,273634.983,278677.834,,,
Sounds,html.Screen,1_3_4_0,2022-05-03T11:53:32.419Z,,,,,,,,,,,,,,,,,,,,,,,,,,,,,,,4243.896000000008,,timeout,,,,,,,,,3,,,,,,,,O,I,S,,282905.10000002384,282903.443,278660.385,278665.10000002384,278677.834,282921.73,,,
Judgement,html.Screen,1_3_4_1,2022-05-03T11:53:33.112Z,,,,,,,,,,,,,,,,,,,,,,,,,,,,true,3,,673.8700000238605,,response,,,,,,,,,3,,3,click #choice-3,,,,,O,I,S,,283598.1999999881,283595.60000002384,282903.443,282905.3000000119,282921.73,283602.272,,,
Trial,flow.Sequence,1_3_4,2022-05-03T11:53:33.112Z,,,,,,,,,,,,,,,,,,,,,,,,,,,,,,,4917.766000023868,,completion,,,,,,,,,3,,,,,,,,O,I,S,,283598.5,283595.60000002384,278660.385,278665.10000002384,278677.834,283602.272,,,
Sounds,html.Screen,1_3_5_0,2022-05-03T11:53:37.346Z,,,,,,,,,,,,,,,,,,,,,,,,,,,,,,,4243.929999999993,,timeout,,,,,,,,,2,,,,,,,,I,S,O,,287832.10000002384,287829.014,283585.749,283598.5,283602.272,287846.202,,,
Judgement,html.Screen,1_3_5_1,2022-05-03T11:53:38.060Z,,,,,,,,,,,,,,,,,,,,,,,,,,,,true,2,,696.3980000238516,,response,,,,,,,,,2,,2,click #choice-2,,,,,I,S,O,,288545.90000003576,288542.60000002384,287829.014,287832.5,287846.202,288563.975,,,
Trial,flow.Sequence,1_3_5,2022-05-03T11:53:38.060Z,,,,,,,,,,,,,,,,,,,,,,,,,,,,,,,4940.328000023845,,completion,,,,,,,,,2,,,,,,,,I,S,O,,288546.10000002384,288542.60000002384,283585.749,283598.5,283602.272,288563.975,,,
Task,flow.Loop,1_3,2022-05-03T11:53:38.066Z,,,,,,,,,,,,,,,,,,,,,,,,,,,,,,,33477.83300002385,,completion,,,0.8333333333333334,,,,,,,,,,,,,,,,,,288552.60000002384,288542.60000002384,255048.445,255058.40000003576,255064.767,288563.975,,,
Trap,html.Screen,1_4,2022-05-03T11:53:38.068Z,,,,,,,,,,,,,,,,,,,,,,,,,,,,,,,NaN,,skipped,,,,,,,,,,,,,,,,,,,,,288554.3000000119,288542.60000002384,,288554.10000002384,,288563.975,,,
Thanks,html.Screen,1_5,2022-05-03T11:53:42.000Z,,,,,,,,,,,,,,,,,,,,,,,,,,,,,,,3919.425000035786,,response,,,,,,,,,,,continue,click button,,,,,,,,,292485.90000003576,292483.40000003576,288528.022,288554.40000003576,288563.975,296499.925,,,
Headphone screening,flow.Sequence,1,2022-05-03T11:53:42.000Z,,,,,,,,,,,,,,,,,,,,,,,,,,,,,,,245834.01500003575,,completion,,,,,,,,,,,,,,,,,,,,,292486.10000002384,292483.40000003576,46616.364,46631.40000003576,46649.385,296499.925,,,
Instructions,html.Page,2_0,2022-05-03T11:54:12.649Z,,,,,,,,,,,,,,,,,,,,,,,,,,,,,,,26633.875000011933,,form submission,,,,,,,,,,,,,,,,,,,,,323134.8000000119,323133.8000000119,296465.292,296483.40000003576,296499.925,323138.841,,,
Holding screen,html.Screen,2_1_0_0,2022-05-03T11:54:22.638Z,,,,,,,,,,,,,,,,,,,,,,,,,,,,,,,10000.559999999998,,timeout,,,,,,,,,,,,,,,,,,,,,333124.10000002384,333122.977,323122.454,323135.40000003576,323138.841,333139.401,,,
screen,html.Screen,2_1_0_1_0,2022-05-03T11:54:23.302Z,,,,,,,,,,,,,,,,,53,,,,,,,,,,,,,,644.8990000119084,,response,,,,99,,,,,,,Space,keypress(Space),,,,,,,,When -- ----- -- ------ - ------- --- ----------<br>------------- ------ ------ ---- ---- ------- ----- -- ----<br>-------- ------- -- ---------- --- - --- ----- ----- ----<br>---- --- --- ----- --- ---- ---- ------- ----- ---- -------<br>--- --- -- ----- -- --- ---- -- --- ---- -- ------ ------<br>--- ----- -- ----,333787.8000000119,333784.3000000119,333122.977,333124.3000000119,333139.401,333805.192,,0,When
screen,html.Screen,2_1_0_1_1,2022-05-03T11:54:23.874Z,,,,,,,,,,,,,,,,,53,,,,,,,,,,,,,,553.2080000357819,,response,,,,99,,,,,,,Space,keypress(Space),,,,,,,,---- it ----- -- ------ - ------- --- ----------<br>------------- ------ ------ ---- ---- ------- ----- -- ----<br>-------- ------- -- ---------- --- - --- ----- ----- ----<br>---- --- --- ----- --- ---- ---- ------- ----- ---- -------<br>--- --- -- ----- -- --- ---- -- --- ---- -- ------ ------<br>--- ----- -- ----,334360.5,334358.40000003576,333772.819,333788.10000002384,333805.192,334370.741,,1,it
screen,html.Screen,2_1_0_1_2,2022-05-03T11:54:24.439Z,,,,,,,,,,,,,,,,,53,,,,,,,,,,,,,,553.1590000357828,,response,,,,99,,,,,,,Space,keypress(Space),,,,,,,,---- -- comes -- ------ - ------- --- ----------<br>------------- ------ ------ ---- ---- ------- ----- -- ----<br>-------- ------- -- ---------- --- - --- ----- ----- ----<br>---- --- --- ----- --- ---- ---- ------- ----- ---- -------<br>--- --- -- ----- -- --- ---- -- --- ---- -- ------ ------<br>--- ----- -- ----,334925.40000003576,334923.90000003576,334355.136,334360.6999999881,334370.741,334936.829,,2,comes
screen,html.Screen,2_1_0_1_3,2022-05-03T11:54:24.921Z,,,,,,,,,,,,,,,,,53,,,,,,,,,,,,,,469.0710000357358,,response,,,,99,,,,,,,Space,keypress(Space),,,,,,,,---- -- ----- to ------ - ------- --- ----------<br>------------- ------ ------ ---- ---- ------- ----- -- ----<br>-------- ------- -- ---------- --- - --- ----- ----- ----<br>---- --- --- ----- --- ---- ---- ------- ----- ---- -------<br>--- --- -- ----- -- --- ---- -- --- ---- -- ------ ------<br>--- ----- -- ----,335407.40000003576,335405.90000003576,334920.72,334926.8000000119,334936.829,335419.302,,3,to
screen,html.Screen,2_1_0_1_4,2022-05-03T11:54:25.376Z,,,,,,,,,,,,,,,,,53,,,,,,,,,,,,,,441.7980000238167,,response,,,,99,,,,,,,Space,keypress(Space),,,,,,,,---- -- ----- -- having - ------- --- ----------<br>------------- ------ ------ ---- ---- ------- ----- -- ----<br>-------- ------- -- ---------- --- - --- ----- ----- ----<br>---- --- --- ----- --- ---- ---- ------- ----- ---- -------<br>--- --- -- ----- -- --- ---- -- --- ---- -- ------ ------<br>--- ----- -- ----,335862.5,335861.10000002384,335403.296,335407.5,335419.302,335868.37,,4,having
screen,html.Screen,2_1_0_1_5,2022-05-03T11:54:25.825Z,,,,,,,,,,,,,,,,,53,,,,,,,,,,,,,,441.2300000238465,,response,,,,99,,,,,,,Space,keypress(Space),,,,,,,,---- -- ----- -- ------ a ------- --- ----------<br>------------- ------ ------ ---- ---- ------- ----- -- ----<br>-------- ------- -- ---------- --- - --- ----- ----- ----<br>---- --- --- ----- --- ---- ---- ------- ----- ---- -------<br>--- --- -- ----- -- --- ---- -- --- ---- -- ------ ------<br>--- ----- -- ----,336310.60000002384,336309.60000002384,335852.397,335862.6999999881,335868.37,336317.583,,5,a
screen,html.Screen,2_1_0_1_6,2022-05-03T11:54:26.290Z,,,,,,,,,,,,,,,,,53,,,,,,,,,,,,,,456.91700000001583,,response,,,,99,,,,,,,Space,keypress(Space),,,,,,,,---- -- ----- -- ------ - lasting --- ----------<br>------------- ------ ------ ---- ---- ------- ----- -- ----<br>-------- ------- -- ---------- --- - --- ----- ----- ----<br>---- --- --- ----- --- ---- ---- ------- ----- ---- -------<br>--- --- -- ----- -- --- ---- -- --- ---- -- ------ ------<br>--- ----- -- ----,336776,336774.5,336301.983,336310.6999999881,336317.583,336783.72,,6,lasting
screen,html.Screen,2_1_0_1_7,2022-05-03T11:54:26.753Z,,,,,,,,,,,,,,,,,53,,,,,,,,,,,,,,453.6800000357907,,response,,,,99,,,,,,,Space,keypress(Space),,,,,,,,---- -- ----- -- ------ - ------- and ----------<br>------------- ------ ------ ---- ---- ------- ----- -- ----<br>-------- ------- -- ---------- --- - --- ----- ----- ----<br>---- --- --- ----- --- ---- ---- ------- ----- ---- -------<br>--- --- -- ----- -- --- ---- -- --- ---- -- ------ ------<br>--- ----- -- ----,337238.8000000119,337237.40000003576,336767.596,336776.10000002384,336783.72,337249.44,,7,and
screen,html.Screen,2_1_0_1_8,2022-05-03T11:54:27.273Z,,,,,,,,,,,,,,,,,53,,,,,,,,,,,,,,508.3600000119186,,response,,,,99,,,,,,,Space,keypress(Space),,,,,,,,---- -- ----- -- ------ - ------- --- fulfilling<br>------------- ------ ------ ---- ---- ------- ----- -- ----<br>-------- ------- -- ---------- --- - --- ----- ----- ----<br>---- --- --- ----- --- ---- ---- ------- ----- ---- -------<br>--- --- -- ----- -- --- ---- -- --- ---- -- ------ ------<br>--- ----- -- ----,337759.3000000119,337757.8000000119,337233.694,337238.90000003576,337249.44,337765.865,,8,fulfilling
screen,html.Screen,2_1_0_1_9,2022-05-03T11:54:27.783Z,,,,,,,,,,,,,,,,,53,,,,,,,,,,,,,,501.43500001193024,,response,,,,99,,,,,,,Space,keypress(Space),,,,,,,,"---- -- ----- -- ------ - ------- --- ----------<br>relationship, ------ ------ ---- ---- ------- ----- -- ----<br>-------- ------- -- ---------- --- - --- ----- ----- ----<br>---- --- --- ----- --- ---- ---- ------- ----- ---- -------<br>--- --- -- ----- -- --- ---- -- --- ---- -- ------ ------<br>--- ----- -- ----",338269.10000002384,338267.3000000119,337749.6,337759.3000000119,337765.865,338281.195,,9,"relationship,"
screen,html.Screen,2_1_0_1_10,2022-05-03T11:54:28.288Z,,,,,,,,,,,,,,,,,53,,,,,,,,,,,,,,491.804999999993,,response,,,,99,,,,,,,Space,keypress(Space),,,,,,,,---- -- ----- -- ------ - ------- --- ----------<br>------------- common ------ ---- ---- ------- ----- -- ----<br>-------- ------- -- ---------- --- - --- ----- ----- ----<br>---- --- --- ----- --- ---- ---- ------- ----- ---- -------<br>--- --- -- ----- -- --- ---- -- --- ---- -- ------ ------<br>--- ----- -- ----,338774.60000002384,338773,338265.419,338269.1999999881,338281.195,338781.139,,10,common
screen,html.Screen,2_1_0_1_11,2022-05-03T11:54:28.737Z,,,,,,,,,,,,,,,,,53,,,,,,,,,,,,,,440.0609999880544,,response,,,,99,,,,,,,Space,keypress(Space),,,,,,,,---- -- ----- -- ------ - ------- --- ----------<br>------------- ------ wisdom ---- ---- ------- ----- -- ----<br>-------- ------- -- ---------- --- - --- ----- ----- ----<br>---- --- --- ----- --- ---- ---- ------- ----- ---- -------<br>--- --- -- ----- -- --- ---- -- --- ---- -- ------ ------<br>--- ----- -- ----,339222.6999999881,339221.1999999881,338764.547,338774.6999999881,338781.139,339229.799,,11,wisdom
screen,html.Screen,2_1_0_1_12,2022-05-03T11:54:29.145Z,,,,,,,,,,,,,,,,,53,,,,,,,,,,,,,,400.3010000238428,,response,,,,99,,,,,,,Space,keypress(Space),,,,,,,,---- -- ----- -- ------ - ------- --- ----------<br>------------- ------ ------ says ---- ------- ----- -- ----<br>-------- ------- -- ---------- --- - --- ----- ----- ----<br>---- --- --- ----- --- ---- ---- ------- ----- ---- -------<br>--- --- -- ----- -- --- ---- -- --- ---- -- ------ ------<br>--- ----- -- ----,339631.5,339630.10000002384,339213.69,339222.8000000119,339229.799,339645.857,,12,says
screen,html.Screen,2_1_0_1_13,2022-05-03T11:54:29.580Z,,,,,,,,,,,,,,,,,53,,,,,,,,,,,,,,418.8429999880609,,response,,,,99,,,,,,,Space,keypress(Space),,,,,,,,---- -- ----- -- ------ - ------- --- ----------<br>------------- ------ ------ ---- that ------- ----- -- ----<br>-------- ------- -- ---------- --- - --- ----- ----- ----<br>---- --- --- ----- --- ---- ---- ------- ----- ---- -------<br>--- --- -- ----- -- --- ---- -- --- ---- -- ------ ------<br>--- ----- -- ----,340066.1999999881,340064.6999999881,339629.809,339631.6999999881,339645.857,340078.547,,13,that
screen,html.Screen,2_1_0_1_14,2022-05-03T11:54:29.977Z,,,,,,,,,,,,,,,,,53,,,,,,,,,,,,,,382.8530000357423,,response,,,,99,,,,,,,Space,keypress(Space),,,,,,,,---- -- ----- -- ------ - ------- --- ----------<br>------------- ------ ------ ---- ---- feeling ----- -- ----<br>-------- ------- -- ---------- --- - --- ----- ----- ----<br>---- --- --- ----- --- ---- ---- ------- ----- ---- -------<br>--- --- -- ----- -- --- ---- -- --- ---- -- ------ ------<br>--- ----- -- ----,340462.8000000119,340461.40000003576,340062.424,340066.3000000119,340078.547,340477.942,,14,feeling
screen,html.Screen,2_1_0_1_15,2022-05-03T11:54:30.354Z,,,,,,,,,,,,,,,,,53,,,,,,,,,,,,,,360.4580000357819,,response,,,,99,,,,,,,Space,keypress(Space),,,,,,,,---- -- ----- -- ------ - ------- --- ----------<br>------------- ------ ------ ---- ---- ------- close -- ----<br>-------- ------- -- ---------- --- - --- ----- ----- ----<br>---- --- --- ----- --- ---- ---- ------- ----- ---- -------<br>--- --- -- ----- -- --- ---- -- --- ---- -- ------ ------<br>--- ----- -- ----,340839.90000003576,340838.40000003576,340461.569,340462.90000003576,340477.942,340843.729,,15,close
screen,html.Screen,2_1_0_1_16,2022-05-03T11:54:30.731Z,,,,,,,,,,,,,,,,,53,,,,,,,,,,,,,,372.07100001192885,,response,,,,99,,,,,,,Space,keypress(Space),,,,,,,,---- -- ----- -- ------ - ------- --- ----------<br>------------- ------ ------ ---- ---- ------- ----- to ----<br>-------- ------- -- ---------- --- - --- ----- ----- ----<br>---- --- --- ----- --- ---- ---- ------- ----- ---- -------<br>--- --- -- ----- -- --- ---- -- --- ---- -- ------ ------<br>--- ----- -- ----,341217.1999999881,341215.8000000119,340827.755,340840,340843.729,341226.386,,16,to
screen,html.Screen,2_1_0_1_17,2022-05-03T11:54:31.130Z,,,,,,,,,,,,,,,,,53,,,,,,,,,,,,,,388.21400002384325,,response,,,,99,,,,,,,Space,keypress(Space),,,,,,,,---- -- ----- -- ------ - ------- --- ----------<br>------------- ------ ------ ---- ---- ------- ----- -- your<br>-------- ------- -- ---------- --- - --- ----- ----- ----<br>---- --- --- ----- --- ---- ---- ------- ----- ---- -------<br>--- --- -- ----- -- --- ---- -- --- ---- -- ------ ------<br>--- ----- -- ----,341616.10000002384,341614.60000002384,341210.502,341217.3000000119,341226.386,341625.753,,17,your
screen,html.Screen,2_1_0_1_18,2022-05-03T11:54:31.473Z,,,,,,,,,,,,,,,,,53,,,,,,,,,,,,,,332.04700001189485,,response,,,,99,,,,,,,Space,keypress(Space),,,,,,,,---- -- ----- -- ------ - ------- --- ----------<br>------------- ------ ------ ---- ---- ------- ----- -- ----<br>romantic ------- -- ---------- --- - --- ----- ----- ----<br>---- --- --- ----- --- ---- ---- ------- ----- ---- -------<br>--- --- -- ----- -- --- ---- -- --- ---- -- ------ ------<br>--- ----- -- ----,341959.40000003576,341957.8000000119,341609.861,341616.1999999881,341625.753,341975.532,,18,romantic
screen,html.Screen,2_1_0_1_19,2022-05-03T11:54:31.895Z,,,,,,,,,,,,,,,,,53,,,,,,,,,,,,,,403.7680000119144,,response,,,,99,,,,,,,Space,keypress(Space),,,,,,,,---- -- ----- -- ------ - ------- --- ----------<br>------------- ------ ------ ---- ---- ------- ----- -- ----<br>-------- partner -- ---------- --- - --- ----- ----- ----<br>---- --- --- ----- --- ---- ---- ------- ----- ---- -------<br>--- --- -- ----- -- --- ---- -- --- ---- -- ------ ------<br>--- ----- -- ----,342380.8000000119,342379.3000000119,341959.258,341959.5,341975.532,342391.185,,19,partner
screen,html.Screen,2_1_0_1_20,2022-05-03T11:54:32.242Z,,,,,,,,,,,,,,,,,53,,,,,,,,,,,,,,334.3150000000023,,response,,,,99,,,,,,,Space,keypress(Space),,,,,,,,---- -- ----- -- ------ - ------- --- ----------<br>------------- ------ ------ ---- ---- ------- ----- -- ----<br>-------- ------- is ---------- --- - --- ----- ----- ----<br>---- --- --- ----- --- ---- ---- ------- ----- ---- -------<br>--- --- -- ----- -- --- ---- -- --- ---- -- ------ ------<br>--- ----- -- ----,342727.60000002384,342725.5,342375.243,342380.90000003576,342391.185,342740.934,,20,is
screen,html.Screen,2_1_0_1_21,2022-05-03T11:54:32.669Z,,,,,,,,,,,,,,,,,53,,,,,,,,,,,,,,413.1660000238335,,response,,,,99,,,,,,,Space,keypress(Space),,,,,,,,---- -- ----- -- ------ - ------- --- ----------<br>------------- ------ ------ ---- ---- ------- ----- -- ----<br>-------- ------- -- paramount. --- - --- ----- ----- ----<br>---- --- --- ----- --- ---- ---- ------- ----- ---- -------<br>--- --- -- ----- -- --- ---- -- --- ---- -- ------ ------<br>--- ----- -- ----,343155.5,343154.10000002384,342724.68,342727.6999999881,342740.934,343176.095,,21,paramount.
screen,html.Screen,2_1_0_1_22,2022-05-03T11:54:33.127Z,,,,,,,,,,,,,,,,,53,,,,,,,,,,,,,,436.0050000238698,,response,,,,99,,,,,,,Space,keypress(Space),,,,,,,,---- -- ----- -- ------ - ------- --- ----------<br>------------- ------ ------ ---- ---- ------- ----- -- ----<br>-------- ------- -- ---------- But - --- ----- ----- ----<br>---- --- --- ----- --- ---- ---- ------- ----- ---- -------<br>--- --- -- ----- -- --- ---- -- --- ---- -- ------ ------<br>--- ----- -- ----,343613.5,343612.10000002384,343140.618,343155.6999999881,343176.095,343622.552,,22,But
screen,html.Screen,2_1_0_1_23,2022-05-03T11:54:33.527Z,,,,,,,,,,,,,,,,,53,,,,,,,,,,,,,,389.0480000238167,,response,,,,99,,,,,,,Space,keypress(Space),,,,,,,,---- -- ----- -- ------ - ------- --- ----------<br>------------- ------ ------ ---- ---- ------- ----- -- ----<br>-------- ------- -- ---------- --- a --- ----- ----- ----<br>---- --- --- ----- --- ---- ---- ------- ----- ---- -------<br>--- --- -- ----- -- --- ---- -- --- ---- -- ------ ------<br>--- ----- -- ----,344013.10000002384,344011.60000002384,343606.766,343613.6999999881,343622.552,344021.878,,23,a
screen,html.Screen,2_1_0_1_24,2022-05-03T11:54:33.890Z,,,,,,,,,,,,,,,,,53,,,,,,,,,,,,,,352.7220000238158,,response,,,,99,,,,,,,Space,keypress(Space),,,,,,,,---- -- ----- -- ------ - ------- --- ----------<br>------------- ------ ------ ---- ---- ------- ----- -- ----<br>-------- ------- -- ---------- --- - new ----- ----- ----<br>---- --- --- ----- --- ---- ---- ------- ----- ---- -------<br>--- --- -- ----- -- --- ---- -- --- ---- -- ------ ------<br>--- ----- -- ----,344376,344374.60000002384,344006.047,344013.3000000119,344021.878,344388.283,,24,new
screen,html.Screen,2_1_0_1_25,2022-05-03T11:54:34.249Z,,,,,,,,,,,,,,,,,53,,,,,,,,,,,,,,345.7170000000042,,response,,,,99,,,,,,,Space,keypress(Space),,,,,,,,---- -- ----- -- ------ - ------- --- ----------<br>------------- ------ ------ ---- ---- ------- ----- -- ----<br>-------- ------- -- ---------- --- - --- study ----- ----<br>---- --- --- ----- --- ---- ---- ------- ----- ---- -------<br>--- --- -- ----- -- --- ---- -- --- ---- -- ------ ------<br>--- ----- -- ----,344735.5,344734,344371.902,344376.1999999881,344388.283,344737.461,,25,study
screen,html.Screen,2_1_0_1_26,2022-05-03T11:54:34.613Z,,,,,,,,,,,,,,,,,53,,,,,,,,,,,,,,359.6390000238316,,response,,,,99,,,,,,,Space,keypress(Space),,,,,,,,---- -- ----- -- ------ - ------- --- ----------<br>------------- ------ ------ ---- ---- ------- ----- -- ----<br>-------- ------- -- ---------- --- - --- ----- finds ----<br>---- --- --- ----- --- ---- ---- ------- ----- ---- -------<br>--- --- -- ----- -- --- ---- -- --- ---- -- ------ ------<br>--- ----- -- ----,345098.5,345097.10000002384,344721.312,344735.6999999881,344737.461,345104.076,,26,finds
screen,html.Screen,2_1_0_1_27,2022-05-03T11:54:35.036Z,,,,,,,,,,,,,,,,,53,,,,,,,,,,,,,,417.22400001192,,response,,,,99,,,,,,,Space,keypress(Space),,,,,,,,---- -- ----- -- ------ - ------- --- ----------<br>------------- ------ ------ ---- ---- ------- ----- -- ----<br>-------- ------- -- ---------- --- - --- ----- ----- that<br>---- --- --- ----- --- ---- ---- ------- ----- ---- -------<br>--- --- -- ----- -- --- ---- -- --- ---- -- ------ ------<br>--- ----- -- ----,345522.40000003576,345521.3000000119,345087.593,345098.6999999881,345104.076,345536.395,,27,that
screen,html.Screen,2_1_0_1_28,2022-05-03T11:54:35.413Z,,,,,,,,,,,,,,,,,53,,,,,,,,,,,,,,361.00500003574416,,response,,,,99,,,,,,,Space,keypress(Space),,,,,,,,---- -- ----- -- ------ - ------- --- ----------<br>------------- ------ ------ ---- ---- ------- ----- -- ----<br>-------- ------- -- ---------- --- - --- ----- ----- ----<br>it's --- --- ----- --- ---- ---- ------- ----- ---- -------<br>--- --- -- ----- -- --- ---- -- --- ---- -- ------ ------<br>--- ----- -- ----,345898.90000003576,345897.40000003576,345520.267,345522.5,345536.395,345902.275,,28,it's
screen,html.Screen,2_1_0_1_29,2022-05-03T11:54:35.835Z,,,,,,,,,,,,,,,,,53,,,,,,,,,,,,,,416.8250000238186,,response,,,,99,,,,,,,Space,keypress(Space),,,,,,,,---- -- ----- -- ------ - ------- --- ----------<br>------------- ------ ------ ---- ---- ------- ----- -- ----<br>-------- ------- -- ---------- --- - --- ----- ----- ----<br>---- not --- ----- --- ---- ---- ------- ----- ---- -------<br>--- --- -- ----- -- --- ---- -- --- ---- -- ------ ------<br>--- ----- -- ----,346320.60000002384,346319.10000002384,345886.159,345899.10000002384,345902.275,346335.12,,29,not
screen,html.Screen,2_1_0_1_30,2022-05-03T11:54:36.195Z,,,,,,,,,,,,,,,,,53,,,,,,,,,,,,,,344.6800000119256,,response,,,,99,,,,,,,Space,keypress(Space),,,,,,,,---- -- ----- -- ------ - ------- --- ----------<br>------------- ------ ------ ---- ---- ------- ----- -- ----<br>-------- ------- -- ---------- --- - --- ----- ----- ----<br>---- --- how ----- --- ---- ---- ------- ----- ---- -------<br>--- --- -- ----- -- --- ---- -- --- ---- -- ------ ------<br>--- ----- -- ----,346681.3000000119,346679.8000000119,346319.054,346320.6999999881,346335.12,346684.357,,30,how
screen,html.Screen,2_1_0_1_31,2022-05-03T11:54:36.556Z,,,,,,,,,,,,,,,,,53,,,,,,,,,,,,,,356.8429999880609,,response,,,,99,,,,,,,Space,keypress(Space),,,,,,,,---- -- ----- -- ------ - ------- --- ----------<br>------------- ------ ------ ---- ---- ------- ----- -- ----<br>-------- ------- -- ---------- --- - --- ----- ----- ----<br>---- --- --- close --- ---- ---- ------- ----- ---- -------<br>--- --- -- ----- -- --- ---- -- --- ---- -- ------ ------<br>--- ----- -- ----,347042.40000003576,347041.1999999881,346668.216,346681.5,346684.357,347050.758,,31,close
screen,html.Screen,2_1_0_1_32,2022-05-03T11:54:36.923Z,,,,,,,,,,,,,,,,,53,,,,,,,,,,,,,,356.7420000000275,,response,,,,99,,,,,,,Space,keypress(Space),,,,,,,,---- -- ----- -- ------ - ------- --- ----------<br>------------- ------ ------ ---- ---- ------- ----- -- ----<br>-------- ------- -- ---------- --- - --- ----- ----- ----<br>---- --- --- ----- you ---- ---- ------- ----- ---- -------<br>--- --- -- ----- -- --- ---- -- --- ---- -- ------ ------<br>--- ----- -- ----,347408.90000003576,347407.5,347034.467,347042.60000002384,347050.758,347416.53,,32,you
screen,html.Screen,2_1_0_1_33,2022-05-03T11:54:37.244Z,,,,,,,,,,,,,,,,,53,,,,,,,,,,,,,,312.770000011893,,response,,,,99,,,,,,,Space,keypress(Space),,,,,,,,---- -- ----- -- ------ - ------- --- ----------<br>------------- ------ ------ ---- ---- ------- ----- -- ----<br>-------- ------- -- ---------- --- - --- ----- ----- ----<br>---- --- --- ----- --- feel ---- ------- ----- ---- -------<br>--- --- -- ----- -- --- ---- -- --- ---- -- ------ ------<br>--- ----- -- ----,347730.40000003576,347729.3000000119,347400.403,347409,347416.53,347732.646,,33,feel
screen,html.Screen,2_1_0_1_34,2022-05-03T11:54:37.593Z,,,,,,,,,,,,,,,,,53,,,,,,,,,,,,,,344.3539999999921,,response,,,,99,,,,,,,Space,keypress(Space),,,,,,,,---- -- ----- -- ------ - ------- --- ----------<br>------------- ------ ------ ---- ---- ------- ----- -- ----<br>-------- ------- -- ---------- --- - --- ----- ----- ----<br>---- --- --- ----- --- ---- that ------- ----- ---- -------<br>--- --- -- ----- -- --- ---- -- --- ---- -- ------ ------<br>--- ----- -- ----,348078.60000002384,348077,347716.684,347730.5,347732.646,348082.105,,34,that
screen,html.Screen,2_1_0_1_35,2022-05-03T11:54:37.928Z,,,,,,,,,,,,,,,,,53,,,,,,,,,,,,,,329.9950000238605,,response,,,,99,,,,,,,Space,keypress(Space),,,,,,,,---- -- ----- -- ------ - ------- --- ----------<br>------------- ------ ------ ---- ---- ------- ----- -- ----<br>-------- ------- -- ---------- --- - --- ----- ----- ----<br>---- --- --- ----- --- ---- ---- matters ----- ---- -------<br>--- --- -- ----- -- --- ---- -- --- ---- -- ------ ------<br>--- ----- -- ----,348413.5,348412.10000002384,348066.12,348078.6999999881,348082.105,348447.182,,35,matters
screen,html.Screen,2_1_0_1_36,2022-05-03T11:54:38.302Z,,,,,,,,,,,,,,,,,53,,,,,,,,,,,,,,339.0179999881075,,response,,,,99,,,,,,,Space,keypress(Space),,,,,,,,"---- -- ----- -- ------ - ------- --- ----------<br>------------- ------ ------ ---- ---- ------- ----- -- ----<br>-------- ------- -- ---------- --- - --- ----- ----- ----<br>---- --- --- ----- --- ---- ---- ------- most, ---- -------<br>--- --- -- ----- -- --- ---- -- --- ---- -- ------ ------<br>--- ----- -- ----",348787.60000002384,348786.1999999881,348398.892,348413.8000000119,348447.182,348797.894,,36,"most,"
screen,html.Screen,2_1_0_1_37,2022-05-03T11:54:38.675Z,,,,,,,,,,,,,,,,,53,,,,,,,,,,,,,,361.9060000119498,,response,,,,99,,,,,,,Space,keypress(Space),,,,,,,,---- -- ----- -- ------ - ------- --- ----------<br>------------- ------ ------ ---- ---- ------- ----- -- ----<br>-------- ------- -- ---------- --- - --- ----- ----- ----<br>---- --- --- ----- --- ---- ---- ------- ----- it's -------<br>--- --- -- ----- -- --- ---- -- --- ---- -- ------ ------<br>--- ----- -- ----,349161.40000003576,349159.8000000119,348781.607,348787.8000000119,348797.894,349163.695,,37,it's
screen,html.Screen,2_1_0_1_38,2022-05-03T11:54:39.082Z,,,,,,,,,,,,,,,,,53,,,,,,,,,,,,,,403.304999999993,,response,,,,99,,,,,,,Space,keypress(Space),,,,,,,,---- -- ----- -- ------ - ------- --- ----------<br>------------- ------ ------ ---- ---- ------- ----- -- ----<br>-------- ------- -- ---------- --- - --- ----- ----- ----<br>---- --- --- ----- --- ---- ---- ------- ----- ---- whether<br>--- --- -- ----- -- --- ---- -- --- ---- -- ------ ------<br>--- ----- -- ----,349568.40000003576,349567,349147.611,349161.5,349163.695,349579.892,,38,whether
screen,html.Screen,2_1_0_1_39,2022-05-03T11:54:39.447Z,,,,,,,,,,,,,,,,,53,,,,,,,,,,,,,,352.10800000000745,,response,,,,99,,,,,,,Space,keypress(Space),,,,,,,,---- -- ----- -- ------ - ------- --- ----------<br>------------- ------ ------ ---- ---- ------- ----- -- ----<br>-------- ------- -- ---------- --- - --- ----- ----- ----<br>---- --- --- ----- --- ---- ---- ------- ----- ---- -------<br>you --- -- ----- -- --- ---- -- --- ---- -- ------ ------<br>--- ----- -- ----,349933.5,349932,349563.829,349568.60000002384,349579.892,349946.08,,39,you
screen,html.Screen,2_1_0_1_40,2022-05-03T11:54:39.777Z,,,,,,,,,,,,,,,,,53,,,,,,,,,,,,,,315.8200000357465,,response,,,,99,,,,,,,Space,keypress(Space),,,,,,,,---- -- ----- -- ------ - ------- --- ----------<br>------------- ------ ------ ---- ---- ------- ----- -- ----<br>-------- ------- -- ---------- --- - --- ----- ----- ----<br>---- --- --- ----- --- ---- ---- ------- ----- ---- -------<br>--- are -- ----- -- --- ---- -- --- ---- -- ------ ------<br>--- ----- -- ----,350263,350261.90000003576,349929.634,349933.60000002384,349946.08,350278.784,,40,are
screen,html.Screen,2_1_0_1_41,2022-05-03T11:54:40.078Z,,,,,,,,,,,,,,,,,53,,,,,,,,,,,,,,284.01600001193583,,response,,,,99,,,,,,,Space,keypress(Space),,,,,,,,---- -- ----- -- ------ - ------- --- ----------<br>------------- ------ ------ ---- ---- ------- ----- -- ----<br>-------- ------- -- ---------- --- - --- ----- ----- ----<br>---- --- --- ----- --- ---- ---- ------- ----- ---- -------<br>--- --- as ----- -- --- ---- -- --- ---- -- ------ ------<br>--- ----- -- ----,350564.3000000119,350562.8000000119,350262.424,350263.10000002384,350278.784,350578.382,,41,as
screen,html.Screen,2_1_0_1_42,2022-05-03T11:54:40.411Z,,,,,,,,,,,,,,,,,53,,,,,,,,,,,,,,317.7180000238586,,response,,,,99,,,,,,,Space,keypress(Space),,,,,,,,---- -- ----- -- ------ - ------- --- ----------<br>------------- ------ ------ ---- ---- ------- ----- -- ----<br>-------- ------- -- ---------- --- - --- ----- ----- ----<br>---- --- --- ----- --- ---- ---- ------- ----- ---- -------<br>--- --- -- close -- --- ---- -- --- ---- -- ------ ------<br>--- ----- -- ----,350897.60000002384,350896.10000002384,350561.818,350564.5,350578.382,350911.15,,42,close
screen,html.Screen,2_1_0_1_43,2022-05-03T11:54:40.763Z,,,,,,,,,,,,,,,,,53,,,,,,,,,,,,,,336.4500000238186,,response,,,,99,,,,,,,Space,keypress(Space),,,,,,,,---- -- ----- -- ------ - ------- --- ----------<br>------------- ------ ------ ---- ---- ------- ----- -- ----<br>-------- ------- -- ---------- --- - --- ----- ----- ----<br>---- --- --- ----- --- ---- ---- ------- ----- ---- -------<br>--- --- -- ----- as --- ---- -- --- ---- -- ------ ------<br>--- ----- -- ----,351249.10000002384,351247.60000002384,350894.739,350897.6999999881,350911.15,351260.728,,43,as
screen,html.Screen,2_1_0_1_44,2022-05-03T11:54:41.077Z,,,,,,,,,,,,,,,,,53,,,,,,,,,,,,,,301.4719999880763,,response,,,,99,,,,,,,Space,keypress(Space),,,,,,,,---- -- ----- -- ------ - ------- --- ----------<br>------------- ------ ------ ---- ---- ------- ----- -- ----<br>-------- ------- -- ---------- --- - --- ----- ----- ----<br>---- --- --- ----- --- ---- ---- ------- ----- ---- -------<br>--- --- -- ----- -- you ---- -- --- ---- -- ------ ------<br>--- ----- -- ----,351563.40000003576,351562.1999999881,351244.332,351249.1999999881,351260.728,351576.657,,44,you
screen,html.Screen,2_1_0_1_45,2022-05-03T11:54:41.394Z,,,,,,,,,,,,,,,,,53,,,,,,,,,,,,,,302.04299998807255,,response,,,,99,,,,,,,Space,keypress(Space),,,,,,,,---- -- ----- -- ------ - ------- --- ----------<br>------------- ------ ------ ---- ---- ------- ----- -- ----<br>-------- ------- -- ---------- --- - --- ----- ----- ----<br>---- --- --- ----- --- ---- ---- ------- ----- ---- -------<br>--- --- -- ----- -- --- want -- --- ---- -- ------ ------<br>--- ----- -- ----,351880.10000002384,351878.6999999881,351560.265,351563.6999999881,351576.657,351892.909,,45,want
screen,html.Screen,2_1_0_1_46,2022-05-03T11:54:41.693Z,,,,,,,,,,,,,,,,,53,,,,,,,,,,,,,,284.9910000357777,,response,,,,99,,,,,,,Space,keypress(Space),,,,,,,,---- -- ----- -- ------ - ------- --- ----------<br>------------- ------ ------ ---- ---- ------- ----- -- ----<br>-------- ------- -- ---------- --- - --- ----- ----- ----<br>---- --- --- ----- --- ---- ---- ------- ----- ---- -------<br>--- --- -- ----- -- --- ---- to --- ---- -- ------ ------<br>--- ----- -- ----,352178.90000003576,352177.90000003576,351876.458,351880.3000000119,351892.909,352192.346,,46,to
screen,html.Screen,2_1_0_1_47,2022-05-03T11:54:42.012Z,,,,,,,,,,,,,,,,,53,,,,,,,,,,,,,,303.8539999880595,,response,,,,99,,,,,,,Space,keypress(Space),,,,,,,,"---- -- ----- -- ------ - ------- --- ----------<br>------------- ------ ------ ---- ---- ------- ----- -- ----<br>-------- ------- -- ---------- --- - --- ----- ----- ----<br>---- --- --- ----- --- ---- ---- ------- ----- ---- -------<br>--- --- -- ----- -- --- ---- -- be, ---- -- ------ ------<br>--- ----- -- ----",352497.90000003576,352496.1999999881,352175.963,352179.10000002384,352192.346,352508.473,,47,"be,"
screen,html.Screen,2_1_0_1_48,2022-05-03T11:54:42.358Z,,,,,,,,,,,,,,,,,53,,,,,,,,,,,,,,333.92700003576465,,response,,,,99,,,,,,,Space,keypress(Space),,,,,,,,---- -- ----- -- ------ - ------- --- ----------<br>------------- ------ ------ ---- ---- ------- ----- -- ----<br>-------- ------- -- ---------- --- - --- ----- ----- ----<br>---- --- --- ----- --- ---- ---- ------- ----- ---- -------<br>--- --- -- ----- -- --- ---- -- --- even -- ------ ------<br>--- ----- -- ----,352843.8000000119,352842.40000003576,352492.276,352498,352508.473,352858.052,,48,even
screen,html.Screen,2_1_0_1_49,2022-05-03T11:54:42.675Z,,,,,,,,,,,,,,,,,53,,,,,,,,,,,,,,301.84800003573764,,response,,,,99,,,,,,,Space,keypress(Space),,,,,,,,---- -- ----- -- ------ - ------- --- ----------<br>------------- ------ ------ ---- ---- ------- ----- -- ----<br>-------- ------- -- ---------- --- - --- ----- ----- ----<br>---- --- --- ----- --- ---- ---- ------- ----- ---- -------<br>--- --- -- ----- -- --- ---- -- --- ---- if ------ ------<br>--- ----- -- ----,353161.40000003576,353159.90000003576,352841.65,352844,352858.052,353174.195,,49,if
screen,html.Screen,2_1_0_1_50,2022-05-03T11:54:42.974Z,,,,,,,,,,,,,,,,,53,,,,,,,,,,,,,,285.10500001191394,,response,,,,99,,,,,,,Space,keypress(Space),,,,,,,,---- -- ----- -- ------ - ------- --- ----------<br>------------- ------ ------ ---- ---- ------- ----- -- ----<br>-------- ------- -- ---------- --- - --- ----- ----- ----<br>---- --- --- ----- --- ---- ---- ------- ----- ---- -------<br>--- --- -- ----- -- --- ---- -- --- ---- -- that's ------<br>--- ----- -- ----,353460.40000003576,353459.3000000119,353157.744,353161.60000002384,353174.195,353473.629,,50,that's
screen,html.Screen,2_1_0_1_51,2022-05-03T11:54:43.440Z,,,,,,,,,,,,,,,,,53,,,,,,,,,,,,,,451.37099999998463,,response,,,,99,,,,,,,Space,keypress(Space),,,,,,,,---- -- ----- -- ------ - ------- --- ----------<br>------------- ------ ------ ---- ---- ------- ----- -- ----<br>-------- ------- -- ---------- --- - --- ----- ----- ----<br>---- --- --- ----- --- ---- ---- ------- ----- ---- -------<br>--- --- -- ----- -- --- ---- -- --- ---- -- ------ really<br>--- ----- -- ----,353926.60000002384,353925,353457.454,353460.60000002384,353473.629,353939.623,,51,really
screen,html.Screen,2_1_0_1_52,2022-05-03T11:54:43.788Z,,,,,,,,,,,,,,,,,53,,,,,,,,,,,,,,333.1770000118995,,response,,,,99,,,,,,,Space,keypress(Space),,,,,,,,---- -- ----- -- ------ - ------- --- ----------<br>------------- ------ ------ ---- ---- ------- ----- -- ----<br>-------- ------- -- ---------- --- - --- ----- ----- ----<br>---- --- --- ----- --- ---- ---- ------- ----- ---- -------<br>--- --- -- ----- -- --- ---- -- --- ---- -- ------ ------<br>not ----- -- ----,354274.40000003576,354272.8000000119,353923.558,353926.6999999881,353939.623,354289.097,,52,not
screen,html.Screen,2_1_0_1_53,2022-05-03T11:54:44.094Z,,,,,,,,,,,,,,,,,53,,,,,,,,,,,,,,290.40299999999115,,response,,,,99,,,,,,,Space,keypress(Space),,,,,,,,---- -- ----- -- ------ - ------- --- ----------<br>------------- ------ ------ ---- ---- ------- ----- -- ----<br>-------- ------- -- ---------- --- - --- ----- ----- ----<br>---- --- --- ----- --- ---- ---- ------- ----- ---- -------<br>--- --- -- ----- -- --- ---- -- --- ---- -- ------ ------<br>--- close -- ----,354580.60000002384,354579.5,354272.719,354274.5,354289.097,354588.382,,53,close
screen,html.Screen,2_1_0_1_54,2022-05-03T11:54:44.457Z,,,,,,,,,,,,,,,,,53,,,,,,,,,,,,,,353.7180000238586,,response,,,,99,,,,,,,Space,keypress(Space),,,,,,,,---- -- ----- -- ------ - ------- --- ----------<br>------------- ------ ------ ---- ---- ------- ----- -- ----<br>-------- ------- -- ---------- --- - --- ----- ----- ----<br>---- --- --- ----- --- ---- ---- ------- ----- ---- -------<br>--- --- -- ----- -- --- ---- -- --- ---- -- ------ ------<br>--- ----- at ----,354943.5,354942.10000002384,354572.13,354580.6999999881,354588.382,354954.626,,54,at
screen,html.Screen,2_1_0_1_55,2022-05-03T11:54:45.251Z,,,,,,,,,,,,,,,,,53,,,,,,,,,,,,,,780.8740000000107,,response,,,,99,,,,,,,Space,keypress(Space),,,,,,,,---- -- ----- -- ------ - ------- --- ----------<br>------------- ------ ------ ---- ---- ------- ----- -- ----<br>-------- ------- -- ---------- --- - --- ----- ----- ----<br>---- --- --- ----- --- ---- ---- ------- ----- ---- -------<br>--- --- -- ----- -- --- ---- -- --- ---- -- ------ ------<br>--- ----- -- all.,355737,355735.5,354938.413,354943.6999999881,354954.626,355753.111,,55,all.
Item 99,flow.Loop,2_1_0_1,2022-05-03T11:54:45.251Z,,,,,,,,,,,,,,,,,,,,,,,,,,,,,,,22596.098999999987,,completion,,,,,H,,,,,,,,,,,silence,,,,,355737.1999999881,355735.5,333122.977,333124.1999999881,333139.401,355753.111,,,
Question 1,html.Screen,2_1_0_2,2022-05-03T11:54:52.005Z,,,,,,,,,,,,,,,,,,,,,,,,,,,,true,FALSE,,6734.889000000025,,response,,,,99,H,,,,,,FALSE,click #choice-2,,,,silence,,,,,362491.40000003576,362488,355737.832,355737.40000003576,355753.111,362492.883,,,
Question 2,html.Screen,2_1_0_3,2022-05-03T11:54:58.434Z,,,,,,,,,,,,,,,,,,,,,,,,,,,,true,TRUE,,6425.3169999881065,,response,,,,99,H,,,,,,TRUE,click #choice-1,,,,silence,,,,,368920.3000000119,368918.1999999881,362475.939,362491.5,362492.883,368932.501,,,
Item 99,flow.Sequence,2_1_0,2022-05-03T11:54:58.434Z,,,,,,,,,,,,,,,,,,,,,,,,,,,,,,,45779.358999988064,,completion,,,,,,,,,,,,,,,,,,,,,368920.5,368918.1999999881,323122.454,323135.40000003576,323138.841,368932.501,,,
Holding screen,html.Screen,2_1_1_0,2022-05-03T11:55:08.431Z,,,,,,,,,,,,,,,,,,,,,,,,,,,,,,,10000.200000000012,,timeout,,,,,,,,,,,,,,,,,,,,,378916.8000000119,378915.979,368915.649,368920.6999999881,368932.501,378932.701,,,
screen,html.Screen,2_1_1_1_0,2022-05-03T11:55:08.951Z,,,,,,,,,,,,,,,,,54,,,,,,,,,,,,,,502.19900003576186,,response,,,,100,,,,,,,Space,keypress(Space),,,,,,,,At --- ---- --- ------ ----- ------- ---- -- --- ------- --<br>------- ---------- ------ -- ----- -- ----- -- ---- ------<br>--- ----- --- --- ------ -------- ----- --- ------ ----- --<br>----- ----- ---------- --- --- ------ ------ ---- -- ------<br>------- --- ------ ----- --- ---- ------- -- ---- --- --<br>------- ------,379436.60000002384,379434.90000003576,378915.979,378917,378932.701,379448.604,,0,At
screen,html.Screen,2_1_1_1_1,2022-05-03T11:55:09.357Z,,,,,,,,,,,,,,,,,54,,,,,,,,,,,,,,393.2960000357707,,response,,,,100,,,,,,,Space,keypress(Space),,,,,,,,-- the ---- --- ------ ----- ------- ---- -- --- ------- --<br>------- ---------- ------ -- ----- -- ----- -- ---- ------<br>--- ----- --- --- ------ -------- ----- --- ------ ----- --<br>----- ----- ---------- --- --- ------ ------ ---- -- ------<br>------- --- ------ ----- --- ---- ------- -- ---- --- --<br>------- ------,379843.5,379841.90000003576,379432.679,379436.8000000119,379448.604,379847.784,,1,the
screen,html.Screen,2_1_1_1_2,2022-05-03T11:55:09.705Z,,,,,,,,,,,,,,,,,54,,,,,,,,,,,,,,341.81600002385676,,response,,,,100,,,,,,,Space,keypress(Space),,,,,,,,-- --- time --- ------ ----- ------- ---- -- --- ------- --<br>------- ---------- ------ -- ----- -- ----- -- ---- ------<br>--- ----- --- --- ------ -------- ----- --- ------ ----- --<br>----- ----- ---------- --- --- ------ ------ ---- -- ------<br>------- --- ------ ----- --- ---- ------- -- ---- --- --<br>------- ------,380191.10000002384,380189.60000002384,379831.884,379843.60000002384,379847.784,380198.157,,2,time
screen,html.Screen,2_1_1_1_3,2022-05-03T11:55:10.077Z,,,,,,,,,,,,,,,,,54,,,,,,,,,,,,,,363.54299998807255,,response,,,,100,,,,,,,Space,keypress(Space),,,,,,,,-- --- ---- the ------ ----- ------- ---- -- --- ------- --<br>------- ---------- ------ -- ----- -- ----- -- ---- ------<br>--- ----- --- --- ------ -------- ----- --- ------ ----- --<br>----- ----- ---------- --- --- ------ ------ ---- -- ------<br>------- --- ------ ----- --- ---- ------- -- ---- --- --<br>------- ------,380563.10000002384,380561.6999999881,380181.221,380191.1999999881,380198.157,380596.774,,3,the
screen,html.Screen,2_1_1_1_4,2022-05-03T11:55:10.421Z,,,,,,,,,,,,,,,,,54,,,,,,,,,,,,,,309.2260000000242,,response,,,,100,,,,,,,Space,keypress(Space),,,,,,,,-- --- ---- --- French ----- ------- ---- -- --- ------- --<br>------- ---------- ------ -- ----- -- ----- -- ---- ------<br>--- ----- --- --- ------ -------- ----- --- ------ ----- --<br>----- ----- ---------- --- --- ------ ------ ---- -- ------<br>------- --- ------ ----- --- ---- ------- -- ---- --- --<br>------- ------,380907.40000003576,380906,380580.105,380563.3000000119,380596.774,380913.064,,4,French
screen,html.Screen,2_1_1_1_5,2022-05-03T11:55:10.807Z,,,,,,,,,,,,,,,,,54,,,,,,,,,,,,,,378.2360000119079,,response,,,,100,,,,,,,Space,keypress(Space),,,,,,,,-- --- ---- --- ------ crown ------- ---- -- --- ------- --<br>------- ---------- ------ -- ----- -- ----- -- ---- ------<br>--- ----- --- --- ------ -------- ----- --- ------ ----- --<br>----- ----- ---------- --- --- ------ ------ ---- -- ------<br>------- --- ------ ----- --- ---- ------- -- ---- --- --<br>------- ------,381292.8000000119,381291.3000000119,380896.648,380907.5,380913.064,381295.442,,5,crown
screen,html.Screen,2_1_1_1_6,2022-05-03T11:55:11.149Z,,,,,,,,,,,,,,,,,54,,,,,,,,,,,,,,337.9580000357819,,response,,,,100,,,,,,,Space,keypress(Space),,,,,,,,-- --- ---- --- ------ ----- secured ---- -- --- ------- --<br>------- ---------- ------ -- ----- -- ----- -- ---- ------<br>--- ----- --- --- ------ -------- ----- --- ------ ----- --<br>----- ----- ---------- --- --- ------ ------ ---- -- ------<br>------- --- ------ ----- --- ---- ------- -- ---- --- --<br>------- ------,381635,381633.40000003576,381279.515,381292.8000000119,381295.442,381644.867,,6,secured
screen,html.Screen,2_1_1_1_7,2022-05-03T11:55:11.533Z,,,,,,,,,,,,,,,,,54,,,,,,,,,,,,,,372.7330000238144,,response,,,,100,,,,,,,Space,keypress(Space),,,,,,,,-- --- ---- --- ------ ----- ------- much -- --- ------- --<br>------- ---------- ------ -- ----- -- ----- -- ---- ------<br>--- ----- --- --- ------ -------- ----- --- ------ ----- --<br>----- ----- ---------- --- --- ------ ------ ---- -- ------<br>------- --- ------ ----- --- ---- ------- -- ---- --- --<br>------- ------,382019.1999999881,382017.60000002384,381628.702,381635.1999999881,381644.867,382027.542,,7,much
screen,html.Screen,2_1_1_1_8,2022-05-03T11:55:11.870Z,,,,,,,,,,,,,,,,,54,,,,,,,,,,,,,,327.2580000119051,,response,,,,100,,,,,,,Space,keypress(Space),,,,,,,,-- --- ---- --- ------ ----- ------- ---- of --- ------- --<br>------- ---------- ------ -- ----- -- ----- -- ---- ------<br>--- ----- --- --- ------ -------- ----- --- ------ ----- --<br>----- ----- ---------- --- --- ------ ------ ---- -- ------<br>------- --- ------ ----- --- ---- ------- -- ---- --- --<br>------- ------,382356.40000003576,382354.8000000119,382011.634,382019.3000000119,382027.542,382360.41,,8,of
screen,html.Screen,2_1_1_1_9,2022-05-03T11:55:12.235Z,,,,,,,,,,,,,,,,,54,,,,,,,,,,,,,,358.89000001194654,,response,,,,100,,,,,,,Space,keypress(Space),,,,,,,,-- --- ---- --- ------ ----- ------- ---- -- its ------- --<br>------- ---------- ------ -- ----- -- ----- -- ---- ------<br>--- ----- --- --- ------ -------- ----- --- ------ ----- --<br>----- ----- ---------- --- --- ------ ------ ---- -- ------<br>------- --- ------ ----- --- ---- ------- -- ---- --- --<br>------- ------,382720.8000000119,382719.3000000119,382344.395,382356.60000002384,382360.41,382726.497,,9,its
screen,html.Screen,2_1_1_1_10,2022-05-03T11:55:12.605Z,,,,,,,,,,,,,,,,,54,,,,,,,,,,,,,,363.5030000000261,,response,,,,100,,,,,,,Space,keypress(Space),,,,,,,,-- --- ---- --- ------ ----- ------- ---- -- --- revenue --<br>------- ---------- ------ -- ----- -- ----- -- ---- ------<br>--- ----- --- --- ------ -------- ----- --- ------ ----- --<br>----- ----- ---------- --- --- ------ ------ ---- -- ------<br>------- --- ------ ----- --- ---- ------- -- ---- --- --<br>------- ------,383091.40000003576,383090,382710.477,382720.90000003576,382726.497,383119.473,,10,revenue
screen,html.Screen,2_1_1_1_11,2022-05-03T11:55:13.049Z,,,,,,,,,,,,,,,,,54,,,,,,,,,,,,,,414.1270000238437,,response,,,,100,,,,,,,Space,keypress(Space),,,,,,,,-- --- ---- --- ------ ----- ------- ---- -- --- ------- by<br>------- ---------- ------ -- ----- -- ----- -- ---- ------<br>--- ----- --- --- ------ -------- ----- --- ------ ----- --<br>----- ----- ---------- --- --- ------ ------ ---- -- ------<br>------- --- ------ ----- --- ---- ------- -- ---- --- --<br>------- ------,383535.10000002384,383533.60000002384,383076.441,383091.60000002384,383119.473,383541.991,,11,by
screen,html.Screen,2_1_1_1_12,2022-05-03T11:55:13.419Z,,,,,,,,,,,,,,,,,54,,,,,,,,,,,,,,361.50900000002,,response,,,,100,,,,,,,Space,keypress(Space),,,,,,,,-- --- ---- --- ------ ----- ------- ---- -- --- ------- --<br>issuing ---------- ------ -- ----- -- ----- -- ---- ------<br>--- ----- --- --- ------ -------- ----- --- ------ ----- --<br>----- ----- ---------- --- --- ------ ------ ---- -- ------<br>------- --- ------ ----- --- ---- ------- -- ---- --- --<br>------- ------,383905,383903.5,383525.987,383535.1999999881,383541.991,383907.926,,12,issuing
screen,html.Screen,2_1_1_1_13,2022-05-03T11:55:13.796Z,,,,,,,,,,,,,,,,,54,,,,,,,,,,,,,,372.7739999881014,,response,,,,100,,,,,,,Space,keypress(Space),,,,,,,,-- --- ---- --- ------ ----- ------- ---- -- --- ------- --<br>------- government ------ -- ----- -- ----- -- ---- ------<br>--- ----- --- --- ------ -------- ----- --- ------ ----- --<br>----- ----- ---------- --- --- ------ ------ ---- -- ------<br>------- --- ------ ----- --- ---- ------- -- ---- --- --<br>------- ------,384282.1999999881,384280.6999999881,383891.954,383905.10000002384,383907.926,384290.715,,13,government
screen,html.Screen,2_1_1_1_14,2022-05-03T11:55:14.154Z,,,,,,,,,,,,,,,,,54,,,,,,,,,,,,,,347.5850000118953,,response,,,,100,,,,,,,Space,keypress(Space),,,,,,,,-- --- ---- --- ------ ----- ------- ---- -- --- ------- --<br>------- ---------- bonds. -- ----- -- ----- -- ---- ------<br>--- ----- --- --- ------ -------- ----- --- ------ ----- --<br>----- ----- ---------- --- --- ------ ------ ---- -- ------<br>------- --- ------ ----- --- ---- ------- -- ---- --- --<br>------- ------,384639.6999999881,384638.3000000119,384274.7,384282.3000000119,384290.715,384656.889,,14,bonds.
screen,html.Screen,2_1_1_1_15,2022-05-03T11:55:14.580Z,,,,,,,,,,,,,,,,,54,,,,,,,,,,,,,,408.0110000357381,,response,,,,100,,,,,,,Space,keypress(Space),,,,,,,,-- --- ---- --- ------ ----- ------- ---- -- --- ------- --<br>------- ---------- ------ In ----- -- ----- -- ---- ------<br>--- ----- --- --- ------ -------- ----- --- ------ ----- --<br>----- ----- ---------- --- --- ------ ------ ---- -- ------<br>------- --- ------ ----- --- ---- ------- -- ---- --- --<br>------- ------,385066.3000000119,385064.90000003576,384624.099,384639.90000003576,384656.889,385072.685,,15,In
screen,html.Screen,2_1_1_1_16,2022-05-03T11:55:14.915Z,,,,,,,,,,,,,,,,,54,,,,,,,,,,,,,,326.9150000238442,,response,,,,100,,,,,,,Space,keypress(Space),,,,,,,,"-- --- ---- --- ------ ----- ------- ---- -- --- ------- --<br>------- ---------- ------ -- 1727, -- ----- -- ---- ------<br>--- ----- --- --- ------ -------- ----- --- ------ ----- --<br>----- ----- ---------- --- --- ------ ------ ---- -- ------<br>------- --- ------ ----- --- ---- ------- -- ---- --- --<br>------- ------",385401.10000002384,385399.60000002384,385056.834,385066.5,385072.685,385406.114,,16,"1727,"
screen,html.Screen,2_1_1_1_17,2022-05-03T11:55:15.620Z,,,,,,,,,,,,,,,,,54,,,,,,,,,,,,,,697.7860000357614,,response,,,,100,,,,,,,Space,keypress(Space),,,,,,,,-- --- ---- --- ------ ----- ------- ---- -- --- ------- --<br>------- ---------- ------ -- ----- in ----- -- ---- ------<br>--- ----- --- --- ------ -------- ----- --- ------ ----- --<br>----- ----- ---------- --- --- ------ ------ ---- -- ------<br>------- --- ------ ----- --- ---- ------- -- ---- --- --<br>------- ------,386105.5,386103.90000003576,385389.501,385401.1999999881,385406.114,386121.287,,17,in
screen,html.Screen,2_1_1_1_18,2022-05-03T11:55:16.112Z,,,,,,,,,,,,,,,,,54,,,,,,,,,,,,,,475.01300001190975,,response,,,,100,,,,,,,Space,keypress(Space),,,,,,,,-- --- ---- --- ------ ----- ------- ---- -- --- ------- --<br>------- ---------- ------ -- ----- -- order -- ---- ------<br>--- ----- --- --- ------ -------- ----- --- ------ ----- --<br>----- ----- ---------- --- --- ------ ------ ---- -- ------<br>------- --- ------ ----- --- ---- ------- -- ---- --- --<br>------- ------,386597.6999999881,386596.3000000119,386105.617,386105.6999999881,386121.287,386603.62,,18,order
screen,html.Screen,2_1_1_1_19,2022-05-03T11:55:16.619Z,,,,,,,,,,,,,,,,,54,,,,,,,,,,,,,,499.28000003576744,,response,,,,100,,,,,,,Space,keypress(Space),,,,,,,,-- --- ---- --- ------ ----- ------- ---- -- --- ------- --<br>------- ---------- ------ -- ----- -- ----- to ---- ------<br>--- ----- --- --- ------ -------- ----- --- ------ ----- --<br>----- ----- ---------- --- --- ------ ------ ---- -- ------<br>------- --- ------ ----- --- ---- ------- -- ---- --- --<br>------- ------,387104.60000002384,387102.90000003576,386587.797,386597.8000000119,386603.62,387119.717,,19,to
screen,html.Screen,2_1_1_1_20,2022-05-03T11:55:17.005Z,,,,,,,,,,,,,,,,,54,,,,,,,,,,,,,,370.08300001191674,,response,,,,100,,,,,,,Space,keypress(Space),,,,,,,,-- --- ---- --- ------ ----- ------- ---- -- --- ------- --<br>------- ---------- ------ -- ----- -- ----- -- save ------<br>--- ----- --- --- ------ -------- ----- --- ------ ----- --<br>----- ----- ---------- --- --- ------ ------ ---- -- ------<br>------- --- ------ ----- --- ---- ------- -- ---- --- --<br>------- ------,387491.3000000119,387489.8000000119,387103.701,387104.8000000119,387119.717,387502.346,,20,save
screen,html.Screen,2_1_1_1_21,2022-05-03T11:55:17.459Z,,,,,,,,,,,,,,,,,54,,,,,,,,,,,,,,441.05400003574323,,response,,,,100,,,,,,,Space,keypress(Space),,,,,,,,"-- --- ---- --- ------ ----- ------- ---- -- --- ------- --<br>------- ---------- ------ -- ----- -- ----- -- ---- money,<br>--- ----- --- --- ------ -------- ----- --- ------ ----- --<br>----- ----- ---------- --- --- ------ ------ ---- -- ------<br>------- --- ------ ----- --- ---- ------- -- ---- --- --<br>------- ------",387944.90000003576,387943.40000003576,387486.038,387491.40000003576,387502.346,387951.566,,21,"money,"
screen,html.Screen,2_1_1_1_22,2022-05-03T11:55:17.903Z,,,,,,,,,,,,,,,,,54,,,,,,,,,,,,,,435.63399998808745,,response,,,,100,,,,,,,Space,keypress(Space),,,,,,,,-- --- ---- --- ------ ----- ------- ---- -- --- ------- --<br>------- ---------- ------ -- ----- -- ----- -- ---- ------<br>the ----- --- --- ------ -------- ----- --- ------ ----- --<br>----- ----- ---------- --- --- ------ ------ ---- -- ------<br>------- --- ------ ----- --- ---- ------- -- ---- --- --<br>------- ------,388388.6999999881,388387.1999999881,387935.445,387945.10000002384,387951.566,388400.966,,22,the
screen,html.Screen,2_1_1_1_23,2022-05-03T11:55:18.425Z,,,,,,,,,,,,,,,,,54,,,,,,,,,,,,,,508.23399998806417,,response,,,,100,,,,,,,Space,keypress(Space),,,,,,,,-- --- ---- --- ------ ----- ------- ---- -- --- ------- --<br>------- ---------- ------ -- ----- -- ----- -- ---- ------<br>--- state --- --- ------ -------- ----- --- ------ ----- --<br>----- ----- ---------- --- --- ------ ------ ---- -- ------<br>------- --- ------ ----- --- ---- ------- -- ---- --- --<br>------- ------,388910.8000000119,388909.1999999881,388384.871,388388.8000000119,388400.966,388916.537,,23,state
screen,html.Screen,2_1_1_1_24,2022-05-03T11:55:18.886Z,,,,,,,,,,,,,,,,,54,,,,,,,,,,,,,,453.76300001190975,,response,,,,100,,,,,,,Space,keypress(Space),,,,,,,,-- --- ---- --- ------ ----- ------- ---- -- --- ------- --<br>------- ---------- ------ -- ----- -- ----- -- ---- ------<br>--- ----- cut --- ------ -------- ----- --- ------ ----- --<br>----- ----- ---------- --- --- ------ ------ ---- -- ------<br>------- --- ------ ----- --- ---- ------- -- ---- --- --<br>------- ------,389371.8000000119,389370.3000000119,388900.634,388910.90000003576,388916.537,389382.502,,24,cut
screen,html.Screen,2_1_1_1_25,2022-05-03T11:55:19.298Z,,,,,,,,,,,,,,,,,54,,,,,,,,,,,,,,400.29800001194235,,response,,,,100,,,,,,,Space,keypress(Space),,,,,,,,-- --- ---- --- ------ ----- ------- ---- -- --- ------- --<br>------- ---------- ------ -- ----- -- ----- -- ---- ------<br>--- ----- --- the ------ -------- ----- --- ------ ----- --<br>----- ----- ---------- --- --- ------ ------ ---- -- ------<br>------- --- ------ ----- --- ---- ------- -- ---- --- --<br>------- ------,389784.3000000119,389782.8000000119,389366.358,389371.90000003576,389382.502,389798.671,,25,the
screen,html.Screen,2_1_1_1_26,2022-05-03T11:55:19.729Z,,,,,,,,,,,,,,,,,54,,,,,,,,,,,,,,414.92900002386887,,response,,,,100,,,,,,,Space,keypress(Space),,,,,,,,-- --- ---- --- ------ ----- ------- ---- -- --- ------- --<br>------- ---------- ------ -- ----- -- ----- -- ---- ------<br>--- ----- --- --- bonds' -------- ----- --- ------ ----- --<br>----- ----- ---------- --- --- ------ ------ ---- -- ------<br>------- --- ------ ----- --- ---- ------- -- ---- --- --<br>------- ------,390215.10000002384,390213.60000002384,389782.403,389784.5,389798.671,390231.377,,26,bonds'
screen,html.Screen,2_1_1_1_27,2022-05-03T11:55:20.159Z,,,,,,,,,,,,,,,,,54,,,,,,,,,,,,,,411.92300001194235,,response,,,,100,,,,,,,Space,keypress(Space),,,,,,,,-- --- ---- --- ------ ----- ------- ---- -- --- ------- --<br>------- ---------- ------ -- ----- -- ----- -- ---- ------<br>--- ----- --- --- ------ interest ----- --- ------ ----- --<br>----- ----- ---------- --- --- ------ ------ ---- -- ------<br>------- --- ------ ----- --- ---- ------- -- ---- --- --<br>------- ------,390644.6999999881,390643.3000000119,390215.07,390215.3000000119,390231.377,390647.111,,27,interest
screen,html.Screen,2_1_1_1_28,2022-05-03T11:55:20.620Z,,,,,,,,,,,,,,,,,54,,,,,,,,,,,,,,457.6890000119456,,response,,,,100,,,,,,,Space,keypress(Space),,,,,,,,-- --- ---- --- ------ ----- ------- ---- -- --- ------- --<br>------- ---------- ------ -- ----- -- ----- -- ---- ------<br>--- ----- --- --- ------ -------- rate. --- ------ ----- --<br>----- ----- ---------- --- --- ------ ------ ---- -- ------<br>------- --- ------ ----- --- ---- ------- -- ---- --- --<br>------- ------,391106.40000003576,391104.8000000119,390631.203,390644.8000000119,390647.111,391113.393,,28,rate.
screen,html.Screen,2_1_1_1_29,2022-05-03T11:55:21.085Z,,,,,,,,,,,,,,,,,54,,,,,,,,,,,,,,455.60700000001816,,response,,,,100,,,,,,,Space,keypress(Space),,,,,,,,-- --- ---- --- ------ ----- ------- ---- -- --- ------- --<br>------- ---------- ------ -- ----- -- ----- -- ---- ------<br>--- ----- --- --- ------ -------- ----- The ------ ----- --<br>----- ----- ---------- --- --- ------ ------ ---- -- ------<br>------- --- ------ ----- --- ---- ------- -- ---- --- --<br>------- ------,391570.60000002384,391569,391097.208,391106.40000003576,391113.393,391578.865,,29,The
screen,html.Screen,2_1_1_1_30,2022-05-03T11:55:21.533Z,,,,,,,,,,,,,,,,,54,,,,,,,,,,,,,,438.73500002385117,,response,,,,100,,,,,,,Space,keypress(Space),,,,,,,,-- --- ---- --- ------ ----- ------- ---- -- --- ------- --<br>------- ---------- ------ -- ----- -- ----- -- ---- ------<br>--- ----- --- --- ------ -------- ----- --- market ----- --<br>----- ----- ---------- --- --- ------ ------ ---- -- ------<br>------- --- ------ ----- --- ---- ------- -- ---- --- --<br>------- ------,392019,392017.60000002384,391563.132,391570.6999999881,391578.865,392028.449,,30,market
screen,html.Screen,2_1_1_1_31,2022-05-03T11:55:22.008Z,,,,,,,,,,,,,,,,,54,,,,,,,,,,,,,,463.95100003574044,,response,,,,100,,,,,,,Space,keypress(Space),,,,,,,,-- --- ---- --- ------ ----- ------- ---- -- --- ------- --<br>------- ---------- ------ -- ----- -- ----- -- ---- ------<br>--- ----- --- --- ------ -------- ----- --- ------ value --<br>----- ----- ---------- --- --- ------ ------ ---- -- ------<br>------- --- ------ ----- --- ---- ------- -- ---- --- --<br>------- ------,392493.90000003576,392492.40000003576,392012.162,392019.1999999881,392028.449,392510.954,,31,value
screen,html.Screen,2_1_1_1_32,2022-05-03T11:55:22.437Z,,,,,,,,,,,,,,,,,54,,,,,,,,,,,,,,410.64600002381485,,response,,,,100,,,,,,,Space,keypress(Space),,,,,,,,-- --- ---- --- ------ ----- ------- ---- -- --- ------- --<br>------- ---------- ------ -- ----- -- ----- -- ---- ------<br>--- ----- --- --- ------ -------- ----- --- ------ ----- of<br>----- ----- ---------- --- --- ------ ------ ---- -- ------<br>------- --- ------ ----- --- ---- ------- -- ---- --- --<br>------- ------,392923,392921.60000002384,392478.266,392494.10000002384,392510.954,392926.77,,32,of
screen,html.Screen,2_1_1_1_33,2022-05-03T11:55:22.832Z,,,,,,,,,,,,,,,,,54,,,,,,,,,,,,,,389.33000002382323,,response,,,,100,,,,,,,Space,keypress(Space),,,,,,,,-- --- ---- --- ------ ----- ------- ---- -- --- ------- --<br>------- ---------- ------ -- ----- -- ----- -- ---- ------<br>--- ----- --- --- ------ -------- ----- --- ------ ----- --<br>these ----- ---------- --- --- ------ ------ ---- -- ------<br>------- --- ------ ----- --- ---- ------- -- ---- --- --<br>------- ------,393317.5,393316.10000002384,392910.737,392923.3000000119,392926.77,393326.06,,33,these
screen,html.Screen,2_1_1_1_34,2022-05-03T11:55:23.238Z,,,,,,,,,,,,,,,,,54,,,,,,,,,,,,,,396.74000001192326,,response,,,,100,,,,,,,Space,keypress(Space),,,,,,,,-- --- ---- --- ------ ----- ------- ---- -- --- ------- --<br>------- ---------- ------ -- ----- -- ----- -- ---- ------<br>--- ----- --- --- ------ -------- ----- --- ------ ----- --<br>----- bonds ---------- --- --- ------ ------ ---- -- ------<br>------- --- ------ ----- --- ---- ------- -- ---- --- --<br>------- ------,393724.3000000119,393722.8000000119,393310.222,393317.6999999881,393326.06,393744.943,,34,bonds
screen,html.Screen,2_1_1_1_35,2022-05-03T11:55:23.687Z,,,,,,,,,,,,,,,,,54,,,,,,,,,,,,,,426.5569999999716,,response,,,,100,,,,,,,Space,keypress(Space),,,,,,,,"-- --- ---- --- ------ ----- ------- ---- -- --- ------- --<br>------- ---------- ------ -- ----- -- ----- -- ---- ------<br>--- ----- --- --- ------ -------- ----- --- ------ ----- --<br>----- ----- plummeted, --- --- ------ ------ ---- -- ------<br>------- --- ------ ----- --- ---- ------- -- ---- --- --<br>------- ------",394172.90000003576,394171.5,393709.552,393724.5,393744.943,394174.758,,35,"plummeted,"
screen,html.Screen,2_1_1_1_36,2022-05-03T11:55:24.146Z,,,,,,,,,,,,,,,,,54,,,,,,,,,,,,,,456.14200003579026,,response,,,,100,,,,,,,Space,keypress(Space),,,,,,,,-- --- ---- --- ------ ----- ------- ---- -- --- ------- --<br>------- ---------- ------ -- ----- -- ----- -- ---- ------<br>--- ----- --- --- ------ -------- ----- --- ------ ----- --<br>----- ----- ---------- and --- ------ ------ ---- -- ------<br>------- --- ------ ----- --- ---- ------- -- ---- --- --<br>------- ------,394632.40000003576,394630.90000003576,394158.913,394173,394174.758,394640.713,,36,and
screen,html.Screen,2_1_1_1_37,2022-05-03T11:55:24.532Z,,,,,,,,,,,,,,,,,54,,,,,,,,,,,,,,375.68700003577396,,response,,,,100,,,,,,,Space,keypress(Space),,,,,,,,-- --- ---- --- ------ ----- ------- ---- -- --- ------- --<br>------- ---------- ------ -- ----- -- ----- -- ---- ------<br>--- ----- --- --- ------ -------- ----- --- ------ ----- --<br>----- ----- ---------- --- the ------ ------ ---- -- ------<br>------- --- ------ ----- --- ---- ------- -- ---- --- --<br>------- ------,395017.90000003576,395016.40000003576,394624.888,394632.60000002384,394640.713,395023.376,,37,the
screen,html.Screen,2_1_1_1_38,2022-05-03T11:55:24.924Z,,,,,,,,,,,,,,,,,54,,,,,,,,,,,,,,384.6240000000107,,response,,,,100,,,,,,,Space,keypress(Space),,,,,,,,-- --- ---- --- ------ ----- ------- ---- -- --- ------- --<br>------- ---------- ------ -- ----- -- ----- -- ---- ------<br>--- ----- --- --- ------ -------- ----- --- ------ ----- --<br>----- ----- ---------- --- --- market ------ ---- -- ------<br>------- --- ------ ----- --- ---- ------- -- ---- --- --<br>------- ------,395409.60000002384,395408,395007.352,395018,395023.376,395423.024,,38,market
screen,html.Screen,2_1_1_1_39,2022-05-03T11:55:25.296Z,,,,,,,,,,,,,,,,,54,,,,,,,,,,,,,,357.6759999881033,,response,,,,100,,,,,,,Space,keypress(Space),,,,,,,,-- --- ---- --- ------ ----- ------- ---- -- --- ------- --<br>------- ---------- ------ -- ----- -- ----- -- ---- ------<br>--- ----- --- --- ------ -------- ----- --- ------ ----- --<br>----- ----- ---------- --- --- ------ became ---- -- ------<br>------- --- ------ ----- --- ---- ------- -- ---- --- --<br>------- ------,395782.10000002384,395780.6999999881,395406.851,395409.8000000119,395423.024,395788.986,,39,became
screen,html.Screen,2_1_1_1_40,2022-05-03T11:55:25.668Z,,,,,,,,,,,,,,,,,54,,,,,,,,,,,,,,363.71399998810375,,response,,,,100,,,,,,,Space,keypress(Space),,,,,,,,-- --- ---- --- ------ ----- ------- ---- -- --- ------- --<br>------- ---------- ------ -- ----- -- ----- -- ---- ------<br>--- ----- --- --- ------ -------- ----- --- ------ ----- --<br>----- ----- ---------- --- --- ------ ------ wary -- ------<br>------- --- ------ ----- --- ---- ------- -- ---- --- --<br>------- ------,396154.10000002384,396152.6999999881,395772.738,395782.3000000119,395788.986,396171.741,,40,wary
screen,html.Screen,2_1_1_1_41,2022-05-03T11:55:26.028Z,,,,,,,,,,,,,,,,,54,,,,,,,,,,,,,,340.4589999880991,,response,,,,100,,,,,,,Space,keypress(Space),,,,,,,,-- --- ---- --- ------ ----- ------- ---- -- --- ------- --<br>------- ---------- ------ -- ----- -- ----- -- ---- ------<br>--- ----- --- --- ------ -------- ----- --- ------ ----- --<br>----- ----- ---------- --- --- ------ ------ ---- of ------<br>------- --- ------ ----- --- ---- ------- -- ---- --- --<br>------- ------,396513.6999999881,396512.1999999881,396138.963,396154.1999999881,396171.741,396520.949,,41,of
screen,html.Screen,2_1_1_1_42,2022-05-03T11:55:26.429Z,,,,,,,,,,,,,,,,,54,,,,,,,,,,,,,,392.95100003574044,,response,,,,100,,,,,,,Space,keypress(Space),,,,,,,,-- --- ---- --- ------ ----- ------- ---- -- --- ------- --<br>------- ---------- ------ -- ----- -- ----- -- ---- ------<br>--- ----- --- --- ------ -------- ----- --- ------ ----- --<br>----- ----- ---------- --- --- ------ ------ ---- -- French<br>------- --- ------ ----- --- ---- ------- -- ---- --- --<br>------- ------,396915.3000000119,396913.90000003576,396505.02,396513.8000000119,396520.949,396921.45,,42,French
screen,html.Screen,2_1_1_1_43,2022-05-03T11:55:26.814Z,,,,,,,,,,,,,,,,,54,,,,,,,,,,,,,,377.04999999998836,,response,,,,100,,,,,,,Space,keypress(Space),,,,,,,,-- --- ---- --- ------ ----- ------- ---- -- --- ------- --<br>------- ---------- ------ -- ----- -- ----- -- ---- ------<br>--- ----- --- --- ------ -------- ----- --- ------ ----- --<br>----- ----- ---------- --- --- ------ ------ ---- -- ------<br>credit. --- ------ ----- --- ---- ------- -- ---- --- --<br>------- ------,397300,397298.5,396904.463,396915.5,396921.45,397303.091,,43,credit.
screen,html.Screen,2_1_1_1_44,2022-05-03T11:55:27.381Z,,,,,,,,,,,,,,,,,54,,,,,,,,,,,,,,562.709000011906,,response,,,,100,,,,,,,Space,keypress(Space),,,,,,,,-- --- ---- --- ------ ----- ------- ---- -- --- ------- --<br>------- ---------- ------ -- ----- -- ----- -- ---- ------<br>--- ----- --- --- ------ -------- ----- --- ------ ----- --<br>----- ----- ---------- --- --- ------ ------ ---- -- ------<br>------- The ------ ----- --- ---- ------- -- ---- --- --<br>------- ------,397867.1999999881,397865.8000000119,397287.148,397300.10000002384,397303.091,397900.776,,44,The
screen,html.Screen,2_1_1_1_45,2022-05-03T11:55:27.842Z,,,,,,,,,,,,,,,,,54,,,,,,,,,,,,,,425.2239999999874,,response,,,,100,,,,,,,Space,keypress(Space),,,,,,,,-- --- ---- --- ------ ----- ------- ---- -- --- ------- --<br>------- ---------- ------ -- ----- -- ----- -- ---- ------<br>--- ----- --- --- ------ -------- ----- --- ------ ----- --<br>----- ----- ---------- --- --- ------ ------ ---- -- ------<br>------- --- French ----- --- ---- ------- -- ---- --- --<br>------- ------,398327.5,398326,397853.194,397867.40000003576,397900.776,398334.693,,45,French
screen,html.Screen,2_1_1_1_46,2022-05-03T11:55:28.251Z,,,,,,,,,,,,,,,,,54,,,,,,,,,,,,,,400.3069999999716,,response,,,,100,,,,,,,Space,keypress(Space),,,,,,,,-- --- ---- --- ------ ----- ------- ---- -- --- ------- --<br>------- ---------- ------ -- ----- -- ----- -- ---- ------<br>--- ----- --- --- ------ -------- ----- --- ------ ----- --<br>----- ----- ---------- --- --- ------ ------ ---- -- ------<br>------- --- ------ state --- ---- ------- -- ---- --- --<br>------- ------,398736.60000002384,398735,398318.898,398327.6999999881,398334.693,398751.015,,46,state
screen,html.Screen,2_1_1_1_47,2022-05-03T11:55:28.647Z,,,,,,,,,,,,,,,,,54,,,,,,,,,,,,,,380.5850000238279,,response,,,,100,,,,,,,Space,keypress(Space),,,,,,,,-- --- ---- --- ------ ----- ------- ---- -- --- ------- --<br>------- ---------- ------ -- ----- -- ----- -- ---- ------<br>--- ----- --- --- ------ -------- ----- --- ------ ----- --<br>----- ----- ---------- --- --- ------ ------ ---- -- ------<br>------- --- ------ ----- was ---- ------- -- ---- --- --<br>------- ------,399133.10000002384,399131.60000002384,398734.877,398736.6999999881,398751.015,399150.347,,47,was
screen,html.Screen,2_1_1_1_48,2022-05-03T11:55:29.052Z,,,,,,,,,,,,,,,,,54,,,,,,,,,,,,,,385.8529999880702,,response,,,,100,,,,,,,Space,keypress(Space),,,,,,,,-- --- ---- --- ------ ----- ------- ---- -- --- ------- --<br>------- ---------- ------ -- ----- -- ----- -- ---- ------<br>--- ----- --- --- ------ -------- ----- --- ------ ----- --<br>----- ----- ---------- --- --- ------ ------ ---- -- ------<br>------- --- ------ ----- --- left ------- -- ---- --- --<br>------- ------,399537.60000002384,399536.1999999881,399117.527,399133.3000000119,399150.347,399549.652,,48,left
screen,html.Screen,2_1_1_1_49,2022-05-03T11:55:29.512Z,,,,,,,,,,,,,,,,,54,,,,,,,,,,,,,,446.44800002384,,response,,,,100,,,,,,,Space,keypress(Space),,,,,,,,-- --- ---- --- ------ ----- ------- ---- -- --- ------- --<br>------- ---------- ------ -- ----- -- ----- -- ---- ------<br>--- ----- --- --- ------ -------- ----- --- ------ ----- --<br>----- ----- ---------- --- --- ------ ------ ---- -- ------<br>------- --- ------ ----- --- ---- without -- ---- --- --<br>------- ------,399997.5,399996.10000002384,399533.568,399537.6999999881,399549.652,400022.818,,49,without
screen,html.Screen,2_1_1_1_50,2022-05-03T11:55:29.908Z,,,,,,,,,,,,,,,,,54,,,,,,,,,,,,,,369.6819999999716,,response,,,,100,,,,,,,Space,keypress(Space),,,,,,,,-- --- ---- --- ------ ----- ------- ---- -- --- ------- --<br>------- ---------- ------ -- ----- -- ----- -- ---- ------<br>--- ----- --- --- ------ -------- ----- --- ------ ----- --<br>----- ----- ---------- --- --- ------ ------ ---- -- ------<br>------- --- ------ ----- --- ---- ------- an ---- --- --<br>------- ------,400394,400392.5,399982.75,399997.6999999881,400022.818,400398.144,,50,an
screen,html.Screen,2_1_1_1_51,2022-05-03T11:55:30.387Z,,,,,,,,,,,,,,,,,54,,,,,,,,,,,,,,473.6560000119498,,response,,,,100,,,,,,,Space,keypress(Space),,,,,,,,-- --- ---- --- ------ ----- ------- ---- -- --- ------- --<br>------- ---------- ------ -- ----- -- ----- -- ---- ------<br>--- ----- --- --- ------ -------- ----- --- ------ ----- --<br>----- ----- ---------- --- --- ------ ------ ---- -- ------<br>------- --- ------ ----- --- ---- ------- -- easy --- --<br>------- ------,400873.1999999881,400871.8000000119,400382.174,400394.10000002384,400398.144,400880.601,,51,easy
screen,html.Screen,2_1_1_1_52,2022-05-03T11:55:30.831Z,,,,,,,,,,,,,,,,,54,,,,,,,,,,,,,,434.99900002381764,,response,,,,100,,,,,,,Space,keypress(Space),,,,,,,,-- --- ---- --- ------ ----- ------- ---- -- --- ------- --<br>------- ---------- ------ -- ----- -- ----- -- ---- ------<br>--- ----- --- --- ------ -------- ----- --- ------ ----- --<br>----- ----- ---------- --- --- ------ ------ ---- -- ------<br>------- --- ------ ----- --- ---- ------- -- ---- way --<br>------- ------,401317.10000002384,401315.60000002384,400864.861,400873.40000003576,400880.601,401330.203,,52,way
screen,html.Screen,2_1_1_1_53,2022-05-03T11:55:31.263Z,,,,,,,,,,,,,,,,,54,,,,,,,,,,,,,,417.5970000119414,,response,,,,100,,,,,,,Space,keypress(Space),,,,,,,,-- --- ---- --- ------ ----- ------- ---- -- --- ------- --<br>------- ---------- ------ -- ----- -- ----- -- ---- ------<br>--- ----- --- --- ------ -------- ----- --- ------ ----- --<br>----- ----- ---------- --- --- ------ ------ ---- -- ------<br>------- --- ------ ----- --- ---- ------- -- ---- --- of<br>------- ------,401749.3000000119,401747.8000000119,401314.126,401317.1999999881,401330.203,401762.842,,53,of
screen,html.Screen,2_1_1_1_54,2022-05-03T11:55:31.676Z,,,,,,,,,,,,,,,,,54,,,,,,,,,,,,,,397.1579999999958,,response,,,,100,,,,,,,Space,keypress(Space),,,,,,,,-- --- ---- --- ------ ----- ------- ---- -- --- ------- --<br>------- ---------- ------ -- ----- -- ----- -- ---- ------<br>--- ----- --- --- ------ -------- ----- --- ------ ----- --<br>----- ----- ---------- --- --- ------ ------ ---- -- ------<br>------- --- ------ ----- --- ---- ------- -- ---- --- --<br>raising ------,402161.40000003576,402160,401746.55,401749.40000003576,401762.842,402178.808,,54,raising
screen,html.Screen,2_1_1_1_55,2022-05-03T11:55:32.384Z,,,,,,,,,,,,,,,,,54,,,,,,,,,,,,,,689.6919999999809,,response,,,,100,,,,,,,Space,keypress(Space),,,,,,,,-- --- ---- --- ------ ----- ------- ---- -- --- ------- --<br>------- ---------- ------ -- ----- -- ----- -- ---- ------<br>--- ----- --- --- ------ -------- ----- --- ------ ----- --<br>----- ----- ---------- --- --- ------ ------ ---- -- ------<br>------- --- ------ ----- --- ---- ------- -- ---- --- --<br>------- money.,402870,402868.5,402146.021,402161.60000002384,402178.808,402877.425,,55,money.
Item 100,flow.Loop,2_1_1_1,2022-05-03T11:55:32.384Z,,,,,,,,,,,,,,,,,,,,,,,,,,,,,,,23935.799,,completion,,,,,H,,,,,,,,,,,silence,,,,,402870.3000000119,402868.5,378915.979,378917,378932.701,402877.425,,,
Question 1,html.Screen,2_1_1_2,2022-05-03T11:55:36.099Z,,,,,,,,,,,,,,,,,,,,,,,,,,,,true,TRUE,,3705.5750000000116,,response,,,,100,H,,,,,,TRUE,click #choice-1,,,,silence,,,,,406584.90000003576,406583,402862.026,402870.40000003576,402877.425,406588.167,,,
Question 2,html.Screen,2_1_1_3,2022-05-03T11:55:39.754Z,,,,,,,,,,,,,,,,,,,,,,,,,,,,true,FALSE,,3649.133000011905,,response,,,,100,H,,,,,,FALSE,click #choice-2,,,,silence,,,,,410239.60000002384,410237.3000000119,406572.113,406585.10000002384,406588.167,410249.655,,,
Item 100,flow.Sequence,2_1_1,2022-05-03T11:55:39.754Z,,,,,,,,,,,,,,,,,,,,,,,,,,,,,,,41304.79900001193,,completion,,,,,,,,,,,,,,,,,,,,,410239.90000003576,410237.3000000119,368915.649,368920.60000002384,368932.501,410249.655,,,
End of Practice,html.Page,2_1_2,2022-05-03T11:55:47.072Z,,,,,,,,,,,,,,,,,,,,,,,,,,,,,,,7307.445000023814,,form submission,,,,,,,,,,,,,,,,,,,,,417557.6999999881,417557.10000002384,410232.621,410239.90000003576,410249.655,417570.707,,,
Practice,flow.Sequence,2_1,2022-05-03T11:55:47.072Z,,,,,,,,,,,,,,,,,,,,,,,,,,,,,,,94418.25900002383,,completion,,,,,,,,,,,,,,,,,,,,,417558.3000000119,417557.10000002384,323122.454,323135,323138.841,417570.707,,,
Trap_instruction,html.Page,2_2_0,2022-05-03T11:55:52.522Z,,,,,,,,,,,,,,,,,,,,,,,,,,,,,,,5436.593000011926,,form submission,,,,,,,,,,,,,,,,,,,,,423007.60000002384,423007.3000000119,417554.082,417558.6999999881,417570.707,423028.457,,,
trap_trial,html.Screen,2_2_1,2022-05-03T11:55:57.048Z,,,,,,,,,,,,,,,,,,,,,,,,,,,,true,1,,4503.543000000005,,response,,,,,,,,,,,1,click #choice-1,,,,,,,,,427534.1999999881,427532,422995.302,423007.6999999881,423028.457,427538.432,,,
end of trap trial,html.Page,2_2_2,2022-05-03T11:55:59.491Z,,,,,,,,,,,,,,,,,,,,,,,,,,,,,,,2438.0680000000284,,form submission,,,,,,,,,,,,,,,,,,,,,429976.90000003576,429976.5,427521.392,427534.40000003576,427538.432,429984.181,,,
Trap 1,flow.Sequence,2_2,2022-05-03T11:55:59.491Z,,,,,,,,,,,,,,,,,,,,,,,,,,,,,,,12405.793000000005,,completion,,,,,,,,,,,,,,,,,,,,,429977.1999999881,429976.5,417554.082,417558.5,417570.707,429984.181,,,
Standby,html.Page,2_3_0,2022-05-03T11:56:07.486Z,,,,,,,,,,,,,,,,,,,,,,,,,,,,,,,8003.521000000008,,timeout,,,,,,,,,,,,,,,,,,,,,437972.3000000119,437971.124,429967.63,429977.40000003576,429984.181,437987.702,,,
Holding screen,html.Screen,2_3_1_0_0,2022-05-03T11:56:14.492Z,,,,,,,,,,,,,,,,,,,,,,,,,,,,,,,7005.4619999999995,,timeout,,,,,,,,,,,,,,,,,,,,,444978.60000002384,444976.557,437971.124,437972.60000002384,437987.702,444993.164,,,
screen,html.Screen,2_3_1_0_1_0,2022-05-03T11:56:15.713Z,,,,,,,,,,,,,,,,,40,,,,,,,,,,,,,,1204.1360000119312,,response,,,,9,H,,,,,,Space,keypress(Space),,,,speech,,,,Police -- ------- ---- ---- ---- - -------- ----- --- --<br>----- ----- ------ -- ---- -- --- - ---- -- - ----- -----<br>------ ---- ------ ---- - -------- ------- -- --- --------<br>-------- ----------- ---- ------ ---- ------ ---- --- ---<br>-------- --- -----,446199,446197.3000000119,444976.557,444978.90000003576,444993.164,446207.922,,0,Police
screen,html.Screen,2_3_1_0_1_1,2022-05-03T11:56:16.221Z,,,,,,,,,,,,,,,,,40,,,,,,,,,,,,,,498.0779999999795,,response,,,,9,H,,,,,,Space,keypress(Space),,,,speech,,,,------ in ------- ---- ---- ---- - -------- ----- --- --<br>----- ----- ------ -- ---- -- --- - ---- -- - ----- -----<br>------ ---- ------ ---- - -------- ------- -- --- --------<br>-------- ----------- ---- ------ ---- ------ ---- --- ---<br>-------- --- -----,446707.1999999881,446706,446193.07,446199.3000000119,446207.922,446723.727,,1,in
screen,html.Screen,2_3_1_0_1_2,2022-05-03T11:56:16.674Z,,,,,,,,,,,,,,,,,40,,,,,,,,,,,,,,435.2729999999865,,response,,,,9,H,,,,,,Space,keypress(Space),,,,speech,,,,------ -- Georgia ---- ---- ---- - -------- ----- --- --<br>----- ----- ------ -- ---- -- --- - ---- -- - ----- -----<br>------ ---- ------ ---- - -------- ------- -- --- --------<br>-------- ----------- ---- ------ ---- ------ ---- --- ---<br>-------- --- -----,447160,447159,446707.819,446707.40000003576,446723.727,447173.001,,2,Georgia
screen,html.Screen,2_3_1_0_1_3,2022-05-03T11:56:17.305Z,,,,,,,,,,,,,,,,,40,,,,,,,,,,,,,,616.8990000357735,,response,,,,9,H,,,,,,Space,keypress(Space),,,,speech,,,,------ -- ------- have ---- ---- - -------- ----- --- --<br>----- ----- ------ -- ---- -- --- - ---- -- - ----- -----<br>------ ---- ------ ---- - -------- ------- -- --- --------<br>-------- ----------- ---- ------ ---- ------ ---- --- ---<br>-------- --- -----,447791.3000000119,447789.90000003576,447156.966,447160.1999999881,447173.001,447805.322,,3,have
screen,html.Screen,2_3_1_0_1_4,2022-05-03T11:56:17.805Z,,,,,,,,,,,,,,,,,40,,,,,,,,,,,,,,484.5780000357772,,response,,,,9,H,,,,,,Space,keypress(Space),,,,speech,,,,------ -- ------- ---- shut ---- - -------- ----- --- --<br>----- ----- ------ -- ---- -- --- - ---- -- - ----- -----<br>------ ---- ------ ---- - -------- ------- -- --- --------<br>-------- ----------- ---- ------ ---- ------ ---- --- ---<br>-------- --- -----,448291.10000002384,448289.90000003576,447789.599,447791.5,447805.322,448304.524,,4,shut
screen,html.Screen,2_3_1_0_1_5,2022-05-03T11:56:18.239Z,,,,,,,,,,,,,,,,,40,,,,,,,,,,,,,,419.4760000000242,,response,,,,9,H,,,,,,Space,keypress(Space),,,,speech,,,,------ -- ------- ---- ---- down - -------- ----- --- --<br>----- ----- ------ -- ---- -- --- - ---- -- - ----- -----<br>------ ---- ------ ---- - -------- ------- -- --- --------<br>-------- ----------- ---- ------ ---- ------ ---- --- ---<br>-------- --- -----,448725.10000002384,448724,448288.604,448291.40000003576,448304.524,448737.333,,5,down
screen,html.Screen,2_3_1_0_1_6,2022-05-03T11:56:18.683Z,,,,,,,,,,,,,,,,,40,,,,,,,,,,,,,,430.8669999880949,,response,,,,9,H,,,,,,Space,keypress(Space),,,,speech,,,,------ -- ------- ---- ---- ---- a -------- ----- --- --<br>----- ----- ------ -- ---- -- --- - ---- -- - ----- -----<br>------ ---- ------ ---- - -------- ------- -- --- --------<br>-------- ----------- ---- ------ ---- ------ ---- --- ---<br>-------- --- -----,449169.6999999881,449168.1999999881,448721.095,448725.1999999881,448737.333,449203.296,,6,a
screen,html.Screen,2_3_1_0_1_7,2022-05-03T11:56:19.166Z,,,,,,,,,,,,,,,,,40,,,,,,,,,,,,,,448.50400001194794,,response,,,,9,H,,,,,,Space,keypress(Space),,,,speech,,,,------ -- ------- ---- ---- ---- - lemonade ----- --- --<br>----- ----- ------ -- ---- -- --- - ---- -- - ----- -----<br>------ ---- ------ ---- - -------- ------- -- --- --------<br>-------- ----------- ---- ------ ---- ------ ---- --- ---<br>-------- --- -----,449652.6999999881,449651.8000000119,449186.618,449169.8000000119,449203.296,449669.122,,7,lemonade
screen,html.Screen,2_3_1_0_1_8,2022-05-03T11:56:19.691Z,,,,,,,,,,,,,,,,,40,,,,,,,,,,,,,,507.07799998810515,,response,,,,9,H,,,,,,Space,keypress(Space),,,,speech,,,,------ -- ------- ---- ---- ---- - -------- stand --- --<br>----- ----- ------ -- ---- -- --- - ---- -- - ----- -----<br>------ ---- ------ ---- - -------- ------- -- --- --------<br>-------- ----------- ---- ------ ---- ------ ---- --- ---<br>-------- --- -----,450177.60000002384,450176.1999999881,449653.168,449652.8000000119,449669.122,450184.807,,8,stand
screen,html.Screen,2_3_1_0_1_9,2022-05-03T11:56:20.228Z,,,,,,,,,,,,,,,,,40,,,,,,,,,,,,,,528.8929999881075,,response,,,,9,H,,,,,,Space,keypress(Space),,,,speech,,,,------ -- ------- ---- ---- ---- - -------- ----- run --<br>----- ----- ------ -- ---- -- --- - ---- -- - ----- -----<br>------ ---- ------ ---- - -------- ------- -- --- --------<br>-------- ----------- ---- ------ ---- ------ ---- --- ---<br>-------- --- -----,450714.1999999881,450713.6999999881,450168.955,450177.8000000119,450184.807,450717.31,,9,run
screen,html.Screen,2_3_1_0_1_10,2022-05-03T11:56:20.708Z,,,,,,,,,,,,,,,,,40,,,,,,,,,,,,,,475.3899999880814,,response,,,,9,H,,,,,,Space,keypress(Space),,,,speech,,,,------ -- ------- ---- ---- ---- - -------- ----- --- by<br>----- ----- ------ -- ---- -- --- - ---- -- - ----- -----<br>------ ---- ------ ---- - -------- ------- -- --- --------<br>-------- ----------- ---- ------ ---- ------ ---- --- ---<br>-------- --- -----,451194.10000002384,451192.6999999881,450701.63,450714.40000003576,450717.31,451199.851,,10,by
screen,html.Screen,2_3_1_0_1_11,2022-05-03T11:56:21.115Z,,,,,,,,,,,,,,,,,40,,,,,,,,,,,,,,399.84899998805486,,response,,,,9,H,,,,,,Space,keypress(Space),,,,speech,,,,------ -- ------- ---- ---- ---- - -------- ----- --- --<br>three ----- ------ -- ---- -- --- - ---- -- - ----- -----<br>------ ---- ------ ---- - -------- ------- -- --- --------<br>-------- ----------- ---- ------ ---- ------ ---- --- ---<br>-------- --- -----,451600.90000003576,451599.6999999881,451184.146,451194.3000000119,451199.851,451616.087,,11,three
screen,html.Screen,2_3_1_0_1_12,2022-05-03T11:56:21.518Z,,,,,,,,,,,,,,,,,40,,,,,,,,,,,,,,386.61299998807954,,response,,,,9,H,,,,,,Space,keypress(Space),,,,speech,,,,------ -- ------- ---- ---- ---- - -------- ----- --- --<br>----- girls ------ -- ---- -- --- - ---- -- - ----- -----<br>------ ---- ------ ---- - -------- ------- -- --- --------<br>-------- ----------- ---- ------ ---- ------ ---- --- ---<br>-------- --- -----,452003.8000000119,452002.6999999881,451600.003,451601.1999999881,451616.087,452015.437,,12,girls
screen,html.Screen,2_3_1_0_1_13,2022-05-03T11:56:21.909Z,,,,,,,,,,,,,,,,,40,,,,,,,,,,,,,,378.96300003578654,,response,,,,9,H,,,,,,Space,keypress(Space),,,,speech,,,,------ -- ------- ---- ---- ---- - -------- ----- --- --<br>----- ----- trying -- ---- -- --- - ---- -- - ----- -----<br>------ ---- ------ ---- - -------- ------- -- --- --------<br>-------- ----------- ---- ------ ---- ------ ---- --- ---<br>-------- --- -----,452395.5,452394.40000003576,451999.324,452004,452015.437,452397.945,,13,trying
screen,html.Screen,2_3_1_0_1_14,2022-05-03T11:56:22.289Z,,,,,,,,,,,,,,,,,40,,,,,,,,,,,,,,376.554999999993,,response,,,,9,H,,,,,,Space,keypress(Space),,,,speech,,,,------ -- ------- ---- ---- ---- - -------- ----- --- --<br>----- ----- ------ to ---- -- --- - ---- -- - ----- -----<br>------ ---- ------ ---- - -------- ------- -- --- --------<br>-------- ----------- ---- ------ ---- ------ ---- --- ---<br>-------- --- -----,452775.60000002384,452774.5,452381.724,452395.6999999881,452397.945,452781.182,,14,to
screen,html.Screen,2_3_1_0_1_15,2022-05-03T11:56:22.670Z,,,,,,,,,,,,,,,,,40,,,,,,,,,,,,,,374.11800001194933,,response,,,,9,H,,,,,,Space,keypress(Space),,,,speech,,,,------ -- ------- ---- ---- ---- - -------- ----- --- --<br>----- ----- ------ -- save -- --- - ---- -- - ----- -----<br>------ ---- ------ ---- - -------- ------- -- --- --------<br>-------- ----------- ---- ------ ---- ------ ---- --- ---<br>-------- --- -----,453156.8000000119,453155.3000000119,452764.606,452775.8000000119,452781.182,453163.378,,15,save
screen,html.Screen,2_3_1_0_1_16,2022-05-03T11:56:23.032Z,,,,,,,,,,,,,,,,,40,,,,,,,,,,,,,,353.1219999999739,,response,,,,9,H,,,,,,Space,keypress(Space),,,,speech,,,,------ -- ------- ---- ---- ---- - -------- ----- --- --<br>----- ----- ------ -- ---- up --- - ---- -- - ----- -----<br>------ ---- ------ ---- - -------- ------- -- --- --------<br>-------- ----------- ---- ------ ---- ------ ---- --- ---<br>-------- --- -----,453518.10000002384,453516.5,453147.462,453156.90000003576,453163.378,453529.761,,16,up
screen,html.Screen,2_3_1_0_1_17,2022-05-03T11:56:23.448Z,,,,,,,,,,,,,,,,,40,,,,,,,,,,,,,,402.83900002384325,,response,,,,9,H,,,,,,Space,keypress(Space),,,,speech,,,,------ -- ------- ---- ---- ---- - -------- ----- --- --<br>----- ----- ------ -- ---- -- for - ---- -- - ----- -----<br>------ ---- ------ ---- - -------- ------- -- --- --------<br>-------- ----------- ---- ------ ---- ------ ---- --- ---<br>-------- --- -----,453933.90000003576,453932.60000002384,453513.483,453518.1999999881,453529.761,453945.677,,17,for
screen,html.Screen,2_3_1_0_1_18,2022-05-03T11:56:23.823Z,,,,,,,,,,,,,,,,,40,,,,,,,,,,,,,,362.32299999997485,,response,,,,9,H,,,,,,Space,keypress(Space),,,,speech,,,,------ -- ------- ---- ---- ---- - -------- ----- --- --<br>----- ----- ------ -- ---- -- --- a ---- -- - ----- -----<br>------ ---- ------ ---- - -------- ------- -- --- --------<br>-------- ----------- ---- ------ ---- ------ ---- --- ---<br>-------- --- -----,454309.40000003576,454308,453929.624,453934,453945.677,454311.569,,18,a
screen,html.Screen,2_3_1_0_1_19,2022-05-03T11:56:24.207Z,,,,,,,,,,,,,,,,,40,,,,,,,,,,,,,,380.4309999999823,,response,,,,9,H,,,,,,Space,keypress(Space),,,,speech,,,,------ -- ------- ---- ---- ---- - -------- ----- --- --<br>----- ----- ------ -- ---- -- --- - trip -- - ----- -----<br>------ ---- ------ ---- - -------- ------- -- --- --------<br>-------- ----------- ---- ------ ---- ------ ---- --- ---<br>-------- --- -----,454693.40000003576,454692,454295.589,454309.60000002384,454311.569,454711.464,,19,trip
screen,html.Screen,2_3_1_0_1_20,2022-05-03T11:56:24.717Z,,,,,,,,,,,,,,,,,40,,,,,,,,,,,,,,490.3360000119428,,response,,,,9,H,,,,,,Space,keypress(Space),,,,speech,,,,------ -- ------- ---- ---- ---- - -------- ----- --- --<br>----- ----- ------ -- ---- -- --- - ---- to - ----- -----<br>------ ---- ------ ---- - -------- ------- -- --- --------<br>-------- ----------- ---- ------ ---- ------ ---- --- ---<br>-------- --- -----,455203.40000003576,455201.8000000119,454678.344,454693.60000002384,454711.464,455210.1,,20,to
screen,html.Screen,2_3_1_0_1_21,2022-05-03T11:56:25.153Z,,,,,,,,,,,,,,,,,40,,,,,,,,,,,,,,428.2000000119442,,response,,,,9,H,,,,,,Space,keypress(Space),,,,speech,,,,------ -- ------- ---- ---- ---- - -------- ----- --- --<br>----- ----- ------ -- ---- -- --- - ---- -- a ----- -----<br>------ ---- ------ ---- - -------- ------- -- --- --------<br>-------- ----------- ---- ------ ---- ------ ---- --- ---<br>-------- --- -----,455639.6999999881,455638.3000000119,455194.358,455203.60000002384,455210.1,455642.768,,21,a
screen,html.Screen,2_3_1_0_1_22,2022-05-03T11:56:25.589Z,,,,,,,,,,,,,,,,,40,,,,,,,,,,,,,,431.0320000119391,,response,,,,9,H,,,,,,Space,keypress(Space),,,,speech,,,,------ -- ------- ---- ---- ---- - -------- ----- --- --<br>----- ----- ------ -- ---- -- --- - ---- -- - water -----<br>------ ---- ------ ---- - -------- ------- -- --- --------<br>-------- ----------- ---- ------ ---- ------ ---- --- ---<br>-------- --- -----,456074.90000003576,456073.8000000119,455626.891,455639.90000003576,455642.768,456092.197,,22,water
screen,html.Screen,2_3_1_0_1_23,2022-05-03T11:56:25.994Z,,,,,,,,,,,,,,,,,40,,,,,,,,,,,,,,386.80300000001444,,response,,,,9,H,,,,,,Space,keypress(Space),,,,speech,,,,"------ -- ------- ---- ---- ---- - -------- ----- --- --<br>----- ----- ------ -- ---- -- --- - ---- -- - ----- park,<br>------ ---- ------ ---- - -------- ------- -- --- --------<br>-------- ----------- ---- ------ ---- ------ ---- --- ---<br>-------- --- -----",456480.5,456479,456059.535,456075,456092.197,456491.383,,23,"park,"
screen,html.Screen,2_3_1_0_1_24,2022-05-03T11:56:26.490Z,,,,,,,,,,,,,,,,,40,,,,,,,,,,,,,,483.21700002386933,,response,,,,9,H,,,,,,Space,keypress(Space),,,,speech,,,,------ -- ------- ---- ---- ---- - -------- ----- --- --<br>----- ----- ------ -- ---- -- --- - ---- -- - ----- -----<br>saying ---- ------ ---- - -------- ------- -- --- --------<br>-------- ----------- ---- ------ ---- ------ ---- --- ---<br>-------- --- -----,456976,456974.60000002384,456475.485,456481.40000003576,456491.383,456991.464,,24,saying
screen,html.Screen,2_3_1_0_1_25,2022-05-03T11:56:26.914Z,,,,,,,,,,,,,,,,,40,,,,,,,,,,,,,,407.5360000000219,,response,,,,9,H,,,,,,Space,keypress(Space),,,,speech,,,,------ -- ------- ---- ---- ---- - -------- ----- --- --<br>----- ----- ------ -- ---- -- --- - ---- -- - ----- -----<br>------ they ------ ---- - -------- ------- -- --- --------<br>-------- ----------- ---- ------ ---- ------ ---- --- ---<br>-------- --- -----,457400.5,457399,456974.862,456976.3000000119,456991.464,457406.566,,25,they
screen,html.Screen,2_3_1_0_1_26,2022-05-03T11:56:27.327Z,,,,,,,,,,,,,,,,,40,,,,,,,,,,,,,,406.03400002385024,,response,,,,9,H,,,,,,Space,keypress(Space),,,,speech,,,,------ -- ------- ---- ---- ---- - -------- ----- --- --<br>----- ----- ------ -- ---- -- --- - ---- -- - ----- -----<br>------ ---- didn't ---- - -------- ------- -- --- --------<br>-------- ----------- ---- ------ ---- ------ ---- --- ---<br>-------- --- -----,457813.3000000119,457812.60000002384,457390.773,457401.40000003576,457406.566,457822.575,,26,didn't
screen,html.Screen,2_3_1_0_1_27,2022-05-03T11:56:27.750Z,,,,,,,,,,,,,,,,,40,,,,,,,,,,,,,,412.92499999998836,,response,,,,9,H,,,,,,Space,keypress(Space),,,,speech,,,,------ -- ------- ---- ---- ---- - -------- ----- --- --<br>----- ----- ------ -- ---- -- --- - ---- -- - ----- -----<br>------ ---- ------ have - -------- ------- -- --- --------<br>-------- ----------- ---- ------ ---- ------ ---- --- ---<br>-------- --- -----,458236.60000002384,458235.5,457806.566,457813.40000003576,457822.575,458238.771,,27,have
screen,html.Screen,2_3_1_0_1_28,2022-05-03T11:56:28.220Z,,,,,,,,,,,,,,,,,40,,,,,,,,,,,,,,466.32900002383394,,response,,,,9,H,,,,,,Space,keypress(Space),,,,speech,,,,------ -- ------- ---- ---- ---- - -------- ----- --- --<br>----- ----- ------ -- ---- -- --- - ---- -- - ----- -----<br>------ ---- ------ ---- a -------- ------- -- --- --------<br>-------- ----------- ---- ------ ---- ------ ---- --- ---<br>-------- --- -----,458706.1999999881,458705.10000002384,458222.75,458236.6999999881,458238.771,458721.312,,28,a
screen,html.Screen,2_3_1_0_1_29,2022-05-03T11:56:28.694Z,,,,,,,,,,,,,,,,,40,,,,,,,,,,,,,,457.4880000119447,,response,,,,9,H,,,,,,Space,keypress(Space),,,,speech,,,,------ -- ------- ---- ---- ---- - -------- ----- --- --<br>----- ----- ------ -- ---- -- --- - ---- -- - ----- -----<br>------ ---- ------ ---- - business ------- -- --- --------<br>-------- ----------- ---- ------ ---- ------ ---- --- ---<br>-------- --- -----,459180.3000000119,459178.8000000119,458705.361,458706.3000000119,458721.312,459187.015,,29,business
screen,html.Screen,2_3_1_0_1_30,2022-05-03T11:56:29.081Z,,,,,,,,,,,,,,,,,40,,,,,,,,,,,,,,379.1849999880651,,response,,,,9,H,,,,,,Space,keypress(Space),,,,speech,,,,------ -- ------- ---- ---- ---- - -------- ----- --- --<br>----- ----- ------ -- ---- -- --- - ---- -- - ----- -----<br>------ ---- ------ ---- - -------- license -- --- --------<br>-------- ----------- ---- ------ ---- ------ ---- --- ---<br>-------- --- -----,459567.60000002384,459566.1999999881,459171.255,459180.5,459187.015,459569.772,,30,license
screen,html.Screen,2_3_1_0_1_31,2022-05-03T11:56:29.502Z,,,,,,,,,,,,,,,,,40,,,,,,,,,,,,,,416.7280000000028,,response,,,,9,H,,,,,,Space,keypress(Space),,,,speech,,,,------ -- ------- ---- ---- ---- - -------- ----- --- --<br>----- ----- ------ -- ---- -- --- - ---- -- - ----- -----<br>------ ---- ------ ---- - -------- ------- or --- --------<br>-------- ----------- ---- ------ ---- ------ ---- --- ---<br>-------- --- -----,459987.90000003576,459986.5,459553.85,459567.8000000119,459569.772,460002.615,,31,or
screen,html.Screen,2_3_1_0_1_32,2022-05-03T11:56:29.887Z,,,,,,,,,,,,,,,,,40,,,,,,,,,,,,,,369.3850000000093,,response,,,,9,H,,,,,,Space,keypress(Space),,,,speech,,,,------ -- ------- ---- ---- ---- - -------- ----- --- --<br>----- ----- ------ -- ---- -- --- - ---- -- - ----- -----<br>------ ---- ------ ---- - -------- ------- -- the --------<br>-------- ----------- ---- ------ ---- ------ ---- --- ---<br>-------- --- -----,460373.5,460372,459986.564,459988.10000002384,460002.615,460385.381,,32,the
screen,html.Screen,2_3_1_0_1_33,2022-05-03T11:56:30.315Z,,,,,,,,,,,,,,,,,40,,,,,,,,,,,,,,414.51900003576884,,response,,,,9,H,,,,,,Space,keypress(Space),,,,speech,,,,------ -- ------- ---- ---- ---- - -------- ----- --- --<br>----- ----- ------ -- ---- -- --- - ---- -- - ----- -----<br>------ ---- ------ ---- - -------- ------- -- --- required<br>-------- ----------- ---- ------ ---- ------ ---- --- ---<br>-------- --- -----,460801.40000003576,460799.90000003576,460369.195,460373.60000002384,460385.381,460817.975,,33,required
screen,html.Screen,2_3_1_0_1_34,2022-05-03T11:56:30.728Z,,,,,,,,,,,,,,,,,40,,,,,,,,,,,,,,394.62500002386514,,response,,,,9,H,,,,,,Space,keypress(Space),,,,speech,,,,------ -- ------- ---- ---- ---- - -------- ----- --- --<br>----- ----- ------ -- ---- -- --- - ---- -- - ----- -----<br>------ ---- ------ ---- - -------- ------- -- --- --------<br>permits. ----------- ---- ------ ---- ------ ---- --- ---<br>-------- --- -----,461214.10000002384,461212.60000002384,460801.787,460801.5,460817.975,461217.153,,34,permits.
screen,html.Screen,2_3_1_0_1_35,2022-05-03T11:56:31.437Z,,,,,,,,,,,,,,,,,40,,,,,,,,,,,,,,704.6470000119298,,response,,,,9,H,,,,,,Space,keypress(Space),,,,speech,,,,------ -- ------- ---- ---- ---- - -------- ----- --- --<br>----- ----- ------ -- ---- -- --- - ---- -- - ----- -----<br>------ ---- ------ ---- - -------- ------- -- --- --------<br>-------- Morningstar ---- ------ ---- ------ ---- --- ---<br>-------- --- -----,461922.8000000119,461921.8000000119,461201.055,461214.1999999881,461217.153,461932.848,,35,Morningstar
screen,html.Screen,2_3_1_0_1_36,2022-05-03T11:56:31.952Z,,,,,,,,,,,,,,,,,40,,,,,,,,,,,,,,504.55200003576465,,response,,,,9,H,,,,,,Space,keypress(Space),,,,speech,,,,------ -- ------- ---- ---- ---- - -------- ----- --- --<br>----- ----- ------ -- ---- -- --- - ---- -- - ----- -----<br>------ ---- ------ ---- - -------- ------- -- --- --------<br>-------- ----------- says ------ ---- ------ ---- --- ---<br>-------- --- -----,462438.5,462437.40000003576,461917.289,461923,461932.848,462448.618,,36,says
screen,html.Screen,2_3_1_0_1_37,2022-05-03T11:56:32.447Z,,,,,,,,,,,,,,,,,40,,,,,,,,,,,,,,483.282000035746,,response,,,,9,H,,,,,,Space,keypress(Space),,,,speech,,,,------ -- ------- ---- ---- ---- - -------- ----- --- --<br>----- ----- ------ -- ---- -- --- - ---- -- - ----- -----<br>------ ---- ------ ---- - -------- ------- -- --- --------<br>-------- ----------- ---- police ---- ------ ---- --- ---<br>-------- --- -----,462933.3000000119,462931.90000003576,462432.76,462438.60000002384,462448.618,462947.888,,37,police
screen,html.Screen,2_3_1_0_1_38,2022-05-03T11:56:32.879Z,,,,,,,,,,,,,,,,,40,,,,,,,,,,,,,,415.41200001194375,,response,,,,9,H,,,,,,Space,keypress(Space),,,,speech,,,,------ -- ------- ---- ---- ---- - -------- ----- --- --<br>----- ----- ------ -- ---- -- --- - ---- -- - ----- -----<br>------ ---- ------ ---- - -------- ------- -- --- --------<br>-------- ----------- ---- ------ also ------ ---- --- ---<br>-------- --- -----,463364.90000003576,463363.3000000119,462931.798,462933.40000003576,462947.888,463380.499,,38,also
screen,html.Screen,2_3_1_0_1_39,2022-05-03T11:56:33.332Z,,,,,,,,,,,,,,,,,40,,,,,,,,,,,,,,436.5009999999893,,response,,,,9,H,,,,,,Space,keypress(Space),,,,speech,,,,------ -- ------- ---- ---- ---- - -------- ----- --- --<br>----- ----- ------ -- ---- -- --- - ---- -- - ----- -----<br>------ ---- ------ ---- - -------- ------- -- --- --------<br>-------- ----------- ---- ------ ---- didn't ---- --- ---<br>-------- --- -----,463818.5,463817,463364.3,463365.1999999881,463380.499,463829.594,,39,didn't
screen,html.Screen,2_3_1_0_1_40,2022-05-03T11:56:33.822Z,,,,,,,,,,,,,,,,,40,,,,,,,,,,,,,,476.80600003578,,response,,,,9,H,,,,,,Space,keypress(Space),,,,speech,,,,------ -- ------- ---- ---- ---- - -------- ----- --- --<br>----- ----- ------ -- ---- -- --- - ---- -- - ----- -----<br>------ ---- ------ ---- - -------- ------- -- --- --------<br>-------- ----------- ---- ------ ---- ------ know --- ---<br>-------- --- -----,464308,464306.40000003576,463813.772,463818.60000002384,463829.594,464312.141,,40,know
screen,html.Screen,2_3_1_0_1_41,2022-05-03T11:56:34.298Z,,,,,,,,,,,,,,,,,40,,,,,,,,,,,,,,471.15900001191767,,response,,,,9,H,,,,,,Space,keypress(Space),,,,speech,,,,------ -- ------- ---- ---- ---- - -------- ----- --- --<br>----- ----- ------ -- ---- -- --- - ---- -- - ----- -----<br>------ ---- ------ ---- - -------- ------- -- --- --------<br>-------- ----------- ---- ------ ---- ------ ---- how ---<br>-------- --- -----,464784.8000000119,464783.3000000119,464296.305,464308,464312.141,464794.72,,41,how
screen,html.Screen,2_3_1_0_1_42,2022-05-03T11:56:34.824Z,,,,,,,,,,,,,,,,,40,,,,,,,,,,,,,,514.2800000000279,,response,,,,9,H,,,,,,Space,keypress(Space),,,,speech,,,,------ -- ------- ---- ---- ---- - -------- ----- --- --<br>----- ----- ------ -- ---- -- --- - ---- -- - ----- -----<br>------ ---- ------ ---- - -------- ------- -- --- --------<br>-------- ----------- ---- ------ ---- ------ ---- --- the<br>-------- --- -----,465310.60000002384,465309,464778.951,464784.8000000119,464794.72,465327.454,,42,the
screen,html.Screen,2_3_1_0_1_43,2022-05-03T11:56:35.308Z,,,,,,,,,,,,,,,,,40,,,,,,,,,,,,,,465.74599998805206,,response,,,,9,H,,,,,,Space,keypress(Space),,,,speech,,,,------ -- ------- ---- ---- ---- - -------- ----- --- --<br>----- ----- ------ -- ---- -- --- - ---- -- - ----- -----<br>------ ---- ------ ---- - -------- ------- -- --- --------<br>-------- ----------- ---- ------ ---- ------ ---- --- ---<br>lemonade --- -----,465794.60000002384,465793.1999999881,465311.504,465311.40000003576,465327.454,465810.044,,43,lemonade
screen,html.Screen,2_3_1_0_1_44,2022-05-03T11:56:35.772Z,,,,,,,,,,,,,,,,,40,,,,,,,,,,,,,,447.15599998808466,,response,,,,9,H,,,,,,Space,keypress(Space),,,,speech,,,,------ -- ------- ---- ---- ---- - -------- ----- --- --<br>----- ----- ------ -- ---- -- --- - ---- -- - ----- -----<br>------ ---- ------ ---- - -------- ------- -- --- --------<br>-------- ----------- ---- ------ ---- ------ ---- --- ---<br>-------- was -----,466258.8000000119,466257.1999999881,465793.986,465794.8000000119,465810.044,466292.52,,44,was
screen,html.Screen,2_3_1_0_1_45,2022-05-03T11:56:36.603Z,,,,,,,,,,,,,,,,,40,,,,,,,,,,,,,,795.2800000119023,,response,,,,9,H,,,,,,Space,keypress(Space),,,,speech,,,,------ -- ------- ---- ---- ---- - -------- ----- --- --<br>----- ----- ------ -- ---- -- --- - ---- -- - ----- -----<br>------ ---- ------ ---- - -------- ------- -- --- --------<br>-------- ----------- ---- ------ ---- ------ ---- --- ---<br>-------- --- made.,467089.40000003576,467087.8000000119,466275.849,466258.8000000119,466292.52,467107.82,,45,made.
Item 9,flow.Loop,2_3_1_0_1,2022-05-03T11:56:36.603Z,,,,,,,,,,,,,,,,,,,,,,,,,,,,,,,22094.63600001193,,completion,,,,,,,,,,,,,,,,,,,,,467089.6999999881,467087.8000000119,444976.557,444978.6999999881,444993.164,467107.82,,,
Question 1,html.Screen,2_3_1_0_2,2022-05-03T11:56:42.557Z,,,,,,,,,,,,,,,,,,,,,,,,,,,,true,FALSE,,5932.679999999993,,response,,,,9,H,,,,,,FALSE,click #choice-2,,,,speech,,,,,473043.5,473040.5,467075.555,467089.6999999881,467107.82,473048.124,,,
Question 2,html.Screen,2_3_1_0_3,2022-05-03T11:56:46.087Z,,,,,,,,,,,,,,,,,,,,,,,,,,,,true,FALSE,,3523.67600001191,,response,,,,9,H,,,,,,FALSE,click #choice-2,,,,speech,,,,,476573.60000002384,476571.8000000119,473031.75,473043.6999999881,473048.124,476575.807,,,
