sender,sender_type,sender_id,timestamp,meta,,Blues,Classical,Country,Dance,Electronic,Folk,Gospel,Hip-Hop,Jazz,Latin,Musical/Film,New-age,Pop,Prolific_id,Provo_ID,R&B,Rap,Reggae,Religious,Rock,Soul,Swing,Traditional,age,artist_name,correct,correctResponse,distraction,duration,education,ended_on,familiarity,gender,headphone_check_performance,item,list,music_frequency,offensiveness,pleasantness,position_correct,preference,response,response_action,snippet_file,song_name,song_rating,sound,stimulus_1,stimulus_2,stimulus_3,text,time_commit,time_end,time_render,time_run,time_show,time_switch,url,word,word_ID
Prolific ID,html.Form,0,2022-05-09T15:33:24.125Z,"{""labjs_version"":""20.2.2"",""labjs_build"":{""flavor"":""production"",""commit"":""a25486e0c714a0ae2ce03ff94b7bb6896854dcfa""},""location"":""https://run.pavlovia.org/mvasilev/prolific3_music_f/"",""userAgent"":""Mozilla/5.0 (Windows NT 10.0; Win64; x64) AppleWebKit/537.36 (KHTML, like Gecko) Chrome/101.0.4951.54 Safari/537.36"",""platform"":""Win32"",""language"":""en-GB"",""locale"":""en-GB"",""timeZone"":""Europe/London"",""timezoneOffset"":-60,""screen_width"":2560,""screen_height"":1440,""scroll_width"":2560,""scroll_height"":1249,""window_innerWidth"":2560,""window_innerHeight"":1297,""devicePixelRatio"":1}",,,,,,,,,,,,,,,603b958bdb90428647ef4b42,,,,,,,,,,,,,,,6504.852000000001,,form submission,,,,,,,,,,,,,,,,,,,,,19933.70000000298,19933.5,13413.94,13416.79999999702,13428.648,19939.518,{},,
Introduction,html.Screen,1_0,2022-05-09T15:33:36.840Z,,,,,,,,,,,,,,,,,,,,,,,,,,,,,,,12707.28199999702,,response,,,,,,,,,,,continue,click button,,,,,,,,,32648.20000000298,32646.79999999702,19932.553,19933.89999999851,19939.518,32648.567,,,
Volume calibration,html.Screen,1_1,2022-05-09T15:33:41.104Z,,,,,,,,,,,,,,,,,,,,,,,,,,,,,,,4262.332999998511,,response,,,,,,,,,,,continue,click button,,,,,,,,,36912.70000000298,36910.89999999851,32641.608,32648.20000000298,32648.567,36915.044,,,
Task instructions,html.Screen,1_2,2022-05-09T15:33:45.547Z,,,,,,,,,,,,,,,,,,,,,,,,,,,,,,,4439.855999998508,,response,,,,,,,,,,,continue,click button,,,,,,,,,41355.39999999851,41354.89999999851,36908.077,36912.79999999702,36915.044,41362.157,,,
Sounds,html.Screen,1_3_0_0,2022-05-09T15:33:49.801Z,,,,,,,,,,,,,,,,,,,,,,,,,,,,,,,4252.557999999997,,timeout,,,,,,,,,2,,,,,,,,I,S,O,,45609,45607.77,41355.2,41355.60000000149,41362.157,45614.715,,,
Judgement,html.Screen,1_3_0_1,2022-05-09T15:33:50.423Z,,,,,,,,,,,,,,,,,,,,,,,,,,,,true,2,,616.2850000000035,,response,,,,,,,,,2,,2,click #choice-2,,,,,I,S,O,,46231.5,46231,45607.77,45609,45614.715,46233.153,,,
Trial,flow.Sequence,1_3_0,2022-05-09T15:33:50.423Z,,,,,,,,,,,,,,,,,,,,,,,,,,,,,,,4868.843000000001,,completion,,,,,,,,,2,,,,,,,,I,S,O,,46231.70000000298,46231,41355.2,41355.5,41362.157,46233.153,,,
Sounds,html.Screen,1_3_1_0,2022-05-09T15:33:54.671Z,,,,,,,,,,,,,,,,,,,,,,,,,,,,,,,4252.5509999999995,,timeout,,,,,,,,,1,,,,,,,,S,I,O,,50479.10000000149,50478.767,46226.191,46231.79999999702,46233.153,50485.704,,,
Judgement,html.Screen,1_3_1_1,2022-05-09T15:33:55.121Z,,,,,,,,,,,,,,,,,,,,,,,,,,,,true,1,,443.3960000014922,,response,,,,,,,,,1,,1,click #choice-1,,,,,S,I,O,,50929.79999999702,50929.10000000149,50478.767,50479.10000000149,50485.704,50952.643,,,
Trial,flow.Sequence,1_3_1,2022-05-09T15:33:55.122Z,,,,,,,,,,,,,,,,,,,,,,,,,,,,,,,4695.947000001492,,completion,,,,,,,,,1,,,,,,,,S,I,O,,50929.89999999851,50929.10000000149,46226.191,46231.70000000298,46233.153,50952.643,,,
Sounds,html.Screen,1_3_2_0,2022-05-09T15:33:59.389Z,,,,,,,,,,,,,,,,,,,,,,,,,,,,,,,4251.191000000006,,timeout,,,,,,,,,1,,,,,,,,S,O,I,,55197.10000000149,55196.877,50923.47,50929.89999999851,50952.643,55203.834,,,
Judgement,html.Screen,1_3_2_1,2022-05-09T15:33:59.763Z,,,,,,,,,,,,,,,,,,,,,,,,,,,,true,1,,367.36600000297767,,response,,,,,,,,,1,,1,click #choice-1,,,,,S,O,I,,55571.70000000298,55571.20000000298,55196.877,55197.10000000149,55203.834,55582.639,,,
Trial,flow.Sequence,1_3_2,2022-05-09T15:33:59.764Z,,,,,,,,,,,,,,,,,,,,,,,,,,,,,,,4618.557000002984,,completion,,,,,,,,,1,,,,,,,,S,O,I,,55571.79999999702,55571.20000000298,50923.47,50929.89999999851,50952.643,55582.639,,,
Sounds,html.Screen,1_3_3_0,2022-05-09T15:34:04.017Z,,,,,,,,,,,,,,,,,,,,,,,,,,,,,,,4248.983999999997,,timeout,,,,,,,,,3,,,,,,,,O,I,S,,59825,59824.685,55565.158,55571.89999999851,55582.639,59831.623,,,
Judgement,html.Screen,1_3_3_1,2022-05-09T15:34:04.342Z,,,,,,,,,,,,,,,,,,,,,,,,,,,,true,3,,317.6769999970202,,response,,,,,,,,,3,,3,click #choice-3,,,,,O,I,S,,60149.79999999702,60149.29999999702,59824.685,59825,59831.623,60151.263,,,
Trial,flow.Sequence,1_3_3,2022-05-09T15:34:04.342Z,,,,,,,,,,,,,,,,,,,,,,,,,,,,,,,4566.660999997017,,completion,,,,,,,,,3,,,,,,,,O,I,S,,60149.89999999851,60149.29999999702,55565.158,55571.89999999851,55582.639,60151.263,,,
Sounds,html.Screen,1_3_4_0,2022-05-09T15:34:08.589Z,,,,,,,,,,,,,,,,,,,,,,,,,,,,,,,4252.57,,timeout,,,,,,,,,3,,,,,,,,I,O,S,,64397.20000000298,64396.873,60144.31,60150,60151.263,64403.833,,,
Judgement,html.Screen,1_3_4_1,2022-05-09T15:34:09.016Z,,,,,,,,,,,,,,,,,,,,,,,,,,,,true,3,,419.6670000000013,,response,,,,,,,,,3,,3,click #choice-3,,,,,I,O,S,,64824,64823.5,64396.873,64397.20000000298,64403.833,64827.692,,,
Trial,flow.Sequence,1_3_4,2022-05-09T15:34:09.016Z,,,,,,,,,,,,,,,,,,,,,,,,,,,,,,,4672.237000000001,,completion,,,,,,,,,3,,,,,,,,I,O,S,,64824.10000000149,64823.5,60144.31,60149.89999999851,60151.263,64827.692,,,
Sounds,html.Screen,1_3_5_0,2022-05-09T15:34:13.265Z,,,,,,,,,,,,,,,,,,,,,,,,,,,,,,,4252.564999999995,,timeout,,,,,,,,,2,,,,,,,,O,S,I,,69073.60000000149,69073.31,64820.735,64824.10000000149,64827.692,69080.257,,,
Judgement,html.Screen,1_3_5_1,2022-05-09T15:34:13.592Z,,,,,,,,,,,,,,,,,,,,,,,,,,,,true,2,,319.1429999985121,,response,,,,,,,,,2,,2,click #choice-2,,,,,O,S,I,,69399.89999999851,69399.39999999851,69073.31,69073.79999999702,69080.257,69413.641,,,
Trial,flow.Sequence,1_3_5,2022-05-09T15:34:13.592Z,,,,,,,,,,,,,,,,,,,,,,,,,,,,,,,4571.707999998507,,completion,,,,,,,,,2,,,,,,,,O,S,I,,69400,69399.39999999851,64820.735,64824.10000000149,64827.692,69413.641,,,
Task,flow.Loop,1_3,2022-05-09T15:34:13.594Z,,,,,,,,,,,,,,,,,,,,,,,,,,,,,,,28037.24299999851,,completion,,,1,,,,,,,,,,,,,,,,,,69402.5,69399.39999999851,41355.2,41355.5,41362.157,69413.641,,,
Trap,html.Screen,1_4,2022-05-09T15:34:13.595Z,,,,,,,,,,,,,,,,,,,,,,,,,,,,,,,NaN,,skipped,,,,,,,,,,,,,,,,,,,,,69403,69399.39999999851,,69403,,69413.641,,,
Thanks,html.Screen,1_5,2022-05-09T15:34:16.948Z,,,,,,,,,,,,,,,,,,,,,,,,,,,,,,,3341.8589999999967,,response,,,,,,,,,,,continue,click button,,,,,,,,,72756,72755.5,69392.95,69403.10000000149,69413.641,110480.27,,,
Headphone screening,flow.Sequence,1,2022-05-09T15:34:16.948Z,,,,,,,,,,,,,,,,,,,,,,,,,,,,,,,52815.982,,completion,,,,,,,,,,,,,,,,,,,,,72756.10000000149,72755.5,19932.553,19933.79999999702,19939.518,110480.27,,,
Instructions,html.Page,2_0,2022-05-09T15:35:15.811Z,,,,,,,,,,,,,,,,,,,,,,,,,,,,,,,21138.830000001486,,form submission,,,,,,,,,,,,,,,,,,,,,131619.1000000015,131619.1000000015,110473.282,110477.70000000298,110480.27,131624.923,,,
Holding screen,html.Screen,2_1_0_0,2022-05-09T15:35:25.809Z,,,,,,,,,,,,,,,,,,,,,,,,,,,,,,,9999.09599999999,,timeout,,,,,,,,,,,,,,,,,,,,,141617.29999999702,141617.057,131617.97,131619.29999999702,131624.923,141624.019,,,
screen,html.Screen,2_1_0_1_0,2022-05-09T15:35:27.185Z,,,,,,,,,,,,,,,,,53,,,,,,,,,,,,,,1367.7809999970195,,response,,,,99,,,,,,,Space,keypress(Space),,,,,,,,When -- ----- -- ------ - ------- --- ----------<br>------------- ------ ------ ---- ---- ------- ----- -- ----<br>-------- ------- -- ---------- --- - --- ----- ----- ----<br>---- --- --- ----- --- ---- ---- ------- ----- ---- -------<br>--- --- -- ----- -- --- ---- -- --- ---- -- ------ ------<br>--- ----- -- ----,142993,142991.79999999702,141617.057,141617.29999999702,141624.019,142999.864,,0,When
screen,html.Screen,2_1_0_1_1,2022-05-09T15:35:27.875Z,,,,,,,,,,,,,,,,,53,,,,,,,,,,,,,,682.8360000029788,,response,,,,99,,,,,,,Space,keypress(Space),,,,,,,,---- it ----- -- ------ - ------- --- ----------<br>------------- ------ ------ ---- ---- ------- ----- -- ----<br>-------- ------- -- ---------- --- - --- ----- ----- ----<br>---- --- --- ----- --- ---- ---- ------- ----- ---- -------<br>--- --- -- ----- -- --- ---- -- --- ---- -- ------ ------<br>--- ----- -- ----,143683,143682.70000000298,142992.772,142993,142999.864,143687.785,,1,it
screen,html.Screen,2_1_0_1_2,2022-05-09T15:35:28.422Z,,,,,,,,,,,,,,,,,53,,,,,,,,,,,,,,542.0149999970163,,response,,,,99,,,,,,,Space,keypress(Space),,,,,,,,---- -- comes -- ------ - ------- --- ----------<br>------------- ------ ------ ---- ---- ------- ----- -- ----<br>-------- ------- -- ---------- --- - --- ----- ----- ----<br>---- --- --- ----- --- ---- ---- ------- ----- ---- -------<br>--- --- -- ----- -- --- ---- -- --- ---- -- ------ ------<br>--- ----- -- ----,144230.1000000015,144229.79999999702,143680.743,143683.1000000015,143687.785,144236.754,,2,comes
screen,html.Screen,2_1_0_1_3,2022-05-09T15:35:28.781Z,,,,,,,,,,,,,,,,,53,,,,,,,,,,,,,,351.94600000299397,,response,,,,99,,,,,,,Space,keypress(Space),,,,,,,,---- -- ----- to ------ - ------- --- ----------<br>------------- ------ ------ ---- ---- ------- ----- -- ----<br>-------- ------- -- ---------- --- - --- ----- ----- ----<br>---- --- --- ----- --- ---- ---- ------- ----- ---- -------<br>--- --- -- ----- -- --- ---- -- --- ---- -- ------ ------<br>--- ----- -- ----,144589.1000000015,144588.70000000298,144229.703,144230.20000000298,144236.754,144591.081,,3,to
screen,html.Screen,2_1_0_1_4,2022-05-09T15:35:29.203Z,,,,,,,,,,,,,,,,,53,,,,,,,,,,,,,,419.7189999970142,,response,,,,99,,,,,,,Space,keypress(Space),,,,,,,,---- -- ----- -- having - ------- --- ----------<br>------------- ------ ------ ---- ---- ------- ----- -- ----<br>-------- ------- -- ---------- --- - --- ----- ----- ----<br>---- --- --- ----- --- ---- ---- ------- ----- ---- -------<br>--- --- -- ----- -- --- ---- -- --- ---- -- ------ ------<br>--- ----- -- ----,145011.1000000015,145010.79999999702,144584.098,144589.1000000015,144591.081,145014.957,,4,having
screen,html.Screen,2_1_0_1_5,2022-05-09T15:35:29.683Z,,,,,,,,,,,,,,,,,53,,,,,,,,,,,,,,475.8429999970249,,response,,,,99,,,,,,,Space,keypress(Space),,,,,,,,---- -- ----- -- ------ a ------- --- ----------<br>------------- ------ ------ ---- ---- ------- ----- -- ----<br>-------- ------- -- ---------- --- - --- ----- ----- ----<br>---- --- --- ----- --- ---- ---- ------- ----- ---- -------<br>--- --- -- ----- -- --- ---- -- --- ---- -- ------ ------<br>--- ----- -- ----,145491.1000000015,145490.79999999702,145007.967,145011.20000000298,145014.957,145494.414,,5,a
screen,html.Screen,2_1_0_1_6,2022-05-09T15:35:30.310Z,,,,,,,,,,,,,,,,,53,,,,,,,,,,,,,,623.38599999703,,response,,,,99,,,,,,,Space,keypress(Space),,,,,,,,---- -- ----- -- ------ - lasting --- ----------<br>------------- ------ ------ ---- ---- ------- ----- -- ----<br>-------- ------- -- ---------- --- - --- ----- ----- ----<br>---- --- --- ----- --- ---- ---- ------- ----- ---- -------<br>--- --- -- ----- -- --- ---- -- --- ---- -- ------ ------<br>--- ----- -- ----,146118,146117.79999999702,145487.411,145491.20000000298,145494.414,146119.798,,6,lasting
screen,html.Screen,2_1_0_1_7,2022-05-09T15:35:30.584Z,,,,,,,,,,,,,,,,,53,,,,,,,,,,,,,,272.1019999985001,,response,,,,99,,,,,,,Space,keypress(Space),,,,,,,,---- -- ----- -- ------ - ------- and ----------<br>------------- ------ ------ ---- ---- ------- ----- -- ----<br>-------- ------- -- ---------- --- - --- ----- ----- ----<br>---- --- --- ----- --- ---- ---- ------- ----- ---- -------<br>--- --- -- ----- -- --- ---- -- --- ---- -- ------ ------<br>--- ----- -- ----,146392.20000000298,146391.8999999985,146112.777,146118.1000000015,146119.798,146397.737,,7,and
screen,html.Screen,2_1_0_1_8,2022-05-09T15:35:31.103Z,,,,,,,,,,,,,,,,,53,,,,,,,,,,,,,,513.062999997026,,response,,,,99,,,,,,,Space,keypress(Space),,,,,,,,---- -- ----- -- ------ - ------- --- fulfilling<br>------------- ------ ------ ---- ---- ------- ----- -- ----<br>-------- ------- -- ---------- --- - --- ----- ----- ----<br>---- --- --- ----- --- ---- ---- ------- ----- ---- -------<br>--- --- -- ----- -- --- ---- -- --- ---- -- ------ ------<br>--- ----- -- ----,146911.20000000298,146910.79999999702,146390.757,146392.29999999702,146397.737,146926.114,,8,fulfilling
screen,html.Screen,2_1_0_1_9,2022-05-09T15:35:31.838Z,,,,,,,,,,,,,,,,,53,,,,,,,,,,,,,,719.6859999970184,,response,,,,99,,,,,,,Space,keypress(Space),,,,,,,,"---- -- ----- -- ------ - ------- --- ----------<br>relationship, ------ ------ ---- ---- ------- ----- -- ----<br>-------- ------- -- ---------- --- - --- ----- ----- ----<br>---- --- --- ----- --- ---- ---- ------- ----- ---- -------<br>--- --- -- ----- -- --- ---- -- --- ---- -- ------ ------<br>--- ----- -- ----",147646.20000000298,147645.79999999702,146904.928,146911.29999999702,146926.114,147648.489,,9,"relationship,"
screen,html.Screen,2_1_0_1_10,2022-05-09T15:35:32.226Z,,,,,,,,,,,,,,,,,53,,,,,,,,,,,,,,385.31099999701837,,response,,,,99,,,,,,,Space,keypress(Space),,,,,,,,---- -- ----- -- ------ - ------- --- ----------<br>------------- common ------ ---- ---- ------- ----- -- ----<br>-------- ------- -- ---------- --- - --- ----- ----- ----<br>---- --- --- ----- --- ---- ---- ------- ----- ---- -------<br>--- --- -- ----- -- --- ---- -- --- ---- -- ------ ------<br>--- ----- -- ----,148034.20000000298,148033.79999999702,147641.464,147646.20000000298,147648.489,148037.622,,10,common
screen,html.Screen,2_1_0_1_11,2022-05-09T15:35:32.700Z,,,,,,,,,,,,,,,,,53,,,,,,,,,,,,,,470.27799999850686,,response,,,,99,,,,,,,Space,keypress(Space),,,,,,,,---- -- ----- -- ------ - ------- --- ----------<br>------------- ------ wisdom ---- ---- ------- ----- -- ----<br>-------- ------- -- ---------- --- - --- ----- ----- ----<br>---- --- --- ----- --- ---- ---- ------- ----- ---- -------<br>--- --- -- ----- -- --- ---- -- --- ---- -- ------ ------<br>--- ----- -- ----,148508.20000000298,148507.8999999985,148030.62,148034.29999999702,148037.622,148510.13,,11,wisdom
screen,html.Screen,2_1_0_1_12,2022-05-09T15:35:33.122Z,,,,,,,,,,,,,,,,,53,,,,,,,,,,,,,,419.6699999970151,,response,,,,99,,,,,,,Space,keypress(Space),,,,,,,,---- -- ----- -- ------ - ------- --- ----------<br>------------- ------ ------ says ---- ------- ----- -- ----<br>-------- ------- -- ---------- --- - --- ----- ----- ----<br>---- --- --- ----- --- ---- ---- ------- ----- ---- -------<br>--- --- -- ----- -- --- ---- -- --- ---- -- ------ ------<br>--- ----- -- ----,148930.20000000298,148929.79999999702,148503.126,148508.20000000298,148510.13,148933.985,,12,says
screen,html.Screen,2_1_0_1_13,2022-05-09T15:35:33.447Z,,,,,,,,,,,,,,,,,53,,,,,,,,,,,,,,320.81499999703374,,response,,,,99,,,,,,,Space,keypress(Space),,,,,,,,---- -- ----- -- ------ - ------- --- ----------<br>------------- ------ ------ ---- that ------- ----- -- ----<br>-------- ------- -- ---------- --- - --- ----- ----- ----<br>---- --- --- ----- --- ---- ---- ------- ----- ---- -------<br>--- --- -- ----- -- --- ---- -- --- ---- -- ------ ------<br>--- ----- -- ----,149255.20000000298,149254.79999999702,148926.992,148930.20000000298,148933.985,149260.572,,13,that
screen,html.Screen,2_1_0_1_14,2022-05-09T15:35:33.703Z,,,,,,,,,,,,,,,,,53,,,,,,,,,,,,,,250.32799999852432,,response,,,,99,,,,,,,Space,keypress(Space),,,,,,,,---- -- ----- -- ------ - ------- --- ----------<br>------------- ------ ------ ---- ---- feeling ----- -- ----<br>-------- ------- -- ---------- --- - --- ----- ----- ----<br>---- --- --- ----- --- ---- ---- ------- ----- ---- -------<br>--- --- -- ----- -- --- ---- -- --- ---- -- ------ ------<br>--- ----- -- ----,149511.1000000015,149510.8999999985,149253.58,149255.29999999702,149260.572,149517.674,,14,feeling
screen,html.Screen,2_1_0_1_15,2022-05-09T15:35:34.068Z,,,,,,,,,,,,,,,,,53,,,,,,,,,,,,,,358.2259999985108,,response,,,,99,,,,,,,Space,keypress(Space),,,,,,,,---- -- ----- -- ------ - ------- --- ----------<br>------------- ------ ------ ---- ---- ------- close -- ----<br>-------- ------- -- ---------- --- - --- ----- ----- ----<br>---- --- --- ----- --- ---- ---- ------- ----- ---- -------<br>--- --- -- ----- -- --- ---- -- --- ---- -- ------ ------<br>--- ----- -- ----,149876.1000000015,149875.8999999985,149510.693,149511.20000000298,149517.674,149878.998,,15,close
screen,html.Screen,2_1_0_1_16,2022-05-09T15:35:34.439Z,,,,,,,,,,,,,,,,,53,,,,,,,,,,,,,,367.80199999702745,,response,,,,99,,,,,,,Space,keypress(Space),,,,,,,,---- -- ----- -- ------ - ------- --- ----------<br>------------- ------ ------ ---- ---- ------- ----- to ----<br>-------- ------- -- ---------- --- - --- ----- ----- ----<br>---- --- --- ----- --- ---- ---- ------- ----- ---- -------<br>--- --- -- ----- -- --- ---- -- --- ---- -- ------ ------<br>--- ----- -- ----,150247.20000000298,150246.79999999702,149872.01,149876.20000000298,149878.998,150254.236,,16,to
screen,html.Screen,2_1_0_1_17,2022-05-09T15:35:34.804Z,,,,,,,,,,,,,,,,,53,,,,,,,,,,,,,,357.56399999701534,,response,,,,99,,,,,,,Space,keypress(Space),,,,,,,,---- -- ----- -- ------ - ------- --- ----------<br>------------- ------ ------ ---- ---- ------- ----- -- your<br>-------- ------- -- ---------- --- - --- ----- ----- ----<br>---- --- --- ----- --- ---- ---- ------- ----- ---- -------<br>--- --- -- ----- -- --- ---- -- --- ---- -- ------ ------<br>--- ----- -- ----,150612.20000000298,150611.79999999702,150247.242,150247.20000000298,150254.236,150615.555,,17,your
screen,html.Screen,2_1_0_1_18,2022-05-09T15:35:35.032Z,,,,,,,,,,,,,,,,,53,,,,,,,,,,,,,,224.34499999851687,,response,,,,99,,,,,,,Space,keypress(Space),,,,,,,,---- -- ----- -- ------ - ------- --- ----------<br>------------- ------ ------ ---- ---- ------- ----- -- ----<br>romantic ------- -- ---------- --- - --- ----- ----- ----<br>---- --- --- ----- --- ---- ---- ------- ----- ---- -------<br>--- --- -- ----- -- --- ---- -- --- ---- -- ------ ------<br>--- ----- -- ----,150840.20000000298,150839.8999999985,150608.572,150612.29999999702,150615.555,150844.887,,18,romantic
screen,html.Screen,2_1_0_1_19,2022-05-09T15:35:35.449Z,,,,,,,,,,,,,,,,,53,,,,,,,,,,,,,,412.012999998522,,response,,,,99,,,,,,,Space,keypress(Space),,,,,,,,---- -- ----- -- ------ - ------- --- ----------<br>------------- ------ ------ ---- ---- ------- ----- -- ----<br>-------- partner -- ---------- --- - --- ----- ----- ----<br>---- --- --- ----- --- ---- ---- ------- ----- ---- -------<br>--- --- -- ----- -- --- ---- -- --- ---- -- ------ ------<br>--- ----- -- ----,151257.20000000298,151256.8999999985,150837.885,150840.29999999702,150844.887,151261.782,,19,partner
screen,html.Screen,2_1_0_1_20,2022-05-09T15:35:35.905Z,,,,,,,,,,,,,,,,,53,,,,,,,,,,,,,,451.11799999850336,,response,,,,99,,,,,,,Space,keypress(Space),,,,,,,,---- -- ----- -- ------ - ------- --- ----------<br>------------- ------ ------ ---- ---- ------- ----- -- ----<br>-------- ------- is ---------- --- - --- ----- ----- ----<br>---- --- --- ----- --- ---- ---- ------- ----- ---- -------<br>--- --- -- ----- -- --- ---- -- --- ---- -- ------ ------<br>--- ----- -- ----,151713.20000000298,151712.8999999985,151254.786,151257.29999999702,151261.782,151720.4,,20,is
screen,html.Screen,2_1_0_1_21,2022-05-09T15:35:36.806Z,,,,,,,,,,,,,,,,,53,,,,,,,,,,,,,,893.4999999985157,,response,,,,99,,,,,,,Space,keypress(Space),,,,,,,,---- -- ----- -- ------ - ------- --- ----------<br>------------- ------ ------ ---- ---- ------- ----- -- ----<br>-------- ------- -- paramount. --- - --- ----- ----- ----<br>---- --- --- ----- --- ---- ---- ------- ----- ---- -------<br>--- --- -- ----- -- --- ---- -- --- ---- -- ------ ------<br>--- ----- -- ----,152614.20000000298,152613.8999999985,151713.391,151713.20000000298,151720.4,152616.761,,21,paramount.
screen,html.Screen,2_1_0_1_22,2022-05-09T15:35:37.063Z,,,,,,,,,,,,,,,,,53,,,,,,,,,,,,,,254.03899999702116,,response,,,,99,,,,,,,Space,keypress(Space),,,,,,,,---- -- ----- -- ------ - ------- --- ----------<br>------------- ------ ------ ---- ---- ------- ----- -- ----<br>-------- ------- -- ---------- But - --- ----- ----- ----<br>---- --- --- ----- --- ---- ---- ------- ----- ---- -------<br>--- --- -- ----- -- --- ---- -- --- ---- -- ------ ------<br>--- ----- -- ----,152871.20000000298,152870.79999999702,152609.723,152614.20000000298,152616.761,152873.867,,22,But
screen,html.Screen,2_1_0_1_23,2022-05-09T15:35:37.388Z,,,,,,,,,,,,,,,,,53,,,,,,,,,,,,,,322.13300000000163,,response,,,,99,,,,,,,Space,keypress(Space),,,,,,,,---- -- ----- -- ------ - ------- --- ----------<br>------------- ------ ------ ---- ---- ------- ----- -- ----<br>-------- ------- -- ---------- --- a --- ----- ----- ----<br>---- --- --- ----- --- ---- ---- ------- ----- ---- -------<br>--- --- -- ----- -- --- ---- -- --- ---- -- ------ ------<br>--- ----- -- ----,153196.29999999702,153196,152866.873,152871.29999999702,152873.867,153200.449,,23,a
screen,html.Screen,2_1_0_1_24,2022-05-09T15:35:37.627Z,,,,,,,,,,,,,,,,,53,,,,,,,,,,,,,,234.45099999851664,,response,,,,99,,,,,,,Space,keypress(Space),,,,,,,,---- -- ----- -- ------ - ------- --- ----------<br>------------- ------ ------ ---- ---- ------- ----- -- ----<br>-------- ------- -- ---------- --- - new ----- ----- ----<br>---- --- --- ----- --- ---- ---- ------- ----- ---- -------<br>--- --- -- ----- -- --- ---- -- --- ---- -- ------ ------<br>--- ----- -- ----,153435.29999999702,153434.8999999985,153193.464,153196.29999999702,153200.449,153436.718,,24,new
screen,html.Screen,2_1_0_1_25,2022-05-09T15:35:37.969Z,,,,,,,,,,,,,,,,,53,,,,,,,,,,,,,,340.1819999985164,,response,,,,99,,,,,,,Space,keypress(Space),,,,,,,,---- -- ----- -- ------ - ------- --- ----------<br>------------- ------ ------ ---- ---- ------- ----- -- ----<br>-------- ------- -- ---------- --- - --- study ----- ----<br>---- --- --- ----- --- ---- ---- ------- ----- ---- -------<br>--- --- -- ----- -- --- ---- -- --- ---- -- ------ ------<br>--- ----- -- ----,153777.29999999702,153776.8999999985,153429.723,153435.29999999702,153436.718,153784.14,,25,study
screen,html.Screen,2_1_0_1_26,2022-05-09T15:35:38.192Z,,,,,,,,,,,,,,,,,53,,,,,,,,,,,,,,215.7599999984959,,response,,,,99,,,,,,,Space,keypress(Space),,,,,,,,---- -- ----- -- ------ - ------- --- ----------<br>------------- ------ ------ ---- ---- ------- ----- -- ----<br>-------- ------- -- ---------- --- - --- ----- finds ----<br>---- --- --- ----- --- ---- ---- ------- ----- ---- -------<br>--- --- -- ----- -- --- ---- -- --- ---- -- ------ ------<br>--- ----- -- ----,154000.29999999702,153999.8999999985,153777.149,153777.29999999702,153784.14,154006.5,,26,finds
screen,html.Screen,2_1_0_1_27,2022-05-09T15:35:38.853Z,,,,,,,,,,,,,,,,,53,,,,,,,,,,,,,,654.3999999985099,,response,,,,99,,,,,,,Space,keypress(Space),,,,,,,,---- -- ----- -- ------ - ------- --- ----------<br>------------- ------ ------ ---- ---- ------- ----- -- ----<br>-------- ------- -- ---------- --- - --- ----- ----- that<br>---- --- --- ----- --- ---- ---- ------- ----- ---- -------<br>--- --- -- ----- -- --- ---- -- --- ---- -- ------ ------<br>--- ----- -- ----,154661.29999999702,154660.8999999985,153999.516,154000.3999999985,154006.5,154666.612,,27,that
screen,html.Screen,2_1_0_1_28,2022-05-09T15:35:39.133Z,,,,,,,,,,,,,,,,,53,,,,,,,,,,,,,,274.3880000000063,,response,,,,99,,,,,,,Space,keypress(Space),,,,,,,,---- -- ----- -- ------ - ------- --- ----------<br>------------- ------ ------ ---- ---- ------- ----- -- ----<br>-------- ------- -- ---------- --- - --- ----- ----- ----<br>it's --- --- ----- --- ---- ---- ------- ----- ---- -------<br>--- --- -- ----- -- --- ---- -- --- ---- -- ------ ------<br>--- ----- -- ----,154941.29999999702,154941,154659.6,154661.29999999702,154666.612,154944.555,,28,it's
screen,html.Screen,2_1_0_1_29,2022-05-09T15:35:39.327Z,,,,,,,,,,,,,,,,,53,,,,,,,,,,,,,,190.44500000000698,,response,,,,99,,,,,,,Space,keypress(Space),,,,,,,,---- -- ----- -- ------ - ------- --- ----------<br>------------- ------ ------ ---- ---- ------- ----- -- ----<br>-------- ------- -- ---------- --- - --- ----- ----- ----<br>---- not --- ----- --- ---- ---- ------- ----- ---- -------<br>--- --- -- ----- -- --- ---- -- --- ---- -- ------ ------<br>--- ----- -- ----,155135.29999999702,155135,154937.572,154941.29999999702,154944.555,155139.128,,29,not
screen,html.Screen,2_1_0_1_30,2022-05-09T15:35:39.509Z,,,,,,,,,,,,,,,,,53,,,,,,,,,,,,,,177.7719999985129,,response,,,,99,,,,,,,Space,keypress(Space),,,,,,,,---- -- ----- -- ------ - ------- --- ----------<br>------------- ------ ------ ---- ---- ------- ----- -- ----<br>-------- ------- -- ---------- --- - --- ----- ----- ----<br>---- --- how ----- --- ---- ---- ------- ----- ---- -------<br>--- --- -- ----- -- --- ---- -- --- ---- -- ------ ------<br>--- ----- -- ----,155317.20000000298,155316.8999999985,155132.153,155135.29999999702,155139.128,155319.813,,30,how
screen,html.Screen,2_1_0_1_31,2022-05-09T15:35:39.709Z,,,,,,,,,,,,,,,,,53,,,,,,,,,,,,,,197.08699999851524,,response,,,,99,,,,,,,Space,keypress(Space),,,,,,,,---- -- ----- -- ------ - ------- --- ----------<br>------------- ------ ------ ---- ---- ------- ----- -- ----<br>-------- ------- -- ---------- --- - --- ----- ----- ----<br>---- --- --- close --- ---- ---- ------- ----- ---- -------<br>--- --- -- ----- -- --- ---- -- --- ---- -- ------ ------<br>--- ----- -- ----,155517.20000000298,155516.8999999985,155312.821,155317.29999999702,155319.813,155521.301,,31,close
screen,html.Screen,2_1_0_1_32,2022-05-09T15:35:40.313Z,,,,,,,,,,,,,,,,,53,,,,,,,,,,,,,,599.7990000014834,,response,,,,99,,,,,,,Space,keypress(Space),,,,,,,,---- -- ----- -- ------ - ------- --- ----------<br>------------- ------ ------ ---- ---- ------- ----- -- ----<br>-------- ------- -- ---------- --- - --- ----- ----- ----<br>---- --- --- ----- you ---- ---- ------- ----- ---- -------<br>--- --- -- ----- -- --- ---- -- --- ---- -- ------ ------<br>--- ----- -- ----,156121.5,156121.1000000015,155514.319,155517.29999999702,155521.301,156125.823,,32,you
screen,html.Screen,2_1_0_1_33,2022-05-09T15:35:40.867Z,,,,,,,,,,,,,,,,,53,,,,,,,,,,,,,,549.3770000029763,,response,,,,99,,,,,,,Space,keypress(Space),,,,,,,,---- -- ----- -- ------ - ------- --- ----------<br>------------- ------ ------ ---- ---- ------- ----- -- ----<br>-------- ------- -- ---------- --- - --- ----- ----- ----<br>---- --- --- ----- --- feel ---- ------- ----- ---- -------<br>--- --- -- ----- -- --- ---- -- --- ---- -- ------ ------<br>--- ----- -- ----,156675.5,156675.20000000298,156118.831,156121.5,156125.823,156681.714,,33,feel
screen,html.Screen,2_1_0_1_34,2022-05-09T15:35:41.095Z,,,,,,,,,,,,,,,,,53,,,,,,,,,,,,,,221.58599999701255,,response,,,,99,,,,,,,Space,keypress(Space),,,,,,,,---- -- ----- -- ------ - ------- --- ----------<br>------------- ------ ------ ---- ---- ------- ----- -- ----<br>-------- ------- -- ---------- --- - --- ----- ----- ----<br>---- --- --- ----- --- ---- that ------- ----- ---- -------<br>--- --- -- ----- -- --- ---- -- --- ---- -- ------ ------<br>--- ----- -- ----,156903.6000000015,156903.29999999702,156674.712,156675.5,156681.714,156913.103,,34,that
screen,html.Screen,2_1_0_1_35,2022-05-09T15:35:41.636Z,,,,,,,,,,,,,,,,,53,,,,,,,,,,,,,,530.8969999999972,,response,,,,99,,,,,,,Space,keypress(Space),,,,,,,,---- -- ----- -- ------ - ------- --- ----------<br>------------- ------ ------ ---- ---- ------- ----- -- ----<br>-------- ------- -- ---------- --- - --- ----- ----- ----<br>---- --- --- ----- --- ---- ---- matters ----- ---- -------<br>--- --- -- ----- -- --- ---- -- --- ---- -- ------ ------<br>--- ----- -- ----,157444.20000000298,157444,156897.093,156903.6000000015,156913.103,157446.07,,35,matters
screen,html.Screen,2_1_0_1_36,2022-05-09T15:35:42.030Z,,,,,,,,,,,,,,,,,53,,,,,,,,,,,,,,391.929999999993,,response,,,,99,,,,,,,Space,keypress(Space),,,,,,,,"---- -- ----- -- ------ - ------- --- ----------<br>------------- ------ ------ ---- ---- ------- ----- -- ----<br>-------- ------- -- ---------- --- - --- ----- ----- ----<br>---- --- --- ----- --- ---- ---- ------- most, ---- -------<br>--- --- -- ----- -- --- ---- -- --- ---- -- ------ ------<br>--- ----- -- ----",157838.29999999702,157838,157439.066,157444.29999999702,157446.07,157842.138,,36,"most,"
screen,html.Screen,2_1_0_1_37,2022-05-09T15:35:42.954Z,,,,,,,,,,,,,,,,,53,,,,,,,,,,,,,,919.8619999999937,,response,,,,99,,,,,,,Space,keypress(Space),,,,,,,,---- -- ----- -- ------ - ------- --- ----------<br>------------- ------ ------ ---- ---- ------- ----- -- ----<br>-------- ------- -- ---------- --- - --- ----- ----- ----<br>---- --- --- ----- --- ---- ---- ------- ----- it's -------<br>--- --- -- ----- -- --- ---- -- --- ---- -- ------ ------<br>--- ----- -- ----,158762.3999999985,158762,157835.147,157838.3999999985,157842.138,158766.309,,37,it's
screen,html.Screen,2_1_0_1_38,2022-05-09T15:35:43.153Z,,,,,,,,,,,,,,,,,53,,,,,,,,,,,,,,194.69099999999162,,response,,,,99,,,,,,,Space,keypress(Space),,,,,,,,---- -- ----- -- ------ - ------- --- ----------<br>------------- ------ ------ ---- ---- ------- ----- -- ----<br>-------- ------- -- ---------- --- - --- ----- ----- ----<br>---- --- --- ----- --- ---- ---- ------- ----- ---- whether<br>--- --- -- ----- -- --- ---- -- --- ---- -- ------ ------<br>--- ----- -- ----,158961.3999999985,158961,158759.268,158762.3999999985,158766.309,158967.817,,38,whether
screen,html.Screen,2_1_0_1_39,2022-05-09T15:35:43.718Z,,,,,,,,,,,,,,,,,53,,,,,,,,,,,,,,558.2830000014801,,response,,,,99,,,,,,,Space,keypress(Space),,,,,,,,---- -- ----- -- ------ - ------- --- ----------<br>------------- ------ ------ ---- ---- ------- ----- -- ----<br>-------- ------- -- ---------- --- - --- ----- ----- ----<br>---- --- --- ----- --- ---- ---- ------- ----- ---- -------<br>you --- -- ----- -- --- ---- -- --- ---- -- ------ ------<br>--- ----- -- ----,159526.29999999702,159526.1000000015,158960.842,158961.3999999985,158967.817,159530.664,,39,you
screen,html.Screen,2_1_0_1_40,2022-05-09T15:35:43.940Z,,,,,,,,,,,,,,,,,53,,,,,,,,,,,,,,217.33600000001024,,response,,,,99,,,,,,,Space,keypress(Space),,,,,,,,---- -- ----- -- ------ - ------- --- ----------<br>------------- ------ ------ ---- ---- ------- ----- -- ----<br>-------- ------- -- ---------- --- - --- ----- ----- ----<br>---- --- --- ----- --- ---- ---- ------- ----- ---- -------<br>--- are -- ----- -- --- ---- -- --- ---- -- ------ ------<br>--- ----- -- ----,159748.29999999702,159748,159523.647,159526.3999999985,159530.664,159753.033,,40,are
screen,html.Screen,2_1_0_1_41,2022-05-09T15:35:44.300Z,,,,,,,,,,,,,,,,,53,,,,,,,,,,,,,,355.0670000014943,,response,,,,99,,,,,,,Space,keypress(Space),,,,,,,,---- -- ----- -- ------ - ------- --- ----------<br>------------- ------ ------ ---- ---- ------- ----- -- ----<br>-------- ------- -- ---------- --- - --- ----- ----- ----<br>---- --- --- ----- --- ---- ---- ------- ----- ---- -------<br>--- --- as ----- -- --- ---- -- --- ---- -- ------ ------<br>--- ----- -- ----,160108.29999999702,160108.1000000015,159746.036,159748.3999999985,159753.033,160114.346,,41,as
screen,html.Screen,2_1_0_1_42,2022-05-09T15:35:44.500Z,,,,,,,,,,,,,,,,,53,,,,,,,,,,,,,,193.65400000000955,,response,,,,99,,,,,,,Space,keypress(Space),,,,,,,,---- -- ----- -- ------ - ------- --- ----------<br>------------- ------ ------ ---- ---- ------- ----- -- ----<br>-------- ------- -- ---------- --- - --- ----- ----- ----<br>---- --- --- ----- --- ---- ---- ------- ----- ---- -------<br>--- --- -- close -- --- ---- -- --- ---- -- ------ ------<br>--- ----- -- ----,160308.29999999702,160308,160107.347,160108.3999999985,160114.346,160321.108,,42,close
screen,html.Screen,2_1_0_1_43,2022-05-09T15:35:44.802Z,,,,,,,,,,,,,,,,,53,,,,,,,,,,,,,,288.89199999999255,,response,,,,99,,,,,,,Space,keypress(Space),,,,,,,,---- -- ----- -- ------ - ------- --- ----------<br>------------- ------ ------ ---- ---- ------- ----- -- ----<br>-------- ------- -- ---------- --- - --- ----- ----- ----<br>---- --- --- ----- --- ---- ---- ------- ----- ---- -------<br>--- --- -- ----- as --- ---- -- --- ---- -- ------ ------<br>--- ----- -- ----,160610.3999999985,160610,160301.925,160308.3999999985,160321.108,160614.647,,43,as
screen,html.Screen,2_1_0_1_44,2022-05-09T15:35:45.184Z,,,,,,,,,,,,,,,,,53,,,,,,,,,,,,,,377.4530000014929,,response,,,,99,,,,,,,Space,keypress(Space),,,,,,,,---- -- ----- -- ------ - ------- --- ----------<br>------------- ------ ------ ---- ---- ------- ----- -- ----<br>-------- ------- -- ---------- --- - --- ----- ----- ----<br>---- --- --- ----- --- ---- ---- ------- ----- ---- -------<br>--- --- -- ----- -- you ---- -- --- ---- -- ------ ------<br>--- ----- -- ----,160992.3999999985,160992.1000000015,160607.662,160610.5,160614.647,160996.822,,44,you
screen,html.Screen,2_1_0_1_45,2022-05-09T15:35:45.931Z,,,,,,,,,,,,,,,,,53,,,,,,,,,,,,,,742.2780000015046,,response,,,,99,,,,,,,Space,keypress(Space),,,,,,,,---- -- ----- -- ------ - ------- --- ----------<br>------------- ------ ------ ---- ---- ------- ----- -- ----<br>-------- ------- -- ---------- --- - --- ----- ----- ----<br>---- --- --- ----- --- ---- ---- ------- ----- ---- -------<br>--- --- -- ----- -- --- want -- --- ---- -- ------ ------<br>--- ----- -- ----,161739.29999999702,161739.1000000015,160989.842,160992.5,160996.822,161762.109,,45,want
screen,html.Screen,2_1_0_1_46,2022-05-09T15:35:46.119Z,,,,,,,,,,,,,,,,,53,,,,,,,,,,,,,,164.89100000000326,,response,,,,99,,,,,,,Space,keypress(Space),,,,,,,,---- -- ----- -- ------ - ------- --- ----------<br>------------- ------ ------ ---- ---- ------- ----- -- ----<br>-------- ------- -- ---------- --- - --- ----- ----- ----<br>---- --- --- ----- --- ---- ---- ------- ----- ---- -------<br>--- --- -- ----- -- --- ---- to --- ---- -- ------ ------<br>--- ----- -- ----,161927.3999999985,161927,161733.298,161739.3999999985,161762.109,161937.108,,46,to
screen,html.Screen,2_1_0_1_47,2022-05-09T15:35:46.444Z,,,,,,,,,,,,,,,,,53,,,,,,,,,,,,,,314.99200000148267,,response,,,,99,,,,,,,Space,keypress(Space),,,,,,,,"---- -- ----- -- ------ - ------- --- ----------<br>------------- ------ ------ ---- ---- ------- ----- -- ----<br>-------- ------- -- ---------- --- - --- ----- ----- ----<br>---- --- --- ----- --- ---- ---- ------- ----- ---- -------<br>--- --- -- ----- -- --- ---- -- be, ---- -- ------ ------<br>--- ----- -- ----",162252.3999999985,162252.1000000015,161920.965,161927.3999999985,161937.108,162254.582,,47,"be,"
screen,html.Screen,2_1_0_1_48,2022-05-09T15:35:47.100Z,,,,,,,,,,,,,,,,,53,,,,,,,,,,,,,,653.5180000014952,,response,,,,99,,,,,,,Space,keypress(Space),,,,,,,,---- -- ----- -- ------ - ------- --- ----------<br>------------- ------ ------ ---- ---- ------- ----- -- ----<br>-------- ------- -- ---------- --- - --- ----- ----- ----<br>---- --- --- ----- --- ---- ---- ------- ----- ---- -------<br>--- --- -- ----- -- --- ---- -- --- even -- ------ ------<br>--- ----- -- ----,162908.3999999985,162908.1000000015,162247.538,162252.5,162254.582,162914.647,,48,even
screen,html.Screen,2_1_0_1_49,2022-05-09T15:35:47.334Z,,,,,,,,,,,,,,,,,53,,,,,,,,,,,,,,227.4530000014929,,response,,,,99,,,,,,,Space,keypress(Space),,,,,,,,---- -- ----- -- ------ - ------- --- ----------<br>------------- ------ ------ ---- ---- ------- ----- -- ----<br>-------- ------- -- ---------- --- - --- ----- ----- ----<br>---- --- --- ----- --- ---- ---- ------- ----- ---- -------<br>--- --- -- ----- -- --- ---- -- --- ---- if ------ ------<br>--- ----- -- ----,163142.3999999985,163142.1000000015,162907.629,162908.5,162914.647,163143.947,,49,if
screen,html.Screen,2_1_0_1_50,2022-05-09T15:35:47.785Z,,,,,,,,,,,,,,,,,53,,,,,,,,,,,,,,449.15300000150455,,response,,,,99,,,,,,,Space,keypress(Space),,,,,,,,---- -- ----- -- ------ - ------- --- ----------<br>------------- ------ ------ ---- ---- ------- ----- -- ----<br>-------- ------- -- ---------- --- - --- ----- ----- ----<br>---- --- --- ----- --- ---- ---- ------- ----- ---- -------<br>--- --- -- ----- -- --- ---- -- --- ---- -- that's ------<br>--- ----- -- ----,163593.3999999985,163593.1000000015,163136.968,163142.5,163143.947,163595.608,,50,that's
screen,html.Screen,2_1_0_1_51,2022-05-09T15:35:48.161Z,,,,,,,,,,,,,,,,,53,,,,,,,,,,,,,,373.49200000148267,,response,,,,99,,,,,,,Space,keypress(Space),,,,,,,,---- -- ----- -- ------ - ------- --- ----------<br>------------- ------ ------ ---- ---- ------- ----- -- ----<br>-------- ------- -- ---------- --- - --- ----- ----- ----<br>---- --- --- ----- --- ---- ---- ------- ----- ---- -------<br>--- --- -- ----- -- --- ---- -- --- ---- -- ------ really<br>--- ----- -- ----,163969.3999999985,163969.1000000015,163588.613,163593.5,163595.608,163970.845,,51,really
screen,html.Screen,2_1_0_1_52,2022-05-09T15:35:48.378Z,,,,,,,,,,,,,,,,,53,,,,,,,,,,,,,,215.25500000148895,,response,,,,99,,,,,,,Space,keypress(Space),,,,,,,,---- -- ----- -- ------ - ------- --- ----------<br>------------- ------ ------ ---- ---- ------- ----- -- ----<br>-------- ------- -- ---------- --- - --- ----- ----- ----<br>---- --- --- ----- --- ---- ---- ------- ----- ---- -------<br>--- --- -- ----- -- --- ---- -- --- ---- -- ------ ------<br>not ----- -- ----,164186.5,164186.1000000015,163963.847,163969.3999999985,163970.845,164193.198,,52,not
screen,html.Screen,2_1_0_1_53,2022-05-09T15:35:49.022Z,,,,,,,,,,,,,,,,,53,,,,,,,,,,,,,,636.9020000014862,,response,,,,99,,,,,,,Space,keypress(Space),,,,,,,,---- -- ----- -- ------ - ------- --- ----------<br>------------- ------ ------ ---- ---- ------- ----- -- ----<br>-------- ------- -- ---------- --- - --- ----- ----- ----<br>---- --- --- ----- --- ---- ---- ------- ----- ---- -------<br>--- --- -- ----- -- --- ---- -- --- ---- -- ------ ------<br>--- close -- ----,164830.3999999985,164830.1000000015,164186.216,164186.6000000015,164193.198,164832.495,,53,close
screen,html.Screen,2_1_0_1_54,2022-05-09T15:35:49.393Z,,,,,,,,,,,,,,,,,53,,,,,,,,,,,,,,368.6050000014948,,response,,,,99,,,,,,,Space,keypress(Space),,,,,,,,---- -- ----- -- ------ - ------- --- ----------<br>------------- ------ ------ ---- ---- ------- ----- -- ----<br>-------- ------- -- ---------- --- - --- ----- ----- ----<br>---- --- --- ----- --- ---- ---- ------- ----- ---- -------<br>--- --- -- ----- -- --- ---- -- --- ---- -- ------ ------<br>--- ----- at ----,165201.3999999985,165201.1000000015,164825.454,164830.3999999985,164832.495,165207.704,,54,at
screen,html.Screen,2_1_0_1_55,2022-05-09T15:35:50.168Z,,,,,,,,,,,,,,,,,53,,,,,,,,,,,,,,768.3960000014922,,response,,,,99,,,,,,,Space,keypress(Space),,,,,,,,---- -- ----- -- ------ - ------- --- ----------<br>------------- ------ ------ ---- ---- ------- ----- -- ----<br>-------- ------- -- ---------- --- - --- ----- ----- ----<br>---- --- --- ----- --- ---- ---- ------- ----- ---- -------<br>--- --- -- ----- -- --- ---- -- --- ---- -- ------ ------<br>--- ----- -- all.,165976.3999999985,165976.1000000015,165200.72,165201.5,165207.704,165985.952,,55,all.
Item 99,flow.Loop,2_1_0_1,2022-05-09T15:35:50.168Z,,,,,,,,,,,,,,,,,,,,,,,,,,,,,,,24352.08100000149,,completion,,,,,F,,,,,,,,,,,silence,,,,,165976.5,165976.1000000015,141617.057,141617.29999999702,141624.019,165985.952,,,
Question 1,html.Screen,2_1_0_2,2022-05-09T15:35:56.003Z,,,,,,,,,,,,,,,,,,,,,,,,,,,,false,FALSE,,5825.24800000299,,response,,,,99,F,,,,,,TRUE,click #choice-1,,,,silence,,,,,171811.70000000298,171811.20000000298,165978.983,165976.5,165985.952,171815.831,,,
Question 2,html.Screen,2_1_0_3,2022-05-09T15:35:59.997Z,,,,,,,,,,,,,,,,,,,,,,,,,,,,false,TRUE,,3989.3690000029746,,response,,,,99,F,,,,,,FALSE,click #choice-2,,,,silence,,,,,175805.6000000015,175805.20000000298,171808.878,171811.79999999702,171815.831,175811.331,,,
Item 99,flow.Sequence,2_1_0,2022-05-09T15:35:59.997Z,,,,,,,,,,,,,,,,,,,,,,,,,,,,,,,44180.27700000297,,completion,,,,,,,,,,,,,,,,,,,,,175805.79999999702,175805.20000000298,131617.97,131619.29999999702,131624.923,175811.331,,,
Holding screen,html.Screen,2_1_1_0,2022-05-09T15:36:09.995Z,,,,,,,,,,,,,,,,,,,,,,,,,,,,,,,9999.070999999996,,timeout,,,,,,,,,,,,,,,,,,,,,185803.70000000298,185803.448,175804.346,175805.8999999985,175811.331,185810.402,,,
screen,html.Screen,2_1_1_1_0,2022-05-09T15:36:10.768Z,,,,,,,,,,,,,,,,,54,,,,,,,,,,,,,,766.2980000029784,,response,,,,100,,,,,,,Space,keypress(Space),,,,,,,,At --- ---- --- ------ ----- ------- ---- -- --- ------- --<br>------- ---------- ------ -- ----- -- ----- -- ---- ------<br>--- ----- --- --- ------ -------- ----- --- ------ ----- --<br>----- ----- ---------- --- --- ------ ------ ---- -- ------<br>------- --- ------ ----- --- ---- ------- -- ---- --- --<br>------- ------,186577.1000000015,186576.70000000298,185803.448,185803.79999999702,185810.402,186581.698,,0,At
screen,html.Screen,2_1_1_1_1,2022-05-09T15:36:11.105Z,,,,,,,,,,,,,,,,,54,,,,,,,,,,,,,,332.2019999985059,,response,,,,100,,,,,,,Space,keypress(Space),,,,,,,,-- the ---- --- ------ ----- ------- ---- -- --- ------- --<br>------- ---------- ------ -- ----- -- ----- -- ---- ------<br>--- ----- --- --- ------ -------- ----- --- ------ ----- --<br>----- ----- ---------- --- --- ------ ------ ---- -- ------<br>------- --- ------ ----- --- ---- ------- -- ---- --- --<br>------- ------,186914.20000000298,186913.8999999985,186574.668,186577.1000000015,186581.698,186929.102,,1,the
screen,html.Screen,2_1_1_1_2,2022-05-09T15:36:11.470Z,,,,,,,,,,,,,,,,,54,,,,,,,,,,,,,,349.3979999999865,,response,,,,100,,,,,,,Space,keypress(Space),,,,,,,,-- --- time --- ------ ----- ------- ---- -- --- ------- --<br>------- ---------- ------ -- ----- -- ----- -- ---- ------<br>--- ----- --- --- ------ -------- ----- --- ------ ----- --<br>----- ----- ---------- --- --- ------ ------ ---- -- ------<br>------- --- ------ ----- --- ---- ------- -- ---- --- --<br>------- ------,187278.79999999702,187278.5,186908.242,186914.29999999702,186929.102,187283.509,,2,time
screen,html.Screen,2_1_1_1_3,2022-05-09T15:36:12.029Z,,,,,,,,,,,,,,,,,54,,,,,,,,,,,,,,553.9910000000091,,response,,,,100,,,,,,,Space,keypress(Space),,,,,,,,-- --- ---- the ------ ----- ------- ---- -- --- ------- --<br>------- ---------- ------ -- ----- -- ----- -- ---- ------<br>--- ----- --- --- ------ -------- ----- --- ------ ----- --<br>----- ----- ---------- --- --- ------ ------ ---- -- ------<br>------- --- ------ ----- --- ---- ------- -- ---- --- --<br>------- ------,187837.79999999702,187837.5,187276.521,187278.79999999702,187283.509,187839.397,,3,the
screen,html.Screen,2_1_1_1_4,2022-05-09T15:36:12.422Z,,,,,,,,,,,,,,,,,54,,,,,,,,,,,,,,391.2030000014929,,response,,,,100,,,,,,,Space,keypress(Space),,,,,,,,-- --- ---- --- French ----- ------- ---- -- --- ------- --<br>------- ---------- ------ -- ----- -- ----- -- ---- ------<br>--- ----- --- --- ------ -------- ----- --- ------ ----- --<br>----- ----- ---------- --- --- ------ ------ ---- -- ------<br>------- --- ------ ----- --- ---- ------- -- ---- --- --<br>------- ------,188231,188230.6000000015,187832.386,187837.79999999702,187839.397,188235.485,,4,French
screen,html.Screen,2_1_1_1_5,2022-05-09T15:36:12.867Z,,,,,,,,,,,,,,,,,54,,,,,,,,,,,,,,440.01500000001397,,response,,,,100,,,,,,,Space,keypress(Space),,,,,,,,-- --- ---- --- ------ crown ------- ---- -- --- ------- --<br>------- ---------- ------ -- ----- -- ----- -- ---- ------<br>--- ----- --- --- ------ -------- ----- --- ------ ----- --<br>----- ----- ---------- --- --- ------ ------ ---- -- ------<br>------- --- ------ ----- --- ---- ------- -- ---- --- --<br>------- ------,188675.8999999985,188675.5,188228.482,188231,188235.485,188680.189,,5,crown
screen,html.Screen,2_1_1_1_6,2022-05-09T15:36:13.095Z,,,,,,,,,,,,,,,,,54,,,,,,,,,,,,,,223.31099999998696,,response,,,,100,,,,,,,Space,keypress(Space),,,,,,,,-- --- ---- --- ------ ----- secured ---- -- --- ------- --<br>------- ---------- ------ -- ----- -- ----- -- ---- ------<br>--- ----- --- --- ------ -------- ----- --- ------ ----- --<br>----- ----- ---------- --- --- ------ ------ ---- -- ------<br>------- --- ------ ----- --- ---- ------- -- ---- --- --<br>------- ------,188903.79999999702,188903.5,188673.187,188676,188680.189,188909.494,,6,secured
screen,html.Screen,2_1_1_1_7,2022-05-09T15:36:13.489Z,,,,,,,,,,,,,,,,,54,,,,,,,,,,,,,,388.10600000148406,,response,,,,100,,,,,,,Space,keypress(Space),,,,,,,,-- --- ---- --- ------ ----- ------- much -- --- ------- --<br>------- ---------- ------ -- ----- -- ----- -- ---- ------<br>--- ----- --- --- ------ -------- ----- --- ------ ----- --<br>----- ----- ---------- --- --- ------ ------ ---- -- ------<br>------- --- ------ ----- --- ---- ------- -- ---- --- --<br>------- ------,189297.79999999702,189297.6000000015,188902.513,188903.8999999985,188909.494,189315.105,,7,much
screen,html.Screen,2_1_1_1_8,2022-05-09T15:36:13.837Z,,,,,,,,,,,,,,,,,54,,,,,,,,,,,,,,330.49500000147964,,response,,,,100,,,,,,,Space,keypress(Space),,,,,,,,-- --- ---- --- ------ ----- ------- ---- of --- ------- --<br>------- ---------- ------ -- ----- -- ----- -- ---- ------<br>--- ----- --- --- ------ -------- ----- --- ------ ----- --<br>----- ----- ---------- --- --- ------ ------ ---- -- ------<br>------- --- ------ ----- --- ---- ------- -- ---- --- --<br>------- ------,189645.79999999702,189645.6000000015,189291.628,189297.8999999985,189315.105,189652.998,,8,of
screen,html.Screen,2_1_1_1_9,2022-05-09T15:36:14.077Z,,,,,,,,,,,,,,,,,54,,,,,,,,,,,,,,232.6020000014978,,response,,,,100,,,,,,,Space,keypress(Space),,,,,,,,-- --- ---- --- ------ ----- ------- ---- -- its ------- --<br>------- ---------- ------ -- ----- -- ----- -- ---- ------<br>--- ----- --- --- ------ -------- ----- --- ------ ----- --<br>----- ----- ---------- --- --- ------ ------ ---- -- ------<br>------- --- ------ ----- --- ---- ------- -- ---- --- --<br>------- ------,189886,189885.6000000015,189646,189645.8999999985,189652.998,189889.248,,9,its
screen,html.Screen,2_1_1_1_10,2022-05-09T15:36:14.510Z,,,,,,,,,,,,,,,,,54,,,,,,,,,,,,,,429.3520000014978,,response,,,,100,,,,,,,Space,keypress(Space),,,,,,,,-- --- ---- --- ------ ----- ------- ---- -- --- revenue --<br>------- ---------- ------ -- ----- -- ----- -- ---- ------<br>--- ----- --- --- ------ -------- ----- --- ------ ----- --<br>----- ----- ---------- --- --- ------ ------ ---- -- ------<br>------- --- ------ ----- --- ---- ------- -- ---- --- --<br>------- ------,190318.8999999985,190318.6000000015,189882.264,189886.1000000015,189889.248,190327.1,,10,revenue
screen,html.Screen,2_1_1_1_11,2022-05-09T15:36:15.063Z,,,,,,,,,,,,,,,,,54,,,,,,,,,,,,,,544.699999997014,,response,,,,100,,,,,,,Space,keypress(Space),,,,,,,,-- --- ---- --- ------ ----- ------- ---- -- --- ------- by<br>------- ---------- ------ -- ----- -- ----- -- ---- ------<br>--- ----- --- --- ------ -------- ----- --- ------ ----- --<br>----- ----- ---------- --- --- ------ ------ ---- -- ------<br>------- --- ------ ----- --- ---- ------- -- ---- --- --<br>------- ------,190872.20000000298,190871.79999999702,190313.07,190319,190327.1,190875.961,,11,by
screen,html.Screen,2_1_1_1_12,2022-05-09T15:36:15.303Z,,,,,,,,,,,,,,,,,54,,,,,,,,,,,,,,235.63900000147987,,response,,,,100,,,,,,,Space,keypress(Space),,,,,,,,-- --- ---- --- ------ ----- ------- ---- -- --- ------- --<br>issuing ---------- ------ -- ----- -- ----- -- ---- ------<br>--- ----- --- --- ------ -------- ----- --- ------ ----- --<br>----- ----- ---------- --- --- ------ ------ ---- -- ------<br>------- --- ------ ----- --- ---- ------- -- ---- --- --<br>------- ------,191111.79999999702,191111.6000000015,190868.952,190872.29999999702,190875.961,191119.159,,12,issuing
screen,html.Screen,2_1_1_1_13,2022-05-09T15:36:15.947Z,,,,,,,,,,,,,,,,,54,,,,,,,,,,,,,,636.541000002966,,response,,,,100,,,,,,,Space,keypress(Space),,,,,,,,-- --- ---- --- ------ ----- ------- ---- -- --- ------- --<br>------- government ------ -- ----- -- ----- -- ---- ------<br>--- ----- --- --- ------ -------- ----- --- ------ ----- --<br>----- ----- ---------- --- --- ------ ------ ---- -- ------<br>------- --- ------ ----- --- ---- ------- -- ---- --- --<br>------- ------,191755.8999999985,191755.70000000298,191105.265,191111.8999999985,191119.159,191758.427,,13,government
screen,html.Screen,2_1_1_1_14,2022-05-09T15:36:16.341Z,,,,,,,,,,,,,,,,,54,,,,,,,,,,,,,,391.07300000000396,,response,,,,100,,,,,,,Space,keypress(Space),,,,,,,,-- --- ---- --- ------ ----- ------- ---- -- --- ------- --<br>------- ---------- bonds. -- ----- -- ----- -- ---- ------<br>--- ----- --- --- ------ -------- ----- --- ------ ----- --<br>----- ----- ---------- --- --- ------ ------ ---- -- ------<br>------- --- ------ ----- --- ---- ------- -- ---- --- --<br>------- ------,192149.8999999985,192149.5,191751.414,191755.8999999985,191758.427,192154.505,,14,bonds.
screen,html.Screen,2_1_1_1_15,2022-05-09T15:36:17.390Z,,,,,,,,,,,,,,,,,54,,,,,,,,,,,,,,1044.0950000014855,,response,,,,100,,,,,,,Space,keypress(Space),,,,,,,,-- --- ---- --- ------ ----- ------- ---- -- --- ------- --<br>------- ---------- ------ In ----- -- ----- -- ---- ------<br>--- ----- --- --- ------ -------- ----- --- ------ ----- --<br>----- ----- ---------- --- --- ------ ------ ---- -- ------<br>------- --- ------ ----- --- ---- ------- -- ---- --- --<br>------- ------,193198.8999999985,193198.6000000015,192147.51,192149.8999999985,192154.505,193203.753,,15,In
screen,html.Screen,2_1_1_1_16,2022-05-09T15:36:17.932Z,,,,,,,,,,,,,,,,,54,,,,,,,,,,,,,,536.8470000014931,,response,,,,100,,,,,,,Space,keypress(Space),,,,,,,,"-- --- ---- --- ------ ----- ------- ---- -- --- ------- --<br>------- ---------- ------ -- 1727, -- ----- -- ---- ------<br>--- ----- --- --- ------ -------- ----- --- ------ ----- --<br>----- ----- ---------- --- --- ------ ------ ---- -- ------<br>------- --- ------ ----- --- ---- ------- -- ---- --- --<br>------- ------",193740.8999999985,193740.6000000015,193196.696,193198.8999999985,193203.753,193745.739,,16,"1727,"
screen,html.Screen,2_1_1_1_17,2022-05-09T15:36:18.446Z,,,,,,,,,,,,,,,,,54,,,,,,,,,,,,,,508.96100000297884,,response,,,,100,,,,,,,Space,keypress(Space),,,,,,,,-- --- ---- --- ------ ----- ------- ---- -- --- ------- --<br>------- ---------- ------ -- ----- in ----- -- ---- ------<br>--- ----- --- --- ------ -------- ----- --- ------ ----- --<br>----- ----- ---------- --- --- ------ ------ ---- -- ------<br>------- --- ------ ----- --- ---- ------- -- ---- --- --<br>------- ------,194255.1000000015,194254.70000000298,193738.728,193740.8999999985,193745.739,194259.937,,17,in
screen,html.Screen,2_1_1_1_18,2022-05-09T15:36:19.010Z,,,,,,,,,,,,,,,,,54,,,,,,,,,,,,,,558.7630000029749,,response,,,,100,,,,,,,Space,keypress(Space),,,,,,,,-- --- ---- --- ------ ----- ------- ---- -- --- ------- --<br>------- ---------- ------ -- ----- -- order -- ---- ------<br>--- ----- --- --- ------ -------- ----- --- ------ ----- --<br>----- ----- ---------- --- --- ------ ------ ---- -- ------<br>------- --- ------ ----- --- ---- ------- -- ---- --- --<br>------- ------,194819,194818.70000000298,194252.937,194255.1000000015,194259.937,194822.777,,18,order
screen,html.Screen,2_1_1_1_19,2022-05-09T15:36:19.346Z,,,,,,,,,,,,,,,,,54,,,,,,,,,,,,,,331.82300000148825,,response,,,,100,,,,,,,Space,keypress(Space),,,,,,,,-- --- ---- --- ------ ----- ------- ---- -- --- ------- --<br>------- ---------- ------ -- ----- -- ----- to ---- ------<br>--- ----- --- --- ------ -------- ----- --- ------ ----- --<br>----- ----- ---------- --- --- ------ ------ ---- -- ------<br>------- --- ------ ----- --- ---- ------- -- ---- --- --<br>------- ------,195154.8999999985,195154.6000000015,194815.787,194819.1000000015,194822.777,195156.315,,19,to
screen,html.Screen,2_1_1_1_20,2022-05-09T15:36:19.569Z,,,,,,,,,,,,,,,,,54,,,,,,,,,,,,,,221.2850000014878,,response,,,,100,,,,,,,Space,keypress(Space),,,,,,,,-- --- ---- --- ------ ----- ------- ---- -- --- ------- --<br>------- ---------- ------ -- ----- -- ----- -- save ------<br>--- ----- --- --- ------ -------- ----- --- ------ ----- --<br>----- ----- ---------- --- --- ------ ------ ---- -- ------<br>------- --- ------ ----- --- ---- ------- -- ---- --- --<br>------- ------,195378,195377.6000000015,195149.324,195155.1000000015,195156.315,195397.102,,20,save
screen,html.Screen,2_1_1_1_21,2022-05-09T15:36:20.578Z,,,,,,,,,,,,,,,,,54,,,,,,,,,,,,,,989.5980000029667,,response,,,,100,,,,,,,Space,keypress(Space),,,,,,,,"-- --- ---- --- ------ ----- ------- ---- -- --- ------- --<br>------- ---------- ------ -- ----- -- ----- -- ---- money,<br>--- ----- --- --- ------ -------- ----- --- ------ ----- --<br>----- ----- ---------- --- --- ------ ------ ---- -- ------<br>------- --- ------ ----- --- ---- ------- -- ---- --- --<br>------- ------",196387,196386.70000000298,195371.703,195378,195397.102,196393.179,,21,"money,"
screen,html.Screen,2_1_1_1_22,2022-05-09T15:36:20.955Z,,,,,,,,,,,,,,,,,54,,,,,,,,,,,,,,370.72099999850616,,response,,,,100,,,,,,,Space,keypress(Space),,,,,,,,-- --- ---- --- ------ ----- ------- ---- -- --- ------- --<br>------- ---------- ------ -- ----- -- ----- -- ---- ------<br>the ----- --- --- ------ -------- ----- --- ------ ----- --<br>----- ----- ---------- --- --- ------ ------ ---- -- ------<br>------- --- ------ ----- --- ---- ------- -- ---- --- --<br>------- ------,196764.1000000015,196763.8999999985,196386.127,196387,196393.179,196775.349,,22,the
screen,html.Screen,2_1_1_1_23,2022-05-09T15:36:21.325Z,,,,,,,,,,,,,,,,,54,,,,,,,,,,,,,,358.45099999703234,,response,,,,100,,,,,,,Space,keypress(Space),,,,,,,,-- --- ---- --- ------ ----- ------- ---- -- --- ------- --<br>------- ---------- ------ -- ----- -- ----- -- ---- ------<br>--- state --- --- ------ -------- ----- --- ------ ----- --<br>----- ----- ---------- --- --- ------ ------ ---- -- ------<br>------- --- ------ ----- --- ---- ------- -- ---- --- --<br>------- ------,197134.20000000298,197133.79999999702,196768.389,196764.20000000298,196775.349,197136.674,,23,state
screen,html.Screen,2_1_1_1_24,2022-05-09T15:36:21.736Z,,,,,,,,,,,,,,,,,54,,,,,,,,,,,,,,408.02600000298116,,response,,,,100,,,,,,,Space,keypress(Space),,,,,,,,-- --- ---- --- ------ ----- ------- ---- -- --- ------- --<br>------- ---------- ------ -- ----- -- ----- -- ---- ------<br>--- ----- cut --- ------ -------- ----- --- ------ ----- --<br>----- ----- ---------- --- --- ------ ------ ---- -- ------<br>------- --- ------ ----- --- ---- ------- -- ---- --- --<br>------- ------,197545,197544.70000000298,197129.684,197134.20000000298,197136.674,197546.652,,24,cut
screen,html.Screen,2_1_1_1_25,2022-05-09T15:36:22.107Z,,,,,,,,,,,,,,,,,54,,,,,,,,,,,,,,369.04800000297837,,response,,,,100,,,,,,,Space,keypress(Space),,,,,,,,-- --- ---- --- ------ ----- ------- ---- -- --- ------- --<br>------- ---------- ------ -- ----- -- ----- -- ---- ------<br>--- ----- --- the ------ -------- ----- --- ------ ----- --<br>----- ----- ---------- --- --- ------ ------ ---- -- ------<br>------- --- ------ ----- --- ---- ------- -- ---- --- --<br>------- ------,197916,197915.70000000298,197539.649,197545,197546.652,197921.883,,25,the
screen,html.Screen,2_1_1_1_26,2022-05-09T15:36:22.352Z,,,,,,,,,,,,,,,,,54,,,,,,,,,,,,,,238.8170000029786,,response,,,,100,,,,,,,Space,keypress(Space),,,,,,,,-- --- ---- --- ------ ----- ------- ---- -- --- ------- --<br>------- ---------- ------ -- ----- -- ----- -- ---- ------<br>--- ----- --- --- bonds' -------- ----- --- ------ ----- --<br>----- ----- ---------- --- --- ------ ------ ---- -- ------<br>------- --- ------ ----- --- ---- ------- -- ---- --- --<br>------- ------,198161,198160.70000000298,197914.877,197916.1000000015,197921.883,198165.073,,26,bonds'
screen,html.Screen,2_1_1_1_27,2022-05-09T15:36:22.882Z,,,,,,,,,,,,,,,,,54,,,,,,,,,,,,,,525.6270000029763,,response,,,,100,,,,,,,Space,keypress(Space),,,,,,,,-- --- ---- --- ------ ----- ------- ---- -- --- ------- --<br>------- ---------- ------ -- ----- -- ----- -- ---- ------<br>--- ----- --- --- ------ interest ----- --- ------ ----- --<br>----- ----- ---------- --- --- ------ ------ ---- -- ------<br>------- --- ------ ----- --- ---- ------- -- ---- --- --<br>------- ------,198691,198690.70000000298,198158.093,198161,198165.073,198693.168,,27,interest
screen,html.Screen,2_1_1_1_28,2022-05-09T15:36:23.265Z,,,,,,,,,,,,,,,,,54,,,,,,,,,,,,,,380.5320000029751,,response,,,,100,,,,,,,Space,keypress(Space),,,,,,,,-- --- ---- --- ------ ----- ------- ---- -- --- ------- --<br>------- ---------- ------ -- ----- -- ----- -- ---- ------<br>--- ----- --- --- ------ -------- rate. --- ------ ----- --<br>----- ----- ---------- --- --- ------ ------ ---- -- ------<br>------- --- ------ ----- --- ---- ------- -- ---- --- --<br>------- ------,199074,199073.70000000298,198686.163,198691.1000000015,198693.168,199075.348,,28,rate.
screen,html.Screen,2_1_1_1_29,2022-05-09T15:36:23.977Z,,,,,,,,,,,,,,,,,54,,,,,,,,,,,,,,710.4519999970216,,response,,,,100,,,,,,,Space,keypress(Space),,,,,,,,-- --- ---- --- ------ ----- ------- ---- -- --- ------- --<br>------- ---------- ------ -- ----- -- ----- -- ---- ------<br>--- ----- --- --- ------ -------- ----- The ------ ----- --<br>----- ----- ---------- --- --- ------ ------ ---- -- ------<br>------- --- ------ ----- --- ---- ------- -- ---- --- --<br>------- ------,199786,199785.79999999702,199068.354,199074,199075.348,199791.056,,29,The
screen,html.Screen,2_1_1_1_30,2022-05-09T15:36:24.451Z,,,,,,,,,,,,,,,,,54,,,,,,,,,,,,,,468.6440000029688,,response,,,,100,,,,,,,Space,keypress(Space),,,,,,,,-- --- ---- --- ------ ----- ------- ---- -- --- ------- --<br>------- ---------- ------ -- ----- -- ----- -- ---- ------<br>--- ----- --- --- ------ -------- ----- --- market ----- --<br>----- ----- ---------- --- --- ------ ------ ---- -- ------<br>------- --- ------ ----- --- ---- ------- -- ---- --- --<br>------- ------,200260,200259.70000000298,199784.037,199786,199791.056,200263.557,,30,market
screen,html.Screen,2_1_1_1_31,2022-05-09T15:36:24.793Z,,,,,,,,,,,,,,,,,54,,,,,,,,,,,,,,338.24299999701907,,response,,,,100,,,,,,,Space,keypress(Space),,,,,,,,-- --- ---- --- ------ ----- ------- ---- -- --- ------- --<br>------- ---------- ------ -- ----- -- ----- -- ---- ------<br>--- ----- --- --- ------ -------- ----- --- ------ value --<br>----- ----- ---------- --- --- ------ ------ ---- -- ------<br>------- --- ------ ----- --- ---- ------- -- ---- --- --<br>------- ------,200602.1000000015,200601.79999999702,200256.568,200260,200263.557,200604.038,,31,value
screen,html.Screen,2_1_1_1_32,2022-05-09T15:36:25.186Z,,,,,,,,,,,,,,,,,54,,,,,,,,,,,,,,390.66200000297977,,response,,,,100,,,,,,,Space,keypress(Space),,,,,,,,-- --- ---- --- ------ ----- ------- ---- -- --- ------- --<br>------- ---------- ------ -- ----- -- ----- -- ---- ------<br>--- ----- --- --- ------ -------- ----- --- ------ ----- of<br>----- ----- ---------- --- --- ------ ------ ---- -- ------<br>------- --- ------ ----- --- ---- ------- -- ---- --- --<br>------- ------,200995.1000000015,200994.70000000298,200597.054,200602.20000000298,200604.038,201000.134,,32,of
screen,html.Screen,2_1_1_1_33,2022-05-09T15:36:25.511Z,,,,,,,,,,,,,,,,,54,,,,,,,,,,,,,,319.5660000029893,,response,,,,100,,,,,,,Space,keypress(Space),,,,,,,,-- --- ---- --- ------ ----- ------- ---- -- --- ------- --<br>------- ---------- ------ -- ----- -- ----- -- ---- ------<br>--- ----- --- --- ------ -------- ----- --- ------ ----- --<br>these ----- ---------- --- --- ------ ------ ---- -- ------<br>------- --- ------ ----- --- ---- ------- -- ---- --- --<br>------- ------,201320,201319.70000000298,200993.126,200995.1000000015,201000.134,201326.701,,33,these
screen,html.Screen,2_1_1_1_34,2022-05-09T15:36:25.757Z,,,,,,,,,,,,,,,,,54,,,,,,,,,,,,,,239.09899999701884,,response,,,,100,,,,,,,Space,keypress(Space),,,,,,,,-- --- ---- --- ------ ----- ------- ---- -- --- ------- --<br>------- ---------- ------ -- ----- -- ----- -- ---- ------<br>--- ----- --- --- ------ -------- ----- --- ------ ----- --<br>----- bonds ---------- --- --- ------ ------ ---- -- ------<br>------- --- ------ ----- --- ---- ------- -- ---- --- --<br>------- ------,201566,201565.79999999702,201319.713,201320,201326.701,201569.91,,34,bonds
screen,html.Screen,2_1_1_1_35,2022-05-09T15:36:26.099Z,,,,,,,,,,,,,,,,,54,,,,,,,,,,,,,,337.79000000297674,,response,,,,100,,,,,,,Space,keypress(Space),,,,,,,,"-- --- ---- --- ------ ----- ------- ---- -- --- ------- --<br>------- ---------- ------ -- ----- -- ----- -- ---- ------<br>--- ----- --- --- ------ -------- ----- --- ------ ----- --<br>----- ----- plummeted, --- --- ------ ------ ---- -- ------<br>------- --- ------ ----- --- ---- ------- -- ---- --- --<br>------- ------",201908,201907.70000000298,201562.93,201566.1000000015,201569.91,201910.382,,35,"plummeted,"
screen,html.Screen,2_1_1_1_36,2022-05-09T15:36:26.618Z,,,,,,,,,,,,,,,,,54,,,,,,,,,,,,,,516.4179999970074,,response,,,,100,,,,,,,Space,keypress(Space),,,,,,,,-- --- ---- --- ------ ----- ------- ---- -- --- ------- --<br>------- ---------- ------ -- ----- -- ----- -- ---- ------<br>--- ----- --- --- ------ -------- ----- --- ------ ----- --<br>----- ----- ---------- and --- ------ ------ ---- -- ------<br>------- --- ------ ----- --- ---- ------- -- ---- --- --<br>------- ------,202427.20000000298,202426.79999999702,201903.407,201908.1000000015,201910.382,202431.539,,36,and
screen,html.Screen,2_1_1_1_37,2022-05-09T15:36:26.955Z,,,,,,,,,,,,,,,,,54,,,,,,,,,,,,,,332.26099999703,,response,,,,100,,,,,,,Space,keypress(Space),,,,,,,,-- --- ---- --- ------ ----- ------- ---- -- --- ------- --<br>------- ---------- ------ -- ----- -- ----- -- ---- ------<br>--- ----- --- --- ------ -------- ----- --- ------ ----- --<br>----- ----- ---------- --- the ------ ------ ---- -- ------<br>------- --- ------ ----- --- ---- ------- -- ---- --- --<br>------- ------,202764.1000000015,202763.79999999702,202424.53,202427.20000000298,202431.539,202777.104,,37,the
screen,html.Screen,2_1_1_1_38,2022-05-09T15:36:27.200Z,,,,,,,,,,,,,,,,,54,,,,,,,,,,,,,,231.69599999702768,,response,,,,100,,,,,,,Space,keypress(Space),,,,,,,,-- --- ---- --- ------ ----- ------- ---- -- --- ------- --<br>------- ---------- ------ -- ----- -- ----- -- ---- ------<br>--- ----- --- --- ------ -------- ----- --- ------ ----- --<br>----- ----- ---------- --- --- market ------ ---- -- ------<br>------- --- ------ ----- --- ---- ------- -- ---- --- --<br>------- ------,203009.1000000015,203008.79999999702,202758.08,202764.1000000015,202777.104,203015.221,,38,market
screen,html.Screen,2_1_1_1_39,2022-05-09T15:36:27.553Z,,,,,,,,,,,,,,,,,54,,,,,,,,,,,,,,346.5789999970293,,response,,,,100,,,,,,,Space,keypress(Space),,,,,,,,-- --- ---- --- ------ ----- ------- ---- -- --- ------- --<br>------- ---------- ------ -- ----- -- ----- -- ---- ------<br>--- ----- --- --- ------ -------- ----- --- ------ ----- --<br>----- ----- ---------- --- --- ------ became ---- -- ------<br>------- --- ------ ----- --- ---- ------- -- ---- --- --<br>------- ------,203362.1000000015,203361.79999999702,203008.239,203009.20000000298,203015.221,203385.119,,39,became
screen,html.Screen,2_1_1_1_40,2022-05-09T15:36:27.913Z,,,,,,,,,,,,,,,,,54,,,,,,,,,,,,,,336.5810000029742,,response,,,,100,,,,,,,Space,keypress(Space),,,,,,,,-- --- ---- --- ------ ----- ------- ---- -- --- ------- --<br>------- ---------- ------ -- ----- -- ----- -- ---- ------<br>--- ----- --- --- ------ -------- ----- --- ------ ----- --<br>----- ----- ---------- --- --- ------ ------ wary -- ------<br>------- --- ------ ----- --- ---- ------- -- ---- --- --<br>------- ------,203722.1000000015,203721.70000000298,203355.67,203362.20000000298,203385.119,203723.986,,40,wary
screen,html.Screen,2_1_1_1_41,2022-05-09T15:36:28.283Z,,,,,,,,,,,,,,,,,54,,,,,,,,,,,,,,367.81399999701534,,response,,,,100,,,,,,,Space,keypress(Space),,,,,,,,-- --- ---- --- ------ ----- ------- ---- -- --- ------- --<br>------- ---------- ------ -- ----- -- ----- -- ---- ------<br>--- ----- --- --- ------ -------- ----- --- ------ ----- --<br>----- ----- ---------- --- --- ------ ------ ---- of ------<br>------- --- ------ ----- --- ---- ------- -- ---- --- --<br>------- ------,204092.20000000298,204091.79999999702,203716.987,203722.20000000298,203723.986,204099.22,,41,of
screen,html.Screen,2_1_1_1_42,2022-05-09T15:36:28.678Z,,,,,,,,,,,,,,,,,54,,,,,,,,,,,,,,386.77999999999884,,response,,,,100,,,,,,,Space,keypress(Space),,,,,,,,-- --- ---- --- ------ ----- ------- ---- -- --- ------- --<br>------- ---------- ------ -- ----- -- ----- -- ---- ------<br>--- ----- --- --- ------ -------- ----- --- ------ ----- --<br>----- ----- ---------- --- --- ------ ------ ---- -- French<br>------- --- ------ ----- --- ---- ------- -- ---- --- --<br>------- ------,204486.3999999985,204486,204092.222,204092.20000000298,204099.22,204488.373,,42,French
screen,html.Screen,2_1_1_1_43,2022-05-09T15:36:29.430Z,,,,,,,,,,,,,,,,,54,,,,,,,,,,,,,,750.4269999970275,,response,,,,100,,,,,,,Space,keypress(Space),,,,,,,,-- --- ---- --- ------ ----- ------- ---- -- --- ------- --<br>------- ---------- ------ -- ----- -- ----- -- ---- ------<br>--- ----- --- --- ------ -------- ----- --- ------ ----- --<br>----- ----- ---------- --- --- ------ ------ ---- -- ------<br>credit. --- ------ ----- --- ---- ------- -- ---- --- --<br>------- ------,205239.20000000298,205238.79999999702,204481.34,204486.3999999985,204488.373,205245.738,,43,credit.
screen,html.Screen,2_1_1_1_44,2022-05-09T15:36:29.795Z,,,,,,,,,,,,,,,,,54,,,,,,,,,,,,,,358.06199999700766,,response,,,,100,,,,,,,Space,keypress(Space),,,,,,,,-- --- ---- --- ------ ----- ------- ---- -- --- ------- --<br>------- ---------- ------ -- ----- -- ----- -- ---- ------<br>--- ----- --- --- ------ -------- ----- --- ------ ----- --<br>----- ----- ---------- --- --- ------ ------ ---- -- ------<br>------- The ------ ----- --- ---- ------- -- ---- --- --<br>------- ------,205604.1000000015,205603.79999999702,205238.707,205239.20000000298,205245.738,205607.061,,44,The
screen,html.Screen,2_1_1_1_45,2022-05-09T15:36:30.485Z,,,,,,,,,,,,,,,,,54,,,,,,,,,,,,,,686.7389999970328,,response,,,,100,,,,,,,Space,keypress(Space),,,,,,,,-- --- ---- --- ------ ----- ------- ---- -- --- ------- --<br>------- ---------- ------ -- ----- -- ----- -- ---- ------<br>--- ----- --- --- ------ -------- ----- --- ------ ----- --<br>----- ----- ---------- --- --- ------ ------ ---- -- ------<br>------- --- French ----- --- ---- ------- -- ---- --- --<br>------- ------,206294.20000000298,206293.79999999702,205600.07,205604.1000000015,205607.061,206305.109,,45,French
screen,html.Screen,2_1_1_1_46,2022-05-09T15:36:30.736Z,,,,,,,,,,,,,,,,,54,,,,,,,,,,,,,,239.69099999702303,,response,,,,100,,,,,,,Space,keypress(Space),,,,,,,,-- --- ---- --- ------ ----- ------- ---- -- --- ------- --<br>------- ---------- ------ -- ----- -- ----- -- ---- ------<br>--- ----- --- --- ------ -------- ----- --- ------ ----- --<br>----- ----- ---------- --- --- ------ ------ ---- -- ------<br>------- --- ------ state --- ---- ------- -- ---- --- --<br>------- ------,206545.20000000298,206544.79999999702,206287.964,206294.20000000298,206305.109,206552.08,,46,state
screen,html.Screen,2_1_1_1_47,2022-05-09T15:36:31.078Z,,,,,,,,,,,,,,,,,54,,,,,,,,,,,,,,334.9200000000128,,response,,,,100,,,,,,,Space,keypress(Space),,,,,,,,-- --- ---- --- ------ ----- ------- ---- -- --- ------- --<br>------- ---------- ------ -- ----- -- ----- -- ---- ------<br>--- ----- --- --- ------ -------- ----- --- ------ ----- --<br>----- ----- ---------- --- --- ------ ------ ---- -- ------<br>------- --- ------ ----- was ---- ------- -- ---- --- --<br>------- ------,206887.29999999702,206887,206545.095,206545.20000000298,206552.08,206892.568,,47,was
screen,html.Screen,2_1_1_1_48,2022-05-09T15:36:31.380Z,,,,,,,,,,,,,,,,,54,,,,,,,,,,,,,,296.23199999702047,,response,,,,100,,,,,,,Space,keypress(Space),,,,,,,,-- --- ---- --- ------ ----- ------- ---- -- --- ------- --<br>------- ---------- ------ -- ----- -- ----- -- ---- ------<br>--- ----- --- --- ------ -------- ----- --- ------ ----- --<br>----- ----- ---------- --- --- ------ ------ ---- -- ------<br>------- --- ------ ----- --- left ------- -- ---- --- --<br>------- ------,207189.20000000298,207188.79999999702,206885.57,206887.3999999985,206892.568,207191.348,,48,left
screen,html.Screen,2_1_1_1_49,2022-05-09T15:36:31.728Z,,,,,,,,,,,,,,,,,54,,,,,,,,,,,,,,345.55199999851175,,response,,,,100,,,,,,,Space,keypress(Space),,,,,,,,-- --- ---- --- ------ ----- ------- ---- -- --- ------- --<br>------- ---------- ------ -- ----- -- ----- -- ---- ------<br>--- ----- --- --- ------ -------- ----- --- ------ ----- --<br>----- ----- ---------- --- --- ------ ------ ---- -- ------<br>------- --- ------ ----- --- ---- without -- ---- --- --<br>------- ------,207537.20000000298,207536.8999999985,207184.369,207189.29999999702,207191.348,207538.789,,49,without
screen,html.Screen,2_1_1_1_50,2022-05-09T15:36:32.122Z,,,,,,,,,,,,,,,,,54,,,,,,,,,,,,,,392.11099999852013,,response,,,,100,,,,,,,Space,keypress(Space),,,,,,,,-- --- ---- --- ------ ----- ------- ---- -- --- ------- --<br>------- ---------- ------ -- ----- -- ----- -- ---- ------<br>--- ----- --- --- ------ -------- ----- --- ------ ----- --<br>----- ----- ---------- --- --- ------ ------ ---- -- ------<br>------- --- ------ ----- --- ---- ------- an ---- --- --<br>------- ------,207931.20000000298,207930.8999999985,207531.796,207537.20000000298,207538.789,207934.888,,50,an
screen,html.Screen,2_1_1_1_51,2022-05-09T15:36:32.328Z,,,,,,,,,,,,,,,,,54,,,,,,,,,,,,,,201.21200000148383,,response,,,,100,,,,,,,Space,keypress(Space),,,,,,,,-- --- ---- --- ------ ----- ------- ---- -- --- ------- --<br>------- ---------- ------ -- ----- -- ----- -- ---- ------<br>--- ----- --- --- ------ -------- ----- --- ------ ----- --<br>----- ----- ---------- --- --- ------ ------ ---- -- ------<br>------- --- ------ ----- --- ---- ------- -- easy --- --<br>------- ------,208136.29999999702,208136.1000000015,207927.864,207931.29999999702,207934.888,208143.32,,51,easy
screen,html.Screen,2_1_1_1_52,2022-05-09T15:36:32.743Z,,,,,,,,,,,,,,,,,54,,,,,,,,,,,,,,408.5799999985029,,response,,,,100,,,,,,,Space,keypress(Space),,,,,,,,-- --- ---- --- ------ ----- ------- ---- -- --- ------- --<br>------- ---------- ------ -- ----- -- ----- -- ---- ------<br>--- ----- --- --- ------ -------- ----- --- ------ ----- --<br>----- ----- ---------- --- --- ------ ------ ---- -- ------<br>------- --- ------ ----- --- ---- ------- -- ---- way --<br>------- ------,208552.20000000298,208551.8999999985,208136.331,208136.3999999985,208143.32,208575.117,,52,way
screen,html.Screen,2_1_1_1_53,2022-05-09T15:36:33.103Z,,,,,,,,,,,,,,,,,54,,,,,,,,,,,,,,336.6829999970214,,response,,,,100,,,,,,,Space,keypress(Space),,,,,,,,-- --- ---- --- ------ ----- ------- ---- -- --- ------- --<br>------- ---------- ------ -- ----- -- ----- -- ---- ------<br>--- ----- --- --- ------ -------- ----- --- ------ ----- --<br>----- ----- ---------- --- --- ------ ------ ---- -- ------<br>------- --- ------ ----- --- ---- ------- -- ---- --- of<br>------- ------,208912.20000000298,208911.79999999702,208546.288,208552.20000000298,208575.117,208914.61,,53,of
screen,html.Screen,2_1_1_1_54,2022-05-09T15:36:33.530Z,,,,,,,,,,,,,,,,,54,,,,,,,,,,,,,,424.28999999852385,,response,,,,100,,,,,,,Space,keypress(Space),,,,,,,,-- --- ---- --- ------ ----- ------- ---- -- --- ------- --<br>------- ---------- ------ -- ----- -- ----- -- ---- ------<br>--- ----- --- --- ------ -------- ----- --- ------ ----- --<br>----- ----- ---------- --- --- ------ ------ ---- -- ------<br>------- --- ------ ----- --- ---- ------- -- ---- --- --<br>raising ------,209339.20000000298,209338.8999999985,208907.621,208912.20000000298,208914.61,209345.429,,54,raising
screen,html.Screen,2_1_1_1_55,2022-05-09T15:36:34.329Z,,,,,,,,,,,,,,,,,54,,,,,,,,,,,,,,792.4709999985062,,response,,,,100,,,,,,,Space,keypress(Space),,,,,,,,-- --- ---- --- ------ ----- ------- ---- -- --- ------- --<br>------- ---------- ------ -- ----- -- ----- -- ---- ------<br>--- ----- --- --- ------ -------- ----- --- ------ ----- --<br>----- ----- ---------- --- --- ------ ------ ---- -- ------<br>------- --- ------ ----- --- ---- ------- -- ---- --- --<br>------- money.,210138.29999999702,210137.8999999985,209338.426,209339.29999999702,209345.429,210144.526,,55,money.
Item 100,flow.Loop,2_1_1_1,2022-05-09T15:36:34.330Z,,,,,,,,,,,,,,,,,,,,,,,,,,,,,,,24327.497999998508,,completion,,,,,F,,,,,,,,,,,silence,,,,,210138.29999999702,210137.8999999985,185803.448,185803.70000000298,185810.402,210144.526,,,
Question 1,html.Screen,2_1_1_2,2022-05-09T15:36:37.012Z,,,,,,,,,,,,,,,,,,,,,,,,,,,,true,TRUE,,2675.3739999984973,,response,,,,100,F,,,,,,TRUE,click #choice-1,,,,silence,,,,,212820.3999999985,212819.8999999985,210137.493,210138.29999999702,210144.526,212826.695,,,
Question 2,html.Screen,2_1_1_3,2022-05-09T15:36:39.098Z,,,,,,,,,,,,,,,,,,,,,,,,,,,,true,FALSE,,2079.304999999993,,response,,,,100,F,,,,,,FALSE,click #choice-2,,,,silence,,,,,214906.3999999985,214906,212819.735,212820.3999999985,212826.695,214911.285,,,
Item 100,flow.Sequence,2_1_1,2022-05-09T15:36:39.098Z,,,,,,,,,,,,,,,,,,,,,,,,,,,,,,,39094.668999999994,,completion,,,,,,,,,,,,,,,,,,,,,214906.5,214906,175804.346,175805.79999999702,175811.331,214911.285,,,
End of Practice,html.Page,2_1_2,2022-05-09T15:36:43.656Z,,,,,,,,,,,,,,,,,,,,,,,,,,,,,,,4553.2149999999965,,form submission,,,,,,,,,,,,,,,,,,,,,219464.70000000298,219464.5,214904.315,214906.5,214911.285,219469.593,,,
Practice,flow.Sequence,2_1,2022-05-09T15:36:43.656Z,,,,,,,,,,,,,,,,,,,,,,,,,,,,,,,87839.57699999999,,completion,,,,,,,,,,,,,,,,,,,,,219464.79999999702,219464.5,131617.97,131619.29999999702,131624.923,219469.593,,,
Trap_instruction,html.Page,2_2_0,2022-05-09T15:36:48.720Z,,,,,,,,,,,,,,,,,,,,,,,,,,,,,,,5059.007000001497,,form submission,,,,,,,,,,,,,,,,,,,,,224528.70000000298,224528.6000000015,219462.625,219464.79999999702,219469.593,224535.165,,,
trap_trial,html.Screen,2_2_1,2022-05-09T15:36:52.322Z,,,,,,,,,,,,,,,,,,,,,,,,,,,,true,1,,3594.935000001482,,response,,,,,,,,,,,1,click #choice-1,,,,,,,,,228130.6000000015,228130.1000000015,224528.188,224528.79999999702,224535.165,228134.54,,,
end of trap trial,html.Page,2_2_2,2022-05-09T15:36:54.116Z,,,,,,,,,,,,,,,,,,,,,,,,,,,,,,,1790.160000002972,,form submission,,,,,,,,,,,,,,,,,,,,,229924.79999999702,229924.70000000298,228127.576,228130.70000000298,228134.54,229927.29,,,
Trap 1,flow.Sequence,2_2,2022-05-09T15:36:54.116Z,,,,,,,,,,,,,,,,,,,,,,,,,,,,,,,10455.107000002987,,completion,,,,,,,,,,,,,,,,,,,,,229924.79999999702,229924.70000000298,219462.625,219464.79999999702,219469.593,229927.29,,,
Standby,html.Page,2_3_0,2022-05-09T15:37:02.110Z,,,,,,,,,,,,,,,,,,,,,,,,,,,,,,,7997.877999999997,,timeout,,,,,,,,,,,,,,,,,,,,,237918.6000000015,237918.214,229920.327,229925,229927.29,237925.168,,,
Holding screen,html.Screen,2_3_1_0_0,2022-05-09T15:37:09.107Z,,,,,,,,,,,,,,,,,,,,,,,,,,,,,,,6997.282999999996,,timeout,,,,,,,,,,,,,,,,,,,,,244915.70000000298,244915.497,237918.214,237918.70000000298,237925.168,244922.451,,,
screen,html.Screen,2_3_1_0_1_0,2022-05-09T15:37:12.168Z,,,,,,,,,,,,,,,,,19,,,,,,,,,,,,,,3054.2490000029793,,response,,,,17,F,,,,,,Space,keypress(Space),,,,lyrical,,,,"Interestingly, --- -------- -------- ---------- ---- -------<br>-- ---------- -- --- ----- ------ ----- ---- --------- ----<br>------- ------ -------- -- ------ ---------- ------ ---<br>------ -- -- ---- -- ---------- -------- ------ ---- -------<br>---- --- --------- ------- ----- --------- ---- ----- --<br>------ -------- -- ------ -- ---- ------------",247977.1000000015,247976.70000000298,244915.497,244915.79999999702,244922.451,247979.854,,0,"Interestingly,"
screen,html.Screen,2_3_1_0_1_1,2022-05-09T15:37:12.755Z,,,,,,,,,,,,,,,,,19,,,,,,,,,,,,,,583.6460000000079,,response,,,,17,F,,,,,,Space,keypress(Space),,,,lyrical,,,,-------------- the -------- -------- ---------- ---- -------<br>-- ---------- -- --- ----- ------ ----- ---- --------- ----<br>------- ------ -------- -- ------ ---------- ------ ---<br>------ -- -- ---- -- ---------- -------- ------ ---- -------<br>---- --- --------- ------- ----- --------- ---- ----- --<br>------ -------- -- ------ -- ---- ------------,248563.8999999985,248563.5,247972.606,247977.20000000298,247979.854,248570.491,,1,the
screen,html.Screen,2_3_1_0_1_2,2022-05-09T15:37:13.382Z,,,,,,,,,,,,,,,,,19,,,,,,,,,,,,,,620.2090000029712,,response,,,,17,F,,,,,,Space,keypress(Space),,,,lyrical,,,,-------------- --- heaviest -------- ---------- ---- -------<br>-- ---------- -- --- ----- ------ ----- ---- --------- ----<br>------- ------ -------- -- ------ ---------- ------ ---<br>------ -- -- ---- -- ---------- -------- ------ ---- -------<br>---- --- --------- ------- ----- --------- ---- ----- --<br>------ -------- -- ------ -- ---- ------------,249191,249190.70000000298,248563.467,248563.8999999985,248570.491,249195.856,,2,heaviest
screen,html.Screen,2_3_1_0_1_3,2022-05-09T15:37:13.924Z,,,,,,,,,,,,,,,,,19,,,,,,,,,,,,,,536.8440000029805,,response,,,,17,F,,,,,,Space,keypress(Space),,,,lyrical,,,,-------------- --- -------- isotopes ---------- ---- -------<br>-- ---------- -- --- ----- ------ ----- ---- --------- ----<br>------- ------ -------- -- ------ ---------- ------ ---<br>------ -- -- ---- -- ---------- -------- ------ ---- -------<br>---- --- --------- ------- ----- --------- ---- ----- --<br>------ -------- -- ------ -- ---- ------------,249732.8999999985,249732.70000000298,249188.845,249191.1000000015,249195.856,249737.854,,3,isotopes
screen,html.Screen,2_3_1_0_1_4,2022-05-09T15:37:14.711Z,,,,,,,,,,,,,,,,,19,,,,,,,,,,,,,,781.746000001498,,response,,,,17,F,,,,,,Space,keypress(Space),,,,lyrical,,,,-------------- --- -------- -------- physicists ---- -------<br>-- ---------- -- --- ----- ------ ----- ---- --------- ----<br>------- ------ -------- -- ------ ---------- ------ ---<br>------ -- -- ---- -- ---------- -------- ------ ---- -------<br>---- --- --------- ------- ----- --------- ---- ----- --<br>------ -------- -- ------ -- ---- ------------,250520,250519.6000000015,249730.841,249732.8999999985,249737.854,250523.045,,4,physicists
screen,html.Screen,2_3_1_0_1_5,2022-05-09T15:37:15.413Z,,,,,,,,,,,,,,,,,19,,,,,,,,,,,,,,698.6550000029674,,response,,,,17,F,,,,,,Space,keypress(Space),,,,lyrical,,,,-------------- --- -------- -------- ---------- have -------<br>-- ---------- -- --- ----- ------ ----- ---- --------- ----<br>------- ------ -------- -- ------ ---------- ------ ---<br>------ -- -- ---- -- ---------- -------- ------ ---- -------<br>---- --- --------- ------- ----- --------- ---- ----- --<br>------ -------- -- ------ -- ---- ------------,251222,251221.70000000298,250516.015,250520,250523.045,251224.853,,5,have
screen,html.Screen,2_3_1_0_1_6,2022-05-09T15:37:16.279Z,,,,,,,,,,,,,,,,,19,,,,,,,,,,,,,,862.8470000029774,,response,,,,17,F,,,,,,Space,keypress(Space),,,,lyrical,,,,-------------- --- -------- -------- ---------- ---- managed<br>-- ---------- -- --- ----- ------ ----- ---- --------- ----<br>------- ------ -------- -- ------ ---------- ------ ---<br>------ -- -- ---- -- ---------- -------- ------ ---- -------<br>---- --- --------- ------- ----- --------- ---- ----- --<br>------ -------- -- ------ -- ---- ------------,252088,252087.70000000298,251217.842,251222.1000000015,251224.853,252093.436,,6,managed
screen,html.Screen,2_3_1_0_1_7,2022-05-09T15:37:16.633Z,,,,,,,,,,,,,,,,,19,,,,,,,,,,,,,,348.26400000299327,,response,,,,17,F,,,,,,Space,keypress(Space),,,,lyrical,,,,-------------- --- -------- -------- ---------- ---- -------<br>to ---------- -- --- ----- ------ ----- ---- --------- ----<br>------- ------ -------- -- ------ ---------- ------ ---<br>------ -- -- ---- -- ---------- -------- ------ ---- -------<br>---- --- --------- ------- ----- --------- ---- ----- --<br>------ -------- -- ------ -- ---- ------------,252442,252441.70000000298,252086.401,252088,252093.436,252447.824,,7,to
screen,html.Screen,2_3_1_0_1_8,2022-05-09T15:37:17.095Z,,,,,,,,,,,,,,,,,19,,,,,,,,,,,,,,455.77600000149687,,response,,,,17,F,,,,,,Space,keypress(Space),,,,lyrical,,,,-------------- --- -------- -------- ---------- ---- -------<br>-- synthesize -- --- ----- ------ ----- ---- --------- ----<br>------- ------ -------- -- ------ ---------- ------ ---<br>------ -- -- ---- -- ---------- -------- ------ ---- -------<br>---- --- --------- ------- ----- --------- ---- ----- --<br>------ -------- -- ------ -- ---- ------------,252903.8999999985,252903.6000000015,252440.826,252442,252447.824,252906.425,,8,synthesize
screen,html.Screen,2_3_1_0_1_9,2022-05-09T15:37:17.511Z,,,,,,,,,,,,,,,,,19,,,,,,,,,,,,,,413.2750000029919,,response,,,,17,F,,,,,,Space,keypress(Space),,,,lyrical,,,,-------------- --- -------- -------- ---------- ---- -------<br>-- ---------- so --- ----- ------ ----- ---- --------- ----<br>------- ------ -------- -- ------ ---------- ------ ---<br>------ -- -- ---- -- ---------- -------- ------ ---- -------<br>---- --- --------- ------- ----- --------- ---- ----- --<br>------ -------- -- ------ -- ---- ------------,253320,253319.70000000298,252899.428,252904.1000000015,252906.425,253323.345,,9,so
screen,html.Screen,2_3_1_0_1_10,2022-05-09T15:37:18.019Z,,,,,,,,,,,,,,,,,19,,,,,,,,,,,,,,504.35500000297907,,response,,,,17,F,,,,,,Space,keypress(Space),,,,lyrical,,,,-------------- --- -------- -------- ---------- ---- -------<br>-- ---------- -- far ----- ------ ----- ---- --------- ----<br>------- ------ -------- -- ------ ---------- ------ ---<br>------ -- -- ---- -- ---------- -------- ------ ---- -------<br>---- --- --------- ------- ----- --------- ---- ----- --<br>------ -------- -- ------ -- ---- ------------,253827.8999999985,253827.70000000298,253316.355,253320,253323.345,253830.601,,10,far
screen,html.Screen,2_3_1_0_1_11,2022-05-09T15:37:18.686Z,,,,,,,,,,,,,,,,,19,,,,,,,,,,,,,,663.999000001495,,response,,,,17,F,,,,,,Space,keypress(Space),,,,lyrical,,,,-------------- --- -------- -------- ---------- ---- -------<br>-- ---------- -- --- don't ------ ----- ---- --------- ----<br>------- ------ -------- -- ------ ---------- ------ ---<br>------ -- -- ---- -- ---------- -------- ------ ---- -------<br>---- --- --------- ------- ----- --------- ---- ----- --<br>------ -------- -- ------ -- ---- ------------,254495,254494.6000000015,253823.599,253827.8999999985,253830.601,254497.669,,11,don't
screen,html.Screen,2_3_1_0_1_12,2022-05-09T15:37:18.971Z,,,,,,,,,,,,,,,,,19,,,,,,,,,,,,,,282.0310000029858,,response,,,,17,F,,,,,,Space,keypress(Space),,,,lyrical,,,,-------------- --- -------- -------- ---------- ---- -------<br>-- ---------- -- --- ----- behave ----- ---- --------- ----<br>------- ------ -------- -- ------ ---------- ------ ---<br>------ -- -- ---- -- ---------- -------- ------ ---- -------<br>---- --- --------- ------- ----- --------- ---- ----- --<br>------ -------- -- ------ -- ---- ------------,254780,254779.70000000298,254490.65,254495.1000000015,254497.669,254782.592,,12,behave
screen,html.Screen,2_3_1_0_1_13,2022-05-09T15:37:19.347Z,,,,,,,,,,,,,,,,,19,,,,,,,,,,,,,,373.0080000014859,,response,,,,17,F,,,,,,Space,keypress(Space),,,,lyrical,,,,-------------- --- -------- -------- ---------- ---- -------<br>-- ---------- -- --- ----- ------ quite ---- --------- ----<br>------- ------ -------- -- ------ ---------- ------ ---<br>------ -- -- ---- -- ---------- -------- ------ ---- -------<br>---- --- --------- ------- ----- --------- ---- ----- --<br>------ -------- -- ------ -- ---- ------------,255155.8999999985,255155.6000000015,254775.567,254780.1000000015,254782.592,255157.785,,13,quite
screen,html.Screen,2_3_1_0_1_14,2022-05-09T15:37:19.690Z,,,,,,,,,,,,,,,,,19,,,,,,,,,,,,,,341.1149999985064,,response,,,,17,F,,,,,,Space,keypress(Space),,,,lyrical,,,,-------------- --- -------- -------- ---------- ---- -------<br>-- ---------- -- --- ----- ------ ----- like --------- ----<br>------- ------ -------- -- ------ ---------- ------ ---<br>------ -- -- ---- -- ---------- -------- ------ ---- -------<br>---- --- --------- ------- ----- --------- ---- ----- --<br>------ -------- -- ------ -- ---- ------------,255499.29999999702,255498.8999999985,255150.785,255156,255157.785,255505.221,,14,like
screen,html.Screen,2_3_1_0_1_15,2022-05-09T15:37:19.952Z,,,,,,,,,,,,,,,,,19,,,,,,,,,,,,,,255.47900000298978,,response,,,,17,F,,,,,,Space,keypress(Space),,,,lyrical,,,,-------------- --- -------- -------- ---------- ---- -------<br>-- ---------- -- --- ----- ------ ----- ---- science's ----<br>------- ------ -------- -- ------ ---------- ------ ---<br>------ -- -- ---- -- ---------- -------- ------ ---- -------<br>---- --- --------- ------- ----- --------- ---- ----- --<br>------ -------- -- ------ -- ---- ------------,255761,255760.70000000298,255498.233,255499.29999999702,255505.221,255762.324,,15,science's
screen,html.Screen,2_3_1_0_1_16,2022-05-09T15:37:20.363Z,,,,,,,,,,,,,,,,,19,,,,,,,,,,,,,,409.376000002987,,response,,,,17,F,,,,,,Space,keypress(Space),,,,lyrical,,,,-------------- --- -------- -------- ---------- ---- -------<br>-- ---------- -- --- ----- ------ ----- ---- --------- best<br>------- ------ -------- -- ------ ---------- ------ ---<br>------ -- -- ---- -- ---------- -------- ------ ---- -------<br>---- --- --------- ------- ----- --------- ---- ----- --<br>------ -------- -- ------ -- ---- ------------,256172,256171.70000000298,255755.343,255761.1000000015,255762.324,256179.24,,16,best
screen,html.Screen,2_3_1_0_1_17,2022-05-09T15:37:20.773Z,,,,,,,,,,,,,,,,,19,,,,,,,,,,,,,,402.7600000000093,,response,,,,17,F,,,,,,Space,keypress(Space),,,,lyrical,,,,-------------- --- -------- -------- ---------- ---- -------<br>-- ---------- -- --- ----- ------ ----- ---- --------- ----<br>current ------ -------- -- ------ ---------- ------ ---<br>------ -- -- ---- -- ---------- -------- ------ ---- -------<br>---- --- --------- ------- ----- --------- ---- ----- --<br>------ -------- -- ------ -- ---- ------------,256582.29999999702,256582,256172.238,256172.20000000298,256179.24,256589.215,,17,current
screen,html.Screen,2_3_1_0_1_18,2022-05-09T15:37:21.435Z,,,,,,,,,,,,,,,,,19,,,,,,,,,,,,,,654.4850000029837,,response,,,,17,F,,,,,,Space,keypress(Space),,,,lyrical,,,,-------------- --- -------- -------- ---------- ---- -------<br>-- ---------- -- --- ----- ------ ----- ---- --------- ----<br>------- models -------- -- ------ ---------- ------ ---<br>------ -- -- ---- -- ---------- -------- ------ ---- -------<br>---- --- --------- ------- ----- --------- ---- ----- --<br>------ -------- -- ------ -- ---- ------------,257244.1000000015,257243.70000000298,256582.22,256582.3999999985,256589.215,257249.332,,18,models
screen,html.Screen,2_3_1_0_1_19,2022-05-09T15:37:21.914Z,,,,,,,,,,,,,,,,,19,,,,,,,,,,,,,,473.36800000298535,,response,,,,17,F,,,,,,Space,keypress(Space),,,,lyrical,,,,"-------------- --- -------- -------- ---------- ---- -------<br>-- ---------- -- --- ----- ------ ----- ---- --------- ----<br>------- ------ predict, -- ------ ---------- ------ ---<br>------ -- -- ---- -- ---------- -------- ------ ---- -------<br>---- --- --------- ------- ----- --------- ---- ----- --<br>------ -------- -- ------ -- ---- ------------",257723.1000000015,257722.70000000298,257242.315,257244.1000000015,257249.332,257728.783,,19,"predict,"
screen,html.Screen,2_3_1_0_1_20,2022-05-09T15:37:22.376Z,,,,,,,,,,,,,,,,,19,,,,,,,,,,,,,,456.1169999985141,,response,,,,17,F,,,,,,Space,keypress(Space),,,,lyrical,,,,-------------- --- -------- -------- ---------- ---- -------<br>-- ---------- -- --- ----- ------ ----- ---- --------- ----<br>------- ------ -------- so ------ ---------- ------ ---<br>------ -- -- ---- -- ---------- -------- ------ ---- -------<br>---- --- --------- ------- ----- --------- ---- ----- --<br>------ -------- -- ------ -- ---- ------------,258185.20000000298,258184.8999999985,257721.781,257723.1000000015,257728.783,258187.44,,20,so
screen,html.Screen,2_3_1_0_1_21,2022-05-09T15:37:22.781Z,,,,,,,,,,,,,,,,,19,,,,,,,,,,,,,,402.35999999701744,,response,,,,17,F,,,,,,Space,keypress(Space),,,,lyrical,,,,-------------- --- -------- -------- ---------- ---- -------<br>-- ---------- -- --- ----- ------ ----- ---- --------- ----<br>------- ------ -------- -- stable ---------- ------ ---<br>------ -- -- ---- -- ---------- -------- ------ ---- -------<br>---- --- --------- ------- ----- --------- ---- ----- --<br>------ -------- -- ------ -- ---- ------------,258590.1000000015,258589.79999999702,258180.391,258185.29999999702,258187.44,258597.365,,21,stable
screen,html.Screen,2_3_1_0_1_22,2022-05-09T15:37:23.180Z,,,,,,,,,,,,,,,,,19,,,,,,,,,,,,,,391.5349999985192,,response,,,,17,F,,,,,,Space,keypress(Space),,,,lyrical,,,,-------------- --- -------- -------- ---------- ---- -------<br>-- ---------- -- --- ----- ------ ----- ---- --------- ----<br>------- ------ -------- -- ------ superheavy ------ ---<br>------ -- -- ---- -- ---------- -------- ------ ---- -------<br>---- --- --------- ------- ----- --------- ---- ----- --<br>------ -------- -- ------ -- ---- ------------,258989.20000000298,258988.8999999985,258590.369,258590.29999999702,258597.365,258993.435,,22,superheavy
screen,html.Screen,2_3_1_0_1_23,2022-05-09T15:37:23.881Z,,,,,,,,,,,,,,,,,19,,,,,,,,,,,,,,696.3649999970221,,response,,,,17,F,,,,,,Space,keypress(Space),,,,lyrical,,,,-------------- --- -------- -------- ---------- ---- -------<br>-- ---------- -- --- ----- ------ ----- ---- --------- ----<br>------- ------ -------- -- ------ ---------- nuclei ---<br>------ -- -- ---- -- ---------- -------- ------ ---- -------<br>---- --- --------- ------- ----- --------- ---- ----- --<br>------ -------- -- ------ -- ---- ------------,259690.1000000015,259689.79999999702,258986.446,258989.29999999702,258993.435,259695.251,,23,nuclei
screen,html.Screen,2_3_1_0_1_24,2022-05-09T15:37:24.207Z,,,,,,,,,,,,,,,,,19,,,,,,,,,,,,,,320.5489999970305,,response,,,,17,F,,,,,,Space,keypress(Space),,,,lyrical,,,,-------------- --- -------- -------- ---------- ---- -------<br>-- ---------- -- --- ----- ------ ----- ---- --------- ----<br>------- ------ -------- -- ------ ---------- ------ are<br>------ -- -- ---- -- ---------- -------- ------ ---- -------<br>---- --- --------- ------- ----- --------- ---- ----- --<br>------ -------- -- ------ -- ---- ------------,260016.1000000015,260015.79999999702,259688.224,259690.20000000298,259695.251,260021.833,,24,are
screen,html.Screen,2_3_1_0_1_25,2022-05-09T15:37:24.440Z,,,,,,,,,,,,,,,,,19,,,,,,,,,,,,,,227.0669999984966,,response,,,,17,F,,,,,,Space,keypress(Space),,,,lyrical,,,,-------------- --- -------- -------- ---------- ---- -------<br>-- ---------- -- --- ----- ------ ----- ---- --------- ----<br>------- ------ -------- -- ------ ---------- ------ ---<br>likely -- -- ---- -- ---------- -------- ------ ---- -------<br>---- --- --------- ------- ----- --------- ---- ----- --<br>------ -------- -- ------ -- ---- ------------,260249.20000000298,260248.8999999985,260014.844,260016.20000000298,260021.833,260251.139,,25,likely
screen,html.Screen,2_3_1_0_1_26,2022-05-09T15:37:24.817Z,,,,,,,,,,,,,,,,,19,,,,,,,,,,,,,,374.6609999970242,,response,,,,17,F,,,,,,Space,keypress(Space),,,,lyrical,,,,-------------- --- -------- -------- ---------- ---- -------<br>-- ---------- -- --- ----- ------ ----- ---- --------- ----<br>------- ------ -------- -- ------ ---------- ------ ---<br>------ to -- ---- -- ---------- -------- ------ ---- -------<br>---- --- --------- ------- ----- --------- ---- ----- --<br>------ -------- -- ------ -- ---- ------------,260626.1000000015,260625.79999999702,260244.157,260249.20000000298,260251.139,260633.327,,26,to
screen,html.Screen,2_3_1_0_1_27,2022-05-09T15:37:25.016Z,,,,,,,,,,,,,,,,,19,,,,,,,,,,,,,,191.37300000299,,response,,,,17,F,,,,,,Space,keypress(Space),,,,lyrical,,,,-------------- --- -------- -------- ---------- ---- -------<br>-- ---------- -- --- ----- ------ ----- ---- --------- ----<br>------- ------ -------- -- ------ ---------- ------ ---<br>------ -- be ---- -- ---------- -------- ------ ---- -------<br>---- --- --------- ------- ----- --------- ---- ----- --<br>------ -------- -- ------ -- ---- ------------,260825.20000000298,260824.70000000298,260626.325,260626.20000000298,260633.327,260827.87,,27,be
screen,html.Screen,2_3_1_0_1_28,2022-05-09T15:37:25.324Z,,,,,,,,,,,,,,,,,19,,,,,,,,,,,,,,305.2300000014948,,response,,,,17,F,,,,,,Space,keypress(Space),,,,lyrical,,,,-------------- --- -------- -------- ---------- ---- -------<br>-- ---------- -- --- ----- ------ ----- ---- --------- ----<br>------- ------ -------- -- ------ ---------- ------ ---<br>------ -- -- full -- ---------- -------- ------ ---- -------<br>---- --- --------- ------- ----- --------- ---- ----- --<br>------ -------- -- ------ -- ---- ------------,261133.3999999985,261133.1000000015,260820.888,260825.20000000298,260827.87,261140.562,,28,full
screen,html.Screen,2_3_1_0_1_29,2022-05-09T15:37:25.695Z,,,,,,,,,,,,,,,,,19,,,,,,,,,,,,,,363.33799999850453,,response,,,,17,F,,,,,,Space,keypress(Space),,,,lyrical,,,,-------------- --- -------- -------- ---------- ---- -------<br>-- ---------- -- --- ----- ------ ----- ---- --------- ----<br>------- ------ -------- -- ------ ---------- ------ ---<br>------ -- -- ---- of ---------- -------- ------ ---- -------<br>---- --- --------- ------- ----- --------- ---- ----- --<br>------ -------- -- ------ -- ---- ------------,261504.20000000298,261503.8999999985,261133.578,261133.3999999985,261140.562,261508.839,,29,of
screen,html.Screen,2_3_1_0_1_30,2022-05-09T15:37:26.134Z,,,,,,,,,,,,,,,,,19,,,,,,,,,,,,,,433.96099999701255,,response,,,,17,F,,,,,,Space,keypress(Space),,,,lyrical,,,,-------------- --- -------- -------- ---------- ---- -------<br>-- ---------- -- --- ----- ------ ----- ---- --------- ----<br>------- ------ -------- -- ------ ---------- ------ ---<br>------ -- -- ---- -- surprises. -------- ------ ---- -------<br>---- --- --------- ------- ----- --------- ---- ----- --<br>------ -------- -- ------ -- ---- ------------,261943.1000000015,261942.79999999702,261501.852,261504.20000000298,261508.839,261946.602,,30,surprises.
screen,html.Screen,2_3_1_0_1_31,2022-05-09T15:37:26.693Z,,,,,,,,,,,,,,,,,19,,,,,,,,,,,,,,555.1979999970063,,response,,,,17,F,,,,,,Space,keypress(Space),,,,lyrical,,,,-------------- --- -------- -------- ---------- ---- -------<br>-- ---------- -- --- ----- ------ ----- ---- --------- ----<br>------- ------ -------- -- ------ ---------- ------ ---<br>------ -- -- ---- -- ---------- Chemists ------ ---- -------<br>---- --- --------- ------- ----- --------- ---- ----- --<br>------ -------- -- ------ -- ---- ------------,262502.200000003,262501.799999997,261939.611,261943.20000000298,261946.602,262509.453,,31,Chemists
screen,html.Screen,2_3_1_0_1_32,2022-05-09T15:37:27.263Z,,,,,,,,,,,,,,,,,19,,,,,,,,,,,,,,562.3469999970403,,response,,,,17,F,,,,,,Space,keypress(Space),,,,lyrical,,,,-------------- --- -------- -------- ---------- ---- -------<br>-- ---------- -- --- ----- ------ ----- ---- --------- ----<br>------- ------ -------- -- ------ ---------- ------ ---<br>------ -- -- ---- -- ---------- -------- cannot ---- -------<br>---- --- --------- ------- ----- --------- ---- ----- --<br>------ -------- -- ------ -- ---- ------------,263072.1000000015,263071.799999997,262502.433,262502.200000003,262509.453,263079.234,,32,cannot
screen,html.Screen,2_3_1_0_1_33,2022-05-09T15:37:27.531Z,,,,,,,,,,,,,,,,,19,,,,,,,,,,,,,,260.66599999851314,,response,,,,17,F,,,,,,Space,keypress(Space),,,,lyrical,,,,-------------- --- -------- -------- ---------- ---- -------<br>-- ---------- -- --- ----- ------ ----- ---- --------- ----<br>------- ------ -------- -- ------ ---------- ------ ---<br>------ -- -- ---- -- ---------- -------- ------ even -------<br>---- --- --------- ------- ----- --------- ---- ----- --<br>------ -------- -- ------ -- ---- ------------,263340.200000003,263339.8999999985,263072.222,263072.200000003,263079.234,263343.308,,33,even
screen,html.Screen,2_3_1_0_1_34,2022-05-09T15:37:27.908Z,,,,,,,,,,,,,,,,,19,,,,,,,,,,,,,,373.5919999984908,,response,,,,17,F,,,,,,Space,keypress(Space),,,,lyrical,,,,-------------- --- -------- -------- ---------- ---- -------<br>-- ---------- -- --- ----- ------ ----- ---- --------- ----<br>------- ------ -------- -- ------ ---------- ------ ---<br>------ -- -- ---- -- ---------- -------- ------ ---- predict<br>---- --- --------- ------- ----- --------- ---- ----- --<br>------ -------- -- ------ -- ---- ------------,263717.200000003,263716.8999999985,263336.305,263340.200000003,263343.308,263718.529,,34,predict
screen,html.Screen,2_3_1_0_1_35,2022-05-09T15:37:28.244Z,,,,,,,,,,,,,,,,,19,,,,,,,,,,,,,,334.2709999970393,,response,,,,17,F,,,,,,Space,keypress(Space),,,,lyrical,,,,-------------- --- -------- -------- ---------- ---- -------<br>-- ---------- -- --- ----- ------ ----- ---- --------- ----<br>------- ------ -------- -- ------ ---------- ------ ---<br>------ -- -- ---- -- ---------- -------- ------ ---- -------<br>with --- --------- ------- ----- --------- ---- ----- --<br>------ -------- -- ------ -- ---- ------------,264053.200000003,264052.799999997,263711.524,263717.200000003,263718.529,264058.991,,35,with
screen,html.Screen,2_3_1_0_1_36,2022-05-09T15:37:28.535Z,,,,,,,,,,,,,,,,,19,,,,,,,,,,,,,,284.9089999985299,,response,,,,17,F,,,,,,Space,keypress(Space),,,,lyrical,,,,-------------- --- -------- -------- ---------- ---- -------<br>-- ---------- -- --- ----- ------ ----- ---- --------- ----<br>------- ------ -------- -- ------ ---------- ------ ---<br>------ -- -- ---- -- ---------- -------- ------ ---- -------<br>---- any --------- ------- ----- --------- ---- ----- --<br>------ -------- -- ------ -- ---- ------------,264344.200000003,264343.8999999985,264051.998,264053.200000003,264058.991,264350.841,,36,any
screen,html.Screen,2_3_1_0_1_37,2022-05-09T15:37:29.020Z,,,,,,,,,,,,,,,,,19,,,,,,,,,,,,,,478.058999998495,,response,,,,17,F,,,,,,Space,keypress(Space),,,,lyrical,,,,-------------- --- -------- -------- ---------- ---- -------<br>-- ---------- -- --- ----- ------ ----- ---- --------- ----<br>------- ------ -------- -- ------ ---------- ------ ---<br>------ -- -- ---- -- ---------- -------- ------ ---- -------<br>---- --- certainty ------- ----- --------- ---- ----- --<br>------ -------- -- ------ -- ---- ------------,264829.200000003,264828.8999999985,264343.849,264344.200000003,264350.841,264851.131,,37,certainty
screen,html.Screen,2_3_1_0_1_38,2022-05-09T15:37:29.482Z,,,,,,,,,,,,,,,,,19,,,,,,,,,,,,,,439.86900000000605,,response,,,,17,F,,,,,,Space,keypress(Space),,,,lyrical,,,,-------------- --- -------- -------- ---------- ---- -------<br>-- ---------- -- --- ----- ------ ----- ---- --------- ----<br>------- ------ -------- -- ------ ---------- ------ ---<br>------ -- -- ---- -- ---------- -------- ------ ---- -------<br>---- --- --------- whether ----- --------- ---- ----- --<br>------ -------- -- ------ -- ---- ------------,265291.200000003,265291,264823.285,264829.200000003,264851.131,265295.846,,38,whether
screen,html.Screen,2_3_1_0_1_39,2022-05-09T15:37:29.807Z,,,,,,,,,,,,,,,,,19,,,,,,,,,,,,,,320.15399999998044,,response,,,,17,F,,,,,,Space,keypress(Space),,,,lyrical,,,,-------------- --- -------- -------- ---------- ---- -------<br>-- ---------- -- --- ----- ------ ----- ---- --------- ----<br>------- ------ -------- -- ------ ---------- ------ ---<br>------ -- -- ---- -- ---------- -------- ------ ---- -------<br>---- --- --------- ------- these --------- ---- ----- --<br>------ -------- -- ------ -- ---- ------------,265616.299999997,265616,265288.843,265291.299999997,265295.846,265622.437,,39,these
