sender,sender_type,sender_id,timestamp,meta,,Blues,Classical,Country,Dance,Electronic,Folk,Gospel,Hip-Hop,Jazz,Latin,Musical/Film,New-age,Pop,Prolific_id,Provo_ID,R&B,Rap,Reggae,Religious,Rock,Soul,Swing,Traditional,age,artist_name,correct,correctResponse,distraction,duration,education,ended_on,familiarity,gender,headphone_check_performance,item,list,music_frequency,offensiveness,pleasantness,position_correct,preference,response,response_action,snippet_file,song_name,song_rating,sound,stimulus_1,stimulus_2,stimulus_3,text,time_commit,time_end,time_render,time_run,time_show,time_switch,url,word,word_ID
Prolific ID,html.Form,0,2022-04-27T19:49:49.563Z,"{""labjs_version"":""20.2.2"",""labjs_build"":{""flavor"":""production"",""commit"":""a25486e0c714a0ae2ce03ff94b7bb6896854dcfa""},""location"":""https://run.pavlovia.org/mvasilev/prolific3_music_c/"",""userAgent"":""Mozilla/5.0 (Windows NT 10.0; Win64; x64) AppleWebKit/537.36 (KHTML, like Gecko) Chrome/100.0.4896.127 Safari/537.36"",""platform"":""Win32"",""language"":""en-GB"",""locale"":""en-GB"",""timeZone"":""Europe/London"",""timezoneOffset"":-60,""screen_width"":1536,""screen_height"":864,""scroll_width"":1536,""scroll_height"":674,""window_innerWidth"":1536,""window_innerHeight"":722,""devicePixelRatio"":1.25}",,,,,,,,,,,,,,,5fbfffc4e214a60ab1b745fd,,,,,,,,,,,,,,,6707.669999928474,,form submission,,,,,,,,,,,,,,,,,,,,,21723.5,21723.199999928474,14998.864,14999.799999952316,15015.53,21726.717,{},,
Introduction,html.Screen,1_0,2022-04-27T19:49:53.818Z,,,,,,,,,,,,,,,,,,,,,,,,,,,,,,,4249.882999904632,,response,,,,,,,,,,,continue,click button,,,,,,,,,25978.299999952316,25976.599999904633,21710.051,21723.699999928474,21726.717,25992.057,,,
Volume calibration,html.Screen,1_1,2022-04-27T19:50:03.855Z,,,,,,,,,,,,,,,,,,,,,,,,,,,,,,,10021.642999928474,,response,,,,,,,,,,,continue,click button,,,,,,,,,36015.799999952316,36013.699999928474,25975.391,25978.5,25992.057,36021.792,,,
Task instructions,html.Screen,1_2,2022-04-27T19:50:06.689Z,,,,,,,,,,,,,,,,,,,,,,,,,,,,,,,2825.107999976157,,response,,,,,,,,,,,continue,click button,,,,,,,,,38849,38846.89999997616,36005.126,36015.89999997616,36021.792,38854.192,,,
Sounds,html.Screen,1_3_0_0,2022-04-27T19:50:10.928Z,,,,,,,,,,,,,,,,,,,,,,,,,,,,,,,4249.466,,timeout,,,,,,,,,2,,,,,,,,I,S,O,,43088.299999952316,43086.992,38837.526,38849.09999990463,38854.192,43103.658,,,
Judgement,html.Screen,1_3_0_1,2022-04-27T19:50:11.803Z,,,,,,,,,,,,,,,,,,,,,,,,,,,,true,2,,857.8419999999969,,response,,,,,,,,,2,,2,click #choice-2,,,,,I,S,O,,43963,43961.5,43086.992,43088.39999997616,43103.658,43969.014,,,
Trial,flow.Sequence,1_3_0,2022-04-27T19:50:11.803Z,,,,,,,,,,,,,,,,,,,,,,,,,,,,,,,5107.307999999997,,completion,,,,,,,,,2,,,,,,,,I,S,O,,43963.199999928474,43961.5,38837.526,38849.09999990463,38854.192,43969.014,,,
Sounds,html.Screen,1_3_1_0,2022-04-27T19:50:16.043Z,,,,,,,,,,,,,,,,,,,,,,,,,,,,,,,4249.725999999995,,timeout,,,,,,,,,2,,,,,,,,O,S,I,,48203.09999990463,48202.074,43952.348,43963.5,43969.014,48218.74,,,
Judgement,html.Screen,1_3_1_1,2022-04-27T19:50:16.822Z,,,,,,,,,,,,,,,,,,,,,,,,,,,,true,2,,761.9599999284765,,response,,,,,,,,,2,,2,click #choice-2,,,,,O,S,I,,48982.699999928474,48980.699999928474,48202.074,48203.09999990463,48218.74,48983.89,,,
Trial,flow.Sequence,1_3_1,2022-04-27T19:50:16.823Z,,,,,,,,,,,,,,,,,,,,,,,,,,,,,,,5011.685999928472,,completion,,,,,,,,,2,,,,,,,,O,S,I,,48983,48980.699999928474,43952.348,43963.299999952316,43969.014,48983.89,,,
Sounds,html.Screen,1_3_2_0,2022-04-27T19:50:21.058Z,,,,,,,,,,,,,,,,,,,,,,,,,,,,,,,4249.679000000004,,timeout,,,,,,,,,3,,,,,,,,O,I,S,,53218.199999928474,53216.903,48967.224,48983.09999990463,48983.89,53233.569,,,
Judgement,html.Screen,1_3_2_1,2022-04-27T19:50:21.815Z,,,,,,,,,,,,,,,,,,,,,,,,,,,,true,3,,739.9309999999969,,response,,,,,,,,,3,,3,click #choice-3,,,,,O,I,S,,53975.89999997616,53973.5,53216.903,53218.299999952316,53233.569,53982.161,,,
Trial,flow.Sequence,1_3_2,2022-04-27T19:50:21.816Z,,,,,,,,,,,,,,,,,,,,,,,,,,,,,,,4989.610000000001,,completion,,,,,,,,,3,,,,,,,,O,I,S,,53976.09999990463,53973.5,48967.224,48983.09999990463,48983.89,53982.161,,,
Sounds,html.Screen,1_3_3_0,2022-04-27T19:50:26.056Z,,,,,,,,,,,,,,,,,,,,,,,,,,,,,,,4249.775999999998,,timeout,,,,,,,,,3,,,,,,,,I,O,S,,58216.09999990463,58215.271,53965.495,53976.199999928474,53982.161,58231.937,,,
Judgement,html.Screen,1_3_3_1,2022-04-27T19:50:26.707Z,,,,,,,,,,,,,,,,,,,,,,,,,,,,true,3,,633.7629999284763,,response,,,,,,,,,3,,3,click #choice-3,,,,,I,O,S,,58867.39999997616,58865.699999928474,58215.271,58216.09999990463,58231.937,58880.437,,,
Trial,flow.Sequence,1_3_3,2022-04-27T19:50:26.707Z,,,,,,,,,,,,,,,,,,,,,,,,,,,,,,,4883.538999928474,,completion,,,,,,,,,3,,,,,,,,I,O,S,,58867.5,58865.699999928474,53965.495,53976.199999928474,53982.161,58880.437,,,
Sounds,html.Screen,1_3_4_0,2022-04-27T19:50:30.955Z,,,,,,,,,,,,,,,,,,,,,,,,,,,,,,,4249.774000000005,,timeout,,,,,,,,,1,,,,,,,,S,O,I,,63115.199999928474,63113.545,58863.771,58867.59999990463,58880.437,63130.211,,,
Judgement,html.Screen,1_3_4_1,2022-04-27T19:50:31.594Z,,,,,,,,,,,,,,,,,,,,,,,,,,,,true,1,,623.0889999523133,,response,,,,,,,,,1,,1,click #choice-1,,,,,S,O,I,,63754.89999997616,63753.299999952316,63113.545,63115.39999997616,63130.211,63762.14,,,
Trial,flow.Sequence,1_3_4,2022-04-27T19:50:31.595Z,,,,,,,,,,,,,,,,,,,,,,,,,,,,,,,4872.862999952318,,completion,,,,,,,,,1,,,,,,,,S,O,I,,63755,63753.299999952316,58863.771,58867.59999990463,58880.437,63762.14,,,
Sounds,html.Screen,1_3_5_0,2022-04-27T19:50:35.837Z,,,,,,,,,,,,,,,,,,,,,,,,,,,,,,,4249.714000000007,,timeout,,,,,,,,,1,,,,,,,,S,I,O,,67997.59999990463,67995.188,63745.474,63755,63762.14,68011.854,,,
Judgement,html.Screen,1_3_5_1,2022-04-27T19:50:36.509Z,,,,,,,,,,,,,,,,,,,,,,,,,,,,true,1,,655.7459999046259,,response,,,,,,,,,1,,1,click #choice-1,,,,,S,I,O,,68669.29999995232,68667.59999990463,67995.188,67997.69999992847,68011.854,68677.084,,,
Trial,flow.Sequence,1_3_5,2022-04-27T19:50:36.509Z,,,,,,,,,,,,,,,,,,,,,,,,,,,,,,,4905.459999904633,,completion,,,,,,,,,1,,,,,,,,S,I,O,,68669.39999997616,68667.59999990463,63745.474,63755,63762.14,68677.084,,,
Task,flow.Loop,1_3,2022-04-27T19:50:36.513Z,,,,,,,,,,,,,,,,,,,,,,,,,,,,,,,29813.40799990463,,completion,,,1,,,,,,,,,,,,,,,,,,68673.29999995232,68667.59999990463,38837.526,38849.09999990463,38854.192,68677.084,,,
Trap,html.Screen,1_4,2022-04-27T19:50:36.514Z,,,,,,,,,,,,,,,,,,,,,,,,,,,,,,,NaN,,skipped,,,,,,,,,,,,,,,,,,,,,68674.19999992847,68667.59999990463,,68674.19999992847,,68677.084,,,
Thanks,html.Screen,1_5,2022-04-27T19:50:39.160Z,,,,,,,,,,,,,,,,,,,,,,,,,,,,,,,2640.8159999761556,,response,,,,,,,,,,,continue,click button,,,,,,,,,71320,71317.89999997616,68660.418,68674.29999995232,68677.084,73342.491,,,
Headphone screening,flow.Sequence,1,2022-04-27T19:50:39.160Z,,,,,,,,,,,,,,,,,,,,,,,,,,,,,,,49591.182999976154,,completion,,,,,,,,,,,,,,,,,,,,,71320.19999992847,71317.89999997616,21710.051,21723.699999928474,21726.717,73342.491,,,
Instructions,html.Page,2_0,2022-04-27T19:50:57.755Z,,,,,,,,,,,,,,,,,,,,,,,,,,,,,,,16572.408999976164,,form submission,,,,,,,,,,,,,,,,,,,,,89915.59999990463,89914.89999997616,73325.825,73340.79999995232,73342.491,89919.745,,,
Holding screen,html.Screen,2_1_0_0,2022-04-27T19:51:07.741Z,,,,,,,,,,,,,,,,,,,,,,,,,,,,,,,9996.822,,timeout,,,,,,,,,,,,,,,,,,,,,99901.69999992847,99899.901,89903.079,89915.69999992847,89919.745,99916.567,,,
screen,html.Screen,2_1_0_1_0,2022-04-27T19:51:08.635Z,,,,,,,,,,,,,,,,,53,,,,,,,,,,,,,,877.632999928479,,response,,,,99,,,,,,,Space,keypress(Space),,,,,,,,When -- ----- -- ------ - ------- --- ----------<br>------------- ------ ------ ---- ---- ------- ----- -- ----<br>-------- ------- -- ---------- --- - --- ----- ----- ----<br>---- --- --- ----- --- ---- ---- ------- ----- ---- -------<br>--- --- -- ----- -- --- ---- -- --- ---- -- ------ ------<br>--- ----- -- ----,100796.09999990463,100794.19999992847,99899.901,99901.79999995232,99916.567,100799.52,,0,When
screen,html.Screen,2_1_0_1_1,2022-04-27T19:51:08.950Z,,,,,,,,,,,,,,,,,53,,,,,,,,,,,,,,310.2799999523122,,response,,,,99,,,,,,,Space,keypress(Space),,,,,,,,---- it ----- -- ------ - ------- --- ----------<br>------------- ------ ------ ---- ---- ------- ----- -- ----<br>-------- ------- -- ---------- --- - --- ----- ----- ----<br>---- --- --- ----- --- ---- ---- ------- ----- ---- -------<br>--- --- -- ----- -- --- ---- -- --- ---- -- ------ ------<br>--- ----- -- ----,101110.39999997616,101109.79999995232,100782.854,100796.19999992847,100799.52,101115.924,,1,it
screen,html.Screen,2_1_0_1_2,2022-04-27T19:51:09.250Z,,,,,,,,,,,,,,,,,53,,,,,,,,,,,,,,294.27599992847536,,response,,,,99,,,,,,,Space,keypress(Space),,,,,,,,---- -- comes -- ------ - ------- --- ----------<br>------------- ------ ------ ---- ---- ------- ----- -- ----<br>-------- ------- -- ---------- --- - --- ----- ----- ----<br>---- --- --- ----- --- ---- ---- ------- ----- ---- -------<br>--- --- -- ----- -- --- ---- -- --- ---- -- ------ ------<br>--- ----- -- ----,101410.79999995232,101410.19999992847,101099.258,101110.5,101115.924,101415.621,,2,comes
screen,html.Screen,2_1_0_1_3,2022-04-27T19:51:09.527Z,,,,,,,,,,,,,,,,,53,,,,,,,,,,,,,,271.6789999523171,,response,,,,99,,,,,,,Space,keypress(Space),,,,,,,,---- -- ----- to ------ - ------- --- ----------<br>------------- ------ ------ ---- ---- ------- ----- -- ----<br>-------- ------- -- ---------- --- - --- ----- ----- ----<br>---- --- --- ----- --- ---- ---- ------- ----- ---- -------<br>--- --- -- ----- -- --- ---- -- --- ---- -- ------ ------<br>--- ----- -- ----,101687.79999995232,101687.29999995232,101398.955,101411,101415.621,101698.856,,3,to
screen,html.Screen,2_1_0_1_4,2022-04-27T19:51:09.845Z,,,,,,,,,,,,,,,,,53,,,,,,,,,,,,,,306.7439999046328,,response,,,,99,,,,,,,Space,keypress(Space),,,,,,,,---- -- ----- -- having - ------- --- ----------<br>------------- ------ ------ ---- ---- ------- ----- -- ----<br>-------- ------- -- ---------- --- - --- ----- ----- ----<br>---- --- --- ----- --- ---- ---- ------- ----- ---- -------<br>--- --- -- ----- -- --- ---- -- --- ---- -- ------ ------<br>--- ----- -- ----,102005.89999997616,102005.59999990463,101682.19,101687.89999997616,101698.856,102015.404,,4,having
screen,html.Screen,2_1_0_1_5,2022-04-27T19:51:10.128Z,,,,,,,,,,,,,,,,,53,,,,,,,,,,,,,,273.1959999046376,,response,,,,99,,,,,,,Space,keypress(Space),,,,,,,,---- -- ----- -- ------ a ------- --- ----------<br>------------- ------ ------ ---- ---- ------- ----- -- ----<br>-------- ------- -- ---------- --- - --- ----- ----- ----<br>---- --- --- ----- --- ---- ---- ------- ----- ---- -------<br>--- --- -- ----- -- --- ---- -- --- ---- -- ------ ------<br>--- ----- -- ----,102289,102288.59999990463,101998.738,102006.09999990463,102015.404,102298.665,,5,a
screen,html.Screen,2_1_0_1_6,2022-04-27T19:51:10.456Z,,,,,,,,,,,,,,,,,53,,,,,,,,,,,,,,317.6349999523227,,response,,,,99,,,,,,,Space,keypress(Space),,,,,,,,---- -- ----- -- ------ - lasting --- ----------<br>------------- ------ ------ ---- ---- ------- ----- -- ----<br>-------- ------- -- ---------- --- - --- ----- ----- ----<br>---- --- --- ----- --- ---- ---- ------- ----- ---- -------<br>--- --- -- ----- -- --- ---- -- --- ---- -- ------ ------<br>--- ----- -- ----,102616.79999995232,102616.29999995232,102281.999,102289.09999990463,102298.665,102631.886,,6,lasting
screen,html.Screen,2_1_0_1_7,2022-04-27T19:51:10.767Z,,,,,,,,,,,,,,,,,53,,,,,,,,,,,,,,295.71399990463397,,response,,,,99,,,,,,,Space,keypress(Space),,,,,,,,---- -- ----- -- ------ - ------- and ----------<br>------------- ------ ------ ---- ---- ------- ----- -- ----<br>-------- ------- -- ---------- --- - --- ----- ----- ----<br>---- --- --- ----- --- ---- ---- ------- ----- ---- -------<br>--- --- -- ----- -- --- ---- -- --- ---- -- ------ ------<br>--- ----- -- ----,102928,102927.59999990463,102615.22,102616.89999997616,102631.886,102931.766,,7,and
screen,html.Screen,2_1_0_1_8,2022-04-27T19:51:11.046Z,,,,,,,,,,,,,,,,,53,,,,,,,,,,,,,,274.23399999999674,,response,,,,99,,,,,,,Space,keypress(Space),,,,,,,,---- -- ----- -- ------ - ------- --- fulfilling<br>------------- ------ ------ ---- ---- ------- ----- -- ----<br>-------- ------- -- ---------- --- - --- ----- ----- ----<br>---- --- --- ----- --- ---- ---- ------- ----- ---- -------<br>--- --- -- ----- -- --- ---- -- --- ---- -- ------ ------<br>--- ----- -- ----,103206.29999995232,103206,102915.1,102928.09999990463,102931.766,103215.032,,8,fulfilling
screen,html.Screen,2_1_0_1_9,2022-04-27T19:51:11.380Z,,,,,,,,,,,,,,,,,53,,,,,,,,,,,,,,325.3679999761516,,response,,,,99,,,,,,,Space,keypress(Space),,,,,,,,"---- -- ----- -- ------ - ------- --- ----------<br>relationship, ------ ------ ---- ---- ------- ----- -- ----<br>-------- ------- -- ---------- --- - --- ----- ----- ----<br>---- --- --- ----- --- ---- ---- ------- ----- ---- -------<br>--- --- -- ----- -- --- ---- -- --- ---- -- ------ ------<br>--- ----- -- ----",103540.79999995232,103540.39999997616,103198.366,103206.39999997616,103215.032,103548.211,,9,"relationship,"
screen,html.Screen,2_1_0_1_10,2022-04-27T19:51:11.637Z,,,,,,,,,,,,,,,,,53,,,,,,,,,,,,,,249.38899990463688,,response,,,,99,,,,,,,Space,keypress(Space),,,,,,,,---- -- ----- -- ------ - ------- --- ----------<br>------------- common ------ ---- ---- ------- ----- -- ----<br>-------- ------- -- ---------- --- - --- ----- ----- ----<br>---- --- --- ----- --- ---- ---- ------- ----- ---- -------<br>--- --- -- ----- -- --- ---- -- --- ---- -- ------ ------<br>--- ----- -- ----,103798,103797.59999990463,103531.545,103540.89999997616,103548.211,103814.816,,10,common
screen,html.Screen,2_1_0_1_11,2022-04-27T19:51:12.091Z,,,,,,,,,,,,,,,,,53,,,,,,,,,,,,,,436.2839999046264,,response,,,,99,,,,,,,Space,keypress(Space),,,,,,,,---- -- ----- -- ------ - ------- --- ----------<br>------------- ------ wisdom ---- ---- ------- ----- -- ----<br>-------- ------- -- ---------- --- - --- ----- ----- ----<br>---- --- --- ----- --- ---- ---- ------- ----- ---- -------<br>--- --- -- ----- -- --- ---- -- --- ---- -- ------ ------<br>--- ----- -- ----,104251.59999990463,104251.09999990463,103798.15,103798.19999992847,103814.816,104264.686,,11,wisdom
screen,html.Screen,2_1_0_1_12,2022-04-27T19:51:12.448Z,,,,,,,,,,,,,,,,,53,,,,,,,,,,,,,,343.71399997615663,,response,,,,99,,,,,,,Space,keypress(Space),,,,,,,,---- -- ----- -- ------ - ------- --- ----------<br>------------- ------ ------ says ---- ------- ----- -- ----<br>-------- ------- -- ---------- --- - --- ----- ----- ----<br>---- --- --- ----- --- ---- ---- ------- ----- ---- -------<br>--- --- -- ----- -- --- ---- -- --- ---- -- ------ ------<br>--- ----- -- ----,104609,104608.39999997616,104248.02,104251.69999992847,104264.686,104614.539,,12,says
screen,html.Screen,2_1_0_1_13,2022-04-27T19:51:12.692Z,,,,,,,,,,,,,,,,,53,,,,,,,,,,,,,,237.26099995231198,,response,,,,99,,,,,,,Space,keypress(Space),,,,,,,,---- -- ----- -- ------ - ------- --- ----------<br>------------- ------ ------ ---- that ------- ----- -- ----<br>-------- ------- -- ---------- --- - --- ----- ----- ----<br>---- --- --- ----- --- ---- ---- ------- ----- ---- -------<br>--- --- -- ----- -- --- ---- -- --- ---- -- ------ ------<br>--- ----- -- ----,104852.29999995232,104851.79999995232,104597.873,104609.09999990463,104614.539,104864.46,,13,that
screen,html.Screen,2_1_0_1_14,2022-04-27T19:51:12.981Z,,,,,,,,,,,,,,,,,53,,,,,,,,,,,,,,276.5399999999936,,response,,,,99,,,,,,,Space,keypress(Space),,,,,,,,---- -- ----- -- ------ - ------- --- ----------<br>------------- ------ ------ ---- ---- feeling ----- -- ----<br>-------- ------- -- ---------- --- - --- ----- ----- ----<br>---- --- --- ----- --- ---- ---- ------- ----- ---- -------<br>--- --- -- ----- -- --- ---- -- --- ---- -- ------ ------<br>--- ----- -- ----,105141.5,105141,104847.794,104852.29999995232,104864.46,105147.655,,14,feeling
screen,html.Screen,2_1_0_1_15,2022-04-27T19:51:13.240Z,,,,,,,,,,,,,,,,,53,,,,,,,,,,,,,,252.7449999761593,,response,,,,99,,,,,,,Space,keypress(Space),,,,,,,,---- -- ----- -- ------ - ------- --- ----------<br>------------- ------ ------ ---- ---- ------- close -- ----<br>-------- ------- -- ---------- --- - --- ----- ----- ----<br>---- --- --- ----- --- ---- ---- ------- ----- ---- -------<br>--- --- -- ----- -- --- ---- -- --- ---- -- ------ ------<br>--- ----- -- ----,105400.89999997616,105400.39999997616,105130.989,105141.69999992847,105147.655,105414.242,,15,close
screen,html.Screen,2_1_0_1_16,2022-04-27T19:51:13.681Z,,,,,,,,,,,,,,,,,53,,,,,,,,,,,,,,427.25800000000163,,response,,,,99,,,,,,,Space,keypress(Space),,,,,,,,---- -- ----- -- ------ - ------- --- ----------<br>------------- ------ ------ ---- ---- ------- ----- to ----<br>-------- ------- -- ---------- --- - --- ----- ----- ----<br>---- --- --- ----- --- ---- ---- ------- ----- ---- -------<br>--- --- -- ----- -- --- ---- -- --- ---- -- ------ ------<br>--- ----- -- ----,105842,105841.5,105397.576,105401,105414.242,105847.433,,16,to
screen,html.Screen,2_1_0_1_17,2022-04-27T19:51:13.922Z,,,,,,,,,,,,,,,,,53,,,,,,,,,,,,,,234.56699999999546,,response,,,,99,,,,,,,Space,keypress(Space),,,,,,,,---- -- ----- -- ------ - ------- --- ----------<br>------------- ------ ------ ---- ---- ------- ----- -- your<br>-------- ------- -- ---------- --- - --- ----- ----- ----<br>---- --- --- ----- --- ---- ---- ------- ----- ---- -------<br>--- --- -- ----- -- --- ---- -- --- ---- -- ------ ------<br>--- ----- -- ----,106082.39999997616,106082,105830.767,105842.09999990463,105847.433,106097.36,,17,your
screen,html.Screen,2_1_0_1_18,2022-04-27T19:51:14.175Z,,,,,,,,,,,,,,,,,53,,,,,,,,,,,,,,237.33999992847384,,response,,,,99,,,,,,,Space,keypress(Space),,,,,,,,---- -- ----- -- ------ - ------- --- ----------<br>------------- ------ ------ ---- ---- ------- ----- -- ----<br>romantic ------- -- ---------- --- - --- ----- ----- ----<br>---- --- --- ----- --- ---- ---- ------- ----- ---- -------<br>--- --- -- ----- -- --- ---- -- --- ---- -- ------ ------<br>--- ----- -- ----,106335.19999992847,106334.69999992847,106080.694,106082.5,106097.36,106347.235,,18,romantic
screen,html.Screen,2_1_0_1_19,2022-04-27T19:51:14.420Z,,,,,,,,,,,,,,,,,53,,,,,,,,,,,,,,233.0649999523157,,response,,,,99,,,,,,,Space,keypress(Space),,,,,,,,---- -- ----- -- ------ - ------- --- ----------<br>------------- ------ ------ ---- ---- ------- ----- -- ----<br>-------- partner -- ---------- --- - --- ----- ----- ----<br>---- --- --- ----- --- ---- ---- ------- ----- ---- -------<br>--- --- -- ----- -- --- ---- -- --- ---- -- ------ ------<br>--- ----- -- ----,106580.79999995232,106580.29999995232,106330.569,106335.29999995232,106347.235,106597.136,,19,partner
screen,html.Screen,2_1_0_1_20,2022-04-27T19:51:14.626Z,,,,,,,,,,,,,,,,,53,,,,,,,,,,,,,,188.96399990463397,,response,,,,99,,,,,,,Space,keypress(Space),,,,,,,,---- -- ----- -- ------ - ------- --- ----------<br>------------- ------ ------ ---- ---- ------- ----- -- ----<br>-------- ------- is ---------- --- - --- ----- ----- ----<br>---- --- --- ----- --- ---- ---- ------- ----- ---- -------<br>--- --- -- ----- -- --- ---- -- --- ---- -- ------ ------<br>--- ----- -- ----,106786.5,106786.09999990463,106580.47,106581,106597.136,106797.058,,20,is
screen,html.Screen,2_1_0_1_21,2022-04-27T19:51:14.872Z,,,,,,,,,,,,,,,,,53,,,,,,,,,,,,,,234.94199999999546,,response,,,,99,,,,,,,Space,keypress(Space),,,,,,,,---- -- ----- -- ------ - ------- --- ----------<br>------------- ------ ------ ---- ---- ------- ----- -- ----<br>-------- ------- -- paramount. --- - --- ----- ----- ----<br>---- --- --- ----- --- ---- ---- ------- ----- ---- -------<br>--- --- -- ----- -- --- ---- -- --- ---- -- ------ ------<br>--- ----- -- ----,107032.39999997616,107032,106780.392,106786.59999990463,106797.058,107046.974,,21,paramount.
screen,html.Screen,2_1_0_1_22,2022-04-27T19:51:15.136Z,,,,,,,,,,,,,,,,,53,,,,,,,,,,,,,,248.02599999999802,,response,,,,99,,,,,,,Space,keypress(Space),,,,,,,,---- -- ----- -- ------ - ------- --- ----------<br>------------- ------ ------ ---- ---- ------- ----- -- ----<br>-------- ------- -- ---------- But - --- ----- ----- ----<br>---- --- --- ----- --- ---- ---- ------- ----- ---- -------<br>--- --- -- ----- -- --- ---- -- --- ---- -- ------ ------<br>--- ----- -- ----,107296.29999995232,107295,107030.308,107032.39999997616,107046.974,107313.561,,22,But
screen,html.Screen,2_1_0_1_23,2022-04-27T19:51:15.446Z,,,,,,,,,,,,,,,,,53,,,,,,,,,,,,,,292.73899995231477,,response,,,,99,,,,,,,Space,keypress(Space),,,,,,,,---- -- ----- -- ------ - ------- --- ----------<br>------------- ------ ------ ---- ---- ------- ----- -- ----<br>-------- ------- -- ---------- --- a --- ----- ----- ----<br>---- --- --- ----- --- ---- ---- ------- ----- ---- -------<br>--- --- -- ----- -- --- ---- -- --- ---- -- ------ ------<br>--- ----- -- ----,107606.69999992847,107606.29999995232,107296.895,107296.5,107313.561,107613.473,,23,a
screen,html.Screen,2_1_0_1_24,2022-04-27T19:51:15.685Z,,,,,,,,,,,,,,,,,53,,,,,,,,,,,,,,232.2269999284763,,response,,,,99,,,,,,,Space,keypress(Space),,,,,,,,---- -- ----- -- ------ - ------- --- ----------<br>------------- ------ ------ ---- ---- ------- ----- -- ----<br>-------- ------- -- ---------- --- - new ----- ----- ----<br>---- --- --- ----- --- ---- ---- ------- ----- ---- -------<br>--- --- -- ----- -- --- ---- -- --- ---- -- ------ ------<br>--- ----- -- ----,107846.09999990463,107845.69999992847,107596.807,107606.79999995232,107613.473,107846.703,,24,new
screen,html.Screen,2_1_0_1_25,2022-04-27T19:51:15.918Z,,,,,,,,,,,,,,,,,53,,,,,,,,,,,,,,231.19699997616408,,response,,,,99,,,,,,,Space,keypress(Space),,,,,,,,---- -- ----- -- ------ - ------- --- ----------<br>------------- ------ ------ ---- ---- ------- ----- -- ----<br>-------- ------- -- ---------- --- - --- study ----- ----<br>---- --- --- ----- --- ---- ---- ------- ----- ---- -------<br>--- --- -- ----- -- --- ---- -- --- ---- -- ------ ------<br>--- ----- -- ----,108078.39999997616,108077.89999997616,107830.037,107846.29999995232,107846.703,108079.908,,25,study
screen,html.Screen,2_1_0_1_26,2022-04-27T19:51:16.174Z,,,,,,,,,,,,,,,,,53,,,,,,,,,,,,,,254.49199997616233,,response,,,,99,,,,,,,Space,keypress(Space),,,,,,,,---- -- ----- -- ------ - ------- --- ----------<br>------------- ------ ------ ---- ---- ------- ----- -- ----<br>-------- ------- -- ---------- --- - --- ----- finds ----<br>---- --- --- ----- --- ---- ---- ------- ----- ---- -------<br>--- --- -- ----- -- --- ---- -- --- ---- -- ------ ------<br>--- ----- -- ----,108335,108334.39999997616,108063.242,108078.5,108079.908,108346.526,,26,finds
screen,html.Screen,2_1_0_1_27,2022-04-27T19:51:16.450Z,,,,,,,,,,,,,,,,,53,,,,,,,,,,,,,,263.27399995231826,,response,,,,99,,,,,,,Space,keypress(Space),,,,,,,,---- -- ----- -- ------ - ------- --- ----------<br>------------- ------ ------ ---- ---- ------- ----- -- ----<br>-------- ------- -- ---------- --- - --- ----- ----- that<br>---- --- --- ----- --- ---- ---- ------- ----- ---- -------<br>--- --- -- ----- -- --- ---- -- --- ---- -- ------ ------<br>--- ----- -- ----,108610.29999995232,108609.79999995232,108329.86,108335.09999990463,108346.526,108613.141,,27,that
screen,html.Screen,2_1_0_1_28,2022-04-27T19:51:16.676Z,,,,,,,,,,,,,,,,,53,,,,,,,,,,,,,,223.25899997615488,,response,,,,99,,,,,,,Space,keypress(Space),,,,,,,,---- -- ----- -- ------ - ------- --- ----------<br>------------- ------ ------ ---- ---- ------- ----- -- ----<br>-------- ------- -- ---------- --- - --- ----- ----- ----<br>it's --- --- ----- --- ---- ---- ------- ----- ---- -------<br>--- --- -- ----- -- --- ---- -- --- ---- -- ------ ------<br>--- ----- -- ----,108837,108836.39999997616,108596.475,108610.39999997616,108613.141,108846.334,,28,it's
screen,html.Screen,2_1_0_1_29,2022-04-27T19:51:16.895Z,,,,,,,,,,,,,,,,,53,,,,,,,,,,,,,,208.96599995231372,,response,,,,99,,,,,,,Space,keypress(Space),,,,,,,,---- -- ----- -- ------ - ------- --- ----------<br>------------- ------ ------ ---- ---- ------- ----- -- ----<br>-------- ------- -- ---------- --- - --- ----- ----- ----<br>---- not --- ----- --- ---- ---- ------- ----- ---- -------<br>--- --- -- ----- -- --- ---- -- --- ---- -- ------ ------<br>--- ----- -- ----,109055.89999997616,109055.29999995232,108829.668,108837.09999990463,108846.334,109062.909,,29,not
screen,html.Screen,2_1_0_1_30,2022-04-27T19:51:17.129Z,,,,,,,,,,,,,,,,,53,,,,,,,,,,,,,,226.4909999761585,,response,,,,99,,,,,,,Space,keypress(Space),,,,,,,,---- -- ----- -- ------ - ------- --- ----------<br>------------- ------ ------ ---- ---- ------- ----- -- ----<br>-------- ------- -- ---------- --- - --- ----- ----- ----<br>---- --- how ----- --- ---- ---- ------- ----- ---- -------<br>--- --- -- ----- -- --- ---- -- --- ---- -- ------ ------<br>--- ----- -- ----,109289.79999995232,109289.39999997616,109046.243,109056,109062.909,109296.175,,30,how
screen,html.Screen,2_1_0_1_31,2022-04-27T19:51:17.335Z,,,,,,,,,,,,,,,,,53,,,,,,,,,,,,,,198.72499997615523,,response,,,,99,,,,,,,Space,keypress(Space),,,,,,,,---- -- ----- -- ------ - ------- --- ----------<br>------------- ------ ------ ---- ---- ------- ----- -- ----<br>-------- ------- -- ---------- --- - --- ----- ----- ----<br>---- --- --- close --- ---- ---- ------- ----- ---- -------<br>--- --- -- ----- -- --- ---- -- --- ---- -- ------ ------<br>--- ----- -- ----,109495.59999990463,109494.89999997616,109279.509,109289.89999997616,109296.175,109512.76,,31,close
screen,html.Screen,2_1_0_1_32,2022-04-27T19:51:17.527Z,,,,,,,,,,,,,,,,,53,,,,,,,,,,,,,,173.8399999046378,,response,,,,99,,,,,,,Space,keypress(Space),,,,,,,,---- -- ----- -- ------ - ------- --- ----------<br>------------- ------ ------ ---- ---- ------- ----- -- ----<br>-------- ------- -- ---------- --- - --- ----- ----- ----<br>---- --- --- ----- you ---- ---- ------- ----- ---- -------<br>--- --- -- ----- -- --- ---- -- --- ---- -- ------ ------<br>--- ----- -- ----,109687.39999997616,109686.59999990463,109496.094,109495.69999992847,109512.76,109695.996,,32,you
screen,html.Screen,2_1_0_1_33,2022-04-27T19:51:17.741Z,,,,,,,,,,,,,,,,,53,,,,,,,,,,,,,,204.90399997615896,,response,,,,99,,,,,,,Space,keypress(Space),,,,,,,,---- -- ----- -- ------ - ------- --- ----------<br>------------- ------ ------ ---- ---- ------- ----- -- ----<br>-------- ------- -- ---------- --- - --- ----- ----- ----<br>---- --- --- ----- --- feel ---- ------- ----- ---- -------<br>--- --- -- ----- -- --- ---- -- --- ---- -- ------ ------<br>--- ----- -- ----,109901.39999997616,109900.89999997616,109679.33,109687.5,109695.996,109912.624,,33,feel
screen,html.Screen,2_1_0_1_34,2022-04-27T19:51:17.958Z,,,,,,,,,,,,,,,,,53,,,,,,,,,,,,,,205.77599997616198,,response,,,,99,,,,,,,Space,keypress(Space),,,,,,,,---- -- ----- -- ------ - ------- --- ----------<br>------------- ------ ------ ---- ---- ------- ----- -- ----<br>-------- ------- -- ---------- --- - --- ----- ----- ----<br>---- --- --- ----- --- ---- that ------- ----- ---- -------<br>--- --- -- ----- -- --- ---- -- --- ---- -- ------ ------<br>--- ----- -- ----,110118.79999995232,110118.39999997616,109895.958,109901.59999990463,109912.624,110129.212,,34,that
screen,html.Screen,2_1_0_1_35,2022-04-27T19:51:18.183Z,,,,,,,,,,,,,,,,,53,,,,,,,,,,,,,,214.1879999761586,,response,,,,99,,,,,,,Space,keypress(Space),,,,,,,,---- -- ----- -- ------ - ------- --- ----------<br>------------- ------ ------ ---- ---- ------- ----- -- ----<br>-------- ------- -- ---------- --- - --- ----- ----- ----<br>---- --- --- ----- --- ---- ---- matters ----- ---- -------<br>--- --- -- ----- -- --- ---- -- --- ---- -- ------ ------<br>--- ----- -- ----,110343.89999997616,110343.39999997616,110112.546,110118.89999997616,110129.212,110345.811,,35,matters
screen,html.Screen,2_1_0_1_36,2022-04-27T19:51:18.414Z,,,,,,,,,,,,,,,,,53,,,,,,,,,,,,,,227.98899995231477,,response,,,,99,,,,,,,Space,keypress(Space),,,,,,,,"---- -- ----- -- ------ - ------- --- ----------<br>------------- ------ ------ ---- ---- ------- ----- -- ----<br>-------- ------- -- ---------- --- - --- ----- ----- ----<br>---- --- --- ----- --- ---- ---- ------- most, ---- -------<br>--- --- -- ----- -- --- ---- -- --- ---- -- ------ ------<br>--- ----- -- ----",110574.29999995232,110573.79999995232,110329.145,110344,110345.811,110579.049,,36,"most,"
screen,html.Screen,2_1_0_1_37,2022-04-27T19:51:18.694Z,,,,,,,,,,,,,,,,,53,,,,,,,,,,,,,,274.95100000000093,,response,,,,99,,,,,,,Space,keypress(Space),,,,,,,,---- -- ----- -- ------ - ------- --- ----------<br>------------- ------ ------ ---- ---- ------- ----- -- ----<br>-------- ------- -- ---------- --- - --- ----- ----- ----<br>---- --- --- ----- --- ---- ---- ------- ----- it's -------<br>--- --- -- ----- -- --- ---- -- --- ---- -- ------ ------<br>--- ----- -- ----,110854.5,110854,110562.383,110574.5,110579.049,110862.273,,37,it's
screen,html.Screen,2_1_0_1_38,2022-04-27T19:51:18.929Z,,,,,,,,,,,,,,,,,53,,,,,,,,,,,,,,227.32699990463152,,response,,,,99,,,,,,,Space,keypress(Space),,,,,,,,---- -- ----- -- ------ - ------- --- ----------<br>------------- ------ ------ ---- ---- ------- ----- -- ----<br>-------- ------- -- ---------- --- - --- ----- ----- ----<br>---- --- --- ----- --- ---- ---- ------- ----- ---- whether<br>--- --- -- ----- -- --- ---- -- --- ---- -- ------ ------<br>--- ----- -- ----,111090.09999990463,111089.59999990463,110845.607,110854.59999990463,110862.273,111095.524,,38,whether
screen,html.Screen,2_1_0_1_39,2022-04-27T19:51:19.153Z,,,,,,,,,,,,,,,,,53,,,,,,,,,,,,,,217.37599997615325,,response,,,,99,,,,,,,Space,keypress(Space),,,,,,,,---- -- ----- -- ------ - ------- --- ----------<br>------------- ------ ------ ---- ---- ------- ----- -- ----<br>-------- ------- -- ---------- --- - --- ----- ----- ----<br>---- --- --- ----- --- ---- ---- ------- ----- ---- -------<br>you --- -- ----- -- --- ---- -- --- ---- -- ------ ------<br>--- ----- -- ----,111313.29999995232,111312.89999997616,111078.858,111090.19999992847,111095.524,111328.792,,39,you
screen,html.Screen,2_1_0_1_40,2022-04-27T19:51:19.385Z,,,,,,,,,,,,,,,,,53,,,,,,,,,,,,,,216.007999952315,,response,,,,99,,,,,,,Space,keypress(Space),,,,,,,,---- -- ----- -- ------ - ------- --- ----------<br>------------- ------ ------ ---- ---- ------- ----- -- ----<br>-------- ------- -- ---------- --- - --- ----- ----- ----<br>---- --- --- ----- --- ---- ---- ------- ----- ---- -------<br>--- are -- ----- -- --- ---- -- --- ---- -- ------ ------<br>--- ----- -- ----,111545.39999997616,111544.79999995232,111312.126,111313.39999997616,111328.792,111562.066,,40,are
screen,html.Screen,2_1_0_1_41,2022-04-27T19:51:19.614Z,,,,,,,,,,,,,,,,,53,,,,,,,,,,,,,,212.0339999046264,,response,,,,99,,,,,,,Space,keypress(Space),,,,,,,,---- -- ----- -- ------ - ------- --- ----------<br>------------- ------ ------ ---- ---- ------- ----- -- ----<br>-------- ------- -- ---------- --- - --- ----- ----- ----<br>---- --- --- ----- --- ---- ---- ------- ----- ---- -------<br>--- --- as ----- -- --- ---- -- --- ---- -- ------ ------<br>--- ----- -- ----,111774.5,111774.09999990463,111545.4,111545.39999997616,111562.066,111778.68,,41,as
screen,html.Screen,2_1_0_1_42,2022-04-27T19:51:19.810Z,,,,,,,,,,,,,,,,,53,,,,,,,,,,,,,,191.71999997616513,,response,,,,99,,,,,,,Space,keypress(Space),,,,,,,,---- -- ----- -- ------ - ------- --- ----------<br>------------- ------ ------ ---- ---- ------- ----- -- ----<br>-------- ------- -- ---------- --- - --- ----- ----- ----<br>---- --- --- ----- --- ---- ---- ------- ----- ---- -------<br>--- --- -- close -- --- ---- -- --- ---- -- ------ ------<br>--- ----- -- ----,111970.79999995232,111970.39999997616,111762.014,111774.59999990463,111778.68,111978.534,,42,close
screen,html.Screen,2_1_0_1_43,2022-04-27T19:51:20.059Z,,,,,,,,,,,,,,,,,53,,,,,,,,,,,,,,240.76599995231663,,response,,,,99,,,,,,,Space,keypress(Space),,,,,,,,---- -- ----- -- ------ - ------- --- ----------<br>------------- ------ ------ ---- ---- ------- ----- -- ----<br>-------- ------- -- ---------- --- - --- ----- ----- ----<br>---- --- --- ----- --- ---- ---- ------- ----- ---- -------<br>--- --- -- ----- as --- ---- -- --- ---- -- ------ ------<br>--- ----- -- ----,112219.89999997616,112219.29999995232,111961.868,111970.89999997616,111978.534,112228.505,,43,as
screen,html.Screen,2_1_0_1_44,2022-04-27T19:51:20.287Z,,,,,,,,,,,,,,,,,53,,,,,,,,,,,,,,218.79499995231163,,response,,,,99,,,,,,,Space,keypress(Space),,,,,,,,---- -- ----- -- ------ - ------- --- ----------<br>------------- ------ ------ ---- ---- ------- ----- -- ----<br>-------- ------- -- ---------- --- - --- ----- ----- ----<br>---- --- --- ----- --- ---- ---- ------- ----- ---- -------<br>--- --- -- ----- -- you ---- -- --- ---- -- ------ ------<br>--- ----- -- ----,112447.89999997616,112447.29999995232,112211.839,112220,112228.505,112461.734,,44,you
screen,html.Screen,2_1_0_1_45,2022-04-27T19:51:20.500Z,,,,,,,,,,,,,,,,,53,,,,,,,,,,,,,,198.06599995231954,,response,,,,99,,,,,,,Space,keypress(Space),,,,,,,,---- -- ----- -- ------ - ------- --- ----------<br>------------- ------ ------ ---- ---- ------- ----- -- ----<br>-------- ------- -- ---------- --- - --- ----- ----- ----<br>---- --- --- ----- --- ---- ---- ------- ----- ---- -------<br>--- --- -- ----- -- --- want -- --- ---- -- ------ ------<br>--- ----- -- ----,112660.39999997616,112659.79999995232,112445.068,112448,112461.734,112661.681,,45,want
screen,html.Screen,2_1_0_1_46,2022-04-27T19:51:20.722Z,,,,,,,,,,,,,,,,,53,,,,,,,,,,,,,,220.61899995231943,,response,,,,99,,,,,,,Space,keypress(Space),,,,,,,,---- -- ----- -- ------ - ------- --- ----------<br>------------- ------ ------ ---- ---- ------- ----- -- ----<br>-------- ------- -- ---------- --- - --- ----- ----- ----<br>---- --- --- ----- --- ---- ---- ------- ----- ---- -------<br>--- --- -- ----- -- --- ---- to --- ---- -- ------ ------<br>--- ----- -- ----,112882.79999995232,112882.29999995232,112645.015,112660.59999990463,112661.681,112894.918,,46,to
screen,html.Screen,2_1_0_1_47,2022-04-27T19:51:20.952Z,,,,,,,,,,,,,,,,,53,,,,,,,,,,,,,,217.18199990462745,,response,,,,99,,,,,,,Space,keypress(Space),,,,,,,,"---- -- ----- -- ------ - ------- --- ----------<br>------------- ------ ------ ---- ---- ------- ----- -- ----<br>-------- ------- -- ---------- --- - --- ----- ----- ----<br>---- --- --- ----- --- ---- ---- ------- ----- ---- -------<br>--- --- -- ----- -- --- ---- -- be, ---- -- ------ ------<br>--- ----- -- ----",113112.69999992847,113112.09999990463,112878.252,112882.79999995232,112894.918,113128.123,,47,"be,"
screen,html.Screen,2_1_0_1_48,2022-04-27T19:51:21.171Z,,,,,,,,,,,,,,,,,53,,,,,,,,,,,,,,202.87699999999313,,response,,,,99,,,,,,,Space,keypress(Space),,,,,,,,---- -- ----- -- ------ - ------- --- ----------<br>------------- ------ ------ ---- ---- ------- ----- -- ----<br>-------- ------- -- ---------- --- - --- ----- ----- ----<br>---- --- --- ----- --- ---- ---- ------- ----- ---- -------<br>--- --- -- ----- -- --- ---- -- --- even -- ------ ------<br>--- ----- -- ----,113331.5,113331,113111.457,113112.89999997616,113128.123,113344.753,,48,even
screen,html.Screen,2_1_0_1_49,2022-04-27T19:51:21.424Z,,,,,,,,,,,,,,,,,53,,,,,,,,,,,,,,239.24700000000303,,response,,,,99,,,,,,,Space,keypress(Space),,,,,,,,---- -- ----- -- ------ - ------- --- ----------<br>------------- ------ ------ ---- ---- ------- ----- -- ----<br>-------- ------- -- ---------- --- - --- ----- ----- ----<br>---- --- --- ----- --- ---- ---- ------- ----- ---- -------<br>--- --- -- ----- -- --- ---- -- --- ---- if ------ ------<br>--- ----- -- ----,113584.5,113584,113328.087,113331.69999992847,113344.753,113594.63,,49,if
screen,html.Screen,2_1_0_1_50,2022-04-27T19:51:21.649Z,,,,,,,,,,,,,,,,,53,,,,,,,,,,,,,,214.76999997615349,,response,,,,99,,,,,,,Space,keypress(Space),,,,,,,,---- -- ----- -- ------ - ------- --- ----------<br>------------- ------ ------ ---- ---- ------- ----- -- ----<br>-------- ------- -- ---------- --- - --- ----- ----- ----<br>---- --- --- ----- --- ---- ---- ------- ----- ---- -------<br>--- --- -- ----- -- --- ---- -- --- ---- -- that's ------<br>--- ----- -- ----,113810,113809.39999997616,113577.964,113584.5,113594.63,113811.261,,50,that's
screen,html.Screen,2_1_0_1_51,2022-04-27T19:51:21.997Z,,,,,,,,,,,,,,,,,53,,,,,,,,,,,,,,345.9389999284758,,response,,,,99,,,,,,,Space,keypress(Space),,,,,,,,---- -- ----- -- ------ - ------- --- ----------<br>------------- ------ ------ ---- ---- ------- ----- -- ----<br>-------- ------- -- ---------- --- - --- ----- ----- ----<br>---- --- --- ----- --- ---- ---- ------- ----- ---- -------<br>--- --- -- ----- -- --- ---- -- --- ---- -- ------ really<br>--- ----- -- ----,114157.79999995232,114157.19999992847,113794.595,113810.09999990463,113811.261,114161.144,,51,really
screen,html.Screen,2_1_0_1_52,2022-04-27T19:51:22.224Z,,,,,,,,,,,,,,,,,53,,,,,,,,,,,,,,222.7559999761579,,response,,,,99,,,,,,,Space,keypress(Space),,,,,,,,---- -- ----- -- ------ - ------- --- ----------<br>------------- ------ ------ ---- ---- ------- ----- -- ----<br>-------- ------- -- ---------- --- - --- ----- ----- ----<br>---- --- --- ----- --- ---- ---- ------- ----- ---- -------<br>--- --- -- ----- -- --- ---- -- --- ---- -- ------ ------<br>not ----- -- ----,114384.59999990463,114383.89999997616,114144.478,114157.89999997616,114161.144,114394.424,,52,not
screen,html.Screen,2_1_0_1_53,2022-04-27T19:51:22.509Z,,,,,,,,,,,,,,,,,53,,,,,,,,,,,,,,274.9759999761591,,response,,,,99,,,,,,,Space,keypress(Space),,,,,,,,---- -- ----- -- ------ - ------- --- ----------<br>------------- ------ ------ ---- ---- ------- ----- -- ----<br>-------- ------- -- ---------- --- - --- ----- ----- ----<br>---- --- --- ----- --- ---- ---- ------- ----- ---- -------<br>--- --- -- ----- -- --- ---- -- --- ---- -- ------ ------<br>--- close -- ----,114669.89999997616,114669.39999997616,114377.758,114384.79999995232,114394.424,114677.635,,53,close
screen,html.Screen,2_1_0_1_54,2022-04-27T19:51:22.772Z,,,,,,,,,,,,,,,,,53,,,,,,,,,,,,,,254.66499995232152,,response,,,,99,,,,,,,Space,keypress(Space),,,,,,,,---- -- ----- -- ------ - ------- --- ----------<br>------------- ------ ------ ---- ---- ------- ----- -- ----<br>-------- ------- -- ---------- --- - --- ----- ----- ----<br>---- --- --- ----- --- ---- ---- ------- ----- ---- -------<br>--- --- -- ----- -- --- ---- -- --- ---- -- ------ ------<br>--- ----- at ----,114932.89999997616,114932.29999995232,114660.969,114670,114677.635,114944.243,,54,at
screen,html.Screen,2_1_0_1_55,2022-04-27T19:51:23.108Z,,,,,,,,,,,,,,,,,53,,,,,,,,,,,,,,324.35699990463036,,response,,,,99,,,,,,,Space,keypress(Space),,,,,,,,---- -- ----- -- ------ - ------- --- ----------<br>------------- ------ ------ ---- ---- ------- ----- -- ----<br>-------- ------- -- ---------- --- - --- ----- ----- ----<br>---- --- --- ----- --- ---- ---- ------- ----- ---- -------<br>--- --- -- ----- -- --- ---- -- --- ---- -- ------ ------<br>--- ----- -- all.,115269.09999990463,115268.59999990463,114927.577,114933.09999990463,114944.243,115277.421,,55,all.
Item 99,flow.Loop,2_1_0_1,2022-04-27T19:51:23.109Z,,,,,,,,,,,,,,,,,,,,,,,,,,,,,,,15352.032999904637,,completion,,,,,C,,,,,,,,,,,silence,,,,,115269.29999995232,115268.59999990463,99899.901,99901.69999992847,99916.567,115277.421,,,
Question 1,html.Screen,2_1_0_2,2022-04-27T19:51:28.914Z,,,,,,,,,,,,,,,,,,,,,,,,,,,,true,FALSE,,5795.6789999046305,,response,,,,99,C,,,,,,FALSE,click #choice-2,,,,silence,,,,,121075,121073.09999990463,115260.755,115269.39999997616,115277.421,121075.387,,,
Question 2,html.Screen,2_1_0_3,2022-04-27T19:51:31.947Z,,,,,,,,,,,,,,,,,,,,,,,,,,,,true,TRUE,,3030.812999928472,,response,,,,99,C,,,,,,TRUE,click #choice-1,,,,silence,,,,,124107.89999997616,124106.19999992847,121058.721,121075.09999990463,121075.387,124107.549,,,
Item 99,flow.Sequence,2_1_0,2022-04-27T19:51:31.947Z,,,,,,,,,,,,,,,,,,,,,,,,,,,,,,,34186.45499992848,,completion,,,,,,,,,,,,,,,,,,,,,124108.09999990463,124106.19999992847,89903.079,89915.69999992847,89919.745,124107.549,,,
Holding screen,html.Screen,2_1_1_0,2022-04-27T19:51:41.928Z,,,,,,,,,,,,,,,,,,,,,,,,,,,,,,,9997.102000000014,,timeout,,,,,,,,,,,,,,,,,,,,,134088.69999992847,134087.985,124091.326,124108.09999990463,124107.549,134104.651,,,
screen,html.Screen,2_1_1_1_0,2022-04-27T19:51:42.535Z,,,,,,,,,,,,,,,,,54,,,,,,,,,,,,,,590.1489999523037,,response,,,,100,,,,,,,Space,keypress(Space),,,,,,,,At --- ---- --- ------ ----- ------- ---- -- --- ------- --<br>------- ---------- ------ -- ----- -- ----- -- ---- ------<br>--- ----- --- --- ------ -------- ----- --- ------ ----- --<br>----- ----- ---------- --- --- ------ ------ ---- -- ------<br>------- --- ------ ----- --- ---- ------- -- ---- --- --<br>------- ------,134695.19999992847,134694.79999995232,134087.985,134088.69999992847,134104.651,134704.364,,0,At
screen,html.Screen,2_1_1_1_1,2022-04-27T19:51:42.797Z,,,,,,,,,,,,,,,,,54,,,,,,,,,,,,,,253.1359999999986,,response,,,,100,,,,,,,Space,keypress(Space),,,,,,,,-- the ---- --- ------ ----- ------- ---- -- --- ------- --<br>------- ---------- ------ -- ----- -- ----- -- ---- ------<br>--- ----- --- --- ------ -------- ----- --- ------ ----- --<br>----- ----- ---------- --- --- ------ ------ ---- -- ------<br>------- --- ------ ----- --- ---- ------- -- ---- --- --<br>------- ------,134958,134957.5,134687.698,134695.39999997616,134704.364,134970.679,,1,the
screen,html.Screen,2_1_1_1_2,2022-04-27T19:51:43.037Z,,,,,,,,,,,,,,,,,54,,,,,,,,,,,,,,226.32099999999627,,response,,,,100,,,,,,,Space,keypress(Space),,,,,,,,-- --- time --- ------ ----- ------- ---- -- --- ------- --<br>------- ---------- ------ -- ----- -- ----- -- ---- ------<br>--- ----- --- --- ------ -------- ----- --- ------ ----- --<br>----- ----- ---------- --- --- ------ ------ ---- -- ------<br>------- --- ------ ----- --- ---- ------- -- ---- --- --<br>------- ------,135197.39999997616,135197,134954.013,134958.09999990463,134970.679,135203.824,,2,time
screen,html.Screen,2_1_1_1_3,2022-04-27T19:51:43.322Z,,,,,,,,,,,,,,,,,54,,,,,,,,,,,,,,277.7759999046393,,response,,,,100,,,,,,,Space,keypress(Space),,,,,,,,-- --- ---- the ------ ----- ------- ---- -- --- ------- --<br>------- ---------- ------ -- ----- -- ----- -- ---- ------<br>--- ----- --- --- ------ -------- ----- --- ------ ----- --<br>----- ----- ---------- --- --- ------ ------ ---- -- ------<br>------- --- ------ ----- --- ---- ------- -- ---- --- --<br>------- ------,135482.19999992847,135481.59999990463,135187.158,135197.5,135203.824,135487.051,,3,the
screen,html.Screen,2_1_1_1_4,2022-04-27T19:51:43.553Z,,,,,,,,,,,,,,,,,54,,,,,,,,,,,,,,226.44899999999325,,response,,,,100,,,,,,,Space,keypress(Space),,,,,,,,-- --- ---- --- French ----- ------- ---- -- --- ------- --<br>------- ---------- ------ -- ----- -- ----- -- ---- ------<br>--- ----- --- --- ------ -------- ----- --- ------ ----- --<br>----- ----- ---------- --- --- ------ ------ ---- -- ------<br>------- --- ------ ----- --- ---- ------- -- ---- --- --<br>------- ------,135714,135713.5,135470.385,135482.29999995232,135487.051,135720.32,,4,French
screen,html.Screen,2_1_1_1_5,2022-04-27T19:51:43.776Z,,,,,,,,,,,,,,,,,54,,,,,,,,,,,,,,215.77999990462558,,response,,,,100,,,,,,,Space,keypress(Space),,,,,,,,-- --- ---- --- ------ crown ------- ---- -- --- ------- --<br>------- ---------- ------ -- ----- -- ----- -- ---- ------<br>--- ----- --- --- ------ -------- ----- --- ------ ----- --<br>----- ----- ---------- --- --- ------ ------ ---- -- ------<br>------- --- ------ ----- --- ---- ------- -- ---- --- --<br>------- ------,135936.59999990463,135936.09999990463,135703.654,135714.09999990463,135720.32,135953.574,,5,crown
screen,html.Screen,2_1_1_1_6,2022-04-27T19:51:44.019Z,,,,,,,,,,,,,,,,,54,,,,,,,,,,,,,,225.92600000000675,,response,,,,100,,,,,,,Space,keypress(Space),,,,,,,,-- --- ---- --- ------ ----- secured ---- -- --- ------- --<br>------- ---------- ------ -- ----- -- ----- -- ---- ------<br>--- ----- --- --- ------ -------- ----- --- ------ ----- --<br>----- ----- ---------- --- --- ------ ------ ---- -- ------<br>------- --- ------ ----- --- ---- ------- -- ---- --- --<br>------- ------,136180,136179.5,135936.908,135936.79999995232,135953.574,136186.831,,6,secured
screen,html.Screen,2_1_1_1_7,2022-04-27T19:51:44.443Z,,,,,,,,,,,,,,,,,54,,,,,,,,,,,,,,416.06899997615255,,response,,,,100,,,,,,,Space,keypress(Space),,,,,,,,-- --- ---- --- ------ ----- ------- much -- --- ------- --<br>------- ---------- ------ -- ----- -- ----- -- ---- ------<br>--- ----- --- --- ------ -------- ----- --- ------ ----- --<br>----- ----- ---------- --- --- ------ ------ ---- -- ------<br>------- --- ------ ----- --- ---- ------- -- ---- --- --<br>------- ------,136603.59999990463,136602.89999997616,136170.165,136180.09999990463,136186.831,136620.084,,7,much
screen,html.Screen,2_1_1_1_8,2022-04-27T19:51:44.808Z,,,,,,,,,,,,,,,,,54,,,,,,,,,,,,,,347.61599992847187,,response,,,,100,,,,,,,Space,keypress(Space),,,,,,,,-- --- ---- --- ------ ----- ------- ---- of --- ------- --<br>------- ---------- ------ -- ----- -- ----- -- ---- ------<br>--- ----- --- --- ------ -------- ----- --- ------ ----- --<br>----- ----- ---------- --- --- ------ ------ ---- -- ------<br>------- --- ------ ----- --- ---- ------- -- ---- --- --<br>------- ------,136968.29999995232,136967.69999992847,136603.418,136603.69999992847,136620.084,136969.992,,8,of
screen,html.Screen,2_1_1_1_9,2022-04-27T19:51:45.026Z,,,,,,,,,,,,,,,,,54,,,,,,,,,,,,,,215.70799992847606,,response,,,,100,,,,,,,Space,keypress(Space),,,,,,,,-- --- ---- --- ------ ----- ------- ---- -- its ------- --<br>------- ---------- ------ -- ----- -- ----- -- ---- ------<br>--- ----- --- --- ------ -------- ----- --- ------ ----- --<br>----- ----- ---------- --- --- ------ ------ ---- -- ------<br>------- --- ------ ----- --- ---- ------- -- ---- --- --<br>------- ------,137186.29999995232,137185.69999992847,136953.326,136968.5,136969.992,137203.174,,9,its
screen,html.Screen,2_1_1_1_10,2022-04-27T19:51:45.202Z,,,,,,,,,,,,,,,,,54,,,,,,,,,,,,,,158.52599992847536,,response,,,,100,,,,,,,Space,keypress(Space),,,,,,,,-- --- ---- --- ------ ----- ------- ---- -- --- revenue --<br>------- ---------- ------ -- ----- -- ----- -- ---- ------<br>--- ----- --- --- ------ -------- ----- --- ------ ----- --<br>----- ----- ---------- --- --- ------ ------ ---- -- ------<br>------- --- ------ ----- --- ---- ------- -- ---- --- --<br>------- ------,137362.19999992847,137361.69999992847,137186.508,137186.5,137203.174,137369.646,,10,revenue
screen,html.Screen,2_1_1_1_11,2022-04-27T19:51:45.579Z,,,,,,,,,,,,,,,,,54,,,,,,,,,,,,,,369.3539999999921,,response,,,,100,,,,,,,Space,keypress(Space),,,,,,,,-- --- ---- --- ------ ----- ------- ---- -- --- ------- by<br>------- ---------- ------ -- ----- -- ----- -- ---- ------<br>--- ----- --- --- ------ -------- ----- --- ------ ----- --<br>----- ----- ---------- --- --- ------ ------ ---- -- ------<br>------- --- ------ ----- --- ---- ------- -- ---- --- --<br>------- ------,137739.5,137739,137352.98,137362.39999997616,137369.646,137752.988,,11,by
screen,html.Screen,2_1_1_1_12,2022-04-27T19:51:45.798Z,,,,,,,,,,,,,,,,,54,,,,,,,,,,,,,,205.11199990462046,,response,,,,100,,,,,,,Space,keypress(Space),,,,,,,,-- --- ---- --- ------ ----- ------- ---- -- --- ------- --<br>issuing ---------- ------ -- ----- -- ----- -- ---- ------<br>--- ----- --- --- ------ -------- ----- --- ------ ----- --<br>----- ----- ---------- --- --- ------ ------ ---- -- ------<br>------- --- ------ ----- --- ---- ------- -- ---- --- --<br>------- ------,137958.59999990463,137958.09999990463,137736.322,137739.69999992847,137752.988,137969.543,,12,issuing
screen,html.Screen,2_1_1_1_13,2022-04-27T19:51:46.028Z,,,,,,,,,,,,,,,,,54,,,,,,,,,,,,,,218.35699997615302,,response,,,,100,,,,,,,Space,keypress(Space),,,,,,,,-- --- ---- --- ------ ----- ------- ---- -- --- ------- --<br>------- government ------ -- ----- -- ----- -- ---- ------<br>--- ----- --- --- ------ -------- ----- --- ------ ----- --<br>----- ----- ---------- --- --- ------ ------ ---- -- ------<br>------- --- ------ ----- --- ---- ------- -- ---- --- --<br>------- ------,138188.59999990463,138187.89999997616,137952.877,137958.79999995232,137969.543,138202.79,,13,government
screen,html.Screen,2_1_1_1_14,2022-04-27T19:51:46.315Z,,,,,,,,,,,,,,,,,54,,,,,,,,,,,,,,272.70999999999185,,response,,,,100,,,,,,,Space,keypress(Space),,,,,,,,-- --- ---- --- ------ ----- ------- ---- -- --- ------- --<br>------- ---------- bonds. -- ----- -- ----- -- ---- ------<br>--- ----- --- --- ------ -------- ----- --- ------ ----- --<br>----- ----- ---------- --- --- ------ ------ ---- -- ------<br>------- --- ------ ----- --- ---- ------- -- ---- --- --<br>------- ------,138476,138475.5,138186.124,138188.69999992847,138202.79,138485.942,,14,bonds.
screen,html.Screen,2_1_1_1_15,2022-04-27T19:51:46.688Z,,,,,,,,,,,,,,,,,54,,,,,,,,,,,,,,362.55799999999,,response,,,,100,,,,,,,Space,keypress(Space),,,,,,,,-- --- ---- --- ------ ----- ------- ---- -- --- ------- --<br>------- ---------- ------ In ----- -- ----- -- ---- ------<br>--- ----- --- --- ------ -------- ----- --- ------ ----- --<br>----- ----- ---------- --- --- ------ ------ ---- -- ------<br>------- --- ------ ----- --- ---- ------- -- ---- --- --<br>------- ------,138849.09999990463,138848.5,138469.276,138476.19999992847,138485.942,138852.575,,15,In
screen,html.Screen,2_1_1_1_16,2022-04-27T19:51:46.929Z,,,,,,,,,,,,,,,,,54,,,,,,,,,,,,,,236.62499992846278,,response,,,,100,,,,,,,Space,keypress(Space),,,,,,,,"-- --- ---- --- ------ ----- ------- ---- -- --- ------- --<br>------- ---------- ------ -- 1727, -- ----- -- ---- ------<br>--- ----- --- --- ------ -------- ----- --- ------ ----- --<br>----- ----- ---------- --- --- ------ ------ ---- -- ------<br>------- --- ------ ----- --- ---- ------- -- ---- --- --<br>------- ------",139089.69999992847,139089.19999992847,138835.909,138849.09999990463,138852.575,139102.526,,16,"1727,"
screen,html.Screen,2_1_1_1_17,2022-04-27T19:51:47.672Z,,,,,,,,,,,,,,,,,54,,,,,,,,,,,,,,729.7739999523037,,response,,,,100,,,,,,,Space,keypress(Space),,,,,,,,-- --- ---- --- ------ ----- ------- ---- -- --- ------- --<br>------- ---------- ------ -- ----- in ----- -- ---- ------<br>--- ----- --- --- ------ -------- ----- --- ------ ----- --<br>----- ----- ---------- --- --- ------ ------ ---- -- ------<br>------- --- ------ ----- --- ---- ------- -- ---- --- --<br>------- ------,139832.79999995232,139832.29999995232,139085.86,139089.79999995232,139102.526,139835.637,,17,in
screen,html.Screen,2_1_1_1_18,2022-04-27T19:51:47.873Z,,,,,,,,,,,,,,,,,54,,,,,,,,,,,,,,197.06299992848653,,response,,,,100,,,,,,,Space,keypress(Space),,,,,,,,-- --- ---- --- ------ ----- ------- ---- -- --- ------- --<br>------- ---------- ------ -- ----- -- order -- ---- ------<br>--- ----- --- --- ------ -------- ----- --- ------ ----- --<br>----- ----- ---------- --- --- ------ ------ ---- -- ------<br>------- --- ------ ----- --- ---- ------- -- ---- --- --<br>------- ------,140033.09999990463,140032.69999992847,139818.971,139832.89999997616,139835.637,140035.585,,18,order
screen,html.Screen,2_1_1_1_19,2022-04-27T19:51:48.098Z,,,,,,,,,,,,,,,,,54,,,,,,,,,,,,,,222.41500000000815,,response,,,,100,,,,,,,Space,keypress(Space),,,,,,,,-- --- ---- --- ------ ----- ------- ---- -- --- ------- --<br>------- ---------- ------ -- ----- -- ----- to ---- ------<br>--- ----- --- --- ------ -------- ----- --- ------ ----- --<br>----- ----- ---------- --- --- ------ ------ ---- -- ------<br>------- --- ------ ----- --- ---- ------- -- ---- --- --<br>------- ------,140258.5,140258,140018.919,140033.19999992847,140035.585,140268.718,,19,to
screen,html.Screen,2_1_1_1_20,2022-04-27T19:51:48.384Z,,,,,,,,,,,,,,,,,54,,,,,,,,,,,,,,275.2820000000065,,response,,,,100,,,,,,,Space,keypress(Space),,,,,,,,-- --- ---- --- ------ ----- ------- ---- -- --- ------- --<br>------- ---------- ------ -- ----- -- ----- -- save ------<br>--- ----- --- --- ------ -------- ----- --- ------ ----- --<br>----- ----- ---------- --- --- ------ ------ ---- -- ------<br>------- --- ------ ----- --- ---- ------- -- ---- --- --<br>------- ------,140544.69999992847,140544,140252.052,140258.59999990463,140268.718,140551.899,,20,save
screen,html.Screen,2_1_1_1_21,2022-04-27T19:51:48.693Z,,,,,,,,,,,,,,,,,54,,,,,,,,,,,,,,301.4009999523114,,response,,,,100,,,,,,,Space,keypress(Space),,,,,,,,"-- --- ---- --- ------ ----- ------- ---- -- --- ------- --<br>------- ---------- ------ -- ----- -- ----- -- ---- money,<br>--- ----- --- --- ------ -------- ----- --- ------ ----- --<br>----- ----- ---------- --- --- ------ ------ ---- -- ------<br>------- --- ------ ----- --- ---- ------- -- ---- --- --<br>------- ------",140853.79999995232,140853.29999995232,140535.233,140544.69999992847,140551.899,140868.516,,21,"money,"
screen,html.Screen,2_1_1_1_22,2022-04-27T19:51:48.944Z,,,,,,,,,,,,,,,,,54,,,,,,,,,,,,,,235.78399995231302,,response,,,,100,,,,,,,Space,keypress(Space),,,,,,,,-- --- ---- --- ------ ----- ------- ---- -- --- ------- --<br>------- ---------- ------ -- ----- -- ----- -- ---- ------<br>the ----- --- --- ------ -------- ----- --- ------ ----- --<br>----- ----- ---------- --- --- ------ ------ ---- -- ------<br>------- --- ------ ----- --- ---- ------- -- ---- --- --<br>------- ------,141104.79999995232,141104.29999995232,140851.85,140853.89999997616,140868.516,141118.419,,22,the
screen,html.Screen,2_1_1_1_23,2022-04-27T19:51:49.177Z,,,,,,,,,,,,,,,,,54,,,,,,,,,,,,,,218.78099992848,,response,,,,100,,,,,,,Space,keypress(Space),,,,,,,,-- --- ---- --- ------ ----- ------- ---- -- --- ------- --<br>------- ---------- ------ -- ----- -- ----- -- ---- ------<br>--- state --- --- ------ -------- ----- --- ------ ----- --<br>----- ----- ---------- --- --- ------ ------ ---- -- ------<br>------- --- ------ ----- --- ---- ------- -- ---- --- --<br>------- ------,141337.69999992847,141337.19999992847,141101.753,141104.89999997616,141118.419,141351.655,,23,state
screen,html.Screen,2_1_1_1_24,2022-04-27T19:51:49.392Z,,,,,,,,,,,,,,,,,54,,,,,,,,,,,,,,200.2449999761593,,response,,,,100,,,,,,,Space,keypress(Space),,,,,,,,-- --- ---- --- ------ ----- ------- ---- -- --- ------- --<br>------- ---------- ------ -- ----- -- ----- -- ---- ------<br>--- ----- cut --- ------ -------- ----- --- ------ ----- --<br>----- ----- ---------- --- --- ------ ------ ---- -- ------<br>------- --- ------ ----- --- ---- ------- -- ---- --- --<br>------- ------,141552.39999997616,141551.89999997616,141334.989,141337.79999995232,141351.655,141568.242,,24,cut
screen,html.Screen,2_1_1_1_25,2022-04-27T19:51:49.608Z,,,,,,,,,,,,,,,,,54,,,,,,,,,,,,,,200.25800000000163,,response,,,,100,,,,,,,Space,keypress(Space),,,,,,,,-- --- ---- --- ------ ----- ------- ---- -- --- ------- --<br>------- ---------- ------ -- ----- -- ----- -- ---- ------<br>--- ----- --- the ------ -------- ----- --- ------ ----- --<br>----- ----- ---------- --- --- ------ ------ ---- -- ------<br>------- --- ------ ----- --- ---- ------- -- ---- --- --<br>------- ------,141769.09999990463,141768.5,141551.576,141552.5,141568.242,141784.829,,25,the
screen,html.Screen,2_1_1_1_26,2022-04-27T19:51:49.941Z,,,,,,,,,,,,,,,,,54,,,,,,,,,,,,,,316.07099997616024,,response,,,,100,,,,,,,Space,keypress(Space),,,,,,,,-- --- ---- --- ------ ----- ------- ---- -- --- ------- --<br>------- ---------- ------ -- ----- -- ----- -- ---- ------<br>--- ----- --- --- bonds' -------- ----- --- ------ ----- --<br>----- ----- ---------- --- --- ------ ------ ---- -- ------<br>------- --- ------ ----- --- ---- ------- -- ---- --- --<br>------- ------,142101.39999997616,142100.89999997616,141768.163,141769.09999990463,141784.829,142118.047,,26,bonds'
screen,html.Screen,2_1_1_1_27,2022-04-27T19:51:50.196Z,,,,,,,,,,,,,,,,,54,,,,,,,,,,,,,,237.85299997616676,,response,,,,100,,,,,,,Space,keypress(Space),,,,,,,,-- --- ---- --- ------ ----- ------- ---- -- --- ------- --<br>------- ---------- ------ -- ----- -- ----- -- ---- ------<br>--- ----- --- --- ------ interest ----- --- ------ ----- --<br>----- ----- ---------- --- --- ------ ------ ---- -- ------<br>------- --- ------ ----- --- ---- ------- -- ---- --- --<br>------- ------,142356.39999997616,142355.89999997616,142101.381,142101.5,142118.047,142368.011,,27,interest
screen,html.Screen,2_1_1_1_28,2022-04-27T19:51:50.465Z,,,,,,,,,,,,,,,,,54,,,,,,,,,,,,,,257.4890000000014,,response,,,,100,,,,,,,Space,keypress(Space),,,,,,,,-- --- ---- --- ------ ----- ------- ---- -- --- ------- --<br>------- ---------- ------ -- ----- -- ----- -- ---- ------<br>--- ----- --- --- ------ -------- rate. --- ------ ----- --<br>----- ----- ---------- --- --- ------ ------ ---- -- ------<br>------- --- ------ ----- --- ---- ------- -- ---- --- --<br>------- ------,142626,142625.5,142351.345,142356.59999990463,142368.011,142634.541,,28,rate.
screen,html.Screen,2_1_1_1_29,2022-04-27T19:51:50.853Z,,,,,,,,,,,,,,,,,54,,,,,,,,,,,,,,379.05899990463513,,response,,,,100,,,,,,,Space,keypress(Space),,,,,,,,-- --- ---- --- ------ ----- ------- ---- -- --- ------- --<br>------- ---------- ------ -- ----- -- ----- -- ---- ------<br>--- ----- --- --- ------ -------- ----- The ------ ----- --<br>----- ----- ---------- --- --- ------ ------ ---- -- ------<br>------- --- ------ ----- --- ---- ------- -- ---- --- --<br>------- ------,143014.09999990463,143013.59999990463,142617.875,142626.09999990463,142634.541,143017.796,,29,The
screen,html.Screen,2_1_1_1_30,2022-04-27T19:51:51.115Z,,,,,,,,,,,,,,,,,54,,,,,,,,,,,,,,257.10399997615605,,response,,,,100,,,,,,,Space,keypress(Space),,,,,,,,-- --- ---- --- ------ ----- ------- ---- -- --- ------- --<br>------- ---------- ------ -- ----- -- ----- -- ---- ------<br>--- ----- --- --- ------ -------- ----- --- market ----- --<br>----- ----- ---------- --- --- ------ ------ ---- -- ------<br>------- --- ------ ----- --- ---- ------- -- ---- --- --<br>------- ------,143275.5,143274.89999997616,143001.13,143014.19999992847,143017.796,143284.359,,30,market
screen,html.Screen,2_1_1_1_31,2022-04-27T19:51:51.427Z,,,,,,,,,,,,,,,,,54,,,,,,,,,,,,,,302.7409999046358,,response,,,,100,,,,,,,Space,keypress(Space),,,,,,,,-- --- ---- --- ------ ----- ------- ---- -- --- ------- --<br>------- ---------- ------ -- ----- -- ----- -- ---- ------<br>--- ----- --- --- ------ -------- ----- --- ------ value --<br>----- ----- ---------- --- --- ------ ------ ---- -- ------<br>------- --- ------ ----- --- ---- ------- -- ---- --- --<br>------- ------,143587.59999990463,143587.09999990463,143267.693,143275.5,143284.359,143600.874,,31,value
screen,html.Screen,2_1_1_1_32,2022-04-27T19:51:51.687Z,,,,,,,,,,,,,,,,,54,,,,,,,,,,,,,,246.32599992846372,,response,,,,100,,,,,,,Space,keypress(Space),,,,,,,,-- --- ---- --- ------ ----- ------- ---- -- --- ------- --<br>------- ---------- ------ -- ----- -- ----- -- ---- ------<br>--- ----- --- --- ------ -------- ----- --- ------ ----- of<br>----- ----- ---------- --- --- ------ ------ ---- -- ------<br>------- --- ------ ----- --- ---- ------- -- ---- --- --<br>------- ------,143847.79999995232,143847.19999992847,143584.208,143587.79999995232,143600.874,143850.751,,32,of
screen,html.Screen,2_1_1_1_33,2022-04-27T19:51:51.965Z,,,,,,,,,,,,,,,,,54,,,,,,,,,,,,,,274.44899992848514,,response,,,,100,,,,,,,Space,keypress(Space),,,,,,,,-- --- ---- --- ------ ----- ------- ---- -- --- ------- --<br>------- ---------- ------ -- ----- -- ----- -- ---- ------<br>--- ----- --- --- ------ -------- ----- --- ------ ----- --<br>these ----- ---------- --- --- ------ ------ ---- -- ------<br>------- --- ------ ----- --- ---- ------- -- ---- --- --<br>------- ------,144125.69999992847,144125.19999992847,143834.085,143847.79999995232,143850.751,144134.001,,33,these
screen,html.Screen,2_1_1_1_34,2022-04-27T19:51:52.229Z,,,,,,,,,,,,,,,,,54,,,,,,,,,,,,,,255.09899990464328,,response,,,,100,,,,,,,Space,keypress(Space),,,,,,,,-- --- ---- --- ------ ----- ------- ---- -- --- ------- --<br>------- ---------- ------ -- ----- -- ----- -- ---- ------<br>--- ----- --- --- ------ -------- ----- --- ------ ----- --<br>----- bonds ---------- --- --- ------ ------ ---- -- ------<br>------- --- ------ ----- --- ---- ------- -- ---- --- --<br>------- ------,144389.79999995232,144389.09999990463,144117.335,144125.79999995232,144134.001,144400.609,,34,bonds
screen,html.Screen,2_1_1_1_35,2022-04-27T19:51:52.445Z,,,,,,,,,,,,,,,,,54,,,,,,,,,,,,,,204.99099990463583,,response,,,,100,,,,,,,Space,keypress(Space),,,,,,,,"-- --- ---- --- ------ ----- ------- ---- -- --- ------- --<br>------- ---------- ------ -- ----- -- ----- -- ---- ------<br>--- ----- --- --- ------ -------- ----- --- ------ ----- --<br>----- ----- plummeted, --- --- ------ ------ ---- -- ------<br>------- --- ------ ----- --- ---- ------- -- ---- --- --<br>------- ------",144606,144605.59999990463,144383.943,144390,144400.609,144617.209,,35,"plummeted,"
screen,html.Screen,2_1_1_1_36,2022-04-27T19:51:52.810Z,,,,,,,,,,,,,,,,,54,,,,,,,,,,,,,,352.1909999761556,,response,,,,100,,,,,,,Space,keypress(Space),,,,,,,,-- --- ---- --- ------ ----- ------- ---- -- --- ------- --<br>------- ---------- ------ -- ----- -- ----- -- ---- ------<br>--- ----- --- --- ------ -------- ----- --- ------ ----- --<br>----- ----- ---------- and --- ------ ------ ---- -- ------<br>------- --- ------ ----- --- ---- ------- -- ---- --- --<br>------- ------,144970.19999992847,144969.39999997616,144600.543,144606.09999990463,144617.209,144983.716,,36,and
screen,html.Screen,2_1_1_1_37,2022-04-27T19:51:53.049Z,,,,,,,,,,,,,,,,,54,,,,,,,,,,,,,,225.5839999523305,,response,,,,100,,,,,,,Space,keypress(Space),,,,,,,,-- --- ---- --- ------ ----- ------- ---- -- --- ------- --<br>------- ---------- ------ -- ----- -- ----- -- ---- ------<br>--- ----- --- --- ------ -------- ----- --- ------ ----- --<br>----- ----- ---------- --- the ------ ------ ---- -- ------<br>------- --- ------ ----- --- ---- ------- -- ---- --- --<br>------- ------,145209.79999995232,145209.29999995232,144967.05,144970.29999995232,144983.716,145217.003,,37,the
screen,html.Screen,2_1_1_1_38,2022-04-27T19:51:53.270Z,,,,,,,,,,,,,,,,,54,,,,,,,,,,,,,,213.19699992847745,,response,,,,100,,,,,,,Space,keypress(Space),,,,,,,,-- --- ---- --- ------ ----- ------- ---- -- --- ------- --<br>------- ---------- ------ -- ----- -- ----- -- ---- ------<br>--- ----- --- --- ------ -------- ----- --- ------ ----- --<br>----- ----- ---------- --- --- market ------ ---- -- ------<br>------- --- ------ ----- --- ---- ------- -- ---- --- --<br>------- ------,145430.59999990463,145430.19999992847,145200.337,145209.89999997616,145217.003,145433.506,,38,market
screen,html.Screen,2_1_1_1_39,2022-04-27T19:51:53.531Z,,,,,,,,,,,,,,,,,54,,,,,,,,,,,,,,257.99400000000605,,response,,,,100,,,,,,,Space,keypress(Space),,,,,,,,-- --- ---- --- ------ ----- ------- ---- -- --- ------- --<br>------- ---------- ------ -- ----- -- ----- -- ---- ------<br>--- ----- --- --- ------ -------- ----- --- ------ ----- --<br>----- ----- ---------- --- --- ------ became ---- -- ------<br>------- --- ------ ----- --- ---- ------- -- ---- --- --<br>------- ------,145691.89999997616,145691.5,145416.84,145430.69999992847,145433.506,145700.141,,39,became
screen,html.Screen,2_1_1_1_40,2022-04-27T19:51:53.815Z,,,,,,,,,,,,,,,,,54,,,,,,,,,,,,,,275.05899992847117,,response,,,,100,,,,,,,Space,keypress(Space),,,,,,,,-- --- ---- --- ------ ----- ------- ---- -- --- ------- --<br>------- ---------- ------ -- ----- -- ----- -- ---- ------<br>--- ----- --- --- ------ -------- ----- --- ------ ----- --<br>----- ----- ---------- --- --- ------ ------ wary -- ------<br>------- --- ------ ----- --- ---- ------- -- ---- --- --<br>------- ------,145975.69999992847,145975.19999992847,145683.475,145692,145700.141,145983.377,,40,wary
screen,html.Screen,2_1_1_1_41,2022-04-27T19:51:54.099Z,,,,,,,,,,,,,,,,,54,,,,,,,,,,,,,,276.2229999046249,,response,,,,100,,,,,,,Space,keypress(Space),,,,,,,,-- --- ---- --- ------ ----- ------- ---- -- --- ------- --<br>------- ---------- ------ -- ----- -- ----- -- ---- ------<br>--- ----- --- --- ------ -------- ----- --- ------ ----- --<br>----- ----- ---------- --- --- ------ ------ ---- of ------<br>------- --- ------ ----- --- ---- ------- -- ---- --- --<br>------- ------,146260.09999990463,146259.59999990463,145966.711,145975.79999995232,145983.377,146266.616,,41,of
screen,html.Screen,2_1_1_1_42,2022-04-27T19:51:54.344Z,,,,,,,,,,,,,,,,,54,,,,,,,,,,,,,,237.4839999046235,,response,,,,100,,,,,,,Space,keypress(Space),,,,,,,,-- --- ---- --- ------ ----- ------- ---- -- --- ------- --<br>------- ---------- ------ -- ----- -- ----- -- ---- ------<br>--- ----- --- --- ------ -------- ----- --- ------ ----- --<br>----- ----- ---------- --- --- ------ ------ ---- -- French<br>------- --- ------ ----- --- ---- ------- -- ---- --- --<br>------- ------,146504.69999992847,146504.09999990463,146249.95,146260.09999990463,146266.616,146516.466,,42,French
screen,html.Screen,2_1_1_1_43,2022-04-27T19:51:54.574Z,,,,,,,,,,,,,,,,,54,,,,,,,,,,,,,,217.8339999523305,,response,,,,100,,,,,,,Space,keypress(Space),,,,,,,,-- --- ---- --- ------ ----- ------- ---- -- --- ------- --<br>------- ---------- ------ -- ----- -- ----- -- ---- ------<br>--- ----- --- --- ------ -------- ----- --- ------ ----- --<br>----- ----- ---------- --- --- ------ ------ ---- -- ------<br>credit. --- ------ ----- --- ---- ------- -- ---- --- --<br>------- ------,146734.79999995232,146734.29999995232,146499.8,146504.79999995232,146516.466,146749.738,,43,credit.
screen,html.Screen,2_1_1_1_44,2022-04-27T19:51:54.938Z,,,,,,,,,,,,,,,,,54,,,,,,,,,,,,,,348.4619999284623,,response,,,,100,,,,,,,Space,keypress(Space),,,,,,,,-- --- ---- --- ------ ----- ------- ---- -- --- ------- --<br>------- ---------- ------ -- ----- -- ----- -- ---- ------<br>--- ----- --- --- ------ -------- ----- --- ------ ----- --<br>----- ----- ---------- --- --- ------ ------ ---- -- ------<br>------- The ------ ----- --- ---- ------- -- ---- --- --<br>------- ------,147098.69999992847,147098.19999992847,146733.072,146734.89999997616,146749.738,147099.674,,44,The
screen,html.Screen,2_1_1_1_45,2022-04-27T19:51:55.148Z,,,,,,,,,,,,,,,,,54,,,,,,,,,,,,,,208.22599997615907,,response,,,,100,,,,,,,Space,keypress(Space),,,,,,,,-- --- ---- --- ------ ----- ------- ---- -- --- ------- --<br>------- ---------- ------ -- ----- -- ----- -- ---- ------<br>--- ----- --- --- ------ -------- ----- --- ------ ----- --<br>----- ----- ---------- --- --- ------ ------ ---- -- ------<br>------- --- French ----- --- ---- ------- -- ---- --- --<br>------- ------,147308.29999995232,147307.89999997616,147083.008,147098.69999992847,147099.674,147316.263,,45,French
screen,html.Screen,2_1_1_1_46,2022-04-27T19:51:55.357Z,,,,,,,,,,,,,,,,,54,,,,,,,,,,,,,,200.83699990462628,,response,,,,100,,,,,,,Space,keypress(Space),,,,,,,,-- --- ---- --- ------ ----- ------- ---- -- --- ------- --<br>------- ---------- ------ -- ----- -- ----- -- ---- ------<br>--- ----- --- --- ------ -------- ----- --- ------ ----- --<br>----- ----- ---------- --- --- ------ ------ ---- -- ------<br>------- --- ------ state --- ---- ------- -- ---- --- --<br>------- ------,147517.5,147517.09999990463,147299.597,147308.39999997616,147316.263,147532.8,,46,state
screen,html.Screen,2_1_1_1_47,2022-04-27T19:51:55.565Z,,,,,,,,,,,,,,,,,54,,,,,,,,,,,,,,192.59999997616978,,response,,,,100,,,,,,,Space,keypress(Space),,,,,,,,-- --- ---- --- ------ ----- ------- ---- -- --- ------- --<br>------- ---------- ------ -- ----- -- ----- -- ---- ------<br>--- ----- --- --- ------ -------- ----- --- ------ ----- --<br>----- ----- ---------- --- --- ------ ------ ---- -- ------<br>------- --- ------ ----- was ---- ------- -- ---- --- --<br>------- ------,147726,147725.39999997616,147516.134,147517.59999990463,147532.8,147732.686,,47,was
screen,html.Screen,2_1_1_1_48,2022-04-27T19:51:55.803Z,,,,,,,,,,,,,,,,,54,,,,,,,,,,,,,,230.01399992848746,,response,,,,100,,,,,,,Space,keypress(Space),,,,,,,,-- --- ---- --- ------ ----- ------- ---- -- --- ------- --<br>------- ---------- ------ -- ----- -- ----- -- ---- ------<br>--- ----- --- --- ------ -------- ----- --- ------ ----- --<br>----- ----- ---------- --- --- ------ ------ ---- -- ------<br>------- --- ------ ----- --- left ------- -- ---- --- --<br>------- ------,147963.29999995232,147962.69999992847,147716.02,147726.19999992847,147732.686,147965.978,,48,left
screen,html.Screen,2_1_1_1_49,2022-04-27T19:51:56.040Z,,,,,,,,,,,,,,,,,54,,,,,,,,,,,,,,233.92199997615535,,response,,,,100,,,,,,,Space,keypress(Space),,,,,,,,-- --- ---- --- ------ ----- ------- ---- -- --- ------- --<br>------- ---------- ------ -- ----- -- ----- -- ---- ------<br>--- ----- --- --- ------ -------- ----- --- ------ ----- --<br>----- ----- ---------- --- --- ------ ------ ---- -- ------<br>------- --- ------ ----- --- ---- without -- ---- --- --<br>------- ------,148200.5,148199.89999997616,147949.312,147963.39999997616,147965.978,148215.889,,49,without
screen,html.Screen,2_1_1_1_50,2022-04-27T19:51:56.258Z,,,,,,,,,,,,,,,,,54,,,,,,,,,,,,,,201.710999904637,,response,,,,100,,,,,,,Space,keypress(Space),,,,,,,,-- --- ---- --- ------ ----- ------- ---- -- --- ------- --<br>------- ---------- ------ -- ----- -- ----- -- ---- ------<br>--- ----- --- --- ------ -------- ----- --- ------ ----- --<br>----- ----- ---------- --- --- ------ ------ ---- -- ------<br>------- --- ------ ----- --- ---- ------- an ---- --- --<br>------- ------,148418.09999990463,148417.59999990463,148199.223,148200.59999990463,148215.889,148432.482,,50,an
screen,html.Screen,2_1_1_1_51,2022-04-27T19:51:56.480Z,,,,,,,,,,,,,,,,,54,,,,,,,,,,,,,,207.51800000001094,,response,,,,100,,,,,,,Space,keypress(Space),,,,,,,,-- --- ---- --- ------ ----- ------- ---- -- --- ------- --<br>------- ---------- ------ -- ----- -- ----- -- ---- ------<br>--- ----- --- --- ------ -------- ----- --- ------ ----- --<br>----- ----- ---------- --- --- ------ ------ ---- -- ------<br>------- --- ------ ----- --- ---- ------- -- easy --- --<br>------- ------,148640.59999990463,148640,148415.816,148418.29999995232,148432.482,148649.076,,51,easy
screen,html.Screen,2_1_1_1_52,2022-04-27T19:51:56.731Z,,,,,,,,,,,,,,,,,54,,,,,,,,,,,,,,242.52399990463164,,response,,,,100,,,,,,,Space,keypress(Space),,,,,,,,-- --- ---- --- ------ ----- ------- ---- -- --- ------- --<br>------- ---------- ------ -- ----- -- ----- -- ---- ------<br>--- ----- --- --- ------ -------- ----- --- ------ ----- --<br>----- ----- ---------- --- --- ------ ------ ---- -- ------<br>------- --- ------ ----- --- ---- ------- -- ---- way --<br>------- ------,148892.09999990463,148891.59999990463,148632.41,148640.59999990463,148649.076,148899.009,,52,way
screen,html.Screen,2_1_1_1_53,2022-04-27T19:51:57.124Z,,,,,,,,,,,,,,,,,54,,,,,,,,,,,,,,385.29099995232536,,response,,,,100,,,,,,,Space,keypress(Space),,,,,,,,-- --- ---- --- ------ ----- ------- ---- -- --- ------- --<br>------- ---------- ------ -- ----- -- ----- -- ---- ------<br>--- ----- --- --- ------ -------- ----- --- ------ ----- --<br>----- ----- ---------- --- --- ------ ------ ---- -- ------<br>------- --- ------ ----- --- ---- ------- -- ---- --- of<br>------- ------,149284.79999995232,149284.29999995232,148882.343,148892.19999992847,148899.009,149298.909,,53,of
screen,html.Screen,2_1_1_1_54,2022-04-27T19:51:57.335Z,,,,,,,,,,,,,,,,,54,,,,,,,,,,,,,,196.5909999999858,,response,,,,100,,,,,,,Space,keypress(Space),,,,,,,,-- --- ---- --- ------ ----- ------- ---- -- --- ------- --<br>------- ---------- ------ -- ----- -- ----- -- ---- ------<br>--- ----- --- --- ------ -------- ----- --- ------ ----- --<br>----- ----- ---------- --- --- ------ ------ ---- -- ------<br>------- --- ------ ----- --- ---- ------- -- ---- --- --<br>raising ------,149495.89999997616,149495.5,149282.243,149284.89999997616,149298.909,149498.861,,54,raising
screen,html.Screen,2_1_1_1_55,2022-04-27T19:51:57.714Z,,,,,,,,,,,,,,,,,54,,,,,,,,,,,,,,375.5389999761537,,response,,,,100,,,,,,,Space,keypress(Space),,,,,,,,-- --- ---- --- ------ ----- ------- ---- -- --- ------- --<br>------- ---------- ------ -- ----- -- ----- -- ---- ------<br>--- ----- --- --- ------ -------- ----- --- ------ ----- --<br>----- ----- ---------- --- --- ------ ------ ---- -- ------<br>------- --- ------ ----- --- ---- ------- -- ---- --- --<br>------- money.,149875,149874.39999997616,149482.195,149496.09999990463,149498.861,149882.023,,55,money.
Item 100,flow.Loop,2_1_1_1,2022-04-27T19:51:57.715Z,,,,,,,,,,,,,,,,,,,,,,,,,,,,,,,15769.748999976146,,completion,,,,,C,,,,,,,,,,,silence,,,,,149875.29999995232,149874.39999997616,134087.985,134088.69999992847,134104.651,149882.023,,,
Question 1,html.Screen,2_1_1_2,2022-04-27T19:51:59.780Z,,,,,,,,,,,,,,,,,,,,,,,,,,,,true,TRUE,,2057.076999904646,,response,,,,100,C,,,,,,TRUE,click #choice-1,,,,silence,,,,,151940.59999990463,151939.09999990463,149865.357,149875.39999997616,149882.023,151947.884,,,
Question 2,html.Screen,2_1_1_3,2022-04-27T19:52:01.697Z,,,,,,,,,,,,,,,,,,,,,,,,,,,,true,FALSE,,1908.5159999761672,,response,,,,100,C,,,,,,FALSE,click #choice-2,,,,silence,,,,,153857.79999995232,153856.39999997616,151931.218,151940.79999995232,151947.884,153863.923,,,
Item 100,flow.Sequence,2_1_1,2022-04-27T19:52:01.697Z,,,,,,,,,,,,,,,,,,,,,,,,,,,,,,,29748.85099997616,,completion,,,,,,,,,,,,,,,,,,,,,153858,153856.39999997616,124091.326,124108.09999990463,124107.549,153863.923,,,
End of Practice,html.Page,2_1_2,2022-04-27T19:52:04.566Z,,,,,,,,,,,,,,,,,,,,,,,,,,,,,,,2862.57699999999,,form submission,,,,,,,,,,,,,,,,,,,,,156727.19999992847,156726.5,153847.257,153858,153863.923,156729.65,,,
Practice,flow.Sequence,2_1,2022-04-27T19:52:04.567Z,,,,,,,,,,,,,,,,,,,,,,,,,,,,,,,66806.755,,completion,,,,,,,,,,,,,,,,,,,,,156727.29999995232,156726.5,89903.079,89915.69999992847,89919.745,156729.65,,,
Trap_instruction,html.Page,2_2_0,2022-04-27T19:52:07.687Z,,,,,,,,,,,,,,,,,,,,,,,,,,,,,,,3116.9499999046384,,form submission,,,,,,,,,,,,,,,,,,,,,159847.39999997616,159846.59999990463,156712.984,156727.5,156729.65,159845.742,,,
trap_trial,html.Screen,2_2_1,2022-04-27T19:52:10.865Z,,,,,,,,,,,,,,,,,,,,,,,,,,,,true,1,,3177.957999928476,,response,,,,,,,,,,,1,click #choice-1,,,,,,,,,163025.29999995232,163023.69999992847,159829.076,159847.5,159845.742,163028.159,,,
end of trap trial,html.Page,2_2_2,2022-04-27T19:52:12.648Z,,,,,,,,,,,,,,,,,,,,,,,,,,,,,,,1779.5409999284602,,form submission,,,,,,,,,,,,,,,,,,,,,164808.39999997616,164807.69999992847,163011.493,163025.39999997616,163028.159,164810.101,,,
Trap 1,flow.Sequence,2_2,2022-04-27T19:52:12.648Z,,,,,,,,,,,,,,,,,,,,,,,,,,,,,,,8078.04999992848,,completion,,,,,,,,,,,,,,,,,,,,,164808.59999990463,164807.69999992847,156712.984,156727.5,156729.65,164810.101,,,
Standby,html.Page,2_3_0,2022-04-27T19:52:20.634Z,,,,,,,,,,,,,,,,,,,,,,,,,,,,,,,7999.542000000016,,timeout,,,,,,,,,,,,,,,,,,,,,172794.29999995232,172792.977,164793.435,164808.79999995232,164810.101,172809.643,,,
Holding screen,html.Screen,2_3_1_0_0,2022-04-27T19:52:27.629Z,,,,,,,,,,,,,,,,,,,,,,,,,,,,,,,6995.726999999984,,timeout,,,,,,,,,,,,,,,,,,,,,179789.59999990463,179788.704,172792.977,172794.5,172809.643,179805.37,,,
screen,html.Screen,2_3_1_0_1_0,2022-04-27T19:52:28.170Z,,,,,,,,,,,,,,,,,40,,,,,,,,,,,,,,524.4299999523209,,response,,,,9,C,,,,,,Space,keypress(Space),,,,instrumental,,,,Police -- ------- ---- ---- ---- - -------- ----- --- --<br>----- ----- ------ -- ---- -- --- - ---- -- - ----- -----<br>------ ---- ------ ---- - -------- ------- -- --- --------<br>-------- ----------- ---- ------ ---- ------ ---- --- ---<br>-------- --- -----,180330.5,180329.79999995232,179788.704,179789.69999992847,179805.37,180338.302,,0,Police
screen,html.Screen,2_3_1_0_1_1,2022-04-27T19:52:28.465Z,,,,,,,,,,,,,,,,,40,,,,,,,,,,,,,,287.19800000000396,,response,,,,9,C,,,,,,Space,keypress(Space),,,,instrumental,,,,------ in ------- ---- ---- ---- - -------- ----- --- --<br>----- ----- ------ -- ---- -- --- - ---- -- - ----- -----<br>------ ---- ------ ---- - -------- ------- -- --- --------<br>-------- ----------- ---- ------ ---- ------ ---- --- ---<br>-------- --- -----,180626.09999990463,180625.5,180321.636,180330.59999990463,180338.302,180638.054,,1,in
screen,html.Screen,2_3_1_0_1_2,2022-04-27T19:52:28.722Z,,,,,,,,,,,,,,,,,40,,,,,,,,,,,,,,243.84599997615442,,response,,,,9,C,,,,,,Space,keypress(Space),,,,instrumental,,,,------ -- Georgia ---- ---- ---- - -------- ----- --- --<br>----- ----- ------ -- ---- -- --- - ---- -- - ----- -----<br>------ ---- ------ ---- - -------- ------- -- --- --------<br>-------- ----------- ---- ------ ---- ------ ---- --- ---<br>-------- --- -----,180882.39999997616,180881.89999997616,180621.388,180626.19999992847,180638.054,180887.863,,2,Georgia
screen,html.Screen,2_3_1_0_1_3,2022-04-27T19:52:29.086Z,,,,,,,,,,,,,,,,,40,,,,,,,,,,,,,,357.8369999284623,,response,,,,9,C,,,,,,Space,keypress(Space),,,,instrumental,,,,------ -- ------- have ---- ---- - -------- ----- --- --<br>----- ----- ------ -- ---- -- --- - ---- -- - ----- -----<br>------ ---- ------ ---- - -------- ------- -- --- --------<br>-------- ----------- ---- ------ ---- ------ ---- --- ---<br>-------- --- -----,181246.19999992847,181245.69999992847,180871.197,180882.5,180887.863,181254.421,,3,have
screen,html.Screen,2_3_1_0_1_4,2022-04-27T19:52:29.315Z,,,,,,,,,,,,,,,,,40,,,,,,,,,,,,,,220.27899992847233,,response,,,,9,C,,,,,,Space,keypress(Space),,,,instrumental,,,,------ -- ------- ---- shut ---- - -------- ----- --- --<br>----- ----- ------ -- ---- -- --- - ---- -- - ----- -----<br>------ ---- ------ ---- - -------- ------- -- --- --------<br>-------- ----------- ---- ------ ---- ------ ---- --- ---<br>-------- --- -----,181475.19999992847,181474.69999992847,181237.755,181246.39999997616,181254.421,181487.648,,4,shut
screen,html.Screen,2_3_1_0_1_5,2022-04-27T19:52:29.586Z,,,,,,,,,,,,,,,,,40,,,,,,,,,,,,,,258.1519999523298,,response,,,,9,C,,,,,,Space,keypress(Space),,,,instrumental,,,,------ -- ------- ---- ---- down - -------- ----- --- --<br>----- ----- ------ -- ---- -- --- - ---- -- - ----- -----<br>------ ---- ------ ---- - -------- ------- -- --- --------<br>-------- ----------- ---- ------ ---- ------ ---- --- ---<br>-------- --- -----,181746.29999995232,181745.79999995232,181470.982,181475.29999995232,181487.648,181754.213,,5,down
screen,html.Screen,2_3_1_0_1_6,2022-04-27T19:52:29.886Z,,,,,,,,,,,,,,,,,40,,,,,,,,,,,,,,292.38699990464374,,response,,,,9,C,,,,,,Space,keypress(Space),,,,instrumental,,,,------ -- ------- ---- ---- ---- a -------- ----- --- --<br>----- ----- ------ -- ---- -- --- - ---- -- - ----- -----<br>------ ---- ------ ---- - -------- ------- -- --- --------<br>-------- ----------- ---- ------ ---- ------ ---- --- ---<br>-------- --- -----,182047.19999992847,182046.59999990463,181737.547,181746.39999997616,181754.213,182054.122,,6,a
screen,html.Screen,2_3_1_0_1_7,2022-04-27T19:52:30.148Z,,,,,,,,,,,,,,,,,40,,,,,,,,,,,,,,253.87799999999697,,response,,,,9,C,,,,,,Space,keypress(Space),,,,instrumental,,,,------ -- ------- ---- ---- ---- - lemonade ----- --- --<br>----- ----- ------ -- ---- -- --- - ---- -- - ----- -----<br>------ ---- ------ ---- - -------- ------- -- --- --------<br>-------- ----------- ---- ------ ---- ------ ---- --- ---<br>-------- --- -----,182308.5,182308,182037.456,182047.29999995232,182054.122,182320.707,,7,lemonade
screen,html.Screen,2_3_1_0_1_8,2022-04-27T19:52:30.549Z,,,,,,,,,,,,,,,,,40,,,,,,,,,,,,,,388.69299997616326,,response,,,,9,C,,,,,,Space,keypress(Space),,,,instrumental,,,,------ -- ------- ---- ---- ---- - -------- stand --- --<br>----- ----- ------ -- ---- -- --- - ---- -- - ----- -----<br>------ ---- ------ ---- - -------- ------- -- --- --------<br>-------- ----------- ---- ------ ---- ------ ---- --- ---<br>-------- --- -----,182710,182709.39999997616,182304.041,182308.59999990463,182320.707,182720.598,,8,stand
screen,html.Screen,2_3_1_0_1_9,2022-04-27T19:52:30.842Z,,,,,,,,,,,,,,,,,40,,,,,,,,,,,,,,281.70199995231815,,response,,,,9,C,,,,,,Space,keypress(Space),,,,instrumental,,,,------ -- ------- ---- ---- ---- - -------- ----- run --<br>----- ----- ------ -- ---- -- --- - ---- -- - ----- -----<br>------ ---- ------ ---- - -------- ------- -- --- --------<br>-------- ----------- ---- ------ ---- ------ ---- --- ---<br>-------- --- -----,183002.79999995232,183002.29999995232,182703.932,182710.09999990463,182720.598,183003.819,,9,run
screen,html.Screen,2_3_1_0_1_10,2022-04-27T19:52:31.234Z,,,,,,,,,,,,,,,,,40,,,,,,,,,,,,,,390.4809999523277,,response,,,,9,C,,,,,,Space,keypress(Space),,,,instrumental,,,,------ -- ------- ---- ---- ---- - -------- ----- --- by<br>----- ----- ------ -- ---- -- --- - ---- -- - ----- -----<br>------ ---- ------ ---- - -------- ------- -- --- --------<br>-------- ----------- ---- ------ ---- ------ ---- --- ---<br>-------- --- -----,183394.79999995232,183394.29999995232,182987.153,183002.89999997616,183003.819,183403.703,,10,by
screen,html.Screen,2_3_1_0_1_11,2022-04-27T19:52:31.460Z,,,,,,,,,,,,,,,,,40,,,,,,,,,,,,,,216.09699995230767,,response,,,,9,C,,,,,,Space,keypress(Space),,,,instrumental,,,,------ -- ------- ---- ---- ---- - -------- ----- --- --<br>three ----- ------ -- ---- -- --- - ---- -- - ----- -----<br>------ ---- ------ ---- - -------- ------- -- --- --------<br>-------- ----------- ---- ------ ---- ------ ---- --- ---<br>-------- --- -----,183620.19999992847,183619.79999995232,183387.037,183395,183403.703,183636.91,,11,three
screen,html.Screen,2_3_1_0_1_12,2022-04-27T19:52:31.704Z,,,,,,,,,,,,,,,,,40,,,,,,,,,,,,,,227.0899999999965,,response,,,,9,C,,,,,,Space,keypress(Space),,,,instrumental,,,,------ -- ------- ---- ---- ---- - -------- ----- --- --<br>----- girls ------ -- ---- -- --- - ---- -- - ----- -----<br>------ ---- ------ ---- - -------- ------- -- --- --------<br>-------- ----------- ---- ------ ---- ------ ---- --- ---<br>-------- --- -----,183864.5,183864,183620.244,183620.29999995232,183636.91,183870.072,,12,girls
screen,html.Screen,2_3_1_0_1_13,2022-04-27T19:52:31.934Z,,,,,,,,,,,,,,,,,40,,,,,,,,,,,,,,224.62799992848886,,response,,,,9,C,,,,,,Space,keypress(Space),,,,instrumental,,,,------ -- ------- ---- ---- ---- - -------- ----- --- --<br>----- ----- trying -- ---- -- --- - ---- -- - ----- -----<br>------ ---- ------ ---- - -------- ------- -- --- --------<br>-------- ----------- ---- ------ ---- ------ ---- --- ---<br>-------- --- -----,184095.09999990463,184094.69999992847,183853.406,183864.59999990463,183870.072,184103.389,,13,trying
screen,html.Screen,2_3_1_0_1_14,2022-04-27T19:52:32.155Z,,,,,,,,,,,,,,,,,40,,,,,,,,,,,,,,211.51099997616257,,response,,,,9,C,,,,,,Space,keypress(Space),,,,instrumental,,,,------ -- ------- ---- ---- ---- - -------- ----- --- --<br>----- ----- ------ to ---- -- --- - ---- -- - ----- -----<br>------ ---- ------ ---- - -------- ------- -- --- --------<br>-------- ----------- ---- ------ ---- ------ ---- --- ---<br>-------- --- -----,184315.39999997616,184314.89999997616,184086.723,184095.19999992847,184103.389,184319.982,,14,to
screen,html.Screen,2_3_1_0_1_15,2022-04-27T19:52:32.396Z,,,,,,,,,,,,,,,,,40,,,,,,,,,,,,,,236.01800000001094,,response,,,,9,C,,,,,,Space,keypress(Space),,,,instrumental,,,,------ -- ------- ---- ---- ---- - -------- ----- --- --<br>----- ----- ------ -- save -- --- - ---- -- - ----- -----<br>------ ---- ------ ---- - -------- ------- -- --- --------<br>-------- ----------- ---- ------ ---- ------ ---- --- ---<br>-------- --- -----,184556.39999997616,184556,184303.316,184315.5,184319.982,184569.89,,15,save
screen,html.Screen,2_3_1_0_1_16,2022-04-27T19:52:32.603Z,,,,,,,,,,,,,,,,,40,,,,,,,,,,,,,,192.80999992846046,,response,,,,9,C,,,,,,Space,keypress(Space),,,,instrumental,,,,------ -- ------- ---- ---- ---- - -------- ----- --- --<br>----- ----- ------ -- ---- up --- - ---- -- - ----- -----<br>------ ---- ------ ---- - -------- ------- -- --- --------<br>-------- ----------- ---- ------ ---- ------ ---- --- ---<br>-------- --- -----,184763.5,184762.69999992847,184553.224,184556.5,184569.89,184769.823,,16,up
screen,html.Screen,2_3_1_0_1_17,2022-04-27T19:52:32.823Z,,,,,,,,,,,,,,,,,40,,,,,,,,,,,,,,213.37699992847047,,response,,,,9,C,,,,,,Space,keypress(Space),,,,instrumental,,,,------ -- ------- ---- ---- ---- - -------- ----- --- --<br>----- ----- ------ -- ---- -- for - ---- -- - ----- -----<br>------ ---- ------ ---- - -------- ------- -- --- --------<br>-------- ----------- ---- ------ ---- ------ ---- --- ---<br>-------- --- -----,184983.79999995232,184983.19999992847,184753.157,184763.69999992847,184769.823,184986.366,,17,for
screen,html.Screen,2_3_1_0_1_18,2022-04-27T19:52:33.034Z,,,,,,,,,,,,,,,,,40,,,,,,,,,,,,,,207.53399997614906,,response,,,,9,C,,,,,,Space,keypress(Space),,,,instrumental,,,,------ -- ------- ---- ---- ---- - -------- ----- --- --<br>----- ----- ------ -- ---- -- --- a ---- -- - ----- -----<br>------ ---- ------ ---- - -------- ------- -- --- --------<br>-------- ----------- ---- ------ ---- ------ ---- --- ---<br>-------- --- -----,185194.39999997616,185193.89999997616,184969.7,184983.89999997616,184986.366,185202.96,,18,a
screen,html.Screen,2_3_1_0_1_19,2022-04-27T19:52:33.229Z,,,,,,,,,,,,,,,,,40,,,,,,,,,,,,,,186.33999995232443,,response,,,,9,C,,,,,,Space,keypress(Space),,,,instrumental,,,,------ -- ------- ---- ---- ---- - -------- ----- --- --<br>----- ----- ------ -- ---- -- --- - trip -- - ----- -----<br>------ ---- ------ ---- - -------- ------- -- --- --------<br>-------- ----------- ---- ------ ---- ------ ---- --- ---<br>-------- --- -----,185389.79999995232,185389.29999995232,185186.294,185194.5,185202.96,185402.996,,19,trip
screen,html.Screen,2_3_1_0_1_20,2022-04-27T19:52:33.466Z,,,,,,,,,,,,,,,,,40,,,,,,,,,,,,,,222.7039999284607,,response,,,,9,C,,,,,,Space,keypress(Space),,,,instrumental,,,,------ -- ------- ---- ---- ---- - -------- ----- --- --<br>----- ----- ------ -- ---- -- --- - ---- to - ----- -----<br>------ ---- ------ ---- - -------- ------- -- --- --------<br>-------- ----------- ---- ------ ---- ------ ---- --- ---<br>-------- --- -----,185626.19999992847,185625.69999992847,185386.33,185389.89999997616,185402.996,185636.198,,20,to
screen,html.Screen,2_3_1_0_1_21,2022-04-27T19:52:33.670Z,,,,,,,,,,,,,,,,,40,,,,,,,,,,,,,,193.50199992847047,,response,,,,9,C,,,,,,Space,keypress(Space),,,,instrumental,,,,------ -- ------- ---- ---- ---- - -------- ----- --- --<br>----- ----- ------ -- ---- -- --- - ---- -- a ----- -----<br>------ ---- ------ ---- - -------- ------- -- --- --------<br>-------- ----------- ---- ------ ---- ------ ---- --- ---<br>-------- --- -----,185830.29999995232,185829.69999992847,185619.532,185626.19999992847,185636.198,185836.105,,21,a
screen,html.Screen,2_3_1_0_1_22,2022-04-27T19:52:33.938Z,,,,,,,,,,,,,,,,,40,,,,,,,,,,,,,,262.09499992846395,,response,,,,9,C,,,,,,Space,keypress(Space),,,,instrumental,,,,------ -- ------- ---- ---- ---- - -------- ----- --- --<br>----- ----- ------ -- ---- -- --- - ---- -- - water -----<br>------ ---- ------ ---- - -------- ------- -- --- --------<br>-------- ----------- ---- ------ ---- ------ ---- --- ---<br>-------- --- -----,186098.69999992847,186098.19999992847,185819.439,185830.39999997616,185836.105,186102.682,,22,water
screen,html.Screen,2_3_1_0_1_23,2022-04-27T19:52:34.201Z,,,,,,,,,,,,,,,,,40,,,,,,,,,,,,,,258.0179999284737,,response,,,,9,C,,,,,,Space,keypress(Space),,,,instrumental,,,,"------ -- ------- ---- ---- ---- - -------- ----- --- --<br>----- ----- ------ -- ---- -- --- - ---- -- - ----- park,<br>------ ---- ------ ---- - -------- ------- -- --- --------<br>-------- ----------- ---- ------ ---- ------ ---- --- ---<br>-------- --- -----",186361.19999992847,186360.69999992847,186086.016,186098.69999992847,186102.682,186369.32,,23,"park,"
screen,html.Screen,2_3_1_0_1_24,2022-04-27T19:52:34.469Z,,,,,,,,,,,,,,,,,40,,,,,,,,,,,,,,260.37999992846744,,response,,,,9,C,,,,,,Space,keypress(Space),,,,instrumental,,,,------ -- ------- ---- ---- ---- - -------- ----- --- --<br>----- ----- ------ -- ---- -- --- - ---- -- - ----- -----<br>saying ---- ------ ---- - -------- ------- -- --- --------<br>-------- ----------- ---- ------ ---- ------ ---- --- ---<br>-------- --- -----,186630.19999992847,186629.69999992847,186352.654,186361.29999995232,186369.32,186635.89,,24,saying
screen,html.Screen,2_3_1_0_1_25,2022-04-27T19:52:34.695Z,,,,,,,,,,,,,,,,,40,,,,,,,,,,,,,,219.60999999998603,,response,,,,9,C,,,,,,Space,keypress(Space),,,,instrumental,,,,------ -- ------- ---- ---- ---- - -------- ----- --- --<br>----- ----- ------ -- ---- -- --- - ---- -- - ----- -----<br>------ they ------ ---- - -------- ------- -- --- --------<br>-------- ----------- ---- ------ ---- ------ ---- --- ---<br>-------- --- -----,186856.09999990463,186855.5,186619.224,186630.19999992847,186635.89,186869.143,,25,they
screen,html.Screen,2_3_1_0_1_26,2022-04-27T19:52:34.907Z,,,,,,,,,,,,,,,,,40,,,,,,,,,,,,,,197.65699995230534,,response,,,,9,C,,,,,,Space,keypress(Space),,,,instrumental,,,,------ -- ------- ---- ---- ---- - -------- ----- --- --<br>----- ----- ------ -- ---- -- --- - ---- -- - ----- -----<br>------ ---- didn't ---- - -------- ------- -- --- --------<br>-------- ----------- ---- ------ ---- ------ ---- --- ---<br>-------- --- -----,187067.29999995232,187066.79999995232,186852.477,186856.09999990463,186869.143,187069.036,,26,didn't
screen,html.Screen,2_3_1_0_1_27,2022-04-27T19:52:35.106Z,,,,,,,,,,,,,,,,,40,,,,,,,,,,,,,,197.46400000000722,,response,,,,9,C,,,,,,Space,keypress(Space),,,,instrumental,,,,------ -- ------- ---- ---- ---- - -------- ----- --- --<br>----- ----- ------ -- ---- -- --- - ---- -- - ----- -----<br>------ ---- ------ have - -------- ------- -- --- --------<br>-------- ----------- ---- ------ ---- ------ ---- --- ---<br>-------- --- -----,187267,187266.5,187052.37,187067.39999997616,187069.036,187268.908,,27,have
screen,html.Screen,2_3_1_0_1_28,2022-04-27T19:52:35.342Z,,,,,,,,,,,,,,,,,40,,,,,,,,,,,,,,232.79199992847862,,response,,,,9,C,,,,,,Space,keypress(Space),,,,instrumental,,,,------ -- ------- ---- ---- ---- - -------- ----- --- --<br>----- ----- ------ -- ---- -- --- - ---- -- - ----- -----<br>------ ---- ------ ---- a -------- ------- -- --- --------<br>-------- ----------- ---- ------ ---- ------ ---- --- ---<br>-------- --- -----,187502.19999992847,187501.69999992847,187252.242,187267,187268.908,187518.808,,28,a
screen,html.Screen,2_3_1_0_1_29,2022-04-27T19:52:35.561Z,,,,,,,,,,,,,,,,,40,,,,,,,,,,,,,,202.19200000001,,response,,,,9,C,,,,,,Space,keypress(Space),,,,instrumental,,,,------ -- ------- ---- ---- ---- - -------- ----- --- --<br>----- ----- ------ -- ---- -- --- - ---- -- - ----- -----<br>------ ---- ------ ---- - business ------- -- --- --------<br>-------- ----------- ---- ------ ---- ------ ---- --- ---<br>-------- --- -----,187722,187721,187502.142,187502.19999992847,187518.808,187735.43,,29,business
screen,html.Screen,2_3_1_0_1_30,2022-04-27T19:52:35.797Z,,,,,,,,,,,,,,,,,40,,,,,,,,,,,,,,221.7699999284814,,response,,,,9,C,,,,,,Space,keypress(Space),,,,instrumental,,,,------ -- ------- ---- ---- ---- - -------- ----- --- --<br>----- ----- ------ -- ---- -- --- - ---- -- - ----- -----<br>------ ---- ------ ---- - -------- license -- --- --------<br>-------- ----------- ---- ------ ---- ------ ---- --- ---<br>-------- --- -----,187957.59999990463,187957.19999992847,187718.764,187722.19999992847,187735.43,187968.721,,30,license
screen,html.Screen,2_3_1_0_1_31,2022-04-27T19:52:36.140Z,,,,,,,,,,,,,,,,,40,,,,,,,,,,,,,,331.1789999761677,,response,,,,9,C,,,,,,Space,keypress(Space),,,,instrumental,,,,------ -- ------- ---- ---- ---- - -------- ----- --- --<br>----- ----- ------ -- ---- -- --- - ---- -- - ----- -----<br>------ ---- ------ ---- - -------- ------- or --- --------<br>-------- ----------- ---- ------ ---- ------ ---- --- ---<br>-------- --- -----,188300.39999997616,188299.89999997616,187952.055,187957.89999997616,187968.721,188301.911,,31,or
screen,html.Screen,2_3_1_0_1_32,2022-04-27T19:52:36.343Z,,,,,,,,,,,,,,,,,40,,,,,,,,,,,,,,200.98899997616536,,response,,,,9,C,,,,,,Space,keypress(Space),,,,instrumental,,,,------ -- ------- ---- ---- ---- - -------- ----- --- --<br>----- ----- ------ -- ---- -- --- - ---- -- - ----- -----<br>------ ---- ------ ---- - -------- ------- -- the --------<br>-------- ----------- ---- ------ ---- ------ ---- --- ---<br>-------- --- -----,188503.5,188502.89999997616,188285.245,188300.5,188301.911,188518.585,,32,the
screen,html.Screen,2_3_1_0_1_33,2022-04-27T19:52:36.563Z,,,,,,,,,,,,,,,,,40,,,,,,,,,,,,,,204.61499992848258,,response,,,,9,C,,,,,,Space,keypress(Space),,,,instrumental,,,,------ -- ------- ---- ---- ---- - -------- ----- --- --<br>----- ----- ------ -- ---- -- --- - ---- -- - ----- -----<br>------ ---- ------ ---- - -------- ------- -- --- required<br>-------- ----------- ---- ------ ---- ------ ---- --- ---<br>-------- --- -----,188723.69999992847,188723.19999992847,188501.919,188503.59999990463,188518.585,188735.082,,33,required
screen,html.Screen,2_3_1_0_1_34,2022-04-27T19:52:36.825Z,,,,,,,,,,,,,,,,,40,,,,,,,,,,,,,,250.2179999523214,,response,,,,9,C,,,,,,Space,keypress(Space),,,,instrumental,,,,------ -- ------- ---- ---- ---- - -------- ----- --- --<br>----- ----- ------ -- ---- -- --- - ---- -- - ----- -----<br>------ ---- ------ ---- - -------- ------- -- --- --------<br>permits. ----------- ---- ------ ---- ------ ---- --- ---<br>-------- --- -----,188985.79999995232,188985.29999995232,188718.416,188723.79999995232,188735.082,189001.692,,34,permits.
screen,html.Screen,2_3_1_0_1_35,2022-04-27T19:52:37.074Z,,,,,,,,,,,,,,,,,40,,,,,,,,,,,,,,231.80799999999,,response,,,,9,C,,,,,,Space,keypress(Space),,,,instrumental,,,,------ -- ------- ---- ---- ---- - -------- ----- --- --<br>----- ----- ------ -- ---- -- --- - ---- -- - ----- -----<br>------ ---- ------ ---- - -------- ------- -- --- --------<br>-------- Morningstar ---- ------ ---- ------ ---- --- ---<br>-------- --- -----,189234.19999992847,189233.5,188985.026,188986,189001.692,189234.953,,35,Morningstar
screen,html.Screen,2_3_1_0_1_36,2022-04-27T19:52:37.571Z,,,,,,,,,,,,,,,,,40,,,,,,,,,,,,,,495.7469999284658,,response,,,,9,C,,,,,,Space,keypress(Space),,,,instrumental,,,,------ -- ------- ---- ---- ---- - -------- ----- --- --<br>----- ----- ------ -- ---- -- --- - ---- -- - ----- -----<br>------ ---- ------ ---- - -------- ------- -- --- --------<br>-------- ----------- says ------ ---- ------ ---- --- ---<br>-------- --- -----,189731.29999995232,189730.69999992847,189218.287,189234.29999995232,189234.953,189734.836,,36,says
screen,html.Screen,2_3_1_0_1_37,2022-04-27T19:52:37.793Z,,,,,,,,,,,,,,,,,40,,,,,,,,,,,,,,218.26399990462232,,response,,,,9,C,,,,,,Space,keypress(Space),,,,instrumental,,,,------ -- ------- ---- ---- ---- - -------- ----- --- --<br>----- ----- ------ -- ---- -- --- - ---- -- - ----- -----<br>------ ---- ------ ---- - -------- ------- -- --- --------<br>-------- ----------- ---- police ---- ------ ---- --- ---<br>-------- --- -----,189953.69999992847,189953.09999990463,189718.17,189731.39999997616,189734.836,189968.141,,37,police
screen,html.Screen,2_3_1_0_1_38,2022-04-27T19:52:38.032Z,,,,,,,,,,,,,,,,,40,,,,,,,,,,,,,,224.15899995231302,,response,,,,9,C,,,,,,Space,keypress(Space),,,,instrumental,,,,------ -- ------- ---- ---- ---- - -------- ----- --- --<br>----- ----- ------ -- ---- -- --- - ---- -- - ----- -----<br>------ ---- ------ ---- - -------- ------- -- --- --------<br>-------- ----------- ---- ------ also ------ ---- --- ---<br>-------- --- -----,190192.79999995232,190192.29999995232,189951.475,189953.79999995232,189968.141,190201.264,,38,also
screen,html.Screen,2_3_1_0_1_39,2022-04-27T19:52:38.292Z,,,,,,,,,,,,,,,,,40,,,,,,,,,,,,,,250.43599992847885,,response,,,,9,C,,,,,,Space,keypress(Space),,,,instrumental,,,,------ -- ------- ---- ---- ---- - -------- ----- --- --<br>----- ----- ------ -- ---- -- --- - ---- -- - ----- -----<br>------ ---- ------ ---- - -------- ------- -- --- --------<br>-------- ----------- ---- ------ ---- didn't ---- --- ---<br>-------- --- -----,190452.39999997616,190451.69999992847,190184.598,190192.89999997616,190201.264,190467.877,,39,didn't
screen,html.Screen,2_3_1_0_1_40,2022-04-27T19:52:38.574Z,,,,,,,,,,,,,,,,,40,,,,,,,,,,,,,,265.82299992846674,,response,,,,9,C,,,,,,Space,keypress(Space),,,,instrumental,,,,------ -- ------- ---- ---- ---- - -------- ----- --- --<br>----- ----- ------ -- ---- -- --- - ---- -- - ----- -----<br>------ ---- ------ ---- - -------- ------- -- --- --------<br>-------- ----------- ---- ------ ---- ------ know --- ---<br>-------- --- -----,190734.79999995232,190733.69999992847,190451.211,190452.59999990463,190467.877,190751.06,,40,know
screen,html.Screen,2_3_1_0_1_41,2022-04-27T19:52:38.977Z,,,,,,,,,,,,,,,,,40,,,,,,,,,,,,,,386.13999992847675,,response,,,,9,C,,,,,,Space,keypress(Space),,,,instrumental,,,,------ -- ------- ---- ---- ---- - -------- ----- --- --<br>----- ----- ------ -- ---- -- --- - ---- -- - ----- -----<br>------ ---- ------ ---- - -------- ------- -- --- --------<br>-------- ----------- ---- ------ ---- ------ ---- how ---<br>-------- --- -----,191137.69999992847,191137.19999992847,190734.394,190734.89999997616,190751.06,191150.989,,41,how
screen,html.Screen,2_3_1_0_1_42,2022-04-27T19:52:39.273Z,,,,,,,,,,,,,,,,,40,,,,,,,,,,,,,,281.61099990463117,,response,,,,9,C,,,,,,Space,keypress(Space),,,,instrumental,,,,------ -- ------- ---- ---- ---- - -------- ----- --- --<br>----- ----- ------ -- ---- -- --- - ---- -- - ----- -----<br>------ ---- ------ ---- - -------- ------- -- --- --------<br>-------- ----------- ---- ------ ---- ------ ---- --- the<br>-------- --- -----,191433.19999992847,191432.59999990463,191134.323,191137.69999992847,191150.989,191434.177,,42,the
screen,html.Screen,2_3_1_0_1_43,2022-04-27T19:52:39.549Z,,,,,,,,,,,,,,,,,40,,,,,,,,,,,,,,274.62299995232024,,response,,,,9,C,,,,,,Space,keypress(Space),,,,instrumental,,,,------ -- ------- ---- ---- ---- - -------- ----- --- --<br>----- ----- ------ -- ---- -- --- - ---- -- - ----- -----<br>------ ---- ------ ---- - -------- ------- -- --- --------<br>-------- ----------- ---- ------ ---- ------ ---- --- ---<br>lemonade --- -----,191709.29999995232,191708.79999995232,191417.511,191433.29999995232,191434.177,191717.438,,43,lemonade
screen,html.Screen,2_3_1_0_1_44,2022-04-27T19:52:39.826Z,,,,,,,,,,,,,,,,,40,,,,,,,,,,,,,,269.36199995232164,,response,,,,9,C,,,,,,Space,keypress(Space),,,,instrumental,,,,------ -- ------- ---- ---- ---- - -------- ----- --- --<br>----- ----- ------ -- ---- -- --- - ---- -- - ----- -----<br>------ ---- ------ ---- - -------- ------- -- --- --------<br>-------- ----------- ---- ------ ---- ------ ---- --- ---<br>-------- was -----,191987.19999992847,191986.79999995232,191700.772,191709.5,191717.438,192000.685,,44,was
screen,html.Screen,2_3_1_0_1_45,2022-04-27T19:52:40.187Z,,,,,,,,,,,,,,,,,40,,,,,,,,,,,,,,346.51499992847675,,response,,,,9,C,,,,,,Space,keypress(Space),,,,instrumental,,,,------ -- ------- ---- ---- ---- - -------- ----- --- --<br>----- ----- ------ -- ---- -- --- - ---- -- - ----- -----<br>------ ---- ------ ---- - -------- ------- -- --- --------<br>-------- ----------- ---- ------ ---- ------ ---- --- ---<br>-------- --- made.,192347.69999992847,192347.19999992847,191984.019,191987.19999992847,192000.685,192350.559,,45,made.
Item 9,flow.Loop,2_3_1_0_1,2022-04-27T19:52:40.187Z,,,,,,,,,,,,,,,,,,,,,,,,,,,,,,,12541.829999928479,,completion,,,,,,,,,,,,,,,,,,,,,192347.79999995232,192347.19999992847,179788.704,179789.69999992847,179805.37,192350.559,,,
Question 1,html.Screen,2_3_1_0_2,2022-04-27T19:52:42.915Z,,,,,,,,,,,,,,,,,,,,,,,,,,,,true,FALSE,,2723.8409999761498,,response,,,,9,C,,,,,,FALSE,click #choice-2,,,,instrumental,,,,,195076,195074.39999997616,192333.893,192347.79999995232,192350.559,195082.882,,,
