sender,sender_type,sender_id,timestamp,meta,,Blues,Classical,Country,Dance,Electronic,Folk,Gospel,Hip-Hop,Jazz,Latin,Musical/Film,New-age,Pop,Prolific_id,Provo_ID,R&B,Rap,Reggae,Religious,Rock,Soul,Swing,Traditional,age,artist_name,correct,correctResponse,distraction,duration,education,ended_on,familiarity,gender,headphone_check_performance,item,list,music_frequency,offensiveness,pleasantness,position_correct,preference,response,response_action,snippet_file,song_name,song_rating,sound,stimulus_1,stimulus_2,stimulus_3,text,time_commit,time_end,time_render,time_run,time_show,time_switch,url,word,word_ID
Prolific ID,html.Form,0,2022-04-28T10:31:15.006Z,"{""labjs_version"":""20.2.2"",""labjs_build"":{""flavor"":""production"",""commit"":""a25486e0c714a0ae2ce03ff94b7bb6896854dcfa""},""location"":""https://run.pavlovia.org/mvasilev/prolific3_music_d/"",""userAgent"":""Mozilla/5.0 (Windows NT 10.0; Win64; x64) AppleWebKit/537.36 (KHTML, like Gecko) Chrome/100.0.4896.127 Safari/537.36"",""platform"":""Win32"",""language"":""en-GB"",""locale"":""en-GB"",""timeZone"":""Europe/London"",""timezoneOffset"":-60,""screen_width"":1920,""screen_height"":1080,""scroll_width"":1920,""scroll_height"":1032,""window_innerWidth"":1920,""window_innerHeight"":1080,""devicePixelRatio"":1}",,,,,,,,,,,,,,,609478fa9e5b4d075246cfaf,,,,,,,,,,,,,,,9188.855,,form submission,,,,,,,,,,,,,,,,,,,,,18647.5,18647,9441.308,9446.100000000093,9458.145,18655.071,{},,
Introduction,html.Screen,1_0,2022-04-28T10:31:27.798Z,,,,,,,,,,,,,,,,,,,,,,,,,,,,,,,12782.429,,response,,,,,,,,,,,continue,click button,,,,,,,,,31439.5,31437.5,18638.452,18647.600000000093,18655.071,31450.688,,,
Volume calibration,html.Screen,1_1,2022-04-28T10:31:36.689Z,,,,,,,,,,,,,,,,,,,,,,,,,,,,,,,8876.611999999815,,response,,,,,,,,,,,continue,click button,,,,,,,,,40330.299999999814,40327.299999999814,31434.063,31439.600000000093,31450.688,40331.019,,,
Task instructions,html.Screen,1_2,2022-04-28T10:31:42.038Z,,,,,,,,,,,,,,,,,,,,,,,,,,,,,,,5348.380999999907,,response,,,,,,,,,,,continue,click button,,,,,,,,,45680.10000000009,45679.39999999991,40314.346,40330.299999999814,40331.019,45695.936,,,
Sounds,html.Screen,1_3_0_0,2022-04-28T10:31:46.289Z,,,,,,,,,,,,,,,,,,,,,,,,,,,,,,,4248.547999999995,,timeout,,,,,,,,,2,,,,,,,,O,S,I,,49930.19999999972,49927.832,45679.213,45680.299999999814,45695.936,49944.484,,,
Judgement,html.Screen,1_3_0_1,2022-04-28T10:31:48.496Z,,,,,,,,,,,,,,,,,,,,,,,,,,,,true,2,,2191.91599999991,,response,,,,,,,,,2,,2,click #choice-2,,,,,O,S,I,,52137.299999999814,52136.39999999991,49927.832,49930.299999999814,49944.484,52143.747,,,
Trial,flow.Sequence,1_3_0,2022-04-28T10:31:48.496Z,,,,,,,,,,,,,,,,,,,,,,,,,,,,,,,6440.463999999905,,completion,,,,,,,,,2,,,,,,,,O,S,I,,52137.39999999991,52136.39999999991,45679.213,45680.19999999972,45695.936,52143.747,,,
Sounds,html.Screen,1_3_1_0,2022-04-28T10:31:52.735Z,,,,,,,,,,,,,,,,,,,,,,,,,,,,,,,4248.510999999999,,timeout,,,,,,,,,1,,,,,,,,S,I,O,,56376.10000000009,56375.599,52127.038,52137.60000000009,52143.747,56392.258,,,
Judgement,html.Screen,1_3_1_1,2022-04-28T10:31:53.241Z,,,,,,,,,,,,,,,,,,,,,,,,,,,,true,1,,489.0419999998121,,response,,,,,,,,,1,,1,click #choice-1,,,,,S,I,O,,56882.299999999814,56881.299999999814,56375.599,56376.19999999972,56392.258,56892.118,,,
Trial,flow.Sequence,1_3_1,2022-04-28T10:31:53.241Z,,,,,,,,,,,,,,,,,,,,,,,,,,,,,,,4737.552999999811,,completion,,,,,,,,,1,,,,,,,,S,I,O,,56882.39999999991,56881.299999999814,52127.038,52137.39999999991,52143.747,56892.118,,,
Sounds,html.Screen,1_3_2_0,2022-04-28T10:31:57.483Z,,,,,,,,,,,,,,,,,,,,,,,,,,,,,,,4248.534999999996,,timeout,,,,,,,,,3,,,,,,,,I,O,S,,61124.69999999972,61123.977,56875.419,56882.39999999991,56892.118,61140.653,,,
Judgement,html.Screen,1_3_2_1,2022-04-28T10:31:57.985Z,,,,,,,,,,,,,,,,,,,,,,,,,,,,true,3,,484.6469999998153,,response,,,,,,,,,3,,3,click #choice-3,,,,,I,O,S,,61626.299999999814,61625.299999999814,61123.977,61124.69999999972,61140.653,61640.477,,,
Trial,flow.Sequence,1_3_2,2022-04-28T10:31:57.985Z,,,,,,,,,,,,,,,,,,,,,,,,,,,,,,,4733.1819999998115,,completion,,,,,,,,,3,,,,,,,,I,O,S,,61626.5,61625.299999999814,56875.419,56882.39999999991,56892.118,61640.477,,,
Sounds,html.Screen,1_3_3_0,2022-04-28T10:32:02.231Z,,,,,,,,,,,,,,,,,,,,,,,,,,,,,,,4248.555999999997,,timeout,,,,,,,,,1,,,,,,,,S,O,I,,65873,65872.36,61623.808,61626.69999999972,61640.477,65889.033,,,
Judgement,html.Screen,1_3_3_1,2022-04-28T10:32:02.617Z,,,,,,,,,,,,,,,,,,,,,,,,,,,,true,1,,369.1669999997248,,response,,,,,,,,,1,,1,click #choice-1,,,,,S,O,I,,66259.1000000001,66258.19999999972,65872.36,65873.1000000001,65889.033,66272.248,,,
Trial,flow.Sequence,1_3_3,2022-04-28T10:32:02.618Z,,,,,,,,,,,,,,,,,,,,,,,,,,,,,,,4617.722999999722,,completion,,,,,,,,,1,,,,,,,,S,O,I,,66259.19999999972,66258.19999999972,61623.808,61626.60000000009,61640.477,66272.248,,,
Sounds,html.Screen,1_3_4_0,2022-04-28T10:32:06.863Z,,,,,,,,,,,,,,,,,,,,,,,,,,,,,,,4248.541999999987,,timeout,,,,,,,,,3,,,,,,,,O,I,S,,70504.79999999981,70504.111,66255.597,66259.3999999999,66272.248,70520.79,,,
Judgement,html.Screen,1_3_4_1,2022-04-28T10:32:07.282Z,,,,,,,,,,,,,,,,,,,,,,,,,,,,true,3,,402.50999999982014,,response,,,,,,,,,3,,3,click #choice-3,,,,,O,I,S,,70924,70923.29999999981,70504.111,70504.79999999981,70520.79,70937.31,,,
Trial,flow.Sequence,1_3_4,2022-04-28T10:32:07.282Z,,,,,,,,,,,,,,,,,,,,,,,,,,,,,,,4651.051999999807,,completion,,,,,,,,,3,,,,,,,,O,I,S,,70924.19999999972,70923.29999999981,66255.597,66259.29999999981,66272.248,70937.31,,,
Sounds,html.Screen,1_3_5_0,2022-04-28T10:32:11.528Z,,,,,,,,,,,,,,,,,,,,,,,,,,,,,,,4248.551000000007,,timeout,,,,,,,,,2,,,,,,,,I,S,O,,75169.79999999981,75169.152,70920.644,70924.29999999981,70937.31,75185.861,,,
Judgement,html.Screen,1_3_5_1,2022-04-28T10:32:11.978Z,,,,,,,,,,,,,,,,,,,,,,,,,,,,true,2,,433.3389999997162,,response,,,,,,,,,2,,2,click #choice-2,,,,,I,S,O,,75619.69999999972,75619.19999999972,75169.152,75169.79999999981,75185.861,75635.653,,,
Trial,flow.Sequence,1_3_5,2022-04-28T10:32:11.978Z,,,,,,,,,,,,,,,,,,,,,,,,,,,,,,,4681.889999999723,,completion,,,,,,,,,2,,,,,,,,I,S,O,,75619.8999999999,75619.19999999972,70920.644,70924.29999999981,70937.31,75635.653,,,
Task,flow.Loop,1_3,2022-04-28T10:32:11.982Z,,,,,,,,,,,,,,,,,,,,,,,,,,,,,,,29923.26399999972,,completion,,,1,,,,,,,,,,,,,,,,,,75624.1000000001,75619.19999999972,45679.213,45680.19999999972,45695.936,75635.653,,,
Trap,html.Screen,1_4,2022-04-28T10:32:11.983Z,,,,,,,,,,,,,,,,,,,,,,,,,,,,,,,NaN,,skipped,,,,,,,,,,,,,,,,,,,,,75624.8999999999,75619.19999999972,,75624.79999999981,,75635.653,,,
Thanks,html.Screen,1_5,2022-04-28T10:32:17.083Z,,,,,,,,,,,,,,,,,,,,,,,,,,,,,,,5088.646999999808,,response,,,,,,,,,,,continue,click button,,,,,,,,,80725,80724.29999999981,75618.956,75625,75635.653,82866.542,,,
Headphone screening,flow.Sequence,1,2022-04-28T10:32:17.083Z,,,,,,,,,,,,,,,,,,,,,,,,,,,,,,,62069.22899999982,,completion,,,,,,,,,,,,,,,,,,,,,80725.29999999981,80724.29999999981,18638.452,18647.600000000093,18655.071,82866.542,,,
Instructions,html.Page,2_0,2022-04-28T10:32:40.071Z,,,,,,,,,,,,,,,,,,,,,,,,,,,,,,,20846.058000000092,,form submission,,,,,,,,,,,,,,,,,,,,,103712.69999999972,103712.6000000001,82849.89,82865.19999999972,82866.542,103726.155,,,
Holding screen,html.Screen,2_1_0_0,2022-04-28T10:32:50.065Z,,,,,,,,,,,,,,,,,,,,,,,,,,,,,,,9996.554000000004,,timeout,,,,,,,,,,,,,,,,,,,,,113706.6000000001,113706.09,103709.473,103713,103726.155,113722.709,,,
screen,html.Screen,2_1_0_1_0,2022-04-28T10:32:50.095Z,,,,,,,,,,,,,,,,,53,,,,,,,,,,,,,,11.990999999718042,,response,,,,99,,,,,,,Space,keypress(Space),,,,,,,,When -- ----- -- ------ - ------- --- ----------<br>------------- ------ ------ ---- ---- ------- ----- -- ----<br>-------- ------- -- ---------- --- - --- ----- ----- ----<br>---- --- --- ----- --- ---- ---- ------- ----- ---- -------<br>--- --- -- ----- -- --- ---- -- --- ---- -- ------ ------<br>--- ----- -- ----,113736.3999999999,113734.69999999972,113706.09,113706.69999999972,113722.709,113756.087,,0,When
screen,html.Screen,2_1_0_1_1,2022-04-28T10:32:51.608Z,,,,,,,,,,,,,,,,,53,,,,,,,,,,,,,,1493.5130000000936,,response,,,,99,,,,,,,Space,keypress(Space),,,,,,,,---- it ----- -- ------ - ------- --- ----------<br>------------- ------ ------ ---- ---- ------- ----- -- ----<br>-------- ------- -- ---------- --- - --- ----- ----- ----<br>---- --- --- ----- --- ---- ---- ------- ----- ---- -------<br>--- --- -- ----- -- --- ---- -- --- ---- -- ------ ------<br>--- ----- -- ----,115250.19999999972,115249.6000000001,113739.431,113736.5,113756.087,115255.602,,1,it
screen,html.Screen,2_1_0_1_2,2022-04-28T10:32:52.226Z,,,,,,,,,,,,,,,,,53,,,,,,,,,,,,,,611.898000000001,,response,,,,99,,,,,,,Space,keypress(Space),,,,,,,,---- -- comes -- ------ - ------- --- ----------<br>------------- ------ ------ ---- ---- ------- ----- -- ----<br>-------- ------- -- ---------- --- - --- ----- ----- ----<br>---- --- --- ----- --- ---- ---- ------- ----- ---- -------<br>--- --- -- ----- -- --- ---- -- --- ---- -- ------ ------<br>--- ----- -- ----,115867.8999999999,115867.5,115238.833,115250.19999999972,115255.602,115872.003,,2,comes
screen,html.Screen,2_1_0_1_3,2022-04-28T10:32:52.721Z,,,,,,,,,,,,,,,,,53,,,,,,,,,,,,,,489.997000000003,,response,,,,99,,,,,,,Space,keypress(Space),,,,,,,,---- -- ----- to ------ - ------- --- ----------<br>------------- ------ ------ ---- ---- ------- ----- -- ----<br>-------- ------- -- ---------- --- - --- ----- ----- ----<br>---- --- --- ----- --- ---- ---- ------- ----- ---- -------<br>--- --- -- ----- -- --- ---- -- --- ---- -- ------ ------<br>--- ----- -- ----,116362.5,116362,115855.315,115868,115872.003,116371.863,,3,to
screen,html.Screen,2_1_0_1_4,2022-04-28T10:32:53.282Z,,,,,,,,,,,,,,,,,53,,,,,,,,,,,,,,551.1370000000024,,response,,,,99,,,,,,,Space,keypress(Space),,,,,,,,---- -- ----- -- having - ------- --- ----------<br>------------- ------ ------ ---- ---- ------- ----- -- ----<br>-------- ------- -- ---------- --- - --- ----- ----- ----<br>---- --- --- ----- --- ---- ---- ------- ----- ---- -------<br>--- --- -- ----- -- --- ---- -- --- ---- -- ------ ------<br>--- ----- -- ----,116923.6000000001,116923,116355.144,116362.6000000001,116371.863,116938.34,,4,having
screen,html.Screen,2_1_0_1_5,2022-04-28T10:32:53.718Z,,,,,,,,,,,,,,,,,53,,,,,,,,,,,,,,420.55999999991036,,response,,,,99,,,,,,,Space,keypress(Space),,,,,,,,---- -- ----- -- ------ a ------- --- ----------<br>------------- ------ ------ ---- ---- ------- ----- -- ----<br>-------- ------- -- ---------- --- - --- ----- ----- ----<br>---- --- --- ----- --- ---- ---- ------- ----- ---- -------<br>--- --- -- ----- -- --- ---- -- --- ---- -- ------ ------<br>--- ----- -- ----,117359.5,117358.8999999999,116921.647,116923.69999999972,116938.34,117371.498,,5,a
screen,html.Screen,2_1_0_1_6,2022-04-28T10:32:54.212Z,,,,,,,,,,,,,,,,,53,,,,,,,,,,,,,,481.70199999971373,,response,,,,99,,,,,,,Space,keypress(Space),,,,,,,,---- -- ----- -- ------ - lasting --- ----------<br>------------- ------ ------ ---- ---- ------- ----- -- ----<br>-------- ------- -- ---------- --- - --- ----- ----- ----<br>---- --- --- ----- --- ---- ---- ------- ----- ---- -------<br>--- --- -- ----- -- --- ---- -- --- ---- -- ------ ------<br>--- ----- -- ----,117853.79999999981,117853.19999999972,117354.814,117359.6000000001,117371.498,117884.501,,6,lasting
screen,html.Screen,2_1_0_1_7,2022-04-28T10:32:54.647Z,,,,,,,,,,,,,,,,,53,,,,,,,,,,,,,,403.69899999971676,,response,,,,99,,,,,,,Space,keypress(Space),,,,,,,,---- -- ----- -- ------ - ------- and ----------<br>------------- ------ ------ ---- ---- ------- ----- -- ----<br>-------- ------- -- ---------- --- - --- ----- ----- ----<br>---- --- --- ----- --- ---- ---- ------- ----- ---- -------<br>--- --- -- ----- -- --- ---- -- --- ---- -- ------ ------<br>--- ----- -- ----,118288.69999999972,118288.19999999972,117837.994,117853.79999999981,117884.501,118304.536,,7,and
screen,html.Screen,2_1_0_1_8,2022-04-28T10:32:55.632Z,,,,,,,,,,,,,,,,,53,,,,,,,,,,,,,,968.3639999999141,,response,,,,99,,,,,,,Space,keypress(Space),,,,,,,,---- -- ----- -- ------ - ------- --- fulfilling<br>------------- ------ ------ ---- ---- ------- ----- -- ----<br>-------- ------- -- ---------- --- - --- ----- ----- ----<br>---- --- --- ----- --- ---- ---- ------- ----- ---- -------<br>--- --- -- ----- -- --- ---- -- --- ---- -- ------ ------<br>--- ----- -- ----,119273.3999999999,119272.8999999999,118287.826,118288.79999999981,118304.536,119287.523,,8,fulfilling
screen,html.Screen,2_1_0_1_9,2022-04-28T10:32:57.253Z,,,,,,,,,,,,,,,,,53,,,,,,,,,,,,,,1606.6769999997196,,response,,,,99,,,,,,,Space,keypress(Space),,,,,,,,"---- -- ----- -- ------ - ------- --- ----------<br>relationship, ------ ------ ---- ---- ------- ----- -- ----<br>-------- ------- -- ---------- --- - --- ----- ----- ----<br>---- --- --- ----- --- ---- ---- ------- ----- ---- -------<br>--- --- -- ----- -- --- ---- -- --- ---- -- ------ ------<br>--- ----- -- ----",120894.69999999972,120894.19999999972,119270.8,119273.5,119287.523,120903.649,,9,"relationship,"
screen,html.Screen,2_1_0_1_10,2022-04-28T10:32:57.717Z,,,,,,,,,,,,,,,,,53,,,,,,,,,,,,,,454.0509999997157,,response,,,,99,,,,,,,Space,keypress(Space),,,,,,,,---- -- ----- -- ------ - ------- --- ----------<br>------------- common ------ ---- ---- ------- ----- -- ----<br>-------- ------- -- ---------- --- - --- ----- ----- ----<br>---- --- --- ----- --- ---- ---- ------- ----- ---- -------<br>--- --- -- ----- -- --- ---- -- --- ---- -- ------ ------<br>--- ----- -- ----,121358.3999999999,121357.69999999972,120886.881,120894.69999999972,120903.649,121370.086,,10,common
screen,html.Screen,2_1_0_1_11,2022-04-28T10:32:58.217Z,,,,,,,,,,,,,,,,,53,,,,,,,,,,,,,,488.1139999997249,,response,,,,99,,,,,,,Space,keypress(Space),,,,,,,,---- -- ----- -- ------ - ------- --- ----------<br>------------- ------ wisdom ---- ---- ------- ----- -- ----<br>-------- ------- -- ---------- --- - --- ----- ----- ----<br>---- --- --- ----- --- ---- ---- ------- ----- ---- -------<br>--- --- -- ----- -- --- ---- -- --- ---- -- ------ ------<br>--- ----- -- ----,121858.6000000001,121858.19999999972,121353.47,121358.3999999999,121370.086,121870.001,,11,wisdom
screen,html.Screen,2_1_0_1_12,2022-04-28T10:32:58.684Z,,,,,,,,,,,,,,,,,53,,,,,,,,,,,,,,454.5990000000893,,response,,,,99,,,,,,,Space,keypress(Space),,,,,,,,---- -- ----- -- ------ - ------- --- ----------<br>------------- ------ ------ says ---- ------- ----- -- ----<br>-------- ------- -- ---------- --- - --- ----- ----- ----<br>---- --- --- ----- --- ---- ---- ------- ----- ---- -------<br>--- --- -- ----- -- --- ---- -- --- ---- -- ------ ------<br>--- ----- -- ----,122325.19999999972,122324.6000000001,121853.249,121858.69999999972,121870.001,122336.497,,12,says
screen,html.Screen,2_1_0_1_13,2022-04-28T10:32:59.036Z,,,,,,,,,,,,,,,,,53,,,,,,,,,,,,,,340.1030000000901,,response,,,,99,,,,,,,Space,keypress(Space),,,,,,,,---- -- ----- -- ------ - ------- --- ----------<br>------------- ------ ------ ---- that ------- ----- -- ----<br>-------- ------- -- ---------- --- - --- ----- ----- ----<br>---- --- --- ----- --- ---- ---- ------- ----- ---- -------<br>--- --- -- ----- -- --- ---- -- --- ---- -- ------ ------<br>--- ----- -- ----,122677.19999999972,122676.6000000001,122319.795,122325.19999999972,122336.497,122686.383,,13,that
screen,html.Screen,2_1_0_1_14,2022-04-28T10:32:59.476Z,,,,,,,,,,,,,,,,,53,,,,,,,,,,,,,,430.316999999719,,response,,,,99,,,,,,,Space,keypress(Space),,,,,,,,---- -- ----- -- ------ - ------- --- ----------<br>------------- ------ ------ ---- ---- feeling ----- -- ----<br>-------- ------- -- ---------- --- - --- ----- ----- ----<br>---- --- --- ----- --- ---- ---- ------- ----- ---- -------<br>--- --- -- ----- -- --- ---- -- --- ---- -- ------ ------<br>--- ----- -- ----,123117.19999999972,123116.69999999972,122669.67,122677.19999999972,122686.383,123119.491,,14,feeling
screen,html.Screen,2_1_0_1_15,2022-04-28T10:32:59.827Z,,,,,,,,,,,,,,,,,53,,,,,,,,,,,,,,349.00900000000547,,response,,,,99,,,,,,,Space,keypress(Space),,,,,,,,---- -- ----- -- ------ - ------- --- ----------<br>------------- ------ ------ ---- ---- ------- close -- ----<br>-------- ------- -- ---------- --- - --- ----- ----- ----<br>---- --- --- ----- --- ---- ---- ------- ----- ---- -------<br>--- --- -- ----- -- --- ---- -- --- ---- -- ------ ------<br>--- ----- -- ----,123469.1000000001,123468.5,123102.861,123117.29999999981,123119.491,123486.102,,15,close
screen,html.Screen,2_1_0_1_16,2022-04-28T10:33:00.233Z,,,,,,,,,,,,,,,,,53,,,,,,,,,,,,,,387.9980000000942,,response,,,,99,,,,,,,Space,keypress(Space),,,,,,,,---- -- ----- -- ------ - ------- --- ----------<br>------------- ------ ------ ---- ---- ------- ----- to ----<br>-------- ------- -- ---------- --- - --- ----- ----- ----<br>---- --- --- ----- --- ---- ---- ------- ----- ---- -------<br>--- --- -- ----- -- --- ---- -- --- ---- -- ------ ------<br>--- ----- -- ----,123874.6000000001,123874.1000000001,123469.407,123469.1000000001,123486.102,123885.94,,16,to
screen,html.Screen,2_1_0_1_17,2022-04-28T10:33:00.636Z,,,,,,,,,,,,,,,,,53,,,,,,,,,,,,,,390.7599999997183,,response,,,,99,,,,,,,Space,keypress(Space),,,,,,,,---- -- ----- -- ------ - ------- --- ----------<br>------------- ------ ------ ---- ---- ------- ----- -- your<br>-------- ------- -- ---------- --- - --- ----- ----- ----<br>---- --- --- ----- --- ---- ---- ------- ----- ---- -------<br>--- --- -- ----- -- --- ---- -- --- ---- -- ------ ------<br>--- ----- -- ----,124277.1000000001,124276.69999999972,123869.244,123874.69999999972,123885.94,124285.868,,17,your
screen,html.Screen,2_1_0_1_18,2022-04-28T10:33:01.021Z,,,,,,,,,,,,,,,,,53,,,,,,,,,,,,,,376.7320000000909,,response,,,,99,,,,,,,Space,keypress(Space),,,,,,,,---- -- ----- -- ------ - ------- --- ----------<br>------------- ------ ------ ---- ---- ------- ----- -- ----<br>romantic ------- -- ---------- --- - --- ----- ----- ----<br>---- --- --- ----- --- ---- ---- ------- ----- ---- -------<br>--- --- -- ----- -- --- ---- -- --- ---- -- ------ ------<br>--- ----- -- ----,124663.1000000001,124662.6000000001,124269.177,124277.19999999972,124285.868,124669.079,,18,romantic
screen,html.Screen,2_1_0_1_19,2022-04-28T10:33:01.438Z,,,,,,,,,,,,,,,,,53,,,,,,,,,,,,,,409.82099999990896,,response,,,,99,,,,,,,Space,keypress(Space),,,,,,,,---- -- ----- -- ------ - ------- --- ----------<br>------------- ------ ------ ---- ---- ------- ----- -- ----<br>-------- partner -- ---------- --- - --- ----- ----- ----<br>---- --- --- ----- --- ---- ---- ------- ----- ---- -------<br>--- --- -- ----- -- --- ---- -- --- ---- -- ------ ------<br>--- ----- -- ----,125079.3999999999,125078.8999999999,124652.328,124663.19999999972,124669.079,125085.549,,19,partner
screen,html.Screen,2_1_0_1_20,2022-04-28T10:33:01.934Z,,,,,,,,,,,,,,,,,53,,,,,,,,,,,,,,489.65099999972153,,response,,,,99,,,,,,,Space,keypress(Space),,,,,,,,---- -- ----- -- ------ - ------- --- ----------<br>------------- ------ ------ ---- ---- ------- ----- -- ----<br>-------- ------- is ---------- --- - --- ----- ----- ----<br>---- --- --- ----- --- ---- ---- ------- ----- ---- -------<br>--- --- -- ----- -- --- ---- -- --- ---- -- ------ ------<br>--- ----- -- ----,125575.69999999972,125575.19999999972,125068.782,125079.5,125085.549,125585.392,,20,is
screen,html.Screen,2_1_0_1_21,2022-04-28T10:33:03.193Z,,,,,,,,,,,,,,,,,53,,,,,,,,,,,,,,1248.4079999998066,,response,,,,99,,,,,,,Space,keypress(Space),,,,,,,,---- -- ----- -- ------ - ------- --- ----------<br>------------- ------ ------ ---- ---- ------- ----- -- ----<br>-------- ------- -- paramount. --- - --- ----- ----- ----<br>---- --- --- ----- --- ---- ---- ------- ----- ---- -------<br>--- --- -- ----- -- --- ---- -- --- ---- -- ------ ------<br>--- ----- -- ----,126834.29999999981,126833.79999999981,125568.69,125575.79999999981,125585.392,126868.281,,21,paramount.
screen,html.Screen,2_1_0_1_22,2022-04-28T10:33:03.532Z,,,,,,,,,,,,,,,,,53,,,,,,,,,,,,,,305.2189999999973,,response,,,,99,,,,,,,Space,keypress(Space),,,,,,,,---- -- ----- -- ------ - ------- --- ----------<br>------------- ------ ------ ---- ---- ------- ----- -- ----<br>-------- ------- -- ---------- But - --- ----- ----- ----<br>---- --- --- ----- --- ---- ---- ------- ----- ---- -------<br>--- --- -- ----- -- --- ---- -- --- ---- -- ------ ------<br>--- ----- -- ----,127173.79999999981,127173.5,126851.613,126834.5,126868.281,127184.848,,22,But
screen,html.Screen,2_1_0_1_23,2022-04-28T10:33:03.903Z,,,,,,,,,,,,,,,,,53,,,,,,,,,,,,,,358.9519999998156,,response,,,,99,,,,,,,Space,keypress(Space),,,,,,,,---- -- ----- -- ------ - ------- --- ----------<br>------------- ------ ------ ---- ---- ------- ----- -- ----<br>-------- ------- -- ---------- --- a --- ----- ----- ----<br>---- --- --- ----- --- ---- ---- ------- ----- ---- -------<br>--- --- -- ----- -- --- ---- -- --- ---- -- ------ ------<br>--- ----- -- ----,127544.1000000001,127543.79999999981,127168.147,127174,127184.848,127551.376,,23,a
screen,html.Screen,2_1_0_1_24,2022-04-28T10:33:04.226Z,,,,,,,,,,,,,,,,,53,,,,,,,,,,,,,,316.12399999999616,,response,,,,99,,,,,,,Space,keypress(Space),,,,,,,,---- -- ----- -- ------ - ------- --- ----------<br>------------- ------ ------ ---- ---- ------- ----- -- ----<br>-------- ------- -- ---------- --- - new ----- ----- ----<br>---- --- --- ----- --- ---- ---- ------- ----- ---- -------<br>--- --- -- ----- -- --- ---- -- --- ---- -- ------ ------<br>--- ----- -- ----,127868.1000000001,127867.5,127534.708,127544.19999999972,127551.376,127884.625,,24,new
screen,html.Screen,2_1_0_1_25,2022-04-28T10:33:04.537Z,,,,,,,,,,,,,,,,,53,,,,,,,,,,,,,,293.97500000009313,,response,,,,99,,,,,,,Space,keypress(Space),,,,,,,,---- -- ----- -- ------ - ------- --- ----------<br>------------- ------ ------ ---- ---- ------- ----- -- ----<br>-------- ------- -- ---------- --- - --- study ----- ----<br>---- --- --- ----- --- ---- ---- ------- ----- ---- -------<br>--- --- -- ----- -- --- ---- -- --- ---- -- ------ ------<br>--- ----- -- ----,128179.1000000001,128178.6000000001,127867.872,127868.1000000001,127884.625,128184.528,,25,study
screen,html.Screen,2_1_0_1_26,2022-04-28T10:33:04.850Z,,,,,,,,,,,,,,,,,53,,,,,,,,,,,,,,306.4719999999943,,response,,,,99,,,,,,,Space,keypress(Space),,,,,,,,---- -- ----- -- ------ - ------- --- ----------<br>------------- ------ ------ ---- ---- ------- ----- -- ----<br>-------- ------- -- ---------- --- - --- ----- finds ----<br>---- --- --- ----- --- ---- ---- ------- ----- ---- -------<br>--- --- -- ----- -- --- ---- -- --- ---- -- ------ ------<br>--- ----- -- ----,128491.29999999981,128491,128167.87,128179.1000000001,128184.528,128501.031,,26,finds
screen,html.Screen,2_1_0_1_27,2022-04-28T10:33:05.272Z,,,,,,,,,,,,,,,,,53,,,,,,,,,,,,,,411.76899999981106,,response,,,,99,,,,,,,Space,keypress(Space),,,,,,,,---- -- ----- -- ------ - ------- --- ----------<br>------------- ------ ------ ---- ---- ------- ----- -- ----<br>-------- ------- -- ---------- --- - --- ----- ----- that<br>---- --- --- ----- --- ---- ---- ------- ----- ---- -------<br>--- --- -- ----- -- --- ---- -- --- ---- -- ------ ------<br>--- ----- -- ----,128913.1000000001,128912.79999999981,128484.361,128491.3999999999,128501.031,128917.563,,27,that
screen,html.Screen,2_1_0_1_28,2022-04-28T10:33:05.693Z,,,,,,,,,,,,,,,,,53,,,,,,,,,,,,,,416.7369999998191,,response,,,,99,,,,,,,Space,keypress(Space),,,,,,,,---- -- ----- -- ------ - ------- --- ----------<br>------------- ------ ------ ---- ---- ------- ----- -- ----<br>-------- ------- -- ---------- --- - --- ----- ----- ----<br>it's --- --- ----- --- ---- ---- ------- ----- ---- -------<br>--- --- -- ----- -- --- ---- -- --- ---- -- ------ ------<br>--- ----- -- ----,129334.79999999981,129334.29999999981,128900.907,128913.29999999981,128917.563,129364.984,,28,it's
screen,html.Screen,2_1_0_1_29,2022-04-28T10:33:06.122Z,,,,,,,,,,,,,,,,,53,,,,,,,,,,,,,,398.6160000000964,,response,,,,99,,,,,,,Space,keypress(Space),,,,,,,,---- -- ----- -- ------ - ------- --- ----------<br>------------- ------ ------ ---- ---- ------- ----- -- ----<br>-------- ------- -- ---------- --- - --- ----- ----- ----<br>---- not --- ----- --- ---- ---- ------- ----- ---- -------<br>--- --- -- ----- -- --- ---- -- --- ---- -- ------ ------<br>--- ----- -- ----,129764.1000000001,129763.6000000001,129334.096,129334.8999999999,129364.984,129767.301,,29,not
screen,html.Screen,2_1_0_1_30,2022-04-28T10:33:06.527Z,,,,,,,,,,,,,,,,,53,,,,,,,,,,,,,,400.39899999971385,,response,,,,99,,,,,,,Space,keypress(Space),,,,,,,,---- -- ----- -- ------ - ------- --- ----------<br>------------- ------ ------ ---- ---- ------- ----- -- ----<br>-------- ------- -- ---------- --- - --- ----- ----- ----<br>---- --- how ----- --- ---- ---- ------- ----- ---- -------<br>--- --- -- ----- -- --- ---- -- --- ---- -- ------ ------<br>--- ----- -- ----,130168.19999999972,130167.69999999972,129750.606,129764.19999999972,129767.301,130183.797,,30,how
screen,html.Screen,2_1_0_1_31,2022-04-28T10:33:06.937Z,,,,,,,,,,,,,,,,,53,,,,,,,,,,,,,,393.90299999971467,,response,,,,99,,,,,,,Space,keypress(Space),,,,,,,,---- -- ----- -- ------ - ------- --- ----------<br>------------- ------ ------ ---- ---- ------- ----- -- ----<br>-------- ------- -- ---------- --- - --- ----- ----- ----<br>---- --- --- close --- ---- ---- ------- ----- ---- -------<br>--- --- -- ----- -- --- ---- -- --- ---- -- ------ ------<br>--- ----- -- ----,130578.19999999972,130577.69999999972,130167.128,130168.19999999972,130183.797,130583.736,,31,close
screen,html.Screen,2_1_0_1_32,2022-04-28T10:33:07.340Z,,,,,,,,,,,,,,,,,53,,,,,,,,,,,,,,397.16399999990244,,response,,,,99,,,,,,,Space,keypress(Space),,,,,,,,---- -- ----- -- ------ - ------- --- ----------<br>------------- ------ ------ ---- ---- ------- ----- -- ----<br>-------- ------- -- ---------- --- - --- ----- ----- ----<br>---- --- --- ----- you ---- ---- ------- ----- ---- -------<br>--- --- -- ----- -- --- ---- -- --- ---- -- ------ ------<br>--- ----- -- ----,130981.3999999999,130980.8999999999,130566.987,130578.19999999972,130583.736,131000.216,,32,you
screen,html.Screen,2_1_0_1_33,2022-04-28T10:33:07.702Z,,,,,,,,,,,,,,,,,53,,,,,,,,,,,,,,342.6839999999065,,response,,,,99,,,,,,,Space,keypress(Space),,,,,,,,---- -- ----- -- ------ - ------- --- ----------<br>------------- ------ ------ ---- ---- ------- ----- -- ----<br>-------- ------- -- ---------- --- - --- ----- ----- ----<br>---- --- --- ----- --- feel ---- ------- ----- ---- -------<br>--- --- -- ----- -- --- ---- -- --- ---- -- ------ ------<br>--- ----- -- ----,131343.5,131342.8999999999,130966.851,130981.3999999999,131000.216,131350.112,,33,feel
screen,html.Screen,2_1_0_1_34,2022-04-28T10:33:08.094Z,,,,,,,,,,,,,,,,,53,,,,,,,,,,,,,,385.4880000000994,,response,,,,99,,,,,,,Space,keypress(Space),,,,,,,,---- -- ----- -- ------ - ------- --- ----------<br>------------- ------ ------ ---- ---- ------- ----- -- ----<br>-------- ------- -- ---------- --- - --- ----- ----- ----<br>---- --- --- ----- --- ---- that ------- ----- ---- -------<br>--- --- -- ----- -- --- ---- -- --- ---- -- ------ ------<br>--- ----- -- ----,131736.1000000001,131735.6000000001,131333.392,131343.69999999972,131350.112,131749.958,,34,that
screen,html.Screen,2_1_0_1_35,2022-04-28T10:33:08.497Z,,,,,,,,,,,,,,,,,53,,,,,,,,,,,,,,387.74199999970733,,response,,,,99,,,,,,,Space,keypress(Space),,,,,,,,---- -- ----- -- ------ - ------- --- ----------<br>------------- ------ ------ ---- ---- ------- ----- -- ----<br>-------- ------- -- ---------- --- - --- ----- ----- ----<br>---- --- --- ----- --- ---- ---- matters ----- ---- -------<br>--- --- -- ----- -- --- ---- -- --- ---- -- ------ ------<br>--- ----- -- ----,132138.19999999972,132137.69999999972,131733.242,131736.19999999972,131749.958,132149.805,,35,matters
screen,html.Screen,2_1_0_1_36,2022-04-28T10:33:08.902Z,,,,,,,,,,,,,,,,,53,,,,,,,,,,,,,,393.59499999991385,,response,,,,99,,,,,,,Space,keypress(Space),,,,,,,,"---- -- ----- -- ------ - ------- --- ----------<br>------------- ------ ------ ---- ---- ------- ----- -- ----<br>-------- ------- -- ---------- --- - --- ----- ----- ----<br>---- --- --- ----- --- ---- ---- ------- most, ---- -------<br>--- --- -- ----- -- --- ---- -- --- ---- -- ------ ------<br>--- ----- -- ----",132543.7999999998,132543.3999999999,132133.117,132138.2999999998,132149.805,132549.719,,36,"most,"
screen,html.Screen,2_1_0_1_37,2022-04-28T10:33:09.343Z,,,,,,,,,,,,,,,,,53,,,,,,,,,,,,,,434.7809999999881,,response,,,,99,,,,,,,Space,keypress(Space),,,,,,,,---- -- ----- -- ------ - ------- --- ----------<br>------------- ------ ------ ---- ---- ------- ----- -- ----<br>-------- ------- -- ---------- --- - --- ----- ----- ----<br>---- --- --- ----- --- ---- ---- ------- ----- it's -------<br>--- --- -- ----- -- --- ---- -- --- ---- -- ------ ------<br>--- ----- -- ----,132985,132984.5,132532.943,132543.8999999999,132549.719,132999.53,,37,it's
screen,html.Screen,2_1_0_1_38,2022-04-28T10:33:09.687Z,,,,,,,,,,,,,,,,,53,,,,,,,,,,,,,,329.0700000000943,,response,,,,99,,,,,,,Space,keypress(Space),,,,,,,,---- -- ----- -- ------ - ------- --- ----------<br>------------- ------ ------ ---- ---- ------- ----- -- ----<br>-------- ------- -- ---------- --- - --- ----- ----- ----<br>---- --- --- ----- --- ---- ---- ------- ----- ---- whether<br>--- --- -- ----- -- --- ---- -- --- ---- -- ------ ------<br>--- ----- -- ----,133329.1000000001,133328.6000000001,132982.829,132985.1000000001,132999.53,133332.692,,38,whether
screen,html.Screen,2_1_0_1_39,2022-04-28T10:33:10.148Z,,,,,,,,,,,,,,,,,53,,,,,,,,,,,,,,456.0079999997106,,response,,,,99,,,,,,,Space,keypress(Space),,,,,,,,---- -- ----- -- ------ - ------- --- ----------<br>------------- ------ ------ ---- ---- ------- ----- -- ----<br>-------- ------- -- ---------- --- - --- ----- ----- ----<br>---- --- --- ----- --- ---- ---- ------- ----- ---- -------<br>you --- -- ----- -- --- ---- -- --- ---- -- ------ ------<br>--- ----- -- ----,133789.19999999972,133788.69999999972,133316.059,133329.19999999972,133332.692,133799.27,,39,you
screen,html.Screen,2_1_0_1_40,2022-04-28T10:33:10.478Z,,,,,,,,,,,,,,,,,53,,,,,,,,,,,,,,320.2300000000105,,response,,,,99,,,,,,,Space,keypress(Space),,,,,,,,---- -- ----- -- ------ - ------- --- ----------<br>------------- ------ ------ ---- ---- ------- ----- -- ----<br>-------- ------- -- ---------- --- - --- ----- ----- ----<br>---- --- --- ----- --- ---- ---- ------- ----- ---- -------<br>--- are -- ----- -- --- ---- -- --- ---- -- ------ ------<br>--- ----- -- ----,134120.1000000001,134119.5,133782.602,133789.19999999972,133799.27,134132.493,,40,are
screen,html.Screen,2_1_0_1_41,2022-04-28T10:33:10.900Z,,,,,,,,,,,,,,,,,53,,,,,,,,,,,,,,408.3069999998261,,response,,,,99,,,,,,,Space,keypress(Space),,,,,,,,---- -- ----- -- ------ - ------- --- ----------<br>------------- ------ ------ ---- ---- ------- ----- -- ----<br>-------- ------- -- ---------- --- - --- ----- ----- ----<br>---- --- --- ----- --- ---- ---- ------- ----- ---- -------<br>--- --- as ----- -- --- ---- -- --- ---- -- ------ ------<br>--- ----- -- ----,134541.2999999998,134540.7999999998,134115.793,134120.1000000001,134132.493,134548.985,,41,as
screen,html.Screen,2_1_0_1_42,2022-04-28T10:33:11.291Z,,,,,,,,,,,,,,,,,53,,,,,,,,,,,,,,383.41499999992084,,response,,,,99,,,,,,,Space,keypress(Space),,,,,,,,---- -- ----- -- ------ - ------- --- ----------<br>------------- ------ ------ ---- ---- ------- ----- -- ----<br>-------- ------- -- ---------- --- - --- ----- ----- ----<br>---- --- --- ----- --- ---- ---- ------- ----- ---- -------<br>--- --- -- close -- --- ---- -- --- ---- -- ------ ------<br>--- ----- -- ----,134932.8999999999,134932.3999999999,134532.305,134541.3999999999,134548.985,134948.868,,42,close
screen,html.Screen,2_1_0_1_43,2022-04-28T10:33:11.713Z,,,,,,,,,,,,,,,,,53,,,,,,,,,,,,,,405.2320000001055,,response,,,,99,,,,,,,Space,keypress(Space),,,,,,,,---- -- ----- -- ------ - ------- --- ----------<br>------------- ------ ------ ---- ---- ------- ----- -- ----<br>-------- ------- -- ---------- --- - --- ----- ----- ----<br>---- --- --- ----- --- ---- ---- ------- ----- ---- -------<br>--- --- -- ----- as --- ---- -- --- ---- -- ------ ------<br>--- ----- -- ----,135354.5,135354.1000000001,134932.162,134933.1000000001,134948.868,135365.353,,43,as
screen,html.Screen,2_1_0_1_44,2022-04-28T10:33:12.051Z,,,,,,,,,,,,,,,,,53,,,,,,,,,,,,,,326.74700000009034,,response,,,,99,,,,,,,Space,keypress(Space),,,,,,,,---- -- ----- -- ------ - ------- --- ----------<br>------------- ------ ------ ---- ---- ------- ----- -- ----<br>-------- ------- -- ---------- --- - --- ----- ----- ----<br>---- --- --- ----- --- ---- ---- ------- ----- ---- -------<br>--- --- -- ----- -- you ---- -- --- ---- -- ------ ------<br>--- ----- -- ----,135692.6000000001,135692.1000000001,135348.686,135354.6000000001,135365.353,135698.572,,44,you
screen,html.Screen,2_1_0_1_45,2022-04-28T10:33:12.423Z,,,,,,,,,,,,,,,,,53,,,,,,,,,,,,,,366.02800000010757,,response,,,,99,,,,,,,Space,keypress(Space),,,,,,,,---- -- ----- -- ------ - ------- --- ----------<br>------------- ------ ------ ---- ---- ------- ----- -- ----<br>-------- ------- -- ---------- --- - --- ----- ----- ----<br>---- --- --- ----- --- ---- ---- ------- ----- ---- -------<br>--- --- -- ----- -- --- want -- --- ---- -- ------ ------<br>--- ----- -- ----,136065,136064.6000000001,135681.899,135692.69999999972,135698.572,136081.795,,45,want
screen,html.Screen,2_1_0_1_46,2022-04-28T10:33:12.798Z,,,,,,,,,,,,,,,,,53,,,,,,,,,,,,,,357.10499999989406,,response,,,,99,,,,,,,Space,keypress(Space),,,,,,,,---- -- ----- -- ------ - ------- --- ----------<br>------------- ------ ------ ---- ---- ------- ----- -- ----<br>-------- ------- -- ---------- --- - --- ----- ----- ----<br>---- --- --- ----- --- ---- ---- ------- ----- ---- -------<br>--- --- -- ----- -- --- ---- to --- ---- -- ------ ------<br>--- ----- -- ----,136439.3999999999,136438.8999999999,136065.09,136065.1000000001,136081.795,136448.361,,46,to
screen,html.Screen,2_1_0_1_47,2022-04-28T10:33:13.162Z,,,,,,,,,,,,,,,,,53,,,,,,,,,,,,,,354.53899999990244,,response,,,,99,,,,,,,Space,keypress(Space),,,,,,,,"---- -- ----- -- ------ - ------- --- ----------<br>------------- ------ ------ ---- ---- ------- ----- -- ----<br>-------- ------- -- ---------- --- - --- ----- ----- ----<br>---- --- --- ----- --- ---- ---- ------- ----- ---- -------<br>--- --- -- ----- -- --- ---- -- be, ---- -- ------ ------<br>--- ----- -- ----",136803.19999999972,136802.8999999999,136431.695,136439.3999999999,136448.361,136814.906,,47,"be,"
screen,html.Screen,2_1_0_1_48,2022-04-28T10:33:13.463Z,,,,,,,,,,,,,,,,,53,,,,,,,,,,,,,,289.5940000000119,,response,,,,99,,,,,,,Space,keypress(Space),,,,,,,,---- -- ----- -- ------ - ------- --- ----------<br>------------- ------ ------ ---- ---- ------- ----- -- ----<br>-------- ------- -- ---------- --- - --- ----- ----- ----<br>---- --- --- ----- --- ---- ---- ------- ----- ---- -------<br>--- --- -- ----- -- --- ---- -- --- even -- ------ ------<br>--- ----- -- ----,137105,137104.5,136798.205,136803.3999999999,136814.906,137114.798,,48,even
screen,html.Screen,2_1_0_1_49,2022-04-28T10:33:13.835Z,,,,,,,,,,,,,,,,,53,,,,,,,,,,,,,,360.9019999997108,,response,,,,99,,,,,,,Space,keypress(Space),,,,,,,,---- -- ----- -- ------ - ------- --- ----------<br>------------- ------ ------ ---- ---- ------- ----- -- ----<br>-------- ------- -- ---------- --- - --- ----- ----- ----<br>---- --- --- ----- --- ---- ---- ------- ----- ---- -------<br>--- --- -- ----- -- --- ---- -- --- ---- if ------ ------<br>--- ----- -- ----,137476.19999999972,137475.69999999972,137098.137,137105,137114.798,137481.373,,49,if
screen,html.Screen,2_1_0_1_50,2022-04-28T10:33:14.136Z,,,,,,,,,,,,,,,,,53,,,,,,,,,,,,,,295.4269999998214,,response,,,,99,,,,,,,Space,keypress(Space),,,,,,,,---- -- ----- -- ------ - ------- --- ----------<br>------------- ------ ------ ---- ---- ------- ----- -- ----<br>-------- ------- -- ---------- --- - --- ----- ----- ----<br>---- --- --- ----- --- ---- ---- ------- ----- ---- -------<br>--- --- -- ----- -- --- ---- -- --- ---- -- that's ------<br>--- ----- -- ----,137777.19999999972,137776.7999999998,137464.637,137476.2999999998,137481.373,137781.143,,50,that's
screen,html.Screen,2_1_0_1_51,2022-04-28T10:33:14.424Z,,,,,,,,,,,,,,,,,53,,,,,,,,,,,,,,284.1569999998028,,response,,,,99,,,,,,,Space,keypress(Space),,,,,,,,---- -- ----- -- ------ - ------- --- ----------<br>------------- ------ ------ ---- ---- ------- ----- -- ----<br>-------- ------- -- ---------- --- - --- ----- ----- ----<br>---- --- --- ----- --- ---- ---- ------- ----- ---- -------<br>--- --- -- ----- -- --- ---- -- --- ---- -- ------ really<br>--- ----- -- ----,138065.7999999998,138065.2999999998,137764.544,137777.2999999998,137781.143,138081.135,,51,really
screen,html.Screen,2_1_0_1_52,2022-04-28T10:33:14.714Z,,,,,,,,,,,,,,,,,53,,,,,,,,,,,,,,274.0649999997113,,response,,,,99,,,,,,,Space,keypress(Space),,,,,,,,---- -- ----- -- ------ - ------- --- ----------<br>------------- ------ ------ ---- ---- ------- ----- -- ----<br>-------- ------- -- ---------- --- - --- ----- ----- ----<br>---- --- --- ----- --- ---- ---- ------- ----- ---- -------<br>--- --- -- ----- -- --- ---- -- --- ---- -- ------ ------<br>not ----- -- ----,138355.69999999972,138355.19999999972,138064.443,138065.8999999999,138081.135,138364.345,,52,not
screen,html.Screen,2_1_0_1_53,2022-04-28T10:33:15.028Z,,,,,,,,,,,,,,,,,53,,,,,,,,,,,,,,304.45499999981257,,response,,,,99,,,,,,,Space,keypress(Space),,,,,,,,---- -- ----- -- ------ - ------- --- ----------<br>------------- ------ ------ ---- ---- ------- ----- -- ----<br>-------- ------- -- ---------- --- - --- ----- ----- ----<br>---- --- --- ----- --- ---- ---- ------- ----- ---- -------<br>--- --- -- ----- -- --- ---- -- --- ---- -- ------ ------<br>--- close -- ----,138669.2999999998,138668.7999999998,138347.669,138355.7999999998,138364.345,138680.942,,53,close
screen,html.Screen,2_1_0_1_54,2022-04-28T10:33:15.450Z,,,,,,,,,,,,,,,,,53,,,,,,,,,,,,,,410.55799999999,,response,,,,99,,,,,,,Space,keypress(Space),,,,,,,,---- -- ----- -- ------ - ------- --- ----------<br>------------- ------ ------ ---- ---- ------- ----- -- ----<br>-------- ------- -- ---------- --- - --- ----- ----- ----<br>---- --- --- ----- --- ---- ---- ------- ----- ---- -------<br>--- --- -- ----- -- --- ---- -- --- ---- -- ------ ------<br>--- ----- at ----,139091.7999999998,139091.5,138664.216,138669.2999999998,138680.942,139097.472,,54,at
screen,html.Screen,2_1_0_1_55,2022-04-28T10:33:15.950Z,,,,,,,,,,,,,,,,,53,,,,,,,,,,,,,,493.52799999999115,,response,,,,99,,,,,,,Space,keypress(Space),,,,,,,,---- -- ----- -- ------ - ------- --- ----------<br>------------- ------ ------ ---- ---- ------- ----- -- ----<br>-------- ------- -- ---------- --- - --- ----- ----- ----<br>---- --- --- ----- --- ---- ---- ------- ----- ---- -------<br>--- --- -- ----- -- --- ---- -- --- ---- -- ------ ------<br>--- ----- -- all.,139591.5,139591,139080.765,139092,139097.472,139597.241,,55,all.
Item 99,flow.Loop,2_1_0_1,2022-04-28T10:33:15.950Z,,,,,,,,,,,,,,,,,,,,,,,,,,,,,,,25868.290999999997,,completion,,,,,D,,,,,,,,,,,silence,,,,,139591.6000000001,139591,113706.09,113706.69999999972,113722.709,139597.241,,,
Question 1,html.Screen,2_1_0_2,2022-04-28T10:33:20.096Z,,,,,,,,,,,,,,,,,,,,,,,,,,,,true,FALSE,,4139.9589999997115,,response,,,,99,D,,,,,,FALSE,click #choice-2,,,,silence,,,,,143737.8999999999,143737.19999999972,139580.59,139591.69999999972,139597.241,143745.819,,,
Question 2,html.Screen,2_1_0_3,2022-04-28T10:33:24.888Z,,,,,,,,,,,,,,,,,,,,,,,,,,,,true,TRUE,,4783.2810000001045,,response,,,,99,D,,,,,,TRUE,click #choice-1,,,,silence,,,,,148530.1000000001,148529.1000000001,143729.21,143738,143745.819,148544.236,,,
Item 99,flow.Sequence,2_1_0,2022-04-28T10:33:24.889Z,,,,,,,,,,,,,,,,,,,,,,,,,,,,,,,44802.945000000094,,completion,,,,,,,,,,,,,,,,,,,,,148530.19999999972,148529.1000000001,103709.473,103713,103726.155,148544.236,,,
Holding screen,html.Screen,2_1_1_0,2022-04-28T10:33:34.883Z,,,,,,,,,,,,,,,,,,,,,,,,,,,,,,,9996.612999999983,,timeout,,,,,,,,,,,,,,,,,,,,,158524.8999999999,158524.165,148527.561,148530.2999999998,148544.236,158540.849,,,
screen,html.Screen,2_1_1_1_0,2022-04-28T10:33:37.635Z,,,,,,,,,,,,,,,,,54,,,,,,,,,,,,,,2735.350999999733,,response,,,,100,,,,,,,Space,keypress(Space),,,,,,,,At --- ---- --- ------ ----- ------- ---- -- --- ------- --<br>------- ---------- ------ -- ----- -- ----- -- ---- ------<br>--- ----- --- --- ------ -------- ----- --- ------ ----- --<br>----- ----- ---------- --- --- ------ ------ ---- -- ------<br>------- --- ------ ----- --- ---- ------- -- ---- --- --<br>------- ------,161276.7999999998,161276.19999999972,158524.165,158524.8999999999,158540.849,161289.912,,0,At
screen,html.Screen,2_1_1_1_1,2022-04-28T10:33:38.065Z,,,,,,,,,,,,,,,,,54,,,,,,,,,,,,,,416.5879999999888,,response,,,,100,,,,,,,Space,keypress(Space),,,,,,,,-- the ---- --- ------ ----- ------- ---- -- --- ------- --<br>------- ---------- ------ -- ----- -- ----- -- ---- ------<br>--- ----- --- --- ------ -------- ----- --- ------ ----- --<br>----- ----- ---------- --- --- ------ ------ ---- -- ------<br>------- --- ------ ----- --- ---- ------- -- ---- --- --<br>------- ------,161707,161706.5,161273.067,161276.7999999998,161289.912,161723.091,,1,the
screen,html.Screen,2_1_1_1_2,2022-04-28T10:33:38.530Z,,,,,,,,,,,,,,,,,54,,,,,,,,,,,,,,448.1089999997348,,response,,,,100,,,,,,,Space,keypress(Space),,,,,,,,-- --- time --- ------ ----- ------- ---- -- --- ------- --<br>------- ---------- ------ -- ----- -- ----- -- ---- ------<br>--- ----- --- --- ------ -------- ----- --- ------ ----- --<br>----- ----- ---------- --- --- ------ ------ ---- -- ------<br>------- --- ------ ----- --- ---- ------- -- ---- --- --<br>------- ------,162171.7999999998,162171.19999999972,161706.388,161707.1000000001,161723.091,162191.939,,2,time
screen,html.Screen,2_1_1_1_3,2022-04-28T10:33:38.930Z,,,,,,,,,,,,,,,,,54,,,,,,,,,,,,,,379.46099999989383,,response,,,,100,,,,,,,Space,keypress(Space),,,,,,,,-- --- ---- the ------ ----- ------- ---- -- --- ------- --<br>------- ---------- ------ -- ----- -- ----- -- ---- ------<br>--- ----- --- --- ------ -------- ----- --- ------ ----- --<br>----- ----- ---------- --- --- ------ ------ ---- -- ------<br>------- --- ------ ----- --- ---- ------- -- ---- --- --<br>------- ------,162571.7999999998,162571.3999999999,162156.233,162171.8999999999,162191.939,162594.29,,3,the
screen,html.Screen,2_1_1_1_4,2022-04-28T10:33:39.300Z,,,,,,,,,,,,,,,,,54,,,,,,,,,,,,,,346.70999999999185,,response,,,,100,,,,,,,Space,keypress(Space),,,,,,,,-- --- ---- --- French ----- ------- ---- -- --- ------- --<br>------- ---------- ------ -- ----- -- ----- -- ---- ------<br>--- ----- --- --- ------ -------- ----- --- ------ ----- --<br>----- ----- ---------- --- --- ------ ------ ---- -- ------<br>------- --- ------ ----- --- ---- ------- -- ---- --- --<br>------- ------,162941.3999999999,162941,162556.102,162571.8999999999,162594.29,162956,,4,French
screen,html.Screen,2_1_1_1_5,2022-04-28T10:33:39.769Z,,,,,,,,,,,,,,,,,54,,,,,,,,,,,,,,453.89999999990687,,response,,,,100,,,,,,,Space,keypress(Space),,,,,,,,-- --- ---- --- ------ crown ------- ---- -- --- ------- --<br>------- ---------- ------ -- ----- -- ----- -- ---- ------<br>--- ----- --- --- ------ -------- ----- --- ------ ----- --<br>----- ----- ---------- --- --- ------ ------ ---- -- ------<br>------- --- ------ ----- --- ---- ------- -- ---- --- --<br>------- ------,163410.3999999999,163409.8999999999,162939.295,162941.3999999999,162956,163422.489,,5,crown
screen,html.Screen,2_1_1_1_6,2022-04-28T10:33:40.168Z,,,,,,,,,,,,,,,,,54,,,,,,,,,,,,,,386.11100000009174,,response,,,,100,,,,,,,Space,keypress(Space),,,,,,,,-- --- ---- --- ------ ----- secured ---- -- --- ------- --<br>------- ---------- ------ -- ----- -- ----- -- ---- ------<br>--- ----- --- --- ------ -------- ----- --- ------ ----- --<br>----- ----- ---------- --- --- ------ ------ ---- -- ------<br>------- --- ------ ----- --- ---- ------- -- ---- --- --<br>------- ------,163809.1000000001,163808.6000000001,163405.816,163410.6000000001,163422.489,163822.415,,6,secured
screen,html.Screen,2_1_1_1_7,2022-04-28T10:33:40.564Z,,,,,,,,,,,,,,,,,54,,,,,,,,,,,,,,382.4849999998987,,response,,,,100,,,,,,,Space,keypress(Space),,,,,,,,-- --- ---- --- ------ ----- ------- much -- --- ------- --<br>------- ---------- ------ -- ----- -- ----- -- ---- ------<br>--- ----- --- --- ------ -------- ----- --- ------ ----- --<br>----- ----- ---------- --- --- ------ ------ ---- -- ------<br>------- --- ------ ----- --- ---- ------- -- ---- --- --<br>------- ------,164205.6000000001,164204.8999999999,163805.676,163809.19999999972,163822.415,164222.239,,7,much
screen,html.Screen,2_1_1_1_8,2022-04-28T10:33:40.915Z,,,,,,,,,,,,,,,,,54,,,,,,,,,,,,,,333.56099999981234,,response,,,,100,,,,,,,Space,keypress(Space),,,,,,,,-- --- ---- --- ------ ----- ------- ---- of --- ------- --<br>------- ---------- ------ -- ----- -- ----- -- ---- ------<br>--- ----- --- --- ------ -------- ----- --- ------ ----- --<br>----- ----- ---------- --- --- ------ ------ ---- -- ------<br>------- --- ------ ----- --- ---- ------- -- ---- --- --<br>------- ------,164556.3999999999,164555.7999999998,164205.532,164205.69999999972,164222.239,164572.133,,8,of
screen,html.Screen,2_1_1_1_9,2022-04-28T10:33:41.259Z,,,,,,,,,,,,,,,,,54,,,,,,,,,,,,,,328.066999999719,,response,,,,100,,,,,,,Space,keypress(Space),,,,,,,,-- --- ---- --- ------ ----- ------- ---- -- its ------- --<br>------- ---------- ------ -- ----- -- ----- -- ---- ------<br>--- ----- --- --- ------ -------- ----- --- ------ ----- --<br>----- ----- ---------- --- --- ------ ------ ---- -- ------<br>------- --- ------ ----- --- ---- ------- -- ---- --- --<br>------- ------,164900.6000000001,164900.19999999972,164555.423,164556.5,164572.133,164905.351,,9,its
screen,html.Screen,2_1_1_1_10,2022-04-28T10:33:41.586Z,,,,,,,,,,,,,,,,,54,,,,,,,,,,,,,,321.3489999997255,,response,,,,100,,,,,,,Space,keypress(Space),,,,,,,,-- --- ---- --- ------ ----- ------- ---- -- --- revenue --<br>------- ---------- ------ -- ----- -- ----- -- ---- ------<br>--- ----- --- --- ------ -------- ----- --- ------ ----- --<br>----- ----- ---------- --- --- ------ ------ ---- -- ------<br>------- --- ------ ----- --- ---- ------- -- ---- --- --<br>------- ------,165227.19999999972,165226.69999999972,164888.605,164900.6000000001,164905.351,165238.64,,10,revenue
screen,html.Screen,2_1_1_1_11,2022-04-28T10:33:41.997Z,,,,,,,,,,,,,,,,,54,,,,,,,,,,,,,,399.85999999998603,,response,,,,100,,,,,,,Space,keypress(Space),,,,,,,,-- --- ---- --- ------ ----- ------- ---- -- --- ------- by<br>------- ---------- ------ -- ----- -- ----- -- ---- ------<br>--- ----- --- --- ------ -------- ----- --- ------ ----- --<br>----- ----- ---------- --- --- ------ ------ ---- -- ------<br>------- --- ------ ----- --- ---- ------- -- ---- --- --<br>------- ------,165638.8999999999,165638.5,165221.848,165227.19999999972,165238.64,165655.083,,11,by
screen,html.Screen,2_1_1_1_12,2022-04-28T10:33:42.409Z,,,,,,,,,,,,,,,,,54,,,,,,,,,,,,,,395.21699999980046,,response,,,,100,,,,,,,Space,keypress(Space),,,,,,,,-- --- ---- --- ------ ----- ------- ---- -- --- ------- --<br>issuing ---------- ------ -- ----- -- ----- -- ---- ------<br>--- ----- --- --- ------ -------- ----- --- ------ ----- --<br>----- ----- ---------- --- --- ------ ------ ---- -- ------<br>------- --- ------ ----- --- ---- ------- -- ---- --- --<br>------- ------,166050.7999999998,166050.2999999998,165638.343,165639.5,165655.083,166054.939,,12,issuing
screen,html.Screen,2_1_1_1_13,2022-04-28T10:33:42.841Z,,,,,,,,,,,,,,,,,54,,,,,,,,,,,,,,427.46099999989383,,response,,,,100,,,,,,,Space,keypress(Space),,,,,,,,-- --- ---- --- ------ ----- ------- ---- -- --- ------- --<br>------- government ------ -- ----- -- ----- -- ---- ------<br>--- ----- --- --- ------ -------- ----- --- ------ ----- --<br>----- ----- ---------- --- --- ------ ------ ---- -- ------<br>------- --- ------ ----- --- ---- ------- -- ---- --- --<br>------- ------,166482.8999999999,166482.3999999999,166038.171,166050.8999999999,166054.939,166488.154,,13,government
screen,html.Screen,2_1_1_1_14,2022-04-28T10:33:43.213Z,,,,,,,,,,,,,,,,,54,,,,,,,,,,,,,,366.34599999999045,,response,,,,100,,,,,,,Space,keypress(Space),,,,,,,,-- --- ---- --- ------ ----- ------- ---- -- --- ------- --<br>------- ---------- bonds. -- ----- -- ----- -- ---- ------<br>--- ----- --- --- ------ -------- ----- --- ------ ----- --<br>----- ----- ---------- --- --- ------ ------ ---- -- ------<br>------- --- ------ ----- --- ---- ------- -- ---- --- --<br>------- ------,166855.1000000001,166854.5,166471.446,166483,166488.154,166871.281,,14,bonds.
screen,html.Screen,2_1_1_1_15,2022-04-28T10:33:43.661Z,,,,,,,,,,,,,,,,,54,,,,,,,,,,,,,,431.319000000105,,response,,,,100,,,,,,,Space,keypress(Space),,,,,,,,-- --- ---- --- ------ ----- ------- ---- -- --- ------- --<br>------- ---------- ------ In ----- -- ----- -- ---- ------<br>--- ----- --- --- ------ -------- ----- --- ------ ----- --<br>----- ----- ---------- --- --- ------ ------ ---- -- ------<br>------- --- ------ ----- --- ---- ------- -- ---- --- --<br>------- ------,167303,167302.6000000001,166854.651,166855.1000000001,166871.281,167336.573,,15,In
screen,html.Screen,2_1_1_1_16,2022-04-28T10:33:44.043Z,,,,,,,,,,,,,,,,,54,,,,,,,,,,,,,,348.2269999998098,,response,,,,100,,,,,,,Space,keypress(Space),,,,,,,,"-- --- ---- --- ------ ----- ------- ---- -- --- ------- --<br>------- ---------- ------ -- 1727, -- ----- -- ---- ------<br>--- ----- --- --- ------ -------- ----- --- ------ ----- --<br>----- ----- ---------- --- --- ------ ------ ---- -- ------<br>------- --- ------ ----- --- ---- ------- -- ---- --- --<br>------- ------",167685.19999999972,167684.7999999998,167287.862,167303.1000000001,167336.573,167687.66,,16,"1727,"
screen,html.Screen,2_1_1_1_17,2022-04-28T10:33:44.438Z,,,,,,,,,,,,,,,,,54,,,,,,,,,,,,,,391.13999999981024,,response,,,,100,,,,,,,Space,keypress(Space),,,,,,,,-- --- ---- --- ------ ----- ------- ---- -- --- ------- --<br>------- ---------- ------ -- ----- in ----- -- ---- ------<br>--- ----- --- --- ------ -------- ----- --- ------ ----- --<br>----- ----- ---------- --- --- ------ ------ ---- -- ------<br>------- --- ------ ----- --- ---- ------- -- ---- --- --<br>------- ------,168079.2999999998,168078.7999999998,167671.035,167685.19999999972,167687.66,168087.608,,17,in
screen,html.Screen,2_1_1_1_18,2022-04-28T10:33:44.831Z,,,,,,,,,,,,,,,,,54,,,,,,,,,,,,,,384.39199999999255,,response,,,,100,,,,,,,Space,keypress(Space),,,,,,,,-- --- ---- --- ------ ----- ------- ---- -- --- ------- --<br>------- ---------- ------ -- ----- -- order -- ---- ------<br>--- ----- --- --- ------ -------- ----- --- ------ ----- --<br>----- ----- ---------- --- --- ------ ------ ---- -- ------<br>------- --- ------ ----- --- ---- ------- -- ---- --- --<br>------- ------,168472.6000000001,168472,168070.914,168079.5,168087.608,168487.463,,18,order
screen,html.Screen,2_1_1_1_19,2022-04-28T10:33:45.232Z,,,,,,,,,,,,,,,,,54,,,,,,,,,,,,,,386.0370000000112,,response,,,,100,,,,,,,Space,keypress(Space),,,,,,,,-- --- ---- --- ------ ----- ------- ---- -- --- ------- --<br>------- ---------- ------ -- ----- -- ----- to ---- ------<br>--- ----- --- --- ------ -------- ----- --- ------ ----- --<br>----- ----- ---------- --- --- ------ ------ ---- -- ------<br>------- --- ------ ----- --- ---- ------- -- ---- --- --<br>------- ------,168873.8999999999,168873.5,168470.756,168472.69999999972,168487.463,168887.322,,19,to
screen,html.Screen,2_1_1_1_20,2022-04-28T10:33:45.571Z,,,,,,,,,,,,,,,,,54,,,,,,,,,,,,,,325.27800000010757,,response,,,,100,,,,,,,Space,keypress(Space),,,,,,,,-- --- ---- --- ------ ----- ------- ---- -- --- ------- --<br>------- ---------- ------ -- ----- -- ----- -- save ------<br>--- ----- --- --- ------ -------- ----- --- ------ ----- --<br>----- ----- ---------- --- --- ------ ------ ---- -- ------<br>------- --- ------ ----- --- ---- ------- -- ---- --- --<br>------- ------,169213,169212.6000000001,168870.623,168874.1000000001,168887.322,169220.547,,20,save
screen,html.Screen,2_1_1_1_21,2022-04-28T10:33:45.962Z,,,,,,,,,,,,,,,,,54,,,,,,,,,,,,,,382.4530000000086,,response,,,,100,,,,,,,Space,keypress(Space),,,,,,,,"-- --- ---- --- ------ ----- ------- ---- -- --- ------- --<br>------- ---------- ------ -- ----- -- ----- -- ---- money,<br>--- ----- --- --- ------ -------- ----- --- ------ ----- --<br>----- ----- ---------- --- --- ------ ------ ---- -- ------<br>------- --- ------ ----- --- ---- ------- -- ---- --- --<br>------- ------",169603.3999999999,169603,169203.839,169213.1000000001,169220.547,169620.402,,21,"money,"
screen,html.Screen,2_1_1_1_22,2022-04-28T10:33:46.360Z,,,,,,,,,,,,,,,,,54,,,,,,,,,,,,,,381.09799999999814,,response,,,,100,,,,,,,Space,keypress(Space),,,,,,,,-- --- ---- --- ------ ----- ------- ---- -- --- ------- --<br>------- ---------- ------ -- ----- -- ----- -- ---- ------<br>the ----- --- --- ------ -------- ----- --- ------ ----- --<br>----- ----- ---------- --- --- ------ ------ ---- -- ------<br>------- --- ------ ----- --- ---- ------- -- ---- --- --<br>------- ------,170001.8999999999,170001.5,169603.706,169603.5,169620.402,170003.564,,22,the
screen,html.Screen,2_1_1_1_23,2022-04-28T10:33:46.742Z,,,,,,,,,,,,,,,,,54,,,,,,,,,,,,,,379.5360000000801,,response,,,,100,,,,,,,Space,keypress(Space),,,,,,,,-- --- ---- --- ------ ----- ------- ---- -- --- ------- --<br>------- ---------- ------ -- ----- -- ----- -- ---- ------<br>--- state --- --- ------ -------- ----- --- ------ ----- --<br>----- ----- ---------- --- --- ------ ------ ---- -- ------<br>------- --- ------ ----- --- ---- ------- -- ---- --- --<br>------- ------,170383.5,170383.1000000001,169986.911,170002,170003.564,170386.705,,23,state
screen,html.Screen,2_1_1_1_24,2022-04-28T10:33:47.138Z,,,,,,,,,,,,,,,,,54,,,,,,,,,,,,,,392.59499999982654,,response,,,,100,,,,,,,Space,keypress(Space),,,,,,,,-- --- ---- --- ------ ----- ------- ---- -- --- ------- --<br>------- ---------- ------ -- ----- -- ----- -- ---- ------<br>--- ----- cut --- ------ -------- ----- --- ------ ----- --<br>----- ----- ---------- --- --- ------ ------ ---- -- ------<br>------- --- ------ ----- --- ---- ------- -- ---- --- --<br>------- ------,170779.7999999998,170779.2999999998,170370.105,170383.6000000001,170386.705,170786.634,,24,cut
screen,html.Screen,2_1_1_1_25,2022-04-28T10:33:47.459Z,,,,,,,,,,,,,,,,,54,,,,,,,,,,,,,,313.6659999998228,,response,,,,100,,,,,,,Space,keypress(Space),,,,,,,,-- --- ---- --- ------ ----- ------- ---- -- --- ------- --<br>------- ---------- ------ -- ----- -- ----- -- ---- ------<br>--- ----- --- the ------ -------- ----- --- ------ ----- --<br>----- ----- ---------- --- --- ------ ------ ---- -- ------<br>------- --- ------ ----- --- ---- ------- -- ---- --- --<br>------- ------,171100.69999999972,171100.2999999998,170769.971,170779.7999999998,170786.634,171103.118,,25,the
screen,html.Screen,2_1_1_1_26,2022-04-28T10:33:47.853Z,,,,,,,,,,,,,,,,,54,,,,,,,,,,,,,,391.38200000001234,,response,,,,100,,,,,,,Space,keypress(Space),,,,,,,,-- --- ---- --- ------ ----- ------- ---- -- --- ------- --<br>------- ---------- ------ -- ----- -- ----- -- ---- ------<br>--- ----- --- --- bonds' -------- ----- --- ------ ----- --<br>----- ----- ---------- --- --- ------ ------ ---- -- ------<br>------- --- ------ ----- --- ---- ------- -- ---- --- --<br>------- ------,171495,171494.5,171086.568,171100.7999999998,171103.118,171503.1,,26,bonds'
screen,html.Screen,2_1_1_1_27,2022-04-28T10:33:48.203Z,,,,,,,,,,,,,,,,,54,,,,,,,,,,,,,,341.0999999997148,,response,,,,100,,,,,,,Space,keypress(Space),,,,,,,,-- --- ---- --- ------ ----- ------- ---- -- --- ------- --<br>------- ---------- ------ -- ----- -- ----- -- ---- ------<br>--- ----- --- --- ------ interest ----- --- ------ ----- --<br>----- ----- ---------- --- --- ------ ------ ---- -- ------<br>------- --- ------ ----- --- ---- ------- -- ---- --- --<br>------- ------,171844.7999999998,171844.19999999972,171486.396,171495.1000000001,171503.1,171852.965,,27,interest
screen,html.Screen,2_1_1_1_28,2022-04-28T10:33:48.554Z,,,,,,,,,,,,,,,,,54,,,,,,,,,,,,,,342.43499999991036,,response,,,,100,,,,,,,Space,keypress(Space),,,,,,,,-- --- ---- --- ------ ----- ------- ---- -- --- ------- --<br>------- ---------- ------ -- ----- -- ----- -- ---- ------<br>--- ----- --- --- ------ -------- rate. --- ------ ----- --<br>----- ----- ---------- --- --- ------ ------ ---- -- ------<br>------- --- ------ ----- --- ---- ------- -- ---- --- --<br>------- ------,172195.7999999998,172195.3999999999,171836.28,171844.8999999999,171852.965,172202.889,,28,rate.
screen,html.Screen,2_1_1_1_29,2022-04-28T10:33:48.896Z,,,,,,,,,,,,,,,,,54,,,,,,,,,,,,,,334.71100000009756,,response,,,,100,,,,,,,Space,keypress(Space),,,,,,,,-- --- ---- --- ------ ----- ------- ---- -- --- ------- --<br>------- ---------- ------ -- ----- -- ----- -- ---- ------<br>--- ----- --- --- ------ -------- ----- The ------ ----- --<br>----- ----- ---------- --- --- ------ ------ ---- -- ------<br>------- --- ------ ----- --- ---- ------- -- ---- --- --<br>------- ------,172538,172537.6000000001,172186.113,172195.7999999998,172202.889,172552.738,,29,The
screen,html.Screen,2_1_1_1_30,2022-04-28T10:33:49.261Z,,,,,,,,,,,,,,,,,54,,,,,,,,,,,,,,349.7619999999879,,response,,,,100,,,,,,,Space,keypress(Space),,,,,,,,-- --- ---- --- ------ ----- ------- ---- -- --- ------- --<br>------- ---------- ------ -- ----- -- ----- -- ---- ------<br>--- ----- --- --- ------ -------- ----- --- market ----- --<br>----- ----- ---------- --- --- ------ ------ ---- -- ------<br>------- --- ------ ----- --- ---- ------- -- ---- --- --<br>------- ------,172903,172902.5,172536.029,172538.19999999972,172552.738,172919.257,,30,market
screen,html.Screen,2_1_1_1_31,2022-04-28T10:33:49.561Z,,,,,,,,,,,,,,,,,54,,,,,,,,,,,,,,283.1429999998945,,response,,,,100,,,,,,,Space,keypress(Space),,,,,,,,-- --- ---- --- ------ ----- ------- ---- -- --- ------- --<br>------- ---------- ------ -- ----- -- ----- -- ---- ------<br>--- ----- --- --- ------ -------- ----- --- ------ value --<br>----- ----- ---------- --- --- ------ ------ ---- -- ------<br>------- --- ------ ----- --- ---- ------- -- ---- --- --<br>------- ------,173202.69999999972,173202.3999999999,172902.584,172903.1000000001,172919.257,173219.2,,31,value
screen,html.Screen,2_1_1_1_32,2022-04-28T10:33:49.899Z,,,,,,,,,,,,,,,,,54,,,,,,,,,,,,,,320.6999999998952,,response,,,,100,,,,,,,Space,keypress(Space),,,,,,,,-- --- ---- --- ------ ----- ------- ---- -- --- ------- --<br>------- ---------- ------ -- ----- -- ----- -- ---- ------<br>--- ----- --- --- ------ -------- ----- --- ------ ----- of<br>----- ----- ---------- --- --- ------ ------ ---- -- ------<br>------- --- ------ ----- --- ---- ------- -- ---- --- --<br>------- ------,173540.3999999999,173539.8999999999,173202.491,173202.7999999998,173219.2,173552.402,,32,of
screen,html.Screen,2_1_1_1_33,2022-04-28T10:33:50.241Z,,,,,,,,,,,,,,,,,54,,,,,,,,,,,,,,329.59799999999814,,response,,,,100,,,,,,,Space,keypress(Space),,,,,,,,-- --- ---- --- ------ ----- ------- ---- -- --- ------- --<br>------- ---------- ------ -- ----- -- ----- -- ---- ------<br>--- ----- --- --- ------ -------- ----- --- ------ ----- --<br>these ----- ---------- --- --- ------ ------ ---- -- ------<br>------- --- ------ ----- --- ---- ------- -- ---- --- --<br>------- ------,173882.5,173882,173535.715,173540.3999999999,173552.402,173885.59,,33,these
screen,html.Screen,2_1_1_1_34,2022-04-28T10:33:50.609Z,,,,,,,,,,,,,,,,,54,,,,,,,,,,,,,,364.80999999991036,,response,,,,100,,,,,,,Space,keypress(Space),,,,,,,,-- --- ---- --- ------ ----- ------- ---- -- --- ------- --<br>------- ---------- ------ -- ----- -- ----- -- ---- ------<br>--- ----- --- --- ------ -------- ----- --- ------ ----- --<br>----- bonds ---------- --- --- ------ ------ ---- -- ------<br>------- --- ------ ----- --- ---- ------- -- ---- --- --<br>------- ------,174250.7999999998,174250.3999999999,173868.92,173882.6000000001,173885.59,174272.019,,34,bonds
screen,html.Screen,2_1_1_1_35,2022-04-28T10:33:50.936Z,,,,,,,,,,,,,,,,,54,,,,,,,,,,,,,,305.48099999999977,,response,,,,100,,,,,,,Space,keypress(Space),,,,,,,,"-- --- ---- --- ------ ----- ------- ---- -- --- ------- --<br>------- ---------- ------ -- ----- -- ----- -- ---- ------<br>--- ----- --- --- ------ -------- ----- --- ------ ----- --<br>----- ----- plummeted, --- --- ------ ------ ---- -- ------<br>------- --- ------ ----- --- ---- ------- -- ---- --- --<br>------- ------",174578,174577.5,174235.462,174250.8999999999,174272.019,174585.337,,35,"plummeted,"
screen,html.Screen,2_1_1_1_36,2022-04-28T10:33:51.268Z,,,,,,,,,,,,,,,,,54,,,,,,,,,,,,,,323.86299999972107,,response,,,,100,,,,,,,Space,keypress(Space),,,,,,,,-- --- ---- --- ------ ----- ------- ---- -- --- ------- --<br>------- ---------- ------ -- ----- -- ----- -- ---- ------<br>--- ----- --- --- ------ -------- ----- --- ------ ----- --<br>----- ----- ---------- and --- ------ ------ ---- -- ------<br>------- --- ------ ----- --- ---- ------- -- ---- --- --<br>------- ------,174909.7999999998,174909.19999999972,174568.657,174578.19999999972,174585.337,174918.577,,36,and
screen,html.Screen,2_1_1_1_37,2022-04-28T10:33:51.593Z,,,,,,,,,,,,,,,,,54,,,,,,,,,,,,,,315.32299999991665,,response,,,,100,,,,,,,Space,keypress(Space),,,,,,,,-- --- ---- --- ------ ----- ------- ---- -- --- ------- --<br>------- ---------- ------ -- ----- -- ----- -- ---- ------<br>--- ----- --- --- ------ -------- ----- --- ------ ----- --<br>----- ----- ---------- --- the ------ ------ ---- -- ------<br>------- --- ------ ----- --- ---- ------- -- ---- --- --<br>------- ------,175234.2999999998,175233.8999999999,174901.9,174909.7999999998,174918.577,175264.961,,37,the
screen,html.Screen,2_1_1_1_38,2022-04-28T10:33:51.913Z,,,,,,,,,,,,,,,,,54,,,,,,,,,,,,,,288.8389999998035,,response,,,,100,,,,,,,Space,keypress(Space),,,,,,,,-- --- ---- --- ------ ----- ------- ---- -- --- ------- --<br>------- ---------- ------ -- ----- -- ----- -- ---- ------<br>--- ----- --- --- ------ -------- ----- --- ------ ----- --<br>----- ----- ---------- --- --- market ------ ---- -- ------<br>------- --- ------ ----- --- ---- ------- -- ---- --- --<br>------- ------,175554.2999999998,175553.7999999998,175218.456,175234.3999999999,175264.961,175568.373,,38,market
screen,html.Screen,2_1_1_1_39,2022-04-28T10:33:52.209Z,,,,,,,,,,,,,,,,,54,,,,,,,,,,,,,,281.9269999998214,,response,,,,100,,,,,,,Space,keypress(Space),,,,,,,,-- --- ---- --- ------ ----- ------- ---- -- --- ------- --<br>------- ---------- ------ -- ----- -- ----- -- ---- ------<br>--- ----- --- --- ------ -------- ----- --- ------ ----- --<br>----- ----- ---------- --- --- ------ became ---- -- ------<br>------- --- ------ ----- --- ---- ------- -- ---- --- --<br>------- ------,175850.69999999972,175850.2999999998,175551.677,175554.3999999999,175568.373,175871.386,,39,became
screen,html.Screen,2_1_1_1_40,2022-04-28T10:33:52.552Z,,,,,,,,,,,,,,,,,54,,,,,,,,,,,,,,322.21400000009453,,response,,,,100,,,,,,,Space,keypress(Space),,,,,,,,-- --- ---- --- ------ ----- ------- ---- -- --- ------- --<br>------- ---------- ------ -- ----- -- ----- -- ---- ------<br>--- ----- --- --- ------ -------- ----- --- ------ ----- --<br>----- ----- ---------- --- --- ------ ------ wary -- ------<br>------- --- ------ ----- --- ---- ------- -- ---- --- --<br>------- ------,176194.19999999972,176193.6000000001,175834.932,175850.7999999998,175871.386,176201.517,,40,wary
screen,html.Screen,2_1_1_1_41,2022-04-28T10:33:52.853Z,,,,,,,,,,,,,,,,,54,,,,,,,,,,,,,,292.3829999999143,,response,,,,100,,,,,,,Space,keypress(Space),,,,,,,,-- --- ---- --- ------ ----- ------- ---- -- --- ------- --<br>------- ---------- ------ -- ----- -- ----- -- ---- ------<br>--- ----- --- --- ------ -------- ----- --- ------ ----- --<br>----- ----- ---------- --- --- ------ ------ ---- of ------<br>------- --- ------ ----- --- ---- ------- -- ---- --- --<br>------- ------,176494.5,176493.8999999999,176184.791,176194.19999999972,176201.517,176501.448,,41,of
screen,html.Screen,2_1_1_1_42,2022-04-28T10:33:53.183Z,,,,,,,,,,,,,,,,,54,,,,,,,,,,,,,,322.8519999998098,,response,,,,100,,,,,,,Space,keypress(Space),,,,,,,,-- --- ---- --- ------ ----- ------- ---- -- --- ------- --<br>------- ---------- ------ -- ----- -- ----- -- ---- ------<br>--- ----- --- --- ------ -------- ----- --- ------ ----- --<br>----- ----- ---------- --- --- ------ ------ ---- -- French<br>------- --- ------ ----- --- ---- ------- -- ---- --- --<br>------- ------,176824.7999999998,176824.2999999998,176484.67,176494.6000000001,176501.448,176834.611,,42,French
screen,html.Screen,2_1_1_1_43,2022-04-28T10:33:53.526Z,,,,,,,,,,,,,,,,,54,,,,,,,,,,,,,,332.78899999990244,,response,,,,100,,,,,,,Space,keypress(Space),,,,,,,,-- --- ---- --- ------ ----- ------- ---- -- --- ------- --<br>------- ---------- ------ -- ----- -- ----- -- ---- ------<br>--- ----- --- --- ------ -------- ----- --- ------ ----- --<br>----- ----- ---------- --- --- ------ ------ ---- -- ------<br>credit. --- ------ ----- --- ---- ------- -- ---- --- --<br>------- ------,177167.7999999998,177167.3999999999,176817.924,176824.8999999999,176834.611,177184.44,,43,credit.
screen,html.Screen,2_1_1_1_44,2022-04-28T10:33:53.879Z,,,,,,,,,,,,,,,,,54,,,,,,,,,,,,,,335.6600000000908,,response,,,,100,,,,,,,Space,keypress(Space),,,,,,,,-- --- ---- --- ------ ----- ------- ---- -- --- ------- --<br>------- ---------- ------ -- ----- -- ----- -- ---- ------<br>--- ----- --- --- ------ -------- ----- --- ------ ----- --<br>----- ----- ---------- --- --- ------ ------ ---- -- ------<br>------- The ------ ----- --- ---- ------- -- ---- --- --<br>------- ------,177520.6000000001,177520.1000000001,177167.799,177167.7999999998,177184.44,177534.359,,44,The
screen,html.Screen,2_1_1_1_45,2022-04-28T10:33:54.232Z,,,,,,,,,,,,,,,,,54,,,,,,,,,,,,,,339.14100000000326,,response,,,,100,,,,,,,Space,keypress(Space),,,,,,,,-- --- ---- --- ------ ----- ------- ---- -- --- ------- --<br>------- ---------- ------ -- ----- -- ----- -- ---- ------<br>--- ----- --- --- ------ -------- ----- --- ------ ----- --<br>----- ----- ---------- --- --- ------ ------ ---- -- ------<br>------- --- French ----- --- ---- ------- -- ---- --- --<br>------- ------,177873.7999999998,177873.5,177517.601,177520.69999999972,177534.359,177884.258,,45,French
screen,html.Screen,2_1_1_1_46,2022-04-28T10:33:54.535Z,,,,,,,,,,,,,,,,,54,,,,,,,,,,,,,,291.5419999998121,,response,,,,100,,,,,,,Space,keypress(Space),,,,,,,,-- --- ---- --- ------ ----- ------- ---- -- --- ------- --<br>------- ---------- ------ -- ----- -- ----- -- ---- ------<br>--- ----- --- --- ------ -------- ----- --- ------ ----- --<br>----- ----- ---------- --- --- ------ ------ ---- -- ------<br>------- --- ------ state --- ---- ------- -- ---- --- --<br>------- ------,178176.19999999972,178175.7999999998,177867.463,177873.8999999999,177884.258,178184.157,,46,state
screen,html.Screen,2_1_1_1_47,2022-04-28T10:33:54.843Z,,,,,,,,,,,,,,,,,54,,,,,,,,,,,,,,299.74299999990035,,response,,,,100,,,,,,,Space,keypress(Space),,,,,,,,-- --- ---- --- ------ ----- ------- ---- -- --- ------- --<br>------- ---------- ------ -- ----- -- ----- -- ---- ------<br>--- ----- --- --- ------ -------- ----- --- ------ ----- --<br>----- ----- ---------- --- --- ------ ------ ---- -- ------<br>------- --- ------ ----- was ---- ------- -- ---- --- --<br>------- ------,178484.2999999998,178483.8999999999,178167.466,178176.2999999998,178184.157,178500.726,,47,was
screen,html.Screen,2_1_1_1_48,2022-04-28T10:33:55.139Z,,,,,,,,,,,,,,,,,54,,,,,,,,,,,,,,279.7740000000049,,response,,,,100,,,,,,,Space,keypress(Space),,,,,,,,-- --- ---- --- ------ ----- ------- ---- -- --- ------- --<br>------- ---------- ------ -- ----- -- ----- -- ---- ------<br>--- ----- --- --- ------ -------- ----- --- ------ ----- --<br>----- ----- ---------- --- --- ------ ------ ---- -- ------<br>------- --- ------ ----- --- left ------- -- ---- --- --<br>------- ------,178781,178780.5,178484.013,178484.3999999999,178500.726,178783.907,,48,left
screen,html.Screen,2_1_1_1_49,2022-04-28T10:33:55.356Z,,,,,,,,,,,,,,,,,54,,,,,,,,,,,,,,213.6930000000866,,response,,,,100,,,,,,,Space,keypress(Space),,,,,,,,-- --- ---- --- ------ ----- ------- ---- -- --- ------- --<br>------- ---------- ------ -- ----- -- ----- -- ---- ------<br>--- ----- --- --- ------ -------- ----- --- ------ ----- --<br>----- ----- ---------- --- --- ------ ------ ---- -- ------<br>------- --- ------ ----- --- ---- without -- ---- --- --<br>------- ------,178997.8999999999,178997.6000000001,178767.253,178781.1000000001,178783.907,179000.521,,49,without
screen,html.Screen,2_1_1_1_50,2022-04-28T10:33:55.752Z,,,,,,,,,,,,,,,,,54,,,,,,,,,,,,,,392.5790000000852,,response,,,,100,,,,,,,Space,keypress(Space),,,,,,,,-- --- ---- --- ------ ----- ------- ---- -- --- ------- --<br>------- ---------- ------ -- ----- -- ----- -- ---- ------<br>--- ----- --- --- ------ -------- ----- --- ------ ----- --<br>----- ----- ---------- --- --- ------ ------ ---- -- ------<br>------- --- ------ ----- --- ---- ------- an ---- --- --<br>------- ------,179393.5,179393.1000000001,178983.846,178998.1000000001,179000.521,179400.435,,50,an
screen,html.Screen,2_1_1_1_51,2022-04-28T10:33:56.023Z,,,,,,,,,,,,,,,,,54,,,,,,,,,,,,,,263.86499999981606,,response,,,,100,,,,,,,Space,keypress(Space),,,,,,,,-- --- ---- --- ------ ----- ------- ---- -- --- ------- --<br>------- ---------- ------ -- ----- -- ----- -- ---- ------<br>--- ----- --- --- ------ -------- ----- --- ------ ----- --<br>----- ----- ---------- --- --- ------ ------ ---- -- ------<br>------- --- ------ ----- --- ---- ------- -- easy --- --<br>------- ------,179664.69999999972,179664.2999999998,179383.701,179393.6000000001,179400.435,179666.93,,51,easy
screen,html.Screen,2_1_1_1_52,2022-04-28T10:33:56.309Z,,,,,,,,,,,,,,,,,54,,,,,,,,,,,,,,283.570000000007,,response,,,,100,,,,,,,Space,keypress(Space),,,,,,,,-- --- ---- --- ------ ----- ------- ---- -- --- ------- --<br>------- ---------- ------ -- ----- -- ----- -- ---- ------<br>--- ----- --- --- ------ -------- ----- --- ------ ----- --<br>----- ----- ---------- --- --- ------ ------ ---- -- ------<br>------- --- ------ ----- --- ---- ------- -- ---- way --<br>------- ------,179951.1000000001,179950.5,179650.29,179664.7999999998,179666.93,179966.875,,52,way
screen,html.Screen,2_1_1_1_53,2022-04-28T10:33:56.578Z,,,,,,,,,,,,,,,,,54,,,,,,,,,,,,,,252.42499999981374,,response,,,,100,,,,,,,Space,keypress(Space),,,,,,,,-- --- ---- --- ------ ----- ------- ---- -- --- ------- --<br>------- ---------- ------ -- ----- -- ----- -- ---- ------<br>--- ----- --- --- ------ -------- ----- --- ------ ----- --<br>----- ----- ---------- --- --- ------ ------ ---- -- ------<br>------- --- ------ ----- --- ---- ------- -- ---- --- of<br>------- ------,180219.69999999972,180219.2999999998,179950.186,179951.19999999972,179966.875,180233.464,,53,of
screen,html.Screen,2_1_1_1_54,2022-04-28T10:33:56.881Z,,,,,,,,,,,,,,,,,54,,,,,,,,,,,,,,288.6360000000859,,response,,,,100,,,,,,,Space,keypress(Space),,,,,,,,-- --- ---- --- ------ ----- ------- ---- -- --- ------- --<br>------- ---------- ------ -- ----- -- ----- -- ---- ------<br>--- ----- --- --- ------ -------- ----- --- ------ ----- --<br>----- ----- ---------- --- --- ------ ------ ---- -- ------<br>------- --- ------ ----- --- ---- ------- -- ---- --- --<br>raising ------,180522.69999999972,180522.1000000001,180216.756,180219.7999999998,180233.464,180533.372,,54,raising
screen,html.Screen,2_1_1_1_55,2022-04-28T10:33:57.434Z,,,,,,,,,,,,,,,,,54,,,,,,,,,,,,,,542.0279999999038,,response,,,,100,,,,,,,Space,keypress(Space),,,,,,,,-- --- ---- --- ------ ----- ------- ---- -- --- ------- --<br>------- ---------- ------ -- ----- -- ----- -- ---- ------<br>--- ----- --- --- ------ -------- ----- --- ------ ----- --<br>----- ----- ---------- --- --- ------ ------ ---- -- ------<br>------- --- ------ ----- --- ---- ------- -- ---- --- --<br>------- money.,181075.7999999998,181075.3999999999,180516.664,180522.69999999972,180533.372,181083.195,,55,money.
Item 100,flow.Loop,2_1_1_1,2022-04-28T10:33:57.434Z,,,,,,,,,,,,,,,,,,,,,,,,,,,,,,,22534.55099999992,,completion,,,,,D,,,,,,,,,,,silence,,,,,181075.8999999999,181075.3999999999,158524.165,158524.8999999999,158540.849,181083.195,,,
Question 1,html.Screen,2_1_1_2,2022-04-28T10:33:59.736Z,,,,,,,,,,,,,,,,,,,,,,,,,,,,true,TRUE,,2293.905000000086,,response,,,,100,D,,,,,,TRUE,click #choice-1,,,,silence,,,,,183377.7999999998,183377.1000000001,181066.465,181076,181083.195,183382.34,,,
Question 2,html.Screen,2_1_1_3,2022-04-28T10:34:01.704Z,,,,,,,,,,,,,,,,,,,,,,,,,,,,true,FALSE,,1962.6600000000035,,response,,,,100,D,,,,,,FALSE,click #choice-2,,,,silence,,,,,185345.8999999999,185345,183365.699,183377.7999999998,183382.34,185348.376,,,
Item 100,flow.Sequence,2_1_1,2022-04-28T10:34:01.704Z,,,,,,,,,,,,,,,,,,,,,,,,,,,,,,,36800.763999999996,,completion,,,,,,,,,,,,,,,,,,,,,185346,185345,148527.561,148530.2999999998,148544.236,185348.376,,,
End of Practice,html.Page,2_1_2,2022-04-28T10:34:04.681Z,,,,,,,,,,,,,,,,,,,,,,,,,,,,,,,2973.6240000000107,,form submission,,,,,,,,,,,,,,,,,,,,,188322.19999999972,188322,185331.708,185346,185348.376,188330.772,,,
Practice,flow.Sequence,2_1,2022-04-28T10:34:04.681Z,,,,,,,,,,,,,,,,,,,,,,,,,,,,,,,84595.845,,completion,,,,,,,,,,,,,,,,,,,,,188322.3999999999,188322,103709.473,103712.79999999981,103726.155,188330.772,,,
Trap_instruction,html.Page,2_2_0,2022-04-28T10:34:07.809Z,,,,,,,,,,,,,,,,,,,,,,,,,,,,,,,3120.0279999998165,,form submission,,,,,,,,,,,,,,,,,,,,,191451.1000000001,191450.7999999998,188314.034,188322.5,188330.772,191462.946,,,
trap_trial,html.Screen,2_2_1,2022-04-28T10:34:11.273Z,,,,,,,,,,,,,,,,,,,,,,,,,,,,true,1,,3451.0540000000037,,response,,,,,,,,,,,1,click #choice-1,,,,,,,,,194914.69999999972,194914,191446.276,191451.1000000001,191462.946,194928.446,,,
end of trap trial,html.Page,2_2_2,2022-04-28T10:34:12.842Z,,,,,,,,,,,,,,,,,,,,,,,,,,,,,,,1555.4539999999106,,form submission,,,,,,,,,,,,,,,,,,,,,196484,196483.8999999999,194911.802,194914.8999999999,194928.446,196494.577,,,
Trap 1,flow.Sequence,2_2,2022-04-28T10:34:12.843Z,,,,,,,,,,,,,,,,,,,,,,,,,,,,,,,8153.12799999991,,completion,,,,,,,,,,,,,,,,,,,,,196484.1000000001,196483.8999999999,188314.034,188322.3999999999,188330.772,196494.577,,,
Standby,html.Page,2_3_0,2022-04-28T10:34:20.834Z,,,,,,,,,,,,,,,,,,,,,,,,,,,,,,,7997.292000000016,,timeout,,,,,,,,,,,,,,,,,,,,,204475.7999999998,204475.171,196477.912,196484.2999999998,196494.577,204491.869,,,
Holding screen,html.Screen,2_3_1_0_0,2022-04-28T10:34:27.832Z,,,,,,,,,,,,,,,,,,,,,,,,,,,,,,,6997.655999999988,,timeout,,,,,,,,,,,,,,,,,,,,,211473.2999999998,211472.816,204475.171,204475.8999999999,204491.869,211489.525,,,
screen,html.Screen,2_3_1_0_1_0,2022-04-28T10:34:29.194Z,,,,,,,,,,,,,,,,,40,,,,,,,,,,,,,,1345.9750000000058,,response,,,,9,D,,,,,,Space,keypress(Space),,,,speech,,,,Police -- ------- ---- ---- ---- - -------- ----- --- --<br>----- ----- ------ -- ---- -- --- - ---- -- - ----- -----<br>------ ---- ------ ---- - -------- ------- -- --- --------<br>-------- ----------- ---- ------ ---- ------ ---- --- ---<br>-------- --- -----,212836.19999999972,212835.5,211472.816,211473.3999999999,211489.525,212839.027,,0,Police
screen,html.Screen,2_3_1_0_1_1,2022-04-28T10:34:29.652Z,,,,,,,,,,,,,,,,,40,,,,,,,,,,,,,,453.872999999905,,response,,,,9,D,,,,,,Space,keypress(Space),,,,speech,,,,------ in ------- ---- ---- ---- - -------- ----- --- --<br>----- ----- ------ -- ---- -- --- - ---- -- - ----- -----<br>------ ---- ------ ---- - -------- ------- -- --- --------<br>-------- ----------- ---- ------ ---- ------ ---- --- ---<br>-------- --- -----,213293.5,213292.8999999999,212822.327,212836.19999999972,212839.027,213305.53,,1,in
screen,html.Screen,2_3_1_0_1_2,2022-04-28T10:34:29.999Z,,,,,,,,,,,,,,,,,40,,,,,,,,,,,,,,334.5700000000943,,response,,,,9,D,,,,,,Space,keypress(Space),,,,speech,,,,------ -- Georgia ---- ---- ---- - -------- ----- --- --<br>----- ----- ------ -- ---- -- --- - ---- -- - ----- -----<br>------ ---- ------ ---- - -------- ------- -- --- --------<br>-------- ----------- ---- ------ ---- ------ ---- --- ---<br>-------- --- -----,213640.6000000001,213640.1000000001,213288.824,213293.5,213305.53,213672.077,,2,Georgia
screen,html.Screen,2_3_1_0_1_3,2022-04-28T10:34:30.354Z,,,,,,,,,,,,,,,,,40,,,,,,,,,,,,,,322.82299999991665,,response,,,,9,D,,,,,,Space,keypress(Space),,,,speech,,,,------ -- ------- have ---- ---- - -------- ----- --- --<br>----- ----- ------ -- ---- -- --- - ---- -- - ----- -----<br>------ ---- ------ ---- - -------- ------- -- --- --------<br>-------- ----------- ---- ------ ---- ------ ---- --- ---<br>-------- --- -----,213995.5,213994.8999999999,213655.351,213640.6000000001,213672.077,214005.344,,3,have
screen,html.Screen,2_3_1_0_1_4,2022-04-28T10:34:30.813Z,,,,,,,,,,,,,,,,,40,,,,,,,,,,,,,,448.555999999895,,response,,,,9,D,,,,,,Space,keypress(Space),,,,speech,,,,------ -- ------- ---- shut ---- - -------- ----- --- --<br>----- ----- ------ -- ---- -- --- - ---- -- - ----- -----<br>------ ---- ------ ---- - -------- ------- -- --- --------<br>-------- ----------- ---- ------ ---- ------ ---- --- ---<br>-------- --- -----,214454.6000000001,214453.8999999999,213988.57,213995.6000000001,214005.344,214471.799,,4,shut
screen,html.Screen,2_3_1_0_1_5,2022-04-28T10:34:31.142Z,,,,,,,,,,,,,,,,,40,,,,,,,,,,,,,,311.40099999972153,,response,,,,9,D,,,,,,Space,keypress(Space),,,,speech,,,,------ -- ------- ---- ---- down - -------- ----- --- --<br>----- ----- ------ -- ---- -- --- - ---- -- - ----- -----<br>------ ---- ------ ---- - -------- ------- -- --- --------<br>-------- ----------- ---- ------ ---- ------ ---- --- ---<br>-------- --- -----,214783.7999999998,214783.19999999972,214455.099,214454.69999999972,214471.799,214788.344,,5,down
screen,html.Screen,2_3_1_0_1_6,2022-04-28T10:34:31.693Z,,,,,,,,,,,,,,,,,40,,,,,,,,,,,,,,545.3559999997087,,response,,,,9,D,,,,,,Space,keypress(Space),,,,speech,,,,------ -- ------- ---- ---- ---- a -------- ----- --- --<br>----- ----- ------ -- ---- -- --- - ---- -- - ----- -----<br>------ ---- ------ ---- - -------- ------- -- --- --------<br>-------- ----------- ---- ------ ---- ------ ---- --- ---<br>-------- --- -----,215334.2999999998,215333.69999999972,214771.671,214783.7999999998,214788.344,215338.147,,6,a
screen,html.Screen,2_3_1_0_1_7,2022-04-28T10:34:32.294Z,,,,,,,,,,,,,,,,,40,,,,,,,,,,,,,,597.1529999998165,,response,,,,9,D,,,,,,Space,keypress(Space),,,,speech,,,,------ -- ------- ---- ---- ---- - lemonade ----- --- --<br>----- ----- ------ -- ---- -- --- - ---- -- - ----- -----<br>------ ---- ------ ---- - -------- ------- -- --- --------<br>-------- ----------- ---- ------ ---- ------ ---- --- ---<br>-------- --- -----,215935.69999999972,215935.2999999998,215321.529,215334.3999999999,215338.147,215937.918,,7,lemonade
screen,html.Screen,2_3_1_0_1_8,2022-04-28T10:34:32.807Z,,,,,,,,,,,,,,,,,40,,,,,,,,,,,,,,509.98199999990175,,response,,,,9,D,,,,,,Space,keypress(Space),,,,speech,,,,------ -- ------- ---- ---- ---- - -------- stand --- --<br>----- ----- ------ -- ---- -- --- - ---- -- - ----- -----<br>------ ---- ------ ---- - -------- ------- -- --- --------<br>-------- ----------- ---- ------ ---- ------ ---- --- ---<br>-------- --- -----,216448.3999999999,216447.8999999999,215921.255,215935.7999999998,215937.918,216454.479,,8,stand
screen,html.Screen,2_3_1_0_1_9,2022-04-28T10:34:33.230Z,,,,,,,,,,,,,,,,,40,,,,,,,,,,,,,,416.62100000010105,,response,,,,9,D,,,,,,Space,keypress(Space),,,,speech,,,,------ -- ------- ---- ---- ---- - -------- ----- run --<br>----- ----- ------ -- ---- -- --- - ---- -- - ----- -----<br>------ ---- ------ ---- - -------- ------- -- --- --------<br>-------- ----------- ---- ------ ---- ------ ---- --- ---<br>-------- --- -----,216871.69999999972,216871.1000000001,216437.758,216448.5,216454.479,216887.687,,9,run
screen,html.Screen,2_3_1_0_1_10,2022-04-28T10:34:33.571Z,,,,,,,,,,,,,,,,,40,,,,,,,,,,,,,,324.6129999998084,,response,,,,9,D,,,,,,Space,keypress(Space),,,,speech,,,,------ -- ------- ---- ---- ---- - -------- ----- --- by<br>----- ----- ------ -- ---- -- --- - ---- -- - ----- -----<br>------ ---- ------ ---- - -------- ------- -- --- --------<br>-------- ----------- ---- ------ ---- ------ ---- --- ---<br>-------- --- -----,217212.8999999999,217212.2999999998,216870.992,216871.69999999972,216887.687,217220.861,,10,by
screen,html.Screen,2_3_1_0_1_11,2022-04-28T10:34:34.144Z,,,,,,,,,,,,,,,,,40,,,,,,,,,,,,,,564.4389999998093,,response,,,,9,D,,,,,,Space,keypress(Space),,,,speech,,,,------ -- ------- ---- ---- ---- - -------- ----- --- --<br>three ----- ------ -- ---- -- --- - ---- -- - ----- -----<br>------ ---- ------ ---- - -------- ------- -- --- --------<br>-------- ----------- ---- ------ ---- ------ ---- --- ---<br>-------- --- -----,217785.7999999998,217785.2999999998,217204.139,217213,217220.861,217787.305,,11,three
screen,html.Screen,2_3_1_0_1_12,2022-04-28T10:34:34.605Z,,,,,,,,,,,,,,,,,40,,,,,,,,,,,,,,458.2950000001001,,response,,,,9,D,,,,,,Space,keypress(Space),,,,speech,,,,------ -- ------- ---- ---- ---- - -------- ----- --- --<br>----- girls ------ -- ---- -- --- - ---- -- - ----- -----<br>------ ---- ------ ---- - -------- ------- -- --- --------<br>-------- ----------- ---- ------ ---- ------ ---- --- ---<br>-------- --- -----,218246.19999999972,218245.6000000001,217770.625,217785.8999999999,217787.305,218253.846,,12,girls
screen,html.Screen,2_3_1_0_1_13,2022-04-28T10:34:34.986Z,,,,,,,,,,,,,,,,,40,,,,,,,,,,,,,,372.7540000001027,,response,,,,9,D,,,,,,Space,keypress(Space),,,,speech,,,,------ -- ------- ---- ---- ---- - -------- ----- --- --<br>----- ----- trying -- ---- -- --- - ---- -- - ----- -----<br>------ ---- ------ ---- - -------- ------- -- --- --------<br>-------- ----------- ---- ------ ---- ------ ---- --- ---<br>-------- --- -----,218627.2999999998,218626.6000000001,218237.169,218246.2999999998,218253.846,218637.073,,13,trying
screen,html.Screen,2_3_1_0_1_14,2022-04-28T10:34:35.309Z,,,,,,,,,,,,,,,,,40,,,,,,,,,,,,,,313.12699999971665,,response,,,,9,D,,,,,,Space,keypress(Space),,,,speech,,,,------ -- ------- ---- ---- ---- - -------- ----- --- --<br>----- ----- ------ to ---- -- --- - ---- -- - ----- -----<br>------ ---- ------ ---- - -------- ------- -- --- --------<br>-------- ----------- ---- ------ ---- ------ ---- --- ---<br>-------- --- -----,218950.69999999972,218950.19999999972,218620.351,218627.2999999998,218637.073,218953.572,,14,to
screen,html.Screen,2_3_1_0_1_15,2022-04-28T10:34:35.662Z,,,,,,,,,,,,,,,,,40,,,,,,,,,,,,,,349.42800000001444,,response,,,,9,D,,,,,,Space,keypress(Space),,,,speech,,,,------ -- ------- ---- ---- ---- - -------- ----- --- --<br>----- ----- ------ -- save -- --- - ---- -- - ----- -----<br>------ ---- ------ ---- - -------- ------- -- --- --------<br>-------- ----------- ---- ------ ---- ------ ---- --- ---<br>-------- --- -----,219303.6000000001,219303,218936.907,218950.7999999998,218953.572,219320.209,,15,save
screen,html.Screen,2_3_1_0_1_16,2022-04-28T10:34:36.025Z,,,,,,,,,,,,,,,,,40,,,,,,,,,,,,,,346.39100000009057,,response,,,,9,D,,,,,,Space,keypress(Space),,,,speech,,,,------ -- ------- ---- ---- ---- - -------- ----- --- --<br>----- ----- ------ -- ---- up --- - ---- -- - ----- -----<br>------ ---- ------ ---- - -------- ------- -- --- --------<br>-------- ----------- ---- ------ ---- ------ ---- --- ---<br>-------- --- -----,219667,219666.6000000001,219303.464,219303.6000000001,219320.209,219669.994,,16,up
screen,html.Screen,2_3_1_0_1_17,2022-04-28T10:34:36.310Z,,,,,,,,,,,,,,,,,40,,,,,,,,,,,,,,281.3059999998077,,response,,,,9,D,,,,,,Space,keypress(Space),,,,speech,,,,------ -- ------- ---- ---- ---- - -------- ----- --- --<br>----- ----- ------ -- ---- -- for - ---- -- - ----- -----<br>------ ---- ------ ---- - -------- ------- -- --- --------<br>-------- ----------- ---- ------ ---- ------ ---- --- ---<br>-------- --- -----,219951.7999999998,219951.2999999998,219653.363,219667.1000000001,219669.994,219953.259,,17,for
screen,html.Screen,2_3_1_0_1_18,2022-04-28T10:34:36.604Z,,,,,,,,,,,,,,,,,40,,,,,,,,,,,,,,292.14099999991595,,response,,,,9,D,,,,,,Space,keypress(Space),,,,speech,,,,------ -- ------- ---- ---- ---- - -------- ----- --- --<br>----- ----- ------ -- ---- -- --- a ---- -- - ----- -----<br>------ ---- ------ ---- - -------- ------- -- --- --------<br>-------- ----------- ---- ------ ---- ------ ---- --- ---<br>-------- --- -----,220245.7999999998,220245.3999999999,219936.572,219951.8999999999,219953.259,220253.195,,18,a
screen,html.Screen,2_3_1_0_1_19,2022-04-28T10:34:37.027Z,,,,,,,,,,,,,,,,,40,,,,,,,,,,,,,,415.304999999993,,response,,,,9,D,,,,,,Space,keypress(Space),,,,speech,,,,------ -- ------- ---- ---- ---- - -------- ----- --- --<br>----- ----- ------ -- ---- -- --- - trip -- - ----- -----<br>------ ---- ------ ---- - -------- ------- -- --- --------<br>-------- ----------- ---- ------ ---- ------ ---- --- ---<br>-------- --- -----,220669.1000000001,220668.5,220236.471,220245.8999999999,220253.195,220686.346,,19,trip
screen,html.Screen,2_3_1_0_1_20,2022-04-28T10:34:37.375Z,,,,,,,,,,,,,,,,,40,,,,,,,,,,,,,,329.5539999999164,,response,,,,9,D,,,,,,Space,keypress(Space),,,,speech,,,,------ -- ------- ---- ---- ---- - -------- ----- --- --<br>----- ----- ------ -- ---- -- --- - ---- to - ----- -----<br>------ ---- ------ ---- - -------- ------- -- --- --------<br>-------- ----------- ---- ------ ---- ------ ---- --- ---<br>-------- --- -----,221016.3999999999,221015.8999999999,220652.999,220669.1000000001,220686.346,221019.468,,20,to
screen,html.Screen,2_3_1_0_1_21,2022-04-28T10:34:37.703Z,,,,,,,,,,,,,,,,,40,,,,,,,,,,,,,,324.0320000000065,,response,,,,9,D,,,,,,Space,keypress(Space),,,,speech,,,,------ -- ------- ---- ---- ---- - -------- ----- --- --<br>----- ----- ------ -- ---- -- --- - ---- -- a ----- -----<br>------ ---- ------ ---- - -------- ------- -- --- --------<br>-------- ----------- ---- ------ ---- ------ ---- --- ---<br>-------- --- -----,221344.19999999972,221343.5,221002.882,221016.5,221019.468,221352.771,,21,a
screen,html.Screen,2_3_1_0_1_22,2022-04-28T10:34:38.036Z,,,,,,,,,,,,,,,,,40,,,,,,,,,,,,,,324.5289999998058,,response,,,,9,D,,,,,,Space,keypress(Space),,,,speech,,,,------ -- ------- ---- ---- ---- - -------- ----- --- --<br>----- ----- ------ -- ---- -- --- - ---- -- - water -----<br>------ ---- ------ ---- - -------- ------- -- --- --------<br>-------- ----------- ---- ------ ---- ------ ---- --- ---<br>-------- --- -----,221677.7999999998,221677.2999999998,221336.105,221344.3999999999,221352.771,221686.024,,22,water
screen,html.Screen,2_3_1_0_1_23,2022-04-28T10:34:38.438Z,,,,,,,,,,,,,,,,,40,,,,,,,,,,,,,,393.27599999980885,,response,,,,9,D,,,,,,Space,keypress(Space),,,,speech,,,,"------ -- ------- ---- ---- ---- - -------- ----- --- --<br>----- ----- ------ -- ---- -- --- - ---- -- - ----- park,<br>------ ---- ------ ---- - -------- ------- -- --- --------<br>-------- ----------- ---- ------ ---- ------ ---- --- ---<br>-------- --- -----",222079.69999999972,222079.2999999998,221669.316,221677.8999999999,221686.024,222085.877,,23,"park,"
screen,html.Screen,2_3_1_0_1_24,2022-04-28T10:34:38.884Z,,,,,,,,,,,,,,,,,40,,,,,,,,,,,,,,439.0229999998992,,response,,,,9,D,,,,,,Space,keypress(Space),,,,speech,,,,------ -- ------- ---- ---- ---- - -------- ----- --- --<br>----- ----- ------ -- ---- -- --- - ---- -- - ----- -----<br>saying ---- ------ ---- - -------- ------- -- --- --------<br>-------- ----------- ---- ------ ---- ------ ---- --- ---<br>-------- --- -----,222525.6000000001,222524.8999999999,222069.174,222079.7999999998,222085.877,222535.72,,24,saying
screen,html.Screen,2_3_1_0_1_25,2022-04-28T10:34:39.254Z,,,,,,,,,,,,,,,,,40,,,,,,,,,,,,,,359.47999999971944,,response,,,,9,D,,,,,,Space,keypress(Space),,,,speech,,,,------ -- ------- ---- ---- ---- - -------- ----- --- --<br>----- ----- ------ -- ---- -- --- - ---- -- - ----- -----<br>------ they ------ ---- - -------- ------- -- --- --------<br>-------- ----------- ---- ------ ---- ------ ---- --- ---<br>-------- --- -----,222895.7999999998,222895.19999999972,222519.02,222525.69999999972,222535.72,222902.288,,25,they
screen,html.Screen,2_3_1_0_1_26,2022-04-28T10:34:39.567Z,,,,,,,,,,,,,,,,,40,,,,,,,,,,,,,,306.41199999972014,,response,,,,9,D,,,,,,Space,keypress(Space),,,,speech,,,,------ -- ------- ---- ---- ---- - -------- ----- --- --<br>----- ----- ------ -- ---- -- --- - ---- -- - ----- -----<br>------ ---- didn't ---- - -------- ------- -- --- --------<br>-------- ----------- ---- ------ ---- ------ ---- --- ---<br>-------- --- -----,223209.1000000001,223208.69999999972,222885.572,222895.7999999998,222902.288,223218.859,,26,didn't
screen,html.Screen,2_3_1_0_1_27,2022-04-28T10:34:39.833Z,,,,,,,,,,,,,,,,,40,,,,,,,,,,,,,,255.04099999991013,,response,,,,9,D,,,,,,Space,keypress(Space),,,,speech,,,,------ -- ------- ---- ---- ---- - -------- ----- --- --<br>----- ----- ------ -- ---- -- --- - ---- -- - ----- -----<br>------ ---- ------ have - -------- ------- -- --- --------<br>-------- ----------- ---- ------ ---- ------ ---- --- ---<br>-------- --- -----,223474.3999999999,223473.8999999999,223202.131,223209.19999999972,223218.859,223485.413,,27,have
screen,html.Screen,2_3_1_0_1_28,2022-04-28T10:34:40.213Z,,,,,,,,,,,,,,,,,40,,,,,,,,,,,,,,368.28699999972014,,response,,,,9,D,,,,,,Space,keypress(Space),,,,speech,,,,------ -- ------- ---- ---- ---- - -------- ----- --- --<br>----- ----- ------ -- ---- -- --- - ---- -- - ----- -----<br>------ ---- ------ ---- a -------- ------- -- --- --------<br>-------- ----------- ---- ------ ---- ------ ---- --- ---<br>-------- --- -----,223854.19999999972,223853.69999999972,223468.718,223474.5,223485.413,223868.609,,28,a
screen,html.Screen,2_3_1_0_1_29,2022-04-28T10:34:40.505Z,,,,,,,,,,,,,,,,,40,,,,,,,,,,,,,,277.09099999972386,,response,,,,9,D,,,,,,Space,keypress(Space),,,,speech,,,,------ -- ------- ---- ---- ---- - -------- ----- --- --<br>----- ----- ------ -- ---- -- --- - ---- -- - ----- -----<br>------ ---- ------ ---- - business ------- -- --- --------<br>-------- ----------- ---- ------ ---- ------ ---- --- ---<br>-------- --- -----,224146.2999999998,224145.69999999972,223851.906,223854.2999999998,223868.609,224151.853,,29,business
screen,html.Screen,2_3_1_0_1_30,2022-04-28T10:34:40.815Z,,,,,,,,,,,,,,,,,40,,,,,,,,,,,,,,303.8469999997178,,response,,,,9,D,,,,,,Space,keypress(Space),,,,speech,,,,------ -- ------- ---- ---- ---- - -------- ----- --- --<br>----- ----- ------ -- ---- -- --- - ---- -- - ----- -----<br>------ ---- ------ ---- - -------- license -- --- --------<br>-------- ----------- ---- ------ ---- ------ ---- --- ---<br>-------- --- -----,224456.2999999998,224455.69999999972,224135.15,224146.2999999998,224151.853,224468.406,,30,license
screen,html.Screen,2_3_1_0_1_31,2022-04-28T10:34:41.108Z,,,,,,,,,,,,,,,,,40,,,,,,,,,,,,,,280.5940000000119,,response,,,,9,D,,,,,,Space,keypress(Space),,,,speech,,,,------ -- ------- ---- ---- ---- - -------- ----- --- --<br>----- ----- ------ -- ---- -- --- - ---- -- - ----- -----<br>------ ---- ------ ---- - -------- ------- or --- --------<br>-------- ----------- ---- ------ ---- ------ ---- --- ---<br>-------- --- -----,224749.6000000001,224749,224451.731,224456.2999999998,224468.406,224751.548,,31,or
screen,html.Screen,2_3_1_0_1_32,2022-04-28T10:34:41.400Z,,,,,,,,,,,,,,,,,40,,,,,,,,,,,,,,289.75199999980396,,response,,,,9,D,,,,,,Space,keypress(Space),,,,speech,,,,------ -- ------- ---- ---- ---- - -------- ----- --- --<br>----- ----- ------ -- ---- -- --- - ---- -- - ----- -----<br>------ ---- ------ ---- - -------- ------- -- the --------<br>-------- ----------- ---- ------ ---- ------ ---- --- ---<br>-------- --- -----,225041.8999999999,225041.2999999998,224734.935,224749.6000000001,224751.548,225051.535,,32,the
screen,html.Screen,2_3_1_0_1_33,2022-04-28T10:34:41.710Z,,,,,,,,,,,,,,,,,40,,,,,,,,,,,,,,299.6649999997171,,response,,,,9,D,,,,,,Space,keypress(Space),,,,speech,,,,------ -- ------- ---- ---- ---- - -------- ----- --- --<br>----- ----- ------ -- ---- -- --- - ---- -- - ----- -----<br>------ ---- ------ ---- - -------- ------- -- --- required<br>-------- ----------- ---- ------ ---- ------ ---- --- ---<br>-------- --- -----,225351.6000000001,225351.19999999972,225034.823,225041.8999999999,225051.535,225368.096,,33,required
screen,html.Screen,2_3_1_0_1_34,2022-04-28T10:34:41.990Z,,,,,,,,,,,,,,,,,40,,,,,,,,,,,,,,263.10399999973015,,response,,,,9,D,,,,,,Space,keypress(Space),,,,speech,,,,------ -- ------- ---- ---- ---- - -------- ----- --- --<br>----- ----- ------ -- ---- -- --- - ---- -- - ----- -----<br>------ ---- ------ ---- - -------- ------- -- --- --------<br>permits. ----------- ---- ------ ---- ------ ---- --- ---<br>-------- --- -----,225631.69999999972,225631.19999999972,225351.381,225351.7999999998,225368.096,225634.652,,34,permits.
screen,html.Screen,2_3_1_0_1_35,2022-04-28T10:34:42.281Z,,,,,,,,,,,,,,,,,40,,,,,,,,,,,,,,287.54799999971874,,response,,,,9,D,,,,,,Space,keypress(Space),,,,speech,,,,------ -- ------- ---- ---- ---- - -------- ----- --- --<br>----- ----- ------ -- ---- -- --- - ---- -- - ----- -----<br>------ ---- ------ ---- - -------- ------- -- --- --------<br>-------- Morningstar ---- ------ ---- ------ ---- --- ---<br>-------- --- -----,225922.7999999998,225922.19999999972,225617.979,225631.69999999972,225634.652,225934.587,,35,Morningstar
screen,html.Screen,2_3_1_0_1_36,2022-04-28T10:34:42.817Z,,,,,,,,,,,,,,,,,40,,,,,,,,,,,,,,523.0130000000936,,response,,,,9,D,,,,,,Space,keypress(Space),,,,speech,,,,------ -- ------- ---- ---- ---- - -------- ----- --- --<br>----- ----- ------ -- ---- -- --- - ---- -- - ----- -----<br>------ ---- ------ ---- - -------- ------- -- --- --------<br>-------- ----------- says ------ ---- ------ ---- --- ---<br>-------- --- -----,226458.19999999972,226457.6000000001,225917.872,225922.7999999998,225934.587,226467.714,,36,says
screen,html.Screen,2_3_1_0_1_37,2022-04-28T10:34:43.258Z,,,,,,,,,,,,,,,,,40,,,,,,,,,,,,,,431.0859999998065,,response,,,,9,D,,,,,,Space,keypress(Space),,,,speech,,,,------ -- ------- ---- ---- ---- - -------- ----- --- --<br>----- ----- ------ -- ---- -- --- - ---- -- - ----- -----<br>------ ---- ------ ---- - -------- ------- -- --- --------<br>-------- ----------- ---- police ---- ------ ---- --- ---<br>-------- --- -----,226899.19999999972,226898.7999999998,226451.04,226458.19999999972,226467.714,226900.867,,37,police
screen,html.Screen,2_3_1_0_1_38,2022-04-28T10:34:43.631Z,,,,,,,,,,,,,,,,,40,,,,,,,,,,,,,,371.23300000009476,,response,,,,9,D,,,,,,Space,keypress(Space),,,,speech,,,,------ -- ------- ---- ---- ---- - -------- ----- --- --<br>----- ----- ------ -- ---- -- --- - ---- -- - ----- -----<br>------ ---- ------ ---- - -------- ------- -- --- --------<br>-------- ----------- ---- ------ also ------ ---- --- ---<br>-------- --- -----,227272.5,227272.1000000001,226884.202,226899.2999999998,226900.867,227284.099,,38,also
screen,html.Screen,2_3_1_0_1_39,2022-04-28T10:34:43.966Z,,,,,,,,,,,,,,,,,40,,,,,,,,,,,,,,322.6009999997332,,response,,,,9,D,,,,,,Space,keypress(Space),,,,speech,,,,------ -- ------- ---- ---- ---- - -------- ----- --- --<br>----- ----- ------ -- ---- -- --- - ---- -- - ----- -----<br>------ ---- ------ ---- - -------- ------- -- --- --------<br>-------- ----------- ---- ------ ---- didn't ---- --- ---<br>-------- --- -----,227607.19999999972,227606.69999999972,227267.406,227272.6000000001,227284.099,227617.345,,39,didn't
screen,html.Screen,2_3_1_0_1_40,2022-04-28T10:34:44.457Z,,,,,,,,,,,,,,,,,40,,,,,,,,,,,,,,480.45499999981257,,response,,,,9,D,,,,,,Space,keypress(Space),,,,speech,,,,------ -- ------- ---- ---- ---- - -------- ----- --- --<br>----- ----- ------ -- ---- -- --- - ---- -- - ----- -----<br>------ ---- ------ ---- - -------- ------- -- --- --------<br>-------- ----------- ---- ------ ---- ------ know --- ---<br>-------- --- -----,228098.3999999999,228097.7999999998,227600.638,227607.19999999972,227617.345,228117.158,,40,know
screen,html.Screen,2_3_1_0_1_41,2022-04-28T10:34:44.874Z,,,,,,,,,,,,,,,,,40,,,,,,,,,,,,,,398.1419999998179,,response,,,,9,D,,,,,,Space,keypress(Space),,,,speech,,,,------ -- ------- ---- ---- ---- - -------- ----- --- --<br>----- ----- ------ -- ---- -- --- - ---- -- - ----- -----<br>------ ---- ------ ---- - -------- ------- -- --- --------<br>-------- ----------- ---- ------ ---- ------ ---- how ---<br>-------- --- -----,228515.69999999972,228515.2999999998,228083.787,228098.5,228117.158,228516.938,,41,how
screen,html.Screen,2_3_1_0_1_42,2022-04-28T10:34:45.306Z,,,,,,,,,,,,,,,,,40,,,,,,,,,,,,,,429.8619999998191,,response,,,,9,D,,,,,,Space,keypress(Space),,,,speech,,,,------ -- ------- ---- ---- ---- - -------- ----- --- --<br>----- ----- ------ -- ---- -- --- - ---- -- - ----- -----<br>------ ---- ------ ---- - -------- ------- -- --- --------<br>-------- ----------- ---- ------ ---- ------ ---- --- the<br>-------- --- -----,228947.2999999998,228946.7999999998,228500.327,228515.7999999998,228516.938,228950.185,,42,the
screen,html.Screen,2_3_1_0_1_43,2022-04-28T10:34:45.682Z,,,,,,,,,,,,,,,,,40,,,,,,,,,,,,,,372.91500000009546,,response,,,,9,D,,,,,,Space,keypress(Space),,,,speech,,,,------ -- ------- ---- ---- ---- - -------- ----- --- --<br>----- ----- ------ -- ---- -- --- - ---- -- - ----- -----<br>------ ---- ------ ---- - -------- ------- -- --- --------<br>-------- ----------- ---- ------ ---- ------ ---- --- ---<br>lemonade --- -----,229323.69999999972,229323.1000000001,228933.512,228947.3999999999,228950.185,229333.41,,43,lemonade
screen,html.Screen,2_3_1_0_1_44,2022-04-28T10:34:46.021Z,,,,,,,,,,,,,,,,,40,,,,,,,,,,,,,,328.38999999981024,,response,,,,9,D,,,,,,Space,keypress(Space),,,,speech,,,,------ -- ------- ---- ---- ---- - -------- ----- --- --<br>----- ----- ------ -- ---- -- --- - ---- -- - ----- -----<br>------ ---- ------ ---- - -------- ------- -- --- --------<br>-------- ----------- ---- ------ ---- ------ ---- --- ---<br>-------- was -----,229662.19999999972,229661.7999999998,229316.736,229323.7999999998,229333.41,229666.587,,44,was
screen,html.Screen,2_3_1_0_1_45,2022-04-28T10:34:46.468Z,,,,,,,,,,,,,,,,,40,,,,,,,,,,,,,,442.5130000000936,,response,,,,9,D,,,,,,Space,keypress(Space),,,,speech,,,,------ -- ------- ---- ---- ---- - -------- ----- --- --<br>----- ----- ------ -- ---- -- --- - ---- -- - ----- -----<br>------ ---- ------ ---- - -------- ------- -- --- --------<br>-------- ----------- ---- ------ ---- ------ ---- --- ---<br>-------- --- made.,230109.69999999972,230109.1000000001,229649.931,229662.3999999999,229666.587,230116.391,,45,made.
Item 9,flow.Loop,2_3_1_0_1,2022-04-28T10:34:46.468Z,,,,,,,,,,,,,,,,,,,,,,,,,,,,,,,18619.5750000001,,completion,,,,,,,,,,,,,,,,,,,,,230109.7999999998,230109.1000000001,211472.816,211473.3999999999,211489.525,230116.391,,,
Question 1,html.Screen,2_3_1_0_2,2022-04-28T10:34:49.374Z,,,,,,,,,,,,,,,,,,,,,,,,,,,,true,FALSE,,2898.8089999997173,,response,,,,9,D,,,,,,FALSE,click #choice-2,,,,speech,,,,,233016,233015.19999999972,230099.777,230109.7999999998,230116.391,233032.151,,,
Question 2,html.Screen,2_3_1_0_3,2022-04-28T10:34:58.287Z,,,,,,,,,,,,,,,,,,,,,,,,,,,,true,FALSE,,8895.748999999894,,response,,,,9,D,,,,,,FALSE,click #choice-2,,,,speech,,,,,241928.6000000001,241927.8999999999,233015.477,233016.1000000001,233032.151,241964.064,,,
