sender,sender_type,sender_id,timestamp,meta,,Blues,Classical,Country,Dance,Electronic,Folk,Gospel,Hip-Hop,Jazz,Latin,Musical/Film,New-age,Pop,Prolific_id,Provo_ID,R&B,Rap,Reggae,Religious,Rock,Soul,Swing,Traditional,age,artist_name,correct,correctResponse,distraction,duration,education,ended_on,familiarity,gender,headphone_check_performance,item,list,music_frequency,offensiveness,pleasantness,position_correct,preference,response,response_action,snippet_file,song_name,song_rating,sound,stimulus_1,stimulus_2,stimulus_3,text,time_commit,time_end,time_render,time_run,time_show,time_switch,url,word,word_ID
Prolific ID,html.Form,0,2022-04-25T13:23:56.054Z,"{""labjs_version"":""20.2.2"",""labjs_build"":{""flavor"":""production"",""commit"":""a25486e0c714a0ae2ce03ff94b7bb6896854dcfa""},""location"":""https://run.pavlovia.org/mvasilev/prolific3_music_a/"",""userAgent"":""Mozilla/5.0 (Windows NT 10.0; Win64; x64; rv:99.0) Gecko/20100101 Firefox/99.0"",""platform"":""Win32"",""language"":""en-GB"",""locale"":""en-GB"",""timeZone"":""Europe/London"",""timezoneOffset"":-60,""screen_width"":2560,""screen_height"":1440,""scroll_width"":2560,""scroll_height"":1239,""window_innerWidth"":2560,""window_innerHeight"":1287,""devicePixelRatio"":1}",,,,,,,,,,,,,,,578a060882f7f90001ee801e,,,,,,,,,,,,,,,3088.040000000001,,form submission,,,,,,,,,,,,,,,,,,,,,21539,21538,18441.88,18442,18449.96,21538,{},,
Introduction,html.Screen,1_0,2022-04-25T13:24:00.346Z,,,,,,,,,,,,,,,,,,,,,,,,,,,,,,,4289,,response,,,,,,,,,,,continue,click button,,,,,,,,,25831,25827,21535.52,21539,21538,25830.42,,,
Volume calibration,html.Screen,1_1,2022-04-25T13:24:23.305Z,,,,,,,,,,,,,,,,,,,,,,,,,,,,,,,22949.58,,response,,,,,,,,,,,continue,click button,,,,,,,,,48790,48780,25829.9,25831,25830.42,48790.4,,,
Task instructions,html.Screen,1_2,2022-04-25T13:24:30.303Z,,,,,,,,,,,,,,,,,,,,,,,,,,,,,,,6989.5999999999985,,response,,,,,,,,,,,continue,click button,,,,,,,,,55788,55780,48789.36,48790,48790.4,55787.46,,,
Sounds,html.Screen,1_3_0_0,2022-04-25T13:24:34.550Z,,,,,,,,,,,,,,,,,,,,,,,,,,,,,,,4250.739999999998,,timeout,,,,,,,,,2,,,,,,,,I,S,O,,60035,60034.04,55787.2,55788,55787.46,60038.2,,,
Judgement,html.Screen,1_3_0_1,2022-04-25T13:24:36.005Z,,,,,,,,,,,,,,,,,,,,,,,,,,,,true,2,,1444.800000000003,,response,,,,,,,,,2,,2,click #choice-2,,,,,I,S,O,,61491,61483,60034.04,60036,60038.2,61492.62,,,
Trial,flow.Sequence,1_3_0,2022-04-25T13:24:36.006Z,,,,,,,,,,,,,,,,,,,,,,,,,,,,,,,5695.540000000001,,completion,,,,,,,,,2,,,,,,,,I,S,O,,61491,61483,55787.2,55788,55787.46,61492.62,,,
Sounds,html.Screen,1_3_1_0,2022-04-25T13:24:40.256Z,,,,,,,,,,,,,,,,,,,,,,,,,,,,,,,4250.739999999998,,timeout,,,,,,,,,3,,,,,,,,I,O,S,,65741,65739.2,61489.76,61492,61492.62,65743.36,,,
Judgement,html.Screen,1_3_1_1,2022-04-25T13:24:40.900Z,,,,,,,,,,,,,,,,,,,,,,,,,,,,true,3,,629.6399999999994,,response,,,,,,,,,3,,3,click #choice-3,,,,,I,O,S,,66385,66373,65739.2,65741,65743.36,66385.14,,,
Trial,flow.Sequence,1_3_1,2022-04-25T13:24:40.900Z,,,,,,,,,,,,,,,,,,,,,,,,,,,,,,,4880.379999999997,,completion,,,,,,,,,3,,,,,,,,I,O,S,,66385,66373,61489.76,61492,61492.62,66385.14,,,
Sounds,html.Screen,1_3_2_0,2022-04-25T13:24:45.149Z,,,,,,,,,,,,,,,,,,,,,,,,,,,,,,,4250.740000000005,,timeout,,,,,,,,,1,,,,,,,,S,I,O,,70634,70631.72,66384.32,66386,66385.14,70635.88,,,
Judgement,html.Screen,1_3_2_1,2022-04-25T13:24:46.142Z,,,,,,,,,,,,,,,,,,,,,,,,,,,,true,1,,987.1199999999953,,response,,,,,,,,,1,,1,click #choice-1,,,,,S,I,O,,71628,71623,70631.72,70635,70635.88,71629.4,,,
Trial,flow.Sequence,1_3_2,2022-04-25T13:24:46.143Z,,,,,,,,,,,,,,,,,,,,,,,,,,,,,,,5237.860000000001,,completion,,,,,,,,,1,,,,,,,,S,I,O,,71628,71623,66384.32,66386,66385.14,71629.4,,,
Sounds,html.Screen,1_3_3_0,2022-04-25T13:24:50.392Z,,,,,,,,,,,,,,,,,,,,,,,,,,,,,,,4250.760000000009,,timeout,,,,,,,,,3,,,,,,,,O,I,S,,75877,75875.98,71626.94,71629,71629.4,75880.16,,,
Judgement,html.Screen,1_3_3_1,2022-04-25T13:24:50.935Z,,,,,,,,,,,,,,,,,,,,,,,,,,,,true,3,,524.8399999999965,,response,,,,,,,,,3,,3,click #choice-3,,,,,O,I,S,,76420,76405,75875.98,75878,75880.16,76421.92,,,
Trial,flow.Sequence,1_3_3,2022-04-25T13:24:50.935Z,,,,,,,,,,,,,,,,,,,,,,,,,,,,,,,4775.600000000006,,completion,,,,,,,,,3,,,,,,,,O,I,S,,76420,76405,71626.94,71629,71629.4,76421.92,,,
Sounds,html.Screen,1_3_4_0,2022-04-25T13:24:55.184Z,,,,,,,,,,,,,,,,,,,,,,,,,,,,,,,4250.740000000005,,timeout,,,,,,,,,2,,,,,,,,O,S,I,,80669,80668.48,76419.38,76420,76421.92,80672.66,,,
Judgement,html.Screen,1_3_4_1,2022-04-25T13:24:55.788Z,,,,,,,,,,,,,,,,,,,,,,,,,,,,true,2,,591.3399999999965,,response,,,,,,,,,2,,2,click #choice-2,,,,,O,S,I,,81273,81264,80668.48,80670,80672.66,81276.92,,,
Trial,flow.Sequence,1_3_4,2022-04-25T13:24:55.788Z,,,,,,,,,,,,,,,,,,,,,,,,,,,,,,,4842.080000000002,,completion,,,,,,,,,2,,,,,,,,O,S,I,,81274,81264,76419.38,76420,76421.92,81276.92,,,
Sounds,html.Screen,1_3_5_0,2022-04-25T13:25:00.040Z,,,,,,,,,,,,,,,,,,,,,,,,,,,,,,,4250.759999999995,,timeout,,,,,,,,,1,,,,,,,,S,O,I,,85525,85523.5,81273.04,81274,81276.92,85527.68,,,
Judgement,html.Screen,1_3_5_1,2022-04-25T13:25:00.863Z,,,,,,,,,,,,,,,,,,,,,,,,,,,,true,1,,814.320000000007,,response,,,,,,,,,1,,1,click #choice-1,,,,,S,O,I,,86349,86342,85523.5,85525,85527.68,86352.82,,,
Trial,flow.Sequence,1_3_5,2022-04-25T13:25:00.863Z,,,,,,,,,,,,,,,,,,,,,,,,,,,,,,,5065.080000000002,,completion,,,,,,,,,1,,,,,,,,S,O,I,,86349,86342,81273.04,81274,81276.92,86352.82,,,
Task,flow.Loop,1_3,2022-04-25T13:25:00.864Z,,,,,,,,,,,,,,,,,,,,,,,,,,,,,,,30554.54,,completion,,,1,,,,,,,,,,,,,,,,,,86349,86342,55787.2,55788,55787.46,86352.82,,,
Trap,html.Screen,1_4,2022-04-25T13:25:00.869Z,,,,,,,,,,,,,,,,,,,,,,,,,,,,,,,NaN,,skipped,,,,,,,,,,,,,,,,,,,,,86354,86342,,86353,,86352.82,,,
Thanks,html.Screen,1_5,2022-04-25T13:25:05.100Z,,,,,,,,,,,,,,,,,,,,,,,,,,,,,,,4224.179999999993,,response,,,,,,,,,,,continue,click button,,,,,,,,,90585,90577,86347.54,86354,86352.82,93362.38,,,
Headphone screening,flow.Sequence,1,2022-04-25T13:25:05.100Z,,,,,,,,,,,,,,,,,,,,,,,,,,,,,,,69039,,completion,,,,,,,,,,,,,,,,,,,,,90585,90577,21535.52,21539,21538,93362.38,,,
Instructions,html.Page,2_0,2022-04-25T13:25:20.986Z,,,,,,,,,,,,,,,,,,,,,,,,,,,,,,,13107.619999999995,,form submission,,,,,,,,,,,,,,,,,,,,,106470,106470,93358.22,93359,93362.38,106469.78,,,
Holding screen,html.Screen,2_1_0_0,2022-04-25T13:25:30.984Z,,,,,,,,,,,,,,,,,,,,,,,,,,,,,,,10001.759999999995,,timeout,,,,,,,,,,,,,,,,,,,,,116469,116467.36,106468.84,106470,106469.78,116471.54,,,
screen,html.Screen,2_1_0_1_0,2022-04-25T13:25:31.865Z,,,,,,,,,,,,,,,,,53,,,,,,,,,,,,,,871.4600000000064,,response,,,,99,,,,,,,Space,keypress(Space),,,,,,,,When -- ----- -- ------ - ------- --- ----------<br>------------- ------ ------ ---- ---- ------- ----- -- ----<br>-------- ------- -- ---------- --- - --- ----- ----- ----<br>---- --- --- ----- --- ---- ---- ------- ----- ---- -------<br>--- --- -- ----- -- --- ---- -- --- ---- -- ------ ------<br>--- ----- -- ----,117350,117343,116467.36,116469,116471.54,117350.86,,0,When
screen,html.Screen,2_1_0_1_1,2022-04-25T13:25:32.451Z,,,,,,,,,,,,,,,,,53,,,,,,,,,,,,,,569.1399999999994,,response,,,,99,,,,,,,Space,keypress(Space),,,,,,,,---- it ----- -- ------ - ------- --- ----------<br>------------- ------ ------ ---- ---- ------- ----- -- ----<br>-------- ------- -- ---------- --- - --- ----- ----- ----<br>---- --- --- ----- --- ---- ---- ------- ----- ---- -------<br>--- --- -- ----- -- --- ---- -- --- ---- -- ------ ------<br>--- ----- -- ----,117937,117920,117350.16,117350,117350.86,117938.46,,1,it
screen,html.Screen,2_1_0_1_2,2022-04-25T13:25:32.862Z,,,,,,,,,,,,,,,,,53,,,,,,,,,,,,,,403.5399999999936,,response,,,,99,,,,,,,Space,keypress(Space),,,,,,,,---- -- comes -- ------ - ------- --- ----------<br>------------- ------ ------ ---- ---- ------- ----- -- ----<br>-------- ------- -- ---------- --- - --- ----- ----- ----<br>---- --- --- ----- --- ---- ---- ------- ----- ---- -------<br>--- --- -- ----- -- --- ---- -- --- ---- -- ------ ------<br>--- ----- -- ----,118348,118342,117936.7,117937,117938.46,118351.02,,2,comes
screen,html.Screen,2_1_0_1_3,2022-04-25T13:25:33.257Z,,,,,,,,,,,,,,,,,53,,,,,,,,,,,,,,381.9799999999959,,response,,,,99,,,,,,,Space,keypress(Space),,,,,,,,---- -- ----- to ------ - ------- --- ----------<br>------------- ------ ------ ---- ---- ------- ----- -- ----<br>-------- ------- -- ---------- --- - --- ----- ----- ----<br>---- --- --- ----- --- ---- ---- ------- ----- ---- -------<br>--- --- -- ----- -- --- ---- -- --- ---- -- ------ ------<br>--- ----- -- ----,118743,118733,118347.82,118348,118351.02,118742.76,,3,to
screen,html.Screen,2_1_0_1_4,2022-04-25T13:25:33.714Z,,,,,,,,,,,,,,,,,53,,,,,,,,,,,,,,443.24000000000524,,response,,,,99,,,,,,,Space,keypress(Space),,,,,,,,---- -- ----- -- having - ------- --- ----------<br>------------- ------ ------ ---- ---- ------- ----- -- ----<br>-------- ------- -- ---------- --- - --- ----- ----- ----<br>---- --- --- ----- --- ---- ---- ------- ----- ---- -------<br>--- --- -- ----- -- --- ---- -- --- ---- -- ------ ------<br>--- ----- -- ----,119200,119186,118742.6,118743,118742.76,119201.18,,4,having
screen,html.Screen,2_1_0_1_5,2022-04-25T13:25:34.056Z,,,,,,,,,,,,,,,,,53,,,,,,,,,,,,,,328.820000000007,,response,,,,99,,,,,,,Space,keypress(Space),,,,,,,,---- -- ----- -- ------ a ------- --- ----------<br>------------- ------ ------ ---- ---- ------- ----- -- ----<br>-------- ------- -- ---------- --- - --- ----- ----- ----<br>---- --- --- ----- --- ---- ---- ------- ----- ---- -------<br>--- --- -- ----- -- --- ---- -- --- ---- -- ------ ------<br>--- ----- -- ----,119541,119530,119199.7,119200,119201.18,119542.9,,5,a
screen,html.Screen,2_1_0_1_6,2022-04-25T13:25:34.541Z,,,,,,,,,,,,,,,,,53,,,,,,,,,,,,,,472.1000000000058,,response,,,,99,,,,,,,Space,keypress(Space),,,,,,,,---- -- ----- -- ------ - lasting --- ----------<br>------------- ------ ------ ---- ---- ------- ----- -- ----<br>-------- ------- -- ---------- --- - --- ----- ----- ----<br>---- --- --- ----- --- ---- ---- ------- ----- ---- -------<br>--- --- -- ----- -- --- ---- -- --- ---- -- ------ ------<br>--- ----- -- ----,120027,120015,119541.7,119542,119542.9,120030.48,,6,lasting
screen,html.Screen,2_1_0_1_7,2022-04-25T13:25:35.050Z,,,,,,,,,,,,,,,,,53,,,,,,,,,,,,,,499.5200000000041,,response,,,,99,,,,,,,Space,keypress(Space),,,,,,,,---- -- ----- -- ------ - ------- and ----------<br>------------- ------ ------ ---- ---- ------- ----- -- ----<br>-------- ------- -- ---------- --- - --- ----- ----- ----<br>---- --- --- ----- --- ---- ---- ------- ----- ---- -------<br>--- --- -- ----- -- --- ---- -- --- ---- -- ------ ------<br>--- ----- -- ----,120535,120530,120026.44,120027,120030.48,120538.92,,7,and
screen,html.Screen,2_1_0_1_8,2022-04-25T13:25:35.573Z,,,,,,,,,,,,,,,,,53,,,,,,,,,,,,,,507.08000000000175,,response,,,,99,,,,,,,Space,keypress(Space),,,,,,,,---- -- ----- -- ------ - ------- --- fulfilling<br>------------- ------ ------ ---- ---- ------- ----- -- ----<br>-------- ------- -- ---------- --- - --- ----- ----- ----<br>---- --- --- ----- --- ---- ---- ------- ----- ---- -------<br>--- --- -- ----- -- --- ---- -- --- ---- -- ------ ------<br>--- ----- -- ----,121058,121046,120535.52,120535,120538.92,121059.84,,8,fulfilling
screen,html.Screen,2_1_0_1_9,2022-04-25T13:25:36.537Z,,,,,,,,,,,,,,,,,53,,,,,,,,,,,,,,954.1600000000035,,response,,,,99,,,,,,,Space,keypress(Space),,,,,,,,"---- -- ----- -- ------ - ------- --- ----------<br>relationship, ------ ------ ---- ---- ------- ----- -- ----<br>-------- ------- -- ---------- --- - --- ----- ----- ----<br>---- --- --- ----- --- ---- ---- ------- ----- ---- -------<br>--- --- -- ----- -- --- ---- -- --- ---- -- ------ ------<br>--- ----- -- ----",122023,122014,121058.38,121058,121059.84,122026.68,,9,"relationship,"
screen,html.Screen,2_1_0_1_10,2022-04-25T13:25:37.119Z,,,,,,,,,,,,,,,,,53,,,,,,,,,,,,,,565.320000000007,,response,,,,99,,,,,,,Space,keypress(Space),,,,,,,,---- -- ----- -- ------ - ------- --- ----------<br>------------- common ------ ---- ---- ------- ----- -- ----<br>-------- ------- -- ---------- --- - --- ----- ----- ----<br>---- --- --- ----- --- ---- ---- ------- ----- ---- -------<br>--- --- -- ----- -- --- ---- -- --- ---- -- ------ ------<br>--- ----- -- ----,122605,122592,122022.66,122023,122026.68,122605.94,,10,common
screen,html.Screen,2_1_0_1_11,2022-04-25T13:25:37.564Z,,,,,,,,,,,,,,,,,53,,,,,,,,,,,,,,439.0599999999977,,response,,,,99,,,,,,,Space,keypress(Space),,,,,,,,---- -- ----- -- ------ - ------- --- ----------<br>------------- ------ wisdom ---- ---- ------- ----- -- ----<br>-------- ------- -- ---------- --- - --- ----- ----- ----<br>---- --- --- ----- --- ---- ---- ------- ----- ---- -------<br>--- --- -- ----- -- --- ---- -- --- ---- -- ------ ------<br>--- ----- -- ----,123050,123045,122604.62,122605,122605.94,123051.86,,11,wisdom
screen,html.Screen,2_1_0_1_12,2022-04-25T13:25:38.063Z,,,,,,,,,,,,,,,,,53,,,,,,,,,,,,,,493.1399999999994,,response,,,,99,,,,,,,Space,keypress(Space),,,,,,,,---- -- ----- -- ------ - ------- --- ----------<br>------------- ------ ------ says ---- ------- ----- -- ----<br>-------- ------- -- ---------- --- - --- ----- ----- ----<br>---- --- --- ----- --- ---- ---- ------- ----- ---- -------<br>--- --- -- ----- -- --- ---- -- --- ---- -- ------ ------<br>--- ----- -- ----,123548,123545,123049.56,123050,123051.86,123549.34,,12,says
screen,html.Screen,2_1_0_1_13,2022-04-25T13:25:38.517Z,,,,,,,,,,,,,,,,,53,,,,,,,,,,,,,,448.6600000000035,,response,,,,99,,,,,,,Space,keypress(Space),,,,,,,,---- -- ----- -- ------ - ------- --- ----------<br>------------- ------ ------ ---- that ------- ----- -- ----<br>-------- ------- -- ---------- --- - --- ----- ----- ----<br>---- --- --- ----- --- ---- ---- ------- ----- ---- -------<br>--- --- -- ----- -- --- ---- -- --- ---- -- ------ ------<br>--- ----- -- ----,124002,123998,123548.74,123549,123549.34,124003.58,,13,that
screen,html.Screen,2_1_0_1_14,2022-04-25T13:25:39.101Z,,,,,,,,,,,,,,,,,53,,,,,,,,,,,,,,573.4199999999983,,response,,,,99,,,,,,,Space,keypress(Space),,,,,,,,---- -- ----- -- ------ - ------- --- ----------<br>------------- ------ ------ ---- ---- feeling ----- -- ----<br>-------- ------- -- ---------- --- - --- ----- ----- ----<br>---- --- --- ----- --- ---- ---- ------- ----- ---- -------<br>--- --- -- ----- -- --- ---- -- --- ---- -- ------ ------<br>--- ----- -- ----,124587,124577,124002.44,124002,124003.58,124587.02,,14,feeling
screen,html.Screen,2_1_0_1_15,2022-04-25T13:25:39.692Z,,,,,,,,,,,,,,,,,53,,,,,,,,,,,,,,582.9799999999959,,response,,,,99,,,,,,,Space,keypress(Space),,,,,,,,---- -- ----- -- ------ - ------- --- ----------<br>------------- ------ ------ ---- ---- ------- close -- ----<br>-------- ------- -- ---------- --- - --- ----- ----- ----<br>---- --- --- ----- --- ---- ---- ------- ----- ---- -------<br>--- --- -- ----- -- --- ---- -- --- ---- -- ------ ------<br>--- ----- -- ----,125177,125170,124586.58,124587,124587.02,125178.78,,15,close
screen,html.Screen,2_1_0_1_16,2022-04-25T13:25:40.054Z,,,,,,,,,,,,,,,,,53,,,,,,,,,,,,,,351.22000000000116,,response,,,,99,,,,,,,Space,keypress(Space),,,,,,,,---- -- ----- -- ------ - ------- --- ----------<br>------------- ------ ------ ---- ---- ------- ----- to ----<br>-------- ------- -- ---------- --- - --- ----- ----- ----<br>---- --- --- ----- --- ---- ---- ------- ----- ---- -------<br>--- --- -- ----- -- --- ---- -- --- ---- -- ------ ------<br>--- ----- -- ----,125539,125530,125177.46,125177,125178.78,125541.36,,16,to
screen,html.Screen,2_1_0_1_17,2022-04-25T13:25:40.433Z,,,,,,,,,,,,,,,,,53,,,,,,,,,,,,,,363.6399999999994,,response,,,,99,,,,,,,Space,keypress(Space),,,,,,,,---- -- ----- -- ------ - ------- --- ----------<br>------------- ------ ------ ---- ---- ------- ----- -- your<br>-------- ------- -- ---------- --- - --- ----- ----- ----<br>---- --- --- ----- --- ---- ---- ------- ----- ---- -------<br>--- --- -- ----- -- --- ---- -- --- ---- -- ------ ------<br>--- ----- -- ----,125918,125905,125539.68,125539,125541.36,125920.58,,17,your
screen,html.Screen,2_1_0_1_18,2022-04-25T13:25:41.068Z,,,,,,,,,,,,,,,,,53,,,,,,,,,,,,,,624.4199999999983,,response,,,,99,,,,,,,Space,keypress(Space),,,,,,,,---- -- ----- -- ------ - ------- --- ----------<br>------------- ------ ------ ---- ---- ------- ----- -- ----<br>romantic ------- -- ---------- --- - --- ----- ----- ----<br>---- --- --- ----- --- ---- ---- ------- ----- ---- -------<br>--- --- -- ----- -- --- ---- -- --- ---- -- ------ ------<br>--- ----- -- ----,126553,126545,125918.42,125918,125920.58,126554.04,,18,romantic
screen,html.Screen,2_1_0_1_19,2022-04-25T13:25:41.748Z,,,,,,,,,,,,,,,,,53,,,,,,,,,,,,,,662.9600000000064,,response,,,,99,,,,,,,Space,keypress(Space),,,,,,,,---- -- ----- -- ------ - ------- --- ----------<br>------------- ------ ------ ---- ---- ------- ----- -- ----<br>-------- partner -- ---------- --- - --- ----- ----- ----<br>---- --- --- ----- --- ---- ---- ------- ----- ---- -------<br>--- --- -- ----- -- --- ---- -- --- ---- -- ------ ------<br>--- ----- -- ----,127234,127217,126553.52,126553,126554.04,127237.48,,19,partner
screen,html.Screen,2_1_0_1_20,2022-04-25T13:25:42.180Z,,,,,,,,,,,,,,,,,53,,,,,,,,,,,,,,417.5200000000041,,response,,,,99,,,,,,,Space,keypress(Space),,,,,,,,---- -- ----- -- ------ - ------- --- ----------<br>------------- ------ ------ ---- ---- ------- ----- -- ----<br>-------- ------- is ---------- --- - --- ----- ----- ----<br>---- --- --- ----- --- ---- ---- ------- ----- ---- -------<br>--- --- -- ----- -- --- ---- -- --- ---- -- ------ ------<br>--- ----- -- ----,127666,127655,127233.6,127234,127237.48,127666.72,,20,is
screen,html.Screen,2_1_0_1_21,2022-04-25T13:25:43.096Z,,,,,,,,,,,,,,,,,53,,,,,,,,,,,,,,910.2799999999988,,response,,,,99,,,,,,,Space,keypress(Space),,,,,,,,---- -- ----- -- ------ - ------- --- ----------<br>------------- ------ ------ ---- ---- ------- ----- -- ----<br>-------- ------- -- paramount. --- - --- ----- ----- ----<br>---- --- --- ----- --- ---- ---- ------- ----- ---- -------<br>--- --- -- ----- -- --- ---- -- --- ---- -- ------ ------<br>--- ----- -- ----,128582,128577,127665.48,127666,127666.72,128583.56,,21,paramount.
screen,html.Screen,2_1_0_1_22,2022-04-25T13:25:43.454Z,,,,,,,,,,,,,,,,,53,,,,,,,,,,,,,,353.4400000000023,,response,,,,99,,,,,,,Space,keypress(Space),,,,,,,,---- -- ----- -- ------ - ------- --- ----------<br>------------- ------ ------ ---- ---- ------- ----- -- ----<br>-------- ------- -- ---------- But - --- ----- ----- ----<br>---- --- --- ----- --- ---- ---- ------- ----- ---- -------<br>--- --- -- ----- -- --- ---- -- --- ---- -- ------ ------<br>--- ----- -- ----,128940,128937,128581.32,128582,128583.56,128941.94,,22,But
screen,html.Screen,2_1_0_1_23,2022-04-25T13:25:43.786Z,,,,,,,,,,,,,,,,,53,,,,,,,,,,,,,,322.0599999999977,,response,,,,99,,,,,,,Space,keypress(Space),,,,,,,,---- -- ----- -- ------ - ------- --- ----------<br>------------- ------ ------ ---- ---- ------- ----- -- ----<br>-------- ------- -- ---------- --- a --- ----- ----- ----<br>---- --- --- ----- --- ---- ---- ------- ----- ---- -------<br>--- --- -- ----- -- --- ---- -- --- ---- -- ------ ------<br>--- ----- -- ----,129271,129264,128939.78,128940,128941.94,129275.34,,23,a
screen,html.Screen,2_1_0_1_24,2022-04-25T13:25:44.229Z,,,,,,,,,,,,,,,,,53,,,,,,,,,,,,,,426.6600000000035,,response,,,,99,,,,,,,Space,keypress(Space),,,,,,,,---- -- ----- -- ------ - ------- --- ----------<br>------------- ------ ------ ---- ---- ------- ----- -- ----<br>-------- ------- -- ---------- --- - new ----- ----- ----<br>---- --- --- ----- --- ---- ---- ------- ----- ---- -------<br>--- --- -- ----- -- --- ---- -- --- ---- -- ------ ------<br>--- ----- -- ----,129714,129702,129271.48,129271,129275.34,129717.08,,24,new
screen,html.Screen,2_1_0_1_25,2022-04-25T13:25:44.732Z,,,,,,,,,,,,,,,,,53,,,,,,,,,,,,,,484.91999999999825,,response,,,,99,,,,,,,Space,keypress(Space),,,,,,,,---- -- ----- -- ------ - ------- --- ----------<br>------------- ------ ------ ---- ---- ------- ----- -- ----<br>-------- ------- -- ---------- --- - --- study ----- ----<br>---- --- --- ----- --- ---- ---- ------- ----- ---- -------<br>--- --- -- ----- -- --- ---- -- --- ---- -- ------ ------<br>--- ----- -- ----,130217,130202,129714.7,129714,129717.08,130221.34,,25,study
screen,html.Screen,2_1_0_1_26,2022-04-25T13:25:45.126Z,,,,,,,,,,,,,,,,,53,,,,,,,,,,,,,,386.6600000000035,,response,,,,99,,,,,,,Space,keypress(Space),,,,,,,,---- -- ----- -- ------ - ------- --- ----------<br>------------- ------ ------ ---- ---- ------- ----- -- ----<br>-------- ------- -- ---------- --- - --- ----- finds ----<br>---- --- --- ----- --- ---- ---- ------- ----- ---- -------<br>--- --- -- ----- -- --- ---- -- --- ---- -- ------ ------<br>--- ----- -- ----,130611,130608,130217.46,130217,130221.34,130613.08,,26,finds
screen,html.Screen,2_1_0_1_27,2022-04-25T13:25:45.523Z,,,,,,,,,,,,,,,,,53,,,,,,,,,,,,,,384.91999999999825,,response,,,,99,,,,,,,Space,keypress(Space),,,,,,,,---- -- ----- -- ------ - ------- --- ----------<br>------------- ------ ------ ---- ---- ------- ----- -- ----<br>-------- ------- -- ---------- --- - --- ----- ----- that<br>---- --- --- ----- --- ---- ---- ------- ----- ---- -------<br>--- --- -- ----- -- --- ---- -- --- ---- -- ------ ------<br>--- ----- -- ----,131008,130998,130611.62,130611,130613.08,131008.98,,27,that
screen,html.Screen,2_1_0_1_28,2022-04-25T13:25:45.919Z,,,,,,,,,,,,,,,,,53,,,,,,,,,,,,,,380.0200000000041,,response,,,,99,,,,,,,Space,keypress(Space),,,,,,,,---- -- ----- -- ------ - ------- --- ----------<br>------------- ------ ------ ---- ---- ------- ----- -- ----<br>-------- ------- -- ---------- --- - --- ----- ----- ----<br>it's --- --- ----- --- ---- ---- ------- ----- ---- -------<br>--- --- -- ----- -- --- ---- -- --- ---- -- ------ ------<br>--- ----- -- ----,131405,131389,131008.56,131008,131008.98,131409.04,,28,it's
screen,html.Screen,2_1_0_1_29,2022-04-25T13:25:46.429Z,,,,,,,,,,,,,,,,,53,,,,,,,,,,,,,,495.95999999999185,,response,,,,99,,,,,,,Space,keypress(Space),,,,,,,,---- -- ----- -- ------ - ------- --- ----------<br>------------- ------ ------ ---- ---- ------- ----- -- ----<br>-------- ------- -- ---------- --- - --- ----- ----- ----<br>---- not --- ----- --- ---- ---- ------- ----- ---- -------<br>--- --- -- ----- -- --- ---- -- --- ---- -- ------ ------<br>--- ----- -- ----,131915,131905,131405.52,131405,131409.04,131917.46,,29,not
screen,html.Screen,2_1_0_1_30,2022-04-25T13:25:46.805Z,,,,,,,,,,,,,,,,,53,,,,,,,,,,,,,,362.54000000000815,,response,,,,99,,,,,,,Space,keypress(Space),,,,,,,,---- -- ----- -- ------ - ------- --- ----------<br>------------- ------ ------ ---- ---- ------- ----- -- ----<br>-------- ------- -- ---------- --- - --- ----- ----- ----<br>---- --- how ----- --- ---- ---- ------- ----- ---- -------<br>--- --- -- ----- -- --- ---- -- --- ---- -- ------ ------<br>--- ----- -- ----,132290,132280,131914.54,131915,131917.46,132292.54,,30,how
screen,html.Screen,2_1_0_1_31,2022-04-25T13:25:47.211Z,,,,,,,,,,,,,,,,,53,,,,,,,,,,,,,,393.45999999999185,,response,,,,99,,,,,,,Space,keypress(Space),,,,,,,,---- -- ----- -- ------ - ------- --- ----------<br>------------- ------ ------ ---- ---- ------- ----- -- ----<br>-------- ------- -- ---------- --- - --- ----- ----- ----<br>---- --- --- close --- ---- ---- ------- ----- ---- -------<br>--- --- -- ----- -- --- ---- -- --- ---- -- ------ ------<br>--- ----- -- ----,132697,132686,132290.48,132290,132292.54,132696.78,,31,close
screen,html.Screen,2_1_0_1_32,2022-04-25T13:25:47.588Z,,,,,,,,,,,,,,,,,53,,,,,,,,,,,,,,364.22000000000116,,response,,,,99,,,,,,,Space,keypress(Space),,,,,,,,---- -- ----- -- ------ - ------- --- ----------<br>------------- ------ ------ ---- ---- ------- ----- -- ----<br>-------- ------- -- ---------- --- - --- ----- ----- ----<br>---- --- --- ----- you ---- ---- ------- ----- ---- -------<br>--- --- -- ----- -- --- ---- -- --- ---- -- ------ ------<br>--- ----- -- ----,133073,133061,132696.54,132697,132696.78,133076,,32,you
screen,html.Screen,2_1_0_1_33,2022-04-25T13:25:47.942Z,,,,,,,,,,,,,,,,,53,,,,,,,,,,,,,,344,,response,,,,99,,,,,,,Space,keypress(Space),,,,,,,,---- -- ----- -- ------ - ------- --- ----------<br>------------- ------ ------ ---- ---- ------- ----- -- ----<br>-------- ------- -- ---------- --- - --- ----- ----- ----<br>---- --- --- ----- --- feel ---- ------- ----- ---- -------<br>--- --- -- ----- -- --- ---- -- --- ---- -- ------ ------<br>--- ----- -- ----,133428,133420,133074.18,133074,133076,133430.24,,33,feel
screen,html.Screen,2_1_0_1_34,2022-04-25T13:25:48.351Z,,,,,,,,,,,,,,,,,53,,,,,,,,,,,,,,396.7600000000093,,response,,,,99,,,,,,,Space,keypress(Space),,,,,,,,---- -- ----- -- ------ - ------- --- ----------<br>------------- ------ ------ ---- ---- ------- ----- -- ----<br>-------- ------- -- ---------- --- - --- ----- ----- ----<br>---- --- --- ----- --- ---- that ------- ----- ---- -------<br>--- --- -- ----- -- --- ---- -- --- ---- -- ------ ------<br>--- ----- -- ----,133836,133827,133427.8,133428,133430.24,133838.64,,34,that
screen,html.Screen,2_1_0_1_35,2022-04-25T13:25:48.671Z,,,,,,,,,,,,,,,,,53,,,,,,,,,,,,,,300.35999999998603,,response,,,,99,,,,,,,Space,keypress(Space),,,,,,,,---- -- ----- -- ------ - ------- --- ----------<br>------------- ------ ------ ---- ---- ------- ----- -- ----<br>-------- ------- -- ---------- --- - --- ----- ----- ----<br>---- --- --- ----- --- ---- ---- matters ----- ---- -------<br>--- --- -- ----- -- --- ---- -- --- ---- -- ------ ------<br>--- ----- -- ----,134156,134139,133836.1,133836,133838.64,134159.52,,35,matters
screen,html.Screen,2_1_0_1_36,2022-04-25T13:25:49.623Z,,,,,,,,,,,,,,,,,53,,,,,,,,,,,,,,933.4800000000105,,response,,,,99,,,,,,,Space,keypress(Space),,,,,,,,"---- -- ----- -- ------ - ------- --- ----------<br>------------- ------ ------ ---- ---- ------- ----- -- ----<br>-------- ------- -- ---------- --- - --- ----- ----- ----<br>---- --- --- ----- --- ---- ---- ------- most, ---- -------<br>--- --- -- ----- -- --- ---- -- --- ---- -- ------ ------<br>--- ----- -- ----",135107,135093,134156.02,134156,134159.52,135109.7,,36,"most,"
screen,html.Screen,2_1_0_1_37,2022-04-25T13:25:50.203Z,,,,,,,,,,,,,,,,,53,,,,,,,,,,,,,,576.2999999999884,,response,,,,99,,,,,,,Space,keypress(Space),,,,,,,,---- -- ----- -- ------ - ------- --- ----------<br>------------- ------ ------ ---- ---- ------- ----- -- ----<br>-------- ------- -- ---------- --- - --- ----- ----- ----<br>---- --- --- ----- --- ---- ---- ------- ----- it's -------<br>--- --- -- ----- -- --- ---- -- --- ---- -- ------ ------<br>--- ----- -- ----,135689,135686,135107.86,135108,135109.7,135688.96,,37,it's
screen,html.Screen,2_1_0_1_38,2022-04-25T13:25:50.646Z,,,,,,,,,,,,,,,,,53,,,,,,,,,,,,,,434.04000000000815,,response,,,,99,,,,,,,Space,keypress(Space),,,,,,,,---- -- ----- -- ------ - ------- --- ----------<br>------------- ------ ------ ---- ---- ------- ----- -- ----<br>-------- ------- -- ---------- --- - --- ----- ----- ----<br>---- --- --- ----- --- ---- ---- ------- ----- ---- whether<br>--- --- -- ----- -- --- ---- -- --- ---- -- ------ ------<br>--- ----- -- ----,136131,136123,135688.82,135689,135688.96,136134.88,,38,whether
screen,html.Screen,2_1_0_1_39,2022-04-25T13:25:51.060Z,,,,,,,,,,,,,,,,,53,,,,,,,,,,,,,,396.11999999999534,,response,,,,99,,,,,,,Space,keypress(Space),,,,,,,,---- -- ----- -- ------ - ------- --- ----------<br>------------- ------ ------ ---- ---- ------- ----- -- ----<br>-------- ------- -- ---------- --- - --- ----- ----- ----<br>---- --- --- ----- --- ---- ---- ------- ----- ---- -------<br>you --- -- ----- -- --- ---- -- --- ---- -- ------ ------<br>--- ----- -- ----,136545,136531,136131.74,136132,136134.88,136547.44,,39,you
screen,html.Screen,2_1_0_1_40,2022-04-25T13:25:51.676Z,,,,,,,,,,,,,,,,,53,,,,,,,,,,,,,,607.5599999999977,,response,,,,99,,,,,,,Space,keypress(Space),,,,,,,,---- -- ----- -- ------ - ------- --- ----------<br>------------- ------ ------ ---- ---- ------- ----- -- ----<br>-------- ------- -- ---------- --- - --- ----- ----- ----<br>---- --- --- ----- --- ---- ---- ------- ----- ---- -------<br>--- are -- ----- -- --- ---- -- --- ---- -- ------ ------<br>--- ----- -- ----,137162,137155,136545.78,136546,136547.44,137164.22,,40,are
screen,html.Screen,2_1_0_1_41,2022-04-25T13:25:52.265Z,,,,,,,,,,,,,,,,,53,,,,,,,,,,,,,,583.7799999999988,,response,,,,99,,,,,,,Space,keypress(Space),,,,,,,,---- -- ----- -- ------ - ------- --- ----------<br>------------- ------ ------ ---- ---- ------- ----- -- ----<br>-------- ------- -- ---------- --- - --- ----- ----- ----<br>---- --- --- ----- --- ---- ---- ------- ----- ---- -------<br>--- --- as ----- -- --- ---- -- --- ---- -- ------ ------<br>--- ----- -- ----,137750,137748,137161.64,137162,137164.22,137751.82,,41,as
screen,html.Screen,2_1_0_1_42,2022-04-25T13:25:52.686Z,,,,,,,,,,,,,,,,,53,,,,,,,,,,,,,,403.179999999993,,response,,,,99,,,,,,,Space,keypress(Space),,,,,,,,---- -- ----- -- ------ - ------- --- ----------<br>------------- ------ ------ ---- ---- ------- ----- -- ----<br>-------- ------- -- ---------- --- - --- ----- ----- ----<br>---- --- --- ----- --- ---- ---- ------- ----- ---- -------<br>--- --- -- close -- --- ---- -- --- ---- -- ------ ------<br>--- ----- -- ----,138171,138155,137750.8,137750,137751.82,138172.74,,42,close
screen,html.Screen,2_1_0_1_43,2022-04-25T13:25:53.001Z,,,,,,,,,,,,,,,,,53,,,,,,,,,,,,,,310.2600000000093,,response,,,,99,,,,,,,Space,keypress(Space),,,,,,,,---- -- ----- -- ------ - ------- --- ----------<br>------------- ------ ------ ---- ---- ------- ----- -- ----<br>-------- ------- -- ---------- --- - --- ----- ----- ----<br>---- --- --- ----- --- ---- ---- ------- ----- ---- -------<br>--- --- -- ----- as --- ---- -- --- ---- -- ------ ------<br>--- ----- -- ----,138486,138483,138171.12,138171,138172.74,138489.46,,43,as
screen,html.Screen,2_1_0_1_44,2022-04-25T13:25:53.334Z,,,,,,,,,,,,,,,,,53,,,,,,,,,,,,,,321.54000000000815,,response,,,,99,,,,,,,Space,keypress(Space),,,,,,,,---- -- ----- -- ------ - ------- --- ----------<br>------------- ------ ------ ---- ---- ------- ----- -- ----<br>-------- ------- -- ---------- --- - --- ----- ----- ----<br>---- --- --- ----- --- ---- ---- ------- ----- ---- -------<br>--- --- -- ----- -- you ---- -- --- ---- -- ------ ------<br>--- ----- -- ----,138820,138811,138486.44,138486,138489.46,138822.84,,44,you
screen,html.Screen,2_1_0_1_45,2022-04-25T13:25:53.730Z,,,,,,,,,,,,,,,,,53,,,,,,,,,,,,,,379.1600000000035,,response,,,,99,,,,,,,Space,keypress(Space),,,,,,,,---- -- ----- -- ------ - ------- --- ----------<br>------------- ------ ------ ---- ---- ------- ----- -- ----<br>-------- ------- -- ---------- --- - --- ----- ----- ----<br>---- --- --- ----- --- ---- ---- ------- ----- ---- -------<br>--- --- -- ----- -- --- want -- --- ---- -- ------ ------<br>--- ----- -- ----,139216,139202,138819.94,138820,138822.84,139218.74,,45,want
screen,html.Screen,2_1_0_1_46,2022-04-25T13:25:54.208Z,,,,,,,,,,,,,,,,,53,,,,,,,,,,,,,,467.2600000000093,,response,,,,99,,,,,,,Space,keypress(Space),,,,,,,,---- -- ----- -- ------ - ------- --- ----------<br>------------- ------ ------ ---- ---- ------- ----- -- ----<br>-------- ------- -- ---------- --- - --- ----- ----- ----<br>---- --- --- ----- --- ---- ---- ------- ----- ---- -------<br>--- --- -- ----- -- --- ---- to --- ---- -- ------ ------<br>--- ----- -- ----,139693,139686,139216.08,139217,139218.74,139693.82,,46,to
screen,html.Screen,2_1_0_1_47,2022-04-25T13:25:54.932Z,,,,,,,,,,,,,,,,,53,,,,,,,,,,,,,,712.179999999993,,response,,,,99,,,,,,,Space,keypress(Space),,,,,,,,"---- -- ----- -- ------ - ------- --- ----------<br>------------- ------ ------ ---- ---- ------- ----- -- ----<br>-------- ------- -- ---------- --- - --- ----- ----- ----<br>---- --- --- ----- --- ---- ---- ------- ----- ---- -------<br>--- --- -- ----- -- --- ---- -- be, ---- -- ------ ------<br>--- ----- -- ----",140418,140406,139693.64,139693,139693.82,140418.96,,47,"be,"
screen,html.Screen,2_1_0_1_48,2022-04-25T13:25:55.272Z,,,,,,,,,,,,,,,,,53,,,,,,,,,,,,,,329.04000000000815,,response,,,,99,,,,,,,Space,keypress(Space),,,,,,,,---- -- ----- -- ------ - ------- --- ----------<br>------------- ------ ------ ---- ---- ------- ----- -- ----<br>-------- ------- -- ---------- --- - --- ----- ----- ----<br>---- --- --- ----- --- ---- ---- ------- ----- ---- -------<br>--- --- -- ----- -- --- ---- -- --- even -- ------ ------<br>--- ----- -- ----,140758,140748,140417.54,140418,140418.96,140760.68,,48,even
screen,html.Screen,2_1_0_1_49,2022-04-25T13:25:55.573Z,,,,,,,,,,,,,,,,,53,,,,,,,,,,,,,,284.320000000007,,response,,,,99,,,,,,,Space,keypress(Space),,,,,,,,---- -- ----- -- ------ - ------- --- ----------<br>------------- ------ ------ ---- ---- ------- ----- -- ----<br>-------- ------- -- ---------- --- - --- ----- ----- ----<br>---- --- --- ----- --- ---- ---- ------- ----- ---- -------<br>--- --- -- ----- -- --- ---- -- --- ---- if ------ ------<br>--- ----- -- ----,141058,141045,140757.58,140758,140760.68,141060.74,,49,if
screen,html.Screen,2_1_0_1_50,2022-04-25T13:25:56.119Z,,,,,,,,,,,,,,,,,53,,,,,,,,,,,,,,531.2600000000093,,response,,,,99,,,,,,,Space,keypress(Space),,,,,,,,---- -- ----- -- ------ - ------- --- ----------<br>------------- ------ ------ ---- ---- ------- ----- -- ----<br>-------- ------- -- ---------- --- - --- ----- ----- ----<br>---- --- --- ----- --- ---- ---- ------- ----- ---- -------<br>--- --- -- ----- -- --- ---- -- --- ---- -- that's ------<br>--- ----- -- ----,141604,141592,141058.4,141058,141060.74,141606.66,,50,that's
screen,html.Screen,2_1_0_1_51,2022-04-25T13:25:56.510Z,,,,,,,,,,,,,,,,,53,,,,,,,,,,,,,,376.3399999999965,,response,,,,99,,,,,,,Space,keypress(Space),,,,,,,,---- -- ----- -- ------ - ------- --- ----------<br>------------- ------ ------ ---- ---- ------- ----- -- ----<br>-------- ------- -- ---------- --- - --- ----- ----- ----<br>---- --- --- ----- --- ---- ---- ------- ----- ---- -------<br>--- --- -- ----- -- --- ---- -- --- ---- -- ------ really<br>--- ----- -- ----,141996,141983,141604.54,141604,141606.66,141998.4,,51,really
screen,html.Screen,2_1_0_1_52,2022-04-25T13:25:56.934Z,,,,,,,,,,,,,,,,,53,,,,,,,,,,,,,,406.6000000000058,,response,,,,99,,,,,,,Space,keypress(Space),,,,,,,,---- -- ----- -- ------ - ------- --- ----------<br>------------- ------ ------ ---- ---- ------- ----- -- ----<br>-------- ------- -- ---------- --- - --- ----- ----- ----<br>---- --- --- ----- --- ---- ---- ------- ----- ---- -------<br>--- --- -- ----- -- --- ---- -- --- ---- -- ------ ------<br>not ----- -- ----,142419,142405,141995.54,141996,141998.4,142423.48,,52,not
screen,html.Screen,2_1_0_1_53,2022-04-25T13:25:57.396Z,,,,,,,,,,,,,,,,,53,,,,,,,,,,,,,,449.5199999999895,,response,,,,99,,,,,,,Space,keypress(Space),,,,,,,,---- -- ----- -- ------ - ------- --- ----------<br>------------- ------ ------ ---- ---- ------- ----- -- ----<br>-------- ------- -- ---------- --- - --- ----- ----- ----<br>---- --- --- ----- --- ---- ---- ------- ----- ---- -------<br>--- --- -- ----- -- --- ---- -- --- ---- -- ------ ------<br>--- close -- ----,142881,142873,142419.64,142419,142423.48,142881.88,,53,close
screen,html.Screen,2_1_0_1_54,2022-04-25T13:25:57.673Z,,,,,,,,,,,,,,,,,53,,,,,,,,,,,,,,273.11999999999534,,response,,,,99,,,,,,,Space,keypress(Space),,,,,,,,---- -- ----- -- ------ - ------- --- ----------<br>------------- ------ ------ ---- ---- ------- ----- -- ----<br>-------- ------- -- ---------- --- - --- ----- ----- ----<br>---- --- --- ----- --- ---- ---- ------- ----- ---- -------<br>--- --- -- ----- -- --- ---- -- --- ---- -- ------ ------<br>--- ----- at ----,143159,143155,142881.48,142881,142881.88,143161.1,,54,at
screen,html.Screen,2_1_0_1_55,2022-04-25T13:25:59.998Z,,,,,,,,,,,,,,,,,53,,,,,,,,,,,,,,2305.899999999994,,response,,,,99,,,,,,,Space,keypress(Space),,,,,,,,---- -- ----- -- ------ - ------- --- ----------<br>------------- ------ ------ ---- ---- ------- ----- -- ----<br>-------- ------- -- ---------- --- - --- ----- ----- ----<br>---- --- --- ----- --- ---- ---- ------- ----- ---- -------<br>--- --- -- ----- -- --- ---- -- --- ---- -- ------ ------<br>--- ----- -- all.,145483,145467,143158.62,143159,143161.1,145486.52,,55,all.
Item 99,flow.Loop,2_1_0_1,2022-04-25T13:25:59.998Z,,,,,,,,,,,,,,,,,,,,,,,,,,,,,,,28995.460000000006,,completion,,,,,A,,,,,,,,,,,silence,,,,,145484,145467,116467.36,116469,116471.54,145486.52,,,
Question 1,html.Screen,2_1_0_2,2022-04-25T13:26:03.759Z,,,,,,,,,,,,,,,,,,,,,,,,,,,,true,FALSE,,3747.4800000000105,,response,,,,99,A,,,,,,FALSE,click #choice-2,,,,silence,,,,,149243,149234,145483.84,145484,145486.52,149245.5,,,
Question 2,html.Screen,2_1_0_3,2022-04-25T13:26:10.167Z,,,,,,,,,,,,,,,,,,,,,,,,,,,,true,TRUE,,6393.5,,response,,,,99,A,,,,,,TRUE,click #choice-1,,,,silence,,,,,155652,155639,149242.9,149244,149245.5,155654.96,,,
Item 99,flow.Sequence,2_1_0,2022-04-25T13:26:10.167Z,,,,,,,,,,,,,,,,,,,,,,,,,,,,,,,49169.22,,completion,,,,,,,,,,,,,,,,,,,,,155652,155639,106468.84,106470,106469.78,155654.96,,,
Holding screen,html.Screen,2_1_1_0,2022-04-25T13:26:20.166Z,,,,,,,,,,,,,,,,,,,,,,,,,,,,,,,9999.26000000001,,timeout,,,,,,,,,,,,,,,,,,,,,165651,165650.04,155651.28,155653,155654.96,165654.22,,,
screen,html.Screen,2_1_1_1_0,2022-04-25T13:26:21.008Z,,,,,,,,,,,,,,,,,54,,,,,,,,,,,,,,828.7799999999988,,response,,,,100,,,,,,,Space,keypress(Space),,,,,,,,At --- ---- --- ------ ----- ------- ---- -- --- ------- --<br>------- ---------- ------ -- ----- -- ----- -- ---- ------<br>--- ----- --- --- ------ -------- ----- --- ------ ----- --<br>----- ----- ---------- --- --- ------ ------ ---- -- ------<br>------- --- ------ ----- --- ---- ------- -- ---- --- --<br>------- ------,166494,166483,165650.04,165651,165654.22,166496.04,,0,At
screen,html.Screen,2_1_1_1_1,2022-04-25T13:26:21.725Z,,,,,,,,,,,,,,,,,54,,,,,,,,,,,,,,705.9599999999919,,response,,,,100,,,,,,,Space,keypress(Space),,,,,,,,-- the ---- --- ------ ----- ------- ---- -- --- ------- --<br>------- ---------- ------ -- ----- -- ----- -- ---- ------<br>--- ----- --- --- ------ -------- ----- --- ------ ----- --<br>----- ----- ---------- --- --- ------ ------ ---- -- ------<br>------- --- ------ ----- --- ---- ------- -- ---- --- --<br>------- ------,167210,167202,166493.56,166494,166496.04,167212.82,,1,the
screen,html.Screen,2_1_1_1_2,2022-04-25T13:26:22.250Z,,,,,,,,,,,,,,,,,54,,,,,,,,,,,,,,520.179999999993,,response,,,,100,,,,,,,Space,keypress(Space),,,,,,,,-- --- time --- ------ ----- ------- ---- -- --- ------- --<br>------- ---------- ------ -- ----- -- ----- -- ---- ------<br>--- ----- --- --- ------ -------- ----- --- ------ ----- --<br>----- ----- ---------- --- --- ------ ------ ---- -- ------<br>------- --- ------ ----- --- ---- ------- -- ---- --- --<br>------- ------,167735,167733,167210.7,167210,167212.82,167737.92,,2,time
screen,html.Screen,2_1_1_1_3,2022-04-25T13:26:22.617Z,,,,,,,,,,,,,,,,,54,,,,,,,,,,,,,,354.0799999999872,,response,,,,100,,,,,,,Space,keypress(Space),,,,,,,,-- --- ---- the ------ ----- ------- ---- -- --- ------- --<br>------- ---------- ------ -- ----- -- ----- -- ---- ------<br>--- ----- --- --- ------ -------- ----- --- ------ ----- --<br>----- ----- ---------- --- --- ------ ------ ---- -- ------<br>------- --- ------ ----- --- ---- ------- -- ---- --- --<br>------- ------,168103,168092,167735.48,167736,167737.92,168104.64,,3,the
screen,html.Screen,2_1_1_1_4,2022-04-25T13:26:23.180Z,,,,,,,,,,,,,,,,,54,,,,,,,,,,,,,,550.359999999986,,response,,,,100,,,,,,,Space,keypress(Space),,,,,,,,-- --- ---- --- French ----- ------- ---- -- --- ------- --<br>------- ---------- ------ -- ----- -- ----- -- ---- ------<br>--- ----- --- --- ------ -------- ----- --- ------ ----- --<br>----- ----- ---------- --- --- ------ ------ ---- -- ------<br>------- --- ------ ----- --- ---- ------- -- ---- --- --<br>------- ------,168665,168655,168102.52,168103,168104.64,168667.24,,4,French
screen,html.Screen,2_1_1_1_5,2022-04-25T13:26:23.748Z,,,,,,,,,,,,,,,,,54,,,,,,,,,,,,,,549.7600000000093,,response,,,,100,,,,,,,Space,keypress(Space),,,,,,,,-- --- ---- --- ------ crown ------- ---- -- --- ------- --<br>------- ---------- ------ -- ----- -- ----- -- ---- ------<br>--- ----- --- --- ------ -------- ----- --- ------ ----- --<br>----- ----- ---------- --- --- ------ ------ ---- -- ------<br>------- --- ------ ----- --- ---- ------- -- ---- --- --<br>------- ------,169233,169217,168665.4,168665,168667.24,169234,,5,crown
screen,html.Screen,2_1_1_1_6,2022-04-25T13:26:24.384Z,,,,,,,,,,,,,,,,,54,,,,,,,,,,,,,,624,,response,,,,100,,,,,,,Space,keypress(Space),,,,,,,,-- --- ---- --- ------ ----- secured ---- -- --- ------- --<br>------- ---------- ------ -- ----- -- ----- -- ---- ------<br>--- ----- --- --- ------ -------- ----- --- ------ ----- --<br>----- ----- ---------- --- --- ------ ------ ---- -- ------<br>------- --- ------ ----- --- ---- ------- -- ---- --- --<br>------- ------,169869,169858,169233.6,169233,169234,169871.62,,6,secured
screen,html.Screen,2_1_1_1_7,2022-04-25T13:26:24.844Z,,,,,,,,,,,,,,,,,54,,,,,,,,,,,,,,455.38000000000466,,response,,,,100,,,,,,,Space,keypress(Space),,,,,,,,-- --- ---- --- ------ ----- ------- much -- --- ------- --<br>------- ---------- ------ -- ----- -- ----- -- ---- ------<br>--- ----- --- --- ------ -------- ----- --- ------ ----- --<br>----- ----- ---------- --- --- ------ ------ ---- -- ------<br>------- --- ------ ----- --- ---- ------- -- ---- --- --<br>------- ------,170330,170327,169869.44,169869,169871.62,170330.04,,7,much
screen,html.Screen,2_1_1_1_8,2022-04-25T13:26:25.296Z,,,,,,,,,,,,,,,,,54,,,,,,,,,,,,,,449.95999999999185,,response,,,,100,,,,,,,Space,keypress(Space),,,,,,,,-- --- ---- --- ------ ----- ------- ---- of --- ------- --<br>------- ---------- ------ -- ----- -- ----- -- ---- ------<br>--- ----- --- --- ------ -------- ----- --- ------ ----- --<br>----- ----- ---------- --- --- ------ ------ ---- -- ------<br>------- --- ------ ----- --- ---- ------- -- ---- --- --<br>------- ------,170782,170780,170329.52,170330,170330.04,170784.28,,8,of
screen,html.Screen,2_1_1_1_9,2022-04-25T13:26:25.713Z,,,,,,,,,,,,,,,,,54,,,,,,,,,,,,,,401.72000000000116,,response,,,,100,,,,,,,Space,keypress(Space),,,,,,,,-- --- ---- --- ------ ----- ------- ---- -- its ------- --<br>------- ---------- ------ -- ----- -- ----- -- ---- ------<br>--- ----- --- --- ------ -------- ----- --- ------ ----- --<br>----- ----- ---------- --- --- ------ ------ ---- -- ------<br>------- --- ------ ----- --- ---- ------- -- ---- --- --<br>------- ------,171198,171186,170781.74,170782,170784.28,171201.02,,9,its
screen,html.Screen,2_1_1_1_10,2022-04-25T13:26:26.485Z,,,,,,,,,,,,,,,,,54,,,,,,,,,,,,,,765.9800000000105,,response,,,,100,,,,,,,Space,keypress(Space),,,,,,,,-- --- ---- --- ------ ----- ------- ---- -- --- revenue --<br>------- ---------- ------ -- ----- -- ----- -- ---- ------<br>--- ----- --- --- ------ -------- ----- --- ------ ----- --<br>----- ----- ---------- --- --- ------ ------ ---- -- ------<br>------- --- ------ ----- --- ---- ------- -- ---- --- --<br>------- ------,171970,171967,171198.42,171198,171201.02,171971.98,,10,revenue
screen,html.Screen,2_1_1_1_11,2022-04-25T13:26:26.894Z,,,,,,,,,,,,,,,,,54,,,,,,,,,,,,,,401.0199999999895,,response,,,,100,,,,,,,Space,keypress(Space),,,,,,,,-- --- ---- --- ------ ----- ------- ---- -- --- ------- by<br>------- ---------- ------ -- ----- -- ----- -- ---- ------<br>--- ----- --- --- ------ -------- ----- --- ------ ----- --<br>----- ----- ---------- --- --- ------ ------ ---- -- ------<br>------- --- ------ ----- --- ---- ------- -- ---- --- --<br>------- ------,172380,172373,171969.9,171970,171971.98,172380.4,,11,by
screen,html.Screen,2_1_1_1_12,2022-04-25T13:26:27.430Z,,,,,,,,,,,,,,,,,54,,,,,,,,,,,,,,524.6000000000058,,response,,,,100,,,,,,,Space,keypress(Space),,,,,,,,-- --- ---- --- ------ ----- ------- ---- -- --- ------- --<br>issuing ---------- ------ -- ----- -- ----- -- ---- ------<br>--- ----- --- --- ------ -------- ----- --- ------ ----- --<br>----- ----- ---------- --- --- ------ ------ ---- -- ------<br>------- --- ------ ----- --- ---- ------- -- ---- --- --<br>------- ------,172915,172905,172379.52,172380,172380.4,172917.98,,12,issuing
screen,html.Screen,2_1_1_1_13,2022-04-25T13:26:27.948Z,,,,,,,,,,,,,,,,,54,,,,,,,,,,,,,,502.0199999999895,,response,,,,100,,,,,,,Space,keypress(Space),,,,,,,,-- --- ---- --- ------ ----- ------- ---- -- --- ------- --<br>------- government ------ -- ----- -- ----- -- ---- ------<br>--- ----- --- --- ------ -------- ----- --- ------ ----- --<br>----- ----- ---------- --- --- ------ ------ ---- -- ------<br>------- --- ------ ----- --- ---- ------- -- ---- --- --<br>------- ------,173434,173420,172915.54,172915,172917.98,173434.74,,13,government
screen,html.Screen,2_1_1_1_14,2022-04-25T13:26:29.333Z,,,,,,,,,,,,,,,,,54,,,,,,,,,,,,,,1377.2600000000093,,response,,,,100,,,,,,,Space,keypress(Space),,,,,,,,-- --- ---- --- ------ ----- ------- ---- -- --- ------- --<br>------- ---------- bonds. -- ----- -- ----- -- ---- ------<br>--- ----- --- --- ------ -------- ----- --- ------ ----- --<br>----- ----- ---------- --- --- ------ ------ ---- -- ------<br>------- --- ------ ----- --- ---- ------- -- ---- --- --<br>------- ------,174818,174812,173433.42,173434,173434.74,174822.48,,14,bonds.
screen,html.Screen,2_1_1_1_15,2022-04-25T13:26:30.073Z,,,,,,,,,,,,,,,,,54,,,,,,,,,,,,,,722.5199999999895,,response,,,,100,,,,,,,Space,keypress(Space),,,,,,,,-- --- ---- --- ------ ----- ------- ---- -- --- ------- --<br>------- ---------- ------ In ----- -- ----- -- ---- ------<br>--- ----- --- --- ------ -------- ----- --- ------ ----- --<br>----- ----- ---------- --- --- ------ ------ ---- -- ------<br>------- --- ------ ----- --- ---- ------- -- ---- --- --<br>------- ------,175558,175545,174818.48,174818,174822.48,175560.12,,15,In
screen,html.Screen,2_1_1_1_16,2022-04-25T13:26:31.482Z,,,,,,,,,,,,,,,,,54,,,,,,,,,,,,,,1391.8800000000047,,response,,,,100,,,,,,,Space,keypress(Space),,,,,,,,"-- --- ---- --- ------ ----- ------- ---- -- --- ------- --<br>------- ---------- ------ -- 1727, -- ----- -- ---- ------<br>--- ----- --- --- ------ -------- ----- --- ------ ----- --<br>----- ----- ---------- --- --- ------ ------ ---- -- ------<br>------- --- ------ ----- --- ---- ------- -- ---- --- --<br>------- ------",176967,176952,175558.58,175558,175560.12,176968.7,,16,"1727,"
screen,html.Screen,2_1_1_1_17,2022-04-25T13:26:31.936Z,,,,,,,,,,,,,,,,,54,,,,,,,,,,,,,,436.29999999998836,,response,,,,100,,,,,,,Space,keypress(Space),,,,,,,,-- --- ---- --- ------ ----- ------- ---- -- --- ------- --<br>------- ---------- ------ -- ----- in ----- -- ---- ------<br>--- ----- --- --- ------ -------- ----- --- ------ ----- --<br>----- ----- ---------- --- --- ------ ------ ---- -- ------<br>------- --- ------ ----- --- ---- ------- -- ---- --- --<br>------- ------,177422,177405,176967.58,176967,176968.7,177422.94,,17,in
screen,html.Screen,2_1_1_1_18,2022-04-25T13:26:32.366Z,,,,,,,,,,,,,,,,,54,,,,,,,,,,,,,,419.0599999999977,,response,,,,100,,,,,,,Space,keypress(Space),,,,,,,,-- --- ---- --- ------ ----- ------- ---- -- --- ------- --<br>------- ---------- ------ -- ----- -- order -- ---- ------<br>--- ----- --- --- ------ -------- ----- --- ------ ----- --<br>----- ----- ---------- --- --- ------ ------ ---- -- ------<br>------- --- ------ ----- --- ---- ------- -- ---- --- --<br>------- ------,177851,177842,177421.46,177422,177422.94,177852.18,,18,order
screen,html.Screen,2_1_1_1_19,2022-04-25T13:26:32.706Z,,,,,,,,,,,,,,,,,54,,,,,,,,,,,,,,333.820000000007,,response,,,,100,,,,,,,Space,keypress(Space),,,,,,,,-- --- ---- --- ------ ----- ------- ---- -- --- ------- --<br>------- ---------- ------ -- ----- -- ----- to ---- ------<br>--- ----- --- --- ------ -------- ----- --- ------ ----- --<br>----- ----- ---------- --- --- ------ ------ ---- -- ------<br>------- --- ------ ----- --- ---- ------- -- ---- --- --<br>------- ------,178192,178186,177851.54,177851,177852.18,178193.92,,19,to
screen,html.Screen,2_1_1_1_20,2022-04-25T13:26:33.182Z,,,,,,,,,,,,,,,,,54,,,,,,,,,,,,,,462.0799999999872,,response,,,,100,,,,,,,Space,keypress(Space),,,,,,,,-- --- ---- --- ------ ----- ------- ---- -- --- ------- --<br>------- ---------- ------ -- ----- -- ----- -- save ------<br>--- ----- --- --- ------ -------- ----- --- ------ ----- --<br>----- ----- ---------- --- --- ------ ------ ---- -- ------<br>------- --- ------ ----- --- ---- ------- -- ---- --- --<br>------- ------,178667,178656,178191.36,178192,178193.92,178669,,20,save
screen,html.Screen,2_1_1_1_21,2022-04-25T13:26:33.759Z,,,,,,,,,,,,,,,,,54,,,,,,,,,,,,,,564,,response,,,,100,,,,,,,Space,keypress(Space),,,,,,,,"-- --- ---- --- ------ ----- ------- ---- -- --- ------- --<br>------- ---------- ------ -- ----- -- ----- -- ---- money,<br>--- ----- --- --- ------ -------- ----- --- ------ ----- --<br>----- ----- ---------- --- --- ------ ------ ---- -- ------<br>------- --- ------ ----- --- ---- ------- -- ---- --- --<br>------- ------",179245,179233,178667.72,178667,178669,179248.26,,21,"money,"
screen,html.Screen,2_1_1_1_22,2022-04-25T13:26:34.206Z,,,,,,,,,,,,,,,,,54,,,,,,,,,,,,,,437.7399999999907,,response,,,,100,,,,,,,Space,keypress(Space),,,,,,,,-- --- ---- --- ------ ----- ------- ---- -- --- ------- --<br>------- ---------- ------ -- ----- -- ----- -- ---- ------<br>the ----- --- --- ------ -------- ----- --- ------ ----- --<br>----- ----- ---------- --- --- ------ ------ ---- -- ------<br>------- --- ------ ----- --- ---- ------- -- ---- --- --<br>------- ------,179691,179686,179245.08,179245,179248.26,179694.18,,22,the
screen,html.Screen,2_1_1_1_23,2022-04-25T13:26:34.763Z,,,,,,,,,,,,,,,,,54,,,,,,,,,,,,,,538.820000000007,,response,,,,100,,,,,,,Space,keypress(Space),,,,,,,,-- --- ---- --- ------ ----- ------- ---- -- --- ------- --<br>------- ---------- ------ -- ----- -- ----- -- ---- ------<br>--- state --- --- ------ -------- ----- --- ------ ----- --<br>----- ----- ---------- --- --- ------ ------ ---- -- ------<br>------- --- ------ ----- --- ---- ------- -- ---- --- --<br>------- ------,180248,180233,179691.62,179691,179694.18,180252.6,,23,state
screen,html.Screen,2_1_1_1_24,2022-04-25T13:26:35.427Z,,,,,,,,,,,,,,,,,54,,,,,,,,,,,,,,652.3999999999942,,response,,,,100,,,,,,,Space,keypress(Space),,,,,,,,-- --- ---- --- ------ ----- ------- ---- -- --- ------- --<br>------- ---------- ------ -- ----- -- ----- -- ---- ------<br>--- ----- cut --- ------ -------- ----- --- ------ ----- --<br>----- ----- ---------- --- --- ------ ------ ---- -- ------<br>------- --- ------ ----- --- ---- ------- -- ---- --- --<br>------- ------,180912,180905,180248.6,180248,180252.6,180915.22,,24,cut
screen,html.Screen,2_1_1_1_25,2022-04-25T13:26:35.688Z,,,,,,,,,,,,,,,,,54,,,,,,,,,,,,,,254.77999999999884,,response,,,,100,,,,,,,Space,keypress(Space),,,,,,,,-- --- ---- --- ------ ----- ------- ---- -- --- ------- --<br>------- ---------- ------ -- ----- -- ----- -- ---- ------<br>--- ----- --- the ------ -------- ----- --- ------ ----- --<br>----- ----- ---------- --- --- ------ ------ ---- -- ------<br>------- --- ------ ----- --- ---- ------- -- ---- --- --<br>------- ------,181173,181170,180912.7,180912,180915.22,181173.6,,25,the
screen,html.Screen,2_1_1_1_26,2022-04-25T13:26:36.535Z,,,,,,,,,,,,,,,,,54,,,,,,,,,,,,,,840.3999999999942,,response,,,,100,,,,,,,Space,keypress(Space),,,,,,,,-- --- ---- --- ------ ----- ------- ---- -- --- ------- --<br>------- ---------- ------ -- ----- -- ----- -- ---- ------<br>--- ----- --- --- bonds' -------- ----- --- ------ ----- --<br>----- ----- ---------- --- --- ------ ------ ---- -- ------<br>------- --- ------ ----- --- ---- ------- -- ---- --- --<br>------- ------,182020,182014,181173.54,181173,181173.6,182023.74,,26,bonds'
screen,html.Screen,2_1_1_1_27,2022-04-25T13:26:37.165Z,,,,,,,,,,,,,,,,,54,,,,,,,,,,,,,,615.2600000000093,,response,,,,100,,,,,,,Space,keypress(Space),,,,,,,,-- --- ---- --- ------ ----- ------- ---- -- --- ------- --<br>------- ---------- ------ -- ----- -- ----- -- ---- ------<br>--- ----- --- --- ------ interest ----- --- ------ ----- --<br>----- ----- ---------- --- --- ------ ------ ---- -- ------<br>------- --- ------ ----- --- ---- ------- -- ---- --- --<br>------- ------,182651,182639,182020.54,182020,182023.74,182653.02,,27,interest
screen,html.Screen,2_1_1_1_28,2022-04-25T13:26:37.466Z,,,,,,,,,,,,,,,,,54,,,,,,,,,,,,,,282.9800000000105,,response,,,,100,,,,,,,Space,keypress(Space),,,,,,,,-- --- ---- --- ------ ----- ------- ---- -- --- ------- --<br>------- ---------- ------ -- ----- -- ----- -- ---- ------<br>--- ----- --- --- ------ -------- rate. --- ------ ----- --<br>----- ----- ---------- --- --- ------ ------ ---- -- ------<br>------- --- ------ ----- --- ---- ------- -- ---- --- --<br>------- ------,182951,182936,182650.54,182651,182653.02,182953.08,,28,rate.
screen,html.Screen,2_1_1_1_29,2022-04-25T13:26:38.633Z,,,,,,,,,,,,,,,,,54,,,,,,,,,,,,,,1154.9200000000128,,response,,,,100,,,,,,,Space,keypress(Space),,,,,,,,-- --- ---- --- ------ ----- ------- ---- -- --- ------- --<br>------- ---------- ------ -- ----- -- ----- -- ---- ------<br>--- ----- --- --- ------ -------- ----- The ------ ----- --<br>----- ----- ---------- --- --- ------ ------ ---- -- ------<br>------- --- ------ ----- --- ---- ------- -- ---- --- --<br>------- ------,184118,184108,182951.52,182951,182953.08,184119.94,,29,The
screen,html.Screen,2_1_1_1_30,2022-04-25T13:26:39.112Z,,,,,,,,,,,,,,,,,54,,,,,,,,,,,,,,473.0599999999977,,response,,,,100,,,,,,,Space,keypress(Space),,,,,,,,-- --- ---- --- ------ ----- ------- ---- -- --- ------- --<br>------- ---------- ------ -- ----- -- ----- -- ---- ------<br>--- ----- --- --- ------ -------- ----- --- market ----- --<br>----- ----- ---------- --- --- ------ ------ ---- -- ------<br>------- --- ------ ----- --- ---- ------- -- ---- --- --<br>------- ------,184598,184593,184118.5,184118,184119.94,184599.2,,30,market
screen,html.Screen,2_1_1_1_31,2022-04-25T13:26:39.574Z,,,,,,,,,,,,,,,,,54,,,,,,,,,,,,,,445.79999999998836,,response,,,,100,,,,,,,Space,keypress(Space),,,,,,,,-- --- ---- --- ------ ----- ------- ---- -- --- ------- --<br>------- ---------- ------ -- ----- -- ----- -- ---- ------<br>--- ----- --- --- ------ -------- ----- --- ------ value --<br>----- ----- ---------- --- --- ------ ------ ---- -- ------<br>------- --- ------ ----- --- ---- ------- -- ---- --- --<br>------- ------,185060,185045,184597.54,184598,184599.2,185061.78,,31,value
screen,html.Screen,2_1_1_1_32,2022-04-25T13:26:39.939Z,,,,,,,,,,,,,,,,,54,,,,,,,,,,,,,,358.22000000000116,,response,,,,100,,,,,,,Space,keypress(Space),,,,,,,,-- --- ---- --- ------ ----- ------- ---- -- --- ------- --<br>------- ---------- ------ -- ----- -- ----- -- ---- ------<br>--- ----- --- --- ------ -------- ----- --- ------ ----- of<br>----- ----- ---------- --- --- ------ ------ ---- -- ------<br>------- --- ------ ----- --- ---- ------- -- ---- --- --<br>------- ------,185424,185420,185059.54,185060,185061.78,185424.34,,32,of
screen,html.Screen,2_1_1_1_33,2022-04-25T13:26:40.403Z,,,,,,,,,,,,,,,,,54,,,,,,,,,,,,,,448.6600000000035,,response,,,,100,,,,,,,Space,keypress(Space),,,,,,,,-- --- ---- --- ------ ----- ------- ---- -- --- ------- --<br>------- ---------- ------ -- ----- -- ----- -- ---- ------<br>--- ----- --- --- ------ -------- ----- --- ------ ----- --<br>these ----- ---------- --- --- ------ ------ ---- -- ------<br>------- --- ------ ----- --- ---- ------- -- ---- --- --<br>------- ------,185889,185873,185424.08,185424,185424.34,185891.1,,33,these
screen,html.Screen,2_1_1_1_34,2022-04-25T13:26:40.997Z,,,,,,,,,,,,,,,,,54,,,,,,,,,,,,,,575.8999999999942,,response,,,,100,,,,,,,Space,keypress(Space),,,,,,,,-- --- ---- --- ------ ----- ------- ---- -- --- ------- --<br>------- ---------- ------ -- ----- -- ----- -- ---- ------<br>--- ----- --- --- ------ -------- ----- --- ------ ----- --<br>----- bonds ---------- --- --- ------ ------ ---- -- ------<br>------- --- ------ ----- --- ---- ------- -- ---- --- --<br>------- ------,186482,186467,185888.4,185889,185891.1,186482.86,,34,bonds
screen,html.Screen,2_1_1_1_35,2022-04-25T13:26:41.812Z,,,,,,,,,,,,,,,,,54,,,,,,,,,,,,,,812.140000000014,,response,,,,100,,,,,,,Space,keypress(Space),,,,,,,,"-- --- ---- --- ------ ----- ------- ---- -- --- ------- --<br>------- ---------- ------ -- ----- -- ----- -- ---- ------<br>--- ----- --- --- ------ -------- ----- --- ------ ----- --<br>----- ----- plummeted, --- --- ------ ------ ---- -- ------<br>------- --- ------ ----- --- ---- ------- -- ---- --- --<br>------- ------",187297,187295,186482.5,186482,186482.86,187299.68,,35,"plummeted,"
screen,html.Screen,2_1_1_1_36,2022-04-25T13:26:42.178Z,,,,,,,,,,,,,,,,,54,,,,,,,,,,,,,,355.320000000007,,response,,,,100,,,,,,,Space,keypress(Space),,,,,,,,-- --- ---- --- ------ ----- ------- ---- -- --- ------- --<br>------- ---------- ------ -- ----- -- ----- -- ---- ------<br>--- ----- --- --- ------ -------- ----- --- ------ ----- --<br>----- ----- ---------- and --- ------ ------ ---- -- ------<br>------- --- ------ ----- --- ---- ------- -- ---- --- --<br>------- ------,187663,187655,187297.72,187298,187299.68,187666.4,,36,and
screen,html.Screen,2_1_1_1_37,2022-04-25T13:26:42.455Z,,,,,,,,,,,,,,,,,54,,,,,,,,,,,,,,269.6000000000058,,response,,,,100,,,,,,,Space,keypress(Space),,,,,,,,-- --- ---- --- ------ ----- ------- ---- -- --- ------- --<br>------- ---------- ------ -- ----- -- ----- -- ---- ------<br>--- ----- --- --- ------ -------- ----- --- ------ ----- --<br>----- ----- ---------- --- the ------ ------ ---- -- ------<br>------- --- ------ ----- --- ---- ------- -- ---- --- --<br>------- ------,187940,187936,187663.28,187663,187666.4,187941.46,,37,the
screen,html.Screen,2_1_1_1_38,2022-04-25T13:26:42.791Z,,,,,,,,,,,,,,,,,54,,,,,,,,,,,,,,322.54000000000815,,response,,,,100,,,,,,,Space,keypress(Space),,,,,,,,-- --- ---- --- ------ ----- ------- ---- -- --- ------- --<br>------- ---------- ------ -- ----- -- ----- -- ---- ------<br>--- ----- --- --- ------ -------- ----- --- ------ ----- --<br>----- ----- ---------- --- --- market ------ ---- -- ------<br>------- --- ------ ----- --- ---- ------- -- ---- --- --<br>------- ------,188277,188264,187940.92,187940,187941.46,188279,,38,market
screen,html.Screen,2_1_1_1_39,2022-04-25T13:26:43.812Z,,,,,,,,,,,,,,,,,54,,,,,,,,,,,,,,1017,,response,,,,100,,,,,,,Space,keypress(Space),,,,,,,,-- --- ---- --- ------ ----- ------- ---- -- --- ------- --<br>------- ---------- ------ -- ----- -- ----- -- ---- ------<br>--- ----- --- --- ------ -------- ----- --- ------ ----- --<br>----- ----- ---------- --- --- ------ became ---- -- ------<br>------- --- ------ ----- --- ---- ------- -- ---- --- --<br>------- ------,189298,189296,188276.56,188277,188279,189300.02,,39,became
screen,html.Screen,2_1_1_1_40,2022-04-25T13:26:44.124Z,,,,,,,,,,,,,,,,,54,,,,,,,,,,,,,,307.9800000000105,,response,,,,100,,,,,,,Space,keypress(Space),,,,,,,,-- --- ---- --- ------ ----- ------- ---- -- --- ------- --<br>------- ---------- ------ -- ----- -- ----- -- ---- ------<br>--- ----- --- --- ------ -------- ----- --- ------ ----- --<br>----- ----- ---------- --- --- ------ ------ wary -- ------<br>------- --- ------ ----- --- ---- ------- -- ---- --- --<br>------- ------,189609,189608,189297.64,189298,189300.02,189612.58,,40,wary
screen,html.Screen,2_1_1_1_41,2022-04-25T13:26:44.412Z,,,,,,,,,,,,,,,,,54,,,,,,,,,,,,,,276.4200000000128,,response,,,,100,,,,,,,Space,keypress(Space),,,,,,,,-- --- ---- --- ------ ----- ------- ---- -- --- ------- --<br>------- ---------- ------ -- ----- -- ----- -- ---- ------<br>--- ----- --- --- ------ -------- ----- --- ------ ----- --<br>----- ----- ---------- --- --- ------ ------ ---- of ------<br>------- --- ------ ----- --- ---- ------- -- ---- --- --<br>------- ------,189897,189889,189609.64,189610,189612.58,189900.12,,41,of
screen,html.Screen,2_1_1_1_42,2022-04-25T13:26:44.859Z,,,,,,,,,,,,,,,,,54,,,,,,,,,,,,,,441.88000000000466,,response,,,,100,,,,,,,Space,keypress(Space),,,,,,,,-- --- ---- --- ------ ----- ------- ---- -- --- ------- --<br>------- ---------- ------ -- ----- -- ----- -- ---- ------<br>--- ----- --- --- ------ -------- ----- --- ------ ----- --<br>----- ----- ---------- --- --- ------ ------ ---- -- French<br>------- --- ------ ----- --- ---- ------- -- ---- --- --<br>------- ------,190345,190342,189897.7,189898,189900.12,190346.04,,42,French
screen,html.Screen,2_1_1_1_43,2022-04-25T13:26:45.957Z,,,,,,,,,,,,,,,,,54,,,,,,,,,,,,,,1090.9599999999919,,response,,,,100,,,,,,,Space,keypress(Space),,,,,,,,-- --- ---- --- ------ ----- ------- ---- -- --- ------- --<br>------- ---------- ------ -- ----- -- ----- -- ---- ------<br>--- ----- --- --- ------ -------- ----- --- ------ ----- --<br>----- ----- ---------- --- --- ------ ------ ---- -- ------<br>credit. --- ------ ----- --- ---- ------- -- ---- --- --<br>------- ------,191442,191437,190344.54,190345,190346.04,191446.24,,43,credit.
screen,html.Screen,2_1_1_1_44,2022-04-25T13:26:46.453Z,,,,,,,,,,,,,,,,,54,,,,,,,,,,,,,,489.7600000000093,,response,,,,100,,,,,,,Space,keypress(Space),,,,,,,,-- --- ---- --- ------ ----- ------- ---- -- --- ------- --<br>------- ---------- ------ -- ----- -- ----- -- ---- ------<br>--- ----- --- --- ------ -------- ----- --- ------ ----- --<br>----- ----- ---------- --- --- ------ ------ ---- -- ------<br>------- The ------ ----- --- ---- ------- -- ---- --- --<br>------- ------,191939,191936,191442.5,191442,191446.24,191942.16,,44,The
screen,html.Screen,2_1_1_1_45,2022-04-25T13:26:46.941Z,,,,,,,,,,,,,,,,,54,,,,,,,,,,,,,,478.8399999999965,,response,,,,100,,,,,,,Space,keypress(Space),,,,,,,,-- --- ---- --- ------ ----- ------- ---- -- --- ------- --<br>------- ---------- ------ -- ----- -- ----- -- ---- ------<br>--- ----- --- --- ------ -------- ----- --- ------ ----- --<br>----- ----- ---------- --- --- ------ ------ ---- -- ------<br>------- --- French ----- --- ---- ------- -- ---- --- --<br>------- ------,192426,192421,191938.68,191939,191942.16,192429.74,,45,French
screen,html.Screen,2_1_1_1_46,2022-04-25T13:26:47.316Z,,,,,,,,,,,,,,,,,54,,,,,,,,,,,,,,365.2600000000093,,response,,,,100,,,,,,,Space,keypress(Space),,,,,,,,-- --- ---- --- ------ ----- ------- ---- -- --- ------- --<br>------- ---------- ------ -- ----- -- ----- -- ---- ------<br>--- ----- --- --- ------ -------- ----- --- ------ ----- --<br>----- ----- ---------- --- --- ------ ------ ---- -- ------<br>------- --- ------ state --- ---- ------- -- ---- --- --<br>------- ------,192802,192795,192426.46,192426,192429.74,192804.8,,46,state
screen,html.Screen,2_1_1_1_47,2022-04-25T13:26:47.672Z,,,,,,,,,,,,,,,,,54,,,,,,,,,,,,,,351.20000000001164,,response,,,,100,,,,,,,Space,keypress(Space),,,,,,,,-- --- ---- --- ------ ----- ------- ---- -- --- ------- --<br>------- ---------- ------ -- ----- -- ----- -- ---- ------<br>--- ----- --- --- ------ -------- ----- --- ------ ----- --<br>----- ----- ---------- --- --- ------ ------ ---- -- ------<br>------- --- ------ ----- was ---- ------- -- ---- --- --<br>------- ------,193158,193156,192801.48,192802,192804.8,193159.02,,47,was
screen,html.Screen,2_1_1_1_48,2022-04-25T13:26:48.058Z,,,,,,,,,,,,,,,,,54,,,,,,,,,,,,,,370.9800000000105,,response,,,,100,,,,,,,Space,keypress(Space),,,,,,,,-- --- ---- --- ------ ----- ------- ---- -- --- ------- --<br>------- ---------- ------ -- ----- -- ----- -- ---- ------<br>--- ----- --- --- ------ -------- ----- --- ------ ----- --<br>----- ----- ---------- --- --- ------ ------ ---- -- ------<br>------- --- ------ ----- --- left ------- -- ---- --- --<br>------- ------,193544,193530,193157.8,193158,193159.02,193546.6,,48,left
screen,html.Screen,2_1_1_1_49,2022-04-25T13:26:48.608Z,,,,,,,,,,,,,,,,,54,,,,,,,,,,,,,,530.3999999999942,,response,,,,100,,,,,,,Space,keypress(Space),,,,,,,,-- --- ---- --- ------ ----- ------- ---- -- --- ------- --<br>------- ---------- ------ -- ----- -- ----- -- ---- ------<br>--- ----- --- --- ------ -------- ----- --- ------ ----- --<br>----- ----- ---------- --- --- ------ ------ ---- -- ------<br>------- --- ------ ----- --- ---- without -- ---- --- --<br>------- ------,194093,194077,193543.76,193544,193546.6,194096.7,,49,without
screen,html.Screen,2_1_1_1_50,2022-04-25T13:26:48.946Z,,,,,,,,,,,,,,,,,54,,,,,,,,,,,,,,323.29999999998836,,response,,,,100,,,,,,,Space,keypress(Space),,,,,,,,-- --- ---- --- ------ ----- ------- ---- -- --- ------- --<br>------- ---------- ------ -- ----- -- ----- -- ---- ------<br>--- ----- --- --- ------ -------- ----- --- ------ ----- --<br>----- ----- ---------- --- --- ------ ------ ---- -- ------<br>------- --- ------ ----- --- ---- ------- an ---- --- --<br>------- ------,194432,194420,194093.56,194093,194096.7,194434.26,,50,an
screen,html.Screen,2_1_1_1_51,2022-04-25T13:26:49.275Z,,,,,,,,,,,,,,,,,54,,,,,,,,,,,,,,313.7399999999907,,response,,,,100,,,,,,,Space,keypress(Space),,,,,,,,-- --- ---- --- ------ ----- ------- ---- -- --- ------- --<br>------- ---------- ------ -- ----- -- ----- -- ---- ------<br>--- ----- --- --- ------ -------- ----- --- ------ ----- --<br>----- ----- ---------- --- --- ------ ------ ---- -- ------<br>------- --- ------ ----- --- ---- ------- -- easy --- --<br>------- ------,194761,194748,194431.56,194432,194434.26,194763.48,,51,easy
screen,html.Screen,2_1_1_1_52,2022-04-25T13:26:49.624Z,,,,,,,,,,,,,,,,,54,,,,,,,,,,,,,,328.5199999999895,,response,,,,100,,,,,,,Space,keypress(Space),,,,,,,,-- --- ---- --- ------ ----- ------- ---- -- --- ------- --<br>------- ---------- ------ -- ----- -- ----- -- ---- ------<br>--- ----- --- --- ------ -------- ----- --- ------ ----- --<br>----- ----- ---------- --- --- ------ ------ ---- -- ------<br>------- --- ------ ----- --- ---- ------- -- ---- way --<br>------- ------,195110,195092,194760.48,194761,194763.48,195113.54,,52,way
screen,html.Screen,2_1_1_1_53,2022-04-25T13:26:50.151Z,,,,,,,,,,,,,,,,,54,,,,,,,,,,,,,,509.45999999999185,,response,,,,100,,,,,,,Space,keypress(Space),,,,,,,,-- --- ---- --- ------ ----- ------- ---- -- --- ------- --<br>------- ---------- ------ -- ----- -- ----- -- ---- ------<br>--- ----- --- --- ------ -------- ----- --- ------ ----- --<br>----- ----- ---------- --- --- ------ ------ ---- -- ------<br>------- --- ------ ----- --- ---- ------- -- ---- --- of<br>------- ------,195637,195623,195109.52,195110,195113.54,195638.64,,53,of
screen,html.Screen,2_1_1_1_54,2022-04-25T13:26:50.504Z,,,,,,,,,,,,,,,,,54,,,,,,,,,,,,,,344.35999999998603,,response,,,,100,,,,,,,Space,keypress(Space),,,,,,,,-- --- ---- --- ------ ----- ------- ---- -- --- ------- --<br>------- ---------- ------ -- ----- -- ----- -- ---- ------<br>--- ----- --- --- ------ -------- ----- --- ------ ----- --<br>----- ----- ---------- --- --- ------ ------ ---- -- ------<br>------- --- ------ ----- --- ---- ------- -- ---- --- --<br>raising ------,195990,195983,195636.52,195637,195638.64,195992.86,,54,raising
screen,html.Screen,2_1_1_1_55,2022-04-25T13:26:51.398Z,,,,,,,,,,,,,,,,,54,,,,,,,,,,,,,,880.140000000014,,response,,,,100,,,,,,,Space,keypress(Space),,,,,,,,-- --- ---- --- ------ ----- ------- ---- -- --- ------- --<br>------- ---------- ------ -- ----- -- ----- -- ---- ------<br>--- ----- --- --- ------ -------- ----- --- ------ ----- --<br>----- ----- ---------- --- --- ------ ------ ---- -- ------<br>------- --- ------ ----- --- ---- ------- -- ---- --- --<br>------- money.,196882,196873,195990.32,195991,195992.86,196884.68,,55,money.
Item 100,flow.Loop,2_1_1_1,2022-04-25T13:26:51.398Z,,,,,,,,,,,,,,,,,,,,,,,,,,,,,,,31218.78,,completion,,,,,A,,,,,,,,,,,silence,,,,,196882,196873,165650.04,165651,165654.22,196884.68,,,
Question 1,html.Screen,2_1_1_2,2022-04-25T13:26:54.504Z,,,,,,,,,,,,,,,,,,,,,,,,,,,,true,TRUE,,3098.320000000007,,response,,,,100,A,,,,,,TRUE,click #choice-1,,,,silence,,,,,199990,199983,196882.84,196882,196884.68,199991.38,,,
Question 2,html.Screen,2_1_1_3,2022-04-25T13:26:56.565Z,,,,,,,,,,,,,,,,,,,,,,,,,,,,true,FALSE,,2053.6199999999953,,response,,,,100,A,,,,,,FALSE,click #choice-2,,,,silence,,,,,202051,202045,199989.22,199990,199991.38,202054.24,,,
Item 100,flow.Sequence,2_1_1,2022-04-25T13:26:56.565Z,,,,,,,,,,,,,,,,,,,,,,,,,,,,,,,46390.04000000001,,completion,,,,,,,,,,,,,,,,,,,,,202051,202045,155651.28,155653,155654.96,202054.24,,,
End of Practice,html.Page,2_1_2,2022-04-25T13:27:00.953Z,,,,,,,,,,,,,,,,,,,,,,,,,,,,,,,4384.760000000009,,form submission,,,,,,,,,,,,,,,,,,,,,206439,206439,202050.46,202051,202054.24,206438.34,,,
Practice,flow.Sequence,2_1,2022-04-25T13:27:00.953Z,,,,,,,,,,,,,,,,,,,,,,,,,,,,,,,99969.22,,completion,,,,,,,,,,,,,,,,,,,,,206439,206439,106468.84,106470,106469.78,206438.34,,,
Trap_instruction,html.Page,2_2_0,2022-04-25T13:27:05.214Z,,,,,,,,,,,,,,,,,,,,,,,,,,,,,,,4260.6600000000035,,form submission,,,,,,,,,,,,,,,,,,,,,210700,210699,206437.1,206439,206438.34,210709.92,,,
trap_trial,html.Screen,2_2_1,2022-04-25T13:27:07.839Z,,,,,,,,,,,,,,,,,,,,,,,,,,,,true,1,,2601.079999999987,,response,,,,,,,,,,,1,click #choice-1,,,,,,,,,213324,213311,210697.44,210700,210709.92,213327.06,,,
end of trap trial,html.Page,2_2_2,2022-04-25T13:27:09.332Z,,,,,,,,,,,,,,,,,,,,,,,,,,,,,,,1489.9400000000023,,form submission,,,,,,,,,,,,,,,,,,,,,214817,214817,213323.7,213324,213327.06,214818.98,,,
Trap 1,flow.Sequence,2_2,2022-04-25T13:27:09.332Z,,,,,,,,,,,,,,,,,,,,,,,,,,,,,,,8378.660000000003,,completion,,,,,,,,,,,,,,,,,,,,,214817,214817,206437.1,206439,206438.34,214818.98,,,
Standby,html.Page,2_3_0,2022-04-25T13:27:17.332Z,,,,,,,,,,,,,,,,,,,,,,,,,,,,,,,8001.399999999994,,timeout,,,,,,,,,,,,,,,,,,,,,222818,222816.22,214816,214818,214818.98,222820.38,,,
Holding screen,html.Screen,2_3_1_0_0,2022-04-25T13:27:24.334Z,,,,,,,,,,,,,,,,,,,,,,,,,,,,,,,7001.220000000001,,timeout,,,,,,,,,,,,,,,,,,,,,229820,229817.44,222816.22,222818,222820.38,229821.6,,,
screen,html.Screen,2_3_1_0_1_0,2022-04-25T13:27:25.558Z,,,,,,,,,,,,,,,,,12,,,,,,,,,,,,,,1208.3999999999942,,response,,,,5,A,,,,,,Space,keypress(Space),,,,silence,,,,Some ------ ------ ------- ------ --- ------- -----------<br>-- ----- --- ---- -- --- ------ ---- - ---- -- ----------<br>-- ------ ---- --- ---- --- --- --- ----- -- -------- ---<br>------ ------- -------- --- ---- -- ------- ------------ --<br>------ -- ---- -- --- ---- -- -------- -- --- ------ ------,231044,231030,229817.44,229820,229821.6,231046.82,,0,Some
screen,html.Screen,2_3_1_0_1_1,2022-04-25T13:27:26.487Z,,,,,,,,,,,,,,,,,12,,,,,,,,,,,,,,921.179999999993,,response,,,,5,A,,,,,,Space,keypress(Space),,,,silence,,,,---- months ------ ------- ------ --- ------- -----------<br>-- ----- --- ---- -- --- ------ ---- - ---- -- ----------<br>-- ------ ---- --- ---- --- --- --- ----- -- -------- ---<br>------ ------- -------- --- ---- -- ------- ------------ --<br>------ -- ---- -- --- ---- -- -------- -- --- ------ ------,231972,231968,231043.86,231044,231046.82,231976.16,,1,months
screen,html.Screen,2_3_1_0_1_2,2022-04-25T13:27:26.872Z,,,,,,,,,,,,,,,,,12,,,,,,,,,,,,,,365.8399999999965,,response,,,,5,A,,,,,,Space,keypress(Space),,,,silence,,,,"---- ------ later, ------- ------ --- ------- -----------<br>-- ----- --- ---- -- --- ------ ---- - ---- -- ----------<br>-- ------ ---- --- ---- --- --- --- ----- -- -------- ---<br>------ ------- -------- --- ---- -- ------- ------------ --<br>------ -- ---- -- --- ---- -- -------- -- --- ------ ------",232357,232342,231972.66,231973,231976.16,232359.56,,2,"later,"
screen,html.Screen,2_3_1_0_1_3,2022-04-25T13:27:27.746Z,,,,,,,,,,,,,,,,,12,,,,,,,,,,,,,,857.4400000000023,,response,,,,5,A,,,,,,Space,keypress(Space),,,,silence,,,,---- ------ ------ Michael ------ --- ------- -----------<br>-- ----- --- ---- -- --- ------ ---- - ---- -- ----------<br>-- ------ ---- --- ---- --- --- --- ----- -- -------- ---<br>------ ------- -------- --- ---- -- ------- ------------ --<br>------ -- ---- -- --- ---- -- -------- -- --- ------ ------,233231,233217,232356.88,232357,232359.56,233234.7,,3,Michael
screen,html.Screen,2_3_1_0_1_4,2022-04-25T13:27:28.417Z,,,,,,,,,,,,,,,,,12,,,,,,,,,,,,,,654.2999999999884,,response,,,,5,A,,,,,,Space,keypress(Space),,,,silence,,,,---- ------ ------ ------- Larson --- ------- -----------<br>-- ----- --- ---- -- --- ------ ---- - ---- -- ----------<br>-- ------ ---- --- ---- --- --- --- ----- -- -------- ---<br>------ ------- -------- --- ---- -- ------- ------------ --<br>------ -- ---- -- --- ---- -- -------- -- --- ------ ------,233902,233889,233231.54,233231,233234.7,233905.66,,4,Larson
screen,html.Screen,2_3_1_0_1_5,2022-04-25T13:27:28.970Z,,,,,,,,,,,,,,,,,12,,,,,,,,,,,,,,546.3399999999965,,response,,,,5,A,,,,,,Space,keypress(Space),,,,silence,,,,---- ------ ------ ------- ------ saw ------- -----------<br>-- ----- --- ---- -- --- ------ ---- - ---- -- ----------<br>-- ------ ---- --- ---- --- --- --- ----- -- -------- ---<br>------ ------- -------- --- ---- -- ------- ------------ --<br>------ -- ---- -- --- ---- -- -------- -- --- ------ ------,234455,234452,233902.46,233902,233905.66,234455.76,,5,saw
screen,html.Screen,2_3_1_0_1_6,2022-04-25T13:27:29.480Z,,,,,,,,,,,,,,,,,12,,,,,,,,,,,,,,496.2399999999907,,response,,,,5,A,,,,,,Space,keypress(Space),,,,silence,,,,---- ------ ------ ------- ------ --- another -----------<br>-- ----- --- ---- -- --- ------ ---- - ---- -- ----------<br>-- ------ ---- --- ---- --- --- --- ----- -- -------- ---<br>------ ------- -------- --- ---- -- ------- ------------ --<br>------ -- ---- -- --- ---- -- -------- -- --- ------ ------,234965,234952,234455.5,234455,234455.76,234968.34,,6,another
screen,html.Screen,2_3_1_0_1_7,2022-04-25T13:27:30.052Z,,,,,,,,,,,,,,,,,12,,,,,,,,,,,,,,561.6600000000035,,response,,,,5,A,,,,,,Space,keypress(Space),,,,silence,,,,---- ------ ------ ------- ------ --- ------- opportunity<br>-- ----- --- ---- -- --- ------ ---- - ---- -- ----------<br>-- ------ ---- --- ---- --- --- --- ----- -- -------- ---<br>------ ------- -------- --- ---- -- ------- ------------ --<br>------ -- ---- -- --- ---- -- -------- -- --- ------ ------,235538,235530,234965.48,234965,234968.34,235539.28,,7,opportunity
screen,html.Screen,2_3_1_0_1_8,2022-04-25T13:27:30.398Z,,,,,,,,,,,,,,,,,12,,,,,,,,,,,,,,333.72000000000116,,response,,,,5,A,,,,,,Space,keypress(Space),,,,silence,,,,---- ------ ------ ------- ------ --- ------- -----------<br>to ----- --- ---- -- --- ------ ---- - ---- -- ----------<br>-- ------ ---- --- ---- --- --- --- ----- -- -------- ---<br>------ ------- -------- --- ---- -- ------- ------------ --<br>------ -- ---- -- --- ---- -- -------- -- --- ------ ------,235883,235873,235537.96,235538,235539.28,235885.16,,8,to
screen,html.Screen,2_3_1_0_1_9,2022-04-25T13:27:30.727Z,,,,,,,,,,,,,,,,,12,,,,,,,,,,,,,,316.8399999999965,,response,,,,5,A,,,,,,Space,keypress(Space),,,,silence,,,,---- ------ ------ ------- ------ --- ------- -----------<br>-- stack --- ---- -- --- ------ ---- - ---- -- ----------<br>-- ------ ---- --- ---- --- --- --- ----- -- -------- ---<br>------ ------- -------- --- ---- -- ------- ------------ --<br>------ -- ---- -- --- ---- -- -------- -- --- ------ ------,236213,236202,235883.68,235884,235885.16,236214.4,,9,stack
screen,html.Screen,2_3_1_0_1_10,2022-04-25T13:27:31.094Z,,,,,,,,,,,,,,,,,12,,,,,,,,,,,,,,362.6000000000058,,response,,,,5,A,,,,,,Space,keypress(Space),,,,silence,,,,---- ------ ------ ------- ------ --- ------- -----------<br>-- ----- the ---- -- --- ------ ---- - ---- -- ----------<br>-- ------ ---- --- ---- --- --- --- ----- -- -------- ---<br>------ ------- -------- --- ---- -- ------- ------------ --<br>------ -- ---- -- --- ---- -- -------- -- --- ------ ------,236580,236577,236212.6,236213,236214.4,236581.12,,10,the
screen,html.Screen,2_3_1_0_1_11,2022-04-25T13:27:31.576Z,,,,,,,,,,,,,,,,,12,,,,,,,,,,,,,,464.88000000000466,,response,,,,5,A,,,,,,Space,keypress(Space),,,,silence,,,,---- ------ ------ ------- ------ --- ------- -----------<br>-- ----- --- odds -- --- ------ ---- - ---- -- ----------<br>-- ------ ---- --- ---- --- --- --- ----- -- -------- ---<br>------ ------- -------- --- ---- -- ------- ------------ --<br>------ -- ---- -- --- ---- -- -------- -- --- ------ ------,237062,237046,236579.58,236580,236581.12,237064.54,,11,odds
screen,html.Screen,2_3_1_0_1_12,2022-04-25T13:27:31.986Z,,,,,,,,,,,,,,,,,12,,,,,,,,,,,,,,402.45999999999185,,response,,,,5,A,,,,,,Space,keypress(Space),,,,silence,,,,---- ------ ------ ------- ------ --- ------- -----------<br>-- ----- --- ---- in --- ------ ---- - ---- -- ----------<br>-- ------ ---- --- ---- --- --- --- ----- -- -------- ---<br>------ ------- -------- --- ---- -- ------- ------------ --<br>------ -- ---- -- --- ---- -- -------- -- --- ------ ------,237471,237467,237061.66,237062,237064.54,237472.94,,12,in
screen,html.Screen,2_3_1_0_1_13,2022-04-25T13:27:32.364Z,,,,,,,,,,,,,,,,,12,,,,,,,,,,,,,,369.0599999999977,,response,,,,5,A,,,,,,Space,keypress(Space),,,,silence,,,,---- ------ ------ ------- ------ --- ------- -----------<br>-- ----- --- ---- -- his ------ ---- - ---- -- ----------<br>-- ------ ---- --- ---- --- --- --- ----- -- -------- ---<br>------ ------- -------- --- ---- -- ------- ------------ --<br>------ -- ---- -- --- ---- -- -------- -- --- ------ ------,237849,237842,237471.48,237471,237472.94,237852.18,,13,his
screen,html.Screen,2_3_1_0_1_14,2022-04-25T13:27:32.925Z,,,,,,,,,,,,,,,,,12,,,,,,,,,,,,,,552.820000000007,,response,,,,5,A,,,,,,Space,keypress(Space),,,,silence,,,,---- ------ ------ ------- ------ --- ------- -----------<br>-- ----- --- ---- -- --- favour ---- - ---- -- ----------<br>-- ------ ---- --- ---- --- --- --- ----- -- -------- ---<br>------ ------- -------- --- ---- -- ------- ------------ --<br>------ -- ---- -- --- ---- -- -------- -- --- ------ ------,238411,238405,237849.54,237849,237852.18,238414.78,,14,favour
screen,html.Screen,2_3_1_0_1_15,2022-04-25T13:27:33.289Z,,,,,,,,,,,,,,,,,12,,,,,,,,,,,,,,349.22000000000116,,response,,,,5,A,,,,,,Space,keypress(Space),,,,silence,,,,---- ------ ------ ------- ------ --- ------- -----------<br>-- ----- --- ---- -- --- ------ with - ---- -- ----------<br>-- ------ ---- --- ---- --- --- --- ----- -- -------- ---<br>------ ------- -------- --- ---- -- ------- ------------ --<br>------ -- ---- -- --- ---- -- -------- -- --- ------ ------,238774,238764,238411.04,238411,238414.78,238777.34,,15,with
screen,html.Screen,2_3_1_0_1_16,2022-04-25T13:27:33.614Z,,,,,,,,,,,,,,,,,12,,,,,,,,,,,,,,314.6600000000035,,response,,,,5,A,,,,,,Space,keypress(Space),,,,silence,,,,---- ------ ------ ------- ------ --- ------- -----------<br>-- ----- --- ---- -- --- ------ ---- a ---- -- ----------<br>-- ------ ---- --- ---- --- --- --- ----- -- -------- ---<br>------ ------- -------- --- ---- -- ------- ------------ --<br>------ -- ---- -- --- ---- -- -------- -- --- ------ ------,239099,239092,238774.76,238775,238777.34,239102.4,,16,a
screen,html.Screen,2_3_1_0_1_17,2022-04-25T13:27:34.036Z,,,,,,,,,,,,,,,,,12,,,,,,,,,,,,,,411.6000000000058,,response,,,,5,A,,,,,,Space,keypress(Space),,,,silence,,,,---- ------ ------ ------- ------ --- ------- -----------<br>-- ----- --- ---- -- --- ------ ---- - dash -- ----------<br>-- ------ ---- --- ---- --- --- --- ----- -- -------- ---<br>------ ------- -------- --- ---- -- ------- ------------ --<br>------ -- ---- -- --- ---- -- -------- -- --- ------ ------,239521,239514,239099.5,239100,239102.4,239525.26,,17,dash
screen,html.Screen,2_3_1_0_1_18,2022-04-25T13:27:34.271Z,,,,,,,,,,,,,,,,,12,,,,,,,,,,,,,,222.7399999999907,,response,,,,5,A,,,,,,Space,keypress(Space),,,,silence,,,,---- ------ ------ ------- ------ --- ------- -----------<br>-- ----- --- ---- -- --- ------ ---- - ---- of ----------<br>-- ------ ---- --- ---- --- --- --- ----- -- -------- ---<br>------ ------- -------- --- ---- -- ------- ------------ --<br>------ -- ---- -- --- ---- -- -------- -- --- ------ ------,239758,239748,239521.52,239521,239525.26,239758.64,,18,of
screen,html.Screen,2_3_1_0_1_19,2022-04-25T13:27:35.353Z,,,,,,,,,,,,,,,,,12,,,,,,,,,,,,,,1068.359999999986,,response,,,,5,A,,,,,,Space,keypress(Space),,,,silence,,,,---- ------ ------ ------- ------ --- ------- -----------<br>-- ----- --- ---- -- --- ------ ---- - ---- -- ingenuity.<br>-- ------ ---- --- ---- --- --- --- ----- -- -------- ---<br>------ ------- -------- --- ---- -- ------- ------------ --<br>------ -- ---- -- --- ---- -- -------- -- --- ------ ------,240839,240827,239757.46,239758,239758.64,240842.16,,19,ingenuity.
screen,html.Screen,2_3_1_0_1_20,2022-04-25T13:27:35.925Z,,,,,,,,,,,,,,,,,12,,,,,,,,,,,,,,562.8399999999965,,response,,,,5,A,,,,,,Space,keypress(Space),,,,silence,,,,---- ------ ------ ------- ------ --- ------- -----------<br>-- ----- --- ---- -- --- ------ ---- - ---- -- ----------<br>He ------ ---- --- ---- --- --- --- ----- -- -------- ---<br>------ ------- -------- --- ---- -- ------- ------------ --<br>------ -- ---- -- --- ---- -- -------- -- --- ------ ------,241411,241405,240838.48,240839,240842.16,241413.1,,20,He
screen,html.Screen,2_3_1_0_1_21,2022-04-25T13:27:36.810Z,,,,,,,,,,,,,,,,,12,,,,,,,,,,,,,,866.8999999999942,,response,,,,5,A,,,,,,Space,keypress(Space),,,,silence,,,,---- ------ ------ ------- ------ --- ------- -----------<br>-- ----- --- ---- -- --- ------ ---- - ---- -- ----------<br>-- walked ---- --- ---- --- --- --- ----- -- -------- ---<br>------ ------- -------- --- ---- -- ------- ------------ --<br>------ -- ---- -- --- ---- -- -------- -- --- ------ ------,242295,242280,241410.78,241411,241413.1,242296.58,,21,walked
screen,html.Screen,2_3_1_0_1_22,2022-04-25T13:27:37.257Z,,,,,,,,,,,,,,,,,12,,,,,,,,,,,,,,436.4200000000128,,response,,,,5,A,,,,,,Space,keypress(Space),,,,silence,,,,---- ------ ------ ------- ------ --- ------- -----------<br>-- ----- --- ---- -- --- ------ ---- - ---- -- ----------<br>-- ------ into --- ---- --- --- --- ----- -- -------- ---<br>------ ------- -------- --- ---- -- ------- ------------ --<br>------ -- ---- -- --- ---- -- -------- -- --- ------ ------,242742,242733,242294.88,242295,242296.58,242742.5,,22,into
screen,html.Screen,2_3_1_0_1_23,2022-04-25T13:27:37.536Z,,,,,,,,,,,,,,,,,12,,,,,,,,,,,,,,271.5,,response,,,,5,A,,,,,,Space,keypress(Space),,,,silence,,,,---- ------ ------ ------- ------ --- ------- -----------<br>-- ----- --- ---- -- --- ------ ---- - ---- -- ----------<br>-- ------ ---- his ---- --- --- --- ----- -- -------- ---<br>------ ------- -------- --- ---- -- ------- ------------ --<br>------ -- ---- -- --- ---- -- -------- -- --- ------ ------,243021,243014,242742.5,242743,242742.5,243021.72,,23,his
screen,html.Screen,2_3_1_0_1_24,2022-04-25T13:27:38.118Z,,,,,,,,,,,,,,,,,12,,,,,,,,,,,,,,570.2799999999988,,response,,,,5,A,,,,,,Space,keypress(Space),,,,silence,,,,---- ------ ------ ------- ------ --- ------- -----------<br>-- ----- --- ---- -- --- ------ ---- - ---- -- ----------<br>-- ------ ---- --- bank --- --- --- ----- -- -------- ---<br>------ ------- -------- --- ---- -- ------- ------------ --<br>------ -- ---- -- --- ---- -- -------- -- --- ------ ------,243604,243592,243021.46,243022,243021.72,243605.14,,24,bank
screen,html.Screen,2_3_1_0_1_25,2022-04-25T13:27:38.510Z,,,,,,,,,,,,,,,,,12,,,,,,,,,,,,,,377.85999999998603,,response,,,,5,A,,,,,,Space,keypress(Space),,,,silence,,,,---- ------ ------ ------- ------ --- ------- -----------<br>-- ----- --- ---- -- --- ------ ---- - ---- -- ----------<br>-- ------ ---- --- ---- one --- --- ----- -- -------- ---<br>------ ------- -------- --- ---- -- ------- ------------ --<br>------ -- ---- -- --- ---- -- -------- -- --- ------ ------,243995,243983,243603.64,243604,243605.14,243996.88,,25,one
screen,html.Screen,2_3_1_0_1_26,2022-04-25T13:27:38.827Z,,,,,,,,,,,,,,,,,12,,,,,,,,,,,,,,314.11999999999534,,response,,,,5,A,,,,,,Space,keypress(Space),,,,silence,,,,---- ------ ------ ------- ------ --- ------- -----------<br>-- ----- --- ---- -- --- ------ ---- - ---- -- ----------<br>-- ------ ---- --- ---- --- day --- ----- -- -------- ---<br>------ ------- -------- --- ---- -- ------- ------------ --<br>------ -- ---- -- --- ---- -- -------- -- --- ------ ------,244312,244311,243995.42,243995,243996.88,244313.6,,26,day
screen,html.Screen,2_3_1_0_1_27,2022-04-25T13:27:39.186Z,,,,,,,,,,,,,,,,,12,,,,,,,,,,,,,,341.3999999999942,,response,,,,5,A,,,,,,Space,keypress(Space),,,,silence,,,,---- ------ ------ ------- ------ --- ------- -----------<br>-- ----- --- ---- -- --- ------ ---- - ---- -- ----------<br>-- ------ ---- --- ---- --- --- and ----- -- -------- ---<br>------ ------- -------- --- ---- -- ------- ------------ --<br>------ -- ---- -- --- ---- -- -------- -- --- ------ ------,244672,244655,244312.52,244313,244313.6,244672,,27,and
screen,html.Screen,2_3_1_0_1_28,2022-04-25T13:27:39.537Z,,,,,,,,,,,,,,,,,12,,,,,,,,,,,,,,342,,response,,,,5,A,,,,,,Space,keypress(Space),,,,silence,,,,---- ------ ------ ------- ------ --- ------- -----------<br>-- ----- --- ---- -- --- ------ ---- - ---- -- ----------<br>-- ------ ---- --- ---- --- --- --- asked -- -------- ---<br>------ ------- -------- --- ---- -- ------- ------------ --<br>------ -- ---- -- --- ---- -- -------- -- --- ------ ------,245023,245014,244671.56,244672,244672,245026.22,,28,asked
screen,html.Screen,2_3_1_0_1_29,2022-04-25T13:27:39.911Z,,,,,,,,,,,,,,,,,12,,,,,,,,,,,,,,362.77999999999884,,response,,,,5,A,,,,,,Space,keypress(Space),,,,silence,,,,---- ------ ------ ------- ------ --- ------- -----------<br>-- ----- --- ---- -- --- ------ ---- - ---- -- ----------<br>-- ------ ---- --- ---- --- --- --- ----- to -------- ---<br>------ ------- -------- --- ---- -- ------- ------------ --<br>------ -- ---- -- --- ---- -- -------- -- --- ------ ------,245397,245389,245022.56,245023,245026.22,245397.12,,29,to
screen,html.Screen,2_3_1_0_1_30,2022-04-25T13:27:40.245Z,,,,,,,,,,,,,,,,,12,,,,,,,,,,,,,,319.88000000000466,,response,,,,5,A,,,,,,Space,keypress(Space),,,,silence,,,,---- ------ ------ ------- ------ --- ------- -----------<br>-- ----- --- ---- -- --- ------ ---- - ---- -- ----------<br>-- ------ ---- --- ---- --- --- --- ----- -- withdraw ---<br>------ ------- -------- --- ---- -- ------- ------------ --<br>------ -- ---- -- --- ---- -- -------- -- --- ------ ------,245731,245717,245396.44,245397,245397.12,245734.68,,30,withdraw
screen,html.Screen,2_3_1_0_1_31,2022-04-25T13:27:40.603Z,,,,,,,,,,,,,,,,,12,,,,,,,,,,,,,,342.320000000007,,response,,,,5,A,,,,,,Space,keypress(Space),,,,silence,,,,---- ------ ------ ------- ------ --- ------- -----------<br>-- ----- --- ---- -- --- ------ ---- - ---- -- ----------<br>-- ------ ---- --- ---- --- --- --- ----- -- -------- his<br>------ ------- -------- --- ---- -- ------- ------------ --<br>------ -- ---- -- --- ---- -- -------- -- --- ------ ------,246088,246077,245730.54,245731,245734.68,246088.92,,31,his
screen,html.Screen,2_3_1_0_1_32,2022-04-25T13:27:40.996Z,,,,,,,,,,,,,,,,,12,,,,,,,,,,,,,,378.0799999999872,,response,,,,5,A,,,,,,Space,keypress(Space),,,,silence,,,,---- ------ ------ ------- ------ --- ------- -----------<br>-- ----- --- ---- -- --- ------ ---- - ---- -- ----------<br>-- ------ ---- --- ---- --- --- --- ----- -- -------- ---<br>entire ------- -------- --- ---- -- ------- ------------ --<br>------ -- ---- -- --- ---- -- -------- -- --- ------ ------,246481,246467,246088.48,246089,246088.92,246484.82,,32,entire
screen,html.Screen,2_3_1_0_1_33,2022-04-25T13:27:41.368Z,,,,,,,,,,,,,,,,,12,,,,,,,,,,,,,,357.179999999993,,response,,,,5,A,,,,,,Space,keypress(Space),,,,silence,,,,---- ------ ------ ------- ------ --- ------- -----------<br>-- ----- --- ---- -- --- ------ ---- - ---- -- ----------<br>-- ------ ---- --- ---- --- --- --- ----- -- -------- ---<br>------ account -------- --- ---- -- ------- ------------ --<br>------ -- ---- -- --- ---- -- -------- -- --- ------ ------,246853,246842,246481.44,246481,246484.82,246855.72,,33,account
screen,html.Screen,2_3_1_0_1_34,2022-04-25T13:27:41.710Z,,,,,,,,,,,,,,,,,12,,,,,,,,,,,,,,330.27999999999884,,response,,,,5,A,,,,,,Space,keypress(Space),,,,silence,,,,"---- ------ ------ ------- ------ --- ------- -----------<br>-- ----- --- ---- -- --- ------ ---- - ---- -- ----------<br>-- ------ ---- --- ---- --- --- --- ----- -- -------- ---<br>------ ------- balance, --- ---- -- ------- ------------ --<br>------ -- ---- -- --- ---- -- -------- -- --- ------ ------",247195,247186,246853.46,246853,246855.72,247197.44,,34,"balance,"
screen,html.Screen,2_3_1_0_1_35,2022-04-25T13:27:42.434Z,,,,,,,,,,,,,,,,,12,,,,,,,,,,,,,,707.5599999999977,,response,,,,5,A,,,,,,Space,keypress(Space),,,,silence,,,,---- ------ ------ ------- ------ --- ------- -----------<br>-- ----- --- ---- -- --- ------ ---- - ---- -- ----------<br>-- ------ ---- --- ---- --- --- --- ----- -- -------- ---<br>------ ------- -------- but ---- -- ------- ------------ --<br>------ -- ---- -- --- ---- -- -------- -- --- ------ ------,247919,247905,247195.52,247195,247197.44,247922.56,,35,but
screen,html.Screen,2_3_1_0_1_36,2022-04-25T13:27:42.683Z,,,,,,,,,,,,,,,,,12,,,,,,,,,,,,,,232.44000000000233,,response,,,,5,A,,,,,,Space,keypress(Space),,,,silence,,,,---- ------ ------ ------- ------ --- ------- -----------<br>-- ----- --- ---- -- --- ------ ---- - ---- -- ----------<br>-- ------ ---- --- ---- --- --- --- ----- -- -------- ---<br>------ ------- -------- --- with -- ------- ------------ --<br>------ -- ---- -- --- ---- -- -------- -- --- ------ ------,248168,248155,247919.5,247919,247922.56,248172.62,,36,with
screen,html.Screen,2_3_1_0_1_37,2022-04-25T13:27:42.954Z,,,,,,,,,,,,,,,,,12,,,,,,,,,,,,,,263.38000000000466,,response,,,,5,A,,,,,,Space,keypress(Space),,,,silence,,,,---- ------ ------ ------- ------ --- ------- -----------<br>-- ----- --- ---- -- --- ------ ---- - ---- -- ----------<br>-- ------ ---- --- ---- --- --- --- ----- -- -------- ---<br>------ ------- -------- --- ---- an ------- ------------ --<br>------ -- ---- -- --- ---- -- -------- -- --- ------ ------,248439,248436,248168.58,248169,248172.62,248443.5,,37,an
screen,html.Screen,2_3_1_0_1_38,2022-04-25T13:27:43.310Z,,,,,,,,,,,,,,,,,12,,,,,,,,,,,,,,336.5,,response,,,,5,A,,,,,,Space,keypress(Space),,,,silence,,,,---- ------ ------ ------- ------ --- ------- -----------<br>-- ----- --- ---- -- --- ------ ---- - ---- -- ----------<br>-- ------ ---- --- ---- --- --- --- ----- -- -------- ---<br>------ ------- -------- --- ---- -- unusual ------------ --<br>------ -- ---- -- --- ---- -- -------- -- --- ------ ------,248795,248780,248439.52,248439,248443.5,248797.72,,38,unusual
screen,html.Screen,2_3_1_0_1_39,2022-04-25T13:27:44.228Z,,,,,,,,,,,,,,,,,12,,,,,,,,,,,,,,904.2799999999988,,response,,,,5,A,,,,,,Space,keypress(Space),,,,silence,,,,---- ------ ------ ------- ------ --- ------- -----------<br>-- ----- --- ---- -- --- ------ ---- - ---- -- ----------<br>-- ------ ---- --- ---- --- --- --- ----- -- -------- ---<br>------ ------- -------- --- ---- -- ------- stipulation: --<br>------ -- ---- -- --- ---- -- -------- -- --- ------ ------,249713,249702,248795.62,248795,248797.72,249714.54,,39,stipulation:
screen,html.Screen,2_3_1_0_1_40,2022-04-25T13:27:44.884Z,,,,,,,,,,,,,,,,,12,,,,,,,,,,,,,,643.4599999999919,,response,,,,5,A,,,,,,Space,keypress(Space),,,,silence,,,,---- ------ ------ ------- ------ --- ------- -----------<br>-- ----- --- ---- -- --- ------ ---- - ---- -- ----------<br>-- ------ ---- --- ---- --- --- --- ----- -- -------- ---<br>------ ------- -------- --- ---- -- ------- ------------ He<br>------ -- ---- -- --- ---- -- -------- -- --- ------ ------,250369,250358,249713.6,249713,249714.54,250368.82,,40,He
screen,html.Screen,2_3_1_0_1_41,2022-04-25T13:27:45.265Z,,,,,,,,,,,,,,,,,12,,,,,,,,,,,,,,380.179999999993,,response,,,,5,A,,,,,,Space,keypress(Space),,,,silence,,,,---- ------ ------ ------- ------ --- ------- -----------<br>-- ----- --- ---- -- --- ------ ---- - ---- -- ----------<br>-- ------ ---- --- ---- --- --- --- ----- -- -------- ---<br>------ ------- -------- --- ---- -- ------- ------------ --<br>wanted -- ---- -- --- ---- -- -------- -- --- ------ ------,250750,250749,250368.78,250369,250368.82,250752.22,,41,wanted
screen,html.Screen,2_3_1_0_1_42,2022-04-25T13:27:45.466Z,,,,,,,,,,,,,,,,,12,,,,,,,,,,,,,,183.77999999999884,,response,,,,5,A,,,,,,Space,keypress(Space),,,,silence,,,,---- ------ ------ ------- ------ --- ------- -----------<br>-- ----- --- ---- -- --- ------ ---- - ---- -- ----------<br>-- ------ ---- --- ---- --- --- --- ----- -- -------- ---<br>------ ------- -------- --- ---- -- ------- ------------ --<br>------ as ---- -- --- ---- -- -------- -- --- ------ ------,250952,250936,250750.52,250750,250752.22,250952.26,,42,as
screen,html.Screen,2_3_1_0_1_43,2022-04-25T13:27:45.822Z,,,,,,,,,,,,,,,,,12,,,,,,,,,,,,,,342.7399999999907,,response,,,,5,A,,,,,,Space,keypress(Space),,,,silence,,,,---- ------ ------ ------- ------ --- ------- -----------<br>-- ----- --- ---- -- --- ------ ---- - ---- -- ----------<br>-- ------ ---- --- ---- --- --- --- ----- -- -------- ---<br>------ ------- -------- --- ---- -- ------- ------------ --<br>------ -- much -- --- ---- -- -------- -- --- ------ ------,251306,251295,250951.52,250952,250952.26,251310.66,,43,much
screen,html.Screen,2_3_1_0_1_44,2022-04-25T13:27:46.157Z,,,,,,,,,,,,,,,,,12,,,,,,,,,,,,,,328.3399999999965,,response,,,,5,A,,,,,,Space,keypress(Space),,,,silence,,,,---- ------ ------ ------- ------ --- ------- -----------<br>-- ----- --- ---- -- --- ------ ---- - ---- -- ----------<br>-- ------ ---- --- ---- --- --- --- ----- -- -------- ---<br>------ ------- -------- --- ---- -- ------- ------------ --<br>------ -- ---- of --- ---- -- -------- -- --- ------ ------,251642,251639,251306.5,251307,251310.66,251644.06,,44,of
screen,html.Screen,2_3_1_0_1_45,2022-04-25T13:27:46.492Z,,,,,,,,,,,,,,,,,12,,,,,,,,,,,,,,322.9400000000023,,response,,,,5,A,,,,,,Space,keypress(Space),,,,silence,,,,---- ------ ------ ------- ------ --- ------- -----------<br>-- ----- --- ---- -- --- ------ ---- - ---- -- ----------<br>-- ------ ---- --- ---- --- --- --- ----- -- -------- ---<br>------ ------- -------- --- ---- -- ------- ------------ --<br>------ -- ---- -- the ---- -- -------- -- --- ------ ------,251977,251967,251642.54,251642,251644.06,251981.62,,45,the
screen,html.Screen,2_3_1_0_1_46,2022-04-25T13:27:47.088Z,,,,,,,,,,,,,,,,,12,,,,,,,,,,,,,,579.3800000000047,,response,,,,5,A,,,,,,Space,keypress(Space),,,,silence,,,,---- ------ ------ ------- ------ --- ------- -----------<br>-- ----- --- ---- -- --- ------ ---- - ---- -- ----------<br>-- ------ ---- --- ---- --- --- --- ----- -- -------- ---<br>------ ------- -------- --- ---- -- ------- ------------ --<br>------ -- ---- -- --- cash -- -------- -- --- ------ ------,252573,252561,251977.46,251977,251981.62,252573.38,,46,cash
screen,html.Screen,2_3_1_0_1_47,2022-04-25T13:27:47.308Z,,,,,,,,,,,,,,,,,12,,,,,,,,,,,,,,206.61999999999534,,response,,,,5,A,,,,,,Space,keypress(Space),,,,silence,,,,---- ------ ------ ------- ------ --- ------- -----------<br>-- ----- --- ---- -- --- ------ ---- - ---- -- ----------<br>-- ------ ---- --- ---- --- --- --- ----- -- -------- ---<br>------ ------- -------- --- ---- -- ------- ------------ --<br>------ -- ---- -- --- ---- as -------- -- --- ------ ------,252793,252780,252573.38,252573,252573.38,252794.26,,47,as
screen,html.Screen,2_3_1_0_1_48,2022-04-25T13:27:47.869Z,,,,,,,,,,,,,,,,,12,,,,,,,,,,,,,,547.7399999999907,,response,,,,5,A,,,,,,Space,keypress(Space),,,,silence,,,,---- ------ ------ ------- ------ --- ------- -----------<br>-- ----- --- ---- -- --- ------ ---- - ---- -- ----------<br>-- ------ ---- --- ---- --- --- --- ----- -- -------- ---<br>------ ------- -------- --- ---- -- ------- ------------ --<br>------ -- ---- -- --- ---- -- possible -- --- ------ ------,253355,253342,252793.3,252793,252794.26,253356.86,,48,possible
screen,html.Screen,2_3_1_0_1_49,2022-04-25T13:27:48.176Z,,,,,,,,,,,,,,,,,12,,,,,,,,,,,,,,298.14000000001397,,response,,,,5,A,,,,,,Space,keypress(Space),,,,silence,,,,---- ------ ------ ------- ------ --- ------- -----------<br>-- ----- --- ---- -- --- ------ ---- - ---- -- ----------<br>-- ------ ---- --- ---- --- --- --- ----- -- -------- ---<br>------ ------- -------- --- ---- -- ------- ------------ --<br>------ -- ---- -- --- ---- -- -------- in --- ------ ------,253662,253655,253354.46,253355,253356.86,253665.24,,49,in
screen,html.Screen,2_3_1_0_1_50,2022-04-25T13:27:48.554Z,,,,,,,,,,,,,,,,,12,,,,,,,,,,,,,,364.7600000000093,,response,,,,5,A,,,,,,Space,keypress(Space),,,,silence,,,,---- ------ ------ ------- ------ --- ------- -----------<br>-- ----- --- ---- -- --- ------ ---- - ---- -- ----------<br>-- ------ ---- --- ---- --- --- --- ----- -- -------- ---<br>------ ------- -------- --- ---- -- ------- ------------ --<br>------ -- ---- -- --- ---- -- -------- -- one ------ ------,254039,254030,253661.44,253662,253665.24,254040.3,,50,one
screen,html.Screen,2_3_1_0_1_51,2022-04-25T13:27:48.941Z,,,,,,,,,,,,,,,,,12,,,,,,,,,,,,,,379.70000000001164,,response,,,,5,A,,,,,,Space,keypress(Space),,,,silence,,,,---- ------ ------ ------- ------ --- ------- -----------<br>-- ----- --- ---- -- --- ------ ---- - ---- -- ----------<br>-- ------ ---- --- ---- --- --- --- ----- -- -------- ---<br>------ ------- -------- --- ---- -- ------- ------------ --<br>------ -- ---- -- --- ---- -- -------- -- --- dollar ------,254427,254420,254039.38,254040,254040.3,254427.88,,51,dollar
screen,html.Screen,2_3_1_0_1_52,2022-04-25T13:27:49.788Z,,,,,,,,,,,,,,,,,12,,,,,,,,,,,,,,836.1199999999953,,response,,,,5,A,,,,,,Space,keypress(Space),,,,silence,,,,---- ------ ------ ------- ------ --- ------- -----------<br>-- ----- --- ---- -- --- ------ ---- - ---- -- ----------<br>-- ------ ---- --- ---- --- --- --- ----- -- -------- ---<br>------ ------- -------- --- ---- -- ------- ------------ --<br>------ -- ---- -- --- ---- -- -------- -- --- ------ notes.,255274,255264,254426.68,254427,254427.88,255273.86,,52,notes.
Item 5,flow.Loop,2_3_1_0_1,2022-04-25T13:27:49.789Z,,,,,,,,,,,,,,,,,,,,,,,,,,,,,,,25442.399999999994,,completion,,,,,,,,,,,,,,,,,,,,,255274,255264,229817.44,229820,229821.6,255273.86,,,
Question 1,html.Screen,2_3_1_0_2,2022-04-25T13:27:53.650Z,,,,,,,,,,,,,,,,,,,,,,,,,,,,true,TRUE,,3849.140000000014,,response,,,,5,A,,,,,,TRUE,click #choice-1,,,,silence,,,,,259136,259123,255273.64,255274,255273.86,259137.04,,,
Question 2,html.Screen,2_3_1_0_3,2022-04-25T13:27:56.750Z,,,,,,,,,,,,,,,,,,,,,,,,,,,,true,TRUE,,3095.959999999992,,response,,,,5,A,,,,,,TRUE,click #choice-1,,,,silence,,,,,262235,262233,259134.92,259136,259137.04,262237.58,,,
Item 5,flow.Sequence,2_3_1_0,2022-04-25T13:27:56.750Z,,,,,,,,,,,,,,,,,,,,,,,,,,,,,,,39412.619999999995,,completion,,,,,,,,,,,,,,,,,,,,,262236,262233,222816.22,222818,222820.38,262237.58,,,
Holding screen,html.Screen,2_3_1_1_0,2022-04-25T13:28:03.751Z,,,,,,,,,,,,,,,,,,,,,,,,,,,,,,,7001.219999999972,,timeout,,,,,,,,,,,,,,,,,,,,,269237,269234.64,262235.26,262236,262237.58,269238.8,,,
screen,html.Screen,2_3_1_1_1_0,2022-04-25T13:28:05.075Z,,,,,,,,,,,,,,,,,51,,,,,,,,,,,,,,1306.2000000000116,,response,,,,13,A,,,,,,Space,keypress(Space),,,,silence,,,,American -------- --- --- ---- --- --- ------ -- --------<br>---- --------- --- ------- ------------ ---------- ---------<br>--- ---------- ------- ---------- ------- -- -------- ----<br>---- --- ------ ----- ------ -- ---- --- ----- -- - -------<br>-------- -- --- --- -- ----- ----------- ----- -----------<br>---- --- ---------- --- ---- --- -- ----------,270560,270545,269234.64,269237,269238.8,270564.04,,0,American
