sender,sender_type,sender_id,timestamp,meta,,Blues,Classical,Country,Dance,Electronic,Folk,Gospel,Hip-Hop,Jazz,Latin,Musical/Film,New-age,Pop,Prolific_id,Provo_ID,R&B,Rap,Reggae,Religious,Rock,Soul,Swing,Traditional,age,artist_name,correct,correctResponse,distraction,duration,education,ended_on,familiarity,gender,headphone_check_performance,item,list,music_frequency,offensiveness,pleasantness,position_correct,preference,response,response_action,snippet_file,song_name,song_rating,sound,stimulus_1,stimulus_2,stimulus_3,text,time_commit,time_end,time_render,time_run,time_show,time_switch,url,word,word_ID
Prolific ID,html.Form,0,2022-05-09T10:27:50.119Z,"{""labjs_version"":""20.2.2"",""labjs_build"":{""flavor"":""production"",""commit"":""a25486e0c714a0ae2ce03ff94b7bb6896854dcfa""},""location"":""https://run.pavlovia.org/mvasilev/prolific3_music_c/"",""userAgent"":""Mozilla/5.0 (Macintosh; Intel Mac OS X 10_15_7) AppleWebKit/605.1.15 (KHTML, like Gecko) Version/15.3 Safari/605.1.15"",""platform"":""MacIntel"",""language"":""en-GB"",""locale"":""en-GB"",""timeZone"":""Europe/London"",""timezoneOffset"":-60,""screen_width"":1440,""screen_height"":900,""scroll_width"":1440,""scroll_height"":677,""window_innerWidth"":1440,""window_innerHeight"":725,""devicePixelRatio"":1}",,,,,,,,,,,,,,,5eff6065cc8d32014292657f,,,,,,,,,,,,,,,8636,,form submission,,,,,,,,,,,,,,,,,,,,,41476,41475,32821,32792,32839,41512,{},,
Introduction,html.Screen,1_0,2022-05-09T10:29:50.206Z,,,,,,,,,,,,,,,,,,,,,,,,,,,,,,,120031.00000000003,,response,,,,,,,,,,,continue,click button,,,,,,,,,161561,161527.00000000003,41496,41476,41512,161582,,,
Volume calibration,html.Screen,1_1,2022-05-09T10:30:08.499Z,,,,,,,,,,,,,,,,,,,,,,,,,,,,,,,18261,,response,,,,,,,,,,,continue,click button,,,,,,,,,179854,179827,161566,161562,161582,179881,,,
Task instructions,html.Screen,1_2,2022-05-09T10:31:00.742Z,,,,,,,,,,,,,,,,,,,,,,,,,,,,,,,52205.00000000003,,response,,,,,,,,,,,continue,click button,,,,,,,,,232096,232069.00000000003,179864,179854,179881,232121,,,
Sounds,html.Screen,1_3_0_0,2022-05-09T10:31:04.996Z,,,,,,,,,,,,,,,,,,,,,,,,,,,,,,,4244,,timeout,,,,,,,,,3,,,,,,,,I,O,S,,236350,236348,232105,232097,232121,236365,,,
Judgement,html.Screen,1_3_0_1,2022-05-09T10:31:07.608Z,,,,,,,,,,,,,,,,,,,,,,,,,,,,true,3,,2588,,response,,,,,,,,,3,,3,click #choice-3,,,,,I,O,S,,238962.00000000003,238936,236348,236350,236365,238987,,,
Trial,flow.Sequence,1_3_0,2022-05-09T10:31:07.609Z,,,,,,,,,,,,,,,,,,,,,,,,,,,,,,,6815,,completion,,,,,,,,,3,,,,,,,,I,O,S,,238963,238936,232105,232097,232121,238987,,,
Sounds,html.Screen,1_3_1_0,2022-05-09T10:31:11.863Z,,,,,,,,,,,,,,,,,,,,,,,,,,,,,,,4246,,timeout,,,,,,,,,1,,,,,,,,S,I,O,,243217,243217,238973,238964,238987,243233,,,
Judgement,html.Screen,1_3_1_1,2022-05-09T10:31:12.573Z,,,,,,,,,,,,,,,,,,,,,,,,,,,,true,1,,683,,response,,,,,,,,,1,,1,click #choice-1,,,,,S,I,O,,243927,243900,243217,243218.00000000003,243233,243953,,,
Trial,flow.Sequence,1_3_1,2022-05-09T10:31:12.573Z,,,,,,,,,,,,,,,,,,,,,,,,,,,,,,,4913,,completion,,,,,,,,,1,,,,,,,,S,I,O,,243927,243900,238973,238964,238987,243953,,,
Sounds,html.Screen,1_3_2_0,2022-05-09T10:31:16.827Z,,,,,,,,,,,,,,,,,,,,,,,,,,,,,,,4244,,timeout,,,,,,,,,2,,,,,,,,I,S,O,,248181,248180,243936,243928,243953,248197,,,
Judgement,html.Screen,1_3_2_1,2022-05-09T10:31:17.654Z,,,,,,,,,,,,,,,,,,,,,,,,,,,,true,2,,801,,response,,,,,,,,,2,,2,click #choice-2,,,,,I,S,O,,249007,248981,248180,248182.00000000003,248197,249033,,,
Trial,flow.Sequence,1_3_2,2022-05-09T10:31:17.654Z,,,,,,,,,,,,,,,,,,,,,,,,,,,,,,,5028,,completion,,,,,,,,,2,,,,,,,,I,S,O,,249008,248981,243936,243928,243953,249033,,,
Sounds,html.Screen,1_3_3_0,2022-05-09T10:31:21.907Z,,,,,,,,,,,,,,,,,,,,,,,,,,,,,,,4245,,timeout,,,,,,,,,2,,,,,,,,O,S,I,,253261,253260,249017,249008,249033,253278,,,
Judgement,html.Screen,1_3_3_1,2022-05-09T10:31:22.405Z,,,,,,,,,,,,,,,,,,,,,,,,,,,,true,2,,472,,response,,,,,,,,,2,,2,click #choice-2,,,,,O,S,I,,253759,253732,253260,253261,253278,253792,,,
Trial,flow.Sequence,1_3_3,2022-05-09T10:31:22.406Z,,,,,,,,,,,,,,,,,,,,,,,,,,,,,,,4699,,completion,,,,,,,,,2,,,,,,,,O,S,I,,253760.00000000003,253732,249017,249008,249033,253792,,,
Sounds,html.Screen,1_3_4_0,2022-05-09T10:31:26.670Z,,,,,,,,,,,,,,,,,,,,,,,,,,,,,,,4248,,timeout,,,,,,,,,3,,,,,,,,O,I,S,,258023.00000000003,258023,253779,253760.00000000003,253792,258040,,,
Judgement,html.Screen,1_3_4_1,2022-05-09T10:31:27.149Z,,,,,,,,,,,,,,,,,,,,,,,,,,,,true,3,,452.0000000000291,,response,,,,,,,,,3,,3,click #choice-3,,,,,O,I,S,,258503,258475.00000000003,258023,258024,258040,258524,,,
Trial,flow.Sequence,1_3_4,2022-05-09T10:31:27.149Z,,,,,,,,,,,,,,,,,,,,,,,,,,,,,,,4683.000000000029,,completion,,,,,,,,,3,,,,,,,,O,I,S,,258503,258475.00000000003,253779,253760.00000000003,253792,258524,,,
Sounds,html.Screen,1_3_5_0,2022-05-09T10:31:31.399Z,,,,,,,,,,,,,,,,,,,,,,,,,,,,,,,4245,,timeout,,,,,,,,,1,,,,,,,,S,O,I,,262753,262752,258508,258503,258524,262769,,,
Judgement,html.Screen,1_3_5_1,2022-05-09T10:31:32.037Z,,,,,,,,,,,,,,,,,,,,,,,,,,,,true,1,,611,,response,,,,,,,,,1,,1,click #choice-1,,,,,S,O,I,,263390,263363,262752,262753,262769,263421,,,
Trial,flow.Sequence,1_3_5,2022-05-09T10:31:32.037Z,,,,,,,,,,,,,,,,,,,,,,,,,,,,,,,4839,,completion,,,,,,,,,1,,,,,,,,S,O,I,,263391,263363,258508,258503,258524,263421,,,
Task,flow.Loop,1_3,2022-05-09T10:31:32.042Z,,,,,,,,,,,,,,,,,,,,,,,,,,,,,,,31242,,completion,,,1,,,,,,,,,,,,,,,,,,263396,263363,232105,232096,232121,263421,,,
Trap,html.Screen,1_4,2022-05-09T10:31:32.045Z,,,,,,,,,,,,,,,,,,,,,,,,,,,,,,,NaN,,skipped,,,,,,,,,,,,,,,,,,,,,263399,263363,,263398,,263421,,,
Thanks,html.Screen,1_5,2022-05-09T10:31:35.467Z,,,,,,,,,,,,,,,,,,,,,,,,,,,,,,,3389,,response,,,,,,,,,,,continue,click button,,,,,,,,,266820,266793,263404,263399,263421,271195,,,
Headphone screening,flow.Sequence,1,2022-05-09T10:31:35.467Z,,,,,,,,,,,,,,,,,,,,,,,,,,,,,,,225281,,completion,,,,,,,,,,,,,,,,,,,,,266821,266793,41496,41476,41512,271195,,,
Instructions,html.Page,2_0,2022-05-09T10:32:43.086Z,,,,,,,,,,,,,,,,,,,,,,,,,,,,,,,63243,,form submission,,,,,,,,,,,,,,,,,,,,,334438,334438,271190,271174,271195,334461,,,
Holding screen,html.Screen,2_1_0_0,2022-05-09T10:32:53.089Z,,,,,,,,,,,,,,,,,,,,,,,,,,,,,,,10010,,timeout,,,,,,,,,,,,,,,,,,,,,344441.00000000006,344438,334444,334439,334461,344471,,,
screen,html.Screen,2_1_0_1_0,2022-05-09T10:32:53.787Z,,,,,,,,,,,,,,,,,53,,,,,,,,,,,,,,668,,response,,,,99,,,,,,,Space,keypress(Space),,,,,,,,When -- ----- -- ------ - ------- --- ----------<br>------------- ------ ------ ---- ---- ------- ----- -- ----<br>-------- ------- -- ---------- --- - --- ----- ----- ----<br>---- --- --- ----- --- ---- ---- ------- ----- ---- -------<br>--- --- -- ----- -- --- ---- -- --- ---- -- ------ ------<br>--- ----- -- ----,345139,345106,344438,344442,344471,345173,,0,When
screen,html.Screen,2_1_0_1_1,2022-05-09T10:32:54.198Z,,,,,,,,,,,,,,,,,53,,,,,,,,,,,,,,363,,response,,,,99,,,,,,,Space,keypress(Space),,,,,,,,---- it ----- -- ------ - ------- --- ----------<br>------------- ------ ------ ---- ---- ------- ----- -- ----<br>-------- ------- -- ---------- --- - --- ----- ----- ----<br>---- --- --- ----- --- ---- ---- ------- ----- ---- -------<br>--- --- -- ----- -- --- ---- -- --- ---- -- ------ ------<br>--- ----- -- ----,345551,345520,345157,345140,345173,345590,,1,it
screen,html.Screen,2_1_0_1_2,2022-05-09T10:32:54.652Z,,,,,,,,,,,,,,,,,53,,,,,,,,,,,,,,400,,response,,,,99,,,,,,,Space,keypress(Space),,,,,,,,---- -- comes -- ------ - ------- --- ----------<br>------------- ------ ------ ---- ---- ------- ----- -- ----<br>-------- ------- -- ---------- --- - --- ----- ----- ----<br>---- --- --- ----- --- ---- ---- ------- ----- ---- -------<br>--- --- -- ----- -- --- ---- -- --- ---- -- ------ ------<br>--- ----- -- ----,346005,345975,345575,345551,345590,346042,,2,comes
screen,html.Screen,2_1_0_1_3,2022-05-09T10:32:55.538Z,,,,,,,,,,,,,,,,,53,,,,,,,,,,,,,,834,,response,,,,99,,,,,,,Space,keypress(Space),,,,,,,,---- -- ----- to ------ - ------- --- ----------<br>------------- ------ ------ ---- ---- ------- ----- -- ----<br>-------- ------- -- ---------- --- - --- ----- ----- ----<br>---- --- --- ----- --- ---- ---- ------- ----- ---- -------<br>--- --- -- ----- -- --- ---- -- --- ---- -- ------ ------<br>--- ----- -- ----,346890,346860,346026,346005,346042,346928,,3,to
screen,html.Screen,2_1_0_1_4,2022-05-09T10:32:55.960Z,,,,,,,,,,,,,,,,,53,,,,,,,,,,,,,,371,,response,,,,99,,,,,,,Space,keypress(Space),,,,,,,,---- -- ----- -- having - ------- --- ----------<br>------------- ------ ------ ---- ---- ------- ----- -- ----<br>-------- ------- -- ---------- --- - --- ----- ----- ----<br>---- --- --- ----- --- ---- ---- ------- ----- ---- -------<br>--- --- -- ----- -- --- ---- -- --- ---- -- ------ ------<br>--- ----- -- ----,347312,347282,346911,346891,346928,347346,,4,having
screen,html.Screen,2_1_0_1_5,2022-05-09T10:32:56.352Z,,,,,,,,,,,,,,,,,53,,,,,,,,,,,,,,345.0000000000582,,response,,,,99,,,,,,,Space,keypress(Space),,,,,,,,---- -- ----- -- ------ a ------- --- ----------<br>------------- ------ ------ ---- ---- ------- ----- -- ----<br>-------- ------- -- ---------- --- - --- ----- ----- ----<br>---- --- --- ----- --- ---- ---- ------- ----- ---- -------<br>--- --- -- ----- -- --- ---- -- --- ---- -- ------ ------<br>--- ----- -- ----,347704,347674.00000000006,347329,347313,347346,347730,,5,a
screen,html.Screen,2_1_0_1_6,2022-05-09T10:32:56.719Z,,,,,,,,,,,,,,,,,53,,,,,,,,,,,,,,327,,response,,,,99,,,,,,,Space,keypress(Space),,,,,,,,---- -- ----- -- ------ - lasting --- ----------<br>------------- ------ ------ ---- ---- ------- ----- -- ----<br>-------- ------- -- ---------- --- - --- ----- ----- ----<br>---- --- --- ----- --- ---- ---- ------- ----- ---- -------<br>--- --- -- ----- -- --- ---- -- --- ---- -- ------ ------<br>--- ----- -- ----,348071,348040,347713,347705,347730,348097,,6,lasting
screen,html.Screen,2_1_0_1_7,2022-05-09T10:32:57.151Z,,,,,,,,,,,,,,,,,53,,,,,,,,,,,,,,391,,response,,,,99,,,,,,,Space,keypress(Space),,,,,,,,---- -- ----- -- ------ - ------- and ----------<br>------------- ------ ------ ---- ---- ------- ----- -- ----<br>-------- ------- -- ---------- --- - --- ----- ----- ----<br>---- --- --- ----- --- ---- ---- ------- ----- ---- -------<br>--- --- -- ----- -- --- ---- -- --- ---- -- ------ ------<br>--- ----- -- ----,348503,348472,348081,348072,348097,348531,,7,and
screen,html.Screen,2_1_0_1_8,2022-05-09T10:32:57.607Z,,,,,,,,,,,,,,,,,53,,,,,,,,,,,,,,412,,response,,,,99,,,,,,,Space,keypress(Space),,,,,,,,---- -- ----- -- ------ - ------- --- fulfilling<br>------------- ------ ------ ---- ---- ------- ----- -- ----<br>-------- ------- -- ---------- --- - --- ----- ----- ----<br>---- --- --- ----- --- ---- ---- ------- ----- ---- -------<br>--- --- -- ----- -- --- ---- -- --- ---- -- ------ ------<br>--- ----- -- ----,348959,348928,348516,348503,348531,349000,,8,fulfilling
screen,html.Screen,2_1_0_1_9,2022-05-09T10:32:58.405Z,,,,,,,,,,,,,,,,,53,,,,,,,,,,,,,,742,,response,,,,99,,,,,,,Space,keypress(Space),,,,,,,,"---- -- ----- -- ------ - ------- --- ----------<br>relationship, ------ ------ ---- ---- ------- ----- -- ----<br>-------- ------- -- ---------- --- - --- ----- ----- ----<br>---- --- --- ----- --- ---- ---- ------- ----- ---- -------<br>--- --- -- ----- -- --- ---- -- --- ---- -- ------ ------<br>--- ----- -- ----",349758,349726,348984,348960,349000,349786,,9,"relationship,"
screen,html.Screen,2_1_0_1_10,2022-05-09T10:32:59.430Z,,,,,,,,,,,,,,,,,53,,,,,,,,,,,,,,982.0000000000582,,response,,,,99,,,,,,,Space,keypress(Space),,,,,,,,---- -- ----- -- ------ - ------- --- ----------<br>------------- common ------ ---- ---- ------- ----- -- ----<br>-------- ------- -- ---------- --- - --- ----- ----- ----<br>---- --- --- ----- --- ---- ---- ------- ----- ---- -------<br>--- --- -- ----- -- --- ---- -- --- ---- -- ------ ------<br>--- ----- -- ----,350782,350751.00000000006,349769,349758,349786,350822,,10,common
screen,html.Screen,2_1_0_1_11,2022-05-09T10:33:00.103Z,,,,,,,,,,,,,,,,,53,,,,,,,,,,,,,,619.0000000000582,,response,,,,99,,,,,,,Space,keypress(Space),,,,,,,,---- -- ----- -- ------ - ------- --- ----------<br>------------- ------ wisdom ---- ---- ------- ----- -- ----<br>-------- ------- -- ---------- --- - --- ----- ----- ----<br>---- --- --- ----- --- ---- ---- ------- ----- ---- -------<br>--- --- -- ----- -- --- ---- -- --- ---- -- ------ ------<br>--- ----- -- ----,351456,351424.00000000006,350805,350783,350822,351490,,11,wisdom
screen,html.Screen,2_1_0_1_12,2022-05-09T10:33:00.581Z,,,,,,,,,,,,,,,,,53,,,,,,,,,,,,,,429,,response,,,,99,,,,,,,Space,keypress(Space),,,,,,,,---- -- ----- -- ------ - ------- --- ----------<br>------------- ------ ------ says ---- ------- ----- -- ----<br>-------- ------- -- ---------- --- - --- ----- ----- ----<br>---- --- --- ----- --- ---- ---- ------- ----- ---- -------<br>--- --- -- ----- -- --- ---- -- --- ---- -- ------ ------<br>--- ----- -- ----,351934,351903,351474,351456,351490,351975,,12,says
screen,html.Screen,2_1_0_1_13,2022-05-09T10:33:00.940Z,,,,,,,,,,,,,,,,,53,,,,,,,,,,,,,,304,,response,,,,99,,,,,,,Space,keypress(Space),,,,,,,,---- -- ----- -- ------ - ------- --- ----------<br>------------- ------ ------ ---- that ------- ----- -- ----<br>-------- ------- -- ---------- --- - --- ----- ----- ----<br>---- --- --- ----- --- ---- ---- ------- ----- ---- -------<br>--- --- -- ----- -- --- ---- -- --- ---- -- ------ ------<br>--- ----- -- ----,352293,352262,351958,351934,351975,352326,,13,that
screen,html.Screen,2_1_0_1_14,2022-05-09T10:33:01.429Z,,,,,,,,,,,,,,,,,53,,,,,,,,,,,,,,442.0000000000582,,response,,,,99,,,,,,,Space,keypress(Space),,,,,,,,---- -- ----- -- ------ - ------- --- ----------<br>------------- ------ ------ ---- ---- feeling ----- -- ----<br>-------- ------- -- ---------- --- - --- ----- ----- ----<br>---- --- --- ----- --- ---- ---- ------- ----- ---- -------<br>--- --- -- ----- -- --- ---- -- --- ---- -- ------ ------<br>--- ----- -- ----,352781,352751.00000000006,352309,352293,352326,352810,,14,feeling
screen,html.Screen,2_1_0_1_15,2022-05-09T10:33:01.834Z,,,,,,,,,,,,,,,,,53,,,,,,,,,,,,,,361.0000000000582,,response,,,,99,,,,,,,Space,keypress(Space),,,,,,,,---- -- ----- -- ------ - ------- --- ----------<br>------------- ------ ------ ---- ---- ------- close -- ----<br>-------- ------- -- ---------- --- - --- ----- ----- ----<br>---- --- --- ----- --- ---- ---- ------- ----- ---- -------<br>--- --- -- ----- -- --- ---- -- --- ---- -- ------ ------<br>--- ----- -- ----,353186.00000000006,353155.00000000006,352794,352781,352810,353227,,15,close
screen,html.Screen,2_1_0_1_16,2022-05-09T10:33:02.426Z,,,,,,,,,,,,,,,,,53,,,,,,,,,,,,,,536,,response,,,,99,,,,,,,Space,keypress(Space),,,,,,,,---- -- ----- -- ------ - ------- --- ----------<br>------------- ------ ------ ---- ---- ------- ----- to ----<br>-------- ------- -- ---------- --- - --- ----- ----- ----<br>---- --- --- ----- --- ---- ---- ------- ----- ---- -------<br>--- --- -- ----- -- --- ---- -- --- ---- -- ------ ------<br>--- ----- -- ----,353779,353748,353212,353186.00000000006,353227,353813,,16,to
screen,html.Screen,2_1_0_1_17,2022-05-09T10:33:05.733Z,,,,,,,,,,,,,,,,,53,,,,,,,,,,,,,,3257.000000000058,,response,,,,99,,,,,,,Space,keypress(Space),,,,,,,,---- -- ----- -- ------ - ------- --- ----------<br>------------- ------ ------ ---- ---- ------- ----- -- your<br>-------- ------- -- ---------- --- - --- ----- ----- ----<br>---- --- --- ----- --- ---- ---- ------- ----- ---- -------<br>--- --- -- ----- -- --- ---- -- --- ---- -- ------ ------<br>--- ----- -- ----,357085,357054.00000000006,353797,353779,353813,357121,,17,your
screen,html.Screen,2_1_0_1_18,2022-05-09T10:33:06.217Z,,,,,,,,,,,,,,,,,53,,,,,,,,,,,,,,434,,response,,,,99,,,,,,,Space,keypress(Space),,,,,,,,---- -- ----- -- ------ - ------- --- ----------<br>------------- ------ ------ ---- ---- ------- ----- -- ----<br>romantic ------- -- ---------- --- - --- ----- ----- ----<br>---- --- --- ----- --- ---- ---- ------- ----- ---- -------<br>--- --- -- ----- -- --- ---- -- --- ---- -- ------ ------<br>--- ----- -- ----,357570,357539,357105,357085,357121,357607,,18,romantic
screen,html.Screen,2_1_0_1_19,2022-05-09T10:33:07.092Z,,,,,,,,,,,,,,,,,53,,,,,,,,,,,,,,823,,response,,,,99,,,,,,,Space,keypress(Space),,,,,,,,---- -- ----- -- ------ - ------- --- ----------<br>------------- ------ ------ ---- ---- ------- ----- -- ----<br>-------- partner -- ---------- --- - --- ----- ----- ----<br>---- --- --- ----- --- ---- ---- ------- ----- ---- -------<br>--- --- -- ----- -- --- ---- -- --- ---- -- ------ ------<br>--- ----- -- ----,358445,358413,357590,357570,357607,358476,,19,partner
screen,html.Screen,2_1_0_1_20,2022-05-09T10:33:07.564Z,,,,,,,,,,,,,,,,,53,,,,,,,,,,,,,,428,,response,,,,99,,,,,,,Space,keypress(Space),,,,,,,,---- -- ----- -- ------ - ------- --- ----------<br>------------- ------ ------ ---- ---- ------- ----- -- ----<br>-------- ------- is ---------- --- - --- ----- ----- ----<br>---- --- --- ----- --- ---- ---- ------- ----- ---- -------<br>--- --- -- ----- -- --- ---- -- --- ---- -- ------ ------<br>--- ----- -- ----,358917.00000000006,358887,358459,358445,358476,358960,,20,is
screen,html.Screen,2_1_0_1_21,2022-05-09T10:35:38.316Z,,,,,,,,,,,,,,,,,53,,,,,,,,,,,,,,150514,,response,,,,99,,,,,,,Space,keypress(Space),,,,,,,,---- -- ----- -- ------ - ------- --- ----------<br>------------- ------ ------ ---- ---- ------- ----- -- ----<br>-------- ------- -- paramount. --- - --- ----- ----- ----<br>---- --- --- ----- --- ---- ---- ------- ----- ---- -------<br>--- --- -- ----- -- --- ---- -- --- ---- -- ------ ------<br>--- ----- -- ----,509469,509458,358944,358917.00000000006,358960,509507,,21,paramount.
screen,html.Screen,2_1_0_1_22,2022-05-09T10:35:38.913Z,,,,,,,,,,,,,,,,,53,,,,,,,,,,,,,,563,,response,,,,99,,,,,,,Space,keypress(Space),,,,,,,,---- -- ----- -- ------ - ------- --- ----------<br>------------- ------ ------ ---- ---- ------- ----- -- ----<br>-------- ------- -- ---------- But - --- ----- ----- ----<br>---- --- --- ----- --- ---- ---- ------- ----- ---- -------<br>--- --- -- ----- -- --- ---- -- --- ---- -- ------ ------<br>--- ----- -- ----,510066.00000000006,510059,509496,509470,509507,510097,,22,But
screen,html.Screen,2_1_0_1_23,2022-05-09T10:35:39.307Z,,,,,,,,,,,,,,,,,53,,,,,,,,,,,,,,373,,response,,,,99,,,,,,,Space,keypress(Space),,,,,,,,---- -- ----- -- ------ - ------- --- ----------<br>------------- ------ ------ ---- ---- ------- ----- -- ----<br>-------- ------- -- ---------- --- a --- ----- ----- ----<br>---- --- --- ----- --- ---- ---- ------- ----- ---- -------<br>--- --- -- ----- -- --- ---- -- --- ---- -- ------ ------<br>--- ----- -- ----,510460.00000000006,510454,510081,510066.00000000006,510097,510481,,23,a
screen,html.Screen,2_1_0_1_24,2022-05-09T10:35:39.610Z,,,,,,,,,,,,,,,,,53,,,,,,,,,,,,,,292,,response,,,,99,,,,,,,Space,keypress(Space),,,,,,,,---- -- ----- -- ------ - ------- --- ----------<br>------------- ------ ------ ---- ---- ------- ----- -- ----<br>-------- ------- -- ---------- --- - new ----- ----- ----<br>---- --- --- ----- --- ---- ---- ------- ----- ---- -------<br>--- --- -- ----- -- --- ---- -- --- ---- -- ------ ------<br>--- ----- -- ----,510763.00000000006,510757,510465,510461,510481,510782,,24,new
screen,html.Screen,2_1_0_1_25,2022-05-09T10:35:39.939Z,,,,,,,,,,,,,,,,,53,,,,,,,,,,,,,,320.0000000000582,,response,,,,99,,,,,,,Space,keypress(Space),,,,,,,,---- -- ----- -- ------ - ------- --- ----------<br>------------- ------ ------ ---- ---- ------- ----- -- ----<br>-------- ------- -- ---------- --- - --- study ----- ----<br>---- --- --- ----- --- ---- ---- ------- ----- ---- -------<br>--- --- -- ----- -- --- ---- -- --- ---- -- ------ ------<br>--- ----- -- ----,511091,511085.00000000006,510765,510763.00000000006,510782,511116,,25,study
screen,html.Screen,2_1_0_1_26,2022-05-09T10:35:40.254Z,,,,,,,,,,,,,,,,,53,,,,,,,,,,,,,,301,,response,,,,99,,,,,,,Space,keypress(Space),,,,,,,,---- -- ----- -- ------ - ------- --- ----------<br>------------- ------ ------ ---- ---- ------- ----- -- ----<br>-------- ------- -- ---------- --- - --- ----- finds ----<br>---- --- --- ----- --- ---- ---- ------- ----- ---- -------<br>--- --- -- ----- -- --- ---- -- --- ---- -- ------ ------<br>--- ----- -- ----,511407,511401,511100,511092,511116,511434,,26,finds
screen,html.Screen,2_1_0_1_27,2022-05-09T10:35:40.582Z,,,,,,,,,,,,,,,,,53,,,,,,,,,,,,,,310.0000000000582,,response,,,,99,,,,,,,Space,keypress(Space),,,,,,,,---- -- ----- -- ------ - ------- --- ----------<br>------------- ------ ------ ---- ---- ------- ----- -- ----<br>-------- ------- -- ---------- --- - --- ----- ----- that<br>---- --- --- ----- --- ---- ---- ------- ----- ---- -------<br>--- --- -- ----- -- --- ---- -- --- ---- -- ------ ------<br>--- ----- -- ----,511735,511727.00000000006,511417,511408,511434,511768,,27,that
screen,html.Screen,2_1_0_1_28,2022-05-09T10:35:41.049Z,,,,,,,,,,,,,,,,,53,,,,,,,,,,,,,,444,,response,,,,99,,,,,,,Space,keypress(Space),,,,,,,,---- -- ----- -- ------ - ------- --- ----------<br>------------- ------ ------ ---- ---- ------- ----- -- ----<br>-------- ------- -- ---------- --- - --- ----- ----- ----<br>it's --- --- ----- --- ---- ---- ------- ----- ---- -------<br>--- --- -- ----- -- --- ---- -- --- ---- -- ------ ------<br>--- ----- -- ----,512202,512196,511752,511735,511768,512236,,28,it's
screen,html.Screen,2_1_0_1_29,2022-05-09T10:35:41.387Z,,,,,,,,,,,,,,,,,53,,,,,,,,,,,,,,313,,response,,,,99,,,,,,,Space,keypress(Space),,,,,,,,---- -- ----- -- ------ - ------- --- ----------<br>------------- ------ ------ ---- ---- ------- ----- -- ----<br>-------- ------- -- ---------- --- - --- ----- ----- ----<br>---- not --- ----- --- ---- ---- ------- ----- ---- -------<br>--- --- -- ----- -- --- ---- -- --- ---- -- ------ ------<br>--- ----- -- ----,512539.99999999994,512533,512220,512202,512236,512571,,29,not
screen,html.Screen,2_1_0_1_30,2022-05-09T10:35:41.767Z,,,,,,,,,,,,,,,,,53,,,,,,,,,,,,,,360,,response,,,,99,,,,,,,Space,keypress(Space),,,,,,,,---- -- ----- -- ------ - ------- --- ----------<br>------------- ------ ------ ---- ---- ------- ----- -- ----<br>-------- ------- -- ---------- --- - --- ----- ----- ----<br>---- --- how ----- --- ---- ---- ------- ----- ---- -------<br>--- --- -- ----- -- --- ---- -- --- ---- -- ------ ------<br>--- ----- -- ----,512919.99999999994,512914,512554,512539.99999999994,512571,512955,,30,how
screen,html.Screen,2_1_0_1_31,2022-05-09T10:35:42.110Z,,,,,,,,,,,,,,,,,53,,,,,,,,,,,,,,318,,response,,,,99,,,,,,,Space,keypress(Space),,,,,,,,---- -- ----- -- ------ - ------- --- ----------<br>------------- ------ ------ ---- ---- ------- ----- -- ----<br>-------- ------- -- ---------- --- - --- ----- ----- ----<br>---- --- --- close --- ---- ---- ------- ----- ---- -------<br>--- --- -- ----- -- --- ---- -- --- ---- -- ------ ------<br>--- ----- -- ----,513262.00000000006,513256,512938,512919.99999999994,512955,513289,,31,close
screen,html.Screen,2_1_0_1_32,2022-05-09T10:35:42.418Z,,,,,,,,,,,,,,,,,53,,,,,,,,,,,,,,293.0000000000582,,response,,,,99,,,,,,,Space,keypress(Space),,,,,,,,---- -- ----- -- ------ - ------- --- ----------<br>------------- ------ ------ ---- ---- ------- ----- -- ----<br>-------- ------- -- ---------- --- - --- ----- ----- ----<br>---- --- --- ----- you ---- ---- ------- ----- ---- -------<br>--- --- -- ----- -- --- ---- -- --- ---- -- ------ ------<br>--- ----- -- ----,513571,513565.00000000006,513272,513263.00000000006,513289,513590,,32,you
screen,html.Screen,2_1_0_1_33,2022-05-09T10:35:42.750Z,,,,,,,,,,,,,,,,,53,,,,,,,,,,,,,,325,,response,,,,99,,,,,,,Space,keypress(Space),,,,,,,,---- -- ----- -- ------ - ------- --- ----------<br>------------- ------ ------ ---- ---- ------- ----- -- ----<br>-------- ------- -- ---------- --- - --- ----- ----- ----<br>---- --- --- ----- --- feel ---- ------- ----- ---- -------<br>--- --- -- ----- -- --- ---- -- --- ---- -- ------ ------<br>--- ----- -- ----,513903,513898,513573,513571,513590,513924,,33,feel
screen,html.Screen,2_1_0_1_34,2022-05-09T10:35:43.023Z,,,,,,,,,,,,,,,,,53,,,,,,,,,,,,,,262.9999999999418,,response,,,,99,,,,,,,Space,keypress(Space),,,,,,,,---- -- ----- -- ------ - ------- --- ----------<br>------------- ------ ------ ---- ---- ------- ----- -- ----<br>-------- ------- -- ---------- --- - --- ----- ----- ----<br>---- --- --- ----- --- ---- that ------- ----- ---- -------<br>--- --- -- ----- -- --- ---- -- --- ---- -- ------ ------<br>--- ----- -- ----,514176.00000000006,514169.99999999994,513907,513903,513924,514208,,34,that
screen,html.Screen,2_1_0_1_35,2022-05-09T10:35:43.402Z,,,,,,,,,,,,,,,,,53,,,,,,,,,,,,,,358.9999999999418,,response,,,,99,,,,,,,Space,keypress(Space),,,,,,,,---- -- ----- -- ------ - ------- --- ----------<br>------------- ------ ------ ---- ---- ------- ----- -- ----<br>-------- ------- -- ---------- --- - --- ----- ----- ----<br>---- --- --- ----- --- ---- ---- matters ----- ---- -------<br>--- --- -- ----- -- --- ---- -- --- ---- -- ------ ------<br>--- ----- -- ----,514555.00000000006,514549.99999999994,514191,514176.00000000006,514208,514576,,35,matters
screen,html.Screen,2_1_0_1_36,2022-05-09T10:35:43.693Z,,,,,,,,,,,,,,,,,53,,,,,,,,,,,,,,283,,response,,,,99,,,,,,,Space,keypress(Space),,,,,,,,"---- -- ----- -- ------ - ------- --- ----------<br>------------- ------ ------ ---- ---- ------- ----- -- ----<br>-------- ------- -- ---------- --- - --- ----- ----- ----<br>---- --- --- ----- --- ---- ---- ------- most, ---- -------<br>--- --- -- ----- -- --- ---- -- --- ---- -- ------ ------<br>--- ----- -- ----",514846,514841,514558,514555.00000000006,514576,514875,,36,"most,"
screen,html.Screen,2_1_0_1_37,2022-05-09T10:35:44.019Z,,,,,,,,,,,,,,,,,53,,,,,,,,,,,,,,305,,response,,,,99,,,,,,,Space,keypress(Space),,,,,,,,---- -- ----- -- ------ - ------- --- ----------<br>------------- ------ ------ ---- ---- ------- ----- -- ----<br>-------- ------- -- ---------- --- - --- ----- ----- ----<br>---- --- --- ----- --- ---- ---- ------- ----- it's -------<br>--- --- -- ----- -- --- ---- -- --- ---- -- ------ ------<br>--- ----- -- ----,515172,515164,514859,514846,514875,515194,,37,it's
screen,html.Screen,2_1_0_1_38,2022-05-09T10:35:44.302Z,,,,,,,,,,,,,,,,,53,,,,,,,,,,,,,,271,,response,,,,99,,,,,,,Space,keypress(Space),,,,,,,,---- -- ----- -- ------ - ------- --- ----------<br>------------- ------ ------ ---- ---- ------- ----- -- ----<br>-------- ------- -- ---------- --- - --- ----- ----- ----<br>---- --- --- ----- --- ---- ---- ------- ----- ---- whether<br>--- --- -- ----- -- --- ---- -- --- ---- -- ------ ------<br>--- ----- -- ----,515455.00000000006,515448,515177,515172,515194,515478,,38,whether
screen,html.Screen,2_1_0_1_39,2022-05-09T10:35:44.569Z,,,,,,,,,,,,,,,,,53,,,,,,,,,,,,,,254.0000000000582,,response,,,,99,,,,,,,Space,keypress(Space),,,,,,,,---- -- ----- -- ------ - ------- --- ----------<br>------------- ------ ------ ---- ---- ------- ----- -- ----<br>-------- ------- -- ---------- --- - --- ----- ----- ----<br>---- --- --- ----- --- ---- ---- ------- ----- ---- -------<br>you --- -- ----- -- --- ---- -- --- ---- -- ------ ------<br>--- ----- -- ----,515722,515715.00000000006,515461,515455.00000000006,515478,515745,,39,you
screen,html.Screen,2_1_0_1_40,2022-05-09T10:35:45.000Z,,,,,,,,,,,,,,,,,53,,,,,,,,,,,,,,417.9999999999418,,response,,,,99,,,,,,,Space,keypress(Space),,,,,,,,---- -- ----- -- ------ - ------- --- ----------<br>------------- ------ ------ ---- ---- ------- ----- -- ----<br>-------- ------- -- ---------- --- - --- ----- ----- ----<br>---- --- --- ----- --- ---- ---- ------- ----- ---- -------<br>--- are -- ----- -- --- ---- -- --- ---- -- ------ ------<br>--- ----- -- ----,516152.00000000006,516145.99999999994,515728,515722,515745,516181,,40,are
screen,html.Screen,2_1_0_1_41,2022-05-09T10:35:45.362Z,,,,,,,,,,,,,,,,,53,,,,,,,,,,,,,,344.0000000000582,,response,,,,99,,,,,,,Space,keypress(Space),,,,,,,,---- -- ----- -- ------ - ------- --- ----------<br>------------- ------ ------ ---- ---- ------- ----- -- ----<br>-------- ------- -- ---------- --- - --- ----- ----- ----<br>---- --- --- ----- --- ---- ---- ------- ----- ---- -------<br>--- --- as ----- -- --- ---- -- --- ---- -- ------ ------<br>--- ----- -- ----,516514,516507.00000000006,516163,516153,516181,516548,,41,as
screen,html.Screen,2_1_0_1_42,2022-05-09T10:35:45.953Z,,,,,,,,,,,,,,,,,53,,,,,,,,,,,,,,569.0000000000582,,response,,,,99,,,,,,,Space,keypress(Space),,,,,,,,---- -- ----- -- ------ - ------- --- ----------<br>------------- ------ ------ ---- ---- ------- ----- -- ----<br>-------- ------- -- ---------- --- - --- ----- ----- ----<br>---- --- --- ----- --- ---- ---- ------- ----- ---- -------<br>--- --- -- close -- --- ---- -- --- ---- -- ------ ------<br>--- ----- -- ----,517106,517099.00000000006,516530,516515,516548,517149,,42,close
screen,html.Screen,2_1_0_1_43,2022-05-09T10:35:46.337Z,,,,,,,,,,,,,,,,,53,,,,,,,,,,,,,,351.0000000000582,,response,,,,99,,,,,,,Space,keypress(Space),,,,,,,,---- -- ----- -- ------ - ------- --- ----------<br>------------- ------ ------ ---- ---- ------- ----- -- ----<br>-------- ------- -- ---------- --- - --- ----- ----- ----<br>---- --- --- ----- --- ---- ---- ------- ----- ---- -------<br>--- --- -- ----- as --- ---- -- --- ---- -- ------ ------<br>--- ----- -- ----,517490,517483.00000000006,517132,517106,517149,517517,,43,as
screen,html.Screen,2_1_0_1_44,2022-05-09T10:35:46.819Z,,,,,,,,,,,,,,,,,53,,,,,,,,,,,,,,464.0000000000582,,response,,,,99,,,,,,,Space,keypress(Space),,,,,,,,---- -- ----- -- ------ - ------- --- ----------<br>------------- ------ ------ ---- ---- ------- ----- -- ----<br>-------- ------- -- ---------- --- - --- ----- ----- ----<br>---- --- --- ----- --- ---- ---- ------- ----- ---- -------<br>--- --- -- ----- -- you ---- -- --- ---- -- ------ ------<br>--- ----- -- ----,517972,517964.00000000006,517500,517490,517517,518002,,44,you
screen,html.Screen,2_1_0_1_45,2022-05-09T10:35:47.175Z,,,,,,,,,,,,,,,,,53,,,,,,,,,,,,,,337,,response,,,,99,,,,,,,Space,keypress(Space),,,,,,,,---- -- ----- -- ------ - ------- --- ----------<br>------------- ------ ------ ---- ---- ------- ----- -- ----<br>-------- ------- -- ---------- --- - --- ----- ----- ----<br>---- --- --- ----- --- ---- ---- ------- ----- ---- -------<br>--- --- -- ----- -- --- want -- --- ---- -- ------ ------<br>--- ----- -- ----,518328,518322,517985,517972,518002,518352,,45,want
screen,html.Screen,2_1_0_1_46,2022-05-09T10:35:47.460Z,,,,,,,,,,,,,,,,,53,,,,,,,,,,,,,,270,,response,,,,99,,,,,,,Space,keypress(Space),,,,,,,,---- -- ----- -- ------ - ------- --- ----------<br>------------- ------ ------ ---- ---- ------- ----- -- ----<br>-------- ------- -- ---------- --- - --- ----- ----- ----<br>---- --- --- ----- --- ---- ---- ------- ----- ---- -------<br>--- --- -- ----- -- --- ---- to --- ---- -- ------ ------<br>--- ----- -- ----,518613.00000000006,518606,518336,518328,518352,518636,,46,to
screen,html.Screen,2_1_0_1_47,2022-05-09T10:35:47.799Z,,,,,,,,,,,,,,,,,53,,,,,,,,,,,,,,325.0000000000582,,response,,,,99,,,,,,,Space,keypress(Space),,,,,,,,"---- -- ----- -- ------ - ------- --- ----------<br>------------- ------ ------ ---- ---- ------- ----- -- ----<br>-------- ------- -- ---------- --- - --- ----- ----- ----<br>---- --- --- ----- --- ---- ---- ------- ----- ---- -------<br>--- --- -- ----- -- --- ---- -- be, ---- -- ------ ------<br>--- ----- -- ----",518952,518945.00000000006,518620,518613.00000000006,518636,518971,,47,"be,"
screen,html.Screen,2_1_0_1_48,2022-05-09T10:35:48.131Z,,,,,,,,,,,,,,,,,53,,,,,,,,,,,,,,321,,response,,,,99,,,,,,,Space,keypress(Space),,,,,,,,---- -- ----- -- ------ - ------- --- ----------<br>------------- ------ ------ ---- ---- ------- ----- -- ----<br>-------- ------- -- ---------- --- - --- ----- ----- ----<br>---- --- --- ----- --- ---- ---- ------- ----- ---- -------<br>--- --- -- ----- -- --- ---- -- --- even -- ------ ------<br>--- ----- -- ----,519284,519275,518954,518952,518971,519305,,48,even
screen,html.Screen,2_1_0_1_49,2022-05-09T10:35:48.562Z,,,,,,,,,,,,,,,,,53,,,,,,,,,,,,,,419,,response,,,,99,,,,,,,Space,keypress(Space),,,,,,,,---- -- ----- -- ------ - ------- --- ----------<br>------------- ------ ------ ---- ---- ------- ----- -- ----<br>-------- ------- -- ---------- --- - --- ----- ----- ----<br>---- --- --- ----- --- ---- ---- ------- ----- ---- -------<br>--- --- -- ----- -- --- ---- -- --- ---- if ------ ------<br>--- ----- -- ----,519714.00000000006,519707,519288,519284,519305,519756,,49,if
screen,html.Screen,2_1_0_1_50,2022-05-09T10:35:48.867Z,,,,,,,,,,,,,,,,,53,,,,,,,,,,,,,,273.0000000000582,,response,,,,99,,,,,,,Space,keypress(Space),,,,,,,,---- -- ----- -- ------ - ------- --- ----------<br>------------- ------ ------ ---- ---- ------- ----- -- ----<br>-------- ------- -- ---------- --- - --- ----- ----- ----<br>---- --- --- ----- --- ---- ---- ------- ----- ---- -------<br>--- --- -- ----- -- --- ---- -- --- ---- -- that's ------<br>--- ----- -- ----,520020,520013.00000000006,519740,519715.00000000006,519756,520040,,50,that's
screen,html.Screen,2_1_0_1_51,2022-05-09T10:35:49.236Z,,,,,,,,,,,,,,,,,53,,,,,,,,,,,,,,359.0000000000582,,response,,,,99,,,,,,,Space,keypress(Space),,,,,,,,---- -- ----- -- ------ - ------- --- ----------<br>------------- ------ ------ ---- ---- ------- ----- -- ----<br>-------- ------- -- ---------- --- - --- ----- ----- ----<br>---- --- --- ----- --- ---- ---- ------- ----- ---- -------<br>--- --- -- ----- -- --- ---- -- --- ---- -- ------ really<br>--- ----- -- ----,520389,520383.00000000006,520024,520020,520040,520408,,51,really
screen,html.Screen,2_1_0_1_52,2022-05-09T10:35:49.559Z,,,,,,,,,,,,,,,,,53,,,,,,,,,,,,,,315.0000000000582,,response,,,,99,,,,,,,Space,keypress(Space),,,,,,,,---- -- ----- -- ------ - ------- --- ----------<br>------------- ------ ------ ---- ---- ------- ----- -- ----<br>-------- ------- -- ---------- --- - --- ----- ----- ----<br>---- --- --- ----- --- ---- ---- ------- ----- ---- -------<br>--- --- -- ----- -- --- ---- -- --- ---- -- ------ ------<br>not ----- -- ----,520712,520705.00000000006,520390,520389,520408,520742,,52,not
screen,html.Screen,2_1_0_1_53,2022-05-09T10:35:49.864Z,,,,,,,,,,,,,,,,,53,,,,,,,,,,,,,,284,,response,,,,99,,,,,,,Space,keypress(Space),,,,,,,,---- -- ----- -- ------ - ------- --- ----------<br>------------- ------ ------ ---- ---- ------- ----- -- ----<br>-------- ------- -- ---------- --- - --- ----- ----- ----<br>---- --- --- ----- --- ---- ---- ------- ----- ---- -------<br>--- --- -- ----- -- --- ---- -- --- ---- -- ------ ------<br>--- close -- ----,521017.00000000006,521010,520726,520712,520742,521043,,53,close
screen,html.Screen,2_1_0_1_54,2022-05-09T10:35:50.156Z,,,,,,,,,,,,,,,,,53,,,,,,,,,,,,,,276,,response,,,,99,,,,,,,Space,keypress(Space),,,,,,,,---- -- ----- -- ------ - ------- --- ----------<br>------------- ------ ------ ---- ---- ------- ----- -- ----<br>-------- ------- -- ---------- --- - --- ----- ----- ----<br>---- --- --- ----- --- ---- ---- ------- ----- ---- -------<br>--- --- -- ----- -- --- ---- -- --- ---- -- ------ ------<br>--- ----- at ----,521308.99999999994,521302,521026,521017.00000000006,521043,521344,,54,at
screen,html.Screen,2_1_0_1_55,2022-05-09T10:35:50.535Z,,,,,,,,,,,,,,,,,53,,,,,,,,,,,,,,354.0000000000582,,response,,,,99,,,,,,,Space,keypress(Space),,,,,,,,---- -- ----- -- ------ - ------- --- ----------<br>------------- ------ ------ ---- ---- ------- ----- -- ----<br>-------- ------- -- ---------- --- - --- ----- ----- ----<br>---- --- --- ----- --- ---- ---- ------- ----- ---- -------<br>--- --- -- ----- -- --- ---- -- --- ---- -- ------ ------<br>--- ----- -- all.,521688,521681.00000000006,521327,521308.99999999994,521344,521712,,55,all.
Item 99,flow.Loop,2_1_0_1,2022-05-09T10:35:50.536Z,,,,,,,,,,,,,,,,,,,,,,,,,,,,,,,177210.00000000006,,completion,,,,,C,,,,,,,,,,,silence,,,,,521688.99999999994,521681.00000000006,344438,344442,344471,521712,,,
Question 1,html.Screen,2_1_0_2,2022-05-09T10:35:54.833Z,,,,,,,,,,,,,,,,,,,,,,,,,,,,true,FALSE,,4284,,response,,,,99,C,,,,,,FALSE,click #choice-2,,,,silence,,,,,525986,525979,521695,521688.99999999994,521712,526006,,,
Question 2,html.Screen,2_1_0_3,2022-05-09T10:36:00.527Z,,,,,,,,,,,,,,,,,,,,,,,,,,,,true,TRUE,,5684,,response,,,,99,C,,,,,,TRUE,click #choice-1,,,,silence,,,,,531679,531675,525991,525986,526006,531751,,,
Item 99,flow.Sequence,2_1_0,2022-05-09T10:36:00.527Z,,,,,,,,,,,,,,,,,,,,,,,,,,,,,,,197214,,completion,,,,,,,,,,,,,,,,,,,,,531680.0000000001,531675,334444,334439,334461,531751,,,
Holding screen,html.Screen,2_1_1_0,2022-05-09T10:36:10.580Z,,,,,,,,,,,,,,,,,,,,,,,,,,,,,,,9996,,timeout,,,,,,,,,,,,,,,,,,,,,541732,541732,531724,531680.0000000001,531751,541747,,,
screen,html.Screen,2_1_1_1_0,2022-05-09T10:36:14.186Z,,,,,,,,,,,,,,,,,54,,,,,,,,,,,,,,3598,,response,,,,100,,,,,,,Space,keypress(Space),,,,,,,,At --- ---- --- ------ ----- ------- ---- -- --- ------- --<br>------- ---------- ------ -- ----- -- ----- -- ---- ------<br>--- ----- --- --- ------ -------- ----- --- ------ ----- --<br>----- ----- ---------- --- --- ------ ------ ---- -- ------<br>------- --- ------ ----- --- ---- ------- -- ---- --- --<br>------- ------,545339,545330,541732,541732,541747,545374,,0,At
screen,html.Screen,2_1_1_1_1,2022-05-09T10:36:14.588Z,,,,,,,,,,,,,,,,,54,,,,,,,,,,,,,,375.0000000001164,,response,,,,100,,,,,,,Space,keypress(Space),,,,,,,,-- the ---- --- ------ ----- ------- ---- -- --- ------- --<br>------- ---------- ------ -- ----- -- ----- -- ---- ------<br>--- ----- --- --- ------ -------- ----- --- ------ ----- --<br>----- ----- ---------- --- --- ------ ------ ---- -- ------<br>------- --- ------ ----- --- ---- ------- -- ---- --- --<br>------- ------,545740,545733.0000000001,545358,545339,545374,545759,,1,the
screen,html.Screen,2_1_1_1_2,2022-05-09T10:36:14.975Z,,,,,,,,,,,,,,,,,54,,,,,,,,,,,,,,375,,response,,,,100,,,,,,,Space,keypress(Space),,,,,,,,-- --- time --- ------ ----- ------- ---- -- --- ------- --<br>------- ---------- ------ -- ----- -- ----- -- ---- ------<br>--- ----- --- --- ------ -------- ----- --- ------ ----- --<br>----- ----- ---------- --- --- ------ ------ ---- -- ------<br>------- --- ------ ----- --- ---- ------- -- ---- --- --<br>------- ------,546128,546117,545742,545740,545759,546159,,2,time
screen,html.Screen,2_1_1_1_3,2022-05-09T10:36:16.257Z,,,,,,,,,,,,,,,,,54,,,,,,,,,,,,,,1259,,response,,,,100,,,,,,,Space,keypress(Space),,,,,,,,-- --- ---- the ------ ----- ------- ---- -- --- ------- --<br>------- ---------- ------ -- ----- -- ----- -- ---- ------<br>--- ----- --- --- ------ -------- ----- --- ------ ----- --<br>----- ----- ---------- --- --- ------ ------ ---- -- ------<br>------- --- ------ ----- --- ---- ------- -- ---- --- --<br>------- ------,547410,547402,546143,546128,546159,547446,,3,the
screen,html.Screen,2_1_1_1_4,2022-05-09T10:36:16.659Z,,,,,,,,,,,,,,,,,54,,,,,,,,,,,,,,375.0000000001164,,response,,,,100,,,,,,,Space,keypress(Space),,,,,,,,-- --- ---- --- French ----- ------- ---- -- --- ------- --<br>------- ---------- ------ -- ----- -- ----- -- ---- ------<br>--- ----- --- --- ------ -------- ----- --- ------ ----- --<br>----- ----- ---------- --- --- ------ ------ ---- -- ------<br>------- --- ------ ----- --- ---- ------- -- ---- --- --<br>------- ------,547811,547805.0000000001,547430,547410,547446,547830,,4,French
screen,html.Screen,2_1_1_1_5,2022-05-09T10:36:17.031Z,,,,,,,,,,,,,,,,,54,,,,,,,,,,,,,,362,,response,,,,100,,,,,,,Space,keypress(Space),,,,,,,,-- --- ---- --- ------ crown ------- ---- -- --- ------- --<br>------- ---------- ------ -- ----- -- ----- -- ---- ------<br>--- ----- --- --- ------ -------- ----- --- ------ ----- --<br>----- ----- ---------- --- --- ------ ------ ---- -- ------<br>------- --- ------ ----- --- ---- ------- -- ---- --- --<br>------- ------,548184,548177,547815,547811,547830,548216,,5,crown
screen,html.Screen,2_1_1_1_6,2022-05-09T10:36:18.806Z,,,,,,,,,,,,,,,,,54,,,,,,,,,,,,,,1754,,response,,,,100,,,,,,,Space,keypress(Space),,,,,,,,-- --- ---- --- ------ ----- secured ---- -- --- ------- --<br>------- ---------- ------ -- ----- -- ----- -- ---- ------<br>--- ----- --- --- ------ -------- ----- --- ------ ----- --<br>----- ----- ---------- --- --- ------ ------ ---- -- ------<br>------- --- ------ ----- --- ---- ------- -- ---- --- --<br>------- ------,549959.0000000001,549952,548198,548184,548216,549987,,6,secured
screen,html.Screen,2_1_1_1_7,2022-05-09T10:36:19.235Z,,,,,,,,,,,,,,,,,54,,,,,,,,,,,,,,412.0000000001164,,response,,,,100,,,,,,,Space,keypress(Space),,,,,,,,-- --- ---- --- ------ ----- ------- much -- --- ------- --<br>------- ---------- ------ -- ----- -- ----- -- ---- ------<br>--- ----- --- --- ------ -------- ----- --- ------ ----- --<br>----- ----- ---------- --- --- ------ ------ ---- -- ------<br>------- --- ------ ----- --- ---- ------- -- ---- --- --<br>------- ------,550388,550382.0000000001,549970,549959.0000000001,549987,550421,,7,much
screen,html.Screen,2_1_1_1_8,2022-05-09T10:36:19.653Z,,,,,,,,,,,,,,,,,54,,,,,,,,,,,,,,394,,response,,,,100,,,,,,,Space,keypress(Space),,,,,,,,-- --- ---- --- ------ ----- ------- ---- of --- ------- --<br>------- ---------- ------ -- ----- -- ----- -- ---- ------<br>--- ----- --- --- ------ -------- ----- --- ------ ----- --<br>----- ----- ---------- --- --- ------ ------ ---- -- ------<br>------- --- ------ ----- --- ---- ------- -- ---- --- --<br>------- ------,550806,550799,550405,550388,550421,550838,,8,of
screen,html.Screen,2_1_1_1_9,2022-05-09T10:36:20.102Z,,,,,,,,,,,,,,,,,54,,,,,,,,,,,,,,425,,response,,,,100,,,,,,,Space,keypress(Space),,,,,,,,-- --- ---- --- ------ ----- ------- ---- -- its ------- --<br>------- ---------- ------ -- ----- -- ----- -- ---- ------<br>--- ----- --- --- ------ -------- ----- --- ------ ----- --<br>----- ----- ---------- --- --- ------ ------ ---- -- ------<br>------- --- ------ ----- --- ---- ------- -- ---- --- --<br>------- ------,551254,551248,550823,550806,550838,551291,,9,its
screen,html.Screen,2_1_1_1_10,2022-05-09T10:36:20.605Z,,,,,,,,,,,,,,,,,54,,,,,,,,,,,,,,477,,response,,,,100,,,,,,,Space,keypress(Space),,,,,,,,-- --- ---- --- ------ ----- ------- ---- -- --- revenue --<br>------- ---------- ------ -- ----- -- ----- -- ---- ------<br>--- ----- --- --- ------ -------- ----- --- ------ ----- --<br>----- ----- ---------- --- --- ------ ------ ---- -- ------<br>------- --- ------ ----- --- ---- ------- -- ---- --- --<br>------- ------,551758,551751,551274,551254,551291,551792,,10,revenue
screen,html.Screen,2_1_1_1_11,2022-05-09T10:36:20.994Z,,,,,,,,,,,,,,,,,54,,,,,,,,,,,,,,364,,response,,,,100,,,,,,,Space,keypress(Space),,,,,,,,-- --- ---- --- ------ ----- ------- ---- -- --- ------- by<br>------- ---------- ------ -- ----- -- ----- -- ---- ------<br>--- ----- --- --- ------ -------- ----- --- ------ ----- --<br>----- ----- ---------- --- --- ------ ------ ---- -- ------<br>------- --- ------ ----- --- ---- ------- -- ---- --- --<br>------- ------,552146,552139,551775,551758,551792,552176,,11,by
screen,html.Screen,2_1_1_1_12,2022-05-09T10:36:21.313Z,,,,,,,,,,,,,,,,,54,,,,,,,,,,,,,,299.0000000001164,,response,,,,100,,,,,,,Space,keypress(Space),,,,,,,,-- --- ---- --- ------ ----- ------- ---- -- --- ------- --<br>issuing ---------- ------ -- ----- -- ----- -- ---- ------<br>--- ----- --- --- ------ -------- ----- --- ------ ----- --<br>----- ----- ---------- --- --- ------ ------ ---- -- ------<br>------- --- ------ ----- --- ---- ------- -- ---- --- --<br>------- ------,552465,552459.0000000001,552160,552146,552176,552494,,12,issuing
screen,html.Screen,2_1_1_1_13,2022-05-09T10:36:21.701Z,,,,,,,,,,,,,,,,,54,,,,,,,,,,,,,,370,,response,,,,100,,,,,,,Space,keypress(Space),,,,,,,,-- --- ---- --- ------ ----- ------- ---- -- --- ------- --<br>------- government ------ -- ----- -- ----- -- ---- ------<br>--- ----- --- --- ------ -------- ----- --- ------ ----- --<br>----- ----- ---------- --- --- ------ ------ ---- -- ------<br>------- --- ------ ----- --- ---- ------- -- ---- --- --<br>------- ------,552853.0000000001,552847,552477,552465,552494,552878,,13,government
screen,html.Screen,2_1_1_1_14,2022-05-09T10:36:22.090Z,,,,,,,,,,,,,,,,,54,,,,,,,,,,,,,,375,,response,,,,100,,,,,,,Space,keypress(Space),,,,,,,,-- --- ---- --- ------ ----- ------- ---- -- --- ------- --<br>------- ---------- bonds. -- ----- -- ----- -- ---- ------<br>--- ----- --- --- ------ -------- ----- --- ------ ----- --<br>----- ----- ---------- --- --- ------ ------ ---- -- ------<br>------- --- ------ ----- --- ---- ------- -- ---- --- --<br>------- ------,553243,553236,552861,552853.0000000001,552878,553262,,14,bonds.
screen,html.Screen,2_1_1_1_15,2022-05-09T10:36:22.498Z,,,,,,,,,,,,,,,,,54,,,,,,,,,,,,,,398,,response,,,,100,,,,,,,Space,keypress(Space),,,,,,,,-- --- ---- --- ------ ----- ------- ---- -- --- ------- --<br>------- ---------- ------ In ----- -- ----- -- ---- ------<br>--- ----- --- --- ------ -------- ----- --- ------ ----- --<br>----- ----- ---------- --- --- ------ ------ ---- -- ------<br>------- --- ------ ----- --- ---- ------- -- ---- --- --<br>------- ------,553650,553643,553245,553243,553262,553680,,15,In
screen,html.Screen,2_1_1_1_16,2022-05-09T10:36:23.095Z,,,,,,,,,,,,,,,,,54,,,,,,,,,,,,,,576,,response,,,,100,,,,,,,Space,keypress(Space),,,,,,,,"-- --- ---- --- ------ ----- ------- ---- -- --- ------- --<br>------- ---------- ------ -- 1727, -- ----- -- ---- ------<br>--- ----- --- --- ------ -------- ----- --- ------ ----- --<br>----- ----- ---------- --- --- ------ ------ ---- -- ------<br>------- --- ------ ----- --- ---- ------- -- ---- --- --<br>------- ------",554247,554240,553664,553650,553680,554282,,16,"1727,"
screen,html.Screen,2_1_1_1_17,2022-05-09T10:36:23.426Z,,,,,,,,,,,,,,,,,54,,,,,,,,,,,,,,305,,response,,,,100,,,,,,,Space,keypress(Space),,,,,,,,-- --- ---- --- ------ ----- ------- ---- -- --- ------- --<br>------- ---------- ------ -- ----- in ----- -- ---- ------<br>--- ----- --- --- ------ -------- ----- --- ------ ----- --<br>----- ----- ---------- --- --- ------ ------ ---- -- ------<br>------- --- ------ ----- --- ---- ------- -- ---- --- --<br>------- ------,554578,554570,554265,554248,554282,554599,,17,in
screen,html.Screen,2_1_1_1_18,2022-05-09T10:36:23.918Z,,,,,,,,,,,,,,,,,54,,,,,,,,,,,,,,481,,response,,,,100,,,,,,,Space,keypress(Space),,,,,,,,-- --- ---- --- ------ ----- ------- ---- -- --- ------- --<br>------- ---------- ------ -- ----- -- order -- ---- ------<br>--- ----- --- --- ------ -------- ----- --- ------ ----- --<br>----- ----- ---------- --- --- ------ ------ ---- -- ------<br>------- --- ------ ----- --- ---- ------- -- ---- --- --<br>------- ------,555070,555063,554582,554578,554599,555101,,18,order
screen,html.Screen,2_1_1_1_19,2022-05-09T10:36:24.271Z,,,,,,,,,,,,,,,,,54,,,,,,,,,,,,,,332,,response,,,,100,,,,,,,Space,keypress(Space),,,,,,,,-- --- ---- --- ------ ----- ------- ---- -- --- ------- --<br>------- ---------- ------ -- ----- -- ----- to ---- ------<br>--- ----- --- --- ------ -------- ----- --- ------ ----- --<br>----- ----- ---------- --- --- ------ ------ ---- -- ------<br>------- --- ------ ----- --- ---- ------- -- ---- --- --<br>------- ------,555424,555416,555084,555071,555101,555452,,19,to
screen,html.Screen,2_1_1_1_20,2022-05-09T10:36:24.629Z,,,,,,,,,,,,,,,,,54,,,,,,,,,,,,,,341,,response,,,,100,,,,,,,Space,keypress(Space),,,,,,,,-- --- ---- --- ------ ----- ------- ---- -- --- ------- --<br>------- ---------- ------ -- ----- -- ----- -- save ------<br>--- ----- --- --- ------ -------- ----- --- ------ ----- --<br>----- ----- ---------- --- --- ------ ------ ---- -- ------<br>------- --- ------ ----- --- ---- ------- -- ---- --- --<br>------- ------,555781.0000000001,555775,555434,555424,555452,555803,,20,save
screen,html.Screen,2_1_1_1_21,2022-05-09T10:36:25.040Z,,,,,,,,,,,,,,,,,54,,,,,,,,,,,,,,399.0000000001164,,response,,,,100,,,,,,,Space,keypress(Space),,,,,,,,"-- --- ---- --- ------ ----- ------- ---- -- --- ------- --<br>------- ---------- ------ -- ----- -- ----- -- ---- money,<br>--- ----- --- --- ------ -------- ----- --- ------ ----- --<br>----- ----- ---------- --- --- ------ ------ ---- -- ------<br>------- --- ------ ----- --- ---- ------- -- ---- --- --<br>------- ------",556193,556185.0000000001,555786,555782,555803,556236,,21,"money,"
screen,html.Screen,2_1_1_1_22,2022-05-09T10:36:25.280Z,,,,,,,,,,,,,,,,,54,,,,,,,,,,,,,,205.00000000011642,,response,,,,100,,,,,,,Space,keypress(Space),,,,,,,,-- --- ---- --- ------ ----- ------- ---- -- --- ------- --<br>------- ---------- ------ -- ----- -- ----- -- ---- ------<br>the ----- --- --- ------ -------- ----- --- ------ ----- --<br>----- ----- ---------- --- --- ------ ------ ---- -- ------<br>------- --- ------ ----- --- ---- ------- -- ---- --- --<br>------- ------,556432,556425.0000000001,556220,556193,556236,556454,,22,the
screen,html.Screen,2_1_1_1_23,2022-05-09T10:36:25.540Z,,,,,,,,,,,,,,,,,54,,,,,,,,,,,,,,247.00000000011642,,response,,,,100,,,,,,,Space,keypress(Space),,,,,,,,-- --- ---- --- ------ ----- ------- ---- -- --- ------- --<br>------- ---------- ------ -- ----- -- ----- -- ---- ------<br>--- state --- --- ------ -------- ----- --- ------ ----- --<br>----- ----- ---------- --- --- ------ ------ ---- -- ------<br>------- --- ------ ----- --- ---- ------- -- ---- --- --<br>------- ------,556693,556685.0000000001,556438,556433,556454,556722,,23,state
screen,html.Screen,2_1_1_1_24,2022-05-09T10:36:26.551Z,,,,,,,,,,,,,,,,,54,,,,,,,,,,,,,,991,,response,,,,100,,,,,,,Space,keypress(Space),,,,,,,,-- --- ---- --- ------ ----- ------- ---- -- --- ------- --<br>------- ---------- ------ -- ----- -- ----- -- ---- ------<br>--- ----- cut --- ------ -------- ----- --- ------ ----- --<br>----- ----- ---------- --- --- ------ ------ ---- -- ------<br>------- --- ------ ----- --- ---- ------- -- ---- --- --<br>------- ------,557704.0000000001,557696,556705,556693,556722,557741,,24,cut
screen,html.Screen,2_1_1_1_25,2022-05-09T10:36:27.001Z,,,,,,,,,,,,,,,,,54,,,,,,,,,,,,,,422,,response,,,,100,,,,,,,Space,keypress(Space),,,,,,,,-- --- ---- --- ------ ----- ------- ---- -- --- ------- --<br>------- ---------- ------ -- ----- -- ----- -- ---- ------<br>--- ----- --- the ------ -------- ----- --- ------ ----- --<br>----- ----- ---------- --- --- ------ ------ ---- -- ------<br>------- --- ------ ----- --- ---- ------- -- ---- --- --<br>------- ------,558153,558147,557725,557704.0000000001,557741,558192,,25,the
screen,html.Screen,2_1_1_1_26,2022-05-09T10:36:27.365Z,,,,,,,,,,,,,,,,,54,,,,,,,,,,,,,,334,,response,,,,100,,,,,,,Space,keypress(Space),,,,,,,,-- --- ---- --- ------ ----- ------- ---- -- --- ------- --<br>------- ---------- ------ -- ----- -- ----- -- ---- ------<br>--- ----- --- --- bonds' -------- ----- --- ------ ----- --<br>----- ----- ---------- --- --- ------ ------ ---- -- ------<br>------- --- ------ ----- --- ---- ------- -- ---- --- --<br>------- ------,558517,558510,558176,558153,558192,558543,,26,bonds'
screen,html.Screen,2_1_1_1_27,2022-05-09T10:36:27.773Z,,,,,,,,,,,,,,,,,54,,,,,,,,,,,,,,391,,response,,,,100,,,,,,,Space,keypress(Space),,,,,,,,-- --- ---- --- ------ ----- ------- ---- -- --- ------- --<br>------- ---------- ------ -- ----- -- ----- -- ---- ------<br>--- ----- --- --- ------ interest ----- --- ------ ----- --<br>----- ----- ---------- --- --- ------ ------ ---- -- ------<br>------- --- ------ ----- --- ---- ------- -- ---- --- --<br>------- ------,558925.0000000001,558918,558527,558517,558543,558961,,27,interest
screen,html.Screen,2_1_1_1_28,2022-05-09T10:36:28.099Z,,,,,,,,,,,,,,,,,54,,,,,,,,,,,,,,300,,response,,,,100,,,,,,,Space,keypress(Space),,,,,,,,-- --- ---- --- ------ ----- ------- ---- -- --- ------- --<br>------- ---------- ------ -- ----- -- ----- -- ---- ------<br>--- ----- --- --- ------ -------- rate. --- ------ ----- --<br>----- ----- ---------- --- --- ------ ------ ---- -- ------<br>------- --- ------ ----- --- ---- ------- -- ---- --- --<br>------- ------,559251,559244,558944,558925.0000000001,558961,559278,,28,rate.
screen,html.Screen,2_1_1_1_29,2022-05-09T10:36:28.574Z,,,,,,,,,,,,,,,,,54,,,,,,,,,,,,,,457,,response,,,,100,,,,,,,Space,keypress(Space),,,,,,,,-- --- ---- --- ------ ----- ------- ---- -- --- ------- --<br>------- ---------- ------ -- ----- -- ----- -- ---- ------<br>--- ----- --- --- ------ -------- ----- The ------ ----- --<br>----- ----- ---------- --- --- ------ ------ ---- -- ------<br>------- --- ------ ----- --- ---- ------- -- ---- --- --<br>------- ------,559726,559719,559262,559251,559278,559763,,29,The
screen,html.Screen,2_1_1_1_30,2022-05-09T10:36:28.924Z,,,,,,,,,,,,,,,,,54,,,,,,,,,,,,,,322,,response,,,,100,,,,,,,Space,keypress(Space),,,,,,,,-- --- ---- --- ------ ----- ------- ---- -- --- ------- --<br>------- ---------- ------ -- ----- -- ----- -- ---- ------<br>--- ----- --- --- ------ -------- ----- --- market ----- --<br>----- ----- ---------- --- --- ------ ------ ---- -- ------<br>------- --- ------ ----- --- ---- ------- -- ---- --- --<br>------- ------,560076,560069,559747,559727,559763,560097,,30,market
screen,html.Screen,2_1_1_1_31,2022-05-09T10:36:29.241Z,,,,,,,,,,,,,,,,,54,,,,,,,,,,,,,,305,,response,,,,100,,,,,,,Space,keypress(Space),,,,,,,,-- --- ---- --- ------ ----- ------- ---- -- --- ------- --<br>------- ---------- ------ -- ----- -- ----- -- ---- ------<br>--- ----- --- --- ------ -------- ----- --- ------ value --<br>----- ----- ---------- --- --- ------ ------ ---- -- ------<br>------- --- ------ ----- --- ---- ------- -- ---- --- --<br>------- ------,560393,560386,560081,560077,560097,560415,,31,value
screen,html.Screen,2_1_1_1_32,2022-05-09T10:36:29.564Z,,,,,,,,,,,,,,,,,54,,,,,,,,,,,,,,311.0000000001164,,response,,,,100,,,,,,,Space,keypress(Space),,,,,,,,-- --- ---- --- ------ ----- ------- ---- -- --- ------- --<br>------- ---------- ------ -- ----- -- ----- -- ---- ------<br>--- ----- --- --- ------ -------- ----- --- ------ ----- of<br>----- ----- ---------- --- --- ------ ------ ---- -- ------<br>------- --- ------ ----- --- ---- ------- -- ---- --- --<br>------- ------,560716,560709.0000000001,560398,560393,560415,560749,,32,of
screen,html.Screen,2_1_1_1_33,2022-05-09T10:36:29.957Z,,,,,,,,,,,,,,,,,54,,,,,,,,,,,,,,370,,response,,,,100,,,,,,,Space,keypress(Space),,,,,,,,-- --- ---- --- ------ ----- ------- ---- -- --- ------- --<br>------- ---------- ------ -- ----- -- ----- -- ---- ------<br>--- ----- --- --- ------ -------- ----- --- ------ ----- --<br>these ----- ---------- --- --- ------ ------ ---- -- ------<br>------- --- ------ ----- --- ---- ------- -- ---- --- --<br>------- ------,561109,561102,560732,560717,560749,561133,,33,these
screen,html.Screen,2_1_1_1_34,2022-05-09T10:36:30.258Z,,,,,,,,,,,,,,,,,54,,,,,,,,,,,,,,286,,response,,,,100,,,,,,,Space,keypress(Space),,,,,,,,-- --- ---- --- ------ ----- ------- ---- -- --- ------- --<br>------- ---------- ------ -- ----- -- ----- -- ---- ------<br>--- ----- --- --- ------ -------- ----- --- ------ ----- --<br>----- bonds ---------- --- --- ------ ------ ---- -- ------<br>------- --- ------ ----- --- ---- ------- -- ---- --- --<br>------- ------,561410,561403,561117,561109,561133,561434,,34,bonds
screen,html.Screen,2_1_1_1_35,2022-05-09T10:36:30.731Z,,,,,,,,,,,,,,,,,54,,,,,,,,,,,,,,458,,response,,,,100,,,,,,,Space,keypress(Space),,,,,,,,"-- --- ---- --- ------ ----- ------- ---- -- --- ------- --<br>------- ---------- ------ -- ----- -- ----- -- ---- ------<br>--- ----- --- --- ------ -------- ----- --- ------ ----- --<br>----- ----- plummeted, --- --- ------ ------ ---- -- ------<br>------- --- ------ ----- --- ---- ------- -- ---- --- --<br>------- ------",561883,561876,561418,561410,561434,561919,,35,"plummeted,"
screen,html.Screen,2_1_1_1_36,2022-05-09T10:36:31.146Z,,,,,,,,,,,,,,,,,54,,,,,,,,,,,,,,389,,response,,,,100,,,,,,,Space,keypress(Space),,,,,,,,-- --- ---- --- ------ ----- ------- ---- -- --- ------- --<br>------- ---------- ------ -- ----- -- ----- -- ---- ------<br>--- ----- --- --- ------ -------- ----- --- ------ ----- --<br>----- ----- ---------- and --- ------ ------ ---- -- ------<br>------- --- ------ ----- --- ---- ------- -- ---- --- --<br>------- ------,562298,562291,561902,561883,561919,562337,,36,and
screen,html.Screen,2_1_1_1_37,2022-05-09T10:36:31.437Z,,,,,,,,,,,,,,,,,54,,,,,,,,,,,,,,262,,response,,,,100,,,,,,,Space,keypress(Space),,,,,,,,-- --- ---- --- ------ ----- ------- ---- -- --- ------- --<br>------- ---------- ------ -- ----- -- ----- -- ---- ------<br>--- ----- --- --- ------ -------- ----- --- ------ ----- --<br>----- ----- ---------- --- the ------ ------ ---- -- ------<br>------- --- ------ ----- --- ---- ------- -- ---- --- --<br>------- ------,562589,562582,562320,562298,562337,562621,,37,the
screen,html.Screen,2_1_1_1_38,2022-05-09T10:36:31.779Z,,,,,,,,,,,,,,,,,54,,,,,,,,,,,,,,320,,response,,,,100,,,,,,,Space,keypress(Space),,,,,,,,-- --- ---- --- ------ ----- ------- ---- -- --- ------- --<br>------- ---------- ------ -- ----- -- ----- -- ---- ------<br>--- ----- --- --- ------ -------- ----- --- ------ ----- --<br>----- ----- ---------- --- --- market ------ ---- -- ------<br>------- --- ------ ----- --- ---- ------- -- ---- --- --<br>------- ------,562931,562924,562604,562589,562621,562955,,38,market
screen,html.Screen,2_1_1_1_39,2022-05-09T10:36:32.166Z,,,,,,,,,,,,,,,,,54,,,,,,,,,,,,,,373,,response,,,,100,,,,,,,Space,keypress(Space),,,,,,,,-- --- ---- --- ------ ----- ------- ---- -- --- ------- --<br>------- ---------- ------ -- ----- -- ----- -- ---- ------<br>--- ----- --- --- ------ -------- ----- --- ------ ----- --<br>----- ----- ---------- --- --- ------ became ---- -- ------<br>------- --- ------ ----- --- ---- ------- -- ---- --- --<br>------- ------,563318,563311,562938,562931,562955,563339,,39,became
screen,html.Screen,2_1_1_1_40,2022-05-09T10:36:32.548Z,,,,,,,,,,,,,,,,,54,,,,,,,,,,,,,,370,,response,,,,100,,,,,,,Space,keypress(Space),,,,,,,,-- --- ---- --- ------ ----- ------- ---- -- --- ------- --<br>------- ---------- ------ -- ----- -- ----- -- ---- ------<br>--- ----- --- --- ------ -------- ----- --- ------ ----- --<br>----- ----- ---------- --- --- ------ ------ wary -- ------<br>------- --- ------ ----- --- ---- ------- -- ---- --- --<br>------- ------,563700,563693,563323,563318,563339,563724,,40,wary
screen,html.Screen,2_1_1_1_41,2022-05-09T10:36:32.868Z,,,,,,,,,,,,,,,,,54,,,,,,,,,,,,,,306,,response,,,,100,,,,,,,Space,keypress(Space),,,,,,,,-- --- ---- --- ------ ----- ------- ---- -- --- ------- --<br>------- ---------- ------ -- ----- -- ----- -- ---- ------<br>--- ----- --- --- ------ -------- ----- --- ------ ----- --<br>----- ----- ---------- --- --- ------ ------ ---- of ------<br>------- --- ------ ----- --- ---- ------- -- ---- --- --<br>------- ------,564020,564013,563707,563700,563724,564041,,41,of
screen,html.Screen,2_1_1_1_42,2022-05-09T10:36:33.305Z,,,,,,,,,,,,,,,,,54,,,,,,,,,,,,,,426,,response,,,,100,,,,,,,Space,keypress(Space),,,,,,,,-- --- ---- --- ------ ----- ------- ---- -- --- ------- --<br>------- ---------- ------ -- ----- -- ----- -- ---- ------<br>--- ----- --- --- ------ -------- ----- --- ------ ----- --<br>----- ----- ---------- --- --- ------ ------ ---- -- French<br>------- --- ------ ----- --- ---- ------- -- ---- --- --<br>------- ------,564457,564450,564024,564020,564041,564492,,42,French
screen,html.Screen,2_1_1_1_43,2022-05-09T10:36:33.753Z,,,,,,,,,,,,,,,,,54,,,,,,,,,,,,,,422,,response,,,,100,,,,,,,Space,keypress(Space),,,,,,,,-- --- ---- --- ------ ----- ------- ---- -- --- ------- --<br>------- ---------- ------ -- ----- -- ----- -- ---- ------<br>--- ----- --- --- ------ -------- ----- --- ------ ----- --<br>----- ----- ---------- --- --- ------ ------ ---- -- ------<br>credit. --- ------ ----- --- ---- ------- -- ---- --- --<br>------- ------,564905,564898,564476,564457,564492,564944,,43,credit.
screen,html.Screen,2_1_1_1_44,2022-05-09T10:36:34.120Z,,,,,,,,,,,,,,,,,54,,,,,,,,,,,,,,338,,response,,,,100,,,,,,,Space,keypress(Space),,,,,,,,-- --- ---- --- ------ ----- ------- ---- -- --- ------- --<br>------- ---------- ------ -- ----- -- ----- -- ---- ------<br>--- ----- --- --- ------ -------- ----- --- ------ ----- --<br>----- ----- ---------- --- --- ------ ------ ---- -- ------<br>------- The ------ ----- --- ---- ------- -- ---- --- --<br>------- ------,565272,565265,564927,564905,564944,565295,,44,The
screen,html.Screen,2_1_1_1_45,2022-05-09T10:36:34.764Z,,,,,,,,,,,,,,,,,54,,,,,,,,,,,,,,631,,response,,,,100,,,,,,,Space,keypress(Space),,,,,,,,-- --- ---- --- ------ ----- ------- ---- -- --- ------- --<br>------- ---------- ------ -- ----- -- ----- -- ---- ------<br>--- ----- --- --- ------ -------- ----- --- ------ ----- --<br>----- ----- ---------- --- --- ------ ------ ---- -- ------<br>------- --- French ----- --- ---- ------- -- ---- --- --<br>------- ------,565916,565909,565278,565272,565295,565946,,45,French
screen,html.Screen,2_1_1_1_46,2022-05-09T10:36:35.057Z,,,,,,,,,,,,,,,,,54,,,,,,,,,,,,,,272,,response,,,,100,,,,,,,Space,keypress(Space),,,,,,,,-- --- ---- --- ------ ----- ------- ---- -- --- ------- --<br>------- ---------- ------ -- ----- -- ----- -- ---- ------<br>--- ----- --- --- ------ -------- ----- --- ------ ----- --<br>----- ----- ---------- --- --- ------ ------ ---- -- ------<br>------- --- ------ state --- ---- ------- -- ---- --- --<br>------- ------,566210,566202,565930,565916,565946,566230,,46,state
screen,html.Screen,2_1_1_1_47,2022-05-09T10:36:35.494Z,,,,,,,,,,,,,,,,,54,,,,,,,,,,,,,,426,,response,,,,100,,,,,,,Space,keypress(Space),,,,,,,,-- --- ---- --- ------ ----- ------- ---- -- --- ------- --<br>------- ---------- ------ -- ----- -- ----- -- ---- ------<br>--- ----- --- --- ------ -------- ----- --- ------ ----- --<br>----- ----- ---------- --- --- ------ ------ ---- -- ------<br>------- --- ------ ----- was ---- ------- -- ---- --- --<br>------- ------,566646,566639,566213,566210,566230,566681,,47,was
screen,html.Screen,2_1_1_1_48,2022-05-09T10:36:35.837Z,,,,,,,,,,,,,,,,,54,,,,,,,,,,,,,,317,,response,,,,100,,,,,,,Space,keypress(Space),,,,,,,,-- --- ---- --- ------ ----- ------- ---- -- --- ------- --<br>------- ---------- ------ -- ----- -- ----- -- ---- ------<br>--- ----- --- --- ------ -------- ----- --- ------ ----- --<br>----- ----- ---------- --- --- ------ ------ ---- -- ------<br>------- --- ------ ----- --- left ------- -- ---- --- --<br>------- ------,566989,566982,566665,566646,566681,567016,,48,left
screen,html.Screen,2_1_1_1_49,2022-05-09T10:36:36.208Z,,,,,,,,,,,,,,,,,54,,,,,,,,,,,,,,355.0000000001164,,response,,,,100,,,,,,,Space,keypress(Space),,,,,,,,-- --- ---- --- ------ ----- ------- ---- -- --- ------- --<br>------- ---------- ------ -- ----- -- ----- -- ---- ------<br>--- ----- --- --- ------ -------- ----- --- ------ ----- --<br>----- ----- ---------- --- --- ------ ------ ---- -- ------<br>------- --- ------ ----- --- ---- without -- ---- --- --<br>------- ------,567360,567353.0000000001,566998,566989,567016,567382,,49,without
screen,html.Screen,2_1_1_1_50,2022-05-09T10:36:36.779Z,,,,,,,,,,,,,,,,,54,,,,,,,,,,,,,,557,,response,,,,100,,,,,,,Space,keypress(Space),,,,,,,,-- --- ---- --- ------ ----- ------- ---- -- --- ------- --<br>------- ---------- ------ -- ----- -- ----- -- ---- ------<br>--- ----- --- --- ------ -------- ----- --- ------ ----- --<br>----- ----- ---------- --- --- ------ ------ ---- -- ------<br>------- --- ------ ----- --- ---- ------- an ---- --- --<br>------- ------,567931,567924,567367,567361,567382,567968,,50,an
screen,html.Screen,2_1_1_1_51,2022-05-09T10:36:37.182Z,,,,,,,,,,,,,,,,,54,,,,,,,,,,,,,,375,,response,,,,100,,,,,,,Space,keypress(Space),,,,,,,,-- --- ---- --- ------ ----- ------- ---- -- --- ------- --<br>------- ---------- ------ -- ----- -- ----- -- ---- ------<br>--- ----- --- --- ------ -------- ----- --- ------ ----- --<br>----- ----- ---------- --- --- ------ ------ ---- -- ------<br>------- --- ------ ----- --- ---- ------- -- easy --- --<br>------- ------,568334.0000000001,568327,567952,567931,567968,568352,,51,easy
screen,html.Screen,2_1_1_1_52,2022-05-09T10:36:37.459Z,,,,,,,,,,,,,,,,,54,,,,,,,,,,,,,,268,,response,,,,100,,,,,,,Space,keypress(Space),,,,,,,,-- --- ---- --- ------ ----- ------- ---- -- --- ------- --<br>------- ---------- ------ -- ----- -- ----- -- ---- ------<br>--- ----- --- --- ------ -------- ----- --- ------ ----- --<br>----- ----- ---------- --- --- ------ ------ ---- -- ------<br>------- --- ------ ----- --- ---- ------- -- ---- way --<br>------- ------,568611,568604,568336,568334.0000000001,568352,568637,,52,way
screen,html.Screen,2_1_1_1_53,2022-05-09T10:36:37.758Z,,,,,,,,,,,,,,,,,54,,,,,,,,,,,,,,282,,response,,,,100,,,,,,,Space,keypress(Space),,,,,,,,-- --- ---- --- ------ ----- ------- ---- -- --- ------- --<br>------- ---------- ------ -- ----- -- ----- -- ---- ------<br>--- ----- --- --- ------ -------- ----- --- ------ ----- --<br>----- ----- ---------- --- --- ------ ------ ---- -- ------<br>------- --- ------ ----- --- ---- ------- -- ---- --- of<br>------- ------,568910,568902,568620,568611,568637,568938,,53,of
screen,html.Screen,2_1_1_1_54,2022-05-09T10:36:38.141Z,,,,,,,,,,,,,,,,,54,,,,,,,,,,,,,,364,,response,,,,100,,,,,,,Space,keypress(Space),,,,,,,,-- --- ---- --- ------ ----- ------- ---- -- --- ------- --<br>------- ---------- ------ -- ----- -- ----- -- ---- ------<br>--- ----- --- --- ------ -------- ----- --- ------ ----- --<br>----- ----- ---------- --- --- ------ ------ ---- -- ------<br>------- --- ------ ----- --- ---- ------- -- ---- --- --<br>raising ------,569293,569285,568921,568910,568938,569321,,54,raising
screen,html.Screen,2_1_1_1_55,2022-05-09T10:36:38.436Z,,,,,,,,,,,,,,,,,54,,,,,,,,,,,,,,275,,response,,,,100,,,,,,,Space,keypress(Space),,,,,,,,-- --- ---- --- ------ ----- ------- ---- -- --- ------- --<br>------- ---------- ------ -- ----- -- ----- -- ---- ------<br>--- ----- --- --- ------ -------- ----- --- ------ ----- --<br>----- ----- ---------- --- --- ------ ------ ---- -- ------<br>------- --- ------ ----- --- ---- ------- -- ---- --- --<br>------- money.,569588,569580,569305,569293,569321,569622,,55,money.
Item 100,flow.Loop,2_1_1_1,2022-05-09T10:36:38.436Z,,,,,,,,,,,,,,,,,,,,,,,,,,,,,,,27833,,completion,,,,,C,,,,,,,,,,,silence,,,,,569588,569580,541732,541732,541747,569622,,,
Question 1,html.Screen,2_1_1_2,2022-05-09T10:36:40.751Z,,,,,,,,,,,,,,,,,,,,,,,,,,,,true,TRUE,,2292,,response,,,,100,C,,,,,,TRUE,click #choice-1,,,,silence,,,,,571903,571898,569606,569589,569622,571929,,,
Question 2,html.Screen,2_1_1_3,2022-05-09T10:36:44.085Z,,,,,,,,,,,,,,,,,,,,,,,,,,,,true,FALSE,,3320,,response,,,,100,C,,,,,,FALSE,click #choice-2,,,,silence,,,,,575237,575232,571912,571903,571929,575254,,,
Item 100,flow.Sequence,2_1_1,2022-05-09T10:36:44.085Z,,,,,,,,,,,,,,,,,,,,,,,,,,,,,,,43481,,completion,,,,,,,,,,,,,,,,,,,,,575238,575232,531724,531680.0000000001,531751,575254,,,
End of Practice,html.Page,2_1_2,2022-05-09T10:37:04.091Z,,,,,,,,,,,,,,,,,,,,,,,,,,,,,,,20003,,timeout,,,,,,,,,,,,,,,,,,,,,595243,595240,575244,575238,575254,595257,,,
Practice,flow.Sequence,2_1,2022-05-09T10:37:04.092Z,,,,,,,,,,,,,,,,,,,,,,,,,,,,,,,260779,,completion,,,,,,,,,,,,,,,,,,,,,595243,595240,334444,334439,334461,595257,,,
Trap_instruction,html.Page,2_2_0,2022-05-09T10:37:09.597Z,,,,,,,,,,,,,,,,,,,,,,,,,,,,,,,5491,,form submission,,,,,,,,,,,,,,,,,,,,,600749,600748,595240,595244,595257,600767,,,
trap_trial,html.Screen,2_2_1,2022-05-09T10:37:13.904Z,,,,,,,,,,,,,,,,,,,,,,,,,,,,true,1,,4289,,response,,,,,,,,,,,1,click #choice-1,,,,,,,,,605056,605051,600762,600749,600767,605086,,,
end of trap trial,html.Page,2_2_2,2022-05-09T10:37:16.202Z,,,,,,,,,,,,,,,,,,,,,,,,,,,,,,,2268,,form submission,,,,,,,,,,,,,,,,,,,,,607354,607354,605081,605056,605086,607372,,,
Trap 1,flow.Sequence,2_2,2022-05-09T10:37:16.203Z,,,,,,,,,,,,,,,,,,,,,,,,,,,,,,,12097,,completion,,,,,,,,,,,,,,,,,,,,,607354,607354,595240,595244,595257,607372,,,
Standby,html.Page,2_3_0,2022-05-09T10:37:24.210Z,,,,,,,,,,,,,,,,,,,,,,,,,,,,,,,8006,,timeout,,,,,,,,,,,,,,,,,,,,,615361,615361,607357,607355,607372,615378,,,
Holding screen,html.Screen,2_3_1_0_0,2022-05-09T10:37:31.216Z,,,,,,,,,,,,,,,,,,,,,,,,,,,,,,,7002,,timeout,,,,,,,,,,,,,,,,,,,,,622368,622364,615361,615362,615378,622380,,,
screen,html.Screen,2_3_1_0_1_0,2022-05-09T10:37:33.042Z,,,,,,,,,,,,,,,,,12,,,,,,,,,,,,,,1820,,response,,,,5,C,,,,,,Space,keypress(Space),,,,instrumental,,,,Some ------ ------ ------- ------ --- ------- -----------<br>-- ----- --- ---- -- --- ------ ---- - ---- -- ----------<br>-- ------ ---- --- ---- --- --- --- ----- -- -------- ---<br>------ ------- -------- --- ---- -- ------- ------------ --<br>------ -- ---- -- --- ---- -- -------- -- --- ------ ------,624194,624184,622364,622369,622380,624236,,0,Some
screen,html.Screen,2_3_1_0_1_1,2022-05-09T10:37:34.259Z,,,,,,,,,,,,,,,,,12,,,,,,,,,,,,,,1182.0000000001164,,response,,,,5,C,,,,,,Space,keypress(Space),,,,instrumental,,,,---- months ------ ------- ------ --- ------- -----------<br>-- ----- --- ---- -- --- ------ ---- - ---- -- ----------<br>-- ------ ---- --- ---- --- --- --- ----- -- -------- ---<br>------ ------- -------- --- ---- -- ------- ------------ --<br>------ -- ---- -- --- ---- -- -------- -- --- ------ ------,625410,625401.0000000001,624219,624194,624236,625439,,1,months
screen,html.Screen,2_3_1_0_1_2,2022-05-09T10:37:35.299Z,,,,,,,,,,,,,,,,,12,,,,,,,,,,,,,,1020,,response,,,,5,C,,,,,,Space,keypress(Space),,,,instrumental,,,,"---- ------ later, ------- ------ --- ------- -----------<br>-- ----- --- ---- -- --- ------ ---- - ---- -- ----------<br>-- ------ ---- --- ---- --- --- --- ----- -- -------- ---<br>------ ------- -------- --- ---- -- ------- ------------ --<br>------ -- ---- -- --- ---- -- -------- -- --- ------ ------",626450,626442,625422,625410,625439,626491,,2,"later,"
screen,html.Screen,2_3_1_0_1_3,2022-05-09T10:37:35.782Z,,,,,,,,,,,,,,,,,12,,,,,,,,,,,,,,451,,response,,,,5,C,,,,,,Space,keypress(Space),,,,instrumental,,,,---- ------ ------ Michael ------ --- ------- -----------<br>-- ----- --- ---- -- --- ------ ---- - ---- -- ----------<br>-- ------ ---- --- ---- --- --- --- ----- -- -------- ---<br>------ ------- -------- --- ---- -- ------- ------------ --<br>------ -- ---- -- --- ---- -- -------- -- --- ------ ------,626933,626926,626475,626450,626491,626976,,3,Michael
screen,html.Screen,2_3_1_0_1_4,2022-05-09T10:37:36.281Z,,,,,,,,,,,,,,,,,12,,,,,,,,,,,,,,465,,response,,,,5,C,,,,,,Space,keypress(Space),,,,instrumental,,,,---- ------ ------ ------- Larson --- ------- -----------<br>-- ----- --- ---- -- --- ------ ---- - ---- -- ----------<br>-- ------ ---- --- ---- --- --- --- ----- -- -------- ---<br>------ ------- -------- --- ---- -- ------- ------------ --<br>------ -- ---- -- --- ---- -- -------- -- --- ------ ------,627432,627424,626959,626933,626976,627461,,4,Larson
screen,html.Screen,2_3_1_0_1_5,2022-05-09T10:37:36.697Z,,,,,,,,,,,,,,,,,12,,,,,,,,,,,,,,396,,response,,,,5,C,,,,,,Space,keypress(Space),,,,instrumental,,,,---- ------ ------ ------- ------ saw ------- -----------<br>-- ----- --- ---- -- --- ------ ---- - ---- -- ----------<br>-- ------ ---- --- ---- --- --- --- ----- -- -------- ---<br>------ ------- -------- --- ---- -- ------- ------------ --<br>------ -- ---- -- --- ---- -- -------- -- --- ------ ------,627848,627840,627444,627432,627461,627878,,5,saw
screen,html.Screen,2_3_1_0_1_6,2022-05-09T10:37:37.078Z,,,,,,,,,,,,,,,,,12,,,,,,,,,,,,,,359,,response,,,,5,C,,,,,,Space,keypress(Space),,,,instrumental,,,,---- ------ ------ ------- ------ --- another -----------<br>-- ----- --- ---- -- --- ------ ---- - ---- -- ----------<br>-- ------ ---- --- ---- --- --- --- ----- -- -------- ---<br>------ ------- -------- --- ---- -- ------- ------------ --<br>------ -- ---- -- --- ---- -- -------- -- --- ------ ------,628229,628221,627862,627849,627878,628263,,6,another
screen,html.Screen,2_3_1_0_1_7,2022-05-09T10:37:37.502Z,,,,,,,,,,,,,,,,,12,,,,,,,,,,,,,,400,,response,,,,5,C,,,,,,Space,keypress(Space),,,,instrumental,,,,---- ------ ------ ------- ------ --- ------- opportunity<br>-- ----- --- ---- -- --- ------ ---- - ---- -- ----------<br>-- ------ ---- --- ---- --- --- --- ----- -- -------- ---<br>------ ------- -------- --- ---- -- ------- ------------ --<br>------ -- ---- -- --- ---- -- -------- -- --- ------ ------,628654,628646,628246,628229,628263,628697,,7,opportunity
screen,html.Screen,2_3_1_0_1_8,2022-05-09T10:37:37.951Z,,,,,,,,,,,,,,,,,12,,,,,,,,,,,,,,414,,response,,,,5,C,,,,,,Space,keypress(Space),,,,instrumental,,,,---- ------ ------ ------- ------ --- ------- -----------<br>to ----- --- ---- -- --- ------ ---- - ---- -- ----------<br>-- ------ ---- --- ---- --- --- --- ----- -- -------- ---<br>------ ------- -------- --- ---- -- ------- ------------ --<br>------ -- ---- -- --- ---- -- -------- -- --- ------ ------,629103.0000000001,629095,628681,628654,628697,629132,,8,to
screen,html.Screen,2_3_1_0_1_9,2022-05-09T10:37:38.299Z,,,,,,,,,,,,,,,,,12,,,,,,,,,,,,,,327,,response,,,,5,C,,,,,,Space,keypress(Space),,,,instrumental,,,,---- ------ ------ ------- ------ --- ------- -----------<br>-- stack --- ---- -- --- ------ ---- - ---- -- ----------<br>-- ------ ---- --- ---- --- --- --- ----- -- -------- ---<br>------ ------- -------- --- ---- -- ------- ------------ --<br>------ -- ---- -- --- ---- -- -------- -- --- ------ ------,629450,629442,629115,629103.0000000001,629132,629482,,9,stack
screen,html.Screen,2_3_1_0_1_10,2022-05-09T10:37:38.780Z,,,,,,,,,,,,,,,,,12,,,,,,,,,,,,,,457,,response,,,,5,C,,,,,,Space,keypress(Space),,,,instrumental,,,,---- ------ ------ ------- ------ --- ------- -----------<br>-- ----- the ---- -- --- ------ ---- - ---- -- ----------<br>-- ------ ---- --- ---- --- --- --- ----- -- -------- ---<br>------ ------- -------- --- ---- -- ------- ------------ --<br>------ -- ---- -- --- ---- -- -------- -- --- ------ ------,629931,629923,629466,629450,629482,629967,,10,the
screen,html.Screen,2_3_1_0_1_11,2022-05-09T10:37:39.206Z,,,,,,,,,,,,,,,,,12,,,,,,,,,,,,,,398,,response,,,,5,C,,,,,,Space,keypress(Space),,,,instrumental,,,,---- ------ ------ ------- ------ --- ------- -----------<br>-- ----- --- odds -- --- ------ ---- - ---- -- ----------<br>-- ------ ---- --- ---- --- --- --- ----- -- -------- ---<br>------ ------- -------- --- ---- -- ------- ------------ --<br>------ -- ---- -- --- ---- -- -------- -- --- ------ ------,630357,630349,629951,629931,629967,630385,,11,odds
screen,html.Screen,2_3_1_0_1_12,2022-05-09T10:37:39.533Z,,,,,,,,,,,,,,,,,12,,,,,,,,,,,,,,308,,response,,,,5,C,,,,,,Space,keypress(Space),,,,instrumental,,,,---- ------ ------ ------- ------ --- ------- -----------<br>-- ----- --- ---- in --- ------ ---- - ---- -- ----------<br>-- ------ ---- --- ---- --- --- --- ----- -- -------- ---<br>------ ------- -------- --- ---- -- ------- ------------ --<br>------ -- ---- -- --- ---- -- -------- -- --- ------ ------,630684,630676,630368,630357,630385,630703,,12,in
screen,html.Screen,2_3_1_0_1_13,2022-05-09T10:37:39.953Z,,,,,,,,,,,,,,,,,12,,,,,,,,,,,,,,411,,response,,,,5,C,,,,,,Space,keypress(Space),,,,instrumental,,,,---- ------ ------ ------- ------ --- ------- -----------<br>-- ----- --- ---- -- his ------ ---- - ---- -- ----------<br>-- ------ ---- --- ---- --- --- --- ----- -- -------- ---<br>------ ------- -------- --- ---- -- ------- ------------ --<br>------ -- ---- -- --- ---- -- -------- -- --- ------ ------,631105,631097,630686,630684,630703,631137,,13,his
screen,html.Screen,2_3_1_0_1_14,2022-05-09T10:37:40.693Z,,,,,,,,,,,,,,,,,12,,,,,,,,,,,,,,716,,response,,,,5,C,,,,,,Space,keypress(Space),,,,instrumental,,,,---- ------ ------ ------- ------ --- ------- -----------<br>-- ----- --- ---- -- --- favour ---- - ---- -- ----------<br>-- ------ ---- --- ---- --- --- --- ----- -- -------- ---<br>------ ------- -------- --- ---- -- ------- ------------ --<br>------ -- ---- -- --- ---- -- -------- -- --- ------ ------,631844,631837,631121,631105,631137,631873,,14,favour
screen,html.Screen,2_3_1_0_1_15,2022-05-09T10:37:41.585Z,,,,,,,,,,,,,,,,,12,,,,,,,,,,,,,,872.0000000001164,,response,,,,5,C,,,,,,Space,keypress(Space),,,,instrumental,,,,---- ------ ------ ------- ------ --- ------- -----------<br>-- ----- --- ---- -- --- ------ with - ---- -- ----------<br>-- ------ ---- --- ---- --- --- --- ----- -- -------- ---<br>------ ------- -------- --- ---- -- ------- ------------ --<br>------ -- ---- -- --- ---- -- -------- -- --- ------ ------,632736,632728.0000000001,631856,631844,631873,632775,,15,with
screen,html.Screen,2_3_1_0_1_16,2022-05-09T10:37:41.903Z,,,,,,,,,,,,,,,,,12,,,,,,,,,,,,,,287,,response,,,,5,C,,,,,,Space,keypress(Space),,,,instrumental,,,,---- ------ ------ ------- ------ --- ------- -----------<br>-- ----- --- ---- -- --- ------ ---- a ---- -- ----------<br>-- ------ ---- --- ---- --- --- --- ----- -- -------- ---<br>------ ------- -------- --- ---- -- ------- ------------ --<br>------ -- ---- -- --- ---- -- -------- -- --- ------ ------,633054,633046,632759,632736,632775,633076,,16,a
screen,html.Screen,2_3_1_0_1_17,2022-05-09T10:37:42.260Z,,,,,,,,,,,,,,,,,12,,,,,,,,,,,,,,345,,response,,,,5,C,,,,,,Space,keypress(Space),,,,instrumental,,,,---- ------ ------ ------- ------ --- ------- -----------<br>-- ----- --- ---- -- --- ------ ---- - dash -- ----------<br>-- ------ ---- --- ---- --- --- --- ----- -- -------- ---<br>------ ------- -------- --- ---- -- ------- ------------ --<br>------ -- ---- -- --- ---- -- -------- -- --- ------ ------,633411,633404,633059,633054,633076,633443,,17,dash
screen,html.Screen,2_3_1_0_1_18,2022-05-09T10:37:42.575Z,,,,,,,,,,,,,,,,,12,,,,,,,,,,,,,,292,,response,,,,5,C,,,,,,Space,keypress(Space),,,,instrumental,,,,---- ------ ------ ------- ------ --- ------- -----------<br>-- ----- --- ---- -- --- ------ ---- - ---- of ----------<br>-- ------ ---- --- ---- --- --- --- ----- -- -------- ---<br>------ ------- -------- --- ---- -- ------- ------------ --<br>------ -- ---- -- --- ---- -- -------- -- --- ------ ------,633727,633719,633427,633411,633443,633761,,18,of
screen,html.Screen,2_3_1_0_1_19,2022-05-09T10:37:42.890Z,,,,,,,,,,,,,,,,,12,,,,,,,,,,,,,,290,,response,,,,5,C,,,,,,Space,keypress(Space),,,,instrumental,,,,---- ------ ------ ------- ------ --- ------- -----------<br>-- ----- --- ---- -- --- ------ ---- - ---- -- ingenuity.<br>-- ------ ---- --- ---- --- --- --- ----- -- -------- ---<br>------ ------- -------- --- ---- -- ------- ------------ --<br>------ -- ---- -- --- ---- -- -------- -- --- ------ ------,634042,634034,633744,633727,633761,634062,,19,ingenuity.
screen,html.Screen,2_3_1_0_1_20,2022-05-09T10:37:43.471Z,,,,,,,,,,,,,,,,,12,,,,,,,,,,,,,,571,,response,,,,5,C,,,,,,Space,keypress(Space),,,,instrumental,,,,---- ------ ------ ------- ------ --- ------- -----------<br>-- ----- --- ---- -- --- ------ ---- - ---- -- ----------<br>He ------ ---- --- ---- --- --- --- ----- -- -------- ---<br>------ ------- -------- --- ---- -- ------- ------------ --<br>------ -- ---- -- --- ---- -- -------- -- --- ------ ------,634623,634615,634044,634042,634062,634663,,20,He
screen,html.Screen,2_3_1_0_1_21,2022-05-09T10:37:43.857Z,,,,,,,,,,,,,,,,,12,,,,,,,,,,,,,,355,,response,,,,5,C,,,,,,Space,keypress(Space),,,,instrumental,,,,---- ------ ------ ------- ------ --- ------- -----------<br>-- ----- --- ---- -- --- ------ ---- - ---- -- ----------<br>-- walked ---- --- ---- --- --- --- ----- -- -------- ---<br>------ ------- -------- --- ---- -- ------- ------------ --<br>------ -- ---- -- --- ---- -- -------- -- --- ------ ------,635009,635001,634646,634623,634663,635030,,21,walked
screen,html.Screen,2_3_1_0_1_22,2022-05-09T10:37:44.200Z,,,,,,,,,,,,,,,,,12,,,,,,,,,,,,,,329,,response,,,,5,C,,,,,,Space,keypress(Space),,,,instrumental,,,,---- ------ ------ ------- ------ --- ------- -----------<br>-- ----- --- ---- -- --- ------ ---- - ---- -- ----------<br>-- ------ into --- ---- --- --- --- ----- -- -------- ---<br>------ ------- -------- --- ---- -- ------- ------------ --<br>------ -- ---- -- --- ---- -- -------- -- --- ------ ------,635351,635343,635014,635009,635030,635382,,22,into
screen,html.Screen,2_3_1_0_1_23,2022-05-09T10:37:44.960Z,,,,,,,,,,,,,,,,,12,,,,,,,,,,,,,,737,,response,,,,5,C,,,,,,Space,keypress(Space),,,,instrumental,,,,---- ------ ------ ------- ------ --- ------- -----------<br>-- ----- --- ---- -- --- ------ ---- - ---- -- ----------<br>-- ------ ---- his ---- --- --- --- ----- -- -------- ---<br>------ ------- -------- --- ---- -- ------- ------------ --<br>------ -- ---- -- --- ---- -- -------- -- --- ------ ------,636111,636102,635365,635351,635382,636150,,23,his
screen,html.Screen,2_3_1_0_1_24,2022-05-09T10:37:46.725Z,,,,,,,,,,,,,,,,,12,,,,,,,,,,,,,,1733,,response,,,,5,C,,,,,,Space,keypress(Space),,,,instrumental,,,,---- ------ ------ ------- ------ --- ------- -----------<br>-- ----- --- ---- -- --- ------ ---- - ---- -- ----------<br>-- ------ ---- --- bank --- --- --- ----- -- -------- ---<br>------ ------- -------- --- ---- -- ------- ------------ --<br>------ -- ---- -- --- ---- -- -------- -- --- ------ ------,637876,637867,636134,636111,636150,637905,,24,bank
screen,html.Screen,2_3_1_0_1_25,2022-05-09T10:37:47.113Z,,,,,,,,,,,,,,,,,12,,,,,,,,,,,,,,367,,response,,,,5,C,,,,,,Space,keypress(Space),,,,instrumental,,,,---- ------ ------ ------- ------ --- ------- -----------<br>-- ----- --- ---- -- --- ------ ---- - ---- -- ----------<br>-- ------ ---- --- ---- one --- --- ----- -- -------- ---<br>------ ------- -------- --- ---- -- ------- ------------ --<br>------ -- ---- -- --- ---- -- -------- -- --- ------ ------,638265,638256,637889,637876,637905,638290,,25,one
screen,html.Screen,2_3_1_0_1_26,2022-05-09T10:37:47.466Z,,,,,,,,,,,,,,,,,12,,,,,,,,,,,,,,336,,response,,,,5,C,,,,,,Space,keypress(Space),,,,instrumental,,,,---- ------ ------ ------- ------ --- ------- -----------<br>-- ----- --- ---- -- --- ------ ---- - ---- -- ----------<br>-- ------ ---- --- ---- --- day --- ----- -- -------- ---<br>------ ------- -------- --- ---- -- ------- ------------ --<br>------ -- ---- -- --- ---- -- -------- -- --- ------ ------,638618,638609,638273,638265,638290,638641,,26,day
screen,html.Screen,2_3_1_0_1_27,2022-05-09T10:37:47.752Z,,,,,,,,,,,,,,,,,12,,,,,,,,,,,,,,271,,response,,,,5,C,,,,,,Space,keypress(Space),,,,instrumental,,,,---- ------ ------ ------- ------ --- ------- -----------<br>-- ----- --- ---- -- --- ------ ---- - ---- -- ----------<br>-- ------ ---- --- ---- --- --- and ----- -- -------- ---<br>------ ------- -------- --- ---- -- ------- ------------ --<br>------ -- ---- -- --- ---- -- -------- -- --- ------ ------,638904,638895,638624,638618,638641,638924,,27,and
screen,html.Screen,2_3_1_0_1_28,2022-05-09T10:37:48.034Z,,,,,,,,,,,,,,,,,12,,,,,,,,,,,,,,269,,response,,,,5,C,,,,,,Space,keypress(Space),,,,instrumental,,,,---- ------ ------ ------- ------ --- ------- -----------<br>-- ----- --- ---- -- --- ------ ---- - ---- -- ----------<br>-- ------ ---- --- ---- --- --- --- asked -- -------- ---<br>------ ------- -------- --- ---- -- ------- ------------ --<br>------ -- ---- -- --- ---- -- -------- -- --- ------ ------,639185.0000000001,639177,638908,638904,638924,639208,,28,asked
screen,html.Screen,2_3_1_0_1_29,2022-05-09T10:37:48.336Z,,,,,,,,,,,,,,,,,12,,,,,,,,,,,,,,287,,response,,,,5,C,,,,,,Space,keypress(Space),,,,instrumental,,,,---- ------ ------ ------- ------ --- ------- -----------<br>-- ----- --- ---- -- --- ------ ---- - ---- -- ----------<br>-- ------ ---- --- ---- --- --- --- ----- to -------- ---<br>------ ------- -------- --- ---- -- ------- ------------ --<br>------ -- ---- -- --- ---- -- -------- -- --- ------ ------,639488,639479,639192,639186,639208,639509,,29,to
screen,html.Screen,2_3_1_0_1_30,2022-05-09T10:37:48.631Z,,,,,,,,,,,,,,,,,12,,,,,,,,,,,,,,282,,response,,,,5,C,,,,,,Space,keypress(Space),,,,instrumental,,,,---- ------ ------ ------- ------ --- ------- -----------<br>-- ----- --- ---- -- --- ------ ---- - ---- -- ----------<br>-- ------ ---- --- ---- --- --- --- ----- -- withdraw ---<br>------ ------- -------- --- ---- -- ------- ------------ --<br>------ -- ---- -- --- ---- -- -------- -- --- ------ ------,639782,639775,639493,639488,639509,639809,,30,withdraw
screen,html.Screen,2_3_1_0_1_31,2022-05-09T10:37:48.966Z,,,,,,,,,,,,,,,,,12,,,,,,,,,,,,,,315,,response,,,,5,C,,,,,,Space,keypress(Space),,,,instrumental,,,,---- ------ ------ ------- ------ --- ------- -----------<br>-- ----- --- ---- -- --- ------ ---- - ---- -- ----------<br>-- ------ ---- --- ---- --- --- --- ----- -- -------- his<br>------ ------- -------- --- ---- -- ------- ------------ --<br>------ -- ---- -- --- ---- -- -------- -- --- ------ ------,640118,640109,639794,639783,639809,640145,,31,his
screen,html.Screen,2_3_1_0_1_32,2022-05-09T10:37:49.312Z,,,,,,,,,,,,,,,,,12,,,,,,,,,,,,,,327,,response,,,,5,C,,,,,,Space,keypress(Space),,,,instrumental,,,,---- ------ ------ ------- ------ --- ------- -----------<br>-- ----- --- ---- -- --- ------ ---- - ---- -- ----------<br>-- ------ ---- --- ---- --- --- --- ----- -- -------- ---<br>entire ------- -------- --- ---- -- ------- ------------ --<br>------ -- ---- -- --- ---- -- -------- -- --- ------ ------,640464,640455,640128,640118,640145,640496,,32,entire
screen,html.Screen,2_3_1_0_1_33,2022-05-09T10:37:49.637Z,,,,,,,,,,,,,,,,,12,,,,,,,,,,,,,,301,,response,,,,5,C,,,,,,Space,keypress(Space),,,,instrumental,,,,---- ------ ------ ------- ------ --- ------- -----------<br>-- ----- --- ---- -- --- ------ ---- - ---- -- ----------<br>-- ------ ---- --- ---- --- --- --- ----- -- -------- ---<br>------ account -------- --- ---- -- ------- ------------ --<br>------ -- ---- -- --- ---- -- -------- -- --- ------ ------,640789,640780,640479,640464,640496,640813,,33,account
screen,html.Screen,2_3_1_0_1_34,2022-05-09T10:37:49.954Z,,,,,,,,,,,,,,,,,12,,,,,,,,,,,,,,300,,response,,,,5,C,,,,,,Space,keypress(Space),,,,instrumental,,,,"---- ------ ------ ------- ------ --- ------- -----------<br>-- ----- --- ---- -- --- ------ ---- - ---- -- ----------<br>-- ------ ---- --- ---- --- --- --- ----- -- -------- ---<br>------ ------- balance, --- ---- -- ------- ------------ --<br>------ -- ---- -- --- ---- -- -------- -- --- ------ ------",641105,641096,640796,640789,640813,641131,,34,"balance,"
screen,html.Screen,2_3_1_0_1_35,2022-05-09T10:37:50.254Z,,,,,,,,,,,,,,,,,12,,,,,,,,,,,,,,284,,response,,,,5,C,,,,,,Space,keypress(Space),,,,instrumental,,,,---- ------ ------ ------- ------ --- ------- -----------<br>-- ----- --- ---- -- --- ------ ---- - ---- -- ----------<br>-- ------ ---- --- ---- --- --- --- ----- -- -------- ---<br>------ ------- -------- but ---- -- ------- ------------ --<br>------ -- ---- -- --- ---- -- -------- -- --- ------ ------,641405,641397,641113,641105,641131,641430,,35,but
screen,html.Screen,2_3_1_0_1_36,2022-05-09T10:37:50.551Z,,,,,,,,,,,,,,,,,12,,,,,,,,,,,,,,280,,response,,,,5,C,,,,,,Space,keypress(Space),,,,instrumental,,,,---- ------ ------ ------- ------ --- ------- -----------<br>-- ----- --- ---- -- --- ------ ---- - ---- -- ----------<br>-- ------ ---- --- ---- --- --- --- ----- -- -------- ---<br>------ ------- -------- --- with -- ------- ------------ --<br>------ -- ---- -- --- ---- -- -------- -- --- ------ ------,641702,641695,641415,641406.0000000001,641430,641732,,36,with
screen,html.Screen,2_3_1_0_1_37,2022-05-09T10:37:50.842Z,,,,,,,,,,,,,,,,,12,,,,,,,,,,,,,,270,,response,,,,5,C,,,,,,Space,keypress(Space),,,,instrumental,,,,---- ------ ------ ------- ------ --- ------- -----------<br>-- ----- --- ---- -- --- ------ ---- - ---- -- ----------<br>-- ------ ---- --- ---- --- --- --- ----- -- -------- ---<br>------ ------- -------- --- ---- an ------- ------------ --<br>------ -- ---- -- --- ---- -- -------- -- --- ------ ------,641993,641985,641715,641703,641732,642016,,37,an
screen,html.Screen,2_3_1_0_1_38,2022-05-09T10:37:51.148Z,,,,,,,,,,,,,,,,,12,,,,,,,,,,,,,,291,,response,,,,5,C,,,,,,Space,keypress(Space),,,,instrumental,,,,---- ------ ------ ------- ------ --- ------- -----------<br>-- ----- --- ---- -- --- ------ ---- - ---- -- ----------<br>-- ------ ---- --- ---- --- --- --- ----- -- -------- ---<br>------ ------- -------- --- ---- -- unusual ------------ --<br>------ -- ---- -- --- ---- -- -------- -- --- ------ ------,642299,642291,642000,641994,642016,642334,,38,unusual
screen,html.Screen,2_3_1_0_1_39,2022-05-09T10:37:51.463Z,,,,,,,,,,,,,,,,,12,,,,,,,,,,,,,,288,,response,,,,5,C,,,,,,Space,keypress(Space),,,,instrumental,,,,---- ------ ------ ------- ------ --- ------- -----------<br>-- ----- --- ---- -- --- ------ ---- - ---- -- ----------<br>-- ------ ---- --- ---- --- --- --- ----- -- -------- ---<br>------ ------- -------- --- ---- -- ------- stipulation: --<br>------ -- ---- -- --- ---- -- -------- -- --- ------ ------,642614,642605,642317,642300.0000000001,642334,642635,,39,stipulation:
screen,html.Screen,2_3_1_0_1_40,2022-05-09T10:37:51.887Z,,,,,,,,,,,,,,,,,12,,,,,,,,,,,,,,412,,response,,,,5,C,,,,,,Space,keypress(Space),,,,instrumental,,,,---- ------ ------ ------- ------ --- ------- -----------<br>-- ----- --- ---- -- --- ------ ---- - ---- -- ----------<br>-- ------ ---- --- ---- --- --- --- ----- -- -------- ---<br>------ ------- -------- --- ---- -- ------- ------------ He<br>------ -- ---- -- --- ---- -- -------- -- --- ------ ------,643038,643030,642618,642614,642635,643069,,40,He
screen,html.Screen,2_3_1_0_1_41,2022-05-09T10:37:52.183Z,,,,,,,,,,,,,,,,,12,,,,,,,,,,,,,,274,,response,,,,5,C,,,,,,Space,keypress(Space),,,,instrumental,,,,---- ------ ------ ------- ------ --- ------- -----------<br>-- ----- --- ---- -- --- ------ ---- - ---- -- ----------<br>-- ------ ---- --- ---- --- --- --- ----- -- -------- ---<br>------ ------- -------- --- ---- -- ------- ------------ --<br>wanted -- ---- -- --- ---- -- -------- -- --- ------ ------,643334.0000000001,643326,643052,643039,643069,643353,,41,wanted
screen,html.Screen,2_3_1_0_1_42,2022-05-09T10:37:52.539Z,,,,,,,,,,,,,,,,,12,,,,,,,,,,,,,,347,,response,,,,5,C,,,,,,Space,keypress(Space),,,,instrumental,,,,---- ------ ------ ------- ------ --- ------- -----------<br>-- ----- --- ---- -- --- ------ ---- - ---- -- ----------<br>-- ------ ---- --- ---- --- --- --- ----- -- -------- ---<br>------ ------- -------- --- ---- -- ------- ------------ --<br>------ as ---- -- --- ---- -- -------- -- --- ------ ------,643691,643683,643336,643334.0000000001,643353,643721,,42,as
screen,html.Screen,2_3_1_0_1_43,2022-05-09T10:37:52.872Z,,,,,,,,,,,,,,,,,12,,,,,,,,,,,,,,312,,response,,,,5,C,,,,,,Space,keypress(Space),,,,instrumental,,,,---- ------ ------ ------- ------ --- ------- -----------<br>-- ----- --- ---- -- --- ------ ---- - ---- -- ----------<br>-- ------ ---- --- ---- --- --- --- ----- -- -------- ---<br>------ ------- -------- --- ---- -- ------- ------------ --<br>------ -- much -- --- ---- -- -------- -- --- ------ ------,644023,644016,643704,643691,643721,644054,,43,much
screen,html.Screen,2_3_1_0_1_44,2022-05-09T10:37:53.189Z,,,,,,,,,,,,,,,,,12,,,,,,,,,,,,,,294,,response,,,,5,C,,,,,,Space,keypress(Space),,,,instrumental,,,,---- ------ ------ ------- ------ --- ------- -----------<br>-- ----- --- ---- -- --- ------ ---- - ---- -- ----------<br>-- ------ ---- --- ---- --- --- --- ----- -- -------- ---<br>------ ------- -------- --- ---- -- ------- ------------ --<br>------ -- ---- of --- ---- -- -------- -- --- ------ ------,644340,644332,644038,644023,644054,644372,,44,of
screen,html.Screen,2_3_1_0_1_45,2022-05-09T10:37:53.476Z,,,,,,,,,,,,,,,,,12,,,,,,,,,,,,,,263,,response,,,,5,C,,,,,,Space,keypress(Space),,,,instrumental,,,,---- ------ ------ ------- ------ --- ------- -----------<br>-- ----- --- ---- -- --- ------ ---- - ---- -- ----------<br>-- ------ ---- --- ---- --- --- --- ----- -- -------- ---<br>------ ------- -------- --- ---- -- ------- ------------ --<br>------ -- ---- -- the ---- -- -------- -- --- ------ ------,644627.0000000001,644619,644356,644340,644372,644657,,45,the
screen,html.Screen,2_3_1_0_1_46,2022-05-09T10:37:53.812Z,,,,,,,,,,,,,,,,,12,,,,,,,,,,,,,,314.0000000001164,,response,,,,5,C,,,,,,Space,keypress(Space),,,,instrumental,,,,---- ------ ------ ------- ------ --- ------- -----------<br>-- ----- --- ---- -- --- ------ ---- - ---- -- ----------<br>-- ------ ---- --- ---- --- --- --- ----- -- -------- ---<br>------ ------- -------- --- ---- -- ------- ------------ --<br>------ -- ---- -- --- cash -- -------- -- --- ------ ------,644963,644954.0000000001,644640,644628,644657,644991,,46,cash
screen,html.Screen,2_3_1_0_1_47,2022-05-09T10:37:54.119Z,,,,,,,,,,,,,,,,,12,,,,,,,,,,,,,,289,,response,,,,5,C,,,,,,Space,keypress(Space),,,,instrumental,,,,---- ------ ------ ------- ------ --- ------- -----------<br>-- ----- --- ---- -- --- ------ ---- - ---- -- ----------<br>-- ------ ---- --- ---- --- --- --- ----- -- -------- ---<br>------ ------- -------- --- ---- -- ------- ------------ --<br>------ -- ---- -- --- ---- as -------- -- --- ------ ------,645271,645262,644973,644963,644991,645292,,47,as
screen,html.Screen,2_3_1_0_1_48,2022-05-09T10:37:54.426Z,,,,,,,,,,,,,,,,,12,,,,,,,,,,,,,,294,,response,,,,5,C,,,,,,Space,keypress(Space),,,,instrumental,,,,---- ------ ------ ------- ------ --- ------- -----------<br>-- ----- --- ---- -- --- ------ ---- - ---- -- ----------<br>-- ------ ---- --- ---- --- --- --- ----- -- -------- ---<br>------ ------- -------- --- ---- -- ------- ------------ --<br>------ -- ---- -- --- ---- -- possible -- --- ------ ------,645577,645569,645275,645271,645292,645609,,48,possible
screen,html.Screen,2_3_1_0_1_49,2022-05-09T10:37:54.764Z,,,,,,,,,,,,,,,,,12,,,,,,,,,,,,,,315,,response,,,,5,C,,,,,,Space,keypress(Space),,,,instrumental,,,,---- ------ ------ ------- ------ --- ------- -----------<br>-- ----- --- ---- -- --- ------ ---- - ---- -- ----------<br>-- ------ ---- --- ---- --- --- --- ----- -- -------- ---<br>------ ------- -------- --- ---- -- ------- ------------ --<br>------ -- ---- -- --- ---- -- -------- in --- ------ ------,645916,645907,645592,645578,645609,645942,,49,in
screen,html.Screen,2_3_1_0_1_50,2022-05-09T10:37:55.097Z,,,,,,,,,,,,,,,,,12,,,,,,,,,,,,,,313,,response,,,,5,C,,,,,,Space,keypress(Space),,,,instrumental,,,,---- ------ ------ ------- ------ --- ------- -----------<br>-- ----- --- ---- -- --- ------ ---- - ---- -- ----------<br>-- ------ ---- --- ---- --- --- --- ----- -- -------- ---<br>------ ------- -------- --- ---- -- ------- ------------ --<br>------ -- ---- -- --- ---- -- -------- -- one ------ ------,646249,646240,645927,645916,645942,646277,,50,one
screen,html.Screen,2_3_1_0_1_51,2022-05-09T10:37:55.435Z,,,,,,,,,,,,,,,,,12,,,,,,,,,,,,,,318,,response,,,,5,C,,,,,,Space,keypress(Space),,,,instrumental,,,,---- ------ ------ ------- ------ --- ------- -----------<br>-- ----- --- ---- -- --- ------ ---- - ---- -- ----------<br>-- ------ ---- --- ---- --- --- --- ----- -- -------- ---<br>------ ------- -------- --- ---- -- ------- ------------ --<br>------ -- ---- -- --- ---- -- -------- -- --- dollar ------,646586,646578,646260,646249,646277,646612,,51,dollar
screen,html.Screen,2_3_1_0_1_52,2022-05-09T10:37:55.773Z,,,,,,,,,,,,,,,,,12,,,,,,,,,,,,,,321,,response,,,,5,C,,,,,,Space,keypress(Space),,,,instrumental,,,,---- ------ ------ ------- ------ --- ------- -----------<br>-- ----- --- ---- -- --- ------ ---- - ---- -- ----------<br>-- ------ ---- --- ---- --- --- --- ----- -- -------- ---<br>------ ------- -------- --- ---- -- ------- ------------ --<br>------ -- ---- -- --- ---- -- -------- -- --- ------ notes.,646924,646916,646595,646587,646612,646945,,52,notes.
Item 5,flow.Loop,2_3_1_0_1,2022-05-09T10:37:55.774Z,,,,,,,,,,,,,,,,,,,,,,,,,,,,,,,24536,,completion,,,,,,,,,,,,,,,,,,,,,646925.0000000001,646916,622364,622368,622380,646945,,,
Question 1,html.Screen,2_3_1_0_2,2022-05-09T10:37:58.288Z,,,,,,,,,,,,,,,,,,,,,,,,,,,,true,TRUE,,2503,,response,,,,5,C,,,,,,TRUE,click #choice-1,,,,instrumental,,,,,649439,649433,646930,646925.0000000001,646945,649469,,,
Question 2,html.Screen,2_3_1_0_3,2022-05-09T10:38:00.344Z,,,,,,,,,,,,,,,,,,,,,,,,,,,,true,TRUE,,2037,,response,,,,5,C,,,,,,TRUE,click #choice-1,,,,instrumental,,,,,651495,651489,649452,649439,649469,651525,,,
Item 5,flow.Sequence,2_3_1_0,2022-05-09T10:38:00.344Z,,,,,,,,,,,,,,,,,,,,,,,,,,,,,,,36111,,completion,,,,,,,,,,,,,,,,,,,,,651495,651489,615361,615362,615378,651525,,,
Holding screen,html.Screen,2_3_1_1_0,2022-05-09T10:38:07.360Z,,,,,,,,,,,,,,,,,,,,,,,,,,,,,,,7002,,timeout,,,,,,,,,,,,,,,,,,,,,658511,658511,651508,651496,651525,658527,,,
screen,html.Screen,2_3_1_1_1_0,2022-05-09T10:38:07.966Z,,,,,,,,,,,,,,,,,2,,,,,,,,,,,,,,597.0000000001164,,response,,,,1,C,,,,,,Space,keypress(Space),,,,instrumental,,,,Two ---- ------ --- ------- ---------- ------- ----------<br>--- --------- --- ----------- ------- ----- ------- ---<br>--------- ---- -- --- ---- -- --------- -- ---- -------<br>-- --------- ------ --- ----- ------ ---- --- --------- --<br>------ - ---- -- --- ----------- ------- ---- ----- -----<br>--- -------- - ------ ---- -- ----- ---- --- --- -----------<br>-- -------,659117,659108.0000000001,658511,658512,658527,659145,,0,Two
screen,html.Screen,2_3_1_1_1_1,2022-05-09T10:38:08.314Z,,,,,,,,,,,,,,,,,2,,,,,,,,,,,,,,328,,response,,,,1,C,,,,,,Space,keypress(Space),,,,instrumental,,,,--- days ------ --- ------- ---------- ------- ----------<br>--- --------- --- ----------- ------- ----- ------- ---<br>--------- ---- -- --- ---- -- --------- -- ---- -------<br>-- --------- ------ --- ----- ------ ---- --- --------- --<br>------ - ---- -- --- ----------- ------- ---- ----- -----<br>--- -------- - ------ ---- -- ----- ---- --- --- -----------<br>-- -------,659465,659457,659129,659117,659145,659496,,1,days
screen,html.Screen,2_3_1_1_1_2,2022-05-09T10:38:08.701Z,,,,,,,,,,,,,,,,,2,,,,,,,,,,,,,,365,,response,,,,1,C,,,,,,Space,keypress(Space),,,,instrumental,,,,"--- ---- later, --- ------- ---------- ------- ----------<br>--- --------- --- ----------- ------- ----- ------- ---<br>--------- ---- -- --- ---- -- --------- -- ---- -------<br>-- --------- ------ --- ----- ------ ---- --- --------- --<br>------ - ---- -- --- ----------- ------- ---- ----- -----<br>--- -------- - ------ ---- -- ----- ---- --- --- -----------<br>-- -------",659852,659843,659478,659466,659496,659881,,2,"later,"
screen,html.Screen,2_3_1_1_1_3,2022-05-09T10:38:09.064Z,,,,,,,,,,,,,,,,,2,,,,,,,,,,,,,,343,,response,,,,1,C,,,,,,Space,keypress(Space),,,,instrumental,,,,--- ---- ------ the ------- ---------- ------- ----------<br>--- --------- --- ----------- ------- ----- ------- ---<br>--------- ---- -- --- ---- -- --------- -- ---- -------<br>-- --------- ------ --- ----- ------ ---- --- --------- --<br>------ - ---- -- --- ----------- ------- ---- ----- -----<br>--- -------- - ------ ---- -- ----- ---- --- --- -----------<br>-- -------,660215,660207,659864,659852,659881,660248,,3,the
screen,html.Screen,2_3_1_1_1_4,2022-05-09T10:38:10.002Z,,,,,,,,,,,,,,,,,2,,,,,,,,,,,,,,913,,response,,,,1,C,,,,,,Space,keypress(Space),,,,instrumental,,,,--- ---- ------ --- British ---------- ------- ----------<br>--- --------- --- ----------- ------- ----- ------- ---<br>--------- ---- -- --- ---- -- --------- -- ---- -------<br>-- --------- ------ --- ----- ------ ---- --- --------- --<br>------ - ---- -- --- ----------- ------- ---- ----- -----<br>--- -------- - ------ ---- -- ----- ---- --- --- -----------<br>-- -------,661153,661145,660232,660215,660248,661184,,4,British
