sender,sender_type,sender_id,timestamp,meta,,Blues,Classical,Country,Dance,Electronic,Folk,Gospel,Hip-Hop,Jazz,Latin,Musical/Film,New-age,Pop,Prolific_id,Provo_ID,R&B,Rap,Reggae,Religious,Rock,Soul,Swing,Traditional,age,artist_name,correct,correctResponse,distraction,duration,education,ended_on,familiarity,gender,headphone_check_performance,item,list,music_frequency,offensiveness,pleasantness,position_correct,preference,response,response_action,snippet_file,song_name,song_rating,sound,stimulus_1,stimulus_2,stimulus_3,text,time_commit,time_end,time_render,time_run,time_show,time_switch,url,word,word_ID
Prolific ID,html.Form,0,2022-05-12T14:58:57.728Z,"{""labjs_version"":""20.2.2"",""labjs_build"":{""flavor"":""production"",""commit"":""a25486e0c714a0ae2ce03ff94b7bb6896854dcfa""},""location"":""https://run.pavlovia.org/mvasilev/prolific3_music_e/"",""userAgent"":""Mozilla/5.0 (Windows NT 6.3; Win64; x64) AppleWebKit/537.36 (KHTML, like Gecko) Chrome/101.0.4951.54 Safari/537.36"",""platform"":""Win32"",""language"":""en-GB"",""locale"":""en-GB"",""timeZone"":""Europe/London"",""timezoneOffset"":-60,""screen_width"":1920,""screen_height"":1080,""scroll_width"":1920,""scroll_height"":921,""window_innerWidth"":1920,""window_innerHeight"":969,""devicePixelRatio"":1}",,,,,,,,,,,,,,,5c9d88bb2b3c77001744ec1c,,,,,,,,,,,,,,,10641.340999904633,,form submission,,,,,,,,,,,,,,,,,,,,,24314.699999809265,24314.099999904633,13622.71,13631.299999713898,13672.759,24585.434,{},,
Introduction,html.Screen,1_0,2022-05-12T14:59:00.704Z,,,,,,,,,,,,,,,,,,,,,,,,,,,,,,,2704.565999999999,,response,,,,,,,,,,,continue,click button,,,,,,,,,27290.89999961853,27290,24301.806,24315.099999904633,24585.434,27304.604,,,
Volume calibration,html.Screen,1_1,2022-05-12T14:59:04.499Z,,,,,,,,,,,,,,,,,,,,,,,,,,,,,,,3777.3960000000006,,response,,,,,,,,,,,continue,click button,,,,,,,,,31085.799999713898,31082,27287.926,27291.099999904633,27304.604,31091.417,,,
Task instructions,html.Screen,1_2,2022-05-12T14:59:05.768Z,,,,,,,,,,,,,,,,,,,,,,,,,,,,,,,1262.482999618529,,response,,,,,,,,,,,continue,click button,,,,,,,,,32354.699999809265,32353.89999961853,31074.738,31085.89999961853,31091.417,32361.014,,,
Sounds,html.Screen,1_3_0_0,2022-05-12T14:59:10.015Z,,,,,,,,,,,,,,,,,,,,,,,,,,,,,,,4254.16,,timeout,,,,,,,,,2,,,,,,,,O,S,I,,36602.199999809265,36598.492,32344.333,32354.89999961853,32361.014,36615.174,,,
Judgement,html.Screen,1_3_0_1,2022-05-12T14:59:10.494Z,,,,,,,,,,,,,,,,,,,,,,,,,,,,true,2,,464.62599971389864,,response,,,,,,,,,2,,2,click #choice-2,,,,,O,S,I,,37080.699999809265,37079.7999997139,36598.492,36602.39999961853,36615.174,37083.195,,,
Trial,flow.Sequence,1_3_0,2022-05-12T14:59:10.494Z,,,,,,,,,,,,,,,,,,,,,,,,,,,,,,,4718.7859997138985,,completion,,,,,,,,,2,,,,,,,,O,S,I,,37081,37079.7999997139,32344.333,32354.89999961853,32361.014,37083.195,,,
Sounds,html.Screen,1_3_1_0,2022-05-12T14:59:14.734Z,,,,,,,,,,,,,,,,,,,,,,,,,,,,,,,4253.998,,timeout,,,,,,,,,1,,,,,,,,S,I,O,,41321.39999961853,41320.511,37066.513,37081.2999997139,37083.195,41337.193,,,
Judgement,html.Screen,1_3_1_1,2022-05-12T14:59:15.148Z,,,,,,,,,,,,,,,,,,,,,,,,,,,,true,1,,396.50699980926584,,response,,,,,,,,,1,,1,click #choice-1,,,,,S,I,O,,41734.59999990463,41733.699999809265,41320.511,41321.59999990463,41337.193,41738.622,,,
Trial,flow.Sequence,1_3_1,2022-05-12T14:59:15.148Z,,,,,,,,,,,,,,,,,,,,,,,,,,,,,,,4650.504999809265,,completion,,,,,,,,,1,,,,,,,,S,I,O,,41734.89999961853,41733.699999809265,37066.513,37081.199999809265,37083.195,41738.622,,,
Sounds,html.Screen,1_3_2_0,2022-05-12T14:59:19.390Z,,,,,,,,,,,,,,,,,,,,,,,,,,,,,,,4254.233,,timeout,,,,,,,,,2,,,,,,,,I,S,O,,45977.199999809265,45976.172,41721.939,41735.09999990463,41738.622,45992.855,,,
Judgement,html.Screen,1_3_2_1,2022-05-12T14:59:19.864Z,,,,,,,,,,,,,,,,,,,,,,,,,,,,true,2,,456.84499980926194,,response,,,,,,,,,2,,2,click #choice-2,,,,,I,S,O,,46450.7999997139,46449.699999809265,45976.172,45977.39999961853,45992.855,46460.751,,,
Trial,flow.Sequence,1_3_2,2022-05-12T14:59:19.864Z,,,,,,,,,,,,,,,,,,,,,,,,,,,,,,,4711.077999809262,,completion,,,,,,,,,2,,,,,,,,I,S,O,,46451.09999990463,46449.699999809265,41721.939,41735.09999990463,41738.622,46460.751,,,
Sounds,html.Screen,1_3_3_0,2022-05-12T14:59:24.112Z,,,,,,,,,,,,,,,,,,,,,,,,,,,,,,,4253.995000000003,,timeout,,,,,,,,,1,,,,,,,,S,O,I,,50698.89999961853,50698.064,46444.068,46451.199999809265,46460.751,50714.746,,,
Judgement,html.Screen,1_3_3_1,2022-05-12T14:59:24.442Z,,,,,,,,,,,,,,,,,,,,,,,,,,,,false,1,,312.95399980926595,,response,,,,,,,,,1,,3,click #choice-3,,,,,S,O,I,,51028.7999997139,51027.699999809265,50698.064,50699.09999990463,50714.746,51032.726,,,
Trial,flow.Sequence,1_3_3,2022-05-12T14:59:24.442Z,,,,,,,,,,,,,,,,,,,,,,,,,,,,,,,4566.948999809269,,completion,,,,,,,,,1,,,,,,,,S,O,I,,51029,51027.699999809265,46444.068,46451.09999990463,46460.751,51032.726,,,
Sounds,html.Screen,1_3_4_0,2022-05-12T14:59:28.683Z,,,,,,,,,,,,,,,,,,,,,,,,,,,,,,,4253.985000000001,,timeout,,,,,,,,,3,,,,,,,,O,I,S,,55270.59999990463,55270.029,51016.044,51029.09999990463,51032.726,55286.711,,,
Judgement,html.Screen,1_3_4_1,2022-05-12T14:59:29.391Z,,,,,,,,,,,,,,,,,,,,,,,,,,,,true,3,,690.8889999046296,,response,,,,,,,,,3,,3,click #choice-3,,,,,O,I,S,,55978.699999809265,55977.59999990463,55270.029,55270.699999809265,55286.711,55988.446,,,
Trial,flow.Sequence,1_3_4,2022-05-12T14:59:29.392Z,,,,,,,,,,,,,,,,,,,,,,,,,,,,,,,4944.87399990463,,completion,,,,,,,,,3,,,,,,,,O,I,S,,55978.7999997139,55977.59999990463,51016.044,51029.09999990463,51032.726,55988.446,,,
Sounds,html.Screen,1_3_5_0,2022-05-12T14:59:33.640Z,,,,,,,,,,,,,,,,,,,,,,,,,,,,,,,4253.5039999999935,,timeout,,,,,,,,,3,,,,,,,,I,O,S,,60226.699999809265,60225.27,55971.764,55978.89999961853,55988.446,60241.95,,,
Judgement,html.Screen,1_3_5_1,2022-05-12T14:59:34.027Z,,,,,,,,,,,,,,,,,,,,,,,,,,,,true,3,,371.6499999046355,,response,,,,,,,,,3,,3,click #choice-3,,,,,I,O,S,,60614.5,60613.59999990463,60225.27,60226.89999961853,60241.95,60627.141,,,
Trial,flow.Sequence,1_3_5,2022-05-12T14:59:34.028Z,,,,,,,,,,,,,,,,,,,,,,,,,,,,,,,4625.153999904629,,completion,,,,,,,,,3,,,,,,,,I,O,S,,60614.699999809265,60613.59999990463,55971.764,55978.89999961853,55988.446,60627.141,,,
Task,flow.Loop,1_3,2022-05-12T14:59:34.033Z,,,,,,,,,,,,,,,,,,,,,,,,,,,,,,,28252.585999904633,,completion,,,0.8333333333333334,,,,,,,,,,,,,,,,,,60619.7999997139,60613.59999990463,32344.333,32354.89999961853,32361.014,60627.141,,,
Trap,html.Screen,1_4,2022-05-12T14:59:34.034Z,,,,,,,,,,,,,,,,,,,,,,,,,,,,,,,NaN,,skipped,,,,,,,,,,,,,,,,,,,,,60621.2999997139,60613.59999990463,,60621.199999809265,,60627.141,,,
Thanks,html.Screen,1_5,2022-05-12T14:59:38.945Z,,,,,,,,,,,,,,,,,,,,,,,,,,,,,,,4904.458999904629,,response,,,,,,,,,,,continue,click button,,,,,,,,,65532.2999997139,65531.59999990463,60610.461,60621.39999961853,60627.141,73124.867,,,
Headphone screening,flow.Sequence,1,2022-05-12T14:59:38.945Z,,,,,,,,,,,,,,,,,,,,,,,,,,,,,,,40946.16599990463,,completion,,,,,,,,,,,,,,,,,,,,,65532.59999990463,65531.59999990463,24301.806,24315,24585.434,73124.867,,,
Instructions,html.Page,2_0,2022-05-12T15:00:04.639Z,,,,,,,,,,,,,,,,,,,,,,,,,,,,,,,18101.4329997139,,form submission,,,,,,,,,,,,,,,,,,,,,91226.59999990463,91226.2999997139,73108.186,73123.59999990463,73124.867,91229.414,,,
Holding screen,html.Screen,2_1_0_0,2022-05-12T15:00:14.621Z,,,,,,,,,,,,,,,,,,,,,,,,,,,,,,,10278.513999999996,,timeout,,,,,,,,,,,,,,,,,,,,,101208.19999980927,101207.634,91212.732,91226.7999997139,91229.414,101507.928,,,
screen,html.Screen,2_1_0_1_0,2022-05-12T15:00:15.710Z,,,,,,,,,,,,,,,,,53,,,,,,,,,,,,,,786.6719999046327,,response,,,,99,,,,,,,Space,keypress(Space),,,,,,,,When -- ----- -- ------ - ------- --- ----------<br>------------- ------ ------ ---- ---- ------- ----- -- ----<br>-------- ------- -- ---------- --- - --- ----- ----- ----<br>---- --- --- ----- --- ---- ---- ------- ----- ---- -------<br>--- --- -- ----- -- --- ---- -- --- ---- -- ------ ------<br>--- ----- -- ----,102297.39999961853,102294.59999990463,101207.634,101208.5,101507.928,102308.722,,0,When
screen,html.Screen,2_1_0_1_1,2022-05-12T15:00:16.112Z,,,,,,,,,,,,,,,,,53,,,,,,,,,,,,,,389.47799980927084,,response,,,,99,,,,,,,Space,keypress(Space),,,,,,,,---- it ----- -- ------ - ------- --- ----------<br>------------- ------ ------ ---- ---- ------- ----- -- ----<br>-------- ------- -- ---------- --- - --- ----- ----- ----<br>---- --- --- ----- --- ---- ---- ------- ----- ---- -------<br>--- --- -- ----- -- --- ---- -- --- ---- -- ------ ------<br>--- ----- -- ----,102699.39999961853,102698.19999980927,102292.041,102297.5,102308.722,102709.389,,1,it
screen,html.Screen,2_1_0_1_2,2022-05-12T15:00:16.412Z,,,,,,,,,,,,,,,,,53,,,,,,,,,,,,,,288.710999904637,,response,,,,99,,,,,,,Space,keypress(Space),,,,,,,,---- -- comes -- ------ - ------- --- ----------<br>------------- ------ ------ ---- ---- ------- ----- -- ----<br>-------- ------- -- ---------- --- - --- ----- ----- ----<br>---- --- --- ----- --- ---- ---- ------- ----- ---- -------<br>--- --- -- ----- -- --- ---- -- --- ---- -- ------ ------<br>--- ----- -- ----,102999,102998.09999990463,102692.706,102699.5,102709.389,103009.715,,2,comes
screen,html.Screen,2_1_0_1_3,2022-05-12T15:00:16.740Z,,,,,,,,,,,,,,,,,53,,,,,,,,,,,,,,316.48499980926863,,response,,,,99,,,,,,,Space,keypress(Space),,,,,,,,---- -- ----- to ------ - ------- --- ----------<br>------------- ------ ------ ---- ---- ------- ----- -- ----<br>-------- ------- -- ---------- --- - --- ----- ----- ----<br>---- --- --- ----- --- ---- ---- ------- ----- ---- -------<br>--- --- -- ----- -- --- ---- -- --- ---- -- ------ ------<br>--- ----- -- ----,103327.2999997139,103326.19999980927,102993.034,102999.09999990463,103009.715,103343.376,,3,to
screen,html.Screen,2_1_0_1_4,2022-05-12T15:00:17.024Z,,,,,,,,,,,,,,,,,53,,,,,,,,,,,,,,266.52399961852643,,response,,,,99,,,,,,,Space,keypress(Space),,,,,,,,---- -- ----- -- having - ------- --- ----------<br>------------- ------ ------ ---- ---- ------- ----- -- ----<br>-------- ------- -- ---------- --- - --- ----- ----- ----<br>---- --- --- ----- --- ---- ---- ------- ----- ---- -------<br>--- --- -- ----- -- --- ---- -- --- ---- -- ------ ------<br>--- ----- -- ----,103611.2999997139,103609.89999961853,103326.697,103327.5,103343.376,103627.058,,4,having
screen,html.Screen,2_1_0_1_5,2022-05-12T15:00:17.116Z,,,,,,,,,,,,,,,,,53,,,,,,,,,,,,,,74.94199999999546,,response,,,,99,,,,,,,Space,keypress(Space),,,,,,,,---- -- ----- -- ------ a ------- --- ----------<br>------------- ------ ------ ---- ---- ------- ----- -- ----<br>-------- ------- -- ---------- --- - --- ----- ----- ----<br>---- --- --- ----- --- ---- ---- ------- ----- ---- -------<br>--- --- -- ----- -- --- ---- -- --- ---- -- ------ ------<br>--- ----- -- ----,103703.5,103702,103610.379,103611.39999961853,103627.058,103710.583,,5,a
screen,html.Screen,2_1_0_1_6,2022-05-12T15:00:17.456Z,,,,,,,,,,,,,,,,,53,,,,,,,,,,,,,,331.51699990463385,,response,,,,99,,,,,,,Space,keypress(Space),,,,,,,,---- -- ----- -- ------ - lasting --- ----------<br>------------- ------ ------ ---- ---- ------- ----- -- ----<br>-------- ------- -- ---------- --- - --- ----- ----- ----<br>---- --- --- ----- --- ---- ---- ------- ----- ---- -------<br>--- --- -- ----- -- --- ---- -- --- ---- -- ------ ------<br>--- ----- -- ----,104043,104042.09999990463,103693.903,103703.89999961853,103710.583,104044.21,,6,lasting
screen,html.Screen,2_1_0_1_7,2022-05-12T15:00:17.924Z,,,,,,,,,,,,,,,,,53,,,,,,,,,,,,,,465.88999990462617,,response,,,,99,,,,,,,Space,keypress(Space),,,,,,,,---- -- ----- -- ------ - ------- and ----------<br>------------- ------ ------ ---- ---- ------- ----- -- ----<br>-------- ------- -- ---------- --- - --- ----- ----- ----<br>---- --- --- ----- --- ---- ---- ------- ----- ---- -------<br>--- --- -- ----- -- --- ---- -- --- ---- -- ------ ------<br>--- ----- -- ----,104511,104510.09999990463,104027.531,104043.19999980927,104044.21,104528.009,,7,and
screen,html.Screen,2_1_0_1_8,2022-05-12T15:00:18.404Z,,,,,,,,,,,,,,,,,53,,,,,,,,,,,,,,461.99099999999453,,response,,,,99,,,,,,,Space,keypress(Space),,,,,,,,---- -- ----- -- ------ - ------- --- fulfilling<br>------------- ------ ------ ---- ---- ------- ----- -- ----<br>-------- ------- -- ---------- --- - --- ----- ----- ----<br>---- --- --- ----- --- ---- ---- ------- ----- ---- -------<br>--- --- -- ----- -- --- ---- -- --- ---- -- ------ ------<br>--- ----- -- ----,104991.2999997139,104990,104511.331,104511.19999980927,104528.009,104995.299,,8,fulfilling
screen,html.Screen,2_1_0_1_9,2022-05-12T15:00:18.864Z,,,,,,,,,,,,,,,,,53,,,,,,,,,,,,,,454.90099980926607,,response,,,,99,,,,,,,Space,keypress(Space),,,,,,,,"---- -- ----- -- ------ - ------- --- ----------<br>relationship, ------ ------ ---- ---- ------- ----- -- ----<br>-------- ------- -- ---------- --- - --- ----- ----- ----<br>---- --- --- ----- --- ---- ---- ------- ----- ---- -------<br>--- --- -- ----- -- --- ---- -- --- ---- -- ------ ------<br>--- ----- -- ----",105451.09999990463,105450.19999980927,104978.618,104991.39999961853,104995.299,105462.283,,9,"relationship,"
screen,html.Screen,2_1_0_1_10,2022-05-12T15:00:19.308Z,,,,,,,,,,,,,,,,,53,,,,,,,,,,,,,,431.7170000000042,,response,,,,99,,,,,,,Space,keypress(Space),,,,,,,,---- -- ----- -- ------ - ------- --- ----------<br>------------- common ------ ---- ---- ------- ----- -- ----<br>-------- ------- -- ---------- --- - --- ----- ----- ----<br>---- --- --- ----- --- ---- ---- ------- ----- ---- -------<br>--- --- -- ----- -- --- ---- -- --- ---- -- ------ ------<br>--- ----- -- ----,105895,105894,105445.604,105451.19999980927,105462.283,105896.375,,10,common
screen,html.Screen,2_1_0_1_11,2022-05-12T15:00:19.748Z,,,,,,,,,,,,,,,,,53,,,,,,,,,,,,,,437.625,,response,,,,99,,,,,,,Space,keypress(Space),,,,,,,,---- -- ----- -- ------ - ------- --- ----------<br>------------- ------ wisdom ---- ---- ------- ----- -- ----<br>-------- ------- -- ---------- --- - --- ----- ----- ----<br>---- --- --- ----- --- ---- ---- ------- ----- ---- -------<br>--- --- -- ----- -- --- ---- -- --- ---- -- ------ ------<br>--- ----- -- ----,106335,106334,105879.693,105895.09999990463,105896.375,106347.002,,11,wisdom
screen,html.Screen,2_1_0_1_12,2022-05-12T15:00:20.136Z,,,,,,,,,,,,,,,,,53,,,,,,,,,,,,,,374.99800000000687,,response,,,,99,,,,,,,Space,keypress(Space),,,,,,,,---- -- ----- -- ------ - ------- --- ----------<br>------------- ------ ------ says ---- ------- ----- -- ----<br>-------- ------- -- ---------- --- - --- ----- ----- ----<br>---- --- --- ----- --- ---- ---- ------- ----- ---- -------<br>--- --- -- ----- -- --- ---- -- --- ---- -- ------ ------<br>--- ----- -- ----,106723,106722,106330.317,106335.19999980927,106347.002,106730.711,,12,says
screen,html.Screen,2_1_0_1_13,2022-05-12T15:00:20.228Z,,,,,,,,,,,,,,,,,53,,,,,,,,,,,,,,83.28900000000431,,response,,,,99,,,,,,,Space,keypress(Space),,,,,,,,---- -- ----- -- ------ - ------- --- ----------<br>------------- ------ ------ ---- that ------- ----- -- ----<br>-------- ------- -- ---------- --- - --- ----- ----- ----<br>---- --- --- ----- --- ---- ---- ------- ----- ---- -------<br>--- --- -- ----- -- --- ---- -- --- ---- -- ------ ------<br>--- ----- -- ----,106815,106814,106714.027,106723.19999980927,106730.711,106830.869,,13,that
screen,html.Screen,2_1_0_1_14,2022-05-12T15:00:20.424Z,,,,,,,,,,,,,,,,,53,,,,,,,,,,,,,,179.03099961852422,,response,,,,99,,,,,,,Space,keypress(Space),,,,,,,,---- -- ----- -- ------ - ------- --- ----------<br>------------- ------ ------ ---- ---- feeling ----- -- ----<br>-------- ------- -- ---------- --- - --- ----- ----- ----<br>---- --- --- ----- --- ---- ---- ------- ----- ---- -------<br>--- --- -- ----- -- --- ---- -- --- ---- -- ------ ------<br>--- ----- -- ----,107010.89999961853,107009.89999961853,106814.184,106815.19999980927,106830.869,107014.412,,14,feeling
screen,html.Screen,2_1_0_1_15,2022-05-12T15:00:21.294Z,,,,,,,,,,,,,,,,,53,,,,,,,,,,,,,,865.7879998092685,,response,,,,99,,,,,,,Space,keypress(Space),,,,,,,,---- -- ----- -- ------ - ------- --- ----------<br>------------- ------ ------ ---- ---- ------- close -- ----<br>-------- ------- -- ---------- --- - --- ----- ----- ----<br>---- --- --- ----- --- ---- ---- ------- ----- ---- -------<br>--- --- -- ----- -- --- ---- -- --- ---- -- ------ ------<br>--- ----- -- ----,107881.09999990463,107880.19999980927,106997.728,107011,107014.412,107882.012,,15,close
screen,html.Screen,2_1_0_1_16,2022-05-12T15:00:21.814Z,,,,,,,,,,,,,,,,,53,,,,,,,,,,,,,,517.9879999999976,,response,,,,99,,,,,,,Space,keypress(Space),,,,,,,,---- -- ----- -- ------ - ------- --- ----------<br>------------- ------ ------ ---- ---- ------- ----- to ----<br>-------- ------- -- ---------- --- - --- ----- ----- ----<br>---- --- --- ----- --- ---- ---- ------- ----- ---- -------<br>--- --- -- ----- -- --- ---- -- --- ---- -- ------ ------<br>--- ----- -- ----,108400.69999980927,108400,107865.328,107881.2999997139,107882.012,108416.05,,16,to
screen,html.Screen,2_1_0_1_17,2022-05-12T15:00:22.234Z,,,,,,,,,,,,,,,,,53,,,,,,,,,,,,,,404.04999990462966,,response,,,,99,,,,,,,Space,keypress(Space),,,,,,,,---- -- ----- -- ------ - ------- --- ----------<br>------------- ------ ------ ---- ---- ------- ----- -- your<br>-------- ------- -- ---------- --- - --- ----- ----- ----<br>---- --- --- ----- --- ---- ---- ------- ----- ---- -------<br>--- --- -- ----- -- --- ---- -- --- ---- -- ------ ------<br>--- ----- -- ----,108821.09999990463,108820.09999990463,108399.365,108400.89999961853,108416.05,108833.172,,17,your
screen,html.Screen,2_1_0_1_18,2022-05-12T15:00:22.566Z,,,,,,,,,,,,,,,,,53,,,,,,,,,,,,,,318.62799971389177,,response,,,,99,,,,,,,Space,keypress(Space),,,,,,,,---- -- ----- -- ------ - ------- --- ----------<br>------------- ------ ------ ---- ---- ------- ----- -- ----<br>romantic ------- -- ---------- --- - --- ----- ----- ----<br>---- --- --- ----- --- ---- ---- ------- ----- ---- -------<br>--- --- -- ----- -- --- ---- -- --- ---- -- ------ ------<br>--- ----- -- ----,109152.59999990463,109151.7999997139,108816.487,108821.2999997139,108833.172,109166.924,,18,romantic
screen,html.Screen,2_1_0_1_19,2022-05-12T15:00:22.934Z,,,,,,,,,,,,,,,,,53,,,,,,,,,,,,,,353.27599980926607,,response,,,,99,,,,,,,Space,keypress(Space),,,,,,,,---- -- ----- -- ------ - ------- --- ----------<br>------------- ------ ------ ---- ---- ------- ----- -- ----<br>-------- partner -- ---------- --- - --- ----- ----- ----<br>---- --- --- ----- --- ---- ---- ------- ----- ---- -------<br>--- --- -- ----- -- --- ---- -- --- ---- -- ------ ------<br>--- ----- -- ----,109521.09999990463,109520.19999980927,109150.237,109152.89999961853,109166.924,109534.095,,19,partner
screen,html.Screen,2_1_0_1_20,2022-05-12T15:00:23.330Z,,,,,,,,,,,,,,,,,53,,,,,,,,,,,,,,381.70499971389654,,response,,,,99,,,,,,,Space,keypress(Space),,,,,,,,---- -- ----- -- ------ - ------- --- ----------<br>------------- ------ ------ ---- ---- ------- ----- -- ----<br>-------- ------- is ---------- --- - --- ----- ----- ----<br>---- --- --- ----- --- ---- ---- ------- ----- ---- -------<br>--- --- -- ----- -- --- ---- -- --- ---- -- ------ ------<br>--- ----- -- ----,109916.7999997139,109915.7999997139,109517.407,109521.19999980927,109534.095,109917.864,,20,is
screen,html.Screen,2_1_0_1_21,2022-05-12T15:00:23.678Z,,,,,,,,,,,,,,,,,53,,,,,,,,,,,,,,346.1359999999986,,response,,,,99,,,,,,,Space,keypress(Space),,,,,,,,---- -- ----- -- ------ - ------- --- ----------<br>------------- ------ ------ ---- ---- ------- ----- -- ----<br>-------- ------- -- paramount. --- - --- ----- ----- ----<br>---- --- --- ----- --- ---- ---- ------- ----- ---- -------<br>--- --- -- ----- -- --- ---- -- --- ---- -- ------ ------<br>--- ----- -- ----,110265,110264,109901.176,109916.7999997139,109917.864,110902.465,,21,paramount.
screen,html.Screen,2_1_0_1_22,2022-05-12T15:00:24.862Z,,,,,,,,,,,,,,,,,53,,,,,,,,,,,,,,545.7349998092686,,response,,,,99,,,,,,,Space,keypress(Space),,,,,,,,---- -- ----- -- ------ - ------- --- ----------<br>------------- ------ ------ ---- ---- ------- ----- -- ----<br>-------- ------- -- ---------- But - --- ----- ----- ----<br>---- --- --- ----- --- ---- ---- ------- ----- ---- -------<br>--- --- -- ----- -- --- ---- -- --- ---- -- ------ ------<br>--- ----- -- ----,111449.09999990463,111448.19999980927,110251.594,110265.09999990463,110902.465,111452.892,,22,But
screen,html.Screen,2_1_0_1_23,2022-05-12T15:00:25.305Z,,,,,,,,,,,,,,,,,53,,,,,,,,,,,,,,439.0079996185232,,response,,,,99,,,,,,,Space,keypress(Space),,,,,,,,---- -- ----- -- ------ - ------- --- ----------<br>------------- ------ ------ ---- ---- ------- ----- -- ----<br>-------- ------- -- ---------- --- a --- ----- ----- ----<br>---- --- --- ----- --- ---- ---- ------- ----- ---- -------<br>--- --- -- ----- -- --- ---- -- --- ---- -- ------ ------<br>--- ----- -- ----,111892.69999980927,111891.89999961853,111436.207,111449.19999980927,111452.892,111903.425,,23,a
screen,html.Screen,2_1_0_1_24,2022-05-12T15:00:25.762Z,,,,,,,,,,,,,,,,,53,,,,,,,,,,,,,,445.3749997138948,,response,,,,99,,,,,,,Space,keypress(Space),,,,,,,,---- -- ----- -- ------ - ------- --- ----------<br>------------- ------ ------ ---- ---- ------- ----- -- ----<br>-------- ------- -- ---------- --- - new ----- ----- ----<br>---- --- --- ----- --- ---- ---- ------- ----- ---- -------<br>--- --- -- ----- -- --- ---- -- --- ---- -- ------ ------<br>--- ----- -- ----,112349.2999997139,112348.7999997139,111886.74,111892.89999961853,111903.425,112353.843,,24,new
screen,html.Screen,2_1_0_1_25,2022-05-12T15:00:26.289Z,,,,,,,,,,,,,,,,,53,,,,,,,,,,,,,,522.1570000000065,,response,,,,99,,,,,,,Space,keypress(Space),,,,,,,,---- -- ----- -- ------ - ------- --- ----------<br>------------- ------ ------ ---- ---- ------- ----- -- ----<br>-------- ------- -- ---------- --- - --- study ----- ----<br>---- --- --- ----- --- ---- ---- ------- ----- ---- -------<br>--- --- -- ----- -- --- ---- -- --- ---- -- ------ ------<br>--- ----- -- ----,112876.7999997139,112876,112337.162,112349.39999961853,112353.843,112887.745,,25,study
screen,html.Screen,2_1_0_1_26,2022-05-12T15:00:26.938Z,,,,,,,,,,,,,,,,,53,,,,,,,,,,,,,,636.1549996185349,,response,,,,99,,,,,,,Space,keypress(Space),,,,,,,,---- -- ----- -- ------ - ------- --- ----------<br>------------- ------ ------ ---- ---- ------- ----- -- ----<br>-------- ------- -- ---------- --- - --- ----- finds ----<br>---- --- --- ----- --- ---- ---- ------- ----- ---- -------<br>--- --- -- ----- -- --- ---- -- --- ---- -- ------ ------<br>--- ----- -- ----,113524.7999997139,113523.89999961853,112871.065,112877,112887.745,113538.34,,26,finds
screen,html.Screen,2_1_0_1_27,2022-05-12T15:00:27.389Z,,,,,,,,,,,,,,,,,53,,,,,,,,,,,,,,437.35999980926863,,response,,,,99,,,,,,,Space,keypress(Space),,,,,,,,---- -- ----- -- ------ - ------- --- ----------<br>------------- ------ ------ ---- ---- ------- ----- -- ----<br>-------- ------- -- ---------- --- - --- ----- ----- that<br>---- --- --- ----- --- ---- ---- ------- ----- ---- -------<br>--- --- -- ----- -- --- ---- -- --- ---- -- ------ ------<br>--- ----- -- ----,113976.7999997139,113975.69999980927,113521.663,113525,113538.34,113988.991,,27,that
screen,html.Screen,2_1_0_1_28,2022-05-12T15:00:27.782Z,,,,,,,,,,,,,,,,,53,,,,,,,,,,,,,,378.90899961853574,,response,,,,99,,,,,,,Space,keypress(Space),,,,,,,,---- -- ----- -- ------ - ------- --- ----------<br>------------- ------ ------ ---- ---- ------- ----- -- ----<br>-------- ------- -- ---------- --- - --- ----- ----- ----<br>it's --- --- ----- --- ---- ---- ------- ----- ---- -------<br>--- --- -- ----- -- --- ---- -- --- ---- -- ------ ------<br>--- ----- -- ----,114369,114367.89999961853,113972.313,113976.89999961853,113988.991,114372.759,,28,it's
screen,html.Screen,2_1_0_1_29,2022-05-12T15:00:28.225Z,,,,,,,,,,,,,,,,,53,,,,,,,,,,,,,,438.94099980925967,,response,,,,99,,,,,,,Space,keypress(Space),,,,,,,,---- -- ----- -- ------ - ------- --- ----------<br>------------- ------ ------ ---- ---- ------- ----- -- ----<br>-------- ------- -- ---------- --- - --- ----- ----- ----<br>---- not --- ----- --- ---- ---- ------- ----- ---- -------<br>--- --- -- ----- -- --- ---- -- --- ---- -- ------ ------<br>--- ----- -- ----,114812.59999990463,114811.69999980927,114356.081,114369.09999990463,114372.759,114823.352,,29,not
screen,html.Screen,2_1_0_1_30,2022-05-12T15:00:28.309Z,,,,,,,,,,,,,,,,,53,,,,,,,,,,,,,,72.24799990463362,,response,,,,99,,,,,,,Space,keypress(Space),,,,,,,,---- -- ----- -- ------ - ------- --- ----------<br>------------- ------ ------ ---- ---- ------- ----- -- ----<br>-------- ------- -- ---------- --- - --- ----- ----- ----<br>---- --- how ----- --- ---- ---- ------- ----- ---- -------<br>--- --- -- ----- -- --- ---- -- --- ---- -- ------ ------<br>--- ----- -- ----,114896.2999997139,114895.59999990463,114806.672,114812.69999980927,114823.352,114906.914,,30,how
screen,html.Screen,2_1_0_1_31,2022-05-12T15:00:28.552Z,,,,,,,,,,,,,,,,,53,,,,,,,,,,,,,,231.18599990462826,,response,,,,99,,,,,,,Space,keypress(Space),,,,,,,,---- -- ----- -- ------ - ------- --- ----------<br>------------- ------ ------ ---- ---- ------- ----- -- ----<br>-------- ------- -- ---------- --- - --- ----- ----- ----<br>---- --- --- close --- ---- ---- ------- ----- ---- -------<br>--- --- -- ----- -- --- ---- -- --- ---- -- ------ ------<br>--- ----- -- ----,115139,115138.09999990463,114890.235,114896.5,114906.914,115140.403,,31,close
screen,html.Screen,2_1_0_1_32,2022-05-12T15:00:29.428Z,,,,,,,,,,,,,,,,,53,,,,,,,,,,,,,,873.4969996185246,,response,,,,99,,,,,,,Space,keypress(Space),,,,,,,,---- -- ----- -- ------ - ------- --- ----------<br>------------- ------ ------ ---- ---- ------- ----- -- ----<br>-------- ------- -- ---------- --- - --- ----- ----- ----<br>---- --- --- ----- you ---- ---- ------- ----- ---- -------<br>--- --- -- ----- -- --- ---- -- --- ---- -- ------ ------<br>--- ----- -- ----,116014.7999997139,116013.89999961853,115123.725,115139.19999980927,115140.403,116024.529,,32,you
screen,html.Screen,2_1_0_1_33,2022-05-12T15:00:29.976Z,,,,,,,,,,,,,,,,,53,,,,,,,,,,,,,,537.471000000005,,response,,,,99,,,,,,,Space,keypress(Space),,,,,,,,---- -- ----- -- ------ - ------- --- ----------<br>------------- ------ ------ ---- ---- ------- ----- -- ----<br>-------- ------- -- ---------- --- - --- ----- ----- ----<br>---- --- --- ----- --- feel ---- ------- ----- ---- -------<br>--- --- -- ----- -- --- ---- -- --- ---- -- ------ ------<br>--- ----- -- ----,116562.89999961853,116562,116007.85,116015,116024.529,116575.274,,33,feel
screen,html.Screen,2_1_0_1_34,2022-05-12T15:00:30.439Z,,,,,,,,,,,,,,,,,53,,,,,,,,,,,,,,450.6259996185254,,response,,,,99,,,,,,,Space,keypress(Space),,,,,,,,---- -- ----- -- ------ - ------- --- ----------<br>------------- ------ ------ ---- ---- ------- ----- -- ----<br>-------- ------- -- ---------- --- - --- ----- ----- ----<br>---- --- --- ----- --- ---- that ------- ----- ---- -------<br>--- --- -- ----- -- --- ---- -- --- ---- -- ------ ------<br>--- ----- -- ----,117026.7999997139,117025.89999961853,116558.596,116563.09999990463,116575.274,117042.495,,34,that
screen,html.Screen,2_1_0_1_35,2022-05-12T15:00:30.868Z,,,,,,,,,,,,,,,,,53,,,,,,,,,,,,,,411.50500000000466,,response,,,,99,,,,,,,Space,keypress(Space),,,,,,,,---- -- ----- -- ------ - ------- --- ----------<br>------------- ------ ------ ---- ---- ------- ----- -- ----<br>-------- ------- -- ---------- --- - --- ----- ----- ----<br>---- --- --- ----- --- ---- ---- matters ----- ---- -------<br>--- --- -- ----- -- --- ---- -- --- ---- -- ------ ------<br>--- ----- -- ----,117454.89999961853,117454,117025.817,117026.89999961853,117042.495,117459.769,,35,matters
screen,html.Screen,2_1_0_1_36,2022-05-12T15:00:31.408Z,,,,,,,,,,,,,,,,,53,,,,,,,,,,,,,,534.2309999999998,,response,,,,99,,,,,,,Space,keypress(Space),,,,,,,,"---- -- ----- -- ------ - ------- --- ----------<br>------------- ------ ------ ---- ---- ------- ----- -- ----<br>-------- ------- -- ---------- --- - --- ----- ----- ----<br>---- --- --- ----- --- ---- ---- ------- most, ---- -------<br>--- --- -- ----- -- --- ---- -- --- ---- -- ------ ------<br>--- ----- -- ----",117994.7999997139,117994,117443.088,117455,117459.769,118010.317,,36,"most,"
screen,html.Screen,2_1_0_1_37,2022-05-12T15:00:31.716Z,,,,,,,,,,,,,,,,,53,,,,,,,,,,,,,,291.5829996185348,,response,,,,99,,,,,,,Space,keypress(Space),,,,,,,,---- -- ----- -- ------ - ------- --- ----------<br>------------- ------ ------ ---- ---- ------- ----- -- ----<br>-------- ------- -- ---------- --- - --- ----- ----- ----<br>---- --- --- ----- --- ---- ---- ------- ----- it's -------<br>--- --- -- ----- -- --- ---- -- --- ---- -- ------ ------<br>--- ----- -- ----,118302.89999961853,118301.89999961853,117993.638,117995,118010.317,118310.796,,37,it's
screen,html.Screen,2_1_0_1_38,2022-05-12T15:00:32.128Z,,,,,,,,,,,,,,,,,53,,,,,,,,,,,,,,403.3039999046305,,response,,,,99,,,,,,,Space,keypress(Space),,,,,,,,---- -- ----- -- ------ - ------- --- ----------<br>------------- ------ ------ ---- ---- ------- ----- -- ----<br>-------- ------- -- ---------- --- - --- ----- ----- ----<br>---- --- --- ----- --- ---- ---- ------- ----- ---- whether<br>--- --- -- ----- -- --- ---- -- --- ---- -- ------ ------<br>--- ----- -- ----,118714.89999961853,118714.09999990463,118294.115,118303.09999990463,118310.796,118727.654,,38,whether
screen,html.Screen,2_1_0_1_39,2022-05-12T15:00:32.496Z,,,,,,,,,,,,,,,,,53,,,,,,,,,,,,,,354.346000000005,,response,,,,99,,,,,,,Space,keypress(Space),,,,,,,,---- -- ----- -- ------ - ------- --- ----------<br>------------- ------ ------ ---- ---- ------- ----- -- ----<br>-------- ------- -- ---------- --- - --- ----- ----- ----<br>---- --- --- ----- --- ---- ---- ------- ----- ---- -------<br>you --- -- ----- -- --- ---- -- --- ---- -- ------ ------<br>--- ----- -- ----,119083.2999997139,119082,118710.978,118715.09999990463,118727.654,119094.91,,39,you
screen,html.Screen,2_1_0_1_40,2022-05-12T15:00:32.872Z,,,,,,,,,,,,,,,,,53,,,,,,,,,,,,,,362.9899996185268,,response,,,,99,,,,,,,Space,keypress(Space),,,,,,,,---- -- ----- -- ------ - ------- --- ----------<br>------------- ------ ------ ---- ---- ------- ----- -- ----<br>-------- ------- -- ---------- --- - --- ----- ----- ----<br>---- --- --- ----- --- ---- ---- ------- ----- ---- -------<br>--- are -- ----- -- --- ---- -- --- ---- -- ------ ------<br>--- ----- -- ----,119459,119457.89999961853,119078.234,119083.2999997139,119094.91,119462.019,,40,are
screen,html.Screen,2_1_0_1_41,2022-05-12T15:00:33.116Z,,,,,,,,,,,,,,,,,53,,,,,,,,,,,,,,239.88099961853004,,response,,,,99,,,,,,,Space,keypress(Space),,,,,,,,---- -- ----- -- ------ - ------- --- ----------<br>------------- ------ ------ ---- ---- ------- ----- -- ----<br>-------- ------- -- ---------- --- - --- ----- ----- ----<br>---- --- --- ----- --- ---- ---- ------- ----- ---- -------<br>--- --- as ----- -- --- ---- -- --- ---- -- ------ ------<br>--- ----- -- ----,119702.89999961853,119701.89999961853,119445.342,119459.09999990463,119462.019,119712.357,,41,as
screen,html.Screen,2_1_0_1_42,2022-05-12T15:00:33.471Z,,,,,,,,,,,,,,,,,53,,,,,,,,,,,,,,345.6429999999964,,response,,,,99,,,,,,,Space,keypress(Space),,,,,,,,---- -- ----- -- ------ - ------- --- ----------<br>------------- ------ ------ ---- ---- ------- ----- -- ----<br>-------- ------- -- ---------- --- - --- ----- ----- ----<br>---- --- --- ----- --- ---- ---- ------- ----- ---- -------<br>--- --- -- close -- --- ---- -- --- ---- -- ------ ------<br>--- ----- -- ----,120058.7999997139,120058,119695.68,119703,119712.357,120062.74,,42,close
screen,html.Screen,2_1_0_1_43,2022-05-12T15:00:33.784Z,,,,,,,,,,,,,,,,,53,,,,,,,,,,,,,,307.35999990462733,,response,,,,99,,,,,,,Space,keypress(Space),,,,,,,,---- -- ----- -- ------ - ------- --- ----------<br>------------- ------ ------ ---- ---- ------- ----- -- ----<br>-------- ------- -- ---------- --- - --- ----- ----- ----<br>---- --- --- ----- --- ---- ---- ------- ----- ---- -------<br>--- --- -- ----- as --- ---- -- --- ---- -- ------ ------<br>--- ----- -- ----,120371,120370.09999990463,120046.061,120058.89999961853,120062.74,120379.847,,43,as
screen,html.Screen,2_1_0_1_44,2022-05-12T15:00:34.096Z,,,,,,,,,,,,,,,,,53,,,,,,,,,,,,,,301.9529997139034,,response,,,,99,,,,,,,Space,keypress(Space),,,,,,,,---- -- ----- -- ------ - ------- --- ----------<br>------------- ------ ------ ---- ---- ------- ----- -- ----<br>-------- ------- -- ---------- --- - --- ----- ----- ----<br>---- --- --- ----- --- ---- ---- ------- ----- ---- -------<br>--- --- -- ----- -- you ---- -- --- ---- -- ------ ------<br>--- ----- -- ----,120682.89999961853,120681.7999997139,120363.166,120371.09999990463,120379.847,120696.879,,44,you
screen,html.Screen,2_1_0_1_45,2022-05-12T15:00:34.356Z,,,,,,,,,,,,,,,,,53,,,,,,,,,,,,,,245.12099999999919,,response,,,,99,,,,,,,Space,keypress(Space),,,,,,,,---- -- ----- -- ------ - ------- --- ----------<br>------------- ------ ------ ---- ---- ------- ----- -- ----<br>-------- ------- -- ---------- --- - --- ----- ----- ----<br>---- --- --- ----- --- ---- ---- ------- ----- ---- -------<br>--- --- -- ----- -- --- want -- --- ---- -- ------ ------<br>--- ----- -- ----,120942.7999997139,120942,120680.197,120683.09999990463,120696.879,120947.246,,45,want
screen,html.Screen,2_1_0_1_46,2022-05-12T15:00:34.611Z,,,,,,,,,,,,,,,,,53,,,,,,,,,,,,,,250.75400000000081,,response,,,,99,,,,,,,Space,keypress(Space),,,,,,,,---- -- ----- -- ------ - ------- --- ----------<br>------------- ------ ------ ---- ---- ------- ----- -- ----<br>-------- ------- -- ---------- --- - --- ----- ----- ----<br>---- --- --- ----- --- ---- ---- ------- ----- ---- -------<br>--- --- -- ----- -- --- ---- to --- ---- -- ------ ------<br>--- ----- -- ----,121198.7999997139,121198,120930.562,120942.89999961853,120947.246,121214.22,,46,to
screen,html.Screen,2_1_0_1_47,2022-05-12T15:00:34.859Z,,,,,,,,,,,,,,,,,53,,,,,,,,,,,,,,231.6799996185291,,response,,,,99,,,,,,,Space,keypress(Space),,,,,,,,"---- -- ----- -- ------ - ------- --- ----------<br>------------- ------ ------ ---- ---- ------- ----- -- ----<br>-------- ------- -- ---------- --- - --- ----- ----- ----<br>---- --- --- ----- --- ---- ---- ------- ----- ---- -------<br>--- --- -- ----- -- --- ---- -- be, ---- -- ------ ------<br>--- ----- -- ----",121446.69999980927,121445.89999961853,121197.536,121198.89999961853,121214.22,121447.815,,47,"be,"
screen,html.Screen,2_1_0_1_48,2022-05-12T15:00:35.119Z,,,,,,,,,,,,,,,,,53,,,,,,,,,,,,,,257.9849997138954,,response,,,,99,,,,,,,Space,keypress(Space),,,,,,,,---- -- ----- -- ------ - ------- --- ----------<br>------------- ------ ------ ---- ---- ------- ----- -- ----<br>-------- ------- -- ---------- --- - --- ----- ----- ----<br>---- --- --- ----- --- ---- ---- ------- ----- ---- -------<br>--- --- -- ----- -- --- ---- -- --- even -- ------ ------<br>--- ----- -- ----,121706.69999980927,121705.7999997139,121431.132,121446.7999997139,121447.815,121714.803,,48,even
screen,html.Screen,2_1_0_1_49,2022-05-12T15:00:35.359Z,,,,,,,,,,,,,,,,,53,,,,,,,,,,,,,,231.0969996185304,,response,,,,99,,,,,,,Space,keypress(Space),,,,,,,,---- -- ----- -- ------ - ------- --- ----------<br>------------- ------ ------ ---- ---- ------- ----- -- ----<br>-------- ------- -- ---------- --- - --- ----- ----- ----<br>---- --- --- ----- --- ---- ---- ------- ----- ---- -------<br>--- --- -- ----- -- --- ---- -- --- ---- if ------ ------<br>--- ----- -- ----,121946.7999997139,121945.89999961853,121698.119,121706.7999997139,121714.803,121948.308,,49,if
screen,html.Screen,2_1_0_1_50,2022-05-12T15:00:35.600Z,,,,,,,,,,,,,,,,,53,,,,,,,,,,,,,,237.59199961852573,,response,,,,99,,,,,,,Space,keypress(Space),,,,,,,,---- -- ----- -- ------ - ------- --- ----------<br>------------- ------ ------ ---- ---- ------- ----- -- ----<br>-------- ------- -- ---------- --- - --- ----- ----- ----<br>---- --- --- ----- --- ---- ---- ------- ----- ---- -------<br>--- --- -- ----- -- --- ---- -- --- ---- -- that's ------<br>--- ----- -- ----,122186.89999961853,122185.89999961853,121931.629,121946.89999961853,121948.308,122198.663,,50,that's
screen,html.Screen,2_1_0_1_51,2022-05-12T15:00:36.114Z,,,,,,,,,,,,,,,,,53,,,,,,,,,,,,,,501.9369999046321,,response,,,,99,,,,,,,Space,keypress(Space),,,,,,,,---- -- ----- -- ------ - ------- --- ----------<br>------------- ------ ------ ---- ---- ------- ----- -- ----<br>-------- ------- -- ---------- --- - --- ----- ----- ----<br>---- --- --- ----- --- ---- ---- ------- ----- ---- -------<br>--- --- -- ----- -- --- ---- -- --- ---- -- ------ really<br>--- ----- -- ----,122701.19999980927,122700.59999990463,122181.982,122187,122198.663,122715.71,,51,really
screen,html.Screen,2_1_0_1_52,2022-05-12T15:00:36.517Z,,,,,,,,,,,,,,,,,53,,,,,,,,,,,,,,388.18999961852387,,response,,,,99,,,,,,,Space,keypress(Space),,,,,,,,---- -- ----- -- ------ - ------- --- ----------<br>------------- ------ ------ ---- ---- ------- ----- -- ----<br>-------- ------- -- ---------- --- - --- ----- ----- ----<br>---- --- --- ----- --- ---- ---- ------- ----- ---- -------<br>--- --- -- ----- -- --- ---- -- --- ---- -- ------ ------<br>not ----- -- ----,123104.7999997139,123103.89999961853,122699.033,122701.2999997139,122715.71,123116.316,,52,not
screen,html.Screen,2_1_0_1_53,2022-05-12T15:00:36.794Z,,,,,,,,,,,,,,,,,53,,,,,,,,,,,,,,263.68399999999383,,response,,,,99,,,,,,,Space,keypress(Space),,,,,,,,---- -- ----- -- ------ - ------- --- ----------<br>------------- ------ ------ ---- ---- ------- ----- -- ----<br>-------- ------- -- ---------- --- - --- ----- ----- ----<br>---- --- --- ----- --- ---- ---- ------- ----- ---- -------<br>--- --- -- ----- -- --- ---- -- --- ---- -- ------ ------<br>--- close -- ----,123380.7999997139,123380,123099.636,123104.89999961853,123116.316,123383.245,,53,close
screen,html.Screen,2_1_0_1_54,2022-05-12T15:00:37.309Z,,,,,,,,,,,,,,,,,53,,,,,,,,,,,,,,512.5549997139024,,response,,,,99,,,,,,,Space,keypress(Space),,,,,,,,---- -- ----- -- ------ - ------- --- ----------<br>------------- ------ ------ ---- ---- ------- ----- -- ----<br>-------- ------- -- ---------- --- - --- ----- ----- ----<br>---- --- --- ----- --- ---- ---- ------- ----- ---- -------<br>--- --- -- ----- -- --- ---- -- --- ---- -- ------ ------<br>--- ----- at ----,123896.59999990463,123895.7999997139,123366.569,123380.89999961853,123383.245,123900.336,,54,at
screen,html.Screen,2_1_0_1_55,2022-05-12T15:00:38.021Z,,,,,,,,,,,,,,,,,53,,,,,,,,,,,,,,707.463999713902,,response,,,,99,,,,,,,Space,keypress(Space),,,,,,,,---- -- ----- -- ------ - ------- --- ----------<br>------------- ------ ------ ---- ---- ------- ----- -- ----<br>-------- ------- -- ---------- --- - --- ----- ----- ----<br>---- --- --- ----- --- ---- ---- ------- ----- ---- -------<br>--- --- -- ----- -- --- ---- -- --- ---- -- ------ ------<br>--- ----- -- all.,124608.69999980927,124607.7999997139,123883.661,123896.7999997139,123900.336,124617.869,,55,all.
Item 99,flow.Loop,2_1_0_1,2022-05-12T15:00:38.022Z,,,,,,,,,,,,,,,,,,,,,,,,,,,,,,,23099.871999713898,,completion,,,,,E,,,,,,,,,,,silence,,,,,124609,124607.7999997139,101207.634,101208.39999961853,101507.928,124617.869,,,
Question 1,html.Screen,2_1_0_2,2022-05-12T15:00:43.387Z,,,,,,,,,,,,,,,,,,,,,,,,,,,,true,FALSE,,5355.2309999046265,,response,,,,99,E,,,,,,FALSE,click #choice-2,,,,silence,,,,,129974.19999980927,129973.09999990463,124601.191,124609.89999961853,124617.869,129974.356,,,
Question 2,html.Screen,2_1_0_3,2022-05-12T15:00:47.683Z,,,,,,,,,,,,,,,,,,,,,,,,,,,,true,TRUE,,4294.843999809265,,response,,,,99,E,,,,,,TRUE,click #choice-1,,,,silence,,,,,134270.2999997139,134269.19999980927,129957.674,129974.39999961853,129974.356,134279.3,,,
Item 99,flow.Sequence,2_1_0,2022-05-12T15:00:47.683Z,,,,,,,,,,,,,,,,,,,,,,,,,,,,,,,43039.78599980926,,completion,,,,,,,,,,,,,,,,,,,,,134270.59999990463,134269.19999980927,91212.732,91226.7999997139,91229.414,134279.3,,,
Holding screen,html.Screen,2_1_1_0,2022-05-12T15:00:57.671Z,,,,,,,,,,,,,,,,,,,,,,,,,,,,,,,9994.754000000015,,timeout,,,,,,,,,,,,,,,,,,,,,144258.09999990463,144257.373,134262.618,134270.69999980927,134279.3,144274.054,,,
screen,html.Screen,2_1_1_1_0,2022-05-12T15:00:58.244Z,,,,,,,,,,,,,,,,,54,,,,,,,,,,,,,,556.245999713894,,response,,,,100,,,,,,,Space,keypress(Space),,,,,,,,At --- ---- --- ------ ----- ------- ---- -- --- ------- --<br>------- ---------- ------ -- ----- -- ----- -- ---- ------<br>--- ----- --- --- ------ -------- ----- --- ------ ----- --<br>----- ----- ---------- --- --- ------ ------ ---- -- ------<br>------- --- ------ ----- --- ---- ------- -- ---- --- --<br>------- ------,144831,144830.2999997139,144257.373,144258.2999997139,144274.054,144841.453,,0,At
screen,html.Screen,2_1_1_1_1,2022-05-12T15:00:58.635Z,,,,,,,,,,,,,,,,,54,,,,,,,,,,,,,,380.2469998092565,,response,,,,100,,,,,,,Space,keypress(Space),,,,,,,,-- the ---- --- ------ ----- ------- ---- -- --- ------- --<br>------- ---------- ------ -- ----- -- ----- -- ---- ------<br>--- ----- --- --- ------ -------- ----- --- ------ ----- --<br>----- ----- ---------- --- --- ------ ------ ---- -- ------<br>------- --- ------ ----- --- ---- ------- -- ---- --- --<br>------- ------,145222.5,145221.69999980927,144824.772,144831.19999980927,144841.453,145225.351,,1,the
screen,html.Screen,2_1_1_1_2,2022-05-12T15:00:58.915Z,,,,,,,,,,,,,,,,,54,,,,,,,,,,,,,,276.34899980927,,response,,,,100,,,,,,,Space,keypress(Space),,,,,,,,-- --- time --- ------ ----- ------- ---- -- --- ------- --<br>------- ---------- ------ -- ----- -- ----- -- ---- ------<br>--- ----- --- --- ------ -------- ----- --- ------ ----- --<br>----- ----- ---------- --- --- ------ ------ ---- -- ------<br>------- --- ------ ----- --- ---- ------- -- ---- --- --<br>------- ------,145502.39999961853,145501.69999980927,145208.669,145222.59999990463,145225.351,145509.01,,2,time
screen,html.Screen,2_1_1_1_3,2022-05-12T15:00:59.019Z,,,,,,,,,,,,,,,,,54,,,,,,,,,,,,,,96.58999990462326,,response,,,,100,,,,,,,Space,keypress(Space),,,,,,,,-- --- ---- the ------ ----- ------- ---- -- --- ------- --<br>------- ---------- ------ -- ----- -- ----- -- ---- ------<br>--- ----- --- --- ------ -------- ----- --- ------ ----- --<br>----- ----- ---------- --- --- ------ ------ ---- -- ------<br>------- --- ------ ----- --- ---- ------- -- ---- --- --<br>------- ------,145606.2999997139,145605.59999990463,145492.328,145502.59999990463,145509.01,145609.241,,3,the
screen,html.Screen,2_1_1_1_4,2022-05-12T15:00:59.187Z,,,,,,,,,,,,,,,,,54,,,,,,,,,,,,,,164.55899971388862,,response,,,,100,,,,,,,Space,keypress(Space),,,,,,,,-- --- ---- --- French ----- ------- ---- -- --- ------- --<br>------- ---------- ------ -- ----- -- ----- -- ---- ------<br>--- ----- --- --- ------ -------- ----- --- ------ ----- --<br>----- ----- ---------- --- --- ------ ------ ---- -- ------<br>------- --- ------ ----- --- ---- ------- -- ---- --- --<br>------- ------,145774.59999990463,145773.7999997139,145592.555,145606.39999961853,145609.241,145776.065,,4,French
screen,html.Screen,2_1_1_1_5,2022-05-12T15:00:59.759Z,,,,,,,,,,,,,,,,,54,,,,,,,,,,,,,,569.5349999046302,,response,,,,100,,,,,,,Space,keypress(Space),,,,,,,,-- --- ---- --- ------ crown ------- ---- -- --- ------- --<br>------- ---------- ------ -- ----- -- ----- -- ---- ------<br>--- ----- --- --- ------ -------- ----- --- ------ ----- --<br>----- ----- ---------- --- --- ------ ------ ---- -- ------<br>------- --- ------ ----- --- ---- ------- -- ---- --- --<br>------- ------,146346.39999961853,146345.59999990463,145759.38,145774.69999980927,145776.065,146360.09,,5,crown
screen,html.Screen,2_1_1_1_6,2022-05-12T15:01:00.143Z,,,,,,,,,,,,,,,,,54,,,,,,,,,,,,,,369.60999980926863,,response,,,,100,,,,,,,Space,keypress(Space),,,,,,,,-- --- ---- --- ------ ----- secured ---- -- --- ------- --<br>------- ---------- ------ -- ----- -- ----- -- ---- ------<br>--- ----- --- --- ------ -------- ----- --- ------ ----- --<br>----- ----- ---------- --- --- ------ ------ ---- -- ------<br>------- --- ------ ----- --- ---- ------- -- ---- --- --<br>------- ------,146730.69999980927,146729.69999980927,146343.404,146346.5,146360.09,146743.827,,6,secured
screen,html.Screen,2_1_1_1_7,2022-05-12T15:01:00.423Z,,,,,,,,,,,,,,,,,54,,,,,,,,,,,,,,265.57299961854005,,response,,,,100,,,,,,,Space,keypress(Space),,,,,,,,-- --- ---- --- ------ ----- ------- much -- --- ------- --<br>------- ---------- ------ -- ----- -- ----- -- ---- ------<br>--- ----- --- --- ------ -------- ----- --- ------ ----- --<br>----- ----- ---------- --- --- ------ ------ ---- -- ------<br>------- --- ------ ----- --- ---- ------- -- ---- --- --<br>------- ------,147010.19999980927,147009.39999961853,146727.142,146730.89999961853,146743.827,147010.754,,7,much
screen,html.Screen,2_1_1_1_8,2022-05-12T15:01:00.759Z,,,,,,,,,,,,,,,,,54,,,,,,,,,,,,,,334.8459999046463,,response,,,,100,,,,,,,Space,keypress(Space),,,,,,,,-- --- ---- --- ------ ----- ------- ---- of --- ------- --<br>------- ---------- ------ -- ----- -- ----- -- ---- ------<br>--- ----- --- --- ------ -------- ----- --- ------ ----- --<br>----- ----- ---------- --- --- ------ ------ ---- -- ------<br>------- --- ------ ----- --- ---- ------- -- ---- --- --<br>------- ------,147346.5,147345.59999990463,146994.073,147010.2999997139,147010.754,147361.23,,8,of
screen,html.Screen,2_1_1_1_9,2022-05-12T15:01:01.059Z,,,,,,,,,,,,,,,,,54,,,,,,,,,,,,,,284.2699999999895,,response,,,,100,,,,,,,Space,keypress(Space),,,,,,,,-- --- ---- --- ------ ----- ------- ---- -- its ------- --<br>------- ---------- ------ -- ----- -- ----- -- ---- ------<br>--- ----- --- --- ------ -------- ----- --- ------ ----- --<br>----- ----- ---------- --- --- ------ ------ ---- -- ------<br>------- --- ------ ----- --- ---- ------- -- ---- --- --<br>------- ------,147646.39999961853,147645.5,147344.546,147346.59999990463,147361.23,147661.563,,9,its
screen,html.Screen,2_1_1_1_10,2022-05-12T15:01:01.423Z,,,,,,,,,,,,,,,,,54,,,,,,,,,,,,,,347.73699971390306,,response,,,,100,,,,,,,Space,keypress(Space),,,,,,,,-- --- ---- --- ------ ----- ------- ---- -- --- revenue --<br>------- ---------- ------ -- ----- -- ----- -- ---- ------<br>--- ----- --- --- ------ -------- ----- --- ------ ----- --<br>----- ----- ---------- --- --- ------ ------ ---- -- ------<br>------- --- ------ ----- --- ---- ------- -- ---- --- --<br>------- ------,148010.19999980927,148009.2999997139,147644.879,147646.39999961853,147661.563,148011.946,,10,revenue
screen,html.Screen,2_1_1_1_11,2022-05-12T15:01:01.819Z,,,,,,,,,,,,,,,,,54,,,,,,,,,,,,,,393.0540000000037,,response,,,,100,,,,,,,Space,keypress(Space),,,,,,,,-- --- ---- --- ------ ----- ------- ---- -- --- ------- by<br>------- ---------- ------ -- ----- -- ----- -- ---- ------<br>--- ----- --- --- ------ -------- ----- --- ------ ----- --<br>----- ----- ---------- --- --- ------ ------ ---- -- ------<br>------- --- ------ ----- --- ---- ------- -- ---- --- --<br>------- ------,148405.89999961853,148405,147995.263,148010.2999997139,148011.946,148412.45,,11,by
screen,html.Screen,2_1_1_1_12,2022-05-12T15:01:02.183Z,,,,,,,,,,,,,,,,,54,,,,,,,,,,,,,,357.2499998092535,,response,,,,100,,,,,,,Space,keypress(Space),,,,,,,,-- --- ---- --- ------ ----- ------- ---- -- --- ------- --<br>issuing ---------- ------ -- ----- -- ----- -- ---- ------<br>--- ----- --- --- ------ -------- ----- --- ------ ----- --<br>----- ----- ---------- --- --- ------ ------ ---- -- ------<br>------- --- ------ ----- --- ---- ------- -- ---- --- --<br>------- ------,148770.59999990463,148769.69999980927,148395.765,148406,148412.45,148779.534,,12,issuing
screen,html.Screen,2_1_1_1_13,2022-05-12T15:01:02.543Z,,,,,,,,,,,,,,,,,54,,,,,,,,,,,,,,350.06599990461837,,response,,,,100,,,,,,,Space,keypress(Space),,,,,,,,-- --- ---- --- ------ ----- ------- ---- -- --- ------- --<br>------- government ------ -- ----- -- ----- -- ---- ------<br>--- ----- --- --- ------ -------- ----- --- ------ ----- --<br>----- ----- ---------- --- --- ------ ------ ---- -- ------<br>------- --- ------ ----- --- ---- ------- -- ---- --- --<br>------- ------,149130.59999990463,149129.59999990463,148762.849,148770.69999980927,148779.534,149146.569,,13,government
screen,html.Screen,2_1_1_1_14,2022-05-12T15:01:02.935Z,,,,,,,,,,,,,,,,,54,,,,,,,,,,,,,,375.2309997139091,,response,,,,100,,,,,,,Space,keypress(Space),,,,,,,,-- --- ---- --- ------ ----- ------- ---- -- --- ------- --<br>------- ---------- bonds. -- ----- -- ----- -- ---- ------<br>--- ----- --- --- ------ -------- ----- --- ------ ----- --<br>----- ----- ---------- --- --- ------ ------ ---- -- ------<br>------- --- ------ ----- --- ---- ------- -- ---- --- --<br>------- ------,149522.59999990463,149521.7999997139,149129.886,149130.7999997139,149146.569,149530.413,,14,bonds.
screen,html.Screen,2_1_1_1_15,2022-05-12T15:01:03.371Z,,,,,,,,,,,,,,,,,54,,,,,,,,,,,,,,427.08699999999953,,response,,,,100,,,,,,,Space,keypress(Space),,,,,,,,-- --- ---- --- ------ ----- ------- ---- -- --- ------- --<br>------- ---------- ------ In ----- -- ----- -- ---- ------<br>--- ----- --- --- ------ -------- ----- --- ------ ----- --<br>----- ----- ---------- --- --- ------ ------ ---- -- ------<br>------- --- ------ ----- --- ---- ------- -- ---- --- --<br>------- ------,149958.39999961853,149957.5,149513.728,149522.89999961853,149530.413,149964.179,,15,In
screen,html.Screen,2_1_1_1_16,2022-05-12T15:01:03.843Z,,,,,,,,,,,,,,,,,54,,,,,,,,,,,,,,465.0209998092614,,response,,,,100,,,,,,,Space,keypress(Space),,,,,,,,"-- --- ---- --- ------ ----- ------- ---- -- --- ------- --<br>------- ---------- ------ -- 1727, -- ----- -- ---- ------<br>--- ----- --- --- ------ -------- ----- --- ------ ----- --<br>----- ----- ---------- --- --- ------ ------ ---- -- ------<br>------- --- ------ ----- --- ---- ------- -- ---- --- --<br>------- ------",150430.09999990463,150429.19999980927,149947.495,149958.5,149964.179,150431.354,,16,"1727,"
screen,html.Screen,2_1_1_1_17,2022-05-12T15:01:04.199Z,,,,,,,,,,,,,,,,,54,,,,,,,,,,,,,,354.1460000000079,,response,,,,100,,,,,,,Space,keypress(Space),,,,,,,,-- --- ---- --- ------ ----- ------- ---- -- --- ------- --<br>------- ---------- ------ -- ----- in ----- -- ---- ------<br>--- ----- --- --- ------ -------- ----- --- ------ ----- --<br>----- ----- ---------- --- --- ------ ------ ---- -- ------<br>------- --- ------ ----- --- ---- ------- -- ---- --- --<br>------- ------,150786.39999961853,150785.5,150414.671,150430.19999980927,150431.354,150798.491,,17,in
screen,html.Screen,2_1_1_1_18,2022-05-12T15:01:04.611Z,,,,,,,,,,,,,,,,,54,,,,,,,,,,,,,,399.20899980925606,,response,,,,100,,,,,,,Space,keypress(Space),,,,,,,,-- --- ---- --- ------ ----- ------- ---- -- --- ------- --<br>------- ---------- ------ -- ----- -- order -- ---- ------<br>--- ----- --- --- ------ -------- ----- --- ------ ----- --<br>----- ----- ---------- --- --- ------ ------ ---- -- ------<br>------- --- ------ ----- --- ---- ------- -- ---- --- --<br>------- ------,151198.59999990463,151197.69999980927,150781.809,150786.5,150798.491,151198.948,,18,order
screen,html.Screen,2_1_1_1_19,2022-05-12T15:01:04.879Z,,,,,,,,,,,,,,,,,54,,,,,,,,,,,,,,266.7519998092612,,response,,,,100,,,,,,,Space,keypress(Space),,,,,,,,-- --- ---- --- ------ ----- ------- ---- -- --- ------- --<br>------- ---------- ------ -- ----- -- ----- to ---- ------<br>--- ----- --- --- ------ -------- ----- --- ------ ----- --<br>----- ----- ---------- --- --- ------ ------ ---- -- ------<br>------- --- ------ ----- --- ---- ------- -- ---- --- --<br>------- ------,151466.59999990463,151465.69999980927,151182.266,151198.69999980927,151198.948,151482.635,,19,to
screen,html.Screen,2_1_1_1_20,2022-05-12T15:01:05.275Z,,,,,,,,,,,,,,,,,54,,,,,,,,,,,,,,378.6649997138884,,response,,,,100,,,,,,,Space,keypress(Space),,,,,,,,-- --- ---- --- ------ ----- ------- ---- -- --- ------- --<br>------- ---------- ------ -- ----- -- ----- -- save ------<br>--- ----- --- --- ------ -------- ----- --- ------ ----- --<br>----- ----- ---------- --- --- ------ ------ ---- -- ------<br>------- --- ------ ----- --- ---- ------- -- ---- --- --<br>------- ------,151862.39999961853,151861.2999997139,151465.953,151466.69999980927,151482.635,151866.323,,20,save
screen,html.Screen,2_1_1_1_21,2022-05-12T15:01:05.669Z,,,,,,,,,,,,,,,,,54,,,,,,,,,,,,,,389.2769999046286,,response,,,,100,,,,,,,Space,keypress(Space),,,,,,,,"-- --- ---- --- ------ ----- ------- ---- -- --- ------- --<br>------- ---------- ------ -- ----- -- ----- -- ---- money,<br>--- ----- --- --- ------ -------- ----- --- ------ ----- --<br>----- ----- ---------- --- --- ------ ------ ---- -- ------<br>------- --- ------ ----- --- ---- ------- -- ---- --- --<br>------- ------",152256.39999961853,152255.59999990463,151849.644,151862.5,151866.323,152266.743,,21,"money,"
screen,html.Screen,2_1_1_1_22,2022-05-12T15:01:05.949Z,,,,,,,,,,,,,,,,,54,,,,,,,,,,,,,,268.75700000001234,,response,,,,100,,,,,,,Space,keypress(Space),,,,,,,,-- --- ---- --- ------ ----- ------- ---- -- --- ------- --<br>------- ---------- ------ -- ----- -- ----- -- ---- ------<br>the ----- --- --- ------ -------- ----- --- ------ ----- --<br>----- ----- ---------- --- --- ------ ------ ---- -- ------<br>------- --- ------ ----- --- ---- ------- -- ---- --- --<br>------- ------,152536.39999961853,152535.5,152250.064,152256.59999990463,152266.743,152550.526,,22,the
screen,html.Screen,2_1_1_1_23,2022-05-12T15:01:06.209Z,,,,,,,,,,,,,,,,,54,,,,,,,,,,,,,,244.8739996185177,,response,,,,100,,,,,,,Space,keypress(Space),,,,,,,,-- --- ---- --- ------ ----- ------- ---- -- --- ------- --<br>------- ---------- ------ -- ----- -- ----- -- ---- ------<br>--- state --- --- ------ -------- ----- --- ------ ----- --<br>----- ----- ---------- --- --- ------ ------ ---- -- ------<br>------- --- ------ ----- --- ---- ------- -- ---- --- --<br>------- ------,152796.19999980927,152795.39999961853,152533.844,152536.5,152550.526,152800.808,,23,state
screen,html.Screen,2_1_1_1_24,2022-05-12T15:01:06.597Z,,,,,,,,,,,,,,,,,54,,,,,,,,,,,,,,382.7919999046426,,response,,,,100,,,,,,,Space,keypress(Space),,,,,,,,-- --- ---- --- ------ ----- ------- ---- -- --- ------- --<br>------- ---------- ------ -- ----- -- ----- -- ---- ------<br>--- ----- cut --- ------ -------- ----- --- ------ ----- --<br>----- ----- ---------- --- --- ------ ------ ---- -- ------<br>------- --- ------ ----- --- ---- ------- -- ---- --- --<br>------- ------,153184.5,153183.59999990463,152784.125,152796.2999997139,152800.808,153201.358,,24,cut
screen,html.Screen,2_1_1_1_25,2022-05-12T15:01:06.889Z,,,,,,,,,,,,,,,,,54,,,,,,,,,,,,,,273.94199971389025,,response,,,,100,,,,,,,Space,keypress(Space),,,,,,,,-- --- ---- --- ------ ----- ------- ---- -- --- ------- --<br>------- ---------- ------ -- ----- -- ----- -- ---- ------<br>--- ----- --- the ------ -------- ----- --- ------ ----- --<br>----- ----- ---------- --- --- ------ ------ ---- -- ------<br>------- --- ------ ----- --- ---- ------- -- ---- --- --<br>------- ------,153476.09999990463,153475.2999997139,153184.673,153184.59999990463,153201.358,153484.967,,25,the
screen,html.Screen,2_1_1_1_26,2022-05-12T15:01:07.249Z,,,,,,,,,,,,,,,,,54,,,,,,,,,,,,,,350.6329999046284,,response,,,,100,,,,,,,Space,keypress(Space),,,,,,,,-- --- ---- --- ------ ----- ------- ---- -- --- ------- --<br>------- ---------- ------ -- ----- -- ----- -- ---- ------<br>--- ----- --- --- bonds' -------- ----- --- ------ ----- --<br>----- ----- ---------- --- --- ------ ------ ---- -- ------<br>------- --- ------ ----- --- ---- ------- -- ---- --- --<br>------- ------,153836.39999961853,153835.59999990463,153468.284,153476.19999980927,153484.967,153852.014,,26,bonds'
screen,html.Screen,2_1_1_1_27,2022-05-12T15:01:07.569Z,,,,,,,,,,,,,,,,,54,,,,,,,,,,,,,,303.585999904637,,response,,,,100,,,,,,,Space,keypress(Space),,,,,,,,-- --- ---- --- ------ ----- ------- ---- -- --- ------- --<br>------- ---------- ------ -- ----- -- ----- -- ---- ------<br>--- ----- --- --- ------ interest ----- --- ------ ----- --<br>----- ----- ---------- --- --- ------ ------ ---- -- ------<br>------- --- ------ ----- --- ---- ------- -- ---- --- --<br>------- ------,154156.5,154155.59999990463,153835.332,153836.5,153852.014,154169.068,,27,interest
screen,html.Screen,2_1_1_1_28,2022-05-12T15:01:07.921Z,,,,,,,,,,,,,,,,,54,,,,,,,,,,,,,,338.4320000000007,,response,,,,100,,,,,,,Space,keypress(Space),,,,,,,,-- --- ---- --- ------ ----- ------- ---- -- --- ------- --<br>------- ---------- ------ -- ----- -- ----- -- ---- ------<br>--- ----- --- --- ------ -------- rate. --- ------ ----- --<br>----- ----- ---------- --- --- ------ ------ ---- -- ------<br>------- --- ------ ----- --- ---- ------- -- ---- --- --<br>------- ------,154508.5,154507.5,154152.386,154156.69999980927,154169.068,154519.453,,28,rate.
screen,html.Screen,2_1_1_1_29,2022-05-12T15:01:08.334Z,,,,,,,,,,,,,,,,,54,,,,,,,,,,,,,,400.8469997138891,,response,,,,100,,,,,,,Space,keypress(Space),,,,,,,,-- --- ---- --- ------ ----- ------- ---- -- --- ------- --<br>------- ---------- ------ -- ----- -- ----- -- ---- ------<br>--- ----- --- --- ------ -------- ----- The ------ ----- --<br>----- ----- ---------- --- --- ------ ------ ---- -- ------<br>------- --- ------ ----- --- ---- ------- -- ---- --- --<br>------- ------,154920.7999997139,154920.2999997139,154502.772,154508.5,154519.453,154936.581,,29,The
screen,html.Screen,2_1_1_1_30,2022-05-12T15:01:08.589Z,,,,,,,,,,,,,,,,,54,,,,,,,,,,,,,,238.81899961852469,,response,,,,100,,,,,,,Space,keypress(Space),,,,,,,,-- --- ---- --- ------ ----- ------- ---- -- --- ------- --<br>------- ---------- ------ -- ----- -- ----- -- ---- ------<br>--- ----- --- --- ------ -------- ----- --- market ----- --<br>----- ----- ---------- --- --- ------ ------ ---- -- ------<br>------- --- ------ ----- --- ---- ------- -- ---- --- --<br>------- ------,155176.5,155175.39999961853,154919.9,154920.89999961853,154936.581,155186.942,,30,market
screen,html.Screen,2_1_1_1_31,2022-05-12T15:01:09.017Z,,,,,,,,,,,,,,,,,54,,,,,,,,,,,,,,416.3579997138877,,response,,,,100,,,,,,,Space,keypress(Space),,,,,,,,-- --- ---- --- ------ ----- ------- ---- -- --- ------- --<br>------- ---------- ------ -- ----- -- ----- -- ---- ------<br>--- ----- --- --- ------ -------- ----- --- ------ value --<br>----- ----- ---------- --- --- ------ ------ ---- -- ------<br>------- --- ------ ----- --- ---- ------- -- ---- --- --<br>------- ------,155604.39999961853,155603.2999997139,155170.26,155176.5,155186.942,155620.703,,31,value
screen,html.Screen,2_1_1_1_32,2022-05-12T15:01:09.453Z,,,,,,,,,,,,,,,,,54,,,,,,,,,,,,,,418.89699990462395,,response,,,,100,,,,,,,Space,keypress(Space),,,,,,,,-- --- ---- --- ------ ----- ------- ---- -- --- ------- --<br>------- ---------- ------ -- ----- -- ----- -- ---- ------<br>--- ----- --- --- ------ -------- ----- --- ------ ----- of<br>----- ----- ---------- --- --- ------ ------ ---- -- ------<br>------- --- ------ ----- --- ---- ------- -- ---- --- --<br>------- ------,156040.39999961853,156039.59999990463,155604.022,155604.5,155620.703,156054.52,,32,of
screen,html.Screen,2_1_1_1_33,2022-05-12T15:01:09.893Z,,,,,,,,,,,,,,,,,54,,,,,,,,,,,,,,425.07999990464305,,response,,,,100,,,,,,,Space,keypress(Space),,,,,,,,-- --- ---- --- ------ ----- ------- ---- -- --- ------- --<br>------- ---------- ------ -- ----- -- ----- -- ---- ------<br>--- ----- --- --- ------ -------- ----- --- ------ ----- --<br>these ----- ---------- --- --- ------ ------ ---- -- ------<br>------- --- ------ ----- --- ---- ------- -- ---- --- --<br>------- ------,156480.39999961853,156479.59999990463,156037.84,156040.5,156054.52,156488.359,,33,these
screen,html.Screen,2_1_1_1_34,2022-05-12T15:01:10.277Z,,,,,,,,,,,,,,,,,54,,,,,,,,,,,,,,375.04099961853353,,response,,,,100,,,,,,,Space,keypress(Space),,,,,,,,-- --- ---- --- ------ ----- ------- ---- -- --- ------- --<br>------- ---------- ------ -- ----- -- ----- -- ---- ------<br>--- ----- --- --- ------ -------- ----- --- ------ ----- --<br>----- bonds ---------- --- --- ------ ------ ---- -- ------<br>------- --- ------ ----- --- ---- ------- -- ---- --- --<br>------- ------,156864.5,156863.39999961853,156471.679,156480.5,156488.359,156872.179,,34,bonds
screen,html.Screen,2_1_1_1_35,2022-05-12T15:01:10.829Z,,,,,,,,,,,,,,,,,54,,,,,,,,,,,,,,543.4209999046288,,response,,,,100,,,,,,,Space,keypress(Space),,,,,,,,"-- --- ---- --- ------ ----- ------- ---- -- --- ------- --<br>------- ---------- ------ -- ----- -- ----- -- ---- ------<br>--- ----- --- --- ------ -------- ----- --- ------ ----- --<br>----- ----- plummeted, --- --- ------ ------ ---- -- ------<br>------- --- ------ ----- --- ---- ------- -- ---- --- --<br>------- ------",157416.59999990463,157415.59999990463,156855.496,156864.59999990463,156872.179,157422.884,,35,"plummeted,"
screen,html.Screen,2_1_1_1_36,2022-05-12T15:01:11.325Z,,,,,,,,,,,,,,,,,54,,,,,,,,,,,,,,488.6160000000091,,response,,,,100,,,,,,,Space,keypress(Space),,,,,,,,-- --- ---- --- ------ ----- ------- ---- -- --- ------- --<br>------- ---------- ------ -- ----- -- ----- -- ---- ------<br>--- ----- --- --- ------ -------- ----- --- ------ ----- --<br>----- ----- ---------- and --- ------ ------ ---- -- ------<br>------- --- ------ ----- --- ---- ------- -- ---- --- --<br>------- ------,157912.2999997139,157911.5,157406.199,157416.59999990463,157422.884,157923.433,,36,and
screen,html.Screen,2_1_1_1_37,2022-05-12T15:01:11.713Z,,,,,,,,,,,,,,,,,54,,,,,,,,,,,,,,376.1669999046426,,response,,,,100,,,,,,,Space,keypress(Space),,,,,,,,-- --- ---- --- ------ ----- ------- ---- -- --- ------- --<br>------- ---------- ------ -- ----- -- ----- -- ---- ------<br>--- ----- --- --- ------ -------- ----- --- ------ ----- --<br>----- ----- ---------- --- the ------ ------ ---- -- ------<br>------- --- ------ ----- --- ---- ------- -- ---- --- --<br>------- ------,158300.7999997139,158299.59999990463,157906.748,157912.5,157923.433,158307.192,,37,the
screen,html.Screen,2_1_1_1_38,2022-05-12T15:01:12.037Z,,,,,,,,,,,,,,,,,54,,,,,,,,,,,,,,316.1079997138877,,response,,,,100,,,,,,,Space,keypress(Space),,,,,,,,-- --- ---- --- ------ ----- ------- ---- -- --- ------- --<br>------- ---------- ------ -- ----- -- ----- -- ---- ------<br>--- ----- --- --- ------ -------- ----- --- ------ ----- --<br>----- ----- ---------- --- --- market ------ ---- -- ------<br>------- --- ------ ----- --- ---- ------- -- ---- --- --<br>------- ------,158624.09999990463,158623.2999997139,158290.51,158300.89999961853,158307.192,158640.872,,38,market
screen,html.Screen,2_1_1_1_39,2022-05-12T15:01:12.393Z,,,,,,,,,,,,,,,,,54,,,,,,,,,,,,,,338.627999999997,,response,,,,100,,,,,,,Space,keypress(Space),,,,,,,,-- --- ---- --- ------ ----- ------- ---- -- --- ------- --<br>------- ---------- ------ -- ----- -- ----- -- ---- ------<br>--- ----- --- --- ------ -------- ----- --- ------ ----- --<br>----- ----- ---------- --- --- ------ became ---- -- ------<br>------- --- ------ ----- --- ---- ------- -- ---- --- --<br>------- ------,158980.19999980927,158979.5,158624.189,158624.2999997139,158640.872,158991.348,,39,became
screen,html.Screen,2_1_1_1_40,2022-05-12T15:01:12.689Z,,,,,,,,,,,,,,,,,54,,,,,,,,,,,,,,284.25199990463443,,response,,,,100,,,,,,,Space,keypress(Space),,,,,,,,-- --- ---- --- ------ ----- ------- ---- -- --- ------- --<br>------- ---------- ------ -- ----- -- ----- -- ---- ------<br>--- ----- --- --- ------ -------- ----- --- ------ ----- --<br>----- ----- ---------- --- --- ------ ------ wary -- ------<br>------- --- ------ ----- --- ---- ------- -- ---- --- --<br>------- ------,159276.39999961853,159275.59999990463,158974.663,158980.39999961853,158991.348,159291.781,,40,wary
screen,html.Screen,2_1_1_1_41,2022-05-12T15:01:12.979Z,,,,,,,,,,,,,,,,,54,,,,,,,,,,,,,,273.81899990464444,,response,,,,100,,,,,,,Space,keypress(Space),,,,,,,,-- --- ---- --- ------ ----- ------- ---- -- --- ------- --<br>------- ---------- ------ -- ----- -- ----- -- ---- ------<br>--- ----- --- --- ------ -------- ----- --- ------ ----- --<br>----- ----- ---------- --- --- ------ ------ ---- of ------<br>------- --- ------ ----- --- ---- ------- -- ---- --- --<br>------- ------,159566.39999961853,159565.59999990463,159275.094,159276.59999990463,159291.781,159575.353,,41,of
screen,html.Screen,2_1_1_1_42,2022-05-12T15:01:13.279Z,,,,,,,,,,,,,,,,,54,,,,,,,,,,,,,,289.9469997138949,,response,,,,100,,,,,,,Space,keypress(Space),,,,,,,,-- --- ---- --- ------ ----- ------- ---- -- --- ------- --<br>------- ---------- ------ -- ----- -- ----- -- ---- ------<br>--- ----- --- --- ------ -------- ----- --- ------ ----- --<br>----- ----- ---------- --- --- ------ ------ ---- -- French<br>------- --- ------ ----- --- ---- ------- -- ---- --- --<br>------- ------,159866.09999990463,159865.2999997139,159558.671,159566.5,159575.353,159875.599,,42,French
screen,html.Screen,2_1_1_1_43,2022-05-12T15:01:13.611Z,,,,,,,,,,,,,,,,,54,,,,,,,,,,,,,,321.9010000000126,,response,,,,100,,,,,,,Space,keypress(Space),,,,,,,,-- --- ---- --- ------ ----- ------- ---- -- --- ------- --<br>------- ---------- ------ -- ----- -- ----- -- ---- ------<br>--- ----- --- --- ------ -------- ----- --- ------ ----- --<br>----- ----- ---------- --- --- ------ ------ ---- -- ------<br>credit. --- ------ ----- --- ---- ------- -- ---- --- --<br>------- ------,160198.39999961853,160197.5,159858.923,159866.2999997139,159875.599,160209.328,,43,credit.
screen,html.Screen,2_1_1_1_44,2022-05-12T15:01:14.019Z,,,,,,,,,,,,,,,,,54,,,,,,,,,,,,,,396.07199961852166,,response,,,,100,,,,,,,Space,keypress(Space),,,,,,,,-- --- ---- --- ------ ----- ------- ---- -- --- ------- --<br>------- ---------- ------ -- ----- -- ----- -- ---- ------<br>--- ----- --- --- ------ -------- ----- --- ------ ----- --<br>----- ----- ---------- --- --- ------ ------ ---- -- ------<br>------- The ------ ----- --- ---- ------- -- ---- --- --<br>------- ------,160606.19999980927,160605.39999961853,160192.65,160198.59999990463,160209.328,160609.77,,44,The
screen,html.Screen,2_1_1_1_45,2022-05-12T15:01:14.267Z,,,,,,,,,,,,,,,,,54,,,,,,,,,,,,,,243.73000000001048,,response,,,,100,,,,,,,Space,keypress(Space),,,,,,,,-- --- ---- --- ------ ----- ------- ---- -- --- ------- --<br>------- ---------- ------ -- ----- -- ----- -- ---- ------<br>--- ----- --- --- ------ -------- ----- --- ------ ----- --<br>----- ----- ---------- --- --- ------ ------ ---- -- ------<br>------- --- French ----- --- ---- ------- -- ---- --- --<br>------- ------,160854.39999961853,160853.5,160593.091,160606.39999961853,160609.77,160860.149,,45,French
screen,html.Screen,2_1_1_1_46,2022-05-12T15:01:14.647Z,,,,,,,,,,,,,,,,,54,,,,,,,,,,,,,,373.05099980926025,,response,,,,100,,,,,,,Space,keypress(Space),,,,,,,,-- --- ---- --- ------ ----- ------- ---- -- --- ------- --<br>------- ---------- ------ -- ----- -- ----- -- ---- ------<br>--- ----- --- --- ------ -------- ----- --- ------ ----- --<br>----- ----- ---------- --- --- ------ ------ ---- -- ------<br>------- --- ------ state --- ---- ------- -- ---- --- --<br>------- ------,161234,161233.19999980927,160843.47,160854.5,160860.149,161243.822,,46,state
screen,html.Screen,2_1_1_1_47,2022-05-12T15:01:14.960Z,,,,,,,,,,,,,,,,,54,,,,,,,,,,,,,,301.67800000001444,,response,,,,100,,,,,,,Space,keypress(Space),,,,,,,,-- --- ---- --- ------ ----- ------- ---- -- --- ------- --<br>------- ---------- ------ -- ----- -- ----- -- ---- ------<br>--- ----- --- --- ------ -------- ----- --- ------ ----- --<br>----- ----- ---------- --- --- ------ ------ ---- -- ------<br>------- --- ------ ----- was ---- ------- -- ---- --- --<br>------- ------,161546.89999961853,161545.5,161227.143,161234.19999980927,161243.822,161560.944,,47,was
screen,html.Screen,2_1_1_1_48,2022-05-12T15:01:15.343Z,,,,,,,,,,,,,,,,,54,,,,,,,,,,,,,,368.5560000000114,,response,,,,100,,,,,,,Space,keypress(Space),,,,,,,,-- --- ---- --- ------ ----- ------- ---- -- --- ------- --<br>------- ---------- ------ -- ----- -- ----- -- ---- ------<br>--- ----- --- --- ------ -------- ----- --- ------ ----- --<br>----- ----- ---------- --- --- ------ ------ ---- -- ------<br>------- --- ------ ----- --- left ------- -- ---- --- --<br>------- ------,161930.19999980927,161929.5,161544.264,161547.09999990463,161560.944,161944.688,,48,left
screen,html.Screen,2_1_1_1_49,2022-05-12T15:01:15.611Z,,,,,,,,,,,,,,,,,54,,,,,,,,,,,,,,252.81200000000536,,response,,,,100,,,,,,,Space,keypress(Space),,,,,,,,-- --- ---- --- ------ ----- ------- ---- -- --- ------- --<br>------- ---------- ------ -- ----- -- ----- -- ---- ------<br>--- ----- --- --- ------ -------- ----- --- ------ ----- --<br>----- ----- ---------- --- --- ------ ------ ---- -- ------<br>------- --- ------ ----- --- ---- without -- ---- --- --<br>------- ------,162198.2999997139,162197.5,161928.007,161930.39999961853,161944.688,162211.739,,49,without
screen,html.Screen,2_1_1_1_50,2022-05-12T15:01:15.951Z,,,,,,,,,,,,,,,,,54,,,,,,,,,,,,,,325.6609996185289,,response,,,,100,,,,,,,Space,keypress(Space),,,,,,,,-- --- ---- --- ------ ----- ------- ---- -- --- ------- --<br>------- ---------- ------ -- ----- -- ----- -- ---- ------<br>--- ----- --- --- ------ -------- ----- --- ------ ----- --<br>----- ----- ---------- --- --- ------ ------ ---- -- ------<br>------- --- ------ ----- --- ---- ------- an ---- --- --<br>------- ------,162538.19999980927,162537.39999961853,162195.057,162198.39999961853,162211.739,162545.374,,50,an
screen,html.Screen,2_1_1_1_51,2022-05-12T15:01:16.339Z,,,,,,,,,,,,,,,,,54,,,,,,,,,,,,,,379.925999713887,,response,,,,100,,,,,,,Space,keypress(Space),,,,,,,,-- --- ---- --- ------ ----- ------- ---- -- --- ------- --<br>------- ---------- ------ -- ----- -- ----- -- ---- ------<br>--- ----- --- --- ------ -------- ----- --- ------ ----- --<br>----- ----- ---------- --- --- ------ ------ ---- -- ------<br>------- --- ------ ----- --- ---- ------- -- easy --- --<br>------- ------,162926.39999961853,162925.2999997139,162528.696,162538.39999961853,162545.374,162929.123,,51,easy
screen,html.Screen,2_1_1_1_52,2022-05-12T15:01:16.595Z,,,,,,,,,,,,,,,,,54,,,,,,,,,,,,,,252.37700000000768,,response,,,,100,,,,,,,Space,keypress(Space),,,,,,,,-- --- ---- --- ------ ----- ------- ---- -- --- ------- --<br>------- ---------- ------ -- ----- -- ----- -- ---- ------<br>--- ----- --- --- ------ -------- ----- --- ------ ----- --<br>----- ----- ---------- --- --- ------ ------ ---- -- ------<br>------- --- ------ ----- --- ---- ------- -- ---- way --<br>------- ------,163182.2999997139,163181.5,162912.443,162926.5,162929.123,163196.174,,52,way
screen,html.Screen,2_1_1_1_53,2022-05-12T15:01:16.927Z,,,,,,,,,,,,,,,,,54,,,,,,,,,,,,,,316.7259996185312,,response,,,,100,,,,,,,Space,keypress(Space),,,,,,,,-- --- ---- --- ------ ----- ------- ---- -- --- ------- --<br>------- ---------- ------ -- ----- -- ----- -- ---- ------<br>--- ----- --- --- ------ -------- ----- --- ------ ----- --<br>----- ----- ---------- --- --- ------ ------ ---- -- ------<br>------- --- ------ ----- --- ---- ------- -- ---- --- of<br>------- ------,163513.7999997139,163512.89999961853,163179.496,163182.39999961853,163196.174,163529.841,,53,of
screen,html.Screen,2_1_1_1_54,2022-05-12T15:01:17.371Z,,,,,,,,,,,,,,,,,54,,,,,,,,,,,,,,427.75899990464677,,response,,,,100,,,,,,,Space,keypress(Space),,,,,,,,-- --- ---- --- ------ ----- ------- ---- -- --- ------- --<br>------- ---------- ------ -- ----- -- ----- -- ---- ------<br>--- ----- --- --- ------ -------- ----- --- ------ ----- --<br>----- ----- ---------- --- --- ------ ------ ---- -- ------<br>------- --- ------ ----- --- ---- ------- -- ---- --- --<br>raising ------,163958.5,163957.59999990463,163513.162,163514,163529.841,163963.723,,54,raising
screen,html.Screen,2_1_1_1_55,2022-05-12T15:01:17.871Z,,,,,,,,,,,,,,,,,54,,,,,,,,,,,,,,493.77700000000186,,response,,,,100,,,,,,,Space,keypress(Space),,,,,,,,-- --- ---- --- ------ ----- ------- ---- -- --- ------- --<br>------- ---------- ------ -- ----- -- ----- -- ---- ------<br>--- ----- --- --- ------ -------- ----- --- ------ ----- --<br>----- ----- ---------- --- --- ------ ------ ---- -- ------<br>------- --- ------ ----- --- ---- ------- -- ---- --- --<br>------- money.,164458.39999961853,164457.5,163947.042,163958.59999990463,163963.723,164464.126,,55,money.
Item 100,flow.Loop,2_1_1_1,2022-05-12T15:01:17.871Z,,,,,,,,,,,,,,,,,,,,,,,,,,,,,,,20183.445999999996,,completion,,,,,E,,,,,,,,,,,silence,,,,,164458.5,164457.5,144257.373,144258.19999980927,144274.054,164464.126,,,
Question 1,html.Screen,2_1_1_2,2022-05-12T15:01:20.541Z,,,,,,,,,,,,,,,,,,,,,,,,,,,,true,TRUE,,2662.773999618541,,response,,,,100,E,,,,,,TRUE,click #choice-1,,,,silence,,,,,167127.89999961853,167126.89999961853,164447.446,164458.59999990463,164464.126,167134.164,,,
Question 2,html.Screen,2_1_1_3,2022-05-12T15:01:22.748Z,,,,,,,,,,,,,,,,,,,,,,,,,,,,true,FALSE,,2200.635999713908,,response,,,,100,E,,,,,,FALSE,click #choice-2,,,,silence,,,,,169335.69999980927,169334.7999997139,167117.48,167128,167134.164,169336.67,,,
Item 100,flow.Sequence,2_1_1,2022-05-12T15:01:22.749Z,,,,,,,,,,,,,,,,,,,,,,,,,,,,,,,35055.49999971391,,completion,,,,,,,,,,,,,,,,,,,,,169335.89999961853,169334.7999997139,134262.618,134270.69999980927,134279.3,169336.67,,,
End of Practice,html.Page,2_1_2,2022-05-12T15:01:28.295Z,,,,,,,,,,,,,,,,,,,,,,,,,,,,,,,5545.2299996185175,,form submission,,,,,,,,,,,,,,,,,,,,,174882.19999980927,174881.89999961853,169319.987,169336,169336.67,174893.14,,,
Practice,flow.Sequence,2_1,2022-05-12T15:01:28.295Z,,,,,,,,,,,,,,,,,,,,,,,,,,,,,,,83652.48599961853,,completion,,,,,,,,,,,,,,,,,,,,,174882.5,174881.89999961853,91212.732,91226.69999980927,91229.414,174893.14,,,
Trap_instruction,html.Page,2_2_0,2022-05-12T15:01:33.947Z,,,,,,,,,,,,,,,,,,,,,,,,,,,,,,,5640.459999904619,,form submission,,,,,,,,,,,,,,,,,,,,,180534,180533.59999990463,174876.455,174882.5,174893.14,180549.42,,,
trap_trial,html.Screen,2_2_1,2022-05-12T15:01:39.328Z,,,,,,,,,,,,,,,,,,,,,,,,,,,,true,1,,5364.779999809252,,response,,,,,,,,,,,1,click #choice-1,,,,,,,,,185915,185914.19999980927,180532.736,180534.09999990463,180549.42,185920.912,,,
end of trap trial,html.Page,2_2_2,2022-05-12T15:01:42.369Z,,,,,,,,,,,,,,,,,,,,,,,,,,,,,,,3034.287999809254,,form submission,,,,,,,,,,,,,,,,,,,,,188955.39999961853,188955.19999980927,185904.232,185915.09999990463,185920.912,188959.348,,,
Trap 1,flow.Sequence,2_2,2022-05-12T15:01:42.369Z,,,,,,,,,,,,,,,,,,,,,,,,,,,,,,,14062.059999809251,,completion,,,,,,,,,,,,,,,,,,,,,188955.59999990463,188955.19999980927,174876.455,174882.5,174893.14,188959.348,,,
Standby,html.Page,2_3_0,2022-05-12T15:01:50.364Z,,,,,,,,,,,,,,,,,,,,,,,,,,,,,,,8007.483000000007,,timeout,,,,,,,,,,,,,,,,,,,,,196950.69999980927,196950.149,188942.666,188955.7999997139,188959.348,196966.831,,,
Holding screen,html.Screen,2_3_1_0_0,2022-05-12T15:01:57.357Z,,,,,,,,,,,,,,,,,,,,,,,,,,,,,,,6993.128999999986,,timeout,,,,,,,,,,,,,,,,,,,,,203944.2999997139,203943.279,196950.149,196951,196966.831,203959.96,,,
screen,html.Screen,2_3_1_0_1_0,2022-05-12T15:01:58.667Z,,,,,,,,,,,,,,,,,51,,,,,,,,,,,,,,1293.5400000000081,,response,,,,13,E,,,,,,Space,keypress(Space),,,,silence,,,,American -------- --- --- ---- --- --- ------ -- --------<br>---- --------- --- ------- ------------ ---------- ---------<br>--- ---------- ------- ---------- ------- -- -------- ----<br>---- --- ------ ----- ------ -- ---- --- ----- -- - -------<br>-------- -- --- --- -- ----- ----------- ----- -----------<br>---- --- ---------- --- ---- --- -- ----------,205254.2999997139,205253.5,203943.279,203944.5,203959.96,205261.322,,0,American
screen,html.Screen,2_3_1_0_1_1,2022-05-12T15:01:59.035Z,,,,,,,,,,,,,,,,,51,,,,,,,,,,,,,,359.3779998092796,,response,,,,13,E,,,,,,Space,keypress(Space),,,,silence,,,,-------- industry --- --- ---- --- --- ------ -- --------<br>---- --------- --- ------- ------------ ---------- ---------<br>--- ---------- ------- ---------- ------- -- -------- ----<br>---- --- ------ ----- ------ -- ---- --- ----- -- - -------<br>-------- -- --- --- -- ----- ----------- ----- -----------<br>---- --- ---------- --- ---- --- -- ----------,205621.69999980927,205620.69999980927,205244.641,205254.5,205261.322,205628.746,,1,industry
screen,html.Screen,2_3_1_0_1_2,2022-05-12T15:01:59.327Z,,,,,,,,,,,,,,,,,51,,,,,,,,,,,,,,284.4539998092514,,response,,,,13,E,,,,,,Space,keypress(Space),,,,silence,,,,-------- -------- may --- ---- --- --- ------ -- --------<br>---- --------- --- ------- ------------ ---------- ---------<br>--- ---------- ------- ---------- ------- -- -------- ----<br>---- --- ------ ----- ------ -- ---- --- ----- -- - -------<br>-------- -- --- --- -- ----- ----------- ----- -----------<br>---- --- ---------- --- ---- --- -- ----------,205914,205913.19999980927,205612.063,205621.7999997139,205628.746,205929.063,,2,may
screen,html.Screen,2_3_1_0_1_3,2022-05-12T15:01:59.619Z,,,,,,,,,,,,,,,,,51,,,,,,,,,,,,,,275.93700000000536,,response,,,,13,E,,,,,,Space,keypress(Space),,,,silence,,,,-------- -------- --- not ---- --- --- ------ -- --------<br>---- --------- --- ------- ------------ ---------- ---------<br>--- ---------- ------- ---------- ------- -- -------- ----<br>---- --- ------ ----- ------ -- ---- --- ----- -- - -------<br>-------- -- --- --- -- ----- ----------- ----- -----------<br>---- --- ---------- --- ---- --- -- ----------,206206.19999980927,206205,205912.38,205914.09999990463,205929.063,206212.791,,3,not
screen,html.Screen,2_3_1_0_1_4,2022-05-12T15:01:59.935Z,,,,,,,,,,,,,,,,,51,,,,,,,,,,,,,,308.20900000000256,,response,,,,13,E,,,,,,Space,keypress(Space),,,,silence,,,,-------- -------- --- --- know --- --- ------ -- --------<br>---- --------- --- ------- ------------ ---------- ---------<br>--- ---------- ------- ---------- ------- -- -------- ----<br>---- --- ------ ----- ------ -- ---- --- ----- -- - -------<br>-------- -- --- --- -- ----- ----------- ----- -----------<br>---- --- ---------- --- ---- --- -- ----------,206521.7999997139,206521,206196.109,206206.2999997139,206212.791,206529.863,,4,know
screen,html.Screen,2_3_1_0_1_5,2022-05-12T15:02:00.227Z,,,,,,,,,,,,,,,,,51,,,,,,,,,,,,,,283.03699961851817,,response,,,,13,E,,,,,,Space,keypress(Space),,,,silence,,,,"-------- -------- --- --- ---- it, --- ------ -- --------<br>---- --------- --- ------- ------------ ---------- ---------<br>--- ---------- ------- ---------- ------- -- -------- ----<br>---- --- ------ ----- ------ -- ---- --- ----- -- - -------<br>-------- -- --- --- -- ----- ----------- ----- -----------<br>---- --- ---------- --- ---- --- -- ----------",206813.7999997139,206812.89999961853,206513.178,206522,206529.863,206830.193,,5,"it,"
screen,html.Screen,2_3_1_0_1_6,2022-05-12T15:02:00.547Z,,,,,,,,,,,,,,,,,51,,,,,,,,,,,,,,302.50699980926584,,response,,,,13,E,,,,,,Space,keypress(Space),,,,silence,,,,-------- -------- --- --- ---- --- but ------ -- --------<br>---- --------- --- ------- ------------ ---------- ---------<br>--- ---------- ------- ---------- ------- -- -------- ----<br>---- --- ------ ----- ------ -- ---- --- ----- -- - -------<br>-------- -- --- --- -- ----- ----------- ----- -----------<br>---- --- ---------- --- ---- --- -- ----------,207133.59999990463,207132.69999980927,206813.509,206814,206830.193,207147.207,,6,but
screen,html.Screen,2_3_1_0_1_7,2022-05-12T15:02:00.811Z,,,,,,,,,,,,,,,,,51,,,,,,,,,,,,,,249.8929999046377,,response,,,,13,E,,,,,,Space,keypress(Space),,,,silence,,,,-------- -------- --- --- ---- --- --- debate -- --------<br>---- --------- --- ------- ------------ ---------- ---------<br>--- ---------- ------- ---------- ------- -- -------- ----<br>---- --- ------ ----- ------ -- ---- --- ----- -- - -------<br>-------- -- --- --- -- ----- ----------- ----- -----------<br>---- --- ---------- --- ---- --- -- ----------,207398,207397.09999990463,207130.524,207133.69999980927,207147.207,207414.286,,7,debate
screen,html.Screen,2_3_1_0_1_8,2022-05-12T15:02:01.171Z,,,,,,,,,,,,,,,,,51,,,,,,,,,,,,,,342.6139996185375,,response,,,,13,E,,,,,,Space,keypress(Space),,,,silence,,,,-------- -------- --- --- ---- --- --- ------ in --------<br>---- --------- --- ------- ------------ ---------- ---------<br>--- ---------- ------- ---------- ------- -- -------- ----<br>---- --- ------ ----- ------ -- ---- --- ----- -- - -------<br>-------- -- --- --- -- ----- ----------- ----- -----------<br>---- --- ---------- --- ---- --- -- ----------,207757.89999961853,207756.89999961853,207397.598,207398.09999990463,207414.286,207764.681,,8,in
screen,html.Screen,2_3_1_0_1_9,2022-05-12T15:02:01.463Z,,,,,,,,,,,,,,,,,51,,,,,,,,,,,,,,284.3189999999886,,response,,,,13,E,,,,,,Space,keypress(Space),,,,silence,,,,-------- -------- --- --- ---- --- --- ------ -- Congress<br>---- --------- --- ------- ------------ ---------- ---------<br>--- ---------- ------- ---------- ------- -- -------- ----<br>---- --- ------ ----- ------ -- ---- --- ----- -- - -------<br>-------- -- --- --- -- ----- ----------- ----- -----------<br>---- --- ---------- --- ---- --- -- ----------,208049.89999961853,208049,207747.994,207758.09999990463,207764.681,208065.025,,9,Congress
screen,html.Screen,2_3_1_0_1_10,2022-05-12T15:02:01.947Z,,,,,,,,,,,,,,,,,51,,,,,,,,,,,,,,467.9750000000058,,response,,,,13,E,,,,,,Space,keypress(Space),,,,silence,,,,-------- -------- --- --- ---- --- --- ------ -- --------<br>over --------- --- ------- ------------ ---------- ---------<br>--- ---------- ------- ---------- ------- -- -------- ----<br>---- --- ------ ----- ------ -- ---- --- ----- -- - -------<br>-------- -- --- --- -- ----- ----------- ----- -----------<br>---- --- ---------- --- ---- --- -- ----------,208533.7999997139,208533,208048.338,208050,208065.025,208548.901,,10,over
screen,html.Screen,2_3_1_0_1_11,2022-05-12T15:02:02.379Z,,,,,,,,,,,,,,,,,51,,,,,,,,,,,,,,416.29899980925256,,response,,,,13,E,,,,,,Space,keypress(Space),,,,silence,,,,-------- -------- --- --- ---- --- --- ------ -- --------<br>---- reforming --- ------- ------------ ---------- ---------<br>--- ---------- ------- ---------- ------- -- -------- ----<br>---- --- ------ ----- ------ -- ---- --- ----- -- - -------<br>-------- -- --- --- -- ----- ----------- ----- -----------<br>---- --- ---------- --- ---- --- -- ----------,208965.89999961853,208965.19999980927,208532.215,208534,208548.901,208982.741,,11,reforming
screen,html.Screen,2_3_1_0_1_12,2022-05-12T15:02:02.711Z,,,,,,,,,,,,,,,,,51,,,,,,,,,,,,,,313.8589999046235,,response,,,,13,E,,,,,,Space,keypress(Space),,,,silence,,,,-------- -------- --- --- ---- --- --- ------ -- --------<br>---- --------- the ------- ------------ ---------- ---------<br>--- ---------- ------- ---------- ------- -- -------- ----<br>---- --- ------ ----- ------ -- ---- --- ----- -- - -------<br>-------- -- --- --- -- ----- ----------- ----- -----------<br>---- --- ---------- --- ---- --- -- ----------,209297.5,209296.59999990463,208966.054,208966.19999980927,208982.741,209299.706,,12,the
screen,html.Screen,2_3_1_0_1_13,2022-05-12T15:02:03.055Z,,,,,,,,,,,,,,,,,51,,,,,,,,,,,,,,340.7939999999944,,response,,,,13,E,,,,,,Space,keypress(Space),,,,silence,,,,-------- -------- --- --- ---- --- --- ------ -- --------<br>---- --------- --- federal ------------ ---------- ---------<br>--- ---------- ------- ---------- ------- -- -------- ----<br>---- --- ------ ----- ------ -- ---- --- ----- -- - -------<br>-------- -- --- --- -- ----- ----------- ----- -----------<br>---- --- ---------- --- ---- --- -- ----------,209642.09999990463,209640.5,209283.021,209297.69999980927,209299.706,209650.217,,13,federal
screen,html.Screen,2_3_1_0_1_14,2022-05-12T15:02:03.875Z,,,,,,,,,,,,,,,,,51,,,,,,,,,,,,,,810.8829999046284,,response,,,,13,E,,,,,,Space,keypress(Space),,,,silence,,,,-------- -------- --- --- ---- --- --- ------ -- --------<br>---- --------- --- ------- government's ---------- ---------<br>--- ---------- ------- ---------- ------- -- -------- ----<br>---- --- ------ ----- ------ -- ---- --- ----- -- - -------<br>-------- -- --- --- -- ----- ----------- ----- -----------<br>---- --- ---------- --- ---- --- -- ----------,210462.19999980927,210461.09999990463,209633.531,209642.19999980927,209650.217,210467.578,,14,government's
screen,html.Screen,2_3_1_0_1_15,2022-05-12T15:02:04.571Z,,,,,,,,,,,,,,,,,51,,,,,,,,,,,,,,689.2219997138891,,response,,,,13,E,,,,,,Space,keypress(Space),,,,silence,,,,-------- -------- --- --- ---- --- --- ------ -- --------<br>---- --------- --- ------- ------------ regulatory ---------<br>--- ---------- ------- ---------- ------- -- -------- ----<br>---- --- ------ ----- ------ -- ---- --- ----- -- - -------<br>-------- -- --- --- -- ----- ----------- ----- -----------<br>---- --- ---------- --- ---- --- -- ----------,211157.7999997139,211156.7999997139,210450.896,210462.2999997139,210467.578,211168.199,,15,regulatory
screen,html.Screen,2_3_1_0_1_16,2022-05-12T15:02:05.317Z,,,,,,,,,,,,,,,,,51,,,,,,,,,,,,,,734.6009997139045,,response,,,,13,E,,,,,,Space,keypress(Space),,,,silence,,,,-------- -------- --- --- ---- --- --- ------ -- --------<br>---- --------- --- ------- ------------ ---------- apparatus<br>--- ---------- ------- ---------- ------- -- -------- ----<br>---- --- ------ ----- ------ -- ---- --- ----- -- - -------<br>-------- -- --- --- -- ----- ----------- ----- -----------<br>---- --- ---------- --- ---- --- -- ----------,211903.69999980927,211902.7999997139,211151.518,211157.89999961853,211168.199,211919.343,,16,apparatus
screen,html.Screen,2_3_1_0_1_17,2022-05-12T15:02:05.709Z,,,,,,,,,,,,,,,,,51,,,,,,,,,,,,,,375.5569996185368,,response,,,,13,E,,,,,,Space,keypress(Space),,,,silence,,,,-------- -------- --- --- ---- --- --- ------ -- --------<br>---- --------- --- ------- ------------ ---------- ---------<br>may ---------- ------- ---------- ------- -- -------- ----<br>---- --- ------ ----- ------ -- ---- --- ----- -- - -------<br>-------- -- --- --- -- ----- ----------- ----- -----------<br>---- --- ---------- --- ---- --- -- ----------,212295.7999997139,212294.89999961853,211902.66,211903.7999997139,211919.343,212303.16,,17,may
screen,html.Screen,2_3_1_0_1_18,2022-05-12T15:02:06.705Z,,,,,,,,,,,,,,,,,51,,,,,,,,,,,,,,987.7399996185268,,response,,,,13,E,,,,,,Space,keypress(Space),,,,silence,,,,-------- -------- --- --- ---- --- --- ------ -- --------<br>---- --------- --- ------- ------------ ---------- ---------<br>--- profoundly ------- ---------- ------- -- -------- ----<br>---- --- ------ ----- ------ -- ---- --- ----- -- - -------<br>-------- -- --- --- -- ----- ----------- ----- -----------<br>---- --- ---------- --- ---- --- -- ----------,213291.89999961853,213290.89999961853,212286.478,212296,212303.16,213304.02,,18,profoundly
screen,html.Screen,2_3_1_0_1_19,2022-05-12T15:02:07.129Z,,,,,,,,,,,,,,,,,51,,,,,,,,,,,,,,410.87999961854075,,response,,,,13,E,,,,,,Space,keypress(Space),,,,silence,,,,-------- -------- --- --- ---- --- --- ------ -- --------<br>---- --------- --- ------- ------------ ---------- ---------<br>--- ---------- improve ---------- ------- -- -------- ----<br>---- --- ------ ----- ------ -- ---- --- ----- -- - -------<br>-------- -- --- --- -- ----- ----------- ----- -----------<br>---- --- ---------- --- ---- --- -- ----------,213716,213714.89999961853,213287.339,213292,213304.02,213721.26,,19,improve
screen,html.Screen,2_3_1_0_1_20,2022-05-12T15:02:07.573Z,,,,,,,,,,,,,,,,,51,,,,,,,,,,,,,,437.7399999999907,,response,,,,13,E,,,,,,Space,keypress(Space),,,,silence,,,,-------- -------- --- --- ---- --- --- ------ -- --------<br>---- --------- --- ------- ------------ ---------- ---------<br>--- ---------- ------- companies' ------- -- -------- ----<br>---- --- ------ ----- ------ -- ---- --- ----- -- - -------<br>-------- -- --- --- -- ----- ----------- ----- -----------<br>---- --- ---------- --- ---- --- -- ----------,214159.89999961853,214159,213704.586,213716.19999980927,213721.26,214171.637,,20,companies'
screen,html.Screen,2_3_1_0_1_21,2022-05-12T15:02:08.001Z,,,,,,,,,,,,,,,,,51,,,,,,,,,,,,,,414.7629996185424,,response,,,,13,E,,,,,,Space,keypress(Space),,,,silence,,,,-------- -------- --- --- ---- --- --- ------ -- --------<br>---- --------- --- ------- ------------ ---------- ---------<br>--- ---------- ------- ---------- ability -- -------- ----<br>---- --- ------ ----- ------ -- ---- --- ----- -- - -------<br>-------- -- --- --- -- ----- ----------- ----- -----------<br>---- --- ---------- --- ---- --- -- ----------,214588,214586.39999961853,214154.962,214160,214171.637,214588.989,,21,ability
screen,html.Screen,2_3_1_0_1_22,2022-05-12T15:02:08.337Z,,,,,,,,,,,,,,,,,51,,,,,,,,,,,,,,334.0109999999986,,response,,,,13,E,,,,,,Space,keypress(Space),,,,silence,,,,-------- -------- --- --- ---- --- --- ------ -- --------<br>---- --------- --- ------- ------------ ---------- ---------<br>--- ---------- ------- ---------- ------- to -------- ----<br>---- --- ------ ----- ------ -- ---- --- ----- -- - -------<br>-------- -- --- --- -- ----- ----------- ----- -----------<br>---- --- ---------- --- ---- --- -- ----------,214923.7999997139,214923,214572.312,214588.19999980927,214588.989,214939.43,,22,to
screen,html.Screen,2_3_1_0_1_23,2022-05-12T15:02:08.793Z,,,,,,,,,,,,,,,,,51,,,,,,,,,,,,,,440.16999990463955,,response,,,,13,E,,,,,,Space,keypress(Space),,,,silence,,,,-------- -------- --- --- ---- --- --- ------ -- --------<br>---- --------- --- ------- ------------ ---------- ---------<br>--- ---------- ------- ---------- ------- -- survive. ----<br>---- --- ------ ----- ------ -- ---- --- ----- -- - -------<br>-------- -- --- --- -- ----- ----------- ----- -----------<br>---- --- ---------- --- ---- --- -- ----------,215380.19999980927,215379.59999990463,214922.75,214923.89999961853,214939.43,215390.062,,23,survive.
screen,html.Screen,2_3_1_0_1_24,2022-05-12T15:02:09.821Z,,,,,,,,,,,,,,,,,51,,,,,,,,,,,,,,1016.9379999999946,,response,,,,13,E,,,,,,Space,keypress(Space),,,,silence,,,,-------- -------- --- --- ---- --- --- ------ -- --------<br>---- --------- --- ------- ------------ ---------- ---------<br>--- ---------- ------- ---------- ------- -- -------- This<br>---- --- ------ ----- ------ -- ---- --- ----- -- - -------<br>-------- -- --- --- -- ----- ----------- ----- -----------<br>---- --- ---------- --- ---- --- -- ----------,216407.89999961853,216407,215373.38,215380.2999997139,215390.062,216424.466,,24,This
screen,html.Screen,2_3_1_0_1_25,2022-05-12T15:02:10.129Z,,,,,,,,,,,,,,,,,51,,,,,,,,,,,,,,290.3339997139119,,response,,,,13,E,,,,,,Space,keypress(Space),,,,silence,,,,-------- -------- --- --- ---- --- --- ------ -- --------<br>---- --------- --- ------- ------------ ---------- ---------<br>--- ---------- ------- ---------- ------- -- -------- ----<br>week --- ------ ----- ------ -- ---- --- ----- -- - -------<br>-------- -- --- --- -- ----- ----------- ----- -----------<br>---- --- ---------- --- ---- --- -- ----------,216715.59999990463,216714.7999997139,216407.784,216408.09999990463,216424.466,216724.767,,25,week
screen,html.Screen,2_3_1_0_1_26,2022-05-12T15:02:10.489Z,,,,,,,,,,,,,,,,,51,,,,,,,,,,,,,,350.1329996185377,,response,,,,13,E,,,,,,Space,keypress(Space),,,,silence,,,,-------- -------- --- --- ---- --- --- ------ -- --------<br>---- --------- --- ------- ------------ ---------- ---------<br>--- ---------- ------- ---------- ------- -- -------- ----<br>---- the ------ ----- ------ -- ---- --- ----- -- - -------<br>-------- -- --- --- -- ----- ----------- ----- -----------<br>---- --- ---------- --- ---- --- -- ----------,217076,217074.89999961853,216708.085,216715.7999997139,216724.767,217092.078,,26,the
screen,html.Screen,2_3_1_0_1_27,2022-05-12T15:02:10.769Z,,,,,,,,,,,,,,,,,51,,,,,,,,,,,,,,262.52199990462395,,response,,,,13,E,,,,,,Space,keypress(Space),,,,silence,,,,-------- -------- --- --- ---- --- --- ------ -- --------<br>---- --------- --- ------- ------------ ---------- ---------<br>--- ---------- ------- ---------- ------- -- -------- ----<br>---- --- Senate ----- ------ -- ---- --- ----- -- - -------<br>-------- -- --- --- -- ----- ----------- ----- -----------<br>---- --- ---------- --- ---- --- -- ----------,217355.5,217354.59999990463,217075.395,217076.19999980927,217092.078,217359.053,,27,Senate
screen,html.Screen,2_3_1_0_1_28,2022-05-12T15:02:11.121Z,,,,,,,,,,,,,,,,,51,,,,,,,,,,,,,,347.94699999998556,,response,,,,13,E,,,,,,Space,keypress(Space),,,,silence,,,,-------- -------- --- --- ---- --- --- ------ -- --------<br>---- --------- --- ------- ------------ ---------- ---------<br>--- ---------- ------- ---------- ------- -- -------- ----<br>---- --- ------ seems ------ -- ---- --- ----- -- - -------<br>-------- -- --- --- -- ----- ----------- ----- -----------<br>---- --- ---------- --- ---- --- -- ----------,217708.09999990463,217707,217342.369,217355.59999990463,217359.053,217709.473,,28,seems
screen,html.Screen,2_3_1_0_1_29,2022-05-12T15:02:11.392Z,,,,,,,,,,,,,,,,,51,,,,,,,,,,,,,,269.12699990463443,,response,,,,13,E,,,,,,Space,keypress(Space),,,,silence,,,,-------- -------- --- --- ---- --- --- ------ -- --------<br>---- --------- --- ------- ------------ ---------- ---------<br>--- ---------- ------- ---------- ------- -- -------- ----<br>---- --- ------ ----- poised -- ---- --- ----- -- - -------<br>-------- -- --- --- -- ----- ----------- ----- -----------<br>---- --- ---------- --- ---- --- -- ----------,217979.5,217978.59999990463,217692.788,217708.2999997139,217709.473,217993.213,,29,poised
screen,html.Screen,2_3_1_0_1_30,2022-05-12T15:02:11.713Z,,,,,,,,,,,,,,,,,51,,,,,,,,,,,,,,305.68699961854145,,response,,,,13,E,,,,,,Space,keypress(Space),,,,silence,,,,-------- -------- --- --- ---- --- --- ------ -- --------<br>---- --------- --- ------- ------------ ---------- ---------<br>--- ---------- ------- ---------- ------- -- -------- ----<br>---- --- ------ ----- ------ to ---- --- ----- -- - -------<br>-------- -- --- --- -- ----- ----------- ----- -----------<br>---- --- ---------- --- ---- --- -- ----------,218299.69999980927,218298.89999961853,217976.526,217979.59999990463,217993.213,218310.227,,30,to
screen,html.Screen,2_3_1_0_1_31,2022-05-12T15:02:12.101Z,,,,,,,,,,,,,,,,,51,,,,,,,,,,,,,,376.47299980925163,,response,,,,13,E,,,,,,Space,keypress(Space),,,,silence,,,,-------- -------- --- --- ---- --- --- ------ -- --------<br>---- --------- --- ------- ------------ ---------- ---------<br>--- ---------- ------- ---------- ------- -- -------- ----<br>---- --- ------ ----- ------ -- join --- ----- -- - -------<br>-------- -- --- --- -- ----- ----------- ----- -----------<br>---- --- ---------- --- ---- --- -- ----------,218687.59999990463,218686.69999980927,218293.542,218299.7999997139,218310.227,218693.907,,31,join
screen,html.Screen,2_3_1_0_1_32,2022-05-12T15:02:12.435Z,,,,,,,,,,,,,,,,,51,,,,,,,,,,,,,,326.5929999999935,,response,,,,13,E,,,,,,Space,keypress(Space),,,,silence,,,,-------- -------- --- --- ---- --- --- ------ -- --------<br>---- --------- --- ------- ------------ ---------- ---------<br>--- ---------- ------- ---------- ------- -- -------- ----<br>---- --- ------ ----- ------ -- ---- the ----- -- - -------<br>-------- -- --- --- -- ----- ----------- ----- -----------<br>---- --- ---------- --- ---- --- -- ----------,219021.7999997139,219020.5,218677.225,218687.69999980927,218693.907,219027.669,,32,the
screen,html.Screen,2_3_1_0_1_33,2022-05-12T15:02:12.674Z,,,,,,,,,,,,,,,,,51,,,,,,,,,,,,,,232.73099961853586,,response,,,,13,E,,,,,,Space,keypress(Space),,,,silence,,,,-------- -------- --- --- ---- --- --- ------ -- --------<br>---- --------- --- ------- ------------ ---------- ---------<br>--- ---------- ------- ---------- ------- -- -------- ----<br>---- --- ------ ----- ------ -- ---- --- House -- - -------<br>-------- -- --- --- -- ----- ----------- ----- -----------<br>---- --- ---------- --- ---- --- -- ----------,219261.39999961853,219260.39999961853,219010.985,219022,219027.669,219277.963,,33,House
screen,html.Screen,2_3_1_0_1_34,2022-05-12T15:02:13.035Z,,,,,,,,,,,,,,,,,51,,,,,,,,,,,,,,343.0370000000112,,response,,,,13,E,,,,,,Space,keypress(Space),,,,silence,,,,-------- -------- --- --- ---- --- --- ------ -- --------<br>---- --------- --- ------- ------------ ---------- ---------<br>--- ---------- ------- ---------- ------- -- -------- ----<br>---- --- ------ ----- ------ -- ---- --- ----- in - -------<br>-------- -- --- --- -- ----- ----------- ----- -----------<br>---- --- ---------- --- ---- --- -- ----------,219621.7999997139,219621,219261.279,219261.5,219277.963,219628.358,,34,in
screen,html.Screen,2_3_1_0_1_35,2022-05-12T15:02:13.311Z,,,,,,,,,,,,,,,,,51,,,,,,,,,,,,,,268.64199999999255,,response,,,,13,E,,,,,,Space,keypress(Space),,,,silence,,,,-------- -------- --- --- ---- --- --- ------ -- --------<br>---- --------- --- ------- ------------ ---------- ---------<br>--- ---------- ------- ---------- ------- -- -------- ----<br>---- --- ------ ----- ------ -- ---- --- ----- -- a -------<br>-------- -- --- --- -- ----- ----------- ----- -----------<br>---- --- ---------- --- ---- --- -- ----------,219897.7999997139,219897,219611.675,219622,219628.358,219912.04,,35,a
screen,html.Screen,2_3_1_0_1_36,2022-05-12T15:02:13.791Z,,,,,,,,,,,,,,,,,51,,,,,,,,,,,,,,464.95999999999185,,response,,,,13,E,,,,,,Space,keypress(Space),,,,silence,,,,-------- -------- --- --- ---- --- --- ------ -- --------<br>---- --------- --- ------- ------------ ---------- ---------<br>--- ---------- ------- ---------- ------- -- -------- ----<br>---- --- ------ ----- ------ -- ---- --- ----- -- - massive<br>-------- -- --- --- -- ----- ----------- ----- -----------<br>---- --- ---------- --- ---- --- -- ----------,220378,220377,219895.356,219897.89999961853,219912.04,220379.18,,36,massive
screen,html.Screen,2_3_1_0_1_37,2022-05-12T15:02:14.063Z,,,,,,,,,,,,,,,,,51,,,,,,,,,,,,,,269.5199998092721,,response,,,,13,E,,,,,,Space,keypress(Space),,,,silence,,,,-------- -------- --- --- ---- --- --- ------ -- --------<br>---- --------- --- ------- ------------ ---------- ---------<br>--- ---------- ------- ---------- ------- -- -------- ----<br>---- --- ------ ----- ------ -- ---- --- ----- -- - -------<br>overhaul -- --- --- -- ----- ----------- ----- -----------<br>---- --- ---------- --- ---- --- -- ----------,220649.69999980927,220648.69999980927,220362.498,220378,220379.18,220662.828,,37,overhaul
screen,html.Screen,2_3_1_0_1_38,2022-05-12T15:02:14.307Z,,,,,,,,,,,,,,,,,51,,,,,,,,,,,,,,229.57199961852166,,response,,,,13,E,,,,,,Space,keypress(Space),,,,silence,,,,-------- -------- --- --- ---- --- --- ------ -- --------<br>---- --------- --- ------- ------------ ---------- ---------<br>--- ---------- ------- ---------- ------- -- -------- ----<br>---- --- ------ ----- ------ -- ---- --- ----- -- - -------<br>-------- of --- --- -- ----- ----------- ----- -----------<br>---- --- ---------- --- ---- --- -- ----------,220893.89999961853,220892.39999961853,220646.15,220649.89999961853,220662.828,220896.475,,38,of
screen,html.Screen,2_3_1_0_1_39,2022-05-12T15:02:14.606Z,,,,,,,,,,,,,,,,,51,,,,,,,,,,,,,,295.92499961852445,,response,,,,13,E,,,,,,Space,keypress(Space),,,,silence,,,,-------- -------- --- --- ---- --- --- ------ -- --------<br>---- --------- --- ------- ------------ ---------- ---------<br>--- ---------- ------- ---------- ------- -- -------- ----<br>---- --- ------ ----- ------ -- ---- --- ----- -- - -------<br>-------- -- the --- -- ----- ----------- ----- -----------<br>---- --- ---------- --- ---- --- -- ----------,221193.19999980927,221192.39999961853,220879.793,220894,220896.475,221196.837,,39,the
