sender,sender_type,sender_id,timestamp,meta,,Blues,Classical,Country,Dance,Electronic,Folk,Gospel,Hip-Hop,Jazz,Latin,Musical/Film,New-age,Pop,Prolific_id,Provo_ID,R&B,Rap,Reggae,Religious,Rock,Soul,Swing,Traditional,age,artist_name,correct,correctResponse,distraction,duration,education,ended_on,familiarity,gender,headphone_check_performance,item,list,music_frequency,offensiveness,pleasantness,position_correct,preference,response,response_action,snippet_file,song_name,song_rating,sound,stimulus_1,stimulus_2,stimulus_3,text,time_commit,time_end,time_render,time_run,time_show,time_switch,url,word,word_ID
Prolific ID,html.Form,0,2022-05-02T11:16:33.639Z,"{""labjs_version"":""20.2.2"",""labjs_build"":{""flavor"":""production"",""commit"":""a25486e0c714a0ae2ce03ff94b7bb6896854dcfa""},""location"":""https://run.pavlovia.org/mvasilev/prolific3_music_f/"",""userAgent"":""Mozilla/5.0 (Windows NT 10.0; Win64; x64; rv:99.0) Gecko/20100101 Firefox/99.0"",""platform"":""Win32"",""language"":""en-GB"",""locale"":""en-GB"",""timeZone"":""Europe/London"",""timezoneOffset"":-60,""screen_width"":1600,""screen_height"":900,""scroll_width"":1370,""scroll_height"":696,""window_innerWidth"":1370,""window_innerHeight"":744,""devicePixelRatio"":1.2}",,,,,,,,,,,,,,,5f76884e077186131e17d851,,,,,,,,,,,,,,,4556.419999999998,,form submission,,,,,,,,,,,,,,,,,,,,,82496,82493,77882.04,77880,77936.58,82516.62,{},,
Introduction,html.Screen,1_0,2022-05-02T11:16:39.765Z,,,,,,,,,,,,,,,,,,,,,,,,,,,,,,,6093.380000000005,,response,,,,,,,,,,,continue,click button,,,,,,,,,88624,88610,82471.94,82498,82516.62,88645.56,,,
Volume calibration,html.Screen,1_1,2022-05-02T11:16:52.881Z,,,,,,,,,,,,,,,,,,,,,,,,,,,,,,,13089.440000000002,,response,,,,,,,,,,,continue,click button,,,,,,,,,101739,101735,88622.18,88624,88645.56,101752.8,,,
Task instructions,html.Screen,1_2,2022-05-02T11:17:03.883Z,,,,,,,,,,,,,,,,,,,,,,,,,,,,,,,10982.199999999997,,response,,,,,,,,,,,continue,click button,,,,,,,,,112740,112735,101738.7,101740,101752.8,112744.9,,,
Sounds,html.Screen,1_3_0_0,2022-05-02T11:17:08.120Z,,,,,,,,,,,,,,,,,,,,,,,,,,,,,,,4246.940000000002,,timeout,,,,,,,,,1,,,,,,,,S,O,I,,116978,116975.18,112740.1,112741,112744.9,116991.84,,,
Judgement,html.Screen,1_3_0_1,2022-05-02T11:17:09.497Z,,,,,,,,,,,,,,,,,,,,,,,,,,,,true,1,,1352.1600000000035,,response,,,,,,,,,1,,1,click #choice-1,,,,,S,O,I,,118354,118344,116975.18,116979,116991.84,118357.52,,,
Trial,flow.Sequence,1_3_0,2022-05-02T11:17:09.497Z,,,,,,,,,,,,,,,,,,,,,,,,,,,,,,,5599.100000000006,,completion,,,,,,,,,1,,,,,,,,S,O,I,,118354,118344,112740.1,112741,112744.9,118357.52,,,
Sounds,html.Screen,1_3_1_0,2022-05-02T11:17:13.733Z,,,,,,,,,,,,,,,,,,,,,,,,,,,,,,,4246.959999999992,,timeout,,,,,,,,,1,,,,,,,,S,I,O,,122590,122587.82,118352.92,118355,118357.52,122604.48,,,
Judgement,html.Screen,1_3_1_1,2022-05-02T11:17:14.270Z,,,,,,,,,,,,,,,,,,,,,,,,,,,,true,1,,505.5200000000041,,response,,,,,,,,,1,,1,click #choice-1,,,,,S,I,O,,123127,123110,122587.82,122591,122604.48,123137.42,,,
Trial,flow.Sequence,1_3_1,2022-05-02T11:17:14.270Z,,,,,,,,,,,,,,,,,,,,,,,,,,,,,,,4752.479999999996,,completion,,,,,,,,,1,,,,,,,,S,I,O,,123128,123110,118352.92,118354,118357.52,123137.42,,,
Sounds,html.Screen,1_3_2_0,2022-05-02T11:17:18.513Z,,,,,,,,,,,,,,,,,,,,,,,,,,,,,,,4246.960000000006,,timeout,,,,,,,,,2,,,,,,,,O,S,I,,127370,127367.72,123126.98,123128,123137.42,127384.38,,,
Judgement,html.Screen,1_3_2_1,2022-05-02T11:17:19.110Z,,,,,,,,,,,,,,,,,,,,,,,,,,,,true,2,,569.6199999999953,,response,,,,,,,,,2,,2,click #choice-2,,,,,O,S,I,,127967,127954,127367.72,127370,127384.38,127967.28,,,
Trial,flow.Sequence,1_3_2,2022-05-02T11:17:19.110Z,,,,,,,,,,,,,,,,,,,,,,,,,,,,,,,4816.580000000002,,completion,,,,,,,,,2,,,,,,,,O,S,I,,127967,127954,123126.98,123128,123137.42,127967.28,,,
Sounds,html.Screen,1_3_3_0,2022-05-02T11:17:23.342Z,,,,,,,,,,,,,,,,,,,,,,,,,,,,,,,4246.959999999992,,timeout,,,,,,,,,3,,,,,,,,I,O,S,,132200,132197.58,127966.54,127969,127967.28,132214.24,,,
Judgement,html.Screen,1_3_3_1,2022-05-02T11:17:23.785Z,,,,,,,,,,,,,,,,,,,,,,,,,,,,true,3,,410.7600000000093,,response,,,,,,,,,3,,3,click #choice-3,,,,,I,O,S,,132642,132625,132197.58,132201,132214.24,132647.26,,,
Trial,flow.Sequence,1_3_3,2022-05-02T11:17:23.785Z,,,,,,,,,,,,,,,,,,,,,,,,,,,,,,,4657.720000000001,,completion,,,,,,,,,3,,,,,,,,I,O,S,,132642,132625,127966.54,127969,127967.28,132647.26,,,
Sounds,html.Screen,1_3_4_0,2022-05-02T11:17:28.022Z,,,,,,,,,,,,,,,,,,,,,,,,,,,,,,,4246.940000000002,,timeout,,,,,,,,,3,,,,,,,,O,I,S,,136879,136877.54,132641.3,132642,132647.26,136894.2,,,
Judgement,html.Screen,1_3_4_1,2022-05-02T11:17:28.354Z,,,,,,,,,,,,,,,,,,,,,,,,,,,,true,3,,308.79999999998836,,response,,,,,,,,,3,,3,click #choice-3,,,,,O,I,S,,137212,137203,136877.54,136880,136894.2,137227.3,,,
Trial,flow.Sequence,1_3_4,2022-05-02T11:17:28.355Z,,,,,,,,,,,,,,,,,,,,,,,,,,,,,,,4555.739999999991,,completion,,,,,,,,,3,,,,,,,,O,I,S,,137212,137203,132641.3,132642,132647.26,137227.3,,,
Sounds,html.Screen,1_3_5_0,2022-05-02T11:17:32.602Z,,,,,,,,,,,,,,,,,,,,,,,,,,,,,,,4246.940000000002,,timeout,,,,,,,,,2,,,,,,,,I,S,O,,141459,141457.58,137211.72,137213,137227.3,141474.24,,,
Judgement,html.Screen,1_3_5_1,2022-05-02T11:17:33.068Z,,,,,,,,,,,,,,,,,,,,,,,,,,,,true,2,,448.7600000000093,,response,,,,,,,,,2,,2,click #choice-2,,,,,I,S,O,,141926,141923,141457.58,141460,141474.24,141940.58,,,
Trial,flow.Sequence,1_3_5,2022-05-02T11:17:33.068Z,,,,,,,,,,,,,,,,,,,,,,,,,,,,,,,4695.700000000012,,completion,,,,,,,,,2,,,,,,,,I,S,O,,141926,141923,137211.72,137212,137227.3,141940.58,,,
Task,flow.Loop,1_3,2022-05-02T11:17:33.070Z,,,,,,,,,,,,,,,,,,,,,,,,,,,,,,,29178.100000000006,,completion,,,1,,,,,,,,,,,,,,,,,,141927,141923,112740.1,112741,112744.9,141940.58,,,
Trap,html.Screen,1_4,2022-05-02T11:17:33.079Z,,,,,,,,,,,,,,,,,,,,,,,,,,,,,,,NaN,,skipped,,,,,,,,,,,,,,,,,,,,,141937,141923,,141937,,141940.58,,,
Thanks,html.Screen,1_5,2022-05-02T11:17:37.294Z,,,,,,,,,,,,,,,,,,,,,,,,,,,,,,,4200.420000000013,,response,,,,,,,,,,,continue,click button,,,,,,,,,146151,146141,141924.88,141937,141940.58,149801.58,,,
Headphone screening,flow.Sequence,1,2022-05-02T11:17:37.294Z,,,,,,,,,,,,,,,,,,,,,,,,,,,,,,,63624.380000000005,,completion,,,,,,,,,,,,,,,,,,,,,146151,146141,82471.94,82498,82516.62,149801.58,,,
Instructions,html.Page,2_0,2022-05-02T11:18:01.598Z,,,,,,,,,,,,,,,,,,,,,,,,,,,,,,,20652.420000000013,,form submission,,,,,,,,,,,,,,,,,,,,,170456,170454,149792,149796,149801.58,170470.06,,,
Holding screen,html.Screen,2_1_0_0,2022-05-02T11:18:11.590Z,,,,,,,,,,,,,,,,,,,,,,,,,,,,,,,9993.119999999995,,timeout,,,,,,,,,,,,,,,,,,,,,180448,180446.54,170444.4,170456,170470.06,180463.18,,,
screen,html.Screen,2_1_0_1_0,2022-05-02T11:18:12.619Z,,,,,,,,,,,,,,,,,53,,,,,,,,,,,,,,989.820000000007,,response,,,,99,,,,,,,Space,keypress(Space),,,,,,,,When -- ----- -- ------ - ------- --- ----------<br>------------- ------ ------ ---- ---- ------- ----- -- ----<br>-------- ------- -- ---------- --- - --- ----- ----- ----<br>---- --- --- ----- --- ---- ---- ------- ----- ---- -------<br>--- --- -- ----- -- --- ---- -- --- ---- -- ------ ------<br>--- ----- -- ----,181476,181453,180446.54,180449,180463.18,181479.12,,0,When
screen,html.Screen,2_1_0_1_1,2022-05-02T11:18:13.082Z,,,,,,,,,,,,,,,,,53,,,,,,,,,,,,,,443.88000000000466,,response,,,,99,,,,,,,Space,keypress(Space),,,,,,,,---- it ----- -- ------ - ------- --- ----------<br>------------- ------ ------ ---- ---- ------- ----- -- ----<br>-------- ------- -- ---------- --- - --- ----- ----- ----<br>---- --- --- ----- --- ---- ---- ------- ----- ---- -------<br>--- --- -- ----- -- --- ---- -- --- ---- -- ------ ------<br>--- ----- -- ----,181940,181923,181476.78,181477,181479.12,181962.12,,1,it
screen,html.Screen,2_1_0_1_2,2022-05-02T11:18:13.502Z,,,,,,,,,,,,,,,,,53,,,,,,,,,,,,,,381.88000000000466,,response,,,,99,,,,,,,Space,keypress(Space),,,,,,,,---- -- comes -- ------ - ------- --- ----------<br>------------- ------ ------ ---- ---- ------- ----- -- ----<br>-------- ------- -- ---------- --- - --- ----- ----- ----<br>---- --- --- ----- --- ---- ---- ------- ----- ---- -------<br>--- --- -- ----- -- --- ---- -- --- ---- -- ------ ------<br>--- ----- -- ----,182359,182344,181945.22,181946,181962.12,182361.82,,2,comes
screen,html.Screen,2_1_0_1_3,2022-05-02T11:18:13.940Z,,,,,,,,,,,,,,,,,53,,,,,,,,,,,,,,421.179999999993,,response,,,,99,,,,,,,Space,keypress(Space),,,,,,,,---- -- ----- to ------ - ------- --- ----------<br>------------- ------ ------ ---- ---- ------- ----- -- ----<br>-------- ------- -- ---------- --- - --- ----- ----- ----<br>---- --- --- ----- --- ---- ---- ------- ----- ---- -------<br>--- --- -- ----- -- --- ---- -- --- ---- -- ------ ------<br>--- ----- -- ----,182798,182783,182361.16,182360,182361.82,182811.5,,3,to
screen,html.Screen,2_1_0_1_4,2022-05-02T11:18:14.393Z,,,,,,,,,,,,,,,,,53,,,,,,,,,,,,,,423.5,,response,,,,99,,,,,,,Space,keypress(Space),,,,,,,,---- -- ----- -- having - ------- --- ----------<br>------------- ------ ------ ---- ---- ------- ----- -- ----<br>-------- ------- -- ---------- --- - --- ----- ----- ----<br>---- --- --- ----- --- ---- ---- ------- ----- ---- -------<br>--- --- -- ----- -- --- ---- -- --- ---- -- ------ ------<br>--- ----- -- ----,183251,183235,182798.06,182798,182811.5,183261.18,,4,having
screen,html.Screen,2_1_0_1_5,2022-05-02T11:18:14.967Z,,,,,,,,,,,,,,,,,53,,,,,,,,,,,,,,551.820000000007,,response,,,,99,,,,,,,Space,keypress(Space),,,,,,,,---- -- ----- -- ------ a ------- --- ----------<br>------------- ------ ------ ---- ---- ------- ----- -- ----<br>-------- ------- -- ---------- --- - --- ----- ----- ----<br>---- --- --- ----- --- ---- ---- ------- ----- ---- -------<br>--- --- -- ----- -- --- ---- -- --- ---- -- ------ ------<br>--- ----- -- ----,183824,183813,183250.8,183251,183261.18,183827.44,,5,a
screen,html.Screen,2_1_0_1_6,2022-05-02T11:18:15.563Z,,,,,,,,,,,,,,,,,53,,,,,,,,,,,,,,579.5599999999977,,response,,,,99,,,,,,,Space,keypress(Space),,,,,,,,---- -- ----- -- ------ - lasting --- ----------<br>------------- ------ ------ ---- ---- ------- ----- -- ----<br>-------- ------- -- ---------- --- - --- ----- ----- ----<br>---- --- --- ----- --- ---- ---- ------- ----- ---- -------<br>--- --- -- ----- -- --- ---- -- --- ---- -- ------ ------<br>--- ----- -- ----,184421,184407,183824.84,183824,183827.44,184427,,6,lasting
screen,html.Screen,2_1_0_1_7,2022-05-02T11:18:15.962Z,,,,,,,,,,,,,,,,,53,,,,,,,,,,,,,,386,,response,,,,99,,,,,,,Space,keypress(Space),,,,,,,,---- -- ----- -- ------ - ------- and ----------<br>------------- ------ ------ ---- ---- ------- ----- -- ----<br>-------- ------- -- ---------- --- - --- ----- ----- ----<br>---- --- --- ----- --- ---- ---- ------- ----- ---- -------<br>--- --- -- ----- -- --- ---- -- --- ---- -- ------ ------<br>--- ----- -- ----,184820,184813,184421.3,184422,184427,184826.72,,7,and
screen,html.Screen,2_1_0_1_8,2022-05-02T11:18:16.339Z,,,,,,,,,,,,,,,,,53,,,,,,,,,,,,,,361.27999999999884,,response,,,,99,,,,,,,Space,keypress(Space),,,,,,,,---- -- ----- -- ------ - ------- --- fulfilling<br>------------- ------ ------ ---- ---- ------- ----- -- ----<br>-------- ------- -- ---------- --- - --- ----- ----- ----<br>---- --- --- ----- --- ---- ---- ------- ----- ---- -------<br>--- --- -- ----- -- --- ---- -- --- ---- -- ------ ------<br>--- ----- -- ----,185196,185188,184820.28,184820,184826.72,185209.78,,8,fulfilling
screen,html.Screen,2_1_0_1_9,2022-05-02T11:18:16.724Z,,,,,,,,,,,,,,,,,53,,,,,,,,,,,,,,353.22000000000116,,response,,,,99,,,,,,,Space,keypress(Space),,,,,,,,"---- -- ----- -- ------ - ------- --- ----------<br>relationship, ------ ------ ---- ---- ------- ----- -- ----<br>-------- ------- -- ---------- --- - --- ----- ----- ----<br>---- --- --- ----- --- ---- ---- ------- ----- ---- -------<br>--- --- -- ----- -- --- ---- -- --- ---- -- ------ ------<br>--- ----- -- ----",185582,185563,185196.62,185196,185209.78,185592.84,,9,"relationship,"
screen,html.Screen,2_1_0_1_10,2022-05-02T11:18:17.217Z,,,,,,,,,,,,,,,,,53,,,,,,,,,,,,,,471.1600000000035,,response,,,,99,,,,,,,Space,keypress(Space),,,,,,,,---- -- ----- -- ------ - ------- --- ----------<br>------------- common ------ ---- ---- ------- ----- -- ----<br>-------- ------- -- ---------- --- - --- ----- ----- ----<br>---- --- --- ----- --- ---- ---- ------- ----- ---- -------<br>--- --- -- ----- -- --- ---- -- --- ---- -- ------ ------<br>--- ----- -- ----,186074,186064,185582.54,185583,185592.84,186075.82,,10,common
screen,html.Screen,2_1_0_1_11,2022-05-02T11:18:17.626Z,,,,,,,,,,,,,,,,,53,,,,,,,,,,,,,,393.179999999993,,response,,,,99,,,,,,,Space,keypress(Space),,,,,,,,---- -- ----- -- ------ - ------- --- ----------<br>------------- ------ wisdom ---- ---- ------- ----- -- ----<br>-------- ------- -- ---------- --- - --- ----- ----- ----<br>---- --- --- ----- --- ---- ---- ------- ----- ---- -------<br>--- --- -- ----- -- --- ---- -- --- ---- -- ------ ------<br>--- ----- -- ----,186483,186469,186075.3,186075,186075.82,186492.18,,11,wisdom
screen,html.Screen,2_1_0_1_12,2022-05-02T11:18:18.029Z,,,,,,,,,,,,,,,,,53,,,,,,,,,,,,,,382.820000000007,,response,,,,99,,,,,,,Space,keypress(Space),,,,,,,,---- -- ----- -- ------ - ------- --- ----------<br>------------- ------ ------ says ---- ------- ----- -- ----<br>-------- ------- -- ---------- --- - --- ----- ----- ----<br>---- --- --- ----- --- ---- ---- ------- ----- ---- -------<br>--- --- -- ----- -- --- ---- -- --- ---- -- ------ ------<br>--- ----- -- ----,186887,186875,186483.76,186484,186492.18,186891.9,,12,says
screen,html.Screen,2_1_0_1_13,2022-05-02T11:18:18.448Z,,,,,,,,,,,,,,,,,53,,,,,,,,,,,,,,406.1000000000058,,response,,,,99,,,,,,,Space,keypress(Space),,,,,,,,---- -- ----- -- ------ - ------- --- ----------<br>------------- ------ ------ ---- that ------- ----- -- ----<br>-------- ------- -- ---------- --- - --- ----- ----- ----<br>---- --- --- ----- --- ---- ---- ------- ----- ---- -------<br>--- --- -- ----- -- --- ---- -- --- ---- -- ------ ------<br>--- ----- -- ----,187305,187298,186887.42,186887,186891.9,187308.26,,13,that
screen,html.Screen,2_1_0_1_14,2022-05-02T11:18:18.802Z,,,,,,,,,,,,,,,,,53,,,,,,,,,,,,,,332.7399999999907,,response,,,,99,,,,,,,Space,keypress(Space),,,,,,,,---- -- ----- -- ------ - ------- --- ----------<br>------------- ------ ------ ---- ---- feeling ----- -- ----<br>-------- ------- -- ---------- --- - --- ----- ----- ----<br>---- --- --- ----- --- ---- ---- ------- ----- ---- -------<br>--- --- -- ----- -- --- ---- -- --- ---- -- ------ ------<br>--- ----- -- ----,187659,187641,187306.54,187307,187308.26,187674.68,,14,feeling
screen,html.Screen,2_1_0_1_15,2022-05-02T11:18:19.166Z,,,,,,,,,,,,,,,,,53,,,,,,,,,,,,,,341.320000000007,,response,,,,99,,,,,,,Space,keypress(Space),,,,,,,,---- -- ----- -- ------ - ------- --- ----------<br>------------- ------ ------ ---- ---- ------- close -- ----<br>-------- ------- -- ---------- --- - --- ----- ----- ----<br>---- --- --- ----- --- ---- ---- ------- ----- ---- -------<br>--- --- -- ----- -- --- ---- -- --- ---- -- ------ ------<br>--- ----- -- ----,188024,188016,187660.24,187660,187674.68,188041.08,,15,close
screen,html.Screen,2_1_0_1_16,2022-05-02T11:18:19.490Z,,,,,,,,,,,,,,,,,53,,,,,,,,,,,,,,286.9200000000128,,response,,,,99,,,,,,,Space,keypress(Space),,,,,,,,---- -- ----- -- ------ - ------- --- ----------<br>------------- ------ ------ ---- ---- ------- ----- to ----<br>-------- ------- -- ---------- --- - --- ----- ----- ----<br>---- --- --- ----- --- ---- ---- ------- ----- ---- -------<br>--- --- -- ----- -- --- ---- -- --- ---- -- ------ ------<br>--- ----- -- ----,188348,188328,188024.52,188024,188041.08,188357.52,,16,to
screen,html.Screen,2_1_0_1_17,2022-05-02T11:18:19.942Z,,,,,,,,,,,,,,,,,53,,,,,,,,,,,,,,424.4800000000105,,response,,,,99,,,,,,,Space,keypress(Space),,,,,,,,---- -- ----- -- ------ - ------- --- ----------<br>------------- ------ ------ ---- ---- ------- ----- -- your<br>-------- ------- -- ---------- --- - --- ----- ----- ----<br>---- --- --- ----- --- ---- ---- ------- ----- ---- -------<br>--- --- -- ----- -- --- ---- -- --- ---- -- ------ ------<br>--- ----- -- ----,188800,188782,188348.34,188348,188357.52,188807.18,,17,your
screen,html.Screen,2_1_0_1_18,2022-05-02T11:18:20.466Z,,,,,,,,,,,,,,,,,53,,,,,,,,,,,,,,505.820000000007,,response,,,,99,,,,,,,Space,keypress(Space),,,,,,,,---- -- ----- -- ------ - ------- --- ----------<br>------------- ------ ------ ---- ---- ------- ----- -- ----<br>romantic ------- -- ---------- --- - --- ----- ----- ----<br>---- --- --- ----- --- ---- ---- ------- ----- ---- -------<br>--- --- -- ----- -- --- ---- -- --- ---- -- ------ ------<br>--- ----- -- ----,189324,189313,188800.26,188800,188807.18,189340.14,,18,romantic
screen,html.Screen,2_1_0_1_19,2022-05-02T11:18:20.875Z,,,,,,,,,,,,,,,,,53,,,,,,,,,,,,,,379.85999999998603,,response,,,,99,,,,,,,Space,keypress(Space),,,,,,,,---- -- ----- -- ------ - ------- --- ----------<br>------------- ------ ------ ---- ---- ------- ----- -- ----<br>-------- partner -- ---------- --- - --- ----- ----- ----<br>---- --- --- ----- --- ---- ---- ------- ----- ---- -------<br>--- --- -- ----- -- --- ---- -- --- ---- -- ------ ------<br>--- ----- -- ----,189733,189720,189324.7,189324,189340.14,189739.86,,19,partner
screen,html.Screen,2_1_0_1_20,2022-05-02T11:18:21.342Z,,,,,,,,,,,,,,,,,53,,,,,,,,,,,,,,449.14000000001397,,response,,,,99,,,,,,,Space,keypress(Space),,,,,,,,---- -- ----- -- ------ - ------- --- ----------<br>------------- ------ ------ ---- ---- ------- ----- -- ----<br>-------- ------- is ---------- --- - --- ----- ----- ----<br>---- --- --- ----- --- ---- ---- ------- ----- ---- -------<br>--- --- -- ----- -- --- ---- -- --- ---- -- ------ ------<br>--- ----- -- ----,190200,190189,189733.3,189733,189739.86,190206.18,,20,is
screen,html.Screen,2_1_0_1_21,2022-05-02T11:18:22.056Z,,,,,,,,,,,,,,,,,53,,,,,,,,,,,,,,701.820000000007,,response,,,,99,,,,,,,Space,keypress(Space),,,,,,,,---- -- ----- -- ------ - ------- --- ----------<br>------------- ------ ------ ---- ---- ------- ----- -- ----<br>-------- ------- -- paramount. --- - --- ----- ----- ----<br>---- --- --- ----- --- ---- ---- ------- ----- ---- -------<br>--- --- -- ----- -- --- ---- -- --- ---- -- ------ ------<br>--- ----- -- ----,190913,190908,190200.36,190201,190206.18,190922.34,,21,paramount.
screen,html.Screen,2_1_0_1_22,2022-05-02T11:18:22.489Z,,,,,,,,,,,,,,,,,53,,,,,,,,,,,,,,406.6600000000035,,response,,,,99,,,,,,,Space,keypress(Space),,,,,,,,---- -- ----- -- ------ - ------- --- ----------<br>------------- ------ ------ ---- ---- ------- ----- -- ----<br>-------- ------- -- ---------- But - --- ----- ----- ----<br>---- --- --- ----- --- ---- ---- ------- ----- ---- -------<br>--- --- -- ----- -- --- ---- -- --- ---- -- ------ ------<br>--- ----- -- ----,191347,191329,190913.96,190914,190922.34,191355.36,,22,But
screen,html.Screen,2_1_0_1_23,2022-05-02T11:18:22.946Z,,,,,,,,,,,,,,,,,53,,,,,,,,,,,,,,426.64000000001397,,response,,,,99,,,,,,,Space,keypress(Space),,,,,,,,---- -- ----- -- ------ - ------- --- ----------<br>------------- ------ ------ ---- ---- ------- ----- -- ----<br>-------- ------- -- ---------- --- a --- ----- ----- ----<br>---- --- --- ----- --- ---- ---- ------- ----- ---- -------<br>--- --- -- ----- -- --- ---- -- --- ---- -- ------ ------<br>--- ----- -- ----,191804,191782,191347.04,191347,191355.36,191805.04,,23,a
screen,html.Screen,2_1_0_1_24,2022-05-02T11:18:23.345Z,,,,,,,,,,,,,,,,,53,,,,,,,,,,,,,,383.95999999999185,,response,,,,99,,,,,,,Space,keypress(Space),,,,,,,,---- -- ----- -- ------ - ------- --- ----------<br>------------- ------ ------ ---- ---- ------- ----- -- ----<br>-------- ------- -- ---------- --- - new ----- ----- ----<br>---- --- --- ----- --- ---- ---- ------- ----- ---- -------<br>--- --- -- ----- -- --- ---- -- --- ---- -- ------ ------<br>--- ----- -- ----,192202,192189,191804.52,191805,191805.04,192204.74,,24,new
screen,html.Screen,2_1_0_1_25,2022-05-02T11:18:23.810Z,,,,,,,,,,,,,,,,,53,,,,,,,,,,,,,,453.2600000000093,,response,,,,99,,,,,,,Space,keypress(Space),,,,,,,,---- -- ----- -- ------ - ------- --- ----------<br>------------- ------ ------ ---- ---- ------- ----- -- ----<br>-------- ------- -- ---------- --- - --- study ----- ----<br>---- --- --- ----- --- ---- ---- ------- ----- ---- -------<br>--- --- -- ----- -- --- ---- -- --- ---- -- ------ ------<br>--- ----- -- ----,192668,192658,192203.36,192203,192204.74,192671.08,,25,study
screen,html.Screen,2_1_0_1_26,2022-05-02T11:18:24.242Z,,,,,,,,,,,,,,,,,53,,,,,,,,,,,,,,422.9200000000128,,response,,,,99,,,,,,,Space,keypress(Space),,,,,,,,---- -- ----- -- ------ - ------- --- ----------<br>------------- ------ ------ ---- ---- ------- ----- -- ----<br>-------- ------- -- ---------- --- - --- ----- finds ----<br>---- --- --- ----- --- ---- ---- ------- ----- ---- -------<br>--- --- -- ----- -- --- ---- -- --- ---- -- ------ ------<br>--- ----- -- ----,193100,193094,192668.38,192668,192671.08,193104.1,,26,finds
screen,html.Screen,2_1_0_1_27,2022-05-02T11:18:24.602Z,,,,,,,,,,,,,,,,,53,,,,,,,,,,,,,,348.8999999999942,,response,,,,99,,,,,,,Space,keypress(Space),,,,,,,,---- -- ----- -- ------ - ------- --- ----------<br>------------- ------ ------ ---- ---- ------- ----- -- ----<br>-------- ------- -- ---------- --- - --- ----- ----- that<br>---- --- --- ----- --- ---- ---- ------- ----- ---- -------<br>--- --- -- ----- -- --- ---- -- --- ---- -- ------ ------<br>--- ----- -- ----,193460,193453,193099.94,193100,193104.1,193470.5,,27,that
screen,html.Screen,2_1_0_1_28,2022-05-02T11:18:24.989Z,,,,,,,,,,,,,,,,,53,,,,,,,,,,,,,,357.5,,response,,,,99,,,,,,,Space,keypress(Space),,,,,,,,---- -- ----- -- ------ - ------- --- ----------<br>------------- ------ ------ ---- ---- ------- ----- -- ----<br>-------- ------- -- ---------- --- - --- ----- ----- ----<br>it's --- --- ----- --- ---- ---- ------- ----- ---- -------<br>--- --- -- ----- -- --- ---- -- --- ---- -- ------ ------<br>--- ----- -- ----,193847,193828,193459.62,193460,193470.5,193853.56,,28,it's
screen,html.Screen,2_1_0_1_29,2022-05-02T11:18:25.397Z,,,,,,,,,,,,,,,,,53,,,,,,,,,,,,,,396.4400000000023,,response,,,,99,,,,,,,Space,keypress(Space),,,,,,,,---- -- ----- -- ------ - ------- --- ----------<br>------------- ------ ------ ---- ---- ------- ----- -- ----<br>-------- ------- -- ---------- --- - --- ----- ----- ----<br>---- not --- ----- --- ---- ---- ------- ----- ---- -------<br>--- --- -- ----- -- --- ---- -- --- ---- -- ------ ------<br>--- ----- -- ----,194255,194250,193847.44,193847,193853.56,194269.92,,29,not
screen,html.Screen,2_1_0_1_30,2022-05-02T11:18:25.742Z,,,,,,,,,,,,,,,,,53,,,,,,,,,,,,,,325.0799999999872,,response,,,,99,,,,,,,Space,keypress(Space),,,,,,,,---- -- ----- -- ------ - ------- --- ----------<br>------------- ------ ------ ---- ---- ------- ----- -- ----<br>-------- ------- -- ---------- --- - --- ----- ----- ----<br>---- --- how ----- --- ---- ---- ------- ----- ---- -------<br>--- --- -- ----- -- --- ---- -- --- ---- -- ------ ------<br>--- ----- -- ----,194600,194595,194255.46,194256,194269.92,194603.02,,30,how
screen,html.Screen,2_1_0_1_31,2022-05-02T11:18:26.111Z,,,,,,,,,,,,,,,,,53,,,,,,,,,,,,,,349.9800000000105,,response,,,,99,,,,,,,Space,keypress(Space),,,,,,,,---- -- ----- -- ------ - ------- --- ----------<br>------------- ------ ------ ---- ---- ------- ----- -- ----<br>-------- ------- -- ---------- --- - --- ----- ----- ----<br>---- --- --- close --- ---- ---- ------- ----- ---- -------<br>--- --- -- ----- -- --- ---- -- --- ---- -- ------ ------<br>--- ----- -- ----,194967,194953,194600,194600,194603.02,194969.42,,31,close
screen,html.Screen,2_1_0_1_32,2022-05-02T11:18:26.473Z,,,,,,,,,,,,,,,,,53,,,,,,,,,,,,,,344.5799999999872,,response,,,,99,,,,,,,Space,keypress(Space),,,,,,,,---- -- ----- -- ------ - ------- --- ----------<br>------------- ------ ------ ---- ---- ------- ----- -- ----<br>-------- ------- -- ---------- --- - --- ----- ----- ----<br>---- --- --- ----- you ---- ---- ------- ----- ---- -------<br>--- --- -- ----- -- --- ---- -- --- ---- -- ------ ------<br>--- ----- -- ----,195330,195314,194968.2,194968,194969.42,195335.82,,32,you
screen,html.Screen,2_1_0_1_33,2022-05-02T11:18:26.855Z,,,,,,,,,,,,,,,,,53,,,,,,,,,,,,,,367.179999999993,,response,,,,99,,,,,,,Space,keypress(Space),,,,,,,,---- -- ----- -- ------ - ------- --- ----------<br>------------- ------ ------ ---- ---- ------- ----- -- ----<br>-------- ------- -- ---------- --- - --- ----- ----- ----<br>---- --- --- ----- --- feel ---- ------- ----- ---- -------<br>--- --- -- ----- -- --- ---- -- --- ---- -- ------ ------<br>--- ----- -- ----,195713,195703,195331.42,195331,195335.82,195718.88,,33,feel
screen,html.Screen,2_1_0_1_34,2022-05-02T11:18:27.221Z,,,,,,,,,,,,,,,,,53,,,,,,,,,,,,,,345.11999999999534,,response,,,,99,,,,,,,Space,keypress(Space),,,,,,,,---- -- ----- -- ------ - ------- --- ----------<br>------------- ------ ------ ---- ---- ------- ----- -- ----<br>-------- ------- -- ---------- --- - --- ----- ----- ----<br>---- --- --- ----- --- ---- that ------- ----- ---- -------<br>--- --- -- ----- -- --- ---- -- --- ---- -- ------ ------<br>--- ----- -- ----,196079,196064,195713.26,195713,195718.88,196085.3,,34,that
screen,html.Screen,2_1_0_1_35,2022-05-02T11:18:27.564Z,,,,,,,,,,,,,,,,,53,,,,,,,,,,,,,,322.70000000001164,,response,,,,99,,,,,,,Space,keypress(Space),,,,,,,,---- -- ----- -- ------ - ------- --- ----------<br>------------- ------ ------ ---- ---- ------- ----- -- ----<br>-------- ------- -- ---------- --- - --- ----- ----- ----<br>---- --- --- ----- --- ---- ---- matters ----- ---- -------<br>--- --- -- ----- -- --- ---- -- --- ---- -- ------ ------<br>--- ----- -- ----,196421,196408,196079.72,196080,196085.3,196435.04,,35,matters
screen,html.Screen,2_1_0_1_36,2022-05-02T11:18:27.993Z,,,,,,,,,,,,,,,,,53,,,,,,,,,,,,,,408.95999999999185,,response,,,,99,,,,,,,Space,keypress(Space),,,,,,,,"---- -- ----- -- ------ - ------- --- ----------<br>------------- ------ ------ ---- ---- ------- ----- -- ----<br>-------- ------- -- ---------- --- - --- ----- ----- ----<br>---- --- --- ----- --- ---- ---- ------- most, ---- -------<br>--- --- -- ----- -- --- ---- -- --- ---- -- ------ ------<br>--- ----- -- ----",196851,196844,196422.18,196422,196435.04,196851.4,,36,"most,"
screen,html.Screen,2_1_0_1_37,2022-05-02T11:18:28.451Z,,,,,,,,,,,,,,,,,53,,,,,,,,,,,,,,445.6000000000058,,response,,,,99,,,,,,,Space,keypress(Space),,,,,,,,---- -- ----- -- ------ - ------- --- ----------<br>------------- ------ ------ ---- ---- ------- ----- -- ----<br>-------- ------- -- ---------- --- - --- ----- ----- ----<br>---- --- --- ----- --- ---- ---- ------- ----- it's -------<br>--- --- -- ----- -- --- ---- -- --- ---- -- ------ ------<br>--- ----- -- ----,197308,197297,196850.84,196851,196851.4,197317.74,,37,it's
screen,html.Screen,2_1_0_1_38,2022-05-02T11:18:29.044Z,,,,,,,,,,,,,,,,,53,,,,,,,,,,,,,,573.2600000000093,,response,,,,99,,,,,,,Space,keypress(Space),,,,,,,,---- -- ----- -- ------ - ------- --- ----------<br>------------- ------ ------ ---- ---- ------- ----- -- ----<br>-------- ------- -- ---------- --- - --- ----- ----- ----<br>---- --- --- ----- --- ---- ---- ------- ----- ---- whether<br>--- --- -- ----- -- --- ---- -- --- ---- -- ------ ------<br>--- ----- -- ----,197902,197891,197309.08,197309,197317.74,197917.3,,38,whether
screen,html.Screen,2_1_0_1_39,2022-05-02T11:18:29.406Z,,,,,,,,,,,,,,,,,53,,,,,,,,,,,,,,333.70000000001164,,response,,,,99,,,,,,,Space,keypress(Space),,,,,,,,---- -- ----- -- ------ - ------- --- ----------<br>------------- ------ ------ ---- ---- ------- ----- -- ----<br>-------- ------- -- ---------- --- - --- ----- ----- ----<br>---- --- --- ----- --- ---- ---- ------- ----- ---- -------<br>you --- -- ----- -- --- ---- -- --- ---- -- ------ ------<br>--- ----- -- ----,198264,198251,197902.94,197903,197917.3,198267.06,,39,you
screen,html.Screen,2_1_0_1_40,2022-05-02T11:18:29.755Z,,,,,,,,,,,,,,,,,53,,,,,,,,,,,,,,342.9400000000023,,response,,,,99,,,,,,,Space,keypress(Space),,,,,,,,---- -- ----- -- ------ - ------- --- ----------<br>------------- ------ ------ ---- ---- ------- ----- -- ----<br>-------- ------- -- ---------- --- - --- ----- ----- ----<br>---- --- --- ----- --- ---- ---- ------- ----- ---- -------<br>--- are -- ----- -- --- ---- -- --- ---- -- ------ ------<br>--- ----- -- ----,198613,198610,198264.72,198265,198267.06,198616.8,,40,are
screen,html.Screen,2_1_0_1_41,2022-05-02T11:18:30.179Z,,,,,,,,,,,,,,,,,53,,,,,,,,,,,,,,415.20000000001164,,response,,,,99,,,,,,,Space,keypress(Space),,,,,,,,---- -- ----- -- ------ - ------- --- ----------<br>------------- ------ ------ ---- ---- ------- ----- -- ----<br>-------- ------- -- ---------- --- - --- ----- ----- ----<br>---- --- --- ----- --- ---- ---- ------- ----- ---- -------<br>--- --- as ----- -- --- ---- -- --- ---- -- ------ ------<br>--- ----- -- ----,199037,199032,198613.86,198613,198616.8,199049.82,,41,as
screen,html.Screen,2_1_0_1_42,2022-05-02T11:18:30.607Z,,,,,,,,,,,,,,,,,53,,,,,,,,,,,,,,404.179999999993,,response,,,,99,,,,,,,Space,keypress(Space),,,,,,,,---- -- ----- -- ------ - ------- --- ----------<br>------------- ------ ------ ---- ---- ------- ----- -- ----<br>-------- ------- -- ---------- --- - --- ----- ----- ----<br>---- --- --- ----- --- ---- ---- ------- ----- ---- -------<br>--- --- -- close -- --- ---- -- --- ---- -- ------ ------<br>--- ----- -- ----,199465,199454,199036.94,199037,199049.82,199466.2,,42,close
screen,html.Screen,2_1_0_1_43,2022-05-02T11:18:30.971Z,,,,,,,,,,,,,,,,,53,,,,,,,,,,,,,,346.79999999998836,,response,,,,99,,,,,,,Space,keypress(Space),,,,,,,,---- -- ----- -- ------ - ------- --- ----------<br>------------- ------ ------ ---- ---- ------- ----- -- ----<br>-------- ------- -- ---------- --- - --- ----- ----- ----<br>---- --- --- ----- --- ---- ---- ------- ----- ---- -------<br>--- --- -- ----- as --- ---- -- --- ---- -- ------ ------<br>--- ----- -- ----,199829,199813,199465.38,199466,199466.2,199832.6,,43,as
screen,html.Screen,2_1_0_1_44,2022-05-02T11:18:31.315Z,,,,,,,,,,,,,,,,,53,,,,,,,,,,,,,,324.3999999999942,,response,,,,99,,,,,,,Space,keypress(Space),,,,,,,,---- -- ----- -- ------ - ------- --- ----------<br>------------- ------ ------ ---- ---- ------- ----- -- ----<br>-------- ------- -- ---------- --- - --- ----- ----- ----<br>---- --- --- ----- --- ---- ---- ------- ----- ---- -------<br>--- --- -- ----- -- you ---- -- --- ---- -- ------ ------<br>--- ----- -- ----,200172,200157,199829.52,199829,199832.6,200182.34,,44,you
screen,html.Screen,2_1_0_1_45,2022-05-02T11:18:31.560Z,,,,,,,,,,,,,,,,,53,,,,,,,,,,,,,,225.6600000000035,,response,,,,99,,,,,,,Space,keypress(Space),,,,,,,,---- -- ----- -- ------ - ------- --- ----------<br>------------- ------ ------ ---- ---- ------- ----- -- ----<br>-------- ------- -- ---------- --- - --- ----- ----- ----<br>---- --- --- ----- --- ---- ---- ------- ----- ---- -------<br>--- --- -- ----- -- --- want -- --- ---- -- ------ ------<br>--- ----- -- ----,200417,200408,200172.96,200172,200182.34,200432.16,,45,want
screen,html.Screen,2_1_0_1_46,2022-05-02T11:18:31.922Z,,,,,,,,,,,,,,,,,53,,,,,,,,,,,,,,334.8399999999965,,response,,,,99,,,,,,,Space,keypress(Space),,,,,,,,---- -- ----- -- ------ - ------- --- ----------<br>------------- ------ ------ ---- ---- ------- ----- -- ----<br>-------- ------- -- ---------- --- - --- ----- ----- ----<br>---- --- --- ----- --- ---- ---- ------- ----- ---- -------<br>--- --- -- ----- -- --- ---- to --- ---- -- ------ ------<br>--- ----- -- ----,200780,200767,200417.18,200417,200432.16,200781.92,,46,to
screen,html.Screen,2_1_0_1_47,2022-05-02T11:18:32.306Z,,,,,,,,,,,,,,,,,53,,,,,,,,,,,,,,375.0799999999872,,response,,,,99,,,,,,,Space,keypress(Space),,,,,,,,"---- -- ----- -- ------ - ------- --- ----------<br>------------- ------ ------ ---- ---- ------- ----- -- ----<br>-------- ------- -- ---------- --- - --- ----- ----- ----<br>---- --- --- ----- --- ---- ---- ------- ----- ---- -------<br>--- --- -- ----- -- --- ---- -- be, ---- -- ------ ------<br>--- ----- -- ----",201164,201157,200779.88,200780,200781.92,201164.98,,47,"be,"
screen,html.Screen,2_1_0_1_48,2022-05-02T11:18:32.765Z,,,,,,,,,,,,,,,,,53,,,,,,,,,,,,,,446.0199999999895,,response,,,,99,,,,,,,Space,keypress(Space),,,,,,,,---- -- ----- -- ------ - ------- --- ----------<br>------------- ------ ------ ---- ---- ------- ----- -- ----<br>-------- ------- -- ---------- --- - --- ----- ----- ----<br>---- --- --- ----- --- ---- ---- ------- ----- ---- -------<br>--- --- -- ----- -- --- ---- -- --- even -- ------ ------<br>--- ----- -- ----,201622,201611,201164.34,201165,201164.98,201631.3,,48,even
screen,html.Screen,2_1_0_1_49,2022-05-02T11:18:33.123Z,,,,,,,,,,,,,,,,,53,,,,,,,,,,,,,,337.70000000001164,,response,,,,99,,,,,,,Space,keypress(Space),,,,,,,,---- -- ----- -- ------ - ------- --- ----------<br>------------- ------ ------ ---- ---- ------- ----- -- ----<br>-------- ------- -- ---------- --- - --- ----- ----- ----<br>---- --- --- ----- --- ---- ---- ------- ----- ---- -------<br>--- --- -- ----- -- --- ---- -- --- ---- if ------ ------<br>--- ----- -- ----,201980,201969,201622.6,201623,201631.3,201981.06,,49,if
screen,html.Screen,2_1_0_1_50,2022-05-02T11:18:33.465Z,,,,,,,,,,,,,,,,,53,,,,,,,,,,,,,,331.9400000000023,,response,,,,99,,,,,,,Space,keypress(Space),,,,,,,,---- -- ----- -- ------ - ------- --- ----------<br>------------- ------ ------ ---- ---- ------- ----- -- ----<br>-------- ------- -- ---------- --- - --- ----- ----- ----<br>---- --- --- ----- --- ---- ---- ------- ----- ---- -------<br>--- --- -- ----- -- --- ---- -- --- ---- -- that's ------<br>--- ----- -- ----,202323,202313,201980.8,201981,201981.06,202330.8,,50,that's
screen,html.Screen,2_1_0_1_51,2022-05-02T11:18:33.880Z,,,,,,,,,,,,,,,,,53,,,,,,,,,,,,,,388.20000000001164,,response,,,,99,,,,,,,Space,keypress(Space),,,,,,,,---- -- ----- -- ------ - ------- --- ----------<br>------------- ------ ------ ---- ---- ------- ----- -- ----<br>-------- ------- -- ---------- --- - --- ----- ----- ----<br>---- --- --- ----- --- ---- ---- ------- ----- ---- -------<br>--- --- -- ----- -- --- ---- -- --- ---- -- ------ really<br>--- ----- -- ----,202738,202719,202323.66,202323,202330.8,202747.16,,51,really
screen,html.Screen,2_1_0_1_52,2022-05-02T11:18:34.265Z,,,,,,,,,,,,,,,,,53,,,,,,,,,,,,,,362.8399999999965,,response,,,,99,,,,,,,Space,keypress(Space),,,,,,,,---- -- ----- -- ------ - ------- --- ----------<br>------------- ------ ------ ---- ---- ------- ----- -- ----<br>-------- ------- -- ---------- --- - --- ----- ----- ----<br>---- --- --- ----- --- ---- ---- ------- ----- ---- -------<br>--- --- -- ----- -- --- ---- -- --- ---- -- ------ ------<br>not ----- -- ----,203123,203110,202737.94,202738,202747.16,203130.22,,52,not
screen,html.Screen,2_1_0_1_53,2022-05-02T11:18:34.667Z,,,,,,,,,,,,,,,,,53,,,,,,,,,,,,,,385.77999999999884,,response,,,,99,,,,,,,Space,keypress(Space),,,,,,,,---- -- ----- -- ------ - ------- --- ----------<br>------------- ------ ------ ---- ---- ------- ----- -- ----<br>-------- ------- -- ---------- --- - --- ----- ----- ----<br>---- --- --- ----- --- ---- ---- ------- ----- ---- -------<br>--- --- -- ----- -- --- ---- -- --- ---- -- ------ ------<br>--- close -- ----,203524,203516,203122.88,203123,203130.22,203529.94,,53,close
screen,html.Screen,2_1_0_1_54,2022-05-02T11:18:35.006Z,,,,,,,,,,,,,,,,,53,,,,,,,,,,,,,,314.0599999999977,,response,,,,99,,,,,,,Space,keypress(Space),,,,,,,,---- -- ----- -- ------ - ------- --- ----------<br>------------- ------ ------ ---- ---- ------- ----- -- ----<br>-------- ------- -- ---------- --- - --- ----- ----- ----<br>---- --- --- ----- --- ---- ---- ------- ----- ---- -------<br>--- --- -- ----- -- --- ---- -- --- ---- -- ------ ------<br>--- ----- at ----,203864,203844,203525.06,203525,203529.94,203879.68,,54,at
screen,html.Screen,2_1_0_1_55,2022-05-02T11:18:35.460Z,,,,,,,,,,,,,,,,,53,,,,,,,,,,,,,,433.320000000007,,response,,,,99,,,,,,,Space,keypress(Space),,,,,,,,---- -- ----- -- ------ - ------- --- ----------<br>------------- ------ ------ ---- ---- ------- ----- -- ----<br>-------- ------- -- ---------- --- - --- ----- ----- ----<br>---- --- --- ----- --- ---- ---- ------- ----- ---- -------<br>--- --- -- ----- -- --- ---- -- --- ---- -- ------ ------<br>--- ----- -- all.,204317,204313,203864.32,203864,203879.68,204329.36,,55,all.
Item 99,flow.Loop,2_1_0_1,2022-05-02T11:18:35.460Z,,,,,,,,,,,,,,,,,,,,,,,,,,,,,,,23849.820000000007,,completion,,,,,F,,,,,,,,,,,silence,,,,,204318,204313,180446.54,180449,180463.18,204329.36,,,
Question 1,html.Screen,2_1_0_2,2022-05-02T11:18:39.627Z,,,,,,,,,,,,,,,,,,,,,,,,,,,,true,FALSE,,4139.640000000014,,response,,,,99,F,,,,,,FALSE,click #choice-2,,,,silence,,,,,208484,208469,204318.8,204318,204329.36,208493.04,,,
Question 2,html.Screen,2_1_0_3,2022-05-02T11:18:42.792Z,,,,,,,,,,,,,,,,,,,,,,,,,,,,true,TRUE,,3147.959999999992,,response,,,,99,F,,,,,,TRUE,click #choice-1,,,,silence,,,,,211650,211641,208484.08,208484,208493.04,211657.42,,,
Item 99,flow.Sequence,2_1_0,2022-05-02T11:18:42.793Z,,,,,,,,,,,,,,,,,,,,,,,,,,,,,,,41170.94,,completion,,,,,,,,,,,,,,,,,,,,,211650,211641,170444.4,170456,170470.06,211657.42,,,
Holding screen,html.Screen,2_1_1_0,2022-05-02T11:18:52.778Z,,,,,,,,,,,,,,,,,,,,,,,,,,,,,,,9992.819999999978,,timeout,,,,,,,,,,,,,,,,,,,,,221636,221633.6,211648.92,211650,211657.42,221650.24,,,
screen,html.Screen,2_1_1_1_0,2022-05-02T11:18:53.605Z,,,,,,,,,,,,,,,,,54,,,,,,,,,,,,,,802.7600000000093,,response,,,,100,,,,,,,Space,keypress(Space),,,,,,,,At --- ---- --- ------ ----- ------- ---- -- --- ------- --<br>------- ---------- ------ -- ----- -- ----- -- ---- ------<br>--- ----- --- --- ------ -------- ----- --- ------ ----- --<br>----- ----- ---------- --- --- ------ ------ ---- -- ------<br>------- --- ------ ----- --- ---- ------- -- ---- --- --<br>------- ------,222463,222453,221633.6,221637,221650.24,222466.32,,0,At
screen,html.Screen,2_1_1_1_1,2022-05-02T11:18:53.913Z,,,,,,,,,,,,,,,,,54,,,,,,,,,,,,,,299.679999999993,,response,,,,100,,,,,,,Space,keypress(Space),,,,,,,,-- the ---- --- ------ ----- ------- ---- -- --- ------- --<br>------- ---------- ------ -- ----- -- ----- -- ---- ------<br>--- ----- --- --- ------ -------- ----- --- ------ ----- --<br>----- ----- ---------- --- --- ------ ------ ---- -- ------<br>------- --- ------ ----- --- ---- ------- -- ---- --- --<br>------- ------,222771,222766,222463.64,222464,222466.32,222782.76,,1,the
screen,html.Screen,2_1_1_1_2,2022-05-02T11:18:54.209Z,,,,,,,,,,,,,,,,,54,,,,,,,,,,,,,,264.2399999999907,,response,,,,100,,,,,,,Space,keypress(Space),,,,,,,,-- --- time --- ------ ----- ------- ---- -- --- ------- --<br>------- ---------- ------ -- ----- -- ----- -- ---- ------<br>--- ----- --- --- ------ -------- ----- --- ------ ----- --<br>----- ----- ---------- --- --- ------ ------ ---- -- ------<br>------- --- ------ ----- --- ---- ------- -- ---- --- --<br>------- ------,223067,223047,222771.52,222772,222782.76,223082.54,,2,time
screen,html.Screen,2_1_1_1_3,2022-05-02T11:18:54.526Z,,,,,,,,,,,,,,,,,54,,,,,,,,,,,,,,292.45999999999185,,response,,,,100,,,,,,,Space,keypress(Space),,,,,,,,-- --- ---- the ------ ----- ------- ---- -- --- ------- --<br>------- ---------- ------ -- ----- -- ----- -- ---- ------<br>--- ----- --- --- ------ -------- ----- --- ------ ----- --<br>----- ----- ---------- --- --- ------ ------ ---- -- ------<br>------- --- ------ ----- --- ---- ------- -- ---- --- --<br>------- ------,223384,223375,223067.2,223067,223082.54,223398.98,,3,the
screen,html.Screen,2_1_1_1_4,2022-05-02T11:18:54.811Z,,,,,,,,,,,,,,,,,54,,,,,,,,,,,,,,258.0199999999895,,response,,,,100,,,,,,,Space,keypress(Space),,,,,,,,-- --- ---- --- French ----- ------- ---- -- --- ------- --<br>------- ---------- ------ -- ----- -- ----- -- ---- ------<br>--- ----- --- --- ------ -------- ----- --- ------ ----- --<br>----- ----- ---------- --- --- ------ ------ ---- -- ------<br>------- --- ------ ----- --- ---- ------- -- ---- --- --<br>------- ------,223669,223657,223384.06,223384,223398.98,223682.12,,4,French
screen,html.Screen,2_1_1_1_5,2022-05-02T11:18:55.159Z,,,,,,,,,,,,,,,,,54,,,,,,,,,,,,,,318.88000000000466,,response,,,,100,,,,,,,Space,keypress(Space),,,,,,,,-- --- ---- --- ------ crown ------- ---- -- --- ------- --<br>------- ---------- ------ -- ----- -- ----- -- ---- ------<br>--- ----- --- --- ------ -------- ----- --- ------ ----- --<br>----- ----- ---------- --- --- ------ ------ ---- -- ------<br>------- --- ------ ----- --- ---- ------- -- ---- --- --<br>------- ------,224018,224001,223671.22,223671,223682.12,224031.86,,5,crown
screen,html.Screen,2_1_1_1_6,2022-05-02T11:18:55.717Z,,,,,,,,,,,,,,,,,54,,,,,,,,,,,,,,532.140000000014,,response,,,,100,,,,,,,Space,keypress(Space),,,,,,,,-- --- ---- --- ------ ----- secured ---- -- --- ------- --<br>------- ---------- ------ -- ----- -- ----- -- ---- ------<br>--- ----- --- --- ------ -------- ----- --- ------ ----- --<br>----- ----- ---------- --- --- ------ ------ ---- -- ------<br>------- --- ------ ----- --- ---- ------- -- ---- --- --<br>------- ------,224575,224564,224022,224018,224031.86,224581.48,,6,secured
screen,html.Screen,2_1_1_1_7,2022-05-02T11:18:56.076Z,,,,,,,,,,,,,,,,,54,,,,,,,,,,,,,,340.5199999999895,,response,,,,100,,,,,,,Space,keypress(Space),,,,,,,,-- --- ---- --- ------ ----- ------- much -- --- ------- --<br>------- ---------- ------ -- ----- -- ----- -- ---- ------<br>--- ----- --- --- ------ -------- ----- --- ------ ----- --<br>----- ----- ---------- --- --- ------ ------ ---- -- ------<br>------- --- ------ ----- --- ---- ------- -- ---- --- --<br>------- ------,224934,224922,224575.34,224576,224581.48,224947.88,,7,much
screen,html.Screen,2_1_1_1_8,2022-05-02T11:18:56.370Z,,,,,,,,,,,,,,,,,54,,,,,,,,,,,,,,272.11999999999534,,response,,,,100,,,,,,,Space,keypress(Space),,,,,,,,-- --- ---- --- ------ ----- ------- ---- of --- ------- --<br>------- ---------- ------ -- ----- -- ----- -- ---- ------<br>--- ----- --- --- ------ -------- ----- --- ------ ----- --<br>----- ----- ---------- --- --- ------ ------ ---- -- ------<br>------- --- ------ ----- --- ---- ------- -- ---- --- --<br>------- ------,225227,225220,224935.26,224935,224947.88,225231,,8,of
screen,html.Screen,2_1_1_1_9,2022-05-02T11:18:56.683Z,,,,,,,,,,,,,,,,,54,,,,,,,,,,,,,,301,,response,,,,100,,,,,,,Space,keypress(Space),,,,,,,,-- --- ---- --- ------ ----- ------- ---- -- its ------- --<br>------- ---------- ------ -- ----- -- ----- -- ---- ------<br>--- ----- --- --- ------ -------- ----- --- ------ ----- --<br>----- ----- ---------- --- --- ------ ------ ---- -- ------<br>------- --- ------ ----- --- ---- ------- -- ---- --- --<br>------- ------,225540,225532,225228.14,225228,225231,225547.44,,9,its
screen,html.Screen,2_1_1_1_10,2022-05-02T11:18:56.948Z,,,,,,,,,,,,,,,,,54,,,,,,,,,,,,,,250.55999999999767,,response,,,,100,,,,,,,Space,keypress(Space),,,,,,,,-- --- ---- --- ------ ----- ------- ---- -- --- revenue --<br>------- ---------- ------ -- ----- -- ----- -- ---- ------<br>--- ----- --- --- ------ -------- ----- --- ------ ----- --<br>----- ----- ---------- --- --- ------ ------ ---- -- ------<br>------- --- ------ ----- --- ---- ------- -- ---- --- --<br>------- ------,225806,225798,225540.84,225540,225547.44,225813.92,,10,revenue
screen,html.Screen,2_1_1_1_11,2022-05-02T11:18:57.515Z,,,,,,,,,,,,,,,,,54,,,,,,,,,,,,,,547.0799999999872,,response,,,,100,,,,,,,Space,keypress(Space),,,,,,,,-- --- ---- --- ------ ----- ------- ---- -- --- ------- by<br>------- ---------- ------ -- ----- -- ----- -- ---- ------<br>--- ----- --- --- ------ -------- ----- --- ------ ----- --<br>----- ----- ---------- --- --- ------ ------ ---- -- ------<br>------- --- ------ ----- --- ---- ------- -- ---- --- --<br>------- ------,226373,226361,225807.54,225808,225813.92,226380.18,,11,by
screen,html.Screen,2_1_1_1_12,2022-05-02T11:18:57.843Z,,,,,,,,,,,,,,,,,54,,,,,,,,,,,,,,307.820000000007,,response,,,,100,,,,,,,Space,keypress(Space),,,,,,,,-- --- ---- --- ------ ----- ------- ---- -- --- ------- --<br>issuing ---------- ------ -- ----- -- ----- -- ---- ------<br>--- ----- --- --- ------ -------- ----- --- ------ ----- --<br>----- ----- ---------- --- --- ------ ------ ---- -- ------<br>------- --- ------ ----- --- ---- ------- -- ---- --- --<br>------- ------,226701,226688,226373.2,226373,226380.18,226713.28,,12,issuing
screen,html.Screen,2_1_1_1_13,2022-05-02T11:18:58.158Z,,,,,,,,,,,,,,,,,54,,,,,,,,,,,,,,287.72000000000116,,response,,,,100,,,,,,,Space,keypress(Space),,,,,,,,-- --- ---- --- ------ ----- ------- ---- -- --- ------- --<br>------- government ------ -- ----- -- ----- -- ---- ------<br>--- ----- --- --- ------ -------- ----- --- ------ ----- --<br>----- ----- ---------- --- --- ------ ------ ---- -- ------<br>------- --- ------ ----- --- ---- ------- -- ---- --- --<br>------- ------,227015,227001,226701.36,226701,226713.28,227029.72,,13,government
screen,html.Screen,2_1_1_1_14,2022-05-02T11:18:58.441Z,,,,,,,,,,,,,,,,,54,,,,,,,,,,,,,,253.27999999999884,,response,,,,100,,,,,,,Space,keypress(Space),,,,,,,,-- --- ---- --- ------ ----- ------- ---- -- --- ------- --<br>------- ---------- bonds. -- ----- -- ----- -- ---- ------<br>--- ----- --- --- ------ -------- ----- --- ------ ----- --<br>----- ----- ---------- --- --- ------ ------ ---- -- ------<br>------- --- ------ ----- --- ---- ------- -- ---- --- --<br>------- ------,227299,227283,227016.52,227016,227029.72,227312.84,,14,bonds.
screen,html.Screen,2_1_1_1_15,2022-05-02T11:18:59.135Z,,,,,,,,,,,,,,,,,54,,,,,,,,,,,,,,672.1600000000035,,response,,,,100,,,,,,,Space,keypress(Space),,,,,,,,-- --- ---- --- ------ ----- ------- ---- -- --- ------- --<br>------- ---------- ------ In ----- -- ----- -- ---- ------<br>--- ----- --- --- ------ -------- ----- --- ------ ----- --<br>----- ----- ---------- --- --- ------ ------ ---- -- ------<br>------- --- ------ ----- --- ---- ------- -- ---- --- --<br>------- ------,227992,227985,227299.4,227300,227312.84,227995.68,,15,In
screen,html.Screen,2_1_1_1_16,2022-05-02T11:18:59.472Z,,,,,,,,,,,,,,,,,54,,,,,,,,,,,,,,317.320000000007,,response,,,,100,,,,,,,Space,keypress(Space),,,,,,,,"-- --- ---- --- ------ ----- ------- ---- -- --- ------- --<br>------- ---------- ------ -- 1727, -- ----- -- ---- ------<br>--- ----- --- --- ------ -------- ----- --- ------ ----- --<br>----- ----- ---------- --- --- ------ ------ ---- -- ------<br>------- --- ------ ----- --- ---- ------- -- ---- --- --<br>------- ------",228330,228313,227992.82,227992,227995.68,228345.44,,16,"1727,"
screen,html.Screen,2_1_1_1_17,2022-05-02T11:19:00.473Z,,,,,,,,,,,,,,,,,54,,,,,,,,,,,,,,967.5599999999977,,response,,,,100,,,,,,,Space,keypress(Space),,,,,,,,-- --- ---- --- ------ ----- ------- ---- -- --- ------- --<br>------- ---------- ------ -- ----- in ----- -- ---- ------<br>--- ----- --- --- ------ -------- ----- --- ------ ----- --<br>----- ----- ---------- --- --- ------ ------ ---- -- ------<br>------- --- ------ ----- --- ---- ------- -- ---- --- --<br>------- ------,229331,229313,228329.92,228330,228345.44,229344.72,,17,in
screen,html.Screen,2_1_1_1_18,2022-05-02T11:19:01.023Z,,,,,,,,,,,,,,,,,54,,,,,,,,,,,,,,530.2799999999988,,response,,,,100,,,,,,,Space,keypress(Space),,,,,,,,-- --- ---- --- ------ ----- ------- ---- -- --- ------- --<br>------- ---------- ------ -- ----- -- order -- ---- ------<br>--- ----- --- --- ------ -------- ----- --- ------ ----- --<br>----- ----- ---------- --- --- ------ ------ ---- -- ------<br>------- --- ------ ----- --- ---- ------- -- ---- --- --<br>------- ------,229880,229875,229331.3,229331,229344.72,229894.32,,18,order
screen,html.Screen,2_1_1_1_19,2022-05-02T11:19:01.430Z,,,,,,,,,,,,,,,,,54,,,,,,,,,,,,,,387.679999999993,,response,,,,100,,,,,,,Space,keypress(Space),,,,,,,,-- --- ---- --- ------ ----- ------- ---- -- --- ------- --<br>------- ---------- ------ -- ----- -- ----- to ---- ------<br>--- ----- --- --- ------ -------- ----- --- ------ ----- --<br>----- ----- ---------- --- --- ------ ------ ---- -- ------<br>------- --- ------ ----- --- ---- ------- -- ---- --- --<br>------- ------,230288,230282,229881.1,229881,229894.32,230294.04,,19,to
screen,html.Screen,2_1_1_1_20,2022-05-02T11:19:01.641Z,,,,,,,,,,,,,,,,,54,,,,,,,,,,,,,,190.95999999999185,,response,,,,100,,,,,,,Space,keypress(Space),,,,,,,,-- --- ---- --- ------ ----- ------- ---- -- --- ------- --<br>------- ---------- ------ -- ----- -- ----- -- save ------<br>--- ----- --- --- ------ -------- ----- --- ------ ----- --<br>----- ----- ---------- --- --- ------ ------ ---- -- ------<br>------- --- ------ ----- --- ---- ------- -- ---- --- --<br>------- ------,230498,230485,230288.5,230289,230294.04,230510.54,,20,save
screen,html.Screen,2_1_1_1_21,2022-05-02T11:19:02.053Z,,,,,,,,,,,,,,,,,54,,,,,,,,,,,,,,397.45999999999185,,response,,,,100,,,,,,,Space,keypress(Space),,,,,,,,"-- --- ---- --- ------ ----- ------- ---- -- --- ------- --<br>------- ---------- ------ -- ----- -- ----- -- ---- money,<br>--- ----- --- --- ------ -------- ----- --- ------ ----- --<br>----- ----- ---------- --- --- ------ ------ ---- -- ------<br>------- --- ------ ----- --- ---- ------- -- ---- --- --<br>------- ------",230911,230908,230498.08,230498,230510.54,230926.9,,21,"money,"
screen,html.Screen,2_1_1_1_22,2022-05-02T11:19:02.391Z,,,,,,,,,,,,,,,,,54,,,,,,,,,,,,,,308.1000000000058,,response,,,,100,,,,,,,Space,keypress(Space),,,,,,,,-- --- ---- --- ------ ----- ------- ---- -- --- ------- --<br>------- ---------- ------ -- ----- -- ----- -- ---- ------<br>the ----- --- --- ------ -------- ----- --- ------ ----- --<br>----- ----- ---------- --- --- ------ ------ ---- -- ------<br>------- --- ------ ----- --- ---- ------- -- ---- --- --<br>------- ------,231249,231235,230911.2,230911,230926.9,231260,,22,the
screen,html.Screen,2_1_1_1_23,2022-05-02T11:19:02.731Z,,,,,,,,,,,,,,,,,54,,,,,,,,,,,,,,318,,response,,,,100,,,,,,,Space,keypress(Space),,,,,,,,-- --- ---- --- ------ ----- ------- ---- -- --- ------- --<br>------- ---------- ------ -- ----- -- ----- -- ---- ------<br>--- state --- --- ------ -------- ----- --- ------ ----- --<br>----- ----- ---------- --- --- ------ ------ ---- -- ------<br>------- --- ------ ----- --- ---- ------- -- ---- --- --<br>------- ------,231588,231578,231249.52,231249,231260,231593.1,,23,state
screen,html.Screen,2_1_1_1_24,2022-05-02T11:19:03.168Z,,,,,,,,,,,,,,,,,54,,,,,,,,,,,,,,422.8999999999942,,response,,,,100,,,,,,,Space,keypress(Space),,,,,,,,-- --- ---- --- ------ ----- ------- ---- -- --- ------- --<br>------- ---------- ------ -- ----- -- ----- -- ---- ------<br>--- ----- cut --- ------ -------- ----- --- ------ ----- --<br>----- ----- ---------- --- --- ------ ------ ---- -- ------<br>------- --- ------ ----- --- ---- ------- -- ---- --- --<br>------- ------,232026,232016,231588.32,231588,231593.1,232042.78,,24,cut
screen,html.Screen,2_1_1_1_25,2022-05-02T11:19:03.602Z,,,,,,,,,,,,,,,,,54,,,,,,,,,,,,,,410.22000000000116,,response,,,,100,,,,,,,Space,keypress(Space),,,,,,,,-- --- ---- --- ------ ----- ------- ---- -- --- ------- --<br>------- ---------- ------ -- ----- -- ----- -- ---- ------<br>--- ----- --- the ------ -------- ----- --- ------ ----- --<br>----- ----- ---------- --- --- ------ ------ ---- -- ------<br>------- --- ------ ----- --- ---- ------- -- ---- --- --<br>------- ------,232460,232453,232027.32,232027,232042.78,232475.8,,25,the
screen,html.Screen,2_1_1_1_26,2022-05-02T11:19:04.014Z,,,,,,,,,,,,,,,,,54,,,,,,,,,,,,,,384.20000000001164,,response,,,,100,,,,,,,Space,keypress(Space),,,,,,,,-- --- ---- --- ------ ----- ------- ---- -- --- ------- --<br>------- ---------- ------ -- ----- -- ----- -- ---- ------<br>--- ----- --- --- bonds' -------- ----- --- ------ ----- --<br>----- ----- ---------- --- --- ------ ------ ---- -- ------<br>------- --- ------ ----- --- ---- ------- -- ---- --- --<br>------- ------,232871,232860,232460.64,232460,232475.8,232875.5,,26,bonds'
screen,html.Screen,2_1_1_1_27,2022-05-02T11:19:04.584Z,,,,,,,,,,,,,,,,,54,,,,,,,,,,,,,,546.5,,response,,,,100,,,,,,,Space,keypress(Space),,,,,,,,-- --- ---- --- ------ ----- ------- ---- -- --- ------- --<br>------- ---------- ------ -- ----- -- ----- -- ---- ------<br>--- ----- --- --- ------ interest ----- --- ------ ----- --<br>----- ----- ---------- --- --- ------ ------ ---- -- ------<br>------- --- ------ ----- --- ---- ------- -- ---- --- --<br>------- ------,233441,233422,232871.52,232871,232875.5,233458.42,,27,interest
screen,html.Screen,2_1_1_1_28,2022-05-02T11:19:04.952Z,,,,,,,,,,,,,,,,,54,,,,,,,,,,,,,,338.5799999999872,,response,,,,100,,,,,,,Space,keypress(Space),,,,,,,,-- --- ---- --- ------ ----- ------- ---- -- --- ------- --<br>------- ---------- ------ -- ----- -- ----- -- ---- ------<br>--- ----- --- --- ------ -------- rate. --- ------ ----- --<br>----- ----- ---------- --- --- ------ ------ ---- -- ------<br>------- --- ------ ----- --- ---- ------- -- ---- --- --<br>------- ------,233810,233797,233441.76,233442,233458.42,233824.82,,28,rate.
screen,html.Screen,2_1_1_1_29,2022-05-02T11:19:05.330Z,,,,,,,,,,,,,,,,,54,,,,,,,,,,,,,,347.179999999993,,response,,,,100,,,,,,,Space,keypress(Space),,,,,,,,-- --- ---- --- ------ ----- ------- ---- -- --- ------- --<br>------- ---------- ------ -- ----- -- ----- -- ---- ------<br>--- ----- --- --- ------ -------- ----- The ------ ----- --<br>----- ----- ---------- --- --- ------ ------ ---- -- ------<br>------- --- ------ ----- --- ---- ------- -- ---- --- --<br>------- ------,234188,234172,233810.08,233810,233824.82,234207.88,,29,The
screen,html.Screen,2_1_1_1_30,2022-05-02T11:19:05.714Z,,,,,,,,,,,,,,,,,54,,,,,,,,,,,,,,355.11999999999534,,response,,,,100,,,,,,,Space,keypress(Space),,,,,,,,-- --- ---- --- ------ ----- ------- ---- -- --- ------- --<br>------- ---------- ------ -- ----- -- ----- -- ---- ------<br>--- ----- --- --- ------ -------- ----- --- market ----- --<br>----- ----- ---------- --- --- ------ ------ ---- -- ------<br>------- --- ------ ----- --- ---- ------- -- ---- --- --<br>------- ------,234571,234563,234192.46,234188,234207.88,234574.28,,30,market
screen,html.Screen,2_1_1_1_31,2022-05-02T11:19:06.097Z,,,,,,,,,,,,,,,,,54,,,,,,,,,,,,,,364.72000000000116,,response,,,,100,,,,,,,Space,keypress(Space),,,,,,,,-- --- ---- --- ------ ----- ------- ---- -- --- ------- --<br>------- ---------- ------ -- ----- -- ----- -- ---- ------<br>--- ----- --- --- ------ -------- ----- --- ------ value --<br>----- ----- ---------- --- --- ------ ------ ---- -- ------<br>------- --- ------ ----- --- ---- ------- -- ---- --- --<br>------- ------,234955,234939,234571.68,234571,234574.28,234957.34,,31,value
screen,html.Screen,2_1_1_1_32,2022-05-02T11:19:06.453Z,,,,,,,,,,,,,,,,,54,,,,,,,,,,,,,,339.6600000000035,,response,,,,100,,,,,,,Space,keypress(Space),,,,,,,,-- --- ---- --- ------ ----- ------- ---- -- --- ------- --<br>------- ---------- ------ -- ----- -- ----- -- ---- ------<br>--- ----- --- --- ------ -------- ----- --- ------ ----- of<br>----- ----- ---------- --- --- ------ ------ ---- -- ------<br>------- --- ------ ----- --- ---- ------- -- ---- --- --<br>------- ------,235310,235297,234955.56,234955,234957.34,235323.74,,32,of
screen,html.Screen,2_1_1_1_33,2022-05-02T11:19:06.780Z,,,,,,,,,,,,,,,,,54,,,,,,,,,,,,,,302.2600000000093,,response,,,,100,,,,,,,Space,keypress(Space),,,,,,,,-- --- ---- --- ------ ----- ------- ---- -- --- ------- --<br>------- ---------- ------ -- ----- -- ----- -- ---- ------<br>--- ----- --- --- ------ -------- ----- --- ------ ----- --<br>these ----- ---------- --- --- ------ ------ ---- -- ------<br>------- --- ------ ----- --- ---- ------- -- ---- --- --<br>------- ------,235638,235626,235310.16,235310,235323.74,235640.18,,33,these
screen,html.Screen,2_1_1_1_34,2022-05-02T11:19:07.134Z,,,,,,,,,,,,,,,,,54,,,,,,,,,,,,,,344.820000000007,,response,,,,100,,,,,,,Space,keypress(Space),,,,,,,,-- --- ---- --- ------ ----- ------- ---- -- --- ------- --<br>------- ---------- ------ -- ----- -- ----- -- ---- ------<br>--- ----- --- --- ------ -------- ----- --- ------ ----- --<br>----- bonds ---------- --- --- ------ ------ ---- -- ------<br>------- --- ------ ----- --- ---- ------- -- ---- --- --<br>------- ------,235992,235985,235638.22,235639,235640.18,236006.6,,34,bonds
screen,html.Screen,2_1_1_1_35,2022-05-02T11:19:07.408Z,,,,,,,,,,,,,,,,,54,,,,,,,,,,,,,,243.39999999999418,,response,,,,100,,,,,,,Space,keypress(Space),,,,,,,,"-- --- ---- --- ------ ----- ------- ---- -- --- ------- --<br>------- ---------- ------ -- ----- -- ----- -- ---- ------<br>--- ----- --- --- ------ -------- ----- --- ------ ----- --<br>----- ----- plummeted, --- --- ------ ------ ---- -- ------<br>------- --- ------ ----- --- ---- ------- -- ---- --- --<br>------- ------",236265,236250,235992.16,235992,236006.6,236273.06,,35,"plummeted,"
screen,html.Screen,2_1_1_1_36,2022-05-02T11:19:07.812Z,,,,,,,,,,,,,,,,,54,,,,,,,,,,,,,,383.9400000000023,,response,,,,100,,,,,,,Space,keypress(Space),,,,,,,,-- --- ---- --- ------ ----- ------- ---- -- --- ------- --<br>------- ---------- ------ -- ----- -- ----- -- ---- ------<br>--- ----- --- --- ------ -------- ----- --- ------ ----- --<br>----- ----- ---------- and --- ------ ------ ---- -- ------<br>------- --- ------ ----- --- ---- ------- -- ---- --- --<br>------- ------,236670,236657,236266.62,236267,236273.06,236672.78,,36,and
screen,html.Screen,2_1_1_1_37,2022-05-02T11:19:08.145Z,,,,,,,,,,,,,,,,,54,,,,,,,,,,,,,,313.22000000000116,,response,,,,100,,,,,,,Space,keypress(Space),,,,,,,,-- --- ---- --- ------ ----- ------- ---- -- --- ------- --<br>------- ---------- ------ -- ----- -- ----- -- ---- ------<br>--- ----- --- --- ------ -------- ----- --- ------ ----- --<br>----- ----- ---------- --- the ------ ------ ---- -- ------<br>------- --- ------ ----- --- ---- ------- -- ---- --- --<br>------- ------,237002,236986,236670.26,236670,236672.78,237005.88,,37,the
screen,html.Screen,2_1_1_1_38,2022-05-02T11:19:08.473Z,,,,,,,,,,,,,,,,,54,,,,,,,,,,,,,,307.11999999999534,,response,,,,100,,,,,,,Space,keypress(Space),,,,,,,,-- --- ---- --- ------ ----- ------- ---- -- --- ------- --<br>------- ---------- ------ -- ----- -- ----- -- ---- ------<br>--- ----- --- --- ------ -------- ----- --- ------ ----- --<br>----- ----- ---------- --- --- market ------ ---- -- ------<br>------- --- ------ ----- --- ---- ------- -- ---- --- --<br>------- ------,237331,237313,237002.84,237003,237005.88,237338.96,,38,market
screen,html.Screen,2_1_1_1_39,2022-05-02T11:19:08.829Z,,,,,,,,,,,,,,,,,54,,,,,,,,,,,,,,333.04000000000815,,response,,,,100,,,,,,,Space,keypress(Space),,,,,,,,-- --- ---- --- ------ ----- ------- ---- -- --- ------- --<br>------- ---------- ------ -- ----- -- ----- -- ---- ------<br>--- ----- --- --- ------ -------- ----- --- ------ ----- --<br>----- ----- ---------- --- --- ------ became ---- -- ------<br>------- --- ------ ----- --- ---- ------- -- ---- --- --<br>------- ------,237686,237672,237330.82,237331,237338.96,237688.72,,39,became
screen,html.Screen,2_1_1_1_40,2022-05-02T11:19:09.177Z,,,,,,,,,,,,,,,,,54,,,,,,,,,,,,,,328.27999999999884,,response,,,,100,,,,,,,Space,keypress(Space),,,,,,,,-- --- ---- --- ------ ----- ------- ---- -- --- ------- --<br>------- ---------- ------ -- ----- -- ----- -- ---- ------<br>--- ----- --- --- ------ -------- ----- --- ------ ----- --<br>----- ----- ---------- --- --- ------ ------ wary -- ------<br>------- --- ------ ----- --- ---- ------- -- ---- --- --<br>------- ------,238035,238017,237686.94,237687,237688.72,238038.46,,40,wary
screen,html.Screen,2_1_1_1_41,2022-05-02T11:19:09.620Z,,,,,,,,,,,,,,,,,54,,,,,,,,,,,,,,430.54000000000815,,response,,,,100,,,,,,,Space,keypress(Space),,,,,,,,-- --- ---- --- ------ ----- ------- ---- -- --- ------- --<br>------- ---------- ------ -- ----- -- ----- -- ---- ------<br>--- ----- --- --- ------ -------- ----- --- ------ ----- --<br>----- ----- ---------- --- --- ------ ------ ---- of ------<br>------- --- ------ ----- --- ---- ------- -- ---- --- --<br>------- ------,238479,238469,238035.4,238035,238038.46,238488.14,,41,of
screen,html.Screen,2_1_1_1_42,2022-05-02T11:19:10.113Z,,,,,,,,,,,,,,,,,54,,,,,,,,,,,,,,464.85999999998603,,response,,,,100,,,,,,,Space,keypress(Space),,,,,,,,-- --- ---- --- ------ ----- ------- ---- -- --- ------- --<br>------- ---------- ------ -- ----- -- ----- -- ---- ------<br>--- ----- --- --- ------ -------- ----- --- ------ ----- --<br>----- ----- ---------- --- --- ------ ------ ---- -- French<br>------- --- ------ ----- --- ---- ------- -- ---- --- --<br>------- ------,238970,238953,238482.78,238479,238488.14,238987.78,,42,French
screen,html.Screen,2_1_1_1_43,2022-05-02T11:19:10.481Z,,,,,,,,,,,,,,,,,54,,,,,,,,,,,,,,340.22000000000116,,response,,,,100,,,,,,,Space,keypress(Space),,,,,,,,-- --- ---- --- ------ ----- ------- ---- -- --- ------- --<br>------- ---------- ------ -- ----- -- ----- -- ---- ------<br>--- ----- --- --- ------ -------- ----- --- ------ ----- --<br>----- ----- ---------- --- --- ------ ------ ---- -- ------<br>credit. --- ------ ----- --- ---- ------- -- ---- --- --<br>------- ------,239339,239328,238971.14,238971,238987.78,239354.18,,43,credit.
screen,html.Screen,2_1_1_1_44,2022-05-02T11:19:10.924Z,,,,,,,,,,,,,,,,,54,,,,,,,,,,,,,,412.820000000007,,response,,,,100,,,,,,,Space,keypress(Space),,,,,,,,-- --- ---- --- ------ ----- ------- ---- -- --- ------- --<br>------- ---------- ------ -- ----- -- ----- -- ---- ------<br>--- ----- --- --- ------ -------- ----- --- ------ ----- --<br>----- ----- ---------- --- --- ------ ------ ---- -- ------<br>------- The ------ ----- --- ---- ------- -- ---- --- --<br>------- ------,239782,239767,239339.6,239339,239354.18,239787.2,,44,The
screen,html.Screen,2_1_1_1_45,2022-05-02T11:19:11.193Z,,,,,,,,,,,,,,,,,54,,,,,,,,,,,,,,259.79999999998836,,response,,,,100,,,,,,,Space,keypress(Space),,,,,,,,-- --- ---- --- ------ ----- ------- ---- -- --- ------- --<br>------- ---------- ------ -- ----- -- ----- -- ---- ------<br>--- ----- --- --- ------ -------- ----- --- ------ ----- --<br>----- ----- ---------- --- --- ------ ------ ---- -- ------<br>------- --- French ----- --- ---- ------- -- ---- --- --<br>------- ------,240051,240047,239782.14,239782,239787.2,240053.68,,45,French
screen,html.Screen,2_1_1_1_46,2022-05-02T11:19:11.562Z,,,,,,,,,,,,,,,,,54,,,,,,,,,,,,,,353.320000000007,,response,,,,100,,,,,,,Space,keypress(Space),,,,,,,,-- --- ---- --- ------ ----- ------- ---- -- --- ------- --<br>------- ---------- ------ -- ----- -- ----- -- ---- ------<br>--- ----- --- --- ------ -------- ----- --- ------ ----- --<br>----- ----- ---------- --- --- ------ ------ ---- -- ------<br>------- --- ------ state --- ---- ------- -- ---- --- --<br>------- ------,240419,240407,240050.84,240051,240053.68,240420.08,,46,state
screen,html.Screen,2_1_1_1_47,2022-05-02T11:19:11.995Z,,,,,,,,,,,,,,,,,54,,,,,,,,,,,,,,424.9200000000128,,response,,,,100,,,,,,,Space,keypress(Space),,,,,,,,-- --- ---- --- ------ ----- ------- ---- -- --- ------- --<br>------- ---------- ------ -- ----- -- ----- -- ---- ------<br>--- ----- --- --- ------ -------- ----- --- ------ ----- --<br>----- ----- ---------- --- --- ------ ------ ---- -- ------<br>------- --- ------ ----- was ---- ------- -- ---- --- --<br>------- ------,240853,240845,240419.64,240420,240420.08,240869.76,,47,was
screen,html.Screen,2_1_1_1_48,2022-05-02T11:19:12.354Z,,,,,,,,,,,,,,,,,54,,,,,,,,,,,,,,333.2399999999907,,response,,,,100,,,,,,,Space,keypress(Space),,,,,,,,-- --- ---- --- ------ ----- ------- ---- -- --- ------- --<br>------- ---------- ------ -- ----- -- ----- -- ---- ------<br>--- ----- --- --- ------ -------- ----- --- ------ ----- --<br>----- ----- ---------- --- --- ------ ------ ---- -- ------<br>------- --- ------ ----- --- left ------- -- ---- --- --<br>------- ------,241211,241203,240853.98,240854,240869.76,241219.52,,48,left
screen,html.Screen,2_1_1_1_49,2022-05-02T11:19:12.813Z,,,,,,,,,,,,,,,,,54,,,,,,,,,,,,,,437.4800000000105,,response,,,,100,,,,,,,Space,keypress(Space),,,,,,,,-- --- ---- --- ------ ----- ------- ---- -- --- ------- --<br>------- ---------- ------ -- ----- -- ----- -- ---- ------<br>--- ----- --- --- ------ -------- ----- --- ------ ----- --<br>----- ----- ---------- --- --- ------ ------ ---- -- ------<br>------- --- ------ ----- --- ---- without -- ---- --- --<br>------- ------,241670,241657,241211.76,241212,241219.52,241685.84,,49,without
screen,html.Screen,2_1_1_1_50,2022-05-02T11:19:13.241Z,,,,,,,,,,,,,,,,,54,,,,,,,,,,,,,,409.1600000000035,,response,,,,100,,,,,,,Space,keypress(Space),,,,,,,,-- --- ---- --- ------ ----- ------- ---- -- --- ------- --<br>------- ---------- ------ -- ----- -- ----- -- ---- ------<br>--- ----- --- --- ------ -------- ----- --- ------ ----- --<br>----- ----- ---------- --- --- ------ ------ ---- -- ------<br>------- --- ------ ----- --- ---- ------- an ---- --- --<br>------- ------,242099,242095,241671.02,241671,241685.84,242102.2,,50,an
screen,html.Screen,2_1_1_1_51,2022-05-02T11:19:13.659Z,,,,,,,,,,,,,,,,,54,,,,,,,,,,,,,,397.79999999998836,,response,,,,100,,,,,,,Space,keypress(Space),,,,,,,,-- --- ---- --- ------ ----- ------- ---- -- --- ------- --<br>------- ---------- ------ -- ----- -- ----- -- ---- ------<br>--- ----- --- --- ------ -------- ----- --- ------ ----- --<br>----- ----- ---------- --- --- ------ ------ ---- -- ------<br>------- --- ------ ----- --- ---- ------- -- easy --- --<br>------- ------,242517,242500,242098.62,242099,242102.2,242518.58,,51,easy
screen,html.Screen,2_1_1_1_52,2022-05-02T11:19:14.137Z,,,,,,,,,,,,,,,,,54,,,,,,,,,,,,,,466.4200000000128,,response,,,,100,,,,,,,Space,keypress(Space),,,,,,,,-- --- ---- --- ------ ----- ------- ---- -- --- ------- --<br>------- ---------- ------ -- ----- -- ----- -- ---- ------<br>--- ----- --- --- ------ -------- ----- --- ------ ----- --<br>----- ----- ---------- --- --- ------ ------ ---- -- ------<br>------- --- ------ ----- --- ---- ------- -- ---- way --<br>------- ------,242995,242985,242517.04,242517,242518.58,243001.56,,52,way
screen,html.Screen,2_1_1_1_53,2022-05-02T11:19:14.391Z,,,,,,,,,,,,,,,,,54,,,,,,,,,,,,,,234.44000000000233,,response,,,,100,,,,,,,Space,keypress(Space),,,,,,,,-- --- ---- --- ------ ----- ------- ---- -- --- ------- --<br>------- ---------- ------ -- ----- -- ----- -- ---- ------<br>--- ----- --- --- ------ -------- ----- --- ------ ----- --<br>----- ----- ---------- --- --- ------ ------ ---- -- ------<br>------- --- ------ ----- --- ---- ------- -- ---- --- of<br>------- ------,243249,243236,242994.68,242995,243001.56,243251.38,,53,of
screen,html.Screen,2_1_1_1_54,2022-05-02T11:19:14.749Z,,,,,,,,,,,,,,,,,54,,,,,,,,,,,,,,342.61999999999534,,response,,,,100,,,,,,,Space,keypress(Space),,,,,,,,-- --- ---- --- ------ ----- ------- ---- -- --- ------- --<br>------- ---------- ------ -- ----- -- ----- -- ---- ------<br>--- ----- --- --- ------ -------- ----- --- ------ ----- --<br>----- ----- ---------- --- --- ------ ------ ---- -- ------<br>------- --- ------ ----- --- ---- ------- -- ---- --- --<br>raising ------,243607,243594,243249.3,243249,243251.38,243617.78,,54,raising
screen,html.Screen,2_1_1_1_55,2022-05-02T11:19:15.140Z,,,,,,,,,,,,,,,,,54,,,,,,,,,,,,,,367.22000000000116,,response,,,,100,,,,,,,Space,keypress(Space),,,,,,,,-- --- ---- --- ------ ----- ------- ---- -- --- ------- --<br>------- ---------- ------ -- ----- -- ----- -- ---- ------<br>--- ----- --- --- ------ -------- ----- --- ------ ----- --<br>----- ----- ---------- --- --- ------ ------ ---- -- ------<br>------- --- ------ ----- --- ---- ------- -- ---- --- --<br>------- money.,243996,243985,243607.5,243607,243617.78,244000.84,,55,money.
Item 100,flow.Loop,2_1_1_1,2022-05-02T11:19:15.141Z,,,,,,,,,,,,,,,,,,,,,,,,,,,,,,,22334.76000000001,,completion,,,,,F,,,,,,,,,,,silence,,,,,243997,243985,221633.6,221637,221650.24,244000.84,,,
Question 1,html.Screen,2_1_1_2,2022-05-02T11:19:19.623Z,,,,,,,,,,,,,,,,,,,,,,,,,,,,false,TRUE,,4469.1600000000035,,response,,,,100,F,,,,,,FALSE,click #choice-2,,,,silence,,,,,248479,248470,243998.08,243998,244000.84,248480.96,,,
Question 2,html.Screen,2_1_1_3,2022-05-02T11:19:21.542Z,,,,,,,,,,,,,,,,,,,,,,,,,,,,true,FALSE,,1910.0400000000081,,response,,,,100,F,,,,,,FALSE,click #choice-2,,,,silence,,,,,250400,250391,248479.22,248480,248480.96,250412.9,,,
Item 100,flow.Sequence,2_1_1,2022-05-02T11:19:21.542Z,,,,,,,,,,,,,,,,,,,,,,,,,,,,,,,38733.57999999999,,completion,,,,,,,,,,,,,,,,,,,,,250400,250391,211648.92,211650,211657.42,250412.9,,,
End of Practice,html.Page,2_1_2,2022-05-02T11:19:26.834Z,,,,,,,,,,,,,,,,,,,,,,,,,,,,,,,5279.100000000006,,form submission,,,,,,,,,,,,,,,,,,,,,255692,255692,250399.76,250400,250412.9,255692.44,,,
Practice,flow.Sequence,2_1,2022-05-02T11:19:26.834Z,,,,,,,,,,,,,,,,,,,,,,,,,,,,,,,85221.94,,completion,,,,,,,,,,,,,,,,,,,,,255692,255692,170444.4,170456,170470.06,255692.44,,,
Trap_instruction,html.Page,2_2_0,2022-05-02T11:19:31.756Z,,,,,,,,,,,,,,,,,,,,,,,,,,,,,,,4920.559999999998,,form submission,,,,,,,,,,,,,,,,,,,,,260614,260613,255689.88,255693,255692.44,260688.84,,,
trap_trial,html.Screen,2_2_1,2022-05-02T11:19:36.212Z,,,,,,,,,,,,,,,,,,,,,,,,,,,,true,1,,4374.1600000000035,,response,,,,,,,,,,,1,click #choice-1,,,,,,,,,265069,265063,260612.38,260614,260688.84,265069.04,,,
end of trap trial,html.Page,2_2_2,2022-05-02T11:19:38.069Z,,,,,,,,,,,,,,,,,,,,,,,,,,,,,,,1857.960000000021,,form submission,,,,,,,,,,,,,,,,,,,,,266927,266927,265068.4,265069,265069.04,266934.36,,,
Trap 1,flow.Sequence,2_2,2022-05-02T11:19:38.070Z,,,,,,,,,,,,,,,,,,,,,,,,,,,,,,,11234.559999999998,,completion,,,,,,,,,,,,,,,,,,,,,266927,266927,255689.88,255692,255692.44,266934.36,,,
Standby,html.Page,2_3_0,2022-05-02T11:19:46.057Z,,,,,,,,,,,,,,,,,,,,,,,,,,,,,,,7994.260000000009,,timeout,,,,,,,,,,,,,,,,,,,,,274914,274911.96,266924.92,266927,266934.36,274928.62,,,
Holding screen,html.Screen,2_3_1_0_0,2022-05-02T11:19:53.051Z,,,,,,,,,,,,,,,,,,,,,,,,,,,,,,,6994.960000000021,,timeout,,,,,,,,,,,,,,,,,,,,,281908,281906.92,274911.96,274914,274928.62,281923.58,,,
screen,html.Screen,2_3_1_0_1_0,2022-05-02T11:19:53.747Z,,,,,,,,,,,,,,,,,12,,,,,,,,,,,,,,670.4199999999837,,response,,,,5,F,,,,,,Space,keypress(Space),,,,lyrical,,,,Some ------ ------ ------- ------ --- ------- -----------<br>-- ----- --- ---- -- --- ------ ---- - ---- -- ----------<br>-- ------ ---- --- ---- --- --- --- ----- -- -------- ---<br>------ ------- -------- --- ---- -- ------- ------------ --<br>------ -- ---- -- --- ---- -- -------- -- --- ------ ------,282605,282594,281906.92,281909,281923.58,282606.42,,0,Some
screen,html.Screen,2_3_1_0_1_1,2022-05-02T11:19:54.052Z,,,,,,,,,,,,,,,,,12,,,,,,,,,,,,,,285.5800000000163,,response,,,,5,F,,,,,,Space,keypress(Space),,,,lyrical,,,,---- months ------ ------- ------ --- ------- -----------<br>-- ----- --- ---- -- --- ------ ---- - ---- -- ----------<br>-- ------ ---- --- ---- --- --- --- ----- -- -------- ---<br>------ ------- -------- --- ---- -- ------- ------------ --<br>------ -- ---- -- --- ---- -- -------- -- --- ------ ------,282909,282892,282605.38,282605,282606.42,282922.86,,1,months
screen,html.Screen,2_3_1_0_1_2,2022-05-02T11:19:54.359Z,,,,,,,,,,,,,,,,,12,,,,,,,,,,,,,,280.14000000001397,,response,,,,5,F,,,,,,Space,keypress(Space),,,,lyrical,,,,"---- ------ later, ------- ------ --- ------- -----------<br>-- ----- --- ---- -- --- ------ ---- - ---- -- ----------<br>-- ------ ---- --- ---- --- --- --- ----- -- -------- ---<br>------ ------- -------- --- ---- -- ------- ------------ --<br>------ -- ---- -- --- ---- -- -------- -- --- ------ ------",283216,283203,282909.44,282909,282922.86,283222.64,,2,"later,"
screen,html.Screen,2_3_1_0_1_3,2022-05-02T11:19:54.754Z,,,,,,,,,,,,,,,,,12,,,,,,,,,,,,,,371.35999999998603,,response,,,,5,F,,,,,,Space,keypress(Space),,,,lyrical,,,,---- ------ ------ Michael ------ --- ------- -----------<br>-- ----- --- ---- -- --- ------ ---- - ---- -- ----------<br>-- ------ ---- --- ---- --- --- --- ----- -- -------- ---<br>------ ------- -------- --- ---- -- ------- ------------ --<br>------ -- ---- -- --- ---- -- -------- -- --- ------ ------,283611,283594,283216.96,283217,283222.64,283622.36,,3,Michael
screen,html.Screen,2_3_1_0_1_4,2022-05-02T11:19:55.153Z,,,,,,,,,,,,,,,,,12,,,,,,,,,,,,,,377.64000000001397,,response,,,,5,F,,,,,,Space,keypress(Space),,,,lyrical,,,,---- ------ ------ ------- Larson --- ------- -----------<br>-- ----- --- ---- -- --- ------ ---- - ---- -- ----------<br>-- ------ ---- --- ---- --- --- --- ----- -- -------- ---<br>------ ------- -------- --- ---- -- ------- ------------ --<br>------ -- ---- -- --- ---- -- -------- -- --- ------ ------,284011,284000,283611.78,283611,283622.36,284022.08,,4,Larson
screen,html.Screen,2_3_1_0_1_5,2022-05-02T11:19:55.561Z,,,,,,,,,,,,,,,,,12,,,,,,,,,,,,,,384.9199999999837,,response,,,,5,F,,,,,,Space,keypress(Space),,,,lyrical,,,,---- ------ ------ ------- ------ saw ------- -----------<br>-- ----- --- ---- -- --- ------ ---- - ---- -- ----------<br>-- ------ ---- --- ---- --- --- --- ----- -- -------- ---<br>------ ------- -------- --- ---- -- ------- ------------ --<br>------ -- ---- -- --- ---- -- -------- -- --- ------ ------,284418,284407,284010.72,284011,284022.08,284421.78,,5,saw
screen,html.Screen,2_3_1_0_1_6,2022-05-02T11:19:55.883Z,,,,,,,,,,,,,,,,,12,,,,,,,,,,,,,,313.21999999997206,,response,,,,5,F,,,,,,Space,keypress(Space),,,,lyrical,,,,---- ------ ------ ------- ------ --- another -----------<br>-- ----- --- ---- -- --- ------ ---- - ---- -- ----------<br>-- ------ ---- --- ---- --- --- --- ----- -- -------- ---<br>------ ------- -------- --- ---- -- ------- ------------ --<br>------ -- ---- -- --- ---- -- -------- -- --- ------ ------,284742,284735,284418.78,284419,284421.78,284754.88,,6,another
screen,html.Screen,2_3_1_0_1_7,2022-05-02T11:19:56.204Z,,,,,,,,,,,,,,,,,12,,,,,,,,,,,,,,293.11999999999534,,response,,,,5,F,,,,,,Space,keypress(Space),,,,lyrical,,,,---- ------ ------ ------- ------ --- ------- opportunity<br>-- ----- --- ---- -- --- ------ ---- - ---- -- ----------<br>-- ------ ---- --- ---- --- --- --- ----- -- -------- ---<br>------ ------- -------- --- ---- -- ------- ------------ --<br>------ -- ---- -- --- ---- -- -------- -- --- ------ ------,285060,285048,284741.82,284742,284754.88,285071.32,,7,opportunity
screen,html.Screen,2_3_1_0_1_8,2022-05-02T11:19:56.577Z,,,,,,,,,,,,,,,,,12,,,,,,,,,,,,,,350.679999999993,,response,,,,5,F,,,,,,Space,keypress(Space),,,,lyrical,,,,---- ------ ------ ------- ------ --- ------- -----------<br>to ----- --- ---- -- --- ------ ---- - ---- -- ----------<br>-- ------ ---- --- ---- --- --- --- ----- -- -------- ---<br>------ ------- -------- --- ---- -- ------- ------------ --<br>------ -- ---- -- --- ---- -- -------- -- --- ------ ------,285434,285422,285061.16,285061,285071.32,285437.72,,8,to
screen,html.Screen,2_3_1_0_1_9,2022-05-02T11:19:56.843Z,,,,,,,,,,,,,,,,,12,,,,,,,,,,,,,,251.28000000002794,,response,,,,5,F,,,,,,Space,keypress(Space),,,,lyrical,,,,---- ------ ------ ------- ------ --- ------- -----------<br>-- stack --- ---- -- --- ------ ---- - ---- -- ----------<br>-- ------ ---- --- ---- --- --- --- ----- -- -------- ---<br>------ ------- -------- --- ---- -- ------- ------------ --<br>------ -- ---- -- --- ---- -- -------- -- --- ------ ------,285700,285689,285434.5,285435,285437.72,285720.86,,9,stack
screen,html.Screen,2_3_1_0_1_10,2022-05-02T11:19:57.195Z,,,,,,,,,,,,,,,,,12,,,,,,,,,,,,,,327.14000000001397,,response,,,,5,F,,,,,,Space,keypress(Space),,,,lyrical,,,,---- ------ ------ ------- ------ --- ------- -----------<br>-- ----- the ---- -- --- ------ ---- - ---- -- ----------<br>-- ------ ---- --- ---- --- --- --- ----- -- -------- ---<br>------ ------- -------- --- ---- -- ------- ------------ --<br>------ -- ---- -- --- ---- -- -------- -- --- ------ ------,286053,286048,285705,285700,285720.86,286053.94,,10,the
screen,html.Screen,2_3_1_0_1_11,2022-05-02T11:19:57.489Z,,,,,,,,,,,,,,,,,12,,,,,,,,,,,,,,274.0599999999977,,response,,,,5,F,,,,,,Space,keypress(Space),,,,lyrical,,,,---- ------ ------ ------- ------ --- ------- -----------<br>-- ----- --- odds -- --- ------ ---- - ---- -- ----------<br>-- ------ ---- --- ---- --- --- --- ----- -- -------- ---<br>------ ------- -------- --- ---- -- ------- ------------ --<br>------ -- ---- -- --- ---- -- -------- -- --- ------ ------,286347,286328,286053.06,286053,286053.94,286353.74,,11,odds
screen,html.Screen,2_3_1_0_1_12,2022-05-02T11:19:57.842Z,,,,,,,,,,,,,,,,,12,,,,,,,,,,,,,,334.2600000000093,,response,,,,5,F,,,,,,Space,keypress(Space),,,,lyrical,,,,---- ------ ------ ------- ------ --- ------- -----------<br>-- ----- --- ---- in --- ------ ---- - ---- -- ----------<br>-- ------ ---- --- ---- --- --- --- ----- -- -------- ---<br>------ ------- -------- --- ---- -- ------- ------------ --<br>------ -- ---- -- --- ---- -- -------- -- --- ------ ------,286701,286688,286347.48,286347,286353.74,286703.48,,12,in
screen,html.Screen,2_3_1_0_1_13,2022-05-02T11:19:58.145Z,,,,,,,,,,,,,,,,,12,,,,,,,,,,,,,,281.5200000000186,,response,,,,5,F,,,,,,Space,keypress(Space),,,,lyrical,,,,---- ------ ------ ------- ------ --- ------- -----------<br>-- ----- --- ---- -- his ------ ---- - ---- -- ----------<br>-- ------ ---- --- ---- --- --- --- ----- -- -------- ---<br>------ ------- -------- --- ---- -- ------- ------------ --<br>------ -- ---- -- --- ---- -- -------- -- --- ------ ------,287004,286985,286700.76,286701,286703.48,287019.92,,13,his
screen,html.Screen,2_3_1_0_1_14,2022-05-02T11:19:58.494Z,,,,,,,,,,,,,,,,,12,,,,,,,,,,,,,,324.0800000000163,,response,,,,5,F,,,,,,Space,keypress(Space),,,,lyrical,,,,---- ------ ------ ------- ------ --- ------- -----------<br>-- ----- --- ---- -- --- favour ---- - ---- -- ----------<br>-- ------ ---- --- ---- --- --- --- ----- -- -------- ---<br>------ ------- -------- --- ---- -- ------- ------------ --<br>------ -- ---- -- --- ---- -- -------- -- --- ------ ------,287352,287344,287003.68,287004,287019.92,287353.02,,14,favour
screen,html.Screen,2_3_1_0_1_15,2022-05-02T11:19:58.880Z,,,,,,,,,,,,,,,,,12,,,,,,,,,,,,,,365.9799999999814,,response,,,,5,F,,,,,,Space,keypress(Space),,,,lyrical,,,,---- ------ ------ ------- ------ --- ------- -----------<br>-- ----- --- ---- -- --- ------ with - ---- -- ----------<br>-- ------ ---- --- ---- --- --- --- ----- -- -------- ---<br>------ ------- -------- --- ---- -- ------- ------------ --<br>------ -- ---- -- --- ---- -- -------- -- --- ------ ------,287737,287719,287352.54,287352,287353.02,287752.72,,15,with
screen,html.Screen,2_3_1_0_1_16,2022-05-02T11:19:59.197Z,,,,,,,,,,,,,,,,,12,,,,,,,,,,,,,,294.28000000002794,,response,,,,5,F,,,,,,Space,keypress(Space),,,,lyrical,,,,---- ------ ------ ------- ------ --- ------- -----------<br>-- ----- --- ---- -- --- ------ ---- a ---- -- ----------<br>-- ------ ---- --- ---- --- --- --- ----- -- -------- ---<br>------ ------- -------- --- ---- -- ------- ------------ --<br>------ -- ---- -- --- ---- -- -------- -- --- ------ ------,288054,288047,287737.42,287737,287752.72,288069.16,,16,a
screen,html.Screen,2_3_1_0_1_17,2022-05-02T11:19:59.520Z,,,,,,,,,,,,,,,,,12,,,,,,,,,,,,,,290.8400000000256,,response,,,,5,F,,,,,,Space,keypress(Space),,,,lyrical,,,,---- ------ ------ ------- ------ --- ------- -----------<br>-- ----- --- ---- -- --- ------ ---- - dash -- ----------<br>-- ------ ---- --- ---- --- --- --- ----- -- -------- ---<br>------ ------- -------- --- ---- -- ------- ------------ --<br>------ -- ---- -- --- ---- -- -------- -- --- ------ ------,288378,288360,288054.62,288054,288069.16,288385.6,,17,dash
screen,html.Screen,2_3_1_0_1_18,2022-05-02T11:19:59.854Z,,,,,,,,,,,,,,,,,12,,,,,,,,,,,,,,317.4000000000233,,response,,,,5,F,,,,,,Space,keypress(Space),,,,lyrical,,,,---- ------ ------ ------- ------ --- ------- -----------<br>-- ----- --- ---- -- --- ------ ---- - ---- of ----------<br>-- ------ ---- --- ---- --- --- --- ----- -- -------- ---<br>------ ------- -------- --- ---- -- ------- ------------ --<br>------ -- ---- -- --- ---- -- -------- -- --- ------ ------,288712,288703,288378.5,288379,288385.6,288718.7,,18,of
screen,html.Screen,2_3_1_0_1_19,2022-05-02T11:20:00.189Z,,,,,,,,,,,,,,,,,12,,,,,,,,,,,,,,313.29999999998836,,response,,,,5,F,,,,,,Space,keypress(Space),,,,lyrical,,,,---- ------ ------ ------- ------ --- ------- -----------<br>-- ----- --- ---- -- --- ------ ---- - ---- -- ingenuity.<br>-- ------ ---- --- ---- --- --- --- ----- -- -------- ---<br>------ ------- -------- --- ---- -- ------- ------------ --<br>------ -- ---- -- --- ---- -- -------- -- --- ------ ------,289046,289032,288712.72,288713,288718.7,289051.8,,19,ingenuity.
screen,html.Screen,2_3_1_0_1_20,2022-05-02T11:20:00.582Z,,,,,,,,,,,,,,,,,12,,,,,,,,,,,,,,370.20000000001164,,response,,,,5,F,,,,,,Space,keypress(Space),,,,lyrical,,,,---- ------ ------ ------- ------ --- ------- -----------<br>-- ----- --- ---- -- --- ------ ---- - ---- -- ----------<br>He ------ ---- --- ---- --- --- --- ----- -- -------- ---<br>------ ------- -------- --- ---- -- ------- ------------ --<br>------ -- ---- -- --- ---- -- -------- -- --- ------ ------,289439,289422,289046.66,289046,289051.8,289451.5,,20,He
screen,html.Screen,2_3_1_0_1_21,2022-05-02T11:20:00.901Z,,,,,,,,,,,,,,,,,12,,,,,,,,,,,,,,298.5,,response,,,,5,F,,,,,,Space,keypress(Space),,,,lyrical,,,,---- ------ ------ ------- ------ --- ------- -----------<br>-- ----- --- ---- -- --- ------ ---- - ---- -- ----------<br>-- walked ---- --- ---- --- --- --- ----- -- -------- ---<br>------ ------- -------- --- ---- -- ------- ------------ --<br>------ -- ---- -- --- ---- -- -------- -- --- ------ ------,289758,289750,289439.98,289439,289451.5,289767.94,,21,walked
screen,html.Screen,2_3_1_0_1_22,2022-05-02T11:20:01.304Z,,,,,,,,,,,,,,,,,12,,,,,,,,,,,,,,389.0599999999977,,response,,,,5,F,,,,,,Space,keypress(Space),,,,lyrical,,,,---- ------ ------ ------- ------ --- ------- -----------<br>-- ----- --- ---- -- --- ------ ---- - ---- -- ----------<br>-- ------ into --- ---- --- --- --- ----- -- -------- ---<br>------ ------- -------- --- ---- -- ------- ------------ --<br>------ -- ---- -- --- ---- -- -------- -- --- ------ ------,290161,290157,289758.46,289758,289767.94,290167.66,,22,into
screen,html.Screen,2_3_1_0_1_23,2022-05-02T11:20:01.657Z,,,,,,,,,,,,,,,,,12,,,,,,,,,,,,,,333.3400000000256,,response,,,,5,F,,,,,,Space,keypress(Space),,,,lyrical,,,,---- ------ ------ ------- ------ --- ------- -----------<br>-- ----- --- ---- -- --- ------ ---- - ---- -- ----------<br>-- ------ ---- his ---- --- --- --- ----- -- -------- ---<br>------ ------- -------- --- ---- -- ------- ------------ --<br>------ -- ---- -- --- ---- -- -------- -- --- ------ ------,290514,290501,290161.74,290162,290167.66,290517.4,,23,his
screen,html.Screen,2_3_1_0_1_24,2022-05-02T11:20:01.985Z,,,,,,,,,,,,,,,,,12,,,,,,,,,,,,,,310.5999999999767,,response,,,,5,F,,,,,,Space,keypress(Space),,,,lyrical,,,,---- ------ ------ ------- ------ --- ------- -----------<br>-- ----- --- ---- -- --- ------ ---- - ---- -- ----------<br>-- ------ ---- --- bank --- --- --- ----- -- -------- ---<br>------ ------- -------- --- ---- -- ------- ------------ --<br>------ -- ---- -- --- ---- -- -------- -- --- ------ ------,290842,290828,290515.06,290515,290517.4,290850.5,,24,bank
screen,html.Screen,2_3_1_0_1_25,2022-05-02T11:20:02.321Z,,,,,,,,,,,,,,,,,12,,,,,,,,,,,,,,322.5,,response,,,,5,F,,,,,,Space,keypress(Space),,,,lyrical,,,,---- ------ ------ ------- ------ --- ------- -----------<br>-- ----- --- ---- -- --- ------ ---- - ---- -- ----------<br>-- ------ ---- --- ---- one --- --- ----- -- -------- ---<br>------ ------- -------- --- ---- -- ------- ------------ --<br>------ -- ---- -- --- ---- -- -------- -- --- ------ ------,291178,291173,290842.12,290842,290850.5,291183.6,,25,one
screen,html.Screen,2_3_1_0_1_26,2022-05-02T11:20:02.653Z,,,,,,,,,,,,,,,,,12,,,,,,,,,,,,,,317.4000000000233,,response,,,,5,F,,,,,,Space,keypress(Space),,,,lyrical,,,,---- ------ ------ ------- ------ --- ------- -----------<br>-- ----- --- ---- -- --- ------ ---- - ---- -- ----------<br>-- ------ ---- --- ---- --- day --- ----- -- -------- ---<br>------ ------- -------- --- ---- -- ------- ------------ --<br>------ -- ---- -- --- ---- -- -------- -- --- ------ ------,291511,291501,291178.42,291179,291183.6,291516.68,,26,day
screen,html.Screen,2_3_1_0_1_27,2022-05-02T11:20:03.005Z,,,,,,,,,,,,,,,,,12,,,,,,,,,,,,,,343.320000000007,,response,,,,5,F,,,,,,Space,keypress(Space),,,,lyrical,,,,---- ------ ------ ------- ------ --- ------- -----------<br>-- ----- --- ---- -- --- ------ ---- - ---- -- ----------<br>-- ------ ---- --- ---- --- --- and ----- -- -------- ---<br>------ ------- -------- --- ---- -- ------- ------------ --<br>------ -- ---- -- --- ---- -- -------- -- --- ------ ------,291863,291860,291511.32,291511,291516.68,291866.44,,27,and
screen,html.Screen,2_3_1_0_1_28,2022-05-02T11:20:03.356Z,,,,,,,,,,,,,,,,,12,,,,,,,,,,,,,,336.5599999999977,,response,,,,5,F,,,,,,Space,keypress(Space),,,,lyrical,,,,---- ------ ------ ------- ------ --- ------- -----------<br>-- ----- --- ---- -- --- ------ ---- - ---- -- ----------<br>-- ------ ---- --- ---- --- --- --- asked -- -------- ---<br>------ ------- -------- --- ---- -- ------- ------------ --<br>------ -- ---- -- --- ---- -- -------- -- --- ------ ------,292212,292203,291862.88,291863,291866.44,292216.18,,28,asked
screen,html.Screen,2_3_1_0_1_29,2022-05-02T11:20:03.740Z,,,,,,,,,,,,,,,,,12,,,,,,,,,,,,,,361.820000000007,,response,,,,5,F,,,,,,Space,keypress(Space),,,,lyrical,,,,---- ------ ------ ------- ------ --- ------- -----------<br>-- ----- --- ---- -- --- ------ ---- - ---- -- ----------<br>-- ------ ---- --- ---- --- --- --- ----- to -------- ---<br>------ ------- -------- --- ---- -- ------- ------------ --<br>------ -- ---- -- --- ---- -- -------- -- --- ------ ------,292597,292578,292213.18,292213,292216.18,292599.24,,29,to
screen,html.Screen,2_3_1_0_1_30,2022-05-02T11:20:04.143Z,,,,,,,,,,,,,,,,,12,,,,,,,,,,,,,,385.7600000000093,,response,,,,5,F,,,,,,Space,keypress(Space),,,,lyrical,,,,---- ------ ------ ------- ------ --- ------- -----------<br>-- ----- --- ---- -- --- ------ ---- - ---- -- ----------<br>-- ------ ---- --- ---- --- --- --- ----- -- withdraw ---<br>------ ------- -------- --- ---- -- ------- ------------ --<br>------ -- ---- -- --- ---- -- -------- -- --- ------ ------,293000,292985,292597.78,292597,292599.24,293015.6,,30,withdraw
screen,html.Screen,2_3_1_0_1_31,2022-05-02T11:20:04.432Z,,,,,,,,,,,,,,,,,12,,,,,,,,,,,,,,267.4000000000233,,response,,,,5,F,,,,,,Space,keypress(Space),,,,lyrical,,,,---- ------ ------ ------- ------ --- ------- -----------<br>-- ----- --- ---- -- --- ------ ---- - ---- -- ----------<br>-- ------ ---- --- ---- --- --- --- ----- -- -------- his<br>------ ------- -------- --- ---- -- ------- ------------ --<br>------ -- ---- -- --- ---- -- -------- -- --- ------ ------,293290,293283,293001.36,293001,293015.6,293298.74,,31,his
screen,html.Screen,2_3_1_0_1_32,2022-05-02T11:20:04.755Z,,,,,,,,,,,,,,,,,12,,,,,,,,,,,,,,296.2600000000093,,response,,,,5,F,,,,,,Space,keypress(Space),,,,lyrical,,,,---- ------ ------ ------- ------ --- ------- -----------<br>-- ----- --- ---- -- --- ------ ---- - ---- -- ----------<br>-- ------ ---- --- ---- --- --- --- ----- -- -------- ---<br>entire ------- -------- --- ---- -- ------- ------------ --<br>------ -- ---- -- --- ---- -- -------- -- --- ------ ------,293613,293595,293289.56,293290,293298.74,293615.18,,32,entire
screen,html.Screen,2_3_1_0_1_33,2022-05-02T11:20:05.275Z,,,,,,,,,,,,,,,,,12,,,,,,,,,,,,,,509.820000000007,,response,,,,5,F,,,,,,Space,keypress(Space),,,,lyrical,,,,---- ------ ------ ------- ------ --- ------- -----------<br>-- ----- --- ---- -- --- ------ ---- - ---- -- ----------<br>-- ------ ---- --- ---- --- --- --- ----- -- -------- ---<br>------ account -------- --- ---- -- ------- ------------ --<br>------ -- ---- -- --- ---- -- -------- -- --- ------ ------,294132,294125,293613.24,293613,293615.18,294148.12,,33,account
screen,html.Screen,2_3_1_0_1_34,2022-05-02T11:20:05.543Z,,,,,,,,,,,,,,,,,12,,,,,,,,,,,,,,242.88000000000466,,response,,,,5,F,,,,,,Space,keypress(Space),,,,lyrical,,,,"---- ------ ------ ------- ------ --- ------- -----------<br>-- ----- --- ---- -- --- ------ ---- - ---- -- ----------<br>-- ------ ---- --- ---- --- --- --- ----- -- -------- ---<br>------ ------- balance, --- ---- -- ------- ------------ --<br>------ -- ---- -- --- ---- -- -------- -- --- ------ ------",294400,294391,294133.16,294133,294148.12,294414.6,,34,"balance,"
screen,html.Screen,2_3_1_0_1_35,2022-05-02T11:20:05.917Z,,,,,,,,,,,,,,,,,12,,,,,,,,,,,,,,352.4000000000233,,response,,,,5,F,,,,,,Space,keypress(Space),,,,lyrical,,,,---- ------ ------ ------- ------ --- ------- -----------<br>-- ----- --- ---- -- --- ------ ---- - ---- -- ----------<br>-- ------ ---- --- ---- --- --- --- ----- -- -------- ---<br>------ ------- -------- but ---- -- ------- ------------ --<br>------ -- ---- -- --- ---- -- -------- -- --- ------ ------,294773,294767,294401.04,294401,294414.6,294781,,35,but
screen,html.Screen,2_3_1_0_1_36,2022-05-02T11:20:06.280Z,,,,,,,,,,,,,,,,,12,,,,,,,,,,,,,,345,,response,,,,5,F,,,,,,Space,keypress(Space),,,,lyrical,,,,---- ------ ------ ------- ------ --- ------- -----------<br>-- ----- --- ---- -- --- ------ ---- - ---- -- ----------<br>-- ------ ---- --- ---- --- --- --- ----- -- -------- ---<br>------ ------- -------- --- with -- ------- ------------ --<br>------ -- ---- -- --- ---- -- -------- -- --- ------ ------,295138,295126,294774.1,294774,294781,295147.4,,36,with
screen,html.Screen,2_3_1_0_1_37,2022-05-02T11:20:06.539Z,,,,,,,,,,,,,,,,,12,,,,,,,,,,,,,,243.59999999997672,,response,,,,5,F,,,,,,Space,keypress(Space),,,,lyrical,,,,---- ------ ------ ------- ------ --- ------- -----------<br>-- ----- --- ---- -- --- ------ ---- - ---- -- ----------<br>-- ------ ---- --- ---- --- --- --- ----- -- -------- ---<br>------ ------- -------- --- ---- an ------- ------------ --<br>------ -- ---- -- --- ---- -- -------- -- --- ------ ------,295396,295391,295138.3,295138,295147.4,295397.22,,37,an
screen,html.Screen,2_3_1_0_1_38,2022-05-02T11:20:06.918Z,,,,,,,,,,,,,,,,,12,,,,,,,,,,,,,,368.78000000002794,,response,,,,5,F,,,,,,Space,keypress(Space),,,,lyrical,,,,---- ------ ------ ------- ------ --- ------- -----------<br>-- ----- --- ---- -- --- ------ ---- - ---- -- ----------<br>-- ------ ---- --- ---- --- --- --- ----- -- -------- ---<br>------ ------- -------- --- ---- -- unusual ------------ --<br>------ -- ---- -- --- ---- -- -------- -- --- ------ ------,295775,295766,295396.7,295396,295397.22,295780.28,,38,unusual
screen,html.Screen,2_3_1_0_1_39,2022-05-02T11:20:07.236Z,,,,,,,,,,,,,,,,,12,,,,,,,,,,,,,,297.71999999997206,,response,,,,5,F,,,,,,Space,keypress(Space),,,,lyrical,,,,---- ------ ------ ------- ------ --- ------- -----------<br>-- ----- --- ---- -- --- ------ ---- - ---- -- ----------<br>-- ------ ---- --- ---- --- --- --- ----- -- -------- ---<br>------ ------- -------- --- ---- -- ------- stipulation: --<br>------ -- ---- -- --- ---- -- -------- -- --- ------ ------,296094,296078,295775.24,295775,295780.28,296096.72,,39,stipulation:
screen,html.Screen,2_3_1_0_1_40,2022-05-02T11:20:07.671Z,,,,,,,,,,,,,,,,,12,,,,,,,,,,,,,,419.28000000002794,,response,,,,5,F,,,,,,Space,keypress(Space),,,,lyrical,,,,---- ------ ------ ------- ------ --- ------- -----------<br>-- ----- --- ---- -- --- ------ ---- - ---- -- ----------<br>-- ------ ---- --- ---- --- --- --- ----- -- -------- ---<br>------ ------- -------- --- ---- -- ------- ------------ He<br>------ -- ---- -- --- ---- -- -------- -- --- ------ ------,296529,296516,296094,296094,296096.72,296529.74,,40,He
screen,html.Screen,2_3_1_0_1_41,2022-05-02T11:20:08.049Z,,,,,,,,,,,,,,,,,12,,,,,,,,,,,,,,361.2600000000093,,response,,,,5,F,,,,,,Space,keypress(Space),,,,lyrical,,,,---- ------ ------ ------- ------ --- ------- -----------<br>-- ----- --- ---- -- --- ------ ---- - ---- -- ----------<br>-- ------ ---- --- ---- --- --- --- ----- -- -------- ---<br>------ ------- -------- --- ---- -- ------- ------------ --<br>wanted -- ---- -- --- ---- -- -------- -- --- ------ ------,296906,296891,296529.16,296529,296529.74,296912.8,,41,wanted
screen,html.Screen,2_3_1_0_1_42,2022-05-02T11:20:08.573Z,,,,,,,,,,,,,,,,,12,,,,,,,,,,,,,,510.20000000001164,,response,,,,5,F,,,,,,Space,keypress(Space),,,,lyrical,,,,---- ------ ------ ------- ------ --- ------- -----------<br>-- ----- --- ---- -- --- ------ ---- - ---- -- ----------<br>-- ------ ---- --- ---- --- --- --- ----- -- -------- ---<br>------ ------- -------- --- ---- -- ------- ------------ --<br>------ as ---- -- --- ---- -- -------- -- --- ------ ------,297430,297423,296906.54,296907,296912.8,297445.76,,42,as
screen,html.Screen,2_3_1_0_1_43,2022-05-02T11:20:09.469Z,,,,,,,,,,,,,,,,,12,,,,,,,,,,,,,,867.2399999999907,,response,,,,5,F,,,,,,Space,keypress(Space),,,,lyrical,,,,---- ------ ------ ------- ------ --- ------- -----------<br>-- ----- --- ---- -- --- ------ ---- - ---- -- ----------<br>-- ------ ---- --- ---- --- --- --- ----- -- -------- ---<br>------ ------- -------- --- ---- -- ------- ------------ --<br>------ -- much -- --- ---- -- -------- -- --- ------ ------,298326,298313,297430.68,297430,297445.76,298328.46,,43,much
screen,html.Screen,2_3_1_0_1_44,2022-05-02T11:20:09.956Z,,,,,,,,,,,,,,,,,12,,,,,,,,,,,,,,468.53999999997905,,response,,,,5,F,,,,,,Space,keypress(Space),,,,lyrical,,,,---- ------ ------ ------- ------ --- ------- -----------<br>-- ----- --- ---- -- --- ------ ---- - ---- -- ----------<br>-- ------ ---- --- ---- --- --- --- ----- -- -------- ---<br>------ ------- -------- --- ---- -- ------- ------------ --<br>------ -- ---- of --- ---- -- -------- -- --- ------ ------,298814,298797,298326.64,298327,298328.46,298828.1,,44,of
screen,html.Screen,2_3_1_0_1_45,2022-05-02T11:20:11.651Z,,,,,,,,,,,,,,,,,12,,,,,,,,,,,,,,1671.9000000000233,,response,,,,5,F,,,,,,Space,keypress(Space),,,,lyrical,,,,---- ------ ------ ------- ------ --- ------- -----------<br>-- ----- --- ---- -- --- ------ ---- - ---- -- ----------<br>-- ------ ---- --- ---- --- --- --- ----- -- -------- ---<br>------ ------- -------- --- ---- -- ------- ------------ --<br>------ -- ---- -- the ---- -- -------- -- --- ------ ------,300508,300500,298813.88,298814,298828.1,300526.88,,45,the
screen,html.Screen,2_3_1_0_1_46,2022-05-02T11:20:11.963Z,,,,,,,,,,,,,,,,,12,,,,,,,,,,,,,,286.11999999999534,,response,,,,5,F,,,,,,Space,keypress(Space),,,,lyrical,,,,---- ------ ------ ------- ------ --- ------- -----------<br>-- ----- --- ---- -- --- ------ ---- - ---- -- ----------<br>-- ------ ---- --- ---- --- --- --- ----- -- -------- ---<br>------ ------- -------- --- ---- -- ------- ------------ --<br>------ -- ---- -- --- cash -- -------- -- --- ------ ------,300820,300813,300512.34,300508,300526.88,300826.66,,46,cash
screen,html.Screen,2_3_1_0_1_47,2022-05-02T11:20:12.258Z,,,,,,,,,,,,,,,,,12,,,,,,,,,,,,,,284.3400000000256,,response,,,,5,F,,,,,,Space,keypress(Space),,,,lyrical,,,,---- ------ ------ ------- ------ --- ------- -----------<br>-- ----- --- ---- -- --- ------ ---- - ---- -- ----------<br>-- ------ ---- --- ---- --- --- --- ----- -- -------- ---<br>------ ------- -------- --- ---- -- ------- ------------ --<br>------ -- ---- -- --- ---- as -------- -- --- ------ ------,301115,301111,300820.42,300821,300826.66,301126.44,,47,as
screen,html.Screen,2_3_1_0_1_48,2022-05-02T11:20:12.576Z,,,,,,,,,,,,,,,,,12,,,,,,,,,,,,,,296.5599999999977,,response,,,,5,F,,,,,,Space,keypress(Space),,,,lyrical,,,,---- ------ ------ ------- ------ --- ------- -----------<br>-- ----- --- ---- -- --- ------ ---- - ---- -- ----------<br>-- ------ ---- --- ---- --- --- --- ----- -- -------- ---<br>------ ------- -------- --- ---- -- ------- ------------ --<br>------ -- ---- -- --- ---- -- possible -- --- ------ ------,301433,301423,301115.36,301115,301126.44,301442.88,,48,possible
screen,html.Screen,2_3_1_0_1_49,2022-05-02T11:20:12.939Z,,,,,,,,,,,,,,,,,12,,,,,,,,,,,,,,339.11999999999534,,response,,,,5,F,,,,,,Space,keypress(Space),,,,lyrical,,,,---- ------ ------ ------- ------ --- ------- -----------<br>-- ----- --- ---- -- --- ------ ---- - ---- -- ----------<br>-- ------ ---- --- ---- --- --- --- ----- -- -------- ---<br>------ ------- -------- --- ---- -- ------- ------------ --<br>------ -- ---- -- --- ---- -- -------- in --- ------ ------,301797,301782,301433.98,301434,301442.88,301809.28,,49,in
screen,html.Screen,2_3_1_0_1_50,2022-05-02T11:20:13.264Z,,,,,,,,,,,,,,,,,12,,,,,,,,,,,,,,301.71999999997206,,response,,,,5,F,,,,,,Space,keypress(Space),,,,lyrical,,,,---- ------ ------ ------- ------ --- ------- -----------<br>-- ----- --- ---- -- --- ------ ---- - ---- -- ----------<br>-- ------ ---- --- ---- --- --- --- ----- -- -------- ---<br>------ ------- -------- --- ---- -- ------- ------------ --<br>------ -- ---- -- --- ---- -- -------- -- one ------ ------,302120,302111,301801.88,301797,301809.28,302125.72,,50,one
screen,html.Screen,2_3_1_0_1_51,2022-05-02T11:20:13.682Z,,,,,,,,,,,,,,,,,12,,,,,,,,,,,,,,406.28000000002794,,response,,,,5,F,,,,,,Space,keypress(Space),,,,lyrical,,,,---- ------ ------ ------- ------ --- ------- -----------<br>-- ----- --- ---- -- --- ------ ---- - ---- -- ----------<br>-- ------ ---- --- ---- --- --- --- ----- -- -------- ---<br>------ ------- -------- --- ---- -- ------- ------------ --<br>------ -- ---- -- --- ---- -- -------- -- --- dollar ------,302539,302532,302121.16,302121,302125.72,302542.1,,51,dollar
screen,html.Screen,2_3_1_0_1_52,2022-05-02T11:20:14.081Z,,,,,,,,,,,,,,,,,12,,,,,,,,,,,,,,379.9000000000233,,response,,,,5,F,,,,,,Space,keypress(Space),,,,lyrical,,,,---- ------ ------ ------- ------ --- ------- -----------<br>-- ----- --- ---- -- --- ------ ---- - ---- -- ----------<br>-- ------ ---- --- ---- --- --- --- ----- -- -------- ---<br>------ ------- -------- --- ---- -- ------- ------------ --<br>------ -- ---- -- --- ---- -- -------- -- --- ------ notes.,302938,302922,302539.82,302540,302542.1,302941.8,,52,notes.
Item 5,flow.Loop,2_3_1_0_1,2022-05-02T11:20:14.081Z,,,,,,,,,,,,,,,,,,,,,,,,,,,,,,,20998.419999999984,,completion,,,,,,,,,,,,,,,,,,,,,302939,302922,281906.92,281909,281923.58,302941.8,,,
Question 1,html.Screen,2_3_1_0_2,2022-05-02T11:20:17.448Z,,,,,,,,,,,,,,,,,,,,,,,,,,,,true,TRUE,,3355.2000000000116,,response,,,,5,F,,,,,,TRUE,click #choice-1,,,,lyrical,,,,,306305,306297,302939.18,302939,302941.8,306306.06,,,
Question 2,html.Screen,2_3_1_0_3,2022-05-02T11:20:21.646Z,,,,,,,,,,,,,,,,,,,,,,,,,,,,true,TRUE,,4179.940000000002,,response,,,,5,F,,,,,,TRUE,click #choice-1,,,,lyrical,,,,,310504,310486,306304.24,306305,306306.06,310519.7,,,
Item 5,flow.Sequence,2_3_1_0,2022-05-02T11:20:21.647Z,,,,,,,,,,,,,,,,,,,,,,,,,,,,,,,35557.380000000005,,completion,,,,,,,,,,,,,,,,,,,,,310504,310486,274911.96,274914,274928.62,310519.7,,,
Holding screen,html.Screen,2_3_1_1_0,2022-05-02T11:20:28.642Z,,,,,,,,,,,,,,,,,,,,,,,,,,,,,,,6994.959999999963,,timeout,,,,,,,,,,,,,,,,,,,,,317500,317498,310503.66,310504,310519.7,317514.66,,,
screen,html.Screen,2_3_1_1_1_0,2022-05-02T11:20:29.482Z,,,,,,,,,,,,,,,,,2,,,,,,,,,,,,,,813.3400000000256,,response,,,,1,F,,,,,,Space,keypress(Space),,,,lyrical,,,,Two ---- ------ --- ------- ---------- ------- ----------<br>--- --------- --- ----------- ------- ----- ------- ---<br>--------- ---- -- --- ---- -- --------- -- ---- -------<br>-- --------- ------ --- ----- ------ ---- --- --------- --<br>------ - ---- -- --- ----------- ------- ---- ----- -----<br>--- -------- - ------ ---- -- ----- ---- --- --- -----------<br>-- -------,318340,318328,317498,317501,317514.66,318347.4,,0,Two
