sender,sender_type,sender_id,timestamp,meta,,Blues,Classical,Country,Dance,Electronic,Folk,Gospel,Hip-Hop,Jazz,Latin,Musical/Film,New-age,Pop,Prolific_id,Provo_ID,R&B,Rap,Reggae,Religious,Rock,Soul,Swing,Traditional,age,artist_name,correct,correctResponse,distraction,duration,education,ended_on,familiarity,gender,headphone_check_performance,item,list,music_frequency,offensiveness,pleasantness,position_correct,preference,response,response_action,snippet_file,song_name,song_rating,sound,stimulus_1,stimulus_2,stimulus_3,text,time_commit,time_end,time_render,time_run,time_show,time_switch,url,word,word_ID
Prolific ID,html.Form,0,2022-05-02T12:04:19.312Z,"{""labjs_version"":""20.2.2"",""labjs_build"":{""flavor"":""production"",""commit"":""a25486e0c714a0ae2ce03ff94b7bb6896854dcfa""},""location"":""https://run.pavlovia.org/mvasilev/prolific3_music_g/"",""userAgent"":""Mozilla/5.0 (Windows NT 10.0; Win64; x64) AppleWebKit/537.36 (KHTML, like Gecko) Chrome/100.0.4896.127 Safari/537.36"",""platform"":""Win32"",""language"":""en-GB"",""locale"":""en-GB"",""timeZone"":""Europe/London"",""timezoneOffset"":-60,""screen_width"":1920,""screen_height"":1080,""scroll_width"":1920,""scroll_height"":921,""window_innerWidth"":1920,""window_innerHeight"":969,""devicePixelRatio"":1}",,,,,,,,,,,,,,,5b5523d6d8348500012cfccf,,,,,,,,,,,,,,,1391.8859999046326,,form submission,,,,,,,,,,,,,,,,,,,,,5020.899999856949,5020.599999904633,3611.982,3614.699999809265,3628.714,5028.728,{},,
Introduction,html.Screen,1_0,2022-05-02T12:04:23.414Z,,,,,,,,,,,,,,,,,,,,,,,,,,,,,,,4092.8719999046325,,response,,,,,,,,,,,continue,click button,,,,,,,,,9123,9121.599999904633,5012.068,5021,5028.728,9128.85,,,
Volume calibration,html.Screen,1_1,2022-05-02T12:04:25.299Z,,,,,,,,,,,,,,,,,,,,,,,,,,,,,,,1878.7499999046322,,response,,,,,,,,,,,continue,click button,,,,,,,,,11008.299999952316,11007.599999904633,9112.251,9123,9128.85,11012.256,,,
Task instructions,html.Screen,1_2,2022-05-02T12:04:26.907Z,,,,,,,,,,,,,,,,,,,,,,,,,,,,,,,1603.2440000000006,,response,,,,,,,,,,,continue,click button,,,,,,,,,12616,12615.5,10995.578,11008.299999952316,11012.256,12628.968,,,
Sounds,html.Screen,1_3_0_0,2022-05-02T12:04:31.155Z,,,,,,,,,,,,,,,,,,,,,,,,,,,,,,,4250.16,,timeout,,,,,,,,,2,,,,,,,,O,S,I,,16864.299999952316,16862.44,12612.369,12616.099999904633,12628.968,16879.128,,,
Judgement,html.Screen,1_3_0_1,2022-05-02T12:04:34.851Z,,,,,,,,,,,,,,,,,,,,,,,,,,,,true,2,,3680.471999904632,,response,,,,,,,,,2,,2,click #choice-2,,,,,O,S,I,,20560.199999809265,20559.599999904633,16862.44,16864.39999985695,16879.128,20562.581,,,
Trial,flow.Sequence,1_3_0,2022-05-02T12:04:34.852Z,,,,,,,,,,,,,,,,,,,,,,,,,,,,,,,7930.631999904632,,completion,,,,,,,,,2,,,,,,,,O,S,I,,20560.89999985695,20559.599999904633,12612.369,12616,12628.968,20562.581,,,
Sounds,html.Screen,1_3_1_0,2022-05-02T12:04:39.088Z,,,,,,,,,,,,,,,,,,,,,,,,,,,,,,,4250.108,,timeout,,,,,,,,,3,,,,,,,,O,I,S,,24797,24796.104,20545.876,20561.099999904633,20562.581,24812.689,,,
Judgement,html.Screen,1_3_1_1,2022-05-02T12:04:39.505Z,,,,,,,,,,,,,,,,,,,,,,,,,,,,true,3,,401.01099980926665,,response,,,,,,,,,3,,3,click #choice-3,,,,,O,I,S,,25214.299999952316,25213.699999809265,24796.104,24797.39999985695,24812.689,25229.374,,,
Trial,flow.Sequence,1_3_1,2022-05-02T12:04:39.505Z,,,,,,,,,,,,,,,,,,,,,,,,,,,,,,,4651.118999809267,,completion,,,,,,,,,3,,,,,,,,O,I,S,,25214.39999985695,25213.699999809265,20545.876,20561,20562.581,25229.374,,,
Sounds,html.Screen,1_3_2_0,2022-05-02T12:04:43.755Z,,,,,,,,,,,,,,,,,,,,,,,,,,,,,,,4250.271000000001,,timeout,,,,,,,,,3,,,,,,,,I,O,S,,29464.099999904633,29462.952,25212.767,25214.5,25229.374,29479.645,,,
Judgement,html.Screen,1_3_2_1,2022-05-02T12:04:46.667Z,,,,,,,,,,,,,,,,,,,,,,,,,,,,true,3,,2895.8549999999996,,response,,,,,,,,,3,,3,click #choice-3,,,,,I,O,S,,32376,32375.5,29462.952,29464.39999985695,29479.645,32379.625,,,
Trial,flow.Sequence,1_3_2,2022-05-02T12:04:46.667Z,,,,,,,,,,,,,,,,,,,,,,,,,,,,,,,7146.126,,completion,,,,,,,,,3,,,,,,,,I,O,S,,32376.199999809265,32375.5,25212.767,25214.5,25229.374,32379.625,,,
Sounds,html.Screen,1_3_3_0,2022-05-02T12:04:50.912Z,,,,,,,,,,,,,,,,,,,,,,,,,,,,,,,4250.186999999998,,timeout,,,,,,,,,1,,,,,,,,S,O,I,,36621.09999990463,36613.224,32362.956,32376.299999952316,32379.625,36629.812,,,
Judgement,html.Screen,1_3_3_1,2022-05-02T12:04:53.311Z,,,,,,,,,,,,,,,,,,,,,,,,,,,,true,1,,2389.587999856951,,response,,,,,,,,,1,,1,click #choice-1,,,,,S,O,I,,39020.09999990463,39019.39999985695,36613.224,36621.5,36629.812,39029.828,,,
Trial,flow.Sequence,1_3_3,2022-05-02T12:04:53.311Z,,,,,,,,,,,,,,,,,,,,,,,,,,,,,,,6639.774999856949,,completion,,,,,,,,,1,,,,,,,,S,O,I,,39020.09999990463,39019.39999985695,32362.956,32376.199999809265,32379.625,39029.828,,,
Sounds,html.Screen,1_3_4_0,2022-05-02T12:04:57.555Z,,,,,,,,,,,,,,,,,,,,,,,,,,,,,,,4250.208999999995,,timeout,,,,,,,,,2,,,,,,,,I,S,O,,43264.699999809265,43263.374,39013.165,39020.299999952316,39029.828,43280.037,,,
Judgement,html.Screen,1_3_4_1,2022-05-02T12:04:57.983Z,,,,,,,,,,,,,,,,,,,,,,,,,,,,true,2,,411.4630000000034,,response,,,,,,,,,2,,2,click #choice-2,,,,,I,S,O,,43692,43691.5,43263.374,43265,43280.037,43713.287,,,
Trial,flow.Sequence,1_3_4,2022-05-02T12:04:57.983Z,,,,,,,,,,,,,,,,,,,,,,,,,,,,,,,4661.671999999999,,completion,,,,,,,,,2,,,,,,,,I,S,O,,43692,43691.5,39013.165,39020.199999809265,39029.828,43713.287,,,
Sounds,html.Screen,1_3_5_0,2022-05-02T12:05:02.238Z,,,,,,,,,,,,,,,,,,,,,,,,,,,,,,,4250.175000000003,,timeout,,,,,,,,,1,,,,,,,,S,I,O,,47947.39999985695,47946.789,43696.631,43692.09999990463,43713.287,47963.462,,,
Judgement,html.Screen,1_3_5_1,2022-05-02T12:05:02.625Z,,,,,,,,,,,,,,,,,,,,,,,,,,,,true,1,,369.9379998569493,,response,,,,,,,,,1,,1,click #choice-1,,,,,S,I,O,,48334.09999990463,48333.39999985695,47946.789,47947.5,47963.462,48346.766,,,
Trial,flow.Sequence,1_3_5,2022-05-02T12:05:02.625Z,,,,,,,,,,,,,,,,,,,,,,,,,,,,,,,4620.112999856952,,completion,,,,,,,,,1,,,,,,,,S,I,O,,48334.199999809265,48333.39999985695,43696.631,43692.09999990463,43713.287,48346.766,,,
Task,flow.Loop,1_3,2022-05-02T12:05:02.627Z,,,,,,,,,,,,,,,,,,,,,,,,,,,,,,,35704.43199985695,,completion,,,1,,,,,,,,,,,,,,,,,,48336.799999952316,48333.39999985695,12612.369,12616,12628.968,48346.766,,,
Trap,html.Screen,1_4,2022-05-02T12:05:02.628Z,,,,,,,,,,,,,,,,,,,,,,,,,,,,,,,NaN,,skipped,,,,,,,,,,,,,,,,,,,,,48337.299999952316,48333.39999985695,,48337.299999952316,,48346.766,,,
Thanks,html.Screen,1_5,2022-05-02T12:05:06.487Z,,,,,,,,,,,,,,,,,,,,,,,,,,,,,,,3848.8339999046293,,response,,,,,,,,,,,continue,click button,,,,,,,,,52196.199999809265,52195.59999990463,48330.167,48337.39999985695,48346.766,54663.652,,,
Headphone screening,flow.Sequence,1,2022-05-02T12:05:06.487Z,,,,,,,,,,,,,,,,,,,,,,,,,,,,,,,47166.87199990463,,completion,,,,,,,,,,,,,,,,,,,,,52196.299999952316,52195.59999990463,5012.068,5021,5028.728,54663.652,,,
Instructions,html.Page,2_0,2022-05-02T12:05:33.728Z,,,,,,,,,,,,,,,,,,,,,,,,,,,,,,,24773.547999809263,,form submission,,,,,,,,,,,,,,,,,,,,,79437.39999985695,79437.19999980927,54647.014,54648.89999985695,54663.652,79447.759,,,
Holding screen,html.Screen,2_1_0_0,2022-05-02T12:05:43.723Z,,,,,,,,,,,,,,,,,,,,,,,,,,,,,,,10000.409999999989,,timeout,,,,,,,,,,,,,,,,,,,,,89432.29999995232,89431.49,79431.107,79437.5,79447.759,89448.169,,,
screen,html.Screen,2_1_0_1_0,2022-05-02T12:05:44.916Z,,,,,,,,,,,,,,,,,53,,,,,,,,,,,,,,1175.8310000000056,,response,,,,99,,,,,,,Space,keypress(Space),,,,,,,,When -- ----- -- ------ - ------- --- ----------<br>------------- ------ ------ ---- ---- ------- ----- -- ----<br>-------- ------- -- ---------- --- - --- ----- ----- ----<br>---- --- --- ----- --- ---- ---- ------- ----- ---- -------<br>--- --- -- ----- -- --- ---- -- --- ---- -- ------ ------<br>--- ----- -- ----,90625.39999985695,90624,89431.49,89432.69999980927,89448.169,90631.462,,0,When
screen,html.Screen,2_1_0_1_1,2022-05-02T12:05:45.362Z,,,,,,,,,,,,,,,,,53,,,,,,,,,,,,,,440.03800000000047,,response,,,,99,,,,,,,Space,keypress(Space),,,,,,,,---- it ----- -- ------ - ------- --- ----------<br>------------- ------ ------ ---- ---- ------- ----- -- ----<br>-------- ------- -- ---------- --- - --- ----- ----- ----<br>---- --- --- ----- --- ---- ---- ------- ----- ---- -------<br>--- --- -- ----- -- --- ---- -- --- ---- -- ------ ------<br>--- ----- -- ----,91071.79999995232,91071.5,90614.712,90625.5,90631.462,91081.479,,1,it
screen,html.Screen,2_1_0_1_2,2022-05-02T12:05:45.844Z,,,,,,,,,,,,,,,,,53,,,,,,,,,,,,,,470.7209998092585,,response,,,,99,,,,,,,Space,keypress(Space),,,,,,,,---- -- comes -- ------ - ------- --- ----------<br>------------- ------ ------ ---- ---- ------- ----- -- ----<br>-------- ------- -- ---------- --- - --- ----- ----- ----<br>---- --- --- ----- --- ---- ---- ------- ----- ---- -------<br>--- --- -- ----- -- --- ---- -- --- ---- -- ------ ------<br>--- ----- -- ----,91553.19999980927,91552.19999980927,91064.792,91071.89999985695,91081.479,91564.887,,2,comes
screen,html.Screen,2_1_0_1_3,2022-05-02T12:05:46.260Z,,,,,,,,,,,,,,,,,53,,,,,,,,,,,,,,403.61299999999756,,response,,,,99,,,,,,,Space,keypress(Space),,,,,,,,---- -- ----- to ------ - ------- --- ----------<br>------------- ------ ------ ---- ---- ------- ----- -- ----<br>-------- ------- -- ---------- --- - --- ----- ----- ----<br>---- --- --- ----- --- ---- ---- ------- ----- ---- -------<br>--- --- -- ----- -- --- ---- -- --- ---- -- ------ ------<br>--- ----- -- ----,91969.59999990463,91968.5,91548.109,91553.39999985695,91564.887,91981.638,,3,to
screen,html.Screen,2_1_0_1_4,2022-05-02T12:05:46.740Z,,,,,,,,,,,,,,,,,53,,,,,,,,,,,,,,466.56199980925885,,response,,,,99,,,,,,,Space,keypress(Space),,,,,,,,---- -- ----- -- having - ------- --- ----------<br>------------- ------ ------ ---- ---- ------- ----- -- ----<br>-------- ------- -- ---------- --- - --- ----- ----- ----<br>---- --- --- ----- --- ---- ---- ------- ----- ---- -------<br>--- --- -- ----- -- --- ---- -- --- ---- -- ------ ------<br>--- ----- -- ----,92449.19999980927,92448.19999980927,91964.87,91969.89999985695,91981.638,92464.921,,4,having
screen,html.Screen,2_1_0_1_5,2022-05-02T12:05:47.146Z,,,,,,,,,,,,,,,,,53,,,,,,,,,,,,,,390.3789999523142,,response,,,,99,,,,,,,Space,keypress(Space),,,,,,,,---- -- ----- -- ------ a ------- --- ----------<br>------------- ------ ------ ---- ---- ------- ----- -- ----<br>-------- ------- -- ---------- --- - --- ----- ----- ----<br>---- --- --- ----- --- ---- ---- ------- ----- ---- -------<br>--- --- -- ----- -- --- ---- -- --- ---- -- ------ ------<br>--- ----- -- ----,92855.59999990463,92855.29999995232,92448.21,92449.39999985695,92464.921,92864.857,,5,a
screen,html.Screen,2_1_0_1_6,2022-05-02T12:05:47.634Z,,,,,,,,,,,,,,,,,53,,,,,,,,,,,,,,478.6429999999964,,response,,,,99,,,,,,,Space,keypress(Space),,,,,,,,---- -- ----- -- ------ - lasting --- ----------<br>------------- ------ ------ ---- ---- ------- ----- -- ----<br>-------- ------- -- ---------- --- - --- ----- ----- ----<br>---- --- --- ----- --- ---- ---- ------- ----- ---- -------<br>--- --- -- ----- -- --- ---- -- --- ---- -- ------ ------<br>--- ----- -- ----,93343.79999995232,93343.5,92848.231,92855.69999980927,92864.857,93348.192,,6,lasting
screen,html.Screen,2_1_0_1_7,2022-05-02T12:05:48.044Z,,,,,,,,,,,,,,,,,53,,,,,,,,,,,,,,403.9079999046371,,response,,,,99,,,,,,,Space,keypress(Space),,,,,,,,---- -- ----- -- ------ - ------- and ----------<br>------------- ------ ------ ---- ---- ------- ----- -- ----<br>-------- ------- -- ---------- --- - --- ----- ----- ----<br>---- --- --- ----- --- ---- ---- ------- ----- ---- -------<br>--- --- -- ----- -- --- ---- -- --- ---- -- ------ ------<br>--- ----- -- ----,93753.09999990463,93752.09999990463,93331.511,93343.89999985695,93348.192,93764.974,,7,and
screen,html.Screen,2_1_0_1_8,2022-05-02T12:05:48.508Z,,,,,,,,,,,,,,,,,53,,,,,,,,,,,,,,451.22599980926316,,response,,,,99,,,,,,,Space,keypress(Space),,,,,,,,---- -- ----- -- ------ - ------- --- fulfilling<br>------------- ------ ------ ---- ---- ------- ----- -- ----<br>-------- ------- -- ---------- --- - --- ----- ----- ----<br>---- --- --- ----- --- ---- ---- ------- ----- ---- -------<br>--- --- -- ----- -- --- ---- -- --- ---- -- ------ ------<br>--- ----- -- ----,94217.19999980927,94216.19999980927,93748.194,93753.39999985695,93764.974,94231.558,,8,fulfilling
screen,html.Screen,2_1_0_1_9,2022-05-02T12:05:48.940Z,,,,,,,,,,,,,,,,,53,,,,,,,,,,,,,,416.541999904628,,response,,,,99,,,,,,,Space,keypress(Space),,,,,,,,"---- -- ----- -- ------ - ------- --- ----------<br>relationship, ------ ------ ---- ---- ------- ----- -- ----<br>-------- ------- -- ---------- --- - --- ----- ----- ----<br>---- --- --- ----- --- ---- ---- ------- ----- ---- -------<br>--- --- -- ----- -- --- ---- -- --- ---- -- ------ ------<br>--- ----- -- ----",94649.09999990463,94648.09999990463,94214.935,94217.5,94231.558,94664.991,,9,"relationship,"
screen,html.Screen,2_1_0_1_10,2022-05-02T12:05:49.354Z,,,,,,,,,,,,,,,,,53,,,,,,,,,,,,,,398.4089998569543,,response,,,,99,,,,,,,Space,keypress(Space),,,,,,,,---- -- ----- -- ------ - ------- --- ----------<br>------------- common ------ ---- ---- ------- ----- -- ----<br>-------- ------- -- ---------- --- - --- ----- ----- ----<br>---- --- --- ----- --- ---- ---- ------- ----- ---- -------<br>--- --- -- ----- -- --- ---- -- --- ---- -- ------ ------<br>--- ----- -- ----,95063.79999995232,95063.39999985695,94648.223,94649.39999985695,94664.991,95082.199,,10,common
screen,html.Screen,2_1_0_1_11,2022-05-02T12:05:49.828Z,,,,,,,,,,,,,,,,,53,,,,,,,,,,,,,,453.9009999046393,,response,,,,99,,,,,,,Space,keypress(Space),,,,,,,,---- -- ----- -- ------ - ------- --- ----------<br>------------- ------ wisdom ---- ---- ------- ----- -- ----<br>-------- ------- -- ---------- --- - --- ----- ----- ----<br>---- --- --- ----- --- ---- ---- ------- ----- ---- -------<br>--- --- -- ----- -- --- ---- -- --- ---- -- ------ ------<br>--- ----- -- ----,95537.09999990463,95536.09999990463,95048.296,95063.89999985695,95082.199,95548.347,,11,wisdom
screen,html.Screen,2_1_0_1_12,2022-05-02T12:05:50.218Z,,,,,,,,,,,,,,,,,53,,,,,,,,,,,,,,379.05299985695456,,response,,,,99,,,,,,,Space,keypress(Space),,,,,,,,---- -- ----- -- ------ - ------- --- ----------<br>------------- ------ ------ says ---- ------- ----- -- ----<br>-------- ------- -- ---------- --- - --- ----- ----- ----<br>---- --- --- ----- --- ---- ---- ------- ----- ---- -------<br>--- --- -- ----- -- --- ---- -- --- ---- -- ------ ------<br>--- ----- -- ----,95927.79999995232,95927.39999985695,95531.584,95537.39999985695,95548.347,95931.627,,12,says
screen,html.Screen,2_1_0_1_13,2022-05-02T12:05:50.562Z,,,,,,,,,,,,,,,,,53,,,,,,,,,,,,,,339.87300000000687,,response,,,,99,,,,,,,Space,keypress(Space),,,,,,,,---- -- ----- -- ------ - ------- --- ----------<br>------------- ------ ------ ---- that ------- ----- -- ----<br>-------- ------- -- ---------- --- - --- ----- ----- ----<br>---- --- --- ----- --- ---- ---- ------- ----- ---- -------<br>--- --- -- ----- -- --- ---- -- --- ---- -- ------ ------<br>--- ----- -- ----,96271.79999995232,96271.5,95914.917,95927.89999985695,95931.627,96281.664,,13,that
screen,html.Screen,2_1_0_1_14,2022-05-02T12:05:50.978Z,,,,,,,,,,,,,,,,,53,,,,,,,,,,,,,,405.635999952312,,response,,,,99,,,,,,,Space,keypress(Space),,,,,,,,---- -- ----- -- ------ - ------- --- ----------<br>------------- ------ ------ ---- ---- feeling ----- -- ----<br>-------- ------- -- ---------- --- - --- ----- ----- ----<br>---- --- --- ----- --- ---- ---- ------- ----- ---- -------<br>--- --- -- ----- -- --- ---- -- --- ---- -- ------ ------<br>--- ----- -- ----,96687.59999990463,96687.29999995232,96264.993,96271.89999985695,96281.664,96698.334,,14,feeling
screen,html.Screen,2_1_0_1_15,2022-05-02T12:05:51.420Z,,,,,,,,,,,,,,,,,53,,,,,,,,,,,,,,429.66599999999744,,response,,,,99,,,,,,,Space,keypress(Space),,,,,,,,---- -- ----- -- ------ - ------- --- ----------<br>------------- ------ ------ ---- ---- ------- close -- ----<br>-------- ------- -- ---------- --- - --- ----- ----- ----<br>---- --- --- ----- --- ---- ---- ------- ----- ---- -------<br>--- --- -- ----- -- --- ---- -- --- ---- -- ------ ------<br>--- ----- -- ----,97129,97128,96681.652,96687.59999990463,96698.334,97131.773,,15,close
screen,html.Screen,2_1_0_1_16,2022-05-02T12:05:51.772Z,,,,,,,,,,,,,,,,,53,,,,,,,,,,,,,,348.3269999046315,,response,,,,99,,,,,,,Space,keypress(Space),,,,,,,,---- -- ----- -- ------ - ------- --- ----------<br>------------- ------ ------ ---- ---- ------- ----- to ----<br>-------- ------- -- ---------- --- - --- ----- ----- ----<br>---- --- --- ----- --- ---- ---- ------- ----- ---- -------<br>--- --- -- ----- -- --- ---- -- --- ---- -- ------ ------<br>--- ----- -- ----,97481.19999980927,97480.09999990463,97114.988,97129.39999985695,97131.773,97498.433,,16,to
screen,html.Screen,2_1_0_1_17,2022-05-02T12:05:52.186Z,,,,,,,,,,,,,,,,,53,,,,,,,,,,,,,,397.06699999999546,,response,,,,99,,,,,,,Space,keypress(Space),,,,,,,,---- -- ----- -- ------ - ------- --- ----------<br>------------- ------ ------ ---- ---- ------- ----- -- your<br>-------- ------- -- ---------- --- - --- ----- ----- ----<br>---- --- --- ----- --- ---- ---- ------- ----- ---- -------<br>--- --- -- ----- -- --- ---- -- --- ---- -- ------ ------<br>--- ----- -- ----,97895.89999985695,97895.5,97481.756,97481.39999985695,97498.433,97898.371,,17,your
screen,html.Screen,2_1_0_1_18,2022-05-02T12:05:52.604Z,,,,,,,,,,,,,,,,,53,,,,,,,,,,,,,,413.7289999046334,,response,,,,99,,,,,,,Space,keypress(Space),,,,,,,,---- -- ----- -- ------ - ------- --- ----------<br>------------- ------ ------ ---- ---- ------- ----- -- ----<br>romantic ------- -- ---------- --- - --- ----- ----- ----<br>---- --- --- ----- --- ---- ---- ------- ----- ---- -------<br>--- --- -- ----- -- --- ---- -- --- ---- -- ------ ------<br>--- ----- -- ----,98313.29999995232,98312.09999990463,97881.68,97895.89999985695,97898.371,98315.102,,18,romantic
screen,html.Screen,2_1_0_1_19,2022-05-02T12:05:53.052Z,,,,,,,,,,,,,,,,,53,,,,,,,,,,,,,,445.19799995231733,,response,,,,99,,,,,,,Space,keypress(Space),,,,,,,,---- -- ----- -- ------ - ------- --- ----------<br>------------- ------ ------ ---- ---- ------- ----- -- ----<br>-------- partner -- ---------- --- - --- ----- ----- ----<br>---- --- --- ----- --- ---- ---- ------- ----- ---- -------<br>--- --- -- ----- -- --- ---- -- --- ---- -- ------ ------<br>--- ----- -- ----,98761.29999995232,98760.29999995232,98298.371,98313.5,98315.102,98765.148,,19,partner
screen,html.Screen,2_1_0_1_20,2022-05-02T12:05:53.426Z,,,,,,,,,,,,,,,,,53,,,,,,,,,,,,,,370.2519998569478,,response,,,,99,,,,,,,Space,keypress(Space),,,,,,,,---- -- ----- -- ------ - ------- --- ----------<br>------------- ------ ------ ---- ---- ------- ----- -- ----<br>-------- ------- is ---------- --- - --- ----- ----- ----<br>---- --- --- ----- --- ---- ---- ------- ----- ---- -------<br>--- --- -- ----- -- --- ---- -- --- ---- -- ------ ------<br>--- ----- -- ----,99135.89999985695,99135.39999985695,98748.351,98761.59999990463,98765.148,99148.461,,20,is
screen,html.Screen,2_1_0_1_21,2022-05-02T12:05:54.060Z,,,,,,,,,,,,,,,,,53,,,,,,,,,,,,,,619.6389999046369,,response,,,,99,,,,,,,Space,keypress(Space),,,,,,,,---- -- ----- -- ------ - ------- --- ----------<br>------------- ------ ------ ---- ---- ------- ----- -- ----<br>-------- ------- -- paramount. --- - --- ----- ----- ----<br>---- --- --- ----- --- ---- ---- ------- ----- ---- -------<br>--- --- -- ----- -- --- ---- -- --- ---- -- ------ ------<br>--- ----- -- ----,99769.09999990463,99768.09999990463,99131.787,99135.89999985695,99148.461,99781.853,,21,paramount.
screen,html.Screen,2_1_0_1_22,2022-05-02T12:05:54.410Z,,,,,,,,,,,,,,,,,53,,,,,,,,,,,,,,337.4469999523135,,response,,,,99,,,,,,,Space,keypress(Space),,,,,,,,---- -- ----- -- ------ - ------- --- ----------<br>------------- ------ ------ ---- ---- ------- ----- -- ----<br>-------- ------- -- ---------- But - --- ----- ----- ----<br>---- --- --- ----- --- ---- ---- ------- ----- ---- -------<br>--- --- -- ----- -- --- ---- -- --- ---- -- ------ ------<br>--- ----- -- ----,100119.69999980927,100119.29999995232,99765.092,99769.39999985695,99781.853,100131.76,,22,But
screen,html.Screen,2_1_0_1_23,2022-05-02T12:05:54.804Z,,,,,,,,,,,,,,,,,53,,,,,,,,,,,,,,380.3399999046378,,response,,,,99,,,,,,,Space,keypress(Space),,,,,,,,---- -- ----- -- ------ - ------- --- ----------<br>------------- ------ ------ ---- ---- ------- ----- -- ----<br>-------- ------- -- ---------- --- a --- ----- ----- ----<br>---- --- --- ----- --- ---- ---- ------- ----- ---- -------<br>--- --- -- ----- -- --- ---- -- --- ---- -- ------ ------<br>--- ----- -- ----,100513.19999980927,100512.09999990463,100115.145,100119.79999995232,100131.76,100515.193,,23,a
screen,html.Screen,2_1_0_1_24,2022-05-02T12:05:55.211Z,,,,,,,,,,,,,,,,,53,,,,,,,,,,,,,,404.70699985694955,,response,,,,99,,,,,,,Space,keypress(Space),,,,,,,,---- -- ----- -- ------ - ------- --- ----------<br>------------- ------ ------ ---- ---- ------- ----- -- ----<br>-------- ------- -- ---------- --- - new ----- ----- ----<br>---- --- --- ----- --- ---- ---- ------- ----- ---- -------<br>--- --- -- ----- -- --- ---- -- --- ---- -- ------ ------<br>--- ----- -- ----,100920.29999995232,100919.89999985695,100498.482,100513.39999985695,100515.193,100931.769,,24,new
screen,html.Screen,2_1_0_1_25,2022-05-02T12:05:55.626Z,,,,,,,,,,,,,,,,,53,,,,,,,,,,,,,,403.53099995231605,,response,,,,99,,,,,,,Space,keypress(Space),,,,,,,,---- -- ----- -- ------ - ------- --- ----------<br>------------- ------ ------ ---- ---- ------- ----- -- ----<br>-------- ------- -- ---------- --- - --- study ----- ----<br>---- --- --- ----- --- ---- ---- ------- ----- ---- -------<br>--- --- -- ----- -- --- ---- -- --- ---- -- ------ ------<br>--- ----- -- ----,101335.59999990463,101335.29999995232,100915.171,100920.29999995232,100931.769,101348.453,,25,study
screen,html.Screen,2_1_0_1_26,2022-05-02T12:05:55.988Z,,,,,,,,,,,,,,,,,53,,,,,,,,,,,,,,347.54700000000594,,response,,,,99,,,,,,,Space,keypress(Space),,,,,,,,---- -- ----- -- ------ - ------- --- ----------<br>------------- ------ ------ ---- ---- ------- ----- -- ----<br>-------- ------- -- ---------- --- - --- ----- finds ----<br>---- --- --- ----- --- ---- ---- ------- ----- ---- -------<br>--- --- -- ----- -- --- ---- -- --- ---- -- ------ ------<br>--- ----- -- ----,101697.09999990463,101696,101331.762,101335.69999980927,101348.453,101716.078,,26,finds
screen,html.Screen,2_1_0_1_27,2022-05-02T12:05:56.396Z,,,,,,,,,,,,,,,,,53,,,,,,,,,,,,,,387.92200000000594,,response,,,,99,,,,,,,Space,keypress(Space),,,,,,,,---- -- ----- -- ------ - ------- --- ----------<br>------------- ------ ------ ---- ---- ------- ----- -- ----<br>-------- ------- -- ---------- --- - --- ----- ----- that<br>---- --- --- ----- --- ---- ---- ------- ----- ---- -------<br>--- --- -- ----- -- --- ---- -- --- ---- -- ------ ------<br>--- ----- -- ----,102105.09999990463,102104,101681.785,101697.29999995232,101716.078,102115.215,,27,that
screen,html.Screen,2_1_0_1_28,2022-05-02T12:05:56.846Z,,,,,,,,,,,,,,,,,53,,,,,,,,,,,,,,436.7850000000035,,response,,,,99,,,,,,,Space,keypress(Space),,,,,,,,---- -- ----- -- ------ - ------- --- ----------<br>------------- ------ ------ ---- ---- ------- ----- -- ----<br>-------- ------- -- ---------- --- - --- ----- ----- ----<br>it's --- --- ----- --- ---- ---- ------- ----- ---- -------<br>--- --- -- ----- -- --- ---- -- --- ---- -- ------ ------<br>--- ----- -- ----,102555.09999990463,102552,102098.457,102105.29999995232,102115.215,102565.156,,28,it's
screen,html.Screen,2_1_0_1_29,2022-05-02T12:05:57.283Z,,,,,,,,,,,,,,,,,53,,,,,,,,,,,,,,426.9439999046299,,response,,,,99,,,,,,,Space,keypress(Space),,,,,,,,---- -- ----- -- ------ - ------- --- ----------<br>------------- ------ ------ ---- ---- ------- ----- -- ----<br>-------- ------- -- ---------- --- - --- ----- ----- ----<br>---- not --- ----- --- ---- ---- ------- ----- ---- -------<br>--- --- -- ----- -- --- ---- -- --- ---- -- ------ ------<br>--- ----- -- ----,102993,102992.09999990463,102548.535,102555.39999985695,102565.156,102998.62,,29,not
screen,html.Screen,2_1_0_1_30,2022-05-02T12:05:57.690Z,,,,,,,,,,,,,,,,,53,,,,,,,,,,,,,,400.7799998569535,,response,,,,99,,,,,,,Space,keypress(Space),,,,,,,,---- -- ----- -- ------ - ------- --- ----------<br>------------- ------ ------ ---- ---- ------- ----- -- ----<br>-------- ------- -- ---------- --- - --- ----- ----- ----<br>---- --- how ----- --- ---- ---- ------- ----- ---- -------<br>--- --- -- ----- -- --- ---- -- --- ---- -- ------ ------<br>--- ----- -- ----,103399.79999995232,103399.39999985695,102981.83,102993.29999995232,102998.62,103415.229,,30,how
screen,html.Screen,2_1_0_1_31,2022-05-02T12:05:58.108Z,,,,,,,,,,,,,,,,,53,,,,,,,,,,,,,,400.77099999999336,,response,,,,99,,,,,,,Space,keypress(Space),,,,,,,,---- -- ----- -- ------ - ------- --- ----------<br>------------- ------ ------ ---- ---- ------- ----- -- ----<br>-------- ------- -- ---------- --- - --- ----- ----- ----<br>---- --- --- close --- ---- ---- ------- ----- ---- -------<br>--- --- -- ----- -- --- ---- -- --- ---- -- ------ ------<br>--- ----- -- ----,103817.09999990463,103816,103398.643,103400,103415.229,103831.952,,31,close
screen,html.Screen,2_1_0_1_32,2022-05-02T12:05:58.546Z,,,,,,,,,,,,,,,,,53,,,,,,,,,,,,,,423.5479999999952,,response,,,,99,,,,,,,Space,keypress(Space),,,,,,,,---- -- ----- -- ------ - ------- --- ----------<br>------------- ------ ------ ---- ---- ------- ----- -- ----<br>-------- ------- -- ---------- --- - --- ----- ----- ----<br>---- --- --- ----- you ---- ---- ------- ----- ---- -------<br>--- --- -- ----- -- --- ---- -- --- ---- -- ------ ------<br>--- ----- -- ----,104256,104255.5,103815.257,103817.29999995232,103831.952,104265.227,,32,you
screen,html.Screen,2_1_0_1_33,2022-05-02T12:05:58.972Z,,,,,,,,,,,,,,,,,53,,,,,,,,,,,,,,414.8729999046336,,response,,,,99,,,,,,,Space,keypress(Space),,,,,,,,---- -- ----- -- ------ - ------- --- ----------<br>------------- ------ ------ ---- ---- ------- ----- -- ----<br>-------- ------- -- ---------- --- - --- ----- ----- ----<br>---- --- --- ----- --- feel ---- ------- ----- ---- -------<br>--- --- -- ----- -- --- ---- -- --- ---- -- ------ ------<br>--- ----- -- ----,104681.09999990463,104680.09999990463,104248.616,104256.09999990463,104265.227,104698.641,,33,feel
screen,html.Screen,2_1_0_1_34,2022-05-02T12:05:59.372Z,,,,,,,,,,,,,,,,,53,,,,,,,,,,,,,,381.35899999999674,,response,,,,99,,,,,,,Space,keypress(Space),,,,,,,,---- -- ----- -- ------ - ------- --- ----------<br>------------- ------ ------ ---- ---- ------- ----- -- ----<br>-------- ------- -- ---------- --- - --- ----- ----- ----<br>---- --- --- ----- --- ---- that ------- ----- ---- -------<br>--- --- -- ----- -- --- ---- -- --- ---- -- ------ ------<br>--- ----- -- ----,105081.09999990463,105080,104681.875,104681.39999985695,104698.641,105115.243,,34,that
screen,html.Screen,2_1_0_1_35,2022-05-02T12:05:59.820Z,,,,,,,,,,,,,,,,,53,,,,,,,,,,,,,,412.85699990463036,,response,,,,99,,,,,,,Space,keypress(Space),,,,,,,,---- -- ----- -- ------ - ------- --- ----------<br>------------- ------ ------ ---- ---- ------- ----- -- ----<br>-------- ------- -- ---------- --- - --- ----- ----- ----<br>---- --- --- ----- --- ---- ---- matters ----- ---- -------<br>--- --- -- ----- -- --- ---- -- --- ---- -- ------ ------<br>--- ----- -- ----,105529.19999980927,105528.09999990463,105098.683,105081.5,105115.243,105532.087,,35,matters
screen,html.Screen,2_1_0_1_36,2022-05-02T12:06:00.212Z,,,,,,,,,,,,,,,,,53,,,,,,,,,,,,,,387.91300000000047,,response,,,,99,,,,,,,Space,keypress(Space),,,,,,,,"---- -- ----- -- ------ - ------- --- ----------<br>------------- ------ ------ ---- ---- ------- ----- -- ----<br>-------- ------- -- ---------- --- - --- ----- ----- ----<br>---- --- --- ----- --- ---- ---- ------- most, ---- -------<br>--- --- -- ----- -- --- ---- -- --- ---- -- ------ ------<br>--- ----- -- ----",105921.19999980927,105920,105515.23,105529.39999985695,105532.087,105931.947,,36,"most,"
screen,html.Screen,2_1_0_1_37,2022-05-02T12:06:00.618Z,,,,,,,,,,,,,,,,,53,,,,,,,,,,,,,,395.5529999999999,,response,,,,99,,,,,,,Space,keypress(Space),,,,,,,,---- -- ----- -- ------ - ------- --- ----------<br>------------- ------ ------ ---- ---- ------- ----- -- ----<br>-------- ------- -- ---------- --- - --- ----- ----- ----<br>---- --- --- ----- --- ---- ---- ------- ----- it's -------<br>--- --- -- ----- -- --- ---- -- --- ---- -- ------ ------<br>--- ----- -- ----,106327.89999985695,106327.5,105915.249,105921.39999985695,105931.947,106331.974,,37,it's
screen,html.Screen,2_1_0_1_38,2022-05-02T12:06:01.626Z,,,,,,,,,,,,,,,,,53,,,,,,,,,,,,,,1003.3259999523143,,response,,,,99,,,,,,,Space,keypress(Space),,,,,,,,---- -- ----- -- ------ - ------- --- ----------<br>------------- ------ ------ ---- ---- ------- ----- -- ----<br>-------- ------- -- ---------- --- - --- ----- ----- ----<br>---- --- --- ----- --- ---- ---- ------- ----- ---- whether<br>--- --- -- ----- -- --- ---- -- --- ---- -- ------ ------<br>--- ----- -- ----,107335.69999980927,107335.29999995232,106315.248,106328,106331.974,107348.657,,38,whether
screen,html.Screen,2_1_0_1_39,2022-05-02T12:06:01.980Z,,,,,,,,,,,,,,,,,53,,,,,,,,,,,,,,339.44299990462605,,response,,,,99,,,,,,,Space,keypress(Space),,,,,,,,---- -- ----- -- ------ - ------- --- ----------<br>------------- ------ ------ ---- ---- ------- ----- -- ----<br>-------- ------- -- ---------- --- - --- ----- ----- ----<br>---- --- --- ----- --- ---- ---- ------- ----- ---- -------<br>you --- -- ----- -- --- ---- -- --- ---- -- ------ ------<br>--- ----- -- ----,107689.19999980927,107688.09999990463,107331.93,107335.79999995232,107348.657,107698.736,,39,you
screen,html.Screen,2_1_0_1_40,2022-05-02T12:06:02.300Z,,,,,,,,,,,,,,,,,53,,,,,,,,,,,,,,309.4639998092607,,response,,,,99,,,,,,,Space,keypress(Space),,,,,,,,---- -- ----- -- ------ - ------- --- ----------<br>------------- ------ ------ ---- ---- ------- ----- -- ----<br>-------- ------- -- ---------- --- - --- ----- ----- ----<br>---- --- --- ----- --- ---- ---- ------- ----- ---- -------<br>--- are -- ----- -- --- ---- -- --- ---- -- ------ ------<br>--- ----- -- ----,108009.29999995232,108008.19999980927,107681.985,107689.39999985695,107698.736,108015.451,,40,are
screen,html.Screen,2_1_0_1_41,2022-05-02T12:06:02.746Z,,,,,,,,,,,,,,,,,53,,,,,,,,,,,,,,439.84899995231535,,response,,,,99,,,,,,,Space,keypress(Space),,,,,,,,---- -- ----- -- ------ - ------- --- ----------<br>------------- ------ ------ ---- ---- ------- ----- -- ----<br>-------- ------- -- ---------- --- - --- ----- ----- ----<br>---- --- --- ----- --- ---- ---- ------- ----- ---- -------<br>--- --- as ----- -- --- ---- -- --- ---- -- ------ ------<br>--- ----- -- ----,108455.5,108455.29999995232,107998.664,108009.5,108015.451,108465.347,,41,as
screen,html.Screen,2_1_0_1_42,2022-05-02T12:06:03.156Z,,,,,,,,,,,,,,,,,53,,,,,,,,,,,,,,398.85299980927084,,response,,,,99,,,,,,,Space,keypress(Space),,,,,,,,---- -- ----- -- ------ - ------- --- ----------<br>------------- ------ ------ ---- ---- ------- ----- -- ----<br>-------- ------- -- ---------- --- - --- ----- ----- ----<br>---- --- --- ----- --- ---- ---- ------- ----- ---- -------<br>--- --- -- close -- --- ---- -- --- ---- -- ------ ------<br>--- ----- -- ----,108865.39999985695,108864.19999980927,108448.759,108455.69999980927,108465.347,108882.026,,42,close
screen,html.Screen,2_1_0_1_43,2022-05-02T12:06:03.548Z,,,,,,,,,,,,,,,,,53,,,,,,,,,,,,,,374.07399990463455,,response,,,,99,,,,,,,Space,keypress(Space),,,,,,,,---- -- ----- -- ------ - ------- --- ----------<br>------------- ------ ------ ---- ---- ------- ----- -- ----<br>-------- ------- -- ---------- --- - --- ----- ----- ----<br>---- --- --- ----- --- ---- ---- ------- ----- ---- -------<br>--- --- -- ----- as --- ---- -- --- ---- -- ------ ------<br>--- ----- -- ----,109257.19999980927,109256.09999990463,108865.361,108865.59999990463,108882.026,109265.471,,43,as
screen,html.Screen,2_1_0_1_44,2022-05-02T12:06:03.964Z,,,,,,,,,,,,,,,,,53,,,,,,,,,,,,,,406.72899980926013,,response,,,,99,,,,,,,Space,keypress(Space),,,,,,,,---- -- ----- -- ------ - ------- --- ----------<br>------------- ------ ------ ---- ---- ------- ----- -- ----<br>-------- ------- -- ---------- --- - --- ----- ----- ----<br>---- --- --- ----- --- ---- ---- ------- ----- ---- -------<br>--- --- -- ----- -- you ---- -- --- ---- -- ------ ------<br>--- ----- -- ----,109673.29999995232,109672.19999980927,109248.69,109257.5,109265.471,109682.134,,44,you
screen,html.Screen,2_1_0_1_45,2022-05-02T12:06:04.356Z,,,,,,,,,,,,,,,,,53,,,,,,,,,,,,,,381.9659999046271,,response,,,,99,,,,,,,Space,keypress(Space),,,,,,,,---- -- ----- -- ------ - ------- --- ----------<br>------------- ------ ------ ---- ---- ------- ----- -- ----<br>-------- ------- -- ---------- --- - --- ----- ----- ----<br>---- --- --- ----- --- ---- ---- ------- ----- ---- -------<br>--- --- -- ----- -- --- want -- --- ---- -- ------ ------<br>--- ----- -- ----,110065.19999980927,110064.09999990463,109665.447,109673.5,109682.134,110082.152,,45,want
screen,html.Screen,2_1_0_1_46,2022-05-02T12:06:04.764Z,,,,,,,,,,,,,,,,,53,,,,,,,,,,,,,,389.9479999046307,,response,,,,99,,,,,,,Space,keypress(Space),,,,,,,,---- -- ----- -- ------ - ------- --- ----------<br>------------- ------ ------ ---- ---- ------- ----- -- ----<br>-------- ------- -- ---------- --- - --- ----- ----- ----<br>---- --- --- ----- --- ---- ---- ------- ----- ---- -------<br>--- --- -- ----- -- --- ---- to --- ---- -- ------ ------<br>--- ----- -- ----,110473.19999980927,110472.09999990463,110065.44,110065.39999985695,110082.152,110482.139,,46,to
screen,html.Screen,2_1_0_1_47,2022-05-02T12:06:05.138Z,,,,,,,,,,,,,,,,,53,,,,,,,,,,,,,,365.1609999523207,,response,,,,99,,,,,,,Space,keypress(Space),,,,,,,,"---- -- ----- -- ------ - ------- --- ----------<br>------------- ------ ------ ---- ---- ------- ----- -- ----<br>-------- ------- -- ---------- --- - --- ----- ----- ----<br>---- --- --- ----- --- ---- ---- ------- ----- ---- -------<br>--- --- -- ----- -- --- ---- -- be, ---- -- ------ ------<br>--- ----- -- ----",110847.69999980927,110847.29999995232,110465.4,110473.39999985695,110482.139,110866.041,,47,"be,"
screen,html.Screen,2_1_0_1_48,2022-05-02T12:06:05.548Z,,,,,,,,,,,,,,,,,53,,,,,,,,,,,,,,391.05899990463513,,response,,,,99,,,,,,,Space,keypress(Space),,,,,,,,---- -- ----- -- ------ - ------- --- ----------<br>------------- ------ ------ ---- ---- ------- ----- -- ----<br>-------- ------- -- ---------- --- - --- ----- ----- ----<br>---- --- --- ----- --- ---- ---- ------- ----- ---- -------<br>--- --- -- ----- -- --- ---- -- --- even -- ------ ------<br>--- ----- -- ----,111257.89999985695,111257.09999990463,110832.06,110847.69999980927,110866.041,111265.519,,48,even
screen,html.Screen,2_1_0_1_49,2022-05-02T12:06:06.060Z,,,,,,,,,,,,,,,,,53,,,,,,,,,,,,,,502.58099990463234,,response,,,,99,,,,,,,Space,keypress(Space),,,,,,,,---- -- ----- -- ------ - ------- --- ----------<br>------------- ------ ------ ---- ---- ------- ----- -- ----<br>-------- ------- -- ---------- --- - --- ----- ----- ----<br>---- --- --- ----- --- ---- ---- ------- ----- ---- -------<br>--- --- -- ----- -- --- ---- -- --- ---- if ------ ------<br>--- ----- -- ----,111769.09999990463,111768.09999990463,111248.756,111258.09999990463,111265.519,111782.22,,49,if
screen,html.Screen,2_1_0_1_50,2022-05-02T12:06:06.508Z,,,,,,,,,,,,,,,,,53,,,,,,,,,,,,,,433.77999999999884,,response,,,,99,,,,,,,Space,keypress(Space),,,,,,,,---- -- ----- -- ------ - ------- --- ----------<br>------------- ------ ------ ---- ---- ------- ----- -- ----<br>-------- ------- -- ---------- --- - --- ----- ----- ----<br>---- --- --- ----- --- ---- ---- ------- ----- ---- -------<br>--- --- -- ----- -- --- ---- -- --- ---- -- that's ------<br>--- ----- -- ----,112217.09999990463,112216,111765.53,111769.29999995232,111782.22,112232.214,,50,that's
screen,html.Screen,2_1_0_1_51,2022-05-02T12:06:06.940Z,,,,,,,,,,,,,,,,,53,,,,,,,,,,,,,,415.88599990462535,,response,,,,99,,,,,,,Space,keypress(Space),,,,,,,,---- -- ----- -- ------ - ------- --- ----------<br>------------- ------ ------ ---- ---- ------- ----- -- ----<br>-------- ------- -- ---------- --- - --- ----- ----- ----<br>---- --- --- ----- --- ---- ---- ------- ----- ---- -------<br>--- --- -- ----- -- --- ---- -- --- ---- -- ------ really<br>--- ----- -- ----,112649.09999990463,112648.09999990463,112215.55,112217.29999995232,112232.214,112665.564,,51,really
screen,html.Screen,2_1_0_1_52,2022-05-02T12:06:07.418Z,,,,,,,,,,,,,,,,,53,,,,,,,,,,,,,,461.7359999523178,,response,,,,99,,,,,,,Space,keypress(Space),,,,,,,,---- -- ----- -- ------ - ------- --- ----------<br>------------- ------ ------ ---- ---- ------- ----- -- ----<br>-------- ------- -- ---------- --- - --- ----- ----- ----<br>---- --- --- ----- --- ---- ---- ------- ----- ---- -------<br>--- --- -- ----- -- --- ---- -- --- ---- -- ------ ------<br>not ----- -- ----,113127.69999980927,113127.29999995232,112648.856,112649.29999995232,112665.564,113132.183,,52,not
screen,html.Screen,2_1_0_1_53,2022-05-02T12:06:07.796Z,,,,,,,,,,,,,,,,,53,,,,,,,,,,,,,,371.81699999999546,,response,,,,99,,,,,,,Space,keypress(Space),,,,,,,,---- -- ----- -- ------ - ------- --- ----------<br>------------- ------ ------ ---- ---- ------- ----- -- ----<br>-------- ------- -- ---------- --- - --- ----- ----- ----<br>---- --- --- ----- --- ---- ---- ------- ----- ---- -------<br>--- --- -- ----- -- --- ---- -- --- ---- -- ------ ------<br>--- close -- ----,113505.09999990463,113504,113115.537,113127.69999980927,113132.183,113515.589,,53,close
screen,html.Screen,2_1_0_1_54,2022-05-02T12:06:08.194Z,,,,,,,,,,,,,,,,,53,,,,,,,,,,,,,,387.81099985694163,,response,,,,99,,,,,,,Space,keypress(Space),,,,,,,,---- -- ----- -- ------ - ------- --- ----------<br>------------- ------ ------ ---- ---- ------- ----- -- ----<br>-------- ------- -- ---------- --- - --- ----- ----- ----<br>---- --- --- ----- --- ---- ---- ------- ----- ---- -------<br>--- --- -- ----- -- --- ---- -- --- ---- -- ------ ------<br>--- ----- at ----,113903.89999985695,113903.39999985695,113498.853,113505.39999985695,113515.589,113915.612,,54,at
screen,html.Screen,2_1_0_1_55,2022-05-02T12:06:09.251Z,,,,,,,,,,,,,,,,,53,,,,,,,,,,,,,,1043.9879999046389,,response,,,,99,,,,,,,Space,keypress(Space),,,,,,,,---- -- ----- -- ------ - ------- --- ----------<br>------------- ------ ------ ---- ---- ------- ----- -- ----<br>-------- ------- -- ---------- --- - --- ----- ----- ----<br>---- --- --- ----- --- ---- ---- ------- ----- ---- -------<br>--- --- -- ----- -- --- ---- -- --- ---- -- ------ ------<br>--- ----- -- all.,114960.19999980927,114959.59999990463,113898.903,113904,113915.612,114965.603,,55,all.
Item 99,flow.Loop,2_1_0_1,2022-05-02T12:06:09.251Z,,,,,,,,,,,,,,,,,,,,,,,,,,,,,,,25511.430999904638,,completion,,,,,G,,,,,,,,,,,silence,,,,,114960.5,114959.59999990463,89431.49,89432.59999990463,89448.169,114965.603,,,
Question 1,html.Screen,2_1_0_2,2022-05-02T12:06:14.534Z,,,,,,,,,,,,,,,,,,,,,,,,,,,,true,FALSE,,5276.896999999997,,response,,,,99,G,,,,,,FALSE,click #choice-2,,,,silence,,,,,120243.09999990463,120242.5,114948.855,114960.59999990463,114965.603,120249.054,,,
Question 2,html.Screen,2_1_0_3,2022-05-02T12:06:19.269Z,,,,,,,,,,,,,,,,,,,,,,,,,,,,true,TRUE,,4729.245999952313,,response,,,,99,G,,,,,,TRUE,click #choice-1,,,,silence,,,,,124978.89999985695,124978.29999995232,120232.392,120243.09999990463,120249.054,124982.557,,,
Item 99,flow.Sequence,2_1_0,2022-05-02T12:06:19.269Z,,,,,,,,,,,,,,,,,,,,,,,,,,,,,,,45530.54099995231,,completion,,,,,,,,,,,,,,,,,,,,,124979.09999990463,124978.29999995232,79431.107,79437.5,79447.759,124982.557,,,
Holding screen,html.Screen,2_1_1_0,2022-05-02T12:06:29.257Z,,,,,,,,,,,,,,,,,,,,,,,,,,,,,,,10000.367999999988,,timeout,,,,,,,,,,,,,,,,,,,,,134966.5,134966.209,124965.942,124979.09999990463,124982.557,134982.925,,,
screen,html.Screen,2_1_1_1_0,2022-05-02T12:06:30.203Z,,,,,,,,,,,,,,,,,54,,,,,,,,,,,,,,929.4749998569605,,response,,,,100,,,,,,,Space,keypress(Space),,,,,,,,At --- ---- --- ------ ----- ------- ---- -- --- ------- --<br>------- ---------- ------ -- ----- -- ----- -- ---- ------<br>--- ----- --- --- ------ -------- ----- --- ------ ----- --<br>----- ----- ---------- --- --- ------ ------ ---- -- ------<br>------- --- ------ ----- --- ---- ------- -- ---- --- --<br>------- ------,135912.79999995232,135912.39999985695,134966.209,134966.69999980927,134982.925,135916.216,,0,At
screen,html.Screen,2_1_1_1_1,2022-05-02T12:06:30.580Z,,,,,,,,,,,,,,,,,54,,,,,,,,,,,,,,371.88399990464677,,response,,,,100,,,,,,,Space,keypress(Space),,,,,,,,-- the ---- --- ------ ----- ------- ---- -- --- ------- --<br>------- ---------- ------ -- ----- -- ----- -- ---- ------<br>--- ----- --- --- ------ -------- ----- --- ------ ----- --<br>----- ----- ---------- --- --- ------ ------ ---- -- ------<br>------- --- ------ ----- --- ---- ------- -- ---- --- --<br>------- ------,136289.19999980927,136288.09999990463,135899.576,135912.79999995232,135916.216,136299.698,,1,the
screen,html.Screen,2_1_1_1_2,2022-05-02T12:06:30.948Z,,,,,,,,,,,,,,,,,54,,,,,,,,,,,,,,356.80199999999604,,response,,,,100,,,,,,,Space,keypress(Space),,,,,,,,-- --- time --- ------ ----- ------- ---- -- --- ------- --<br>------- ---------- ------ -- ----- -- ----- -- ---- ------<br>--- ----- --- --- ------ -------- ----- --- ------ ----- --<br>----- ----- ---------- --- --- ------ ------ ---- -- ------<br>------- --- ------ ----- --- ---- ------- -- ---- --- --<br>------- ------,136657.5,136656.5,136282.878,136289.5,136299.698,136666.238,,2,time
screen,html.Screen,2_1_1_1_3,2022-05-02T12:06:31.276Z,,,,,,,,,,,,,,,,,54,,,,,,,,,,,,,,317.86199990462046,,response,,,,100,,,,,,,Space,keypress(Space),,,,,,,,-- --- ---- the ------ ----- ------- ---- -- --- ------- --<br>------- ---------- ------ -- ----- -- ----- -- ---- ------<br>--- ----- --- --- ------ -------- ----- --- ------ ----- --<br>----- ----- ---------- --- --- ------ ------ ---- -- ------<br>------- --- ------ ----- --- ---- ------- -- ---- --- --<br>------- ------,136985.09999990463,136984.09999990463,136649.591,136657.79999995232,136666.238,136999.703,,3,the
screen,html.Screen,2_1_1_1_4,2022-05-02T12:06:31.650Z,,,,,,,,,,,,,,,,,54,,,,,,,,,,,,,,359.59699995230767,,response,,,,100,,,,,,,Space,keypress(Space),,,,,,,,-- --- ---- --- French ----- ------- ---- -- --- ------- --<br>------- ---------- ------ -- ----- -- ----- -- ---- ------<br>--- ----- --- --- ------ -------- ----- --- ------ ----- --<br>----- ----- ---------- --- --- ------ ------ ---- -- ------<br>------- --- ------ ----- --- ---- ------- -- ---- --- --<br>------- ------,137359.59999990463,137359.29999995232,136982.902,136985.29999995232,136999.703,137366.264,,4,French
screen,html.Screen,2_1_1_1_5,2022-05-02T12:06:32.099Z,,,,,,,,,,,,,,,,,54,,,,,,,,,,,,,,441.7360000000044,,response,,,,100,,,,,,,Space,keypress(Space),,,,,,,,-- --- ---- --- ------ crown ------- ---- -- --- ------- --<br>------- ---------- ------ -- ----- -- ----- -- ---- ------<br>--- ----- --- --- ------ -------- ----- --- ------ ----- --<br>----- ----- ---------- --- --- ------ ------ ---- -- ------<br>------- --- ------ ----- --- ---- ------- -- ---- --- --<br>------- ------,137809,137808,137349.594,137359.69999980927,137366.264,137816.275,,5,crown
screen,html.Screen,2_1_1_1_6,2022-05-02T12:06:32.580Z,,,,,,,,,,,,,,,,,54,,,,,,,,,,,,,,471.8249999046384,,response,,,,100,,,,,,,Space,keypress(Space),,,,,,,,-- --- ---- --- ------ ----- secured ---- -- --- ------- --<br>------- ---------- ------ -- ----- -- ----- -- ---- ------<br>--- ----- --- --- ------ -------- ----- --- ------ ----- --<br>----- ----- ---------- --- --- ------ ------ ---- -- ------<br>------- --- ------ ----- --- ---- ------- -- ---- --- --<br>------- ------,138289.09999990463,138288.09999990463,137799.63,137809.29999995232,137816.275,138299.717,,6,secured
screen,html.Screen,2_1_1_1_7,2022-05-02T12:06:33.036Z,,,,,,,,,,,,,,,,,54,,,,,,,,,,,,,,444.3829999046284,,response,,,,100,,,,,,,Space,keypress(Space),,,,,,,,-- --- ---- --- ------ ----- ------- much -- --- ------- --<br>------- ---------- ------ -- ----- -- ----- -- ---- ------<br>--- ----- --- --- ------ -------- ----- --- ------ ----- --<br>----- ----- ---------- --- --- ------ ------ ---- -- ------<br>------- --- ------ ----- --- ---- ------- -- ---- --- --<br>------- ------,138745.19999980927,138744.09999990463,138282.948,138289.29999995232,138299.717,138749.772,,7,much
screen,html.Screen,2_1_1_1_8,2022-05-02T12:06:33.443Z,,,,,,,,,,,,,,,,,54,,,,,,,,,,,,,,401.7280000000028,,response,,,,100,,,,,,,Space,keypress(Space),,,,,,,,-- --- ---- --- ------ ----- ------- ---- of --- ------- --<br>------- ---------- ------ -- ----- -- ----- -- ---- ------<br>--- ----- --- --- ------ -------- ----- --- ------ ----- --<br>----- ----- ---------- --- --- ------ ------ ---- -- ------<br>------- --- ------ ----- --- ---- ------- -- ---- --- --<br>------- ------,139152,139151.5,138732.945,138745.5,138749.772,139166.401,,8,of
screen,html.Screen,2_1_1_1_9,2022-05-02T12:06:33.756Z,,,,,,,,,,,,,,,,,54,,,,,,,,,,,,,,297.69899990462,,response,,,,100,,,,,,,Space,keypress(Space),,,,,,,,-- --- ---- --- ------ ----- ------- ---- -- its ------- --<br>------- ---------- ------ -- ----- -- ----- -- ---- ------<br>--- ----- --- --- ------ -------- ----- --- ------ ----- --<br>----- ----- ---------- --- --- ------ ------ ---- -- ------<br>------- --- ------ ----- --- ---- ------- -- ---- --- --<br>------- ------,139465.19999980927,139464.09999990463,139149.755,139152.09999990463,139166.401,139484.314,,9,its
screen,html.Screen,2_1_1_1_10,2022-05-02T12:06:34.330Z,,,,,,,,,,,,,,,,,54,,,,,,,,,,,,,,554.9859999523032,,response,,,,100,,,,,,,Space,keypress(Space),,,,,,,,-- --- ---- --- ------ ----- ------- ---- -- --- revenue --<br>------- ---------- ------ -- ----- -- ----- -- ---- ------<br>--- ----- --- --- ------ -------- ----- --- ------ ----- --<br>----- ----- ---------- --- --- ------ ------ ---- -- ------<br>------- --- ------ ----- --- ---- ------- -- ---- --- --<br>------- ------,140039.59999990463,140039.29999995232,139449.72,139465.5,139484.314,140049.685,,10,revenue
screen,html.Screen,2_1_1_1_11,2022-05-02T12:06:34.884Z,,,,,,,,,,,,,,,,,54,,,,,,,,,,,,,,542.4149999046349,,response,,,,100,,,,,,,Space,keypress(Space),,,,,,,,-- --- ---- --- ------ ----- ------- ---- -- --- ------- by<br>------- ---------- ------ -- ----- -- ----- -- ---- ------<br>--- ----- --- --- ------ -------- ----- --- ------ ----- --<br>----- ----- ---------- --- --- ------ ------ ---- -- ------<br>------- --- ------ ----- --- ---- ------- -- ---- --- --<br>------- ------,140593.19999980927,140592.09999990463,140033.106,140039.59999990463,140049.685,140599.803,,11,by
screen,html.Screen,2_1_1_1_12,2022-05-02T12:06:35.452Z,,,,,,,,,,,,,,,,,54,,,,,,,,,,,,,,560.4969999523018,,response,,,,100,,,,,,,Space,keypress(Space),,,,,,,,-- --- ---- --- ------ ----- ------- ---- -- --- ------- --<br>issuing ---------- ------ -- ----- -- ----- -- ---- ------<br>--- ----- --- --- ------ -------- ----- --- ------ ----- --<br>----- ----- ---------- --- --- ------ ------ ---- -- ------<br>------- --- ------ ----- --- ---- ------- -- ---- --- --<br>------- ------,141161.29999995232,141160.29999995232,140583.03,140593.39999985695,140599.803,141166.515,,12,issuing
screen,html.Screen,2_1_1_1_13,2022-05-02T12:06:35.898Z,,,,,,,,,,,,,,,,,54,,,,,,,,,,,,,,440.8849998569349,,response,,,,100,,,,,,,Space,keypress(Space),,,,,,,,-- --- ---- --- ------ ----- ------- ---- -- --- ------- --<br>------- government ------ -- ----- -- ----- -- ---- ------<br>--- ----- --- --- ------ -------- ----- --- ------ ----- --<br>----- ----- ---------- --- --- ------ ------ ---- -- ------<br>------- --- ------ ----- --- ---- ------- -- ---- --- --<br>------- ------,141607.69999980927,141607.39999985695,141149.794,141161.5,141166.515,141616.409,,13,government
screen,html.Screen,2_1_1_1_14,2022-05-02T12:06:37.092Z,,,,,,,,,,,,,,,,,54,,,,,,,,,,,,,,1183.6909999046184,,response,,,,100,,,,,,,Space,keypress(Space),,,,,,,,-- --- ---- --- ------ ----- ------- ---- -- --- ------- --<br>------- ---------- bonds. -- ----- -- ----- -- ---- ------<br>--- ----- --- --- ------ -------- ----- --- ------ ----- --<br>----- ----- ---------- --- --- ------ ------ ---- -- ------<br>------- --- ------ ----- --- ---- ------- -- ---- --- --<br>------- ------,142801.09999990463,142800.09999990463,141599.714,141607.69999980927,141616.409,142816.526,,14,bonds.
screen,html.Screen,2_1_1_1_15,2022-05-02T12:06:37.516Z,,,,,,,,,,,,,,,,,54,,,,,,,,,,,,,,407.7739999523037,,response,,,,100,,,,,,,Space,keypress(Space),,,,,,,,-- --- ---- --- ------ ----- ------- ---- -- --- ------- --<br>------- ---------- ------ In ----- -- ----- -- ---- ------<br>--- ----- --- --- ------ -------- ----- --- ------ ----- --<br>----- ----- ---------- --- --- ------ ------ ---- -- ------<br>------- --- ------ ----- --- ---- ------- -- ---- --- --<br>------- ------,143225.29999995232,143224.29999995232,142799.703,142801.39999985695,142816.526,143233.131,,15,In
screen,html.Screen,2_1_1_1_16,2022-05-02T12:06:38.780Z,,,,,,,,,,,,,,,,,54,,,,,,,,,,,,,,1254.9689999046386,,response,,,,100,,,,,,,Space,keypress(Space),,,,,,,,"-- --- ---- --- ------ ----- ------- ---- -- --- ------- --<br>------- ---------- ------ -- 1727, -- ----- -- ---- ------<br>--- ----- --- --- ------ -------- ----- --- ------ ----- --<br>----- ----- ---------- --- --- ------ ------ ---- -- ------<br>------- --- ------ ----- --- ---- ------- -- ---- --- --<br>------- ------",144489.29999995232,144488.09999990463,143216.502,143225.5,143233.131,144499.826,,16,"1727,"
screen,html.Screen,2_1_1_1_17,2022-05-02T12:06:39.180Z,,,,,,,,,,,,,,,,,54,,,,,,,,,,,,,,388.27399990463164,,response,,,,100,,,,,,,Space,keypress(Space),,,,,,,,-- --- ---- --- ------ ----- ------- ---- -- --- ------- --<br>------- ---------- ------ -- ----- in ----- -- ---- ------<br>--- ----- --- --- ------ -------- ----- --- ------ ----- --<br>----- ----- ---------- --- --- ------ ------ ---- -- ------<br>------- --- ------ ----- --- ---- ------- -- ---- --- --<br>------- ------,144889.09999990463,144888.09999990463,144483.083,144489.5,144499.826,144899.921,,17,in
screen,html.Screen,2_1_1_1_18,2022-05-02T12:06:39.556Z,,,,,,,,,,,,,,,,,54,,,,,,,,,,,,,,364.1789999046305,,response,,,,100,,,,,,,Space,keypress(Space),,,,,,,,-- --- ---- --- ------ ----- ------- ---- -- --- ------- --<br>------- ---------- ------ -- ----- -- order -- ---- ------<br>--- ----- --- --- ------ -------- ----- --- ------ ----- --<br>----- ----- ---------- --- --- ------ ------ ---- -- ------<br>------- --- ------ ----- --- ---- ------- -- ---- --- --<br>------- ------,145265.19999980927,145264.09999990463,144883.156,144889.39999985695,144899.921,145283.746,,18,order
screen,html.Screen,2_1_1_1_19,2022-05-02T12:06:39.924Z,,,,,,,,,,,,,,,,,54,,,,,,,,,,,,,,348.35399990461883,,response,,,,100,,,,,,,Space,keypress(Space),,,,,,,,-- --- ---- --- ------ ----- ------- ---- -- --- ------- --<br>------- ---------- ------ -- ----- -- ----- to ---- ------<br>--- ----- --- --- ------ -------- ----- --- ------ ----- --<br>----- ----- ---------- --- --- ------ ------ ---- -- ------<br>------- --- ------ ----- --- ---- ------- -- ---- --- --<br>------- ------,145633,145632.09999990463,145249.856,145265.5,145283.746,145649.961,,19,to
screen,html.Screen,2_1_1_1_20,2022-05-02T12:06:40.363Z,,,,,,,,,,,,,,,,,54,,,,,,,,,,,,,,422.4389998569386,,response,,,,100,,,,,,,Space,keypress(Space),,,,,,,,-- --- ---- --- ------ ----- ------- ---- -- --- ------- --<br>------- ---------- ------ -- ----- -- ----- -- save ------<br>--- ----- --- --- ------ -------- ----- --- ------ ----- --<br>----- ----- ---------- --- --- ------ ------ ---- -- ------<br>------- --- ------ ----- --- ---- ------- -- ---- --- --<br>------- ------,146072.69999980927,146072.39999985695,145633.189,145633.29999995232,145649.961,146083.257,,20,save
screen,html.Screen,2_1_1_1_21,2022-05-02T12:06:40.796Z,,,,,,,,,,,,,,,,,54,,,,,,,,,,,,,,420.74299999998766,,response,,,,100,,,,,,,Space,keypress(Space),,,,,,,,"-- --- ---- --- ------ ----- ------- ---- -- --- ------- --<br>------- ---------- ------ -- ----- -- ----- -- ---- money,<br>--- ----- --- --- ------ -------- ----- --- ------ ----- --<br>----- ----- ---------- --- --- ------ ------ ---- -- ------<br>------- --- ------ ----- --- ---- ------- -- ---- --- --<br>------- ------",146505.29999995232,146504,146066.608,146072.79999995232,146083.257,146516.556,,21,"money,"
screen,html.Screen,2_1_1_1_22,2022-05-02T12:06:41.154Z,,,,,,,,,,,,,,,,,54,,,,,,,,,,,,,,346.7439999523049,,response,,,,100,,,,,,,Space,keypress(Space),,,,,,,,-- --- ---- --- ------ ----- ------- ---- -- --- ------- --<br>------- ---------- ------ -- ----- -- ----- -- ---- ------<br>the ----- --- --- ------ -------- ----- --- ------ ----- --<br>----- ----- ---------- --- --- ------ ------ ---- -- ------<br>------- --- ------ ----- --- ---- ------- -- ---- --- --<br>------- ------,146863.59999990463,146863.29999995232,146499.869,146505.39999985695,146516.556,146866.585,,22,the
screen,html.Screen,2_1_1_1_23,2022-05-02T12:06:41.524Z,,,,,,,,,,,,,,,,,54,,,,,,,,,,,,,,365.5149999046407,,response,,,,100,,,,,,,Space,keypress(Space),,,,,,,,-- --- ---- --- ------ ----- ------- ---- -- --- ------- --<br>------- ---------- ------ -- ----- -- ----- -- ---- ------<br>--- state --- --- ------ -------- ----- --- ------ ----- --<br>----- ----- ---------- --- --- ------ ------ ---- -- ------<br>------- --- ------ ----- --- ---- ------- -- ---- --- --<br>------- ------,147233.09999990463,147232.09999990463,146849.894,146863.59999990463,146866.585,147249.999,,23,state
screen,html.Screen,2_1_1_1_24,2022-05-02T12:06:41.860Z,,,,,,,,,,,,,,,,,54,,,,,,,,,,,,,,318.10099990462186,,response,,,,100,,,,,,,Space,keypress(Space),,,,,,,,-- --- ---- --- ------ ----- ------- ---- -- --- ------- --<br>------- ---------- ------ -- ----- -- ----- -- ---- ------<br>--- ----- cut --- ------ -------- ----- --- ------ ----- --<br>----- ----- ---------- --- --- ------ ------ ---- -- ------<br>------- --- ------ ----- --- ---- ------- -- ---- --- --<br>------- ------,147569.09999990463,147568.09999990463,147233.274,147233.39999985695,147249.999,147583.275,,24,cut
screen,html.Screen,2_1_1_1_25,2022-05-02T12:06:42.284Z,,,,,,,,,,,,,,,,,54,,,,,,,,,,,,,,408.7250000000058,,response,,,,100,,,,,,,Space,keypress(Space),,,,,,,,-- --- ---- --- ------ ----- ------- ---- -- --- ------- --<br>------- ---------- ------ -- ----- -- ----- -- ---- ------<br>--- ----- --- the ------ -------- ----- --- ------ ----- --<br>----- ----- ---------- --- --- ------ ------ ---- -- ------<br>------- --- ------ ----- --- ---- ------- -- ---- --- --<br>------- ------,147993,147992,147566.648,147569.29999995232,147583.275,148000.076,,25,the
screen,html.Screen,2_1_1_1_26,2022-05-02T12:06:42.852Z,,,,,,,,,,,,,,,,,54,,,,,,,,,,,,,,560.1239998092642,,response,,,,100,,,,,,,Space,keypress(Space),,,,,,,,-- --- ---- --- ------ ----- ------- ---- -- --- ------- --<br>------- ---------- ------ -- ----- -- ----- -- ---- ------<br>--- ----- --- --- bonds' -------- ----- --- ------ ----- --<br>----- ----- ---------- --- --- ------ ------ ---- -- ------<br>------- --- ------ ----- --- ---- ------- -- ---- --- --<br>------- ------,148561.19999980927,148560.19999980927,147983.415,147993.29999995232,148000.076,148566.803,,26,bonds'
screen,html.Screen,2_1_1_1_27,2022-05-02T12:06:43.266Z,,,,,,,,,,,,,,,,,54,,,,,,,,,,,,,,408.69699999998556,,response,,,,100,,,,,,,Space,keypress(Space),,,,,,,,-- --- ---- --- ------ ----- ------- ---- -- --- ------- --<br>------- ---------- ------ -- ----- -- ----- -- ---- ------<br>--- ----- --- --- ------ interest ----- --- ------ ----- --<br>----- ----- ---------- --- --- ------ ------ ---- -- ------<br>------- --- ------ ----- --- ---- ------- -- ---- --- --<br>------- ------,148975.89999985695,148975.5,148549.951,148561.59999990463,148566.803,148983.316,,27,interest
screen,html.Screen,2_1_1_1_28,2022-05-02T12:06:43.699Z,,,,,,,,,,,,,,,,,54,,,,,,,,,,,,,,424.48399995232467,,response,,,,100,,,,,,,Space,keypress(Space),,,,,,,,-- --- ---- --- ------ ----- ------- ---- -- --- ------- --<br>------- ---------- ------ -- ----- -- ----- -- ---- ------<br>--- ----- --- --- ------ -------- rate. --- ------ ----- --<br>----- ----- ---------- --- --- ------ ------ ---- -- ------<br>------- --- ------ ----- --- ---- ------- -- ---- --- --<br>------- ------,149408.39999985695,149407.79999995232,148966.715,148976,148983.316,149416.687,,28,rate.
screen,html.Screen,2_1_1_1_29,2022-05-02T12:06:44.028Z,,,,,,,,,,,,,,,,,54,,,,,,,,,,,,,,319.31299999999464,,response,,,,100,,,,,,,Space,keypress(Space),,,,,,,,-- --- ---- --- ------ ----- ------- ---- -- --- ------- --<br>------- ---------- ------ -- ----- -- ----- -- ---- ------<br>--- ----- --- --- ------ -------- ----- The ------ ----- --<br>----- ----- ---------- --- --- ------ ------ ---- -- ------<br>------- --- ------ ----- --- ---- ------- -- ---- --- --<br>------- ------,149737.19999980927,149736,149399.964,149408.5,149416.687,149749.994,,29,The
screen,html.Screen,2_1_1_1_30,2022-05-02T12:06:44.444Z,,,,,,,,,,,,,,,,,54,,,,,,,,,,,,,,402.1059999046265,,response,,,,100,,,,,,,Space,keypress(Space),,,,,,,,-- --- ---- --- ------ ----- ------- ---- -- --- ------- --<br>------- ---------- ------ -- ----- -- ----- -- ---- ------<br>--- ----- --- --- ------ -------- ----- --- market ----- --<br>----- ----- ---------- --- --- ------ ------ ---- -- ------<br>------- --- ------ ----- --- ---- ------- -- ---- --- --<br>------- ------,150153.09999990463,150152.09999990463,149733.379,149737.39999985695,149749.994,150166.756,,30,market
screen,html.Screen,2_1_1_1_31,2022-05-02T12:06:44.938Z,,,,,,,,,,,,,,,,,54,,,,,,,,,,,,,,480.6439998569549,,response,,,,100,,,,,,,Space,keypress(Space),,,,,,,,-- --- ---- --- ------ ----- ------- ---- -- --- ------- --<br>------- ---------- ------ -- ----- -- ----- -- ---- ------<br>--- ----- --- --- ------ -------- ----- --- ------ value --<br>----- ----- ---------- --- --- ------ ------ ---- -- ------<br>------- --- ------ ----- --- ---- ------- -- ---- --- --<br>------- ------,150647.79999995232,150647.39999985695,150149.985,150153.39999985695,150166.756,150650.07,,31,value
screen,html.Screen,2_1_1_1_32,2022-05-02T12:06:45.267Z,,,,,,,,,,,,,,,,,54,,,,,,,,,,,,,,325.929999999993,,response,,,,100,,,,,,,Space,keypress(Space),,,,,,,,-- --- ---- --- ------ ----- ------- ---- -- --- ------- --<br>------- ---------- ------ -- ----- -- ----- -- ---- ------<br>--- ----- --- --- ------ -------- ----- --- ------ ----- of<br>----- ----- ---------- --- --- ------ ------ ---- -- ------<br>------- --- ------ ----- --- ---- ------- -- ---- --- --<br>------- ------,150976.89999985695,150976,150633.332,150647.79999995232,150650.07,150983.526,,32,of
screen,html.Screen,2_1_1_1_33,2022-05-02T12:06:45.932Z,,,,,,,,,,,,,,,,,54,,,,,,,,,,,,,,656.4739999999874,,response,,,,100,,,,,,,Space,keypress(Space),,,,,,,,-- --- ---- --- ------ ----- ------- ---- -- --- ------- --<br>------- ---------- ------ -- ----- -- ----- -- ---- ------<br>--- ----- --- --- ------ -------- ----- --- ------ ----- --<br>these ----- ---------- --- --- ------ ------ ---- -- ------<br>------- --- ------ ----- --- ---- ------- -- ---- --- --<br>------- ------,151641.29999995232,151640,150966.809,150977.09999990463,150983.526,151650.172,,33,these
screen,html.Screen,2_1_1_1_34,2022-05-02T12:06:46.284Z,,,,,,,,,,,,,,,,,54,,,,,,,,,,,,,,341.9279999046412,,response,,,,100,,,,,,,Space,keypress(Space),,,,,,,,-- --- ---- --- ------ ----- ------- ---- -- --- ------- --<br>------- ---------- ------ -- ----- -- ----- -- ---- ------<br>--- ----- --- --- ------ -------- ----- --- ------ ----- --<br>----- bonds ---------- --- --- ------ ------ ---- -- ------<br>------- --- ------ ----- --- ---- ------- -- ---- --- --<br>------- ------,151993.09999990463,151992.09999990463,151633.454,151641.5,151650.172,152000.181,,34,bonds
screen,html.Screen,2_1_1_1_35,2022-05-02T12:06:46.642Z,,,,,,,,,,,,,,,,,54,,,,,,,,,,,,,,351.1189999523049,,response,,,,100,,,,,,,Space,keypress(Space),,,,,,,,"-- --- ---- --- ------ ----- ------- ---- -- --- ------- --<br>------- ---------- ------ -- ----- -- ----- -- ---- ------<br>--- ----- --- --- ------ -------- ----- --- ------ ----- --<br>----- ----- plummeted, --- --- ------ ------ ---- -- ------<br>------- --- ------ ----- --- ---- ------- -- ---- --- --<br>------- ------",152351.59999990463,152351.29999995232,151983.481,151993.29999995232,152000.181,152366.754,,35,"plummeted,"
screen,html.Screen,2_1_1_1_36,2022-05-02T12:06:47.028Z,,,,,,,,,,,,,,,,,54,,,,,,,,,,,,,,369.24600000001374,,response,,,,100,,,,,,,Space,keypress(Space),,,,,,,,-- --- ---- --- ------ ----- ------- ---- -- --- ------- --<br>------- ---------- ------ -- ----- -- ----- -- ---- ------<br>--- ----- --- --- ------ -------- ----- --- ------ ----- --<br>----- ----- ---------- and --- ------ ------ ---- -- ------<br>------- --- ------ ----- --- ---- ------- -- ---- --- --<br>------- ------,152737.09999990463,152736,152350.087,152351.59999990463,152366.754,152750.091,,36,and
screen,html.Screen,2_1_1_1_37,2022-05-02T12:06:47.411Z,,,,,,,,,,,,,,,,,54,,,,,,,,,,,,,,369.80899985696306,,response,,,,100,,,,,,,Space,keypress(Space),,,,,,,,-- --- ---- --- ------ ----- ------- ---- -- --- ------- --<br>------- ---------- ------ -- ----- -- ----- -- ---- ------<br>--- ----- --- --- ------ -------- ----- --- ------ ----- --<br>----- ----- ---------- --- the ------ ------ ---- -- ------<br>------- --- ------ ----- --- ---- ------- -- ---- --- --<br>------- ------,153120.79999995232,153119.89999985695,152733.465,152737.29999995232,152750.091,153133.511,,37,the
screen,html.Screen,2_1_1_1_38,2022-05-02T12:06:47.795Z,,,,,,,,,,,,,,,,,54,,,,,,,,,,,,,,370.2889999523177,,response,,,,100,,,,,,,Space,keypress(Space),,,,,,,,-- --- ---- --- ------ ----- ------- ---- -- --- ------- --<br>------- ---------- ------ -- ----- -- ----- -- ---- ------<br>--- ----- --- --- ------ -------- ----- --- ------ ----- --<br>----- ----- ---------- --- --- market ------ ---- -- ------<br>------- --- ------ ----- --- ---- ------- -- ---- --- --<br>------- ------,153504.59999990463,153503.79999995232,153116.753,153121.09999990463,153133.511,153516.868,,38,market
screen,html.Screen,2_1_1_1_39,2022-05-02T12:06:48.234Z,,,,,,,,,,,,,,,,,54,,,,,,,,,,,,,,426.3319998092775,,response,,,,100,,,,,,,Space,keypress(Space),,,,,,,,-- --- ---- --- ------ ----- ------- ---- -- --- ------- --<br>------- ---------- ------ -- ----- -- ----- -- ---- ------<br>--- ----- --- --- ------ -------- ----- --- ------ ----- --<br>----- ----- ---------- --- --- ------ became ---- -- ------<br>------- --- ------ ----- --- ---- ------- -- ---- --- --<br>------- ------,153943.59999990463,153943.19999980927,153500.169,153504.89999985695,153516.868,153950.132,,39,became
screen,html.Screen,2_1_1_1_40,2022-05-02T12:06:48.594Z,,,,,,,,,,,,,,,,,54,,,,,,,,,,,,,,353.0679998092528,,response,,,,100,,,,,,,Space,keypress(Space),,,,,,,,-- --- ---- --- ------ ----- ------- ---- -- --- ------- --<br>------- ---------- ------ -- ----- -- ----- -- ---- ------<br>--- ----- --- --- ------ -------- ----- --- ------ ----- --<br>----- ----- ---------- --- --- ------ ------ wary -- ------<br>------- --- ------ ----- --- ---- ------- -- ---- --- --<br>------- ------,154303.5,154303.19999980927,153933.507,153943.69999980927,153950.132,154316.809,,40,wary
screen,html.Screen,2_1_1_1_41,2022-05-02T12:06:49.004Z,,,,,,,,,,,,,,,,,54,,,,,,,,,,,,,,395.1909999999916,,response,,,,100,,,,,,,Space,keypress(Space),,,,,,,,-- --- ---- --- ------ ----- ------- ---- -- --- ------- --<br>------- ---------- ------ -- ----- -- ----- -- ---- ------<br>--- ----- --- --- ------ -------- ----- --- ------ ----- --<br>----- ----- ---------- --- --- ------ ------ ---- of ------<br>------- --- ------ ----- --- ---- ------- -- ---- --- --<br>------- ------,154713.09999990463,154712,154300.138,154303.59999990463,154316.809,154716.92,,41,of
screen,html.Screen,2_1_1_1_42,2022-05-02T12:06:49.354Z,,,,,,,,,,,,,,,,,54,,,,,,,,,,,,,,346.3799999523035,,response,,,,100,,,,,,,Space,keypress(Space),,,,,,,,-- --- ---- --- ------ ----- ------- ---- -- --- ------- --<br>------- ---------- ------ -- ----- -- ----- -- ---- ------<br>--- ----- --- --- ------ -------- ----- --- ------ ----- --<br>----- ----- ---------- --- --- ------ ------ ---- -- French<br>------- --- ------ ----- --- ---- ------- -- ---- --- --<br>------- ------,155063.5,155063.29999995232,154700.138,154713.39999985695,154716.92,155066.826,,42,French
screen,html.Screen,2_1_1_1_43,2022-05-02T12:06:49.908Z,,,,,,,,,,,,,,,,,54,,,,,,,,,,,,,,549.2739999046316,,response,,,,100,,,,,,,Space,keypress(Space),,,,,,,,-- --- ---- --- ------ ----- ------- ---- -- --- ------- --<br>------- ---------- ------ -- ----- -- ----- -- ---- ------<br>--- ----- --- --- ------ -------- ----- --- ------ ----- --<br>----- ----- ---------- --- --- ------ ------ ---- -- ------<br>credit. --- ------ ----- --- ---- ------- -- ---- --- --<br>------- ------,155617.19999980927,155616.09999990463,155050.296,155063.5,155066.826,155633.598,,43,credit.
screen,html.Screen,2_1_1_1_44,2022-05-02T12:06:50.267Z,,,,,,,,,,,,,,,,,54,,,,,,,,,,,,,,342.00199990463443,,response,,,,100,,,,,,,Space,keypress(Space),,,,,,,,-- --- ---- --- ------ ----- ------- ---- -- --- ------- --<br>------- ---------- ------ -- ----- -- ----- -- ---- ------<br>--- ----- --- --- ------ -------- ----- --- ------ ----- --<br>----- ----- ---------- --- --- ------ ------ ---- -- ------<br>------- The ------ ----- --- ---- ------- -- ---- --- --<br>------- ------,155976.19999980927,155975.59999990463,155616.834,155617.5,155633.598,155983.573,,44,The
screen,html.Screen,2_1_1_1_45,2022-05-02T12:06:50.547Z,,,,,,,,,,,,,,,,,54,,,,,,,,,,,,,,272.3269998569449,,response,,,,100,,,,,,,Space,keypress(Space),,,,,,,,-- --- ---- --- ------ ----- ------- ---- -- --- ------- --<br>------- ---------- ------ -- ----- -- ----- -- ---- ------<br>--- ----- --- --- ------ -------- ----- --- ------ ----- --<br>----- ----- ---------- --- --- ------ ------ ---- -- ------<br>------- --- French ----- --- ---- ------- -- ---- --- --<br>------- ------,156256.19999980927,156255.89999985695,155966.915,155976.39999985695,155983.573,156266.89,,45,French
screen,html.Screen,2_1_1_1_46,2022-05-02T12:06:50.868Z,,,,,,,,,,,,,,,,,54,,,,,,,,,,,,,,309.5099998569349,,response,,,,100,,,,,,,Space,keypress(Space),,,,,,,,-- --- ---- --- ------ ----- ------- ---- -- --- ------- --<br>------- ---------- ------ -- ----- -- ----- -- ---- ------<br>--- ----- --- --- ------ -------- ----- --- ------ ----- --<br>----- ----- ---------- --- --- ------ ------ ---- -- ------<br>------- --- ------ state --- ---- ------- -- ---- --- --<br>------- ------,156577.79999995232,156576.39999985695,156250.272,156256.29999995232,156266.89,156583.7,,46,state
screen,html.Screen,2_1_1_1_47,2022-05-02T12:06:51.234Z,,,,,,,,,,,,,,,,,54,,,,,,,,,,,,,,359.4999998092535,,response,,,,100,,,,,,,Space,keypress(Space),,,,,,,,-- --- ---- --- ------ ----- ------- ---- -- --- ------- --<br>------- ---------- ------ -- ----- -- ----- -- ---- ------<br>--- ----- --- --- ------ -------- ----- --- ------ ----- --<br>----- ----- ---------- --- --- ------ ------ ---- -- ------<br>------- --- ------ ----- was ---- ------- -- ---- --- --<br>------- ------,156943.59999990463,156943.19999980927,156566.89,156578.19999980927,156583.7,156950.231,,47,was
screen,html.Screen,2_1_1_1_48,2022-05-02T12:06:51.539Z,,,,,,,,,,,,,,,,,54,,,,,,,,,,,,,,297.8689999046328,,response,,,,100,,,,,,,Space,keypress(Space),,,,,,,,-- --- ---- --- ------ ----- ------- ---- -- --- ------- --<br>------- ---------- ------ -- ----- -- ----- -- ---- ------<br>--- ----- --- --- ------ -------- ----- --- ------ ----- --<br>----- ----- ---------- --- --- ------ ------ ---- -- ------<br>------- --- ------ ----- --- left ------- -- ---- --- --<br>------- ------,157249.09999990463,157248.09999990463,156933.74,156943.59999990463,156950.231,157268,,48,left
screen,html.Screen,2_1_1_1_49,2022-05-02T12:06:51.866Z,,,,,,,,,,,,,,,,,54,,,,,,,,,,,,,,307.2999999523163,,response,,,,100,,,,,,,Space,keypress(Space),,,,,,,,-- --- ---- --- ------ ----- ------- ---- -- --- ------- --<br>------- ---------- ------ -- ----- -- ----- -- ---- ------<br>--- ----- --- --- ------ -------- ----- --- ------ ----- --<br>----- ----- ---------- --- --- ------ ------ ---- -- ------<br>------- --- ------ ----- --- ---- without -- ---- --- --<br>------- ------,157575.5,157575.29999995232,157233.596,157249.19999980927,157268,157583.576,,49,without
screen,html.Screen,2_1_1_1_50,2022-05-02T12:06:52.189Z,,,,,,,,,,,,,,,,,54,,,,,,,,,,,,,,313.72399995231535,,response,,,,100,,,,,,,Space,keypress(Space),,,,,,,,-- --- ---- --- ------ ----- ------- ---- -- --- ------- --<br>------- ---------- ------ -- ----- -- ----- -- ---- ------<br>--- ----- --- --- ------ -------- ----- --- ------ ----- --<br>----- ----- ---------- --- --- ------ ------ ---- -- ------<br>------- --- ------ ----- --- ---- ------- an ---- --- --<br>------- ------,157898.19999980927,157897.29999995232,157567.027,157575.59999990463,157583.576,157900.373,,50,an
screen,html.Screen,2_1_1_1_51,2022-05-02T12:06:52.594Z,,,,,,,,,,,,,,,,,54,,,,,,,,,,,,,,402.92699995232397,,response,,,,100,,,,,,,Space,keypress(Space),,,,,,,,-- --- ---- --- ------ ----- ------- ---- -- --- ------- --<br>------- ---------- ------ -- ----- -- ----- -- ---- ------<br>--- ----- --- --- ------ -------- ----- --- ------ ----- --<br>----- ----- ---------- --- --- ------ ------ ---- -- ------<br>------- --- ------ ----- --- ---- ------- -- easy --- --<br>------- ------,158303.5,158303.29999995232,157883.593,157898.5,157900.373,158316.935,,51,easy
screen,html.Screen,2_1_1_1_52,2022-05-02T12:06:52.956Z,,,,,,,,,,,,,,,,,54,,,,,,,,,,,,,,347.1649999046349,,response,,,,100,,,,,,,Space,keypress(Space),,,,,,,,-- --- ---- --- ------ ----- ------- ---- -- --- ------- --<br>------- ---------- ------ -- ----- -- ----- -- ---- ------<br>--- ----- --- --- ------ -------- ----- --- ------ ----- --<br>----- ----- ---------- --- --- ------ ------ ---- -- ------<br>------- --- ------ ----- --- ---- ------- -- ---- way --<br>------- ------,158665.09999990463,158664.09999990463,158300.267,158303.59999990463,158316.935,158667.07,,52,way
screen,html.Screen,2_1_1_1_53,2022-05-02T12:06:53.330Z,,,,,,,,,,,,,,,,,54,,,,,,,,,,,,,,372.12999980925815,,response,,,,100,,,,,,,Space,keypress(Space),,,,,,,,-- --- ---- --- ------ ----- ------- ---- -- --- ------- --<br>------- ---------- ------ -- ----- -- ----- -- ---- ------<br>--- ----- --- --- ------ -------- ----- --- ------ ----- --<br>----- ----- ---------- --- --- ------ ------ ---- -- ------<br>------- --- ------ ----- --- ---- ------- -- ---- --- of<br>------- ------,159039.5,159039.19999980927,158650.251,158665.29999995232,158667.07,159050.294,,53,of
screen,html.Screen,2_1_1_1_54,2022-05-02T12:06:53.690Z,,,,,,,,,,,,,,,,,54,,,,,,,,,,,,,,349.10599985695444,,response,,,,100,,,,,,,Space,keypress(Space),,,,,,,,-- --- ---- --- ------ ----- ------- ---- -- --- ------- --<br>------- ---------- ------ -- ----- -- ----- -- ---- ------<br>--- ----- --- --- ------ -------- ----- --- ------ ----- --<br>----- ----- ---------- --- --- ------ ------ ---- -- ------<br>------- --- ------ ----- --- ---- ------- -- ---- --- --<br>raising ------,159400,159399.39999985695,159033.706,159039.59999990463,159050.294,159417.048,,54,raising
screen,html.Screen,2_1_1_1_55,2022-05-02T12:06:54.140Z,,,,,,,,,,,,,,,,,54,,,,,,,,,,,,,,430.9519999999902,,response,,,,100,,,,,,,Space,keypress(Space),,,,,,,,-- --- ---- --- ------ ----- ------- ---- -- --- ------- --<br>------- ---------- ------ -- ----- -- ----- -- ---- ------<br>--- ----- --- --- ------ -------- ----- --- ------ ----- --<br>----- ----- ---------- --- --- ------ ------ ---- -- ------<br>------- --- ------ ----- --- ---- ------- -- ---- --- --<br>------- money.,159849.09999990463,159848,159400.283,159400.09999990463,159417.048,159866.986,,55,money.
Item 100,flow.Loop,2_1_1_1,2022-05-02T12:06:54.140Z,,,,,,,,,,,,,,,,,,,,,,,,,,,,,,,24865.07500000001,,completion,,,,,G,,,,,,,,,,,silence,,,,,159849.59999990463,159848,134966.209,134966.69999980927,134982.925,159866.986,,,
Question 1,html.Screen,2_1_1_2,2022-05-02T12:06:56.322Z,,,,,,,,,,,,,,,,,,,,,,,,,,,,true,TRUE,,2164.313999952312,,response,,,,100,G,,,,,,TRUE,click #choice-1,,,,silence,,,,,162031.89999985695,162031.29999995232,159850.386,159849.69999980927,159866.986,162050.418,,,
Question 2,html.Screen,2_1_1_3,2022-05-02T12:06:58.396Z,,,,,,,,,,,,,,,,,,,,,,,,,,,,true,FALSE,,2054.881999952311,,response,,,,100,G,,,,,,FALSE,click #choice-2,,,,silence,,,,,164105.89999985695,164105.29999995232,162033.749,162031.89999985695,162050.418,164117.129,,,
Item 100,flow.Sequence,2_1_1,2022-05-02T12:06:58.396Z,,,,,,,,,,,,,,,,,,,,,,,,,,,,,,,39122.742999952316,,completion,,,,,,,,,,,,,,,,,,,,,164105.89999985695,164105.29999995232,124965.942,124979.09999990463,124982.557,164117.129,,,
End of Practice,html.Page,2_1_2,2022-05-02T12:07:02.773Z,,,,,,,,,,,,,,,,,,,,,,,,,,,,,,,4364.871000000014,,form submission,,,,,,,,,,,,,,,,,,,,,168482.19999980927,168482,164100.478,164105.89999985695,164117.129,168483.953,,,
Practice,flow.Sequence,2_1,2022-05-02T12:07:02.773Z,,,,,,,,,,,,,,,,,,,,,,,,,,,,,,,89034.241,,completion,,,,,,,,,,,,,,,,,,,,,168482.69999980927,168482,79431.107,79437.5,79447.759,168483.953,,,
Trap_instruction,html.Page,2_2_0,2022-05-02T12:07:07.491Z,,,,,,,,,,,,,,,,,,,,,,,,,,,,,,,4716.146999904624,,form submission,,,,,,,,,,,,,,,,,,,,,173200.19999980927,173200.09999990463,168467.275,168482.79999995232,168483.953,173200.771,,,
trap_trial,html.Screen,2_2_1,2022-05-02T12:07:10.865Z,,,,,,,,,,,,,,,,,,,,,,,,,,,,true,1,,3372.728999999992,,response,,,,,,,,,,,1,click #choice-1,,,,,,,,,176574.09999990463,176573.5,173184.137,173200.29999995232,173200.771,176584.183,,,
end of trap trial,html.Page,2_2_2,2022-05-02T12:07:12.217Z,,,,,,,,,,,,,,,,,,,,,,,,,,,,,,,1341.9169999046426,,form submission,,,,,,,,,,,,,,,,,,,,,177926.19999980927,177926.09999990463,176567.587,176574.09999990463,176584.183,177934.227,,,
Trap 1,flow.Sequence,2_2,2022-05-02T12:07:12.217Z,,,,,,,,,,,,,,,,,,,,,,,,,,,,,,,9442.146999904624,,completion,,,,,,,,,,,,,,,,,,,,,177926.29999995232,177926.09999990463,168467.275,168482.69999980927,168483.953,177934.227,,,
Standby,html.Page,2_3_0,2022-05-02T12:07:20.209Z,,,,,,,,,,,,,,,,,,,,,,,,,,,,,,,8000.269,,timeout,,,,,,,,,,,,,,,,,,,,,185918.19999980927,185917.843,177917.628,177926.39999985695,177934.227,185934.496,,,
Holding screen,html.Screen,2_3_1_0_0,2022-05-02T12:07:27.209Z,,,,,,,,,,,,,,,,,,,,,,,,,,,,,,,7000.222999999998,,timeout,,,,,,,,,,,,,,,,,,,,,192918.29999995232,192918.055,185917.843,185918.19999980927,185934.496,192934.719,,,
screen,html.Screen,2_3_1_0_1_0,2022-05-02T12:07:28.380Z,,,,,,,,,,,,,,,,,19,,,,,,,,,,,,,,1153.8809999046207,,response,,,,17,G,,,,,,Space,keypress(Space),,,,instrumental,,,,"Interestingly, --- -------- -------- ---------- ---- -------<br>-- ---------- -- --- ----- ------ ----- ---- --------- ----<br>------- ------ -------- -- ------ ---------- ------ ---<br>------ -- -- ---- -- ---------- -------- ------ ---- -------<br>---- --- --------- ------- ----- --------- ---- ----- --<br>------ -------- -- ------ -- ---- ------------",194089.69999980927,194088.59999990463,192918.055,192918.39999985695,192934.719,194101.432,,0,"Interestingly,"
screen,html.Screen,2_3_1_0_1_1,2022-05-02T12:07:28.810Z,,,,,,,,,,,,,,,,,19,,,,,,,,,,,,,,417.76799980926444,,response,,,,17,G,,,,,,Space,keypress(Space),,,,instrumental,,,,-------------- the -------- -------- ---------- ---- -------<br>-- ---------- -- --- ----- ------ ----- ---- --------- ----<br>------- ------ -------- -- ------ ---------- ------ ---<br>------ -- -- ---- -- ---------- -------- ------ ---- -------<br>---- --- --------- ------- ----- --------- ---- ----- --<br>------ -------- -- ------ -- ---- ------------,194519.59999990463,194519.19999980927,194084.683,194089.79999995232,194101.432,194534.787,,1,the
screen,html.Screen,2_3_1_0_1_2,2022-05-02T12:07:29.219Z,,,,,,,,,,,,,,,,,19,,,,,,,,,,,,,,392.7129999999888,,response,,,,17,G,,,,,,Space,keypress(Space),,,,instrumental,,,,-------------- --- heaviest -------- ---------- ---- -------<br>-- ---------- -- --- ----- ------ ----- ---- --------- ----<br>------- ------ -------- -- ------ ---------- ------ ---<br>------ -- -- ---- -- ---------- -------- ------ ---- -------<br>---- --- --------- ------- ----- --------- ---- ----- --<br>------ -------- -- ------ -- ---- ------------,194928,194927.5,194518.099,194519.69999980927,194534.787,194934.804,,2,heaviest
screen,html.Screen,2_3_1_0_1_3,2022-05-02T12:07:29.634Z,,,,,,,,,,,,,,,,,19,,,,,,,,,,,,,,408.49599995231256,,response,,,,17,G,,,,,,Space,keypress(Space),,,,instrumental,,,,-------------- --- -------- isotopes ---------- ---- -------<br>-- ---------- -- --- ----- ------ ----- ---- --------- ----<br>------- ------ -------- -- ------ ---------- ------ ---<br>------ -- -- ---- -- ---------- -------- ------ ---- -------<br>---- --- --------- ------- ----- --------- ---- ----- --<br>------ -------- -- ------ -- ---- ------------,195343.59999990463,195343.29999995232,194918.209,194928.09999990463,194934.804,195351.46,,3,isotopes
screen,html.Screen,2_3_1_0_1_4,2022-05-02T12:07:30.188Z,,,,,,,,,,,,,,,,,19,,,,,,,,,,,,,,544.5400000000081,,response,,,,17,G,,,,,,Space,keypress(Space),,,,instrumental,,,,-------------- --- -------- -------- physicists ---- -------<br>-- ---------- -- --- ----- ------ ----- ---- --------- ----<br>------- ------ -------- -- ------ ---------- ------ ---<br>------ -- -- ---- -- ---------- -------- ------ ---- -------<br>---- --- --------- ------- ----- --------- ---- ----- --<br>------ -------- -- ------ -- ---- ------------,195897.09999990463,195896,195334.844,195343.69999980927,195351.46,195901.601,,4,physicists
screen,html.Screen,2_3_1_0_1_5,2022-05-02T12:07:30.564Z,,,,,,,,,,,,,,,,,19,,,,,,,,,,,,,,370.49899990463746,,response,,,,17,G,,,,,,Space,keypress(Space),,,,instrumental,,,,-------------- --- -------- -------- ---------- have -------<br>-- ---------- -- --- ----- ------ ----- ---- --------- ----<br>------- ------ -------- -- ------ ---------- ------ ---<br>------ -- -- ---- -- ---------- -------- ------ ---- -------<br>---- --- --------- ------- ----- --------- ---- ----- --<br>------ -------- -- ------ -- ---- ------------,196273.19999980927,196272.09999990463,195884.805,195897.39999985695,195901.601,196284.955,,5,have
screen,html.Screen,2_3_1_0_1_6,2022-05-02T12:07:30.988Z,,,,,,,,,,,,,,,,,19,,,,,,,,,,,,,,411.1449999046454,,response,,,,17,G,,,,,,Space,keypress(Space),,,,instrumental,,,,-------------- --- -------- -------- ---------- ---- managed<br>-- ---------- -- --- ----- ------ ----- ---- --------- ----<br>------- ------ -------- -- ------ ---------- ------ ---<br>------ -- -- ---- -- ---------- -------- ------ ---- -------<br>---- --- --------- ------- ----- --------- ---- ----- --<br>------ -------- -- ------ -- ---- ------------,196697.09999990463,196696.09999990463,196268.136,196273.5,196284.955,196701.666,,6,managed
screen,html.Screen,2_3_1_0_1_7,2022-05-02T12:07:31.308Z,,,,,,,,,,,,,,,,,19,,,,,,,,,,,,,,314.33400000000256,,response,,,,17,G,,,,,,Space,keypress(Space),,,,instrumental,,,,-------------- --- -------- -------- ---------- ---- -------<br>to ---------- -- --- ----- ------ ----- ---- --------- ----<br>------- ------ -------- -- ------ ---------- ------ ---<br>------ -- -- ---- -- ---------- -------- ------ ---- -------<br>---- --- --------- ------- ----- --------- ---- ----- --<br>------ -------- -- ------ -- ---- ------------,197017.09999990463,197016,196684.85,196697.29999995232,196701.666,197036.246,,7,to
screen,html.Screen,2_3_1_0_1_8,2022-05-02T12:07:31.884Z,,,,,,,,,,,,,,,,,19,,,,,,,,,,,,,,555.8539999046188,,response,,,,17,G,,,,,,Space,keypress(Space),,,,instrumental,,,,-------------- --- -------- -------- ---------- ---- -------<br>-- synthesize -- --- ----- ------ ----- ---- --------- ----<br>------- ------ -------- -- ------ ---------- ------ ---<br>------ -- -- ---- -- ---------- -------- ------ ---- -------<br>---- --- --------- ------- ----- --------- ---- ----- --<br>------ -------- -- ------ -- ---- ------------,197593.09999990463,197592.09999990463,197001.564,197017.29999995232,197036.246,197601.532,,8,synthesize
screen,html.Screen,2_3_1_0_1_9,2022-05-02T12:07:32.251Z,,,,,,,,,,,,,,,,,19,,,,,,,,,,,,,,357.86799985694233,,response,,,,17,G,,,,,,Space,keypress(Space),,,,instrumental,,,,-------------- --- -------- -------- ---------- ---- -------<br>-- ---------- so --- ----- ------ ----- ---- --------- ----<br>------- ------ -------- -- ------ ---------- ------ ---<br>------ -- -- ---- -- ---------- -------- ------ ---- -------<br>---- --- --------- ------- ----- --------- ---- ----- --<br>------ -------- -- ------ -- ---- ------------,197959.79999995232,197959.39999985695,197584.832,197593.29999995232,197601.532,197968.243,,9,so
screen,html.Screen,2_3_1_0_1_10,2022-05-02T12:07:32.619Z,,,,,,,,,,,,,,,,,19,,,,,,,,,,,,,,359.3569999046449,,response,,,,17,G,,,,,,Space,keypress(Space),,,,instrumental,,,,-------------- --- -------- -------- ---------- ---- -------<br>-- ---------- -- far ----- ------ ----- ---- --------- ----<br>------- ------ -------- -- ------ ---------- ------ ---<br>------ -- -- ---- -- ---------- -------- ------ ---- -------<br>---- --- --------- ------- ----- --------- ---- ----- --<br>------ -------- -- ------ -- ---- ------------,198328.09999990463,198327.59999990463,197951.536,197959.89999985695,197968.243,198334.907,,10,far
screen,html.Screen,2_3_1_0_1_11,2022-05-02T12:07:32.996Z,,,,,,,,,,,,,,,,,19,,,,,,,,,,,,,,369.5929999999935,,response,,,,17,G,,,,,,Space,keypress(Space),,,,instrumental,,,,-------------- --- -------- -------- ---------- ---- -------<br>-- ---------- -- --- don't ------ ----- ---- --------- ----<br>------- ------ -------- -- ------ ---------- ------ ---<br>------ -- -- ---- -- ---------- -------- ------ ---- -------<br>---- --- --------- ------- ----- --------- ---- ----- --<br>------ -------- -- ------ -- ---- ------------,198705.5,198704.5,198318.237,198328.09999990463,198334.907,198718.302,,11,don't
screen,html.Screen,2_3_1_0_1_12,2022-05-02T12:07:33.363Z,,,,,,,,,,,,,,,,,19,,,,,,,,,,,,,,353.0979998569528,,response,,,,17,G,,,,,,Space,keypress(Space),,,,instrumental,,,,-------------- --- -------- -------- ---------- ---- -------<br>-- ---------- -- --- ----- behave ----- ---- --------- ----<br>------- ------ -------- -- ------ ---------- ------ ---<br>------ -- -- ---- -- ---------- -------- ------ ---- -------<br>---- --- --------- ------- ----- --------- ---- ----- --<br>------ -------- -- ------ -- ---- ------------,199071.89999985695,199071.39999985695,198701.582,198705.69999980927,198718.302,199084.952,,12,behave
screen,html.Screen,2_3_1_0_1_13,2022-05-02T12:07:33.811Z,,,,,,,,,,,,,,,,,19,,,,,,,,,,,,,,434.44799985695863,,response,,,,17,G,,,,,,Space,keypress(Space),,,,instrumental,,,,-------------- --- -------- -------- ---------- ---- -------<br>-- ---------- -- --- ----- ------ quite ---- --------- ----<br>------- ------ -------- -- ------ ---------- ------ ---<br>------ -- -- ---- -- ---------- -------- ------ ---- -------<br>---- --- --------- ------- ----- --------- ---- ----- --<br>------ -------- -- ------ -- ---- ------------,199519.79999995232,199519.39999985695,199068.315,199072,199084.952,199534.989,,13,quite
screen,html.Screen,2_3_1_0_1_14,2022-05-02T12:07:34.196Z,,,,,,,,,,,,,,,,,19,,,,,,,,,,,,,,369.0109999999986,,response,,,,17,G,,,,,,Space,keypress(Space),,,,instrumental,,,,-------------- --- -------- -------- ---------- ---- -------<br>-- ---------- -- --- ----- ------ ----- like --------- ----<br>------- ------ -------- -- ------ ---------- ------ ---<br>------ -- -- ---- -- ---------- -------- ------ ---- -------<br>---- --- --------- ------- ----- --------- ---- ----- --<br>------ -------- -- ------ -- ---- ------------,199905.19999980927,199904,199518.313,199520,199534.989,199918.363,,14,like
screen,html.Screen,2_3_1_0_1_15,2022-05-02T12:07:34.626Z,,,,,,,,,,,,,,,,,19,,,,,,,,,,,,,,416.9369999523042,,response,,,,17,G,,,,,,Space,keypress(Space),,,,instrumental,,,,-------------- --- -------- -------- ---------- ---- -------<br>-- ---------- -- --- ----- ------ ----- ---- science's ----<br>------- ------ -------- -- ------ ---------- ------ ---<br>------ -- -- ---- -- ---------- -------- ------ ---- -------<br>---- --- --------- ------- ----- --------- ---- ----- --<br>------ -------- -- ------ -- ---- ------------,200335.79999995232,200335.29999995232,199901.668,199905.39999985695,199918.363,200351.632,,15,science's
screen,html.Screen,2_3_1_0_1_16,2022-05-02T12:07:35.170Z,,,,,,,,,,,,,,,,,19,,,,,,,,,,,,,,527.667999952304,,response,,,,17,G,,,,,,Space,keypress(Space),,,,instrumental,,,,-------------- --- -------- -------- ---------- ---- -------<br>-- ---------- -- --- ----- ------ ----- ---- --------- best<br>------- ------ -------- -- ------ ---------- ------ ---<br>------ -- -- ---- -- ---------- -------- ------ ---- -------<br>---- --- --------- ------- ----- --------- ---- ----- --<br>------ -------- -- ------ -- ---- ------------,200879.59999990463,200879.29999995232,200335.034,200335.79999995232,200351.632,200884.979,,16,best
screen,html.Screen,2_3_1_0_1_17,2022-05-02T12:07:35.610Z,,,,,,,,,,,,,,,,,19,,,,,,,,,,,,,,434.22099980927305,,response,,,,17,G,,,,,,Space,keypress(Space),,,,instrumental,,,,-------------- --- -------- -------- ---------- ---- -------<br>-- ---------- -- --- ----- ------ ----- ---- --------- ----<br>current ------ -------- -- ------ ---------- ------ ---<br>------ -- -- ---- -- ---------- -------- ------ ---- -------<br>---- --- --------- ------- ----- --------- ---- ----- --<br>------ -------- -- ------ -- ---- ------------,201319.5,201319.19999980927,200868.391,200879.69999980927,200884.979,201334.992,,17,current
screen,html.Screen,2_3_1_0_1_18,2022-05-02T12:07:36.018Z,,,,,,,,,,,,,,,,,19,,,,,,,,,,,,,,392.20799980926677,,response,,,,17,G,,,,,,Space,keypress(Space),,,,instrumental,,,,-------------- --- -------- -------- ---------- ---- -------<br>-- ---------- -- --- ----- ------ ----- ---- --------- ----<br>------- models -------- -- ------ ---------- ------ ---<br>------ -- -- ---- -- ---------- -------- ------ ---- -------<br>---- --- --------- ------- ----- --------- ---- ----- --<br>------ -------- -- ------ -- ---- ------------,201727.59999990463,201727.19999980927,201318.329,201319.59999990463,201334.992,201734.999,,18,models
screen,html.Screen,2_3_1_0_1_19,2022-05-02T12:07:36.468Z,,,,,,,,,,,,,,,,,19,,,,,,,,,,,,,,441.0009999999893,,response,,,,17,G,,,,,,Space,keypress(Space),,,,instrumental,,,,"-------------- --- -------- -------- ---------- ---- -------<br>-- ---------- -- --- ----- ------ ----- ---- --------- ----<br>------- ------ predict, -- ------ ---------- ------ ---<br>------ -- -- ---- -- ---------- -------- ------ ---- -------<br>---- --- --------- ------- ----- --------- ---- ----- --<br>------ -------- -- ------ -- ---- ------------",202177,202176,201718.306,201727.69999980927,201734.999,202185.13,,19,"predict,"
screen,html.Screen,2_3_1_0_1_20,2022-05-02T12:07:36.820Z,,,,,,,,,,,,,,,,,19,,,,,,,,,,,,,,342.9699999046279,,response,,,,17,G,,,,,,Space,keypress(Space),,,,instrumental,,,,-------------- --- -------- -------- ---------- ---- -------<br>-- ---------- -- --- ----- ------ ----- ---- --------- ----<br>------- ------ -------- so ------ ---------- ------ ---<br>------ -- -- ---- -- ---------- -------- ------ ---- -------<br>---- --- --------- ------- ----- --------- ---- ----- --<br>------ -------- -- ------ -- ---- ------------,202529.19999980927,202528.09999990463,202168.341,202177.29999995232,202185.13,202535.018,,20,so
screen,html.Screen,2_3_1_0_1_21,2022-05-02T12:07:37.180Z,,,,,,,,,,,,,,,,,19,,,,,,,,,,,,,,352.98199999998906,,response,,,,17,G,,,,,,Space,keypress(Space),,,,instrumental,,,,-------------- --- -------- -------- ---------- ---- -------<br>-- ---------- -- --- ----- ------ ----- ---- --------- ----<br>------- ------ -------- -- stable ---------- ------ ---<br>------ -- -- ---- -- ---------- -------- ------ ---- -------<br>---- --- --------- ------- ----- --------- ---- ----- --<br>------ -------- -- ------ -- ---- ------------,202889.09999990463,202888,202518.447,202529.39999985695,202535.018,202901.7,,21,stable
screen,html.Screen,2_3_1_0_1_22,2022-05-02T12:07:37.938Z,,,,,,,,,,,,,,,,,19,,,,,,,,,,,,,,745.4999998092535,,response,,,,17,G,,,,,,Space,keypress(Space),,,,instrumental,,,,-------------- --- -------- -------- ---------- ---- -------<br>-- ---------- -- --- ----- ------ ----- ---- --------- ----<br>------- ------ -------- -- ------ superheavy ------ ---<br>------ -- -- ---- -- ---------- -------- ------ ---- -------<br>---- --- --------- ------- ----- --------- ---- ----- --<br>------ -------- -- ------ -- ---- ------------,203647.5,203647.19999980927,202885.023,202889.39999985695,202901.7,203651.719,,22,superheavy
screen,html.Screen,2_3_1_0_1_23,2022-05-02T12:07:38.603Z,,,,,,,,,,,,,,,,,19,,,,,,,,,,,,,,660.180999856937,,response,,,,17,G,,,,,,Space,keypress(Space),,,,instrumental,,,,-------------- --- -------- -------- ---------- ---- -------<br>-- ---------- -- --- ----- ------ ----- ---- --------- ----<br>------- ------ -------- -- ------ ---------- nuclei ---<br>------ -- -- ---- -- ---------- -------- ------ ---- -------<br>---- --- --------- ------- ----- --------- ---- ----- --<br>------ -------- -- ------ -- ---- ------------,204312.19999980927,204311.89999985695,203635.002,203647.59999990463,203651.719,204318.417,,23,nuclei
screen,html.Screen,2_3_1_0_1_24,2022-05-02T12:07:39.058Z,,,,,,,,,,,,,,,,,19,,,,,,,,,,,,,,448.7829998092784,,response,,,,17,G,,,,,,Space,keypress(Space),,,,instrumental,,,,-------------- --- -------- -------- ---------- ---- -------<br>-- ---------- -- --- ----- ------ ----- ---- --------- ----<br>------- ------ -------- -- ------ ---------- ------ are<br>------ -- -- ---- -- ---------- -------- ------ ---- -------<br>---- --- --------- ------- ----- --------- ---- ----- --<br>------ -------- -- ------ -- ---- ------------,204767.59999990463,204767.19999980927,204301.703,204312.29999995232,204318.417,204785.528,,24,are
screen,html.Screen,2_3_1_0_1_25,2022-05-02T12:07:39.420Z,,,,,,,,,,,,,,,,,19,,,,,,,,,,,,,,342.97200000000885,,response,,,,17,G,,,,,,Space,keypress(Space),,,,instrumental,,,,-------------- --- -------- -------- ---------- ---- -------<br>-- ---------- -- --- ----- ------ ----- ---- --------- ----<br>------- ------ -------- -- ------ ---------- ------ ---<br>likely -- -- ---- -- ---------- -------- ------ ---- -------<br>---- --- --------- ------- ----- --------- ---- ----- --<br>------ -------- -- ------ -- ---- ------------,205129.5,205128.5,204751.734,204767.69999980927,204785.528,205135.263,,25,likely
screen,html.Screen,2_3_1_0_1_26,2022-05-02T12:07:39.772Z,,,,,,,,,,,,,,,,,19,,,,,,,,,,,,,,344.7369999999937,,response,,,,17,G,,,,,,Space,keypress(Space),,,,instrumental,,,,-------------- --- -------- -------- ---------- ---- -------<br>-- ---------- -- --- ----- ------ ----- ---- --------- ----<br>------- ------ -------- -- ------ ---------- ------ ---<br>------ to -- ---- -- ---------- -------- ------ ---- -------<br>---- --- --------- ------- ----- --------- ---- ----- --<br>------ -------- -- ------ -- ---- ------------,205481,205480,205118.528,205129.79999995232,205135.263,205485.239,,26,to
screen,html.Screen,2_3_1_0_1_27,2022-05-02T12:07:40.108Z,,,,,,,,,,,,,,,,,19,,,,,,,,,,,,,,330.7609999999986,,response,,,,17,G,,,,,,Space,keypress(Space),,,,instrumental,,,,-------------- --- -------- -------- ---------- ---- -------<br>-- ---------- -- --- ----- ------ ----- ---- --------- ----<br>------- ------ -------- -- ------ ---------- ------ ---<br>------ -- be ---- -- ---------- -------- ------ ---- -------<br>---- --- --------- ------- ----- --------- ---- ----- --<br>------ -------- -- ------ -- ---- ------------,205817.09999990463,205816,205468.548,205481.29999995232,205485.239,205835.832,,27,be
screen,html.Screen,2_3_1_0_1_28,2022-05-02T12:07:40.564Z,,,,,,,,,,,,,,,,,19,,,,,,,,,,,,,,436.36799980927026,,response,,,,17,G,,,,,,Space,keypress(Space),,,,instrumental,,,,-------------- --- -------- -------- ---------- ---- -------<br>-- ---------- -- --- ----- ------ ----- ---- --------- ----<br>------- ------ -------- -- ------ ---------- ------ ---<br>------ -- -- full -- ---------- -------- ------ ---- -------<br>---- --- --------- ------- ----- --------- ---- ----- --<br>------ -------- -- ------ -- ---- ------------,206273.29999995232,206272.19999980927,205801.885,205817.29999995232,205835.832,206285.169,,28,full
screen,html.Screen,2_3_1_0_1_29,2022-05-02T12:07:40.971Z,,,,,,,,,,,,,,,,,19,,,,,,,,,,,,,,394.23099985695444,,response,,,,17,G,,,,,,Space,keypress(Space),,,,instrumental,,,,-------------- --- -------- -------- ---------- ---- -------<br>-- ---------- -- --- ----- ------ ----- ---- --------- ----<br>------- ------ -------- -- ------ ---------- ------ ---<br>------ -- -- ---- of ---------- -------- ------ ---- -------<br>---- --- --------- ------- ----- --------- ---- ----- --<br>------ -------- -- ------ -- ---- ------------,206679.79999995232,206679.39999985695,206268.47,206273.5,206285.169,206685.169,,29,of
screen,html.Screen,2_3_1_0_1_30,2022-05-02T12:07:41.594Z,,,,,,,,,,,,,,,,,19,,,,,,,,,,,,,,618.1309999523219,,response,,,,17,G,,,,,,Space,keypress(Space),,,,instrumental,,,,-------------- --- -------- -------- ---------- ---- -------<br>-- ---------- -- --- ----- ------ ----- ---- --------- ----<br>------- ------ -------- -- ------ ---------- ------ ---<br>------ -- -- ---- -- surprises. -------- ------ ---- -------<br>---- --- --------- ------- ----- --------- ---- ----- --<br>------ -------- -- ------ -- ---- ------------,207303.5,207303.29999995232,206668.474,206680,206685.169,207318.51,,30,surprises.
screen,html.Screen,2_3_1_0_1_31,2022-05-02T12:07:41.930Z,,,,,,,,,,,,,,,,,19,,,,,,,,,,,,,,320.78999995230697,,response,,,,17,G,,,,,,Space,keypress(Space),,,,instrumental,,,,-------------- --- -------- -------- ---------- ---- -------<br>-- ---------- -- --- ----- ------ ----- ---- --------- ----<br>------- ------ -------- -- ------ ---------- ------ ---<br>------ -- -- ---- -- ---------- Chemists ------ ---- -------<br>---- --- --------- ------- ----- --------- ---- ----- --<br>------ -------- -- ------ -- ---- ------------,207639.69999980927,207639.29999995232,207301.891,207303.59999990463,207318.51,207651.88,,31,Chemists
screen,html.Screen,2_3_1_0_1_32,2022-05-02T12:07:42.460Z,,,,,,,,,,,,,,,,,19,,,,,,,,,,,,,,516.1199999999953,,response,,,,17,G,,,,,,Space,keypress(Space),,,,instrumental,,,,-------------- --- -------- -------- ---------- ---- -------<br>-- ---------- -- --- ----- ------ ----- ---- --------- ----<br>------- ------ -------- -- ------ ---------- ------ ---<br>------ -- -- ---- -- ---------- -------- cannot ---- -------<br>---- --- --------- ------- ----- --------- ---- ----- --<br>------ -------- -- ------ -- ---- ------------,208169.19999980927,208168,207635.166,207639.79999995232,207651.88,208185.292,,32,cannot
screen,html.Screen,2_3_1_0_1_33,2022-05-02T12:07:42.860Z,,,,,,,,,,,,,,,,,19,,,,,,,,,,,,,,382.70800000001327,,response,,,,17,G,,,,,,Space,keypress(Space),,,,instrumental,,,,-------------- --- -------- -------- ---------- ---- -------<br>-- ---------- -- --- ----- ------ ----- ---- --------- ----<br>------- ------ -------- -- ------ ---------- ------ ---<br>------ -- -- ---- -- ---------- -------- ------ even -------<br>---- --- --------- ------- ----- --------- ---- ----- --<br>------ -------- -- ------ -- ---- ------------,208569.09999990463,208568,208168.584,208169.39999985695,208185.292,208585.328,,33,even
screen,html.Screen,2_3_1_0_1_34,2022-05-02T12:07:43.266Z,,,,,,,,,,,,,,,,,19,,,,,,,,,,,,,,389.97199995230767,,response,,,,17,G,,,,,,Space,keypress(Space),,,,instrumental,,,,-------------- --- -------- -------- ---------- ---- -------<br>-- ---------- -- --- ----- ------ ----- ---- --------- ----<br>------- ------ -------- -- ------ ---------- ------ ---<br>------ -- -- ---- -- ---------- -------- ------ ---- predict<br>---- --- --------- ------- ----- --------- ---- ----- --<br>------ -------- -- ------ -- ---- ------------,208975.79999995232,208975.29999995232,208568.605,208569.39999985695,208585.328,208985.25,,34,predict
screen,html.Screen,2_3_1_0_1_35,2022-05-02T12:07:43.611Z,,,,,,,,,,,,,,,,,19,,,,,,,,,,,,,,334.34999990463257,,response,,,,17,G,,,,,,Space,keypress(Space),,,,instrumental,,,,-------------- --- -------- -------- ---------- ---- -------<br>-- ---------- -- --- ----- ------ ----- ---- --------- ----<br>------- ------ -------- -- ------ ---------- ------ ---<br>------ -- -- ---- -- ---------- -------- ------ ---- -------<br>with --- --------- ------- ----- --------- ---- ----- --<br>------ -------- -- ------ -- ---- ------------,209320.19999980927,209319.59999990463,208968.628,208975.79999995232,208985.25,209335.255,,35,with
screen,html.Screen,2_3_1_0_1_36,2022-05-02T12:07:44.052Z,,,,,,,,,,,,,,,,,19,,,,,,,,,,,,,,424.74499999999534,,response,,,,17,G,,,,,,Space,keypress(Space),,,,instrumental,,,,-------------- --- -------- -------- ---------- ---- -------<br>-- ---------- -- --- ----- ------ ----- ---- --------- ----<br>------- ------ -------- -- ------ ---------- ------ ---<br>------ -- -- ---- -- ---------- -------- ------ ---- -------<br>---- any --------- ------- ----- --------- ---- ----- --<br>------ -------- -- ------ -- ---- ------------,209761.09999990463,209760,209318.67,209320.29999995232,209335.255,209768.799,,36,any
screen,html.Screen,2_3_1_0_1_37,2022-05-02T12:07:44.572Z,,,,,,,,,,,,,,,,,19,,,,,,,,,,,,,,511.20100000000093,,response,,,,17,G,,,,,,Space,keypress(Space),,,,instrumental,,,,-------------- --- -------- -------- ---------- ---- -------<br>-- ---------- -- --- ----- ------ ----- ---- --------- ----<br>------- ------ -------- -- ------ ---------- ------ ---<br>------ -- -- ---- -- ---------- -------- ------ ---- -------<br>---- --- certainty ------- ----- --------- ---- ----- --<br>------ -------- -- ------ -- ---- ------------,210281.19999980927,210280,209751.886,209761.39999985695,209768.799,210285.405,,37,certainty
screen,html.Screen,2_3_1_0_1_38,2022-05-02T12:07:44.947Z,,,,,,,,,,,,,,,,,19,,,,,,,,,,,,,,369.99499985695,,response,,,,17,G,,,,,,Space,keypress(Space),,,,instrumental,,,,-------------- --- -------- -------- ---------- ---- -------<br>-- ---------- -- --- ----- ------ ----- ---- --------- ----<br>------- ------ -------- -- ------ ---------- ------ ---<br>------ -- -- ---- -- ---------- -------- ------ ---- -------<br>---- --- --------- whether ----- --------- ---- ----- --<br>------ -------- -- ------ -- ---- ------------,210656,210655.39999985695,210268.647,210281.39999985695,210285.405,210668.674,,38,whether
screen,html.Screen,2_3_1_0_1_39,2022-05-02T12:07:45.346Z,,,,,,,,,,,,,,,,,19,,,,,,,,,,,,,,386.6259999523172,,response,,,,17,G,,,,,,Space,keypress(Space),,,,instrumental,,,,-------------- --- -------- -------- ---------- ---- -------<br>-- ---------- -- --- ----- ------ ----- ---- --------- ----<br>------- ------ -------- -- ------ ---------- ------ ---<br>------ -- -- ---- -- ---------- -------- ------ ---- -------<br>---- --- --------- ------- these --------- ---- ----- --<br>------ -------- -- ------ -- ---- ------------,211055.59999990463,211055.29999995232,210651.98,210656.09999990463,210668.674,211068.654,,39,these
