sender,sender_type,sender_id,timestamp,meta,,Blues,Classical,Country,Dance,Electronic,Folk,Gospel,Hip-Hop,Jazz,Latin,Musical/Film,New-age,Pop,Prolific_id,Provo_ID,R&B,Rap,Reggae,Religious,Rock,Soul,Swing,Traditional,age,artist_name,correct,correctResponse,distraction,duration,education,ended_on,familiarity,gender,headphone_check_performance,item,list,music_frequency,offensiveness,pleasantness,position_correct,preference,response,response_action,snippet_file,song_name,song_rating,sound,stimulus_1,stimulus_2,stimulus_3,text,time_commit,time_end,time_render,time_run,time_show,time_switch,url,word,word_ID
Prolific ID,html.Form,0,2022-05-10T16:18:35.462Z,"{""labjs_version"":""20.2.2"",""labjs_build"":{""flavor"":""production"",""commit"":""a25486e0c714a0ae2ce03ff94b7bb6896854dcfa""},""location"":""https://run.pavlovia.org/mvasilev/prolific3_music_b/"",""userAgent"":""Mozilla/5.0 (Windows NT 10.0; Win64; x64; rv:99.0) Gecko/20100101 Firefox/99.0"",""platform"":""Win32"",""language"":""en-US"",""locale"":""en-GB"",""timeZone"":""Europe/London"",""timezoneOffset"":-60,""screen_width"":2560,""screen_height"":1440,""scroll_width"":2560,""scroll_height"":1267,""window_innerWidth"":2560,""window_innerHeight"":1315,""devicePixelRatio"":1}",,,,,,,,,,,,,,,58670dbe8596530001079a2a,,,,,,,,,,,,,,,8489.119999999999,,form submission,,,,,,,,,,,,,,,,,,,,,27947,27947,19448.36,19448,19457.88,27947.96,{},,
Introduction,html.Screen,1_0,2022-05-10T16:19:04.408Z,,,,,,,,,,,,,,,,,,,,,,,,,,,,,,,28933.04,,response,,,,,,,,,,,continue,click button,,,,,,,,,56891,56881,27942.06,27947,27947.96,56895,,,
Volume calibration,html.Screen,1_1,2022-05-10T16:19:15.816Z,,,,,,,,,,,,,,,,,,,,,,,,,,,,,,,11392,,response,,,,,,,,,,,continue,click button,,,,,,,,,68300,68287,56889.16,56892,56895,68298.8,,,
Task instructions,html.Screen,1_2,2022-05-10T16:19:18.615Z,,,,,,,,,,,,,,,,,,,,,,,,,,,,,,,2786.199999999997,,response,,,,,,,,,,,continue,click button,,,,,,,,,71099,71085,68297.34,68300,68298.8,71102.78,,,
Sounds,html.Screen,1_3_0_0,2022-05-10T16:19:22.863Z,,,,,,,,,,,,,,,,,,,,,,,,,,,,,,,4248.419999999998,,timeout,,,,,,,,,2,,,,,,,,I,S,O,,75347,75345.14,71097.6,71100,71102.78,75351.2,,,
Judgement,html.Screen,1_3_0_1,2022-05-10T16:19:25.137Z,,,,,,,,,,,,,,,,,,,,,,,,,,,,true,2,,2264.800000000003,,response,,,,,,,,,2,,2,click #choice-2,,,,,I,S,O,,77622,77616,75345.14,75348,75351.2,77621.88,,,
Trial,flow.Sequence,1_3_0,2022-05-10T16:19:25.138Z,,,,,,,,,,,,,,,,,,,,,,,,,,,,,,,6513.220000000001,,completion,,,,,,,,,2,,,,,,,,I,S,O,,77622,77616,71097.6,71099,71102.78,77621.88,,,
Sounds,html.Screen,1_3_1_0,2022-05-10T16:19:29.387Z,,,,,,,,,,,,,,,,,,,,,,,,,,,,,,,4254.419999999998,,timeout,,,,,,,,,3,,,,,,,,I,O,S,,81871,81868.26,77619.32,77622,77621.88,81876.3,,,
Judgement,html.Screen,1_3_1_1,2022-05-10T16:19:30.588Z,,,,,,,,,,,,,,,,,,,,,,,,,,,,true,3,,1176.699999999997,,response,,,,,,,,,3,,3,click #choice-3,,,,,I,O,S,,83072,83053,81868.26,81871,81876.3,83070.24,,,
Trial,flow.Sequence,1_3_1,2022-05-10T16:19:30.588Z,,,,,,,,,,,,,,,,,,,,,,,,,,,,,,,5431.119999999995,,completion,,,,,,,,,3,,,,,,,,I,O,S,,83072,83053,77619.32,77622,77621.88,83070.24,,,
Sounds,html.Screen,1_3_2_0,2022-05-10T16:19:34.830Z,,,,,,,,,,,,,,,,,,,,,,,,,,,,,,,4248.399999999994,,timeout,,,,,,,,,1,,,,,,,,S,I,O,,87315,87312.58,83069.96,83072,83070.24,87318.64,,,
Judgement,html.Screen,1_3_2_1,2022-05-10T16:19:35.251Z,,,,,,,,,,,,,,,,,,,,,,,,,,,,true,1,,406.3600000000006,,response,,,,,,,,,1,,1,click #choice-1,,,,,S,I,O,,87735,87725,87312.58,87315,87318.64,87738.84,,,
Trial,flow.Sequence,1_3_2,2022-05-10T16:19:35.251Z,,,,,,,,,,,,,,,,,,,,,,,,,,,,,,,4654.759999999995,,completion,,,,,,,,,1,,,,,,,,S,I,O,,87735,87725,83069.96,83072,83070.24,87738.84,,,
Sounds,html.Screen,1_3_3_0,2022-05-10T16:19:39.504Z,,,,,,,,,,,,,,,,,,,,,,,,,,,,,,,4252.5,,timeout,,,,,,,,,2,,,,,,,,O,S,I,,91988,91985.28,87733.52,87735,87738.84,91991.34,,,
Judgement,html.Screen,1_3_3_1,2022-05-10T16:19:39.865Z,,,,,,,,,,,,,,,,,,,,,,,,,,,,true,2,,342.6600000000035,,response,,,,,,,,,2,,2,click #choice-2,,,,,O,S,I,,92350,92334,91985.28,91988,91991.34,92350.92,,,
Trial,flow.Sequence,1_3_3,2022-05-10T16:19:39.865Z,,,,,,,,,,,,,,,,,,,,,,,,,,,,,,,4595.1600000000035,,completion,,,,,,,,,2,,,,,,,,O,S,I,,92350,92334,87733.52,87735,87738.84,92350.92,,,
Sounds,html.Screen,1_3_4_0,2022-05-10T16:19:44.109Z,,,,,,,,,,,,,,,,,,,,,,,,,,,,,,,4248.440000000002,,timeout,,,,,,,,,3,,,,,,,,O,I,S,,96594,96593.3,92347.86,92350,92350.92,96599.36,,,
Judgement,html.Screen,1_3_4_1,2022-05-10T16:19:44.466Z,,,,,,,,,,,,,,,,,,,,,,,,,,,,true,3,,343.6399999999994,,response,,,,,,,,,3,,3,click #choice-3,,,,,O,I,S,,96950,96943,96593.3,96594,96599.36,96950.86,,,
Trial,flow.Sequence,1_3_4,2022-05-10T16:19:44.466Z,,,,,,,,,,,,,,,,,,,,,,,,,,,,,,,4592.080000000002,,completion,,,,,,,,,3,,,,,,,,O,I,S,,96950,96943,92347.86,92350,92350.92,96950.86,,,
Sounds,html.Screen,1_3_5_0,2022-05-10T16:19:48.710Z,,,,,,,,,,,,,,,,,,,,,,,,,,,,,,,4248.399999999994,,timeout,,,,,,,,,1,,,,,,,,S,O,I,,101194,101193.2,96948.44,96950,96950.86,101199.26,,,
Judgement,html.Screen,1_3_5_1,2022-05-10T16:19:49.506Z,,,,,,,,,,,,,,,,,,,,,,,,,,,,false,1,,774.7400000000052,,response,,,,,,,,,1,,2,click #choice-2,,,,,S,O,I,,101991,101974,101193.2,101194,101199.26,101993.2,,,
Trial,flow.Sequence,1_3_5,2022-05-10T16:19:49.506Z,,,,,,,,,,,,,,,,,,,,,,,,,,,,,,,5023.139999999999,,completion,,,,,,,,,1,,,,,,,,S,O,I,,101991,101974,96948.44,96950,96950.86,101993.2,,,
Task,flow.Loop,1_3,2022-05-10T16:19:49.507Z,,,,,,,,,,,,,,,,,,,,,,,,,,,,,,,30871.22,,completion,,,0.8333333333333334,,,,,,,,,,,,,,,,,,101991,101974,71097.6,71099,71102.78,101993.2,,,
Trap,html.Screen,1_4,2022-05-10T16:19:49.508Z,,,,,,,,,,,,,,,,,,,,,,,,,,,,,,,NaN,,skipped,,,,,,,,,,,,,,,,,,,,,101992,101974,,101992,,101993.2,,,
Thanks,html.Screen,1_5,2022-05-10T16:19:52.427Z,,,,,,,,,,,,,,,,,,,,,,,,,,,,,,,2902.800000000003,,response,,,,,,,,,,,continue,click button,,,,,,,,,104911,104896,101988.94,101992,101993.2,106339.8,,,
Headphone screening,flow.Sequence,1,2022-05-10T16:19:52.427Z,,,,,,,,,,,,,,,,,,,,,,,,,,,,,,,76948.04000000001,,completion,,,,,,,,,,,,,,,,,,,,,104911,104896,27942.06,27947,27947.96,106339.8,,,
Instructions,html.Page,2_0,2022-05-10T16:19:58.805Z,,,,,,,,,,,,,,,,,,,,,,,,,,,,,,,4949.199999999997,,form submission,,,,,,,,,,,,,,,,,,,,,111289,111289,106333.74,106334,106339.8,111285.08,,,
Holding screen,html.Screen,2_1_0_0,2022-05-10T16:20:08.798Z,,,,,,,,,,,,,,,,,,,,,,,,,,,,,,,10001.86,,timeout,,,,,,,,,,,,,,,,,,,,,121282,121280.88,111284.94,111289,111285.08,121286.94,,,
screen,html.Screen,2_1_0_1_0,2022-05-10T16:20:09.770Z,,,,,,,,,,,,,,,,,53,,,,,,,,,,,,,,954.0599999999977,,response,,,,99,,,,,,,Space,keypress(Space),,,,,,,,When -- ----- -- ------ - ------- --- ----------<br>------------- ------ ------ ---- ---- ------- ----- -- ----<br>-------- ------- -- ---------- --- - --- ----- ----- ----<br>---- --- --- ----- --- ---- ---- ------- ----- ---- -------<br>--- --- -- ----- -- --- ---- -- --- ---- -- ------ ------<br>--- ----- -- ----,122255,122241,121280.88,121282,121286.94,122258.58,,0,When
screen,html.Screen,2_1_0_1_1,2022-05-10T16:20:10.389Z,,,,,,,,,,,,,,,,,53,,,,,,,,,,,,,,607.4199999999983,,response,,,,99,,,,,,,Space,keypress(Space),,,,,,,,---- it ----- -- ------ - ------- --- ----------<br>------------- ------ ------ ---- ---- ------- ----- -- ----<br>-------- ------- -- ---------- --- - --- ----- ----- ----<br>---- --- --- ----- --- ---- ---- ------- ----- ---- -------<br>--- --- -- ----- -- --- ---- -- --- ---- -- ------ ------<br>--- ----- -- ----,122873,122866,122254.62,122255,122258.58,122876.78,,1,it
screen,html.Screen,2_1_0_1_2,2022-05-10T16:20:11.049Z,,,,,,,,,,,,,,,,,53,,,,,,,,,,,,,,644.2200000000012,,response,,,,99,,,,,,,Space,keypress(Space),,,,,,,,---- -- comes -- ------ - ------- --- ----------<br>------------- ------ ------ ---- ---- ------- ----- -- ----<br>-------- ------- -- ---------- --- - --- ----- ----- ----<br>---- --- --- ----- --- ---- ---- ------- ----- ---- -------<br>--- --- -- ----- -- --- ---- -- --- ---- -- ------ ------<br>--- ----- -- ----,123534,123521,122873.52,122873,122876.78,123537.38,,2,comes
screen,html.Screen,2_1_0_1_3,2022-05-10T16:20:11.607Z,,,,,,,,,,,,,,,,,53,,,,,,,,,,,,,,547.6199999999953,,response,,,,99,,,,,,,Space,keypress(Space),,,,,,,,---- -- ----- to ------ - ------- --- ----------<br>------------- ------ ------ ---- ---- ------- ----- -- ----<br>-------- ------- -- ---------- --- - --- ----- ----- ----<br>---- --- --- ----- --- ---- ---- ------- ----- ---- -------<br>--- --- -- ----- -- --- ---- -- --- ---- -- ------ ------<br>--- ----- -- ----,124091,124085,123533.5,123534,123537.38,124096.96,,3,to
screen,html.Screen,2_1_0_1_4,2022-05-10T16:20:12.123Z,,,,,,,,,,,,,,,,,53,,,,,,,,,,,,,,502.0399999999936,,response,,,,99,,,,,,,Space,keypress(Space),,,,,,,,---- -- ----- -- having - ------- --- ----------<br>------------- ------ ------ ---- ---- ------- ----- -- ----<br>-------- ------- -- ---------- --- - --- ----- ----- ----<br>---- --- --- ----- --- ---- ---- ------- ----- ---- -------<br>--- --- -- ----- -- --- ---- -- --- ---- -- ------ ------<br>--- ----- -- ----,124608,124599,124090.96,124091,124096.96,124612.12,,4,having
screen,html.Screen,2_1_0_1_5,2022-05-10T16:20:12.523Z,,,,,,,,,,,,,,,,,53,,,,,,,,,,,,,,378.88000000000466,,response,,,,99,,,,,,,Space,keypress(Space),,,,,,,,---- -- ----- -- ------ a ------- --- ----------<br>------------- ------ ------ ---- ---- ------- ----- -- ----<br>-------- ------- -- ---------- --- - --- ----- ----- ----<br>---- --- --- ----- --- ---- ---- ------- ----- ---- -------<br>--- --- -- ----- -- --- ---- -- --- ---- -- ------ ------<br>--- ----- -- ----,125007,124991,124607.72,124608,124612.12,125012.12,,5,a
screen,html.Screen,2_1_0_1_6,2022-05-10T16:20:13.011Z,,,,,,,,,,,,,,,,,53,,,,,,,,,,,,,,478.88000000000466,,response,,,,99,,,,,,,Space,keypress(Space),,,,,,,,---- -- ----- -- ------ - lasting --- ----------<br>------------- ------ ------ ---- ---- ------- ----- -- ----<br>-------- ------- -- ---------- --- - --- ----- ----- ----<br>---- --- --- ----- --- ---- ---- ------- ----- ---- -------<br>--- --- -- ----- -- --- ---- -- --- ---- -- ------ ------<br>--- ----- -- ----,125495,125491,125007.62,125007,125012.12,125498.96,,6,lasting
screen,html.Screen,2_1_0_1_7,2022-05-10T16:20:13.482Z,,,,,,,,,,,,,,,,,53,,,,,,,,,,,,,,460.0399999999936,,response,,,,99,,,,,,,Space,keypress(Space),,,,,,,,---- -- ----- -- ------ - ------- and ----------<br>------------- ------ ------ ---- ---- ------- ----- -- ----<br>-------- ------- -- ---------- --- - --- ----- ----- ----<br>---- --- --- ----- --- ---- ---- ------- ----- ---- -------<br>--- --- -- ----- -- --- ---- -- --- ---- -- ------ ------<br>--- ----- -- ----,125967,125959,125494.9,125495,125498.96,125971.7,,7,and
screen,html.Screen,2_1_0_1_8,2022-05-10T16:20:13.939Z,,,,,,,,,,,,,,,,,53,,,,,,,,,,,,,,440.3000000000029,,response,,,,99,,,,,,,Space,keypress(Space),,,,,,,,---- -- ----- -- ------ - ------- --- fulfilling<br>------------- ------ ------ ---- ---- ------- ----- -- ----<br>-------- ------- -- ---------- --- - --- ----- ----- ----<br>---- --- --- ----- --- ---- ---- ------- ----- ---- -------<br>--- --- -- ----- -- --- ---- -- --- ---- -- ------ ------<br>--- ----- -- ----,126422,126412,125966.74,125967,125971.7,126426.24,,8,fulfilling
screen,html.Screen,2_1_0_1_9,2022-05-10T16:20:14.434Z,,,,,,,,,,,,,,,,,53,,,,,,,,,,,,,,486.75999999999476,,response,,,,99,,,,,,,Space,keypress(Space),,,,,,,,"---- -- ----- -- ------ - ------- --- ----------<br>relationship, ------ ------ ---- ---- ------- ----- -- ----<br>-------- ------- -- ---------- --- - --- ----- ----- ----<br>---- --- --- ----- --- ---- ---- ------- ----- ---- -------<br>--- --- -- ----- -- --- ---- -- --- ---- -- ------ ------<br>--- ----- -- ----",126918,126913,126423.04,126423,126426.24,126919.16,,9,"relationship,"
screen,html.Screen,2_1_0_1_10,2022-05-10T16:20:14.938Z,,,,,,,,,,,,,,,,,53,,,,,,,,,,,,,,493.8399999999965,,response,,,,99,,,,,,,Space,keypress(Space),,,,,,,,---- -- ----- -- ------ - ------- --- ----------<br>------------- common ------ ---- ---- ------- ----- -- ----<br>-------- ------- -- ---------- --- - --- ----- ----- ----<br>---- --- --- ----- --- ---- ---- ------- ----- ---- -------<br>--- --- -- ----- -- --- ---- -- --- ---- -- ------ ------<br>--- ----- -- ----,127422,127413,126917.86,126918,126919.16,127428.24,,10,common
screen,html.Screen,2_1_0_1_11,2022-05-10T16:20:15.419Z,,,,,,,,,,,,,,,,,53,,,,,,,,,,,,,,468.75999999999476,,response,,,,99,,,,,,,Space,keypress(Space),,,,,,,,---- -- ----- -- ------ - ------- --- ----------<br>------------- ------ wisdom ---- ---- ------- ----- -- ----<br>-------- ------- -- ---------- --- - --- ----- ----- ----<br>---- --- --- ----- --- ---- ---- ------- ----- ---- -------<br>--- --- -- ----- -- --- ---- -- --- ---- -- ------ ------<br>--- ----- -- ----,127903,127897,127422.84,127423,127428.24,127907.04,,11,wisdom
screen,html.Screen,2_1_0_1_12,2022-05-10T16:20:15.879Z,,,,,,,,,,,,,,,,,53,,,,,,,,,,,,,,442.9600000000064,,response,,,,99,,,,,,,Space,keypress(Space),,,,,,,,---- -- ----- -- ------ - ------- --- ----------<br>------------- ------ ------ says ---- ------- ----- -- ----<br>-------- ------- -- ---------- --- - --- ----- ----- ----<br>---- --- --- ----- --- ---- ---- ------- ----- ---- -------<br>--- --- -- ----- -- --- ---- -- --- ---- -- ------ ------<br>--- ----- -- ----,128363,128350,127902.88,127903,127907.04,128363.58,,12,says
screen,html.Screen,2_1_0_1_13,2022-05-10T16:20:16.342Z,,,,,,,,,,,,,,,,,53,,,,,,,,,,,,,,455.41999999999825,,response,,,,99,,,,,,,Space,keypress(Space),,,,,,,,---- -- ----- -- ------ - ------- --- ----------<br>------------- ------ ------ ---- that ------- ----- -- ----<br>-------- ------- -- ---------- --- - --- ----- ----- ----<br>---- --- --- ----- --- ---- ---- ------- ----- ---- -------<br>--- --- -- ----- -- --- ---- -- --- ---- -- ------ ------<br>--- ----- -- ----,128826,128819,128362.98,128363,128363.58,128830.26,,13,that
screen,html.Screen,2_1_0_1_14,2022-05-10T16:20:16.810Z,,,,,,,,,,,,,,,,,53,,,,,,,,,,,,,,456.74000000000524,,response,,,,99,,,,,,,Space,keypress(Space),,,,,,,,---- -- ----- -- ------ - ------- --- ----------<br>------------- ------ ------ ---- ---- feeling ----- -- ----<br>-------- ------- -- ---------- --- - --- ----- ----- ----<br>---- --- --- ----- --- ---- ---- ------- ----- ---- -------<br>--- --- -- ----- -- --- ---- -- --- ---- -- ------ ------<br>--- ----- -- ----,129294,129287,128826.12,128826,128830.26,129296.92,,14,feeling
screen,html.Screen,2_1_0_1_15,2022-05-10T16:20:17.267Z,,,,,,,,,,,,,,,,,53,,,,,,,,,,,,,,443.08000000000175,,response,,,,99,,,,,,,Space,keypress(Space),,,,,,,,---- -- ----- -- ------ - ------- --- ----------<br>------------- ------ ------ ---- ---- ------- close -- ----<br>-------- ------- -- ---------- --- - --- ----- ----- ----<br>---- --- --- ----- --- ---- ---- ------- ----- ---- -------<br>--- --- -- ----- -- --- ---- -- --- ---- -- ------ ------<br>--- ----- -- ----,129751,129740,129294.16,129294,129296.92,129753.48,,15,close
screen,html.Screen,2_1_0_1_16,2022-05-10T16:20:17.711Z,,,,,,,,,,,,,,,,,53,,,,,,,,,,,,,,424.5200000000041,,response,,,,99,,,,,,,Space,keypress(Space),,,,,,,,---- -- ----- -- ------ - ------- --- ----------<br>------------- ------ ------ ---- ---- ------- ----- to ----<br>-------- ------- -- ---------- --- - --- ----- ----- ----<br>---- --- --- ----- --- ---- ---- ------- ----- ---- -------<br>--- --- -- ----- -- --- ---- -- --- ---- -- ------ ------<br>--- ----- -- ----,130195,130178,129751.2,129751,129753.48,130195.9,,16,to
screen,html.Screen,2_1_0_1_17,2022-05-10T16:20:18.169Z,,,,,,,,,,,,,,,,,53,,,,,,,,,,,,,,451.1000000000058,,response,,,,99,,,,,,,Space,keypress(Space),,,,,,,,---- -- ----- -- ------ - ------- --- ----------<br>------------- ------ ------ ---- ---- ------- ----- -- your<br>-------- ------- -- ---------- --- - --- ----- ----- ----<br>---- --- --- ----- --- ---- ---- ------- ----- ---- -------<br>--- --- -- ----- -- --- ---- -- --- ---- -- ------ ------<br>--- ----- -- ----,130653,130647,130195.04,130195,130195.9,130656.5,,17,your
screen,html.Screen,2_1_0_1_18,2022-05-10T16:20:18.648Z,,,,,,,,,,,,,,,,,53,,,,,,,,,,,,,,458.5,,response,,,,99,,,,,,,Space,keypress(Space),,,,,,,,---- -- ----- -- ------ - ------- --- ----------<br>------------- ------ ------ ---- ---- ------- ----- -- ----<br>romantic ------- -- ---------- --- - --- ----- ----- ----<br>---- --- --- ----- --- ---- ---- ------- ----- ---- -------<br>--- --- -- ----- -- --- ---- -- --- ---- -- ------ ------<br>--- ----- -- ----,131132,131115,130653.34,130653,130656.5,131137.28,,18,romantic
screen,html.Screen,2_1_0_1_19,2022-05-10T16:20:19.111Z,,,,,,,,,,,,,,,,,53,,,,,,,,,,,,,,447.72000000000116,,response,,,,99,,,,,,,Space,keypress(Space),,,,,,,,---- -- ----- -- ------ - ------- --- ----------<br>------------- ------ ------ ---- ---- ------- ----- -- ----<br>-------- partner -- ---------- --- - --- ----- ----- ----<br>---- --- --- ----- --- ---- ---- ------- ----- ---- -------<br>--- --- -- ----- -- --- ---- -- --- ---- -- ------ ------<br>--- ----- -- ----,131595,131585,131132.12,131132,131137.28,131597.9,,19,partner
screen,html.Screen,2_1_0_1_20,2022-05-10T16:20:19.542Z,,,,,,,,,,,,,,,,,53,,,,,,,,,,,,,,423.1000000000058,,response,,,,99,,,,,,,Space,keypress(Space),,,,,,,,---- -- ----- -- ------ - ------- --- ----------<br>------------- ------ ------ ---- ---- ------- ----- -- ----<br>-------- ------- is ---------- --- - --- ----- ----- ----<br>---- --- --- ----- --- ---- ---- ------- ----- ---- -------<br>--- --- -- ----- -- --- ---- -- --- ---- -- ------ ------<br>--- ----- -- ----,132027,132021,131595.4,131595,131597.9,132028.2,,20,is
screen,html.Screen,2_1_0_1_21,2022-05-10T16:20:20.029Z,,,,,,,,,,,,,,,,,53,,,,,,,,,,,,,,478.79999999998836,,response,,,,99,,,,,,,Space,keypress(Space),,,,,,,,---- -- ----- -- ------ - ------- --- ----------<br>------------- ------ ------ ---- ---- ------- ----- -- ----<br>-------- ------- -- paramount. --- - --- ----- ----- ----<br>---- --- --- ----- --- ---- ---- ------- ----- ---- -------<br>--- --- -- ----- -- --- ---- -- --- ---- -- ------ ------<br>--- ----- -- ----,132513,132507,132026.52,132027,132028.2,132515.04,,21,paramount.
screen,html.Screen,2_1_0_1_22,2022-05-10T16:20:20.475Z,,,,,,,,,,,,,,,,,53,,,,,,,,,,,,,,428.95999999999185,,response,,,,99,,,,,,,Space,keypress(Space),,,,,,,,---- -- ----- -- ------ - ------- --- ----------<br>------------- ------ ------ ---- ---- ------- ----- -- ----<br>-------- ------- -- ---------- But - --- ----- ----- ----<br>---- --- --- ----- --- ---- ---- ------- ----- ---- -------<br>--- --- -- ----- -- --- ---- -- --- ---- -- ------ ------<br>--- ----- -- ----,132960,132944,132513.36,132513,132515.04,132963.54,,22,But
screen,html.Screen,2_1_0_1_23,2022-05-10T16:20:20.925Z,,,,,,,,,,,,,,,,,53,,,,,,,,,,,,,,433.45999999999185,,response,,,,99,,,,,,,Space,keypress(Space),,,,,,,,---- -- ----- -- ------ - ------- --- ----------<br>------------- ------ ------ ---- ---- ------- ----- -- ----<br>-------- ------- -- ---------- --- a --- ----- ----- ----<br>---- --- --- ----- --- ---- ---- ------- ----- ---- -------<br>--- --- -- ----- -- --- ---- -- --- ---- -- ------ ------<br>--- ----- -- ----,133409,133397,132959.52,132960,132963.54,133412.02,,23,a
screen,html.Screen,2_1_0_1_24,2022-05-10T16:20:21.308Z,,,,,,,,,,,,,,,,,53,,,,,,,,,,,,,,375.9800000000105,,response,,,,99,,,,,,,Space,keypress(Space),,,,,,,,---- -- ----- -- ------ - ------- --- ----------<br>------------- ------ ------ ---- ---- ------- ----- -- ----<br>-------- ------- -- ---------- --- - new ----- ----- ----<br>---- --- --- ----- --- ---- ---- ------- ----- ---- -------<br>--- --- -- ----- -- --- ---- -- --- ---- -- ------ ------<br>--- ----- -- ----,133792,133788,133409.52,133409,133412.02,133793.84,,24,new
screen,html.Screen,2_1_0_1_25,2022-05-10T16:20:21.696Z,,,,,,,,,,,,,,,,,53,,,,,,,,,,,,,,384.1600000000035,,response,,,,99,,,,,,,Space,keypress(Space),,,,,,,,---- -- ----- -- ------ - ------- --- ----------<br>------------- ------ ------ ---- ---- ------- ----- -- ----<br>-------- ------- -- ---------- --- - --- study ----- ----<br>---- --- --- ----- --- ---- ---- ------- ----- ---- -------<br>--- --- -- ----- -- --- ---- -- --- ---- -- ------ ------<br>--- ----- -- ----,134181,134178,133791.38,133792,133793.84,134183.72,,25,study
screen,html.Screen,2_1_0_1_26,2022-05-10T16:20:22.102Z,,,,,,,,,,,,,,,,,53,,,,,,,,,,,,,,400.27999999999884,,response,,,,99,,,,,,,Space,keypress(Space),,,,,,,,---- -- ----- -- ------ - ------- --- ----------<br>------------- ------ ------ ---- ---- ------- ----- -- ----<br>-------- ------- -- ---------- --- - --- ----- finds ----<br>---- --- --- ----- --- ---- ---- ------- ----- ---- -------<br>--- --- -- ----- -- --- ---- -- --- ---- -- ------ ------<br>--- ----- -- ----,134586,134584,134180.7,134181,134183.72,134589.78,,26,finds
screen,html.Screen,2_1_0_1_27,2022-05-10T16:20:22.800Z,,,,,,,,,,,,,,,,,53,,,,,,,,,,,,,,682.2200000000012,,response,,,,99,,,,,,,Space,keypress(Space),,,,,,,,---- -- ----- -- ------ - ------- --- ----------<br>------------- ------ ------ ---- ---- ------- ----- -- ----<br>-------- ------- -- ---------- --- - --- ----- ----- that<br>---- --- --- ----- --- ---- ---- ------- ----- ---- -------<br>--- --- -- ----- -- --- ---- -- --- ---- -- ------ ------<br>--- ----- -- ----,135284,135272,134586.14,134586,134589.78,135286.76,,27,that
screen,html.Screen,2_1_0_1_28,2022-05-10T16:20:23.239Z,,,,,,,,,,,,,,,,,53,,,,,,,,,,,,,,422.2399999999907,,response,,,,99,,,,,,,Space,keypress(Space),,,,,,,,---- -- ----- -- ------ - ------- --- ----------<br>------------- ------ ------ ---- ---- ------- ----- -- ----<br>-------- ------- -- ---------- --- - --- ----- ----- ----<br>it's --- --- ----- --- ---- ---- ------- ----- ---- -------<br>--- --- -- ----- -- --- ---- -- --- ---- -- ------ ------<br>--- ----- -- ----,135724,135709,135283.68,135284,135286.76,135725.14,,28,it's
screen,html.Screen,2_1_0_1_29,2022-05-10T16:20:23.622Z,,,,,,,,,,,,,,,,,53,,,,,,,,,,,,,,373.85999999998603,,response,,,,99,,,,,,,Space,keypress(Space),,,,,,,,---- -- ----- -- ------ - ------- --- ----------<br>------------- ------ ------ ---- ---- ------- ----- -- ----<br>-------- ------- -- ---------- --- - --- ----- ----- ----<br>---- not --- ----- --- ---- ---- ------- ----- ---- -------<br>--- --- -- ----- -- --- ---- -- --- ---- -- ------ ------<br>--- ----- -- ----,136107,136099,135723.68,135724,135725.14,136106.96,,29,not
screen,html.Screen,2_1_0_1_30,2022-05-10T16:20:24.034Z,,,,,,,,,,,,,,,,,53,,,,,,,,,,,,,,400.04000000000815,,response,,,,99,,,,,,,Space,keypress(Space),,,,,,,,---- -- ----- -- ------ - ------- --- ----------<br>------------- ------ ------ ---- ---- ------- ----- -- ----<br>-------- ------- -- ---------- --- - --- ----- ----- ----<br>---- --- how ----- --- ---- ---- ------- ----- ---- -------<br>--- --- -- ----- -- --- ---- -- --- ---- -- ------ ------<br>--- ----- -- ----,136518,136507,136106.86,136107,136106.96,136519.08,,30,how
screen,html.Screen,2_1_0_1_31,2022-05-10T16:20:24.421Z,,,,,,,,,,,,,,,,,53,,,,,,,,,,,,,,376.9200000000128,,response,,,,99,,,,,,,Space,keypress(Space),,,,,,,,---- -- ----- -- ------ - ------- --- ----------<br>------------- ------ ------ ---- ---- ------- ----- -- ----<br>-------- ------- -- ---------- --- - --- ----- ----- ----<br>---- --- --- close --- ---- ---- ------- ----- ---- -------<br>--- --- -- ----- -- --- ---- -- --- ---- -- ------ ------<br>--- ----- -- ----,136906,136896,136517.82,136518,136519.08,136908.96,,31,close
screen,html.Screen,2_1_0_1_32,2022-05-10T16:20:24.801Z,,,,,,,,,,,,,,,,,53,,,,,,,,,,,,,,362.04000000000815,,response,,,,99,,,,,,,Space,keypress(Space),,,,,,,,---- -- ----- -- ------ - ------- --- ----------<br>------------- ------ ------ ---- ---- ------- ----- -- ----<br>-------- ------- -- ---------- --- - --- ----- ----- ----<br>---- --- --- ----- you ---- ---- ------- ----- ---- -------<br>--- --- -- ----- -- --- ---- -- --- ---- -- ------ ------<br>--- ----- -- ----,137284,137271,136905.78,136906,136908.96,137290.74,,32,you
screen,html.Screen,2_1_0_1_33,2022-05-10T16:20:25.165Z,,,,,,,,,,,,,,,,,53,,,,,,,,,,,,,,356.2600000000093,,response,,,,99,,,,,,,Space,keypress(Space),,,,,,,,---- -- ----- -- ------ - ------- --- ----------<br>------------- ------ ------ ---- ---- ------- ----- -- ----<br>-------- ------- -- ---------- --- - --- ----- ----- ----<br>---- --- --- ----- --- feel ---- ------- ----- ---- -------<br>--- --- -- ----- -- --- ---- -- --- ---- -- ------ ------<br>--- ----- -- ----,137649,137647,137284.8,137284,137290.74,137654.38,,33,feel
screen,html.Screen,2_1_0_1_34,2022-05-10T16:20:25.526Z,,,,,,,,,,,,,,,,,53,,,,,,,,,,,,,,351.61999999999534,,response,,,,99,,,,,,,Space,keypress(Space),,,,,,,,---- -- ----- -- ------ - ------- --- ----------<br>------------- ------ ------ ---- ---- ------- ----- -- ----<br>-------- ------- -- ---------- --- - --- ----- ----- ----<br>---- --- --- ----- --- ---- that ------- ----- ---- -------<br>--- --- -- ----- -- --- ---- -- --- ---- -- ------ ------<br>--- ----- -- ----,138011,138006,137648.82,137649,137654.38,138011.96,,34,that
screen,html.Screen,2_1_0_1_35,2022-05-10T16:20:25.913Z,,,,,,,,,,,,,,,,,53,,,,,,,,,,,,,,369.04000000000815,,response,,,,99,,,,,,,Space,keypress(Space),,,,,,,,---- -- ----- -- ------ - ------- --- ----------<br>------------- ------ ------ ---- ---- ------- ----- -- ----<br>-------- ------- -- ---------- --- - --- ----- ----- ----<br>---- --- --- ----- --- ---- ---- matters ----- ---- -------<br>--- --- -- ----- -- --- ---- -- --- ---- -- ------ ------<br>--- ----- -- ----,138397,138381,138010.9,138011,138011.96,138401.86,,35,matters
screen,html.Screen,2_1_0_1_36,2022-05-10T16:20:26.283Z,,,,,,,,,,,,,,,,,53,,,,,,,,,,,,,,354.14000000001397,,response,,,,99,,,,,,,Space,keypress(Space),,,,,,,,"---- -- ----- -- ------ - ------- --- ----------<br>------------- ------ ------ ---- ---- ------- ----- -- ----<br>-------- ------- -- ---------- --- - --- ----- ----- ----<br>---- --- --- ----- --- ---- ---- ------- most, ---- -------<br>--- --- -- ----- -- --- ---- -- --- ---- -- ------ ------<br>--- ----- -- ----",138767,138756,138397.2,138397,138401.86,138771.54,,36,"most,"
screen,html.Screen,2_1_0_1_37,2022-05-10T16:20:26.686Z,,,,,,,,,,,,,,,,,53,,,,,,,,,,,,,,390.45999999999185,,response,,,,99,,,,,,,Space,keypress(Space),,,,,,,,---- -- ----- -- ------ - ------- --- ----------<br>------------- ------ ------ ---- ---- ------- ----- -- ----<br>-------- ------- -- ---------- --- - --- ----- ----- ----<br>---- --- --- ----- --- ---- ---- ------- ----- it's -------<br>--- --- -- ----- -- --- ---- -- --- ---- -- ------ ------<br>--- ----- -- ----,139170,139162,138767.18,138767,138771.54,139171.54,,37,it's
screen,html.Screen,2_1_0_1_38,2022-05-10T16:20:27.127Z,,,,,,,,,,,,,,,,,53,,,,,,,,,,,,,,428.45999999999185,,response,,,,99,,,,,,,Space,keypress(Space),,,,,,,,---- -- ----- -- ------ - ------- --- ----------<br>------------- ------ ------ ---- ---- ------- ----- -- ----<br>-------- ------- -- ---------- --- - --- ----- ----- ----<br>---- --- --- ----- --- ---- ---- ------- ----- ---- whether<br>--- --- -- ----- -- --- ---- -- --- ---- -- ------ ------<br>--- ----- -- ----,139611,139600,139170.12,139171,139171.54,139613.98,,38,whether
screen,html.Screen,2_1_0_1_39,2022-05-10T16:20:27.541Z,,,,,,,,,,,,,,,,,53,,,,,,,,,,,,,,407.0199999999895,,response,,,,99,,,,,,,Space,keypress(Space),,,,,,,,---- -- ----- -- ------ - ------- --- ----------<br>------------- ------ ------ ---- ---- ------- ----- -- ----<br>-------- ------- -- ---------- --- - --- ----- ----- ----<br>---- --- --- ----- --- ---- ---- ------- ----- ---- -------<br>you --- -- ----- -- --- ---- -- --- ---- -- ------ ------<br>--- ----- -- ----,140025,140021,139611.18,139611,139613.98,140028.1,,39,you
screen,html.Screen,2_1_0_1_40,2022-05-10T16:20:27.927Z,,,,,,,,,,,,,,,,,53,,,,,,,,,,,,,,368.8999999999942,,response,,,,99,,,,,,,Space,keypress(Space),,,,,,,,---- -- ----- -- ------ - ------- --- ----------<br>------------- ------ ------ ---- ---- ------- ----- -- ----<br>-------- ------- -- ---------- --- - --- ----- ----- ----<br>---- --- --- ----- --- ---- ---- ------- ----- ---- -------<br>--- are -- ----- -- --- ---- -- --- ---- -- ------ ------<br>--- ----- -- ----,140411,140397,140025.12,140025,140028.1,140415.98,,40,are
screen,html.Screen,2_1_0_1_41,2022-05-10T16:20:28.348Z,,,,,,,,,,,,,,,,,53,,,,,,,,,,,,,,403.0199999999895,,response,,,,99,,,,,,,Space,keypress(Space),,,,,,,,---- -- ----- -- ------ - ------- --- ----------<br>------------- ------ ------ ---- ---- ------- ----- -- ----<br>-------- ------- -- ---------- --- - --- ----- ----- ----<br>---- --- --- ----- --- ---- ---- ------- ----- ---- -------<br>--- --- as ----- -- --- ---- -- --- ---- -- ------ ------<br>--- ----- -- ----,140833,140819,140411.16,140411,140415.98,140834.16,,41,as
screen,html.Screen,2_1_0_1_42,2022-05-10T16:20:28.736Z,,,,,,,,,,,,,,,,,53,,,,,,,,,,,,,,375.8399999999965,,response,,,,99,,,,,,,Space,keypress(Space),,,,,,,,---- -- ----- -- ------ - ------- --- ----------<br>------------- ------ ------ ---- ---- ------- ----- -- ----<br>-------- ------- -- ---------- --- - --- ----- ----- ----<br>---- --- --- ----- --- ---- ---- ------- ----- ---- -------<br>--- --- -- close -- --- ---- -- --- ---- -- ------ ------<br>--- ----- -- ----,141221,141210,140832.3,140833,140834.16,141222.04,,42,close
screen,html.Screen,2_1_0_1_43,2022-05-10T16:20:29.155Z,,,,,,,,,,,,,,,,,53,,,,,,,,,,,,,,409.95999999999185,,response,,,,99,,,,,,,Space,keypress(Space),,,,,,,,---- -- ----- -- ------ - ------- --- ----------<br>------------- ------ ------ ---- ---- ------- ----- -- ----<br>-------- ------- -- ---------- --- - --- ----- ----- ----<br>---- --- --- ----- --- ---- ---- ------- ----- ---- -------<br>--- --- -- ----- as --- ---- -- --- ---- -- ------ ------<br>--- ----- -- ----,141639,141632,141220.36,141221,141222.04,141642.22,,43,as
screen,html.Screen,2_1_0_1_44,2022-05-10T16:20:29.548Z,,,,,,,,,,,,,,,,,53,,,,,,,,,,,,,,379.77999999999884,,response,,,,99,,,,,,,Space,keypress(Space),,,,,,,,---- -- ----- -- ------ - ------- --- ----------<br>------------- ------ ------ ---- ---- ------- ----- -- ----<br>-------- ------- -- ---------- --- - --- ----- ----- ----<br>---- --- --- ----- --- ---- ---- ------- ----- ---- -------<br>--- --- -- ----- -- you ---- -- --- ---- -- ------ ------<br>--- ----- -- ----,142032,142022,141639.42,141639,141642.22,142036.16,,44,you
screen,html.Screen,2_1_0_1_45,2022-05-10T16:20:29.941Z,,,,,,,,,,,,,,,,,53,,,,,,,,,,,,,,376.8399999999965,,response,,,,99,,,,,,,Space,keypress(Space),,,,,,,,---- -- ----- -- ------ - ------- --- ----------<br>------------- ------ ------ ---- ---- ------- ----- -- ----<br>-------- ------- -- ---------- --- - --- ----- ----- ----<br>---- --- --- ----- --- ---- ---- ------- ----- ---- -------<br>--- --- -- ----- -- --- want -- --- ---- -- ------ ------<br>--- ----- -- ----,142425,142413,142032.38,142032,142036.16,142430.1,,45,want
screen,html.Screen,2_1_0_1_46,2022-05-10T16:20:30.376Z,,,,,,,,,,,,,,,,,53,,,,,,,,,,,,,,418.8999999999942,,response,,,,99,,,,,,,Space,keypress(Space),,,,,,,,---- -- ----- -- ------ - ------- --- ----------<br>------------- ------ ------ ---- ---- ------- ----- -- ----<br>-------- ------- -- ---------- --- - --- ----- ----- ----<br>---- --- --- ----- --- ---- ---- ------- ----- ---- -------<br>--- --- -- ----- -- --- ---- to --- ---- -- ------ ------<br>--- ----- -- ----,142861,142849,142425.5,142425,142430.1,142862.42,,46,to
screen,html.Screen,2_1_0_1_47,2022-05-10T16:20:30.800Z,,,,,,,,,,,,,,,,,53,,,,,,,,,,,,,,409.5799999999872,,response,,,,99,,,,,,,Space,keypress(Space),,,,,,,,"---- -- ----- -- ------ - ------- --- ----------<br>------------- ------ ------ ---- ---- ------- ----- -- ----<br>-------- ------- -- ---------- --- - --- ----- ----- ----<br>---- --- --- ----- --- ---- ---- ------- ----- ---- -------<br>--- --- -- ----- -- --- ---- -- be, ---- -- ------ ------<br>--- ----- -- ----",143283,143272,142860.64,142861,142862.42,143286.66,,47,"be,"
screen,html.Screen,2_1_0_1_48,2022-05-10T16:20:31.210Z,,,,,,,,,,,,,,,,,53,,,,,,,,,,,,,,390.3399999999965,,response,,,,99,,,,,,,Space,keypress(Space),,,,,,,,---- -- ----- -- ------ - ------- --- ----------<br>------------- ------ ------ ---- ---- ------- ----- -- ----<br>-------- ------- -- ---------- --- - --- ----- ----- ----<br>---- --- --- ----- --- ---- ---- ------- ----- ---- -------<br>--- --- -- ----- -- --- ---- -- --- even -- ------ ------<br>--- ----- -- ----,143695,143677,143283.54,143283,143286.66,143698.78,,48,even
screen,html.Screen,2_1_0_1_49,2022-05-10T16:20:31.628Z,,,,,,,,,,,,,,,,,53,,,,,,,,,,,,,,400.22000000000116,,response,,,,99,,,,,,,Space,keypress(Space),,,,,,,,---- -- ----- -- ------ - ------- --- ----------<br>------------- ------ ------ ---- ---- ------- ----- -- ----<br>-------- ------- -- ---------- --- - --- ----- ----- ----<br>---- --- --- ----- --- ---- ---- ------- ----- ---- -------<br>--- --- -- ----- -- --- ---- -- --- ---- if ------ ------<br>--- ----- -- ----,144113,144099,143694.58,143695,143698.78,144116.96,,49,if
screen,html.Screen,2_1_0_1_50,2022-05-10T16:20:31.992Z,,,,,,,,,,,,,,,,,53,,,,,,,,,,,,,,343.04000000000815,,response,,,,99,,,,,,,Space,keypress(Space),,,,,,,,---- -- ----- -- ------ - ------- --- ----------<br>------------- ------ ------ ---- ---- ------- ----- -- ----<br>-------- ------- -- ---------- --- - --- ----- ----- ----<br>---- --- --- ----- --- ---- ---- ------- ----- ---- -------<br>--- --- -- ----- -- --- ---- -- --- ---- -- that's ------<br>--- ----- -- ----,144475,144460,144112.48,144113,144116.96,144476.5,,50,that's
screen,html.Screen,2_1_0_1_51,2022-05-10T16:20:32.446Z,,,,,,,,,,,,,,,,,53,,,,,,,,,,,,,,451.5,,response,,,,99,,,,,,,Space,keypress(Space),,,,,,,,---- -- ----- -- ------ - ------- --- ----------<br>------------- ------ ------ ---- ---- ------- ----- -- ----<br>-------- ------- -- ---------- --- - --- ----- ----- ----<br>---- --- --- ----- --- ---- ---- ------- ----- ---- -------<br>--- --- -- ----- -- --- ---- -- --- ---- -- ------ really<br>--- ----- -- ----,144931,144928,144475.7,144475,144476.5,144931.06,,51,really
screen,html.Screen,2_1_0_1_52,2022-05-10T16:20:32.878Z,,,,,,,,,,,,,,,,,53,,,,,,,,,,,,,,418.9400000000023,,response,,,,99,,,,,,,Space,keypress(Space),,,,,,,,---- -- ----- -- ------ - ------- --- ----------<br>------------- ------ ------ ---- ---- ------- ----- -- ----<br>-------- ------- -- ---------- --- - --- ----- ----- ----<br>---- --- --- ----- --- ---- ---- ------- ----- ---- -------<br>--- --- -- ----- -- --- ---- -- --- ---- -- ------ ------<br>not ----- -- ----,145361,145350,144930.88,144931,144931.06,145367.42,,52,not
screen,html.Screen,2_1_0_1_53,2022-05-10T16:20:33.311Z,,,,,,,,,,,,,,,,,53,,,,,,,,,,,,,,420.5799999999872,,response,,,,99,,,,,,,Space,keypress(Space),,,,,,,,---- -- ----- -- ------ - ------- --- ----------<br>------------- ------ ------ ---- ---- ------- ----- -- ----<br>-------- ------- -- ---------- --- - --- ----- ----- ----<br>---- --- --- ----- --- ---- ---- ------- ----- ---- -------<br>--- --- -- ----- -- --- ---- -- --- ---- -- ------ ------<br>--- close -- ----,145796,145788,145361.78,145361,145367.42,145799.72,,53,close
screen,html.Screen,2_1_0_1_54,2022-05-10T16:20:33.735Z,,,,,,,,,,,,,,,,,53,,,,,,,,,,,,,,410.27999999999884,,response,,,,99,,,,,,,Space,keypress(Space),,,,,,,,---- -- ----- -- ------ - ------- --- ----------<br>------------- ------ ------ ---- ---- ------- ----- -- ----<br>-------- ------- -- ---------- --- - --- ----- ----- ----<br>---- --- --- ----- --- ---- ---- ------- ----- ---- -------<br>--- --- -- ----- -- --- ---- -- --- ---- -- ------ ------<br>--- ----- at ----,146220,146210,145795.8,145796,145799.72,146223.96,,54,at
screen,html.Screen,2_1_0_1_55,2022-05-10T16:20:34.441Z,,,,,,,,,,,,,,,,,53,,,,,,,,,,,,,,688.0400000000081,,response,,,,99,,,,,,,Space,keypress(Space),,,,,,,,---- -- ----- -- ------ - ------- --- ----------<br>------------- ------ ------ ---- ---- ------- ----- -- ----<br>-------- ------- -- ---------- --- - --- ----- ----- ----<br>---- --- --- ----- --- ---- ---- ------- ----- ---- -------<br>--- --- -- ----- -- --- ---- -- --- ---- -- ------ ------<br>--- ----- -- all.,146925,146912,146219.94,146220,146223.96,146927,,55,all.
Item 99,flow.Loop,2_1_0_1,2022-05-10T16:20:34.441Z,,,,,,,,,,,,,,,,,,,,,,,,,,,,,,,25625.059999999998,,completion,,,,,B,,,,,,,,,,,silence,,,,,146925,146912,121280.88,121282,121286.94,146927,,,
Question 1,html.Screen,2_1_0_2,2022-05-10T16:20:42.227Z,,,,,,,,,,,,,,,,,,,,,,,,,,,,true,FALSE,,7767,,response,,,,99,B,,,,,,FALSE,click #choice-2,,,,silence,,,,,154711,154694,146924.92,146925,146927,154714.74,,,
Question 2,html.Screen,2_1_0_3,2022-05-10T16:20:46.531Z,,,,,,,,,,,,,,,,,,,,,,,,,,,,true,TRUE,,4292.260000000009,,response,,,,99,B,,,,,,TRUE,click #choice-1,,,,silence,,,,,159015,159007,154709.68,154711,154714.74,159017.66,,,
Item 99,flow.Sequence,2_1_0,2022-05-10T16:20:46.531Z,,,,,,,,,,,,,,,,,,,,,,,,,,,,,,,47721.92,,completion,,,,,,,,,,,,,,,,,,,,,159016,159007,111284.94,111289,111285.08,159017.66,,,
Holding screen,html.Screen,2_1_1_0,2022-05-10T16:20:56.530Z,,,,,,,,,,,,,,,,,,,,,,,,,,,,,,,9999.919999999984,,timeout,,,,,,,,,,,,,,,,,,,,,169014,169011.52,159013.96,159016,159017.66,169017.58,,,
screen,html.Screen,2_1_1_1_0,2022-05-10T16:20:57.315Z,,,,,,,,,,,,,,,,,54,,,,,,,,,,,,,,770.4200000000128,,response,,,,100,,,,,,,Space,keypress(Space),,,,,,,,At --- ---- --- ------ ----- ------- ---- -- --- ------- --<br>------- ---------- ------ -- ----- -- ----- -- ---- ------<br>--- ----- --- --- ------ -------- ----- --- ------ ----- --<br>----- ----- ---------- --- --- ------ ------ ---- -- ------<br>------- --- ------ ----- --- ---- ------- -- ---- --- --<br>------- ------,169799,169788,169011.52,169014,169017.58,169801.4,,0,At
screen,html.Screen,2_1_1_1_1,2022-05-10T16:20:57.723Z,,,,,,,,,,,,,,,,,54,,,,,,,,,,,,,,392.6000000000058,,response,,,,100,,,,,,,Space,keypress(Space),,,,,,,,-- the ---- --- ------ ----- ------- ---- -- --- ------- --<br>------- ---------- ------ -- ----- -- ----- -- ---- ------<br>--- ----- --- --- ------ -------- ----- --- ------ ----- --<br>----- ----- ---------- --- --- ------ ------ ---- -- ------<br>------- --- ------ ----- --- ---- ------- -- ---- --- --<br>------- ------,170207,170194,169798.44,169799,169801.4,170207.46,,1,the
screen,html.Screen,2_1_1_1_2,2022-05-10T16:20:58.166Z,,,,,,,,,,,,,,,,,54,,,,,,,,,,,,,,439.54000000000815,,response,,,,100,,,,,,,Space,keypress(Space),,,,,,,,-- --- time --- ------ ----- ------- ---- -- --- ------- --<br>------- ---------- ------ -- ----- -- ----- -- ---- ------<br>--- ----- --- --- ------ -------- ----- --- ------ ----- --<br>----- ----- ---------- --- --- ------ ------ ---- -- ------<br>------- --- ------ ----- --- ---- ------- -- ---- --- --<br>------- ------,170650,170647,170207.28,170207,170207.46,170651.88,,2,time
screen,html.Screen,2_1_1_1_3,2022-05-10T16:20:58.599Z,,,,,,,,,,,,,,,,,54,,,,,,,,,,,,,,416.11999999999534,,response,,,,100,,,,,,,Space,keypress(Space),,,,,,,,-- --- ---- the ------ ----- ------- ---- -- --- ------- --<br>------- ---------- ------ -- ----- -- ----- -- ---- ------<br>--- ----- --- --- ------ -------- ----- --- ------ ----- --<br>----- ----- ---------- --- --- ------ ------ ---- -- ------<br>------- --- ------ ----- --- ---- ------- -- ---- --- --<br>------- ------,171084,171068,170650.4,170650,170651.88,171088.24,,3,the
screen,html.Screen,2_1_1_1_4,2022-05-10T16:20:59.028Z,,,,,,,,,,,,,,,,,54,,,,,,,,,,,,,,418.7600000000093,,response,,,,100,,,,,,,Space,keypress(Space),,,,,,,,-- --- ---- --- French ----- ------- ---- -- --- ------- --<br>------- ---------- ------ -- ----- -- ----- -- ---- ------<br>--- ----- --- --- ------ -------- ----- --- ------ ----- --<br>----- ----- ---------- --- --- ------ ------ ---- -- ------<br>------- --- ------ ----- --- ---- ------- -- ---- --- --<br>------- ------,171512,171507,171083.52,171084,171088.24,171518.56,,4,French
screen,html.Screen,2_1_1_1_5,2022-05-10T16:20:59.495Z,,,,,,,,,,,,,,,,,54,,,,,,,,,,,,,,455.4400000000023,,response,,,,100,,,,,,,Space,keypress(Space),,,,,,,,-- --- ---- --- ------ crown ------- ---- -- --- ------- --<br>------- ---------- ------ -- ----- -- ----- -- ---- ------<br>--- ----- --- --- ------ -------- ----- --- ------ ----- --<br>----- ----- ---------- --- --- ------ ------ ---- -- ------<br>------- --- ------ ----- --- ---- ------- -- ---- --- --<br>------- ------,171980,171974,171512.54,171513,171518.56,171985.22,,5,crown
screen,html.Screen,2_1_1_1_6,2022-05-10T16:20:59.929Z,,,,,,,,,,,,,,,,,54,,,,,,,,,,,,,,410.77999999999884,,response,,,,100,,,,,,,Space,keypress(Space),,,,,,,,-- --- ---- --- ------ ----- secured ---- -- --- ------- --<br>------- ---------- ------ -- ----- -- ----- -- ---- ------<br>--- ----- --- --- ------ -------- ----- --- ------ ----- --<br>----- ----- ---------- --- --- ------ ------ ---- -- ------<br>------- --- ------ ----- --- ---- ------- -- ---- --- --<br>------- ------,172412,172396,171979.28,171980,171985.22,172417.52,,6,secured
screen,html.Screen,2_1_1_1_7,2022-05-10T16:21:00.377Z,,,,,,,,,,,,,,,,,54,,,,,,,,,,,,,,431.4800000000105,,response,,,,100,,,,,,,Space,keypress(Space),,,,,,,,-- --- ---- --- ------ ----- ------- much -- --- ------- --<br>------- ---------- ------ -- ----- -- ----- -- ---- ------<br>--- ----- --- --- ------ -------- ----- --- ------ ----- --<br>----- ----- ---------- --- --- ------ ------ ---- -- ------<br>------- --- ------ ----- --- ---- ------- -- ---- --- --<br>------- ------,172862,172849,172412.74,172412,172417.52,172866.02,,7,much
screen,html.Screen,2_1_1_1_8,2022-05-10T16:21:00.792Z,,,,,,,,,,,,,,,,,54,,,,,,,,,,,,,,405.9800000000105,,response,,,,100,,,,,,,Space,keypress(Space),,,,,,,,-- --- ---- --- ------ ----- ------- ---- of --- ------- --<br>------- ---------- ------ -- ----- -- ----- -- ---- ------<br>--- ----- --- --- ------ -------- ----- --- ------ ----- --<br>----- ----- ---------- --- --- ------ ------ ---- -- ------<br>------- --- ------ ----- --- ---- ------- -- ---- --- --<br>------- ------,173276,173272,172861.9,172862,172866.02,173278.14,,8,of
screen,html.Screen,2_1_1_1_9,2022-05-10T16:21:01.164Z,,,,,,,,,,,,,,,,,54,,,,,,,,,,,,,,352.85999999998603,,response,,,,100,,,,,,,Space,keypress(Space),,,,,,,,-- --- ---- --- ------ ----- ------- ---- -- its ------- --<br>------- ---------- ------ -- ----- -- ----- -- ---- ------<br>--- ----- --- --- ------ -------- ----- --- ------ ----- --<br>----- ----- ---------- --- --- ------ ------ ---- -- ------<br>------- --- ------ ----- --- ---- ------- -- ---- --- --<br>------- ------,173648,173631,173275.78,173276,173278.14,173649.84,,9,its
screen,html.Screen,2_1_1_1_10,2022-05-10T16:21:01.622Z,,,,,,,,,,,,,,,,,54,,,,,,,,,,,,,,450.1600000000035,,response,,,,100,,,,,,,Space,keypress(Space),,,,,,,,-- --- ---- --- ------ ----- ------- ---- -- --- revenue --<br>------- ---------- ------ -- ----- -- ----- -- ---- ------<br>--- ----- --- --- ------ -------- ----- --- ------ ----- --<br>----- ----- ---------- --- --- ------ ------ ---- -- ------<br>------- --- ------ ----- --- ---- ------- -- ---- --- --<br>------- ------,174106,174100,173647.7,173648,173649.84,174110.44,,10,revenue
screen,html.Screen,2_1_1_1_11,2022-05-10T16:21:02.052Z,,,,,,,,,,,,,,,,,54,,,,,,,,,,,,,,411.5599999999977,,response,,,,100,,,,,,,Space,keypress(Space),,,,,,,,-- --- ---- --- ------ ----- ------- ---- -- --- ------- by<br>------- ---------- ------ -- ----- -- ----- -- ---- ------<br>--- ----- --- --- ------ -------- ----- --- ------ ----- --<br>----- ----- ---------- --- --- ------ ------ ---- -- ------<br>------- --- ------ ----- --- ---- ------- -- ---- --- --<br>------- ------,174535,174522,174105.9,174106,174110.44,174540.74,,11,by
screen,html.Screen,2_1_1_1_12,2022-05-10T16:21:02.496Z,,,,,,,,,,,,,,,,,54,,,,,,,,,,,,,,434.2600000000093,,response,,,,100,,,,,,,Space,keypress(Space),,,,,,,,-- --- ---- --- ------ ----- ------- ---- -- --- ------- --<br>issuing ---------- ------ -- ----- -- ----- -- ---- ------<br>--- ----- --- --- ------ -------- ----- --- ------ ----- --<br>----- ----- ---------- --- --- ------ ------ ---- -- ------<br>------- --- ------ ----- --- ---- ------- -- ---- --- --<br>------- ------,174980,174975,174535.76,174535,174540.74,174983.16,,12,issuing
screen,html.Screen,2_1_1_1_13,2022-05-10T16:21:02.889Z,,,,,,,,,,,,,,,,,54,,,,,,,,,,,,,,382.8399999999965,,response,,,,100,,,,,,,Space,keypress(Space),,,,,,,,-- --- ---- --- ------ ----- ------- ---- -- --- ------- --<br>------- government ------ -- ----- -- ----- -- ---- ------<br>--- ----- --- --- ------ -------- ----- --- ------ ----- --<br>----- ----- ---------- --- --- ------ ------ ---- -- ------<br>------- --- ------ ----- --- ---- ------- -- ---- --- --<br>------- ------,175373,175366,174979.88,174980,174983.16,175373.06,,13,government
screen,html.Screen,2_1_1_1_14,2022-05-10T16:21:03.321Z,,,,,,,,,,,,,,,,,54,,,,,,,,,,,,,,429.9400000000023,,response,,,,100,,,,,,,Space,keypress(Space),,,,,,,,-- --- ---- --- ------ ----- ------- ---- -- --- ------- --<br>------- ---------- bonds. -- ----- -- ----- -- ---- ------<br>--- ----- --- --- ------ -------- ----- --- ------ ----- --<br>----- ----- ---------- --- --- ------ ------ ---- -- ------<br>------- --- ------ ----- --- ---- ------- -- ---- --- --<br>------- ------,175806,175803,175372.9,175373,175373.06,175809.42,,14,bonds.
screen,html.Screen,2_1_1_1_15,2022-05-10T16:21:03.750Z,,,,,,,,,,,,,,,,,54,,,,,,,,,,,,,,414.5799999999872,,response,,,,100,,,,,,,Space,keypress(Space),,,,,,,,-- --- ---- --- ------ ----- ------- ---- -- --- ------- --<br>------- ---------- ------ In ----- -- ----- -- ---- ------<br>--- ----- --- --- ------ -------- ----- --- ------ ----- --<br>----- ----- ---------- --- --- ------ ------ ---- -- ------<br>------- --- ------ ----- --- ---- ------- -- ---- --- --<br>------- ------,176233,176224,175805.96,175806,175809.42,176239.72,,15,In
screen,html.Screen,2_1_1_1_16,2022-05-10T16:21:04.241Z,,,,,,,,,,,,,,,,,54,,,,,,,,,,,,,,469.27999999999884,,response,,,,100,,,,,,,Space,keypress(Space),,,,,,,,"-- --- ---- --- ------ ----- ------- ---- -- --- ------- --<br>------- ---------- ------ -- 1727, -- ----- -- ---- ------<br>--- ----- --- --- ------ -------- ----- --- ------ ----- --<br>----- ----- ---------- --- --- ------ ------ ---- -- ------<br>------- --- ------ ----- --- ---- ------- -- ---- --- --<br>------- ------",176725,176709,176233.74,176233,176239.72,176726.58,,16,"1727,"
screen,html.Screen,2_1_1_1_17,2022-05-10T16:21:04.692Z,,,,,,,,,,,,,,,,,54,,,,,,,,,,,,,,435.4200000000128,,response,,,,100,,,,,,,Space,keypress(Space),,,,,,,,-- --- ---- --- ------ ----- ------- ---- -- --- ------- --<br>------- ---------- ------ -- ----- in ----- -- ---- ------<br>--- ----- --- --- ------ -------- ----- --- ------ ----- --<br>----- ----- ---------- --- --- ------ ------ ---- -- ------<br>------- --- ------ ----- --- ---- ------- -- ---- --- --<br>------- ------,177177,177162,176724.96,176725,176726.58,177181.12,,17,in
screen,html.Screen,2_1_1_1_18,2022-05-10T16:21:05.168Z,,,,,,,,,,,,,,,,,54,,,,,,,,,,,,,,465.88000000000466,,response,,,,100,,,,,,,Space,keypress(Space),,,,,,,,-- --- ---- --- ------ ----- ------- ---- -- --- ------- --<br>------- ---------- ------ -- ----- -- order -- ---- ------<br>--- ----- --- --- ------ -------- ----- --- ------ ----- --<br>----- ----- ---------- --- --- ------ ------ ---- -- ------<br>------- --- ------ ----- --- ---- ------- -- ---- --- --<br>------- ------,177652,177647,177176.2,177177,177181.12,177653.84,,18,order
screen,html.Screen,2_1_1_1_19,2022-05-10T16:21:05.619Z,,,,,,,,,,,,,,,,,54,,,,,,,,,,,,,,445.1600000000035,,response,,,,100,,,,,,,Space,keypress(Space),,,,,,,,-- --- ---- --- ------ ----- ------- ---- -- --- ------- --<br>------- ---------- ------ -- ----- -- ----- to ---- ------<br>--- ----- --- --- ------ -------- ----- --- ------ ----- --<br>----- ----- ---------- --- --- ------ ------ ---- -- ------<br>------- --- ------ ----- --- ---- ------- -- ---- --- --<br>------- ------,178103,178099,177652.08,177653,177653.84,178104.34,,19,to
screen,html.Screen,2_1_1_1_20,2022-05-10T16:21:06.095Z,,,,,,,,,,,,,,,,,54,,,,,,,,,,,,,,464.6600000000035,,response,,,,100,,,,,,,Space,keypress(Space),,,,,,,,-- --- ---- --- ------ ----- ------- ---- -- --- ------- --<br>------- ---------- ------ -- ----- -- ----- -- save ------<br>--- ----- --- --- ------ -------- ----- --- ------ ----- --<br>----- ----- ---------- --- --- ------ ------ ---- -- ------<br>------- --- ------ ----- --- ---- ------- -- ---- --- --<br>------- ------,178578,178569,178103.12,178103,178104.34,178583.12,,20,save
screen,html.Screen,2_1_1_1_21,2022-05-10T16:21:06.552Z,,,,,,,,,,,,,,,,,54,,,,,,,,,,,,,,437.88000000000466,,response,,,,100,,,,,,,Space,keypress(Space),,,,,,,,"-- --- ---- --- ------ ----- ------- ---- -- --- ------- --<br>------- ---------- ------ -- ----- -- ----- -- ---- money,<br>--- ----- --- --- ------ -------- ----- --- ------ ----- --<br>----- ----- ---------- --- --- ------ ------ ---- -- ------<br>------- --- ------ ----- --- ---- ------- -- ---- --- --<br>------- ------",179036,179021,178578.36,178578,178583.12,179037.66,,21,"money,"
screen,html.Screen,2_1_1_1_22,2022-05-10T16:21:06.984Z,,,,,,,,,,,,,,,,,54,,,,,,,,,,,,,,421.3399999999965,,response,,,,100,,,,,,,Space,keypress(Space),,,,,,,,-- --- ---- --- ------ ----- ------- ---- -- --- ------- --<br>------- ---------- ------ -- ----- -- ----- -- ---- ------<br>the ----- --- --- ------ -------- ----- --- ------ ----- --<br>----- ----- ---------- --- --- ------ ------ ---- -- ------<br>------- --- ------ ----- --- ---- ------- -- ---- --- --<br>------- ------,179468,179459,179036.32,179036,179037.66,179469.96,,22,the
screen,html.Screen,2_1_1_1_23,2022-05-10T16:21:07.411Z,,,,,,,,,,,,,,,,,54,,,,,,,,,,,,,,412.04000000000815,,response,,,,100,,,,,,,Space,keypress(Space),,,,,,,,-- --- ---- --- ------ ----- ------- ---- -- --- ------- --<br>------- ---------- ------ -- ----- -- ----- -- ---- ------<br>--- state --- --- ------ -------- ----- --- ------ ----- --<br>----- ----- ---------- --- --- ------ ------ ---- -- ------<br>------- --- ------ ----- --- ---- ------- -- ---- --- --<br>------- ------,179896,179882,179467.42,179468,179469.96,179900.26,,23,state
screen,html.Screen,2_1_1_1_24,2022-05-10T16:21:07.819Z,,,,,,,,,,,,,,,,,54,,,,,,,,,,,,,,387.7399999999907,,response,,,,100,,,,,,,Space,keypress(Space),,,,,,,,-- --- ---- --- ------ ----- ------- ---- -- --- ------- --<br>------- ---------- ------ -- ----- -- ----- -- ---- ------<br>--- ----- cut --- ------ -------- ----- --- ------ ----- --<br>----- ----- ---------- --- --- ------ ------ ---- -- ------<br>------- --- ------ ----- --- ---- ------- -- ---- --- --<br>------- ------,180303,180288,179895.74,179896,179900.26,180306.32,,24,cut
screen,html.Screen,2_1_1_1_25,2022-05-10T16:21:08.201Z,,,,,,,,,,,,,,,,,54,,,,,,,,,,,,,,371.679999999993,,response,,,,100,,,,,,,Space,keypress(Space),,,,,,,,-- --- ---- --- ------ ----- ------- ---- -- --- ------- --<br>------- ---------- ------ -- ----- -- ----- -- ---- ------<br>--- ----- --- the ------ -------- ----- --- ------ ----- --<br>----- ----- ---------- --- --- ------ ------ ---- -- ------<br>------- --- ------ ----- --- ---- ------- -- ---- --- --<br>------- ------,180685,180678,180303.36,180303,180306.32,180688.14,,25,the
screen,html.Screen,2_1_1_1_26,2022-05-10T16:21:08.596Z,,,,,,,,,,,,,,,,,54,,,,,,,,,,,,,,379.85999999998603,,response,,,,100,,,,,,,Space,keypress(Space),,,,,,,,-- --- ---- --- ------ ----- ------- ---- -- --- ------- --<br>------- ---------- ------ -- ----- -- ----- -- ---- ------<br>--- ----- --- --- bonds' -------- ----- --- ------ ----- --<br>----- ----- ---------- --- --- ------ ------ ---- -- ------<br>------- --- ------ ----- --- ---- ------- -- ---- --- --<br>------- ------,181080,181068,180685.48,180685,180688.14,181084.04,,26,bonds'
screen,html.Screen,2_1_1_1_27,2022-05-10T16:21:08.966Z,,,,,,,,,,,,,,,,,54,,,,,,,,,,,,,,359.95999999999185,,response,,,,100,,,,,,,Space,keypress(Space),,,,,,,,-- --- ---- --- ------ ----- ------- ---- -- --- ------- --<br>------- ---------- ------ -- ----- -- ----- -- ---- ------<br>--- ----- --- --- ------ interest ----- --- ------ ----- --<br>----- ----- ---------- --- --- ------ ------ ---- -- ------<br>------- --- ------ ----- --- ---- ------- -- ---- --- --<br>------- ------,181449,181444,181080.64,181080,181084.04,181453.74,,27,interest
screen,html.Screen,2_1_1_1_28,2022-05-10T16:21:09.338Z,,,,,,,,,,,,,,,,,54,,,,,,,,,,,,,,365.2600000000093,,response,,,,100,,,,,,,Space,keypress(Space),,,,,,,,-- --- ---- --- ------ ----- ------- ---- -- --- ------- --<br>------- ---------- ------ -- ----- -- ----- -- ---- ------<br>--- ----- --- --- ------ -------- rate. --- ------ ----- --<br>----- ----- ---------- --- --- ------ ------ ---- -- ------<br>------- --- ------ ----- --- ---- ------- -- ---- --- --<br>------- ------,181821,181819,181449.66,181450,181453.74,181823.44,,28,rate.
screen,html.Screen,2_1_1_1_29,2022-05-10T16:21:09.830Z,,,,,,,,,,,,,,,,,54,,,,,,,,,,,,,,479.5599999999977,,response,,,,100,,,,,,,Space,keypress(Space),,,,,,,,-- --- ---- --- ------ ----- ------- ---- -- --- ------- --<br>------- ---------- ------ -- ----- -- ----- -- ---- ------<br>--- ----- --- --- ------ -------- ----- The ------ ----- --<br>----- ----- ---------- --- --- ------ ------ ---- -- ------<br>------- --- ------ ----- --- ---- ------- -- ---- --- --<br>------- ------,182315,182303,181821.58,181821,181823.44,182320.4,,29,The
screen,html.Screen,2_1_1_1_30,2022-05-10T16:21:10.392Z,,,,,,,,,,,,,,,,,54,,,,,,,,,,,,,,544.6000000000058,,response,,,,100,,,,,,,Space,keypress(Space),,,,,,,,-- --- ---- --- ------ ----- ------- ---- -- --- ------- --<br>------- ---------- ------ -- ----- -- ----- -- ---- ------<br>--- ----- --- --- ------ -------- ----- --- market ----- --<br>----- ----- ---------- --- --- ------ ------ ---- -- ------<br>------- --- ------ ----- --- ---- ------- -- ---- --- --<br>------- ------,182876,182865,182314.68,182315,182320.4,182880,,30,market
screen,html.Screen,2_1_1_1_31,2022-05-10T16:21:10.788Z,,,,,,,,,,,,,,,,,54,,,,,,,,,,,,,,376,,response,,,,100,,,,,,,Space,keypress(Space),,,,,,,,-- --- ---- --- ------ ----- ------- ---- -- --- ------- --<br>------- ---------- ------ -- ----- -- ----- -- ---- ------<br>--- ----- --- --- ------ -------- ----- --- ------ value --<br>----- ----- ---------- --- --- ------ ------ ---- -- ------<br>------- --- ------ ----- --- ---- ------- -- ---- --- --<br>------- ------,183271,183256,182875.76,182876,182880,183273.94,,31,value
screen,html.Screen,2_1_1_1_32,2022-05-10T16:21:11.358Z,,,,,,,,,,,,,,,,,54,,,,,,,,,,,,,,561.0599999999977,,response,,,,100,,,,,,,Space,keypress(Space),,,,,,,,-- --- ---- --- ------ ----- ------- ---- -- --- ------- --<br>------- ---------- ------ -- ----- -- ----- -- ---- ------<br>--- ----- --- --- ------ -------- ----- --- ------ ----- of<br>----- ----- ---------- --- --- ------ ------ ---- -- ------<br>------- --- ------ ----- --- ---- ------- -- ---- --- --<br>------- ------,183841,183835,183271.94,183271,183273.94,183845.64,,32,of
screen,html.Screen,2_1_1_1_33,2022-05-10T16:21:11.725Z,,,,,,,,,,,,,,,,,54,,,,,,,,,,,,,,348.35999999998603,,response,,,,100,,,,,,,Space,keypress(Space),,,,,,,,-- --- ---- --- ------ ----- ------- ---- -- --- ------- --<br>------- ---------- ------ -- ----- -- ----- -- ---- ------<br>--- ----- --- --- ------ -------- ----- --- ------ ----- --<br>these ----- ---------- --- --- ------ ------ ---- -- ------<br>------- --- ------ ----- --- ---- ------- -- ---- --- --<br>------- ------,184210,184194,183841.7,183841,183845.64,184215.34,,33,these
screen,html.Screen,2_1_1_1_34,2022-05-10T16:21:12.115Z,,,,,,,,,,,,,,,,,54,,,,,,,,,,,,,,368.6600000000035,,response,,,,100,,,,,,,Space,keypress(Space),,,,,,,,-- --- ---- --- ------ ----- ------- ---- -- --- ------- --<br>------- ---------- ------ -- ----- -- ----- -- ---- ------<br>--- ----- --- --- ------ -------- ----- --- ------ ----- --<br>----- bonds ---------- --- --- ------ ------ ---- -- ------<br>------- --- ------ ----- --- ---- ------- -- ---- --- --<br>------- ------,184599,184584,184209.8,184210,184215.34,184603.22,,34,bonds
screen,html.Screen,2_1_1_1_35,2022-05-10T16:21:12.456Z,,,,,,,,,,,,,,,,,54,,,,,,,,,,,,,,324.77999999999884,,response,,,,100,,,,,,,Space,keypress(Space),,,,,,,,"-- --- ---- --- ------ ----- ------- ---- -- --- ------- --<br>------- ---------- ------ -- ----- -- ----- -- ---- ------<br>--- ----- --- --- ------ -------- ----- --- ------ ----- --<br>----- ----- plummeted, --- --- ------ ------ ---- -- ------<br>------- --- ------ ----- --- ---- ------- -- ---- --- --<br>------- ------",184939,184928,184598.88,184599,184603.22,184942.62,,35,"plummeted,"
screen,html.Screen,2_1_1_1_36,2022-05-10T16:21:12.827Z,,,,,,,,,,,,,,,,,54,,,,,,,,,,,,,,359.38000000000466,,response,,,,100,,,,,,,Space,keypress(Space),,,,,,,,-- --- ---- --- ------ ----- ------- ---- -- --- ------- --<br>------- ---------- ------ -- ----- -- ----- -- ---- ------<br>--- ----- --- --- ------ -------- ----- --- ------ ----- --<br>----- ----- ---------- and --- ------ ------ ---- -- ------<br>------- --- ------ ----- --- ---- ------- -- ---- --- --<br>------- ------,185311,185302,184939.8,184939,184942.62,185314.32,,36,and
screen,html.Screen,2_1_1_1_37,2022-05-10T16:21:13.238Z,,,,,,,,,,,,,,,,,54,,,,,,,,,,,,,,394.679999999993,,response,,,,100,,,,,,,Space,keypress(Space),,,,,,,,-- --- ---- --- ------ ----- ------- ---- -- --- ------- --<br>------- ---------- ------ -- ----- -- ----- -- ---- ------<br>--- ----- --- --- ------ -------- ----- --- ------ ----- --<br>----- ----- ---------- --- the ------ ------ ---- -- ------<br>------- --- ------ ----- --- ---- ------- -- ---- --- --<br>------- ------,185722,185709,185311,185311,185314.32,185726.44,,37,the
screen,html.Screen,2_1_1_1_38,2022-05-10T16:21:13.639Z,,,,,,,,,,,,,,,,,54,,,,,,,,,,,,,,388.5599999999977,,response,,,,100,,,,,,,Space,keypress(Space),,,,,,,,-- --- ---- --- ------ ----- ------- ---- -- --- ------- --<br>------- ---------- ------ -- ----- -- ----- -- ---- ------<br>--- ----- --- --- ------ -------- ----- --- ------ ----- --<br>----- ----- ---------- --- --- market ------ ---- -- ------<br>------- --- ------ ----- --- ---- ------- -- ---- --- --<br>------- ------,186123,186115,185722.12,185722,185726.44,186126.44,,38,market
screen,html.Screen,2_1_1_1_39,2022-05-10T16:21:14.011Z,,,,,,,,,,,,,,,,,54,,,,,,,,,,,,,,364.5599999999977,,response,,,,100,,,,,,,Space,keypress(Space),,,,,,,,-- --- ---- --- ------ ----- ------- ---- -- --- ------- --<br>------- ---------- ------ -- ----- -- ----- -- ---- ------<br>--- ----- --- --- ------ -------- ----- --- ------ ----- --<br>----- ----- ---------- --- --- ------ became ---- -- ------<br>------- --- ------ ----- --- ---- ------- -- ---- --- --<br>------- ------,186495,186491,186123.02,186123,186126.44,186496.14,,39,became
screen,html.Screen,2_1_1_1_40,2022-05-10T16:21:14.453Z,,,,,,,,,,,,,,,,,54,,,,,,,,,,,,,,430.85999999998603,,response,,,,100,,,,,,,Space,keypress(Space),,,,,,,,-- --- ---- --- ------ ----- ------- ---- -- --- ------- --<br>------- ---------- ------ -- ----- -- ----- -- ---- ------<br>--- ----- --- --- ------ -------- ----- --- ------ ----- --<br>----- ----- ---------- --- --- ------ ------ wary -- ------<br>------- --- ------ ----- --- ---- ------- -- ---- --- --<br>------- ------,186937,186927,186495.24,186495,186496.14,186940.58,,40,wary
screen,html.Screen,2_1_1_1_41,2022-05-10T16:21:14.829Z,,,,,,,,,,,,,,,,,54,,,,,,,,,,,,,,362.4200000000128,,response,,,,100,,,,,,,Space,keypress(Space),,,,,,,,-- --- ---- --- ------ ----- ------- ---- -- --- ------- --<br>------- ---------- ------ -- ----- -- ----- -- ---- ------<br>--- ----- --- --- ------ -------- ----- --- ------ ----- --<br>----- ----- ---------- --- --- ------ ------ ---- of ------<br>------- --- ------ ----- --- ---- ------- -- ---- --- --<br>------- ------,187312,187303,186937.08,186937,186940.58,187316.34,,41,of
screen,html.Screen,2_1_1_1_42,2022-05-10T16:21:15.268Z,,,,,,,,,,,,,,,,,54,,,,,,,,,,,,,,423.6600000000035,,response,,,,100,,,,,,,Space,keypress(Space),,,,,,,,-- --- ---- --- ------ ----- ------- ---- -- --- ------- --<br>------- ---------- ------ -- ----- -- ----- -- ---- ------<br>--- ----- --- --- ------ -------- ----- --- ------ ----- --<br>----- ----- ---------- --- --- ------ ------ ---- -- French<br>------- --- ------ ----- --- ---- ------- -- ---- --- --<br>------- ------,187752,187740,187312.2,187312,187316.34,187752.7,,42,French
screen,html.Screen,2_1_1_1_43,2022-05-10T16:21:15.678Z,,,,,,,,,,,,,,,,,54,,,,,,,,,,,,,,393.29999999998836,,response,,,,100,,,,,,,Space,keypress(Space),,,,,,,,-- --- ---- --- ------ ----- ------- ---- -- --- ------- --<br>------- ---------- ------ -- ----- -- ----- -- ---- ------<br>--- ----- --- --- ------ -------- ----- --- ------ ----- --<br>----- ----- ---------- --- --- ------ ------ ---- -- ------<br>credit. --- ------ ----- --- ---- ------- -- ---- --- --<br>------- ------,188161,188146,187752.12,187752,187752.7,188164.82,,43,credit.
screen,html.Screen,2_1_1_1_44,2022-05-10T16:21:16.075Z,,,,,,,,,,,,,,,,,54,,,,,,,,,,,,,,387.179999999993,,response,,,,100,,,,,,,Space,keypress(Space),,,,,,,,-- --- ---- --- ------ ----- ------- ---- -- --- ------- --<br>------- ---------- ------ -- ----- -- ----- -- ---- ------<br>--- ----- --- --- ------ -------- ----- --- ------ ----- --<br>----- ----- ---------- --- --- ------ ------ ---- -- ------<br>------- The ------ ----- --- ---- ------- -- ---- --- --<br>------- ------,188559,188552,188161.4,188161,188164.82,188560.74,,44,The
screen,html.Screen,2_1_1_1_45,2022-05-10T16:21:16.504Z,,,,,,,,,,,,,,,,,54,,,,,,,,,,,,,,413.2600000000093,,response,,,,100,,,,,,,Space,keypress(Space),,,,,,,,-- --- ---- --- ------ ----- ------- ---- -- --- ------- --<br>------- ---------- ------ -- ----- -- ----- -- ---- ------<br>--- ----- --- --- ------ -------- ----- --- ------ ----- --<br>----- ----- ---------- --- --- ------ ------ ---- -- ------<br>------- --- French ----- --- ---- ------- -- ---- --- --<br>------- ------,188989,188974,188558.7,188559,188560.74,188991.04,,45,French
screen,html.Screen,2_1_1_1_46,2022-05-10T16:21:16.909Z,,,,,,,,,,,,,,,,,54,,,,,,,,,,,,,,390.95999999999185,,response,,,,100,,,,,,,Space,keypress(Space),,,,,,,,-- --- ---- --- ------ ----- ------- ---- -- --- ------- --<br>------- ---------- ------ -- ----- -- ----- -- ---- ------<br>--- ----- --- --- ------ -------- ----- --- ------ ----- --<br>----- ----- ---------- --- --- ------ ------ ---- -- ------<br>------- --- ------ state --- ---- ------- -- ---- --- --<br>------- ------,189394,189382,188988.4,188989,188991.04,189397.1,,46,state
screen,html.Screen,2_1_1_1_47,2022-05-10T16:21:17.303Z,,,,,,,,,,,,,,,,,54,,,,,,,,,,,,,,373.8999999999942,,response,,,,100,,,,,,,Space,keypress(Space),,,,,,,,-- --- ---- --- ------ ----- ------- ---- -- --- ------- --<br>------- ---------- ------ -- ----- -- ----- -- ---- ------<br>--- ----- --- --- ------ -------- ----- --- ------ ----- --<br>----- ----- ---------- --- --- ------ ------ ---- -- ------<br>------- --- ------ ----- was ---- ------- -- ---- --- --<br>------- ------,189786,189771,189393.42,189394,189397.1,189787,,47,was
screen,html.Screen,2_1_1_1_48,2022-05-10T16:21:17.684Z,,,,,,,,,,,,,,,,,54,,,,,,,,,,,,,,375,,response,,,,100,,,,,,,Space,keypress(Space),,,,,,,,-- --- ---- --- ------ ----- ------- ---- -- --- ------- --<br>------- ---------- ------ -- ----- -- ----- -- ---- ------<br>--- ----- --- --- ------ -------- ----- --- ------ ----- --<br>----- ----- ---------- --- --- ------ ------ ---- -- ------<br>------- --- ------ ----- --- left ------- -- ---- --- --<br>------- ------,190168,190162,189786.46,189786,189787,190168.82,,48,left
screen,html.Screen,2_1_1_1_49,2022-05-10T16:21:18.075Z,,,,,,,,,,,,,,,,,54,,,,,,,,,,,,,,383.179999999993,,response,,,,100,,,,,,,Space,keypress(Space),,,,,,,,-- --- ---- --- ------ ----- ------- ---- -- --- ------- --<br>------- ---------- ------ -- ----- -- ----- -- ---- ------<br>--- ----- --- --- ------ -------- ----- --- ------ ----- --<br>----- ----- ---------- --- --- ------ ------ ---- -- ------<br>------- --- ------ ----- --- ---- without -- ---- --- --<br>------- ------,190559,190552,190168.4,190168,190168.82,190562.76,,49,without
screen,html.Screen,2_1_1_1_50,2022-05-10T16:21:18.478Z,,,,,,,,,,,,,,,,,54,,,,,,,,,,,,,,396.2399999999907,,response,,,,100,,,,,,,Space,keypress(Space),,,,,,,,-- --- ---- --- ------ ----- ------- ---- -- --- ------- --<br>------- ---------- ------ -- ----- -- ----- -- ---- ------<br>--- ----- --- --- ------ -------- ----- --- ------ ----- --<br>----- ----- ---------- --- --- ------ ------ ---- -- ------<br>------- --- ------ ----- --- ---- ------- an ---- --- --<br>------- ------,190962,190959,190558.58,190559,190562.76,190962.76,,50,an
screen,html.Screen,2_1_1_1_51,2022-05-10T16:21:18.903Z,,,,,,,,,,,,,,,,,54,,,,,,,,,,,,,,418.2399999999907,,response,,,,100,,,,,,,Space,keypress(Space),,,,,,,,-- --- ---- --- ------ ----- ------- ---- -- --- ------- --<br>------- ---------- ------ -- ----- -- ----- -- ---- ------<br>--- ----- --- --- ------ -------- ----- --- ------ ----- --<br>----- ----- ---------- --- --- ------ ------ ---- -- ------<br>------- --- ------ ----- --- ---- ------- -- easy --- --<br>------- ------,191388,191381,190962.62,190962,190962.76,191389,,51,easy
screen,html.Screen,2_1_1_1_52,2022-05-10T16:21:19.332Z,,,,,,,,,,,,,,,,,54,,,,,,,,,,,,,,413,,response,,,,100,,,,,,,Space,keypress(Space),,,,,,,,-- --- ---- --- ------ ----- ------- ---- -- --- ------- --<br>------- ---------- ------ -- ----- -- ----- -- ---- ------<br>--- ----- --- --- ------ -------- ----- --- ------ ----- --<br>----- ----- ---------- --- --- ------ ------ ---- -- ------<br>------- --- ------ ----- --- ---- ------- -- ---- way --<br>------- ------,191816,191802,191387.56,191388,191389,191819.3,,52,way
screen,html.Screen,2_1_1_1_53,2022-05-10T16:21:19.812Z,,,,,,,,,,,,,,,,,54,,,,,,,,,,,,,,467.70000000001164,,response,,,,100,,,,,,,Space,keypress(Space),,,,,,,,-- --- ---- --- ------ ----- ------- ---- -- --- ------- --<br>------- ---------- ------ -- ----- -- ----- -- ---- ------<br>--- ----- --- --- ------ -------- ----- --- ------ ----- --<br>----- ----- ---------- --- --- ------ ------ ---- -- ------<br>------- --- ------ ----- --- ---- ------- -- ---- --- of<br>------- ------,192296,192287,191816.58,191816,191819.3,192298.08,,53,of
screen,html.Screen,2_1_1_1_54,2022-05-10T16:21:20.227Z,,,,,,,,,,,,,,,,,54,,,,,,,,,,,,,,394.9200000000128,,response,,,,100,,,,,,,Space,keypress(Space),,,,,,,,-- --- ---- --- ------ ----- ------- ---- -- --- ------- --<br>------- ---------- ------ -- ----- -- ----- -- ---- ------<br>--- ----- --- --- ------ -------- ----- --- ------ ----- --<br>----- ----- ---------- --- --- ------ ------ ---- -- ------<br>------- --- ------ ----- --- ---- ------- -- ---- --- --<br>raising ------,192711,192693,192295.74,192296,192298.08,192712.22,,54,raising
screen,html.Screen,2_1_1_1_55,2022-05-10T16:21:20.678Z,,,,,,,,,,,,,,,,,54,,,,,,,,,,,,,,433.77999999999884,,response,,,,100,,,,,,,Space,keypress(Space),,,,,,,,-- --- ---- --- ------ ----- ------- ---- -- --- ------- --<br>------- ---------- ------ -- ----- -- ----- -- ---- ------<br>--- ----- --- --- ------ -------- ----- --- ------ ----- --<br>----- ----- ---------- --- --- ------ ------ ---- -- ------<br>------- --- ------ ----- --- ---- ------- -- ---- --- --<br>------- money.,193162,193146,192710.78,192711,192712.22,193166.76,,55,money.
Item 100,flow.Loop,2_1_1_1,2022-05-10T16:21:20.678Z,,,,,,,,,,,,,,,,,,,,,,,,,,,,,,,24128.420000000013,,completion,,,,,B,,,,,,,,,,,silence,,,,,193162,193146,169011.52,169014,169017.58,193166.76,,,
Question 1,html.Screen,2_1_1_2,2022-05-10T16:21:23.858Z,,,,,,,,,,,,,,,,,,,,,,,,,,,,true,TRUE,,3167.2399999999907,,response,,,,100,B,,,,,,TRUE,click #choice-1,,,,silence,,,,,196343,196334,193162.74,193162,193166.76,196340.48,,,
Question 2,html.Screen,2_1_1_3,2022-05-10T16:21:29.173Z,,,,,,,,,,,,,,,,,,,,,,,,,,,,false,FALSE,,5305.5199999999895,,response,,,,100,B,,,,,,TRUE,click #choice-1,,,,silence,,,,,201658,201646,196339.94,196343,196340.48,201657.58,,,
Item 100,flow.Sequence,2_1_1,2022-05-10T16:21:29.174Z,,,,,,,,,,,,,,,,,,,,,,,,,,,,,,,42628.34,,completion,,,,,,,,,,,,,,,,,,,,,201658,201646,159013.96,159016,159017.66,201657.58,,,
End of Practice,html.Page,2_1_2,2022-05-10T16:21:32.486Z,,,,,,,,,,,,,,,,,,,,,,,,,,,,,,,3312.420000000013,,form submission,,,,,,,,,,,,,,,,,,,,,204970,204970,201655.5,201658,201657.58,204970.64,,,
Practice,flow.Sequence,2_1,2022-05-10T16:21:32.486Z,,,,,,,,,,,,,,,,,,,,,,,,,,,,,,,93684.92,,completion,,,,,,,,,,,,,,,,,,,,,204970,204970,111284.94,111289,111285.08,204970.64,,,
Trap_instruction,html.Page,2_2_0,2022-05-10T16:21:35.603Z,,,,,,,,,,,,,,,,,,,,,,,,,,,,,,,3115.359999999986,,form submission,,,,,,,,,,,,,,,,,,,,,208087,208086,204965.92,204971,204970.64,208095.86,,,
trap_trial,html.Screen,2_2_1,2022-05-10T16:21:39.948Z,,,,,,,,,,,,,,,,,,,,,,,,,,,,true,1,,4332.140000000014,,response,,,,,,,,,,,1,click #choice-1,,,,,,,,,212432,212428,208083.22,208087,208095.86,212435.22,,,
end of trap trial,html.Page,2_2_2,2022-05-10T16:21:41.481Z,,,,,,,,,,,,,,,,,,,,,,,,,,,,,,,1529.7799999999988,,form submission,,,,,,,,,,,,,,,,,,,,,213965,213965,212429.8,212432,212435.22,213964.46,,,
Trap 1,flow.Sequence,2_2,2022-05-10T16:21:41.481Z,,,,,,,,,,,,,,,,,,,,,,,,,,,,,,,8994.359999999986,,completion,,,,,,,,,,,,,,,,,,,,,213965,213965,204965.92,204970,204970.64,213964.46,,,
Standby,html.Page,2_3_0,2022-05-10T16:21:49.475Z,,,,,,,,,,,,,,,,,,,,,,,,,,,,,,,7997.880000000005,,timeout,,,,,,,,,,,,,,,,,,,,,221959,221956.28,213960.88,213965,213964.46,221962.34,,,
Holding screen,html.Screen,2_3_1_0_0,2022-05-10T16:21:56.472Z,,,,,,,,,,,,,,,,,,,,,,,,,,,,,,,6997.880000000005,,timeout,,,,,,,,,,,,,,,,,,,,,228956,228954.16,221956.28,221959,221962.34,228960.22,,,
screen,html.Screen,2_3_1_0_1_0,2022-05-10T16:21:59.144Z,,,,,,,,,,,,,,,,,19,,,,,,,,,,,,,,2655.779999999999,,response,,,,17,B,,,,,,Space,keypress(Space),,,,lyrical,,,,"Interestingly, --- -------- -------- ---------- ---- -------<br>-- ---------- -- --- ----- ------ ----- ---- --------- ----<br>------- ------ -------- -- ------ ---------- ------ ---<br>------ -- -- ---- -- ---------- -------- ------ ---- -------<br>---- --- --------- ------- ----- --------- ---- ----- --<br>------ -------- -- ------ -- ---- ------------",231628,231616,228954.16,228956,228960.22,231630.9,,0,"Interestingly,"
screen,html.Screen,2_3_1_0_1_1,2022-05-10T16:22:00.209Z,,,,,,,,,,,,,,,,,19,,,,,,,,,,,,,,1047.1000000000058,,response,,,,17,B,,,,,,Space,keypress(Space),,,,lyrical,,,,-------------- the -------- -------- ---------- ---- -------<br>-- ---------- -- --- ----- ------ ----- ---- --------- ----<br>------- ------ -------- -- ------ ---------- ------ ---<br>------ -- -- ---- -- ---------- -------- ------ ---- -------<br>---- --- --------- ------- ----- --------- ---- ----- --<br>------ -------- -- ------ -- ---- ------------,232693,232678,231628.18,231628,231630.9,232693.52,,1,the
screen,html.Screen,2_3_1_0_1_2,2022-05-10T16:22:01.481Z,,,,,,,,,,,,,,,,,19,,,,,,,,,,,,,,1265.4800000000105,,response,,,,17,B,,,,,,Space,keypress(Space),,,,lyrical,,,,-------------- --- heaviest -------- ---------- ---- -------<br>-- ---------- -- --- ----- ------ ----- ---- --------- ----<br>------- ------ -------- -- ------ ---------- ------ ---<br>------ -- -- ---- -- ---------- -------- ------ ---- -------<br>---- --- --------- ------- ----- --------- ---- ----- --<br>------ -------- -- ------ -- ---- ------------,233965,233959,232693.16,232693,232693.52,233968.26,,2,heaviest
screen,html.Screen,2_3_1_0_1_3,2022-05-10T16:22:02.596Z,,,,,,,,,,,,,,,,,19,,,,,,,,,,,,,,1100.7399999999907,,response,,,,17,B,,,,,,Space,keypress(Space),,,,lyrical,,,,-------------- --- -------- isotopes ---------- ---- -------<br>-- ---------- -- --- ----- ------ ----- ---- --------- ----<br>------- ------ -------- -- ------ ---------- ------ ---<br>------ -- -- ---- -- ---------- -------- ------ ---- -------<br>---- --- --------- ------- ----- --------- ---- ----- --<br>------ -------- -- ------ -- ---- ------------,235080,235069,233965.18,233965,233968.26,235083.4,,3,isotopes
screen,html.Screen,2_3_1_0_1_4,2022-05-10T16:22:03.870Z,,,,,,,,,,,,,,,,,19,,,,,,,,,,,,,,1265.6000000000058,,response,,,,17,B,,,,,,Space,keypress(Space),,,,lyrical,,,,-------------- --- -------- -------- physicists ---- -------<br>-- ---------- -- --- ----- ------ ----- ---- --------- ----<br>------- ------ -------- -- ------ ---------- ------ ---<br>------ -- -- ---- -- ---------- -------- ------ ---- -------<br>---- --- --------- ------- ----- --------- ---- ----- --<br>------ -------- -- ------ -- ---- ------------,236353,236349,235080.6,235080,235083.4,236358.16,,4,physicists
screen,html.Screen,2_3_1_0_1_5,2022-05-10T16:22:05.013Z,,,,,,,,,,,,,,,,,19,,,,,,,,,,,,,,1131.8399999999965,,response,,,,17,B,,,,,,Space,keypress(Space),,,,lyrical,,,,-------------- --- -------- -------- ---------- have -------<br>-- ---------- -- --- ----- ------ ----- ---- --------- ----<br>------- ------ -------- -- ------ ---------- ------ ---<br>------ -- -- ---- -- ---------- -------- ------ ---- -------<br>---- --- --------- ------- ----- --------- ---- ----- --<br>------ -------- -- ------ -- ---- ------------,237498,237490,236353.42,236353,236358.16,237499.56,,5,have
screen,html.Screen,2_3_1_0_1_6,2022-05-10T16:22:06.389Z,,,,,,,,,,,,,,,,,19,,,,,,,,,,,,,,1365.4400000000023,,response,,,,17,B,,,,,,Space,keypress(Space),,,,lyrical,,,,-------------- --- -------- -------- ---------- ---- managed<br>-- ---------- -- --- ----- ------ ----- ---- --------- ----<br>------- ------ -------- -- ------ ---------- ------ ---<br>------ -- -- ---- -- ---------- -------- ------ ---- -------<br>---- --- --------- ------- ----- --------- ---- ----- --<br>------ -------- -- ------ -- ---- ------------,238873,238865,237497.74,237498,237499.56,238877.3,,6,managed
screen,html.Screen,2_3_1_0_1_7,2022-05-10T16:22:07.519Z,,,,,,,,,,,,,,,,,19,,,,,,,,,,,,,,1113.7000000000116,,response,,,,17,B,,,,,,Space,keypress(Space),,,,lyrical,,,,-------------- --- -------- -------- ---------- ---- -------<br>to ---------- -- --- ----- ------ ----- ---- --------- ----<br>------- ------ -------- -- ------ ---------- ------ ---<br>------ -- -- ---- -- ---------- -------- ------ ---- -------<br>---- --- --------- ------- ----- --------- ---- ----- --<br>------ -------- -- ------ -- ---- ------------,240002,239991,238872.76,238873,238877.3,240006.58,,7,to
screen,html.Screen,2_3_1_0_1_8,2022-05-10T16:22:08.709Z,,,,,,,,,,,,,,,,,19,,,,,,,,,,,,,,1170.4200000000128,,response,,,,17,B,,,,,,Space,keypress(Space),,,,lyrical,,,,-------------- --- -------- -------- ---------- ---- -------<br>-- synthesize -- --- ----- ------ ----- ---- --------- ----<br>------- ------ -------- -- ------ ---------- ------ ---<br>------ -- -- ---- -- ---------- -------- ------ ---- -------<br>---- --- --------- ------- ----- --------- ---- ----- --<br>------ -------- -- ------ -- ---- ------------,241193,241177,240002.8,240002,240006.58,241196.46,,8,synthesize
screen,html.Screen,2_3_1_0_1_9,2022-05-10T16:22:10.143Z,,,,,,,,,,,,,,,,,19,,,,,,,,,,,,,,1419.5400000000081,,response,,,,17,B,,,,,,Space,keypress(Space),,,,lyrical,,,,-------------- --- -------- -------- ---------- ---- -------<br>-- ---------- so --- ----- ------ ----- ---- --------- ----<br>------- ------ -------- -- ------ ---------- ------ ---<br>------ -- -- ---- -- ---------- -------- ------ ---- -------<br>---- --- --------- ------- ----- --------- ---- ----- --<br>------ -------- -- ------ -- ---- ------------,242627,242616,241193.1,241193,241196.46,242628.78,,9,so
screen,html.Screen,2_3_1_0_1_10,2022-05-10T16:22:10.578Z,,,,,,,,,,,,,,,,,19,,,,,,,,,,,,,,424.22000000000116,,response,,,,17,B,,,,,,Space,keypress(Space),,,,lyrical,,,,-------------- --- -------- -------- ---------- ---- -------<br>-- ---------- -- far ----- ------ ----- ---- --------- ----<br>------- ------ -------- -- ------ ---------- ------ ---<br>------ -- -- ---- -- ---------- -------- ------ ---- -------<br>---- --- --------- ------- ----- --------- ---- ----- --<br>------ -------- -- ------ -- ---- ------------,243062,243053,242627.12,242627,242628.78,243065.14,,10,far
screen,html.Screen,2_3_1_0_1_11,2022-05-10T16:22:11.412Z,,,,,,,,,,,,,,,,,19,,,,,,,,,,,,,,815.859999999986,,response,,,,17,B,,,,,,Space,keypress(Space),,,,lyrical,,,,-------------- --- -------- -------- ---------- ---- -------<br>-- ---------- -- --- don't ------ ----- ---- --------- ----<br>------- ------ -------- -- ------ ---------- ------ ---<br>------ -- -- ---- -- ---------- -------- ------ ---- -------<br>---- --- --------- ------- ----- --------- ---- ----- --<br>------ -------- -- ------ -- ---- ------------,243896,243881,243062.46,243062,243065.14,243901.5,,11,don't
screen,html.Screen,2_3_1_0_1_12,2022-05-10T16:22:11.908Z,,,,,,,,,,,,,,,,,19,,,,,,,,,,,,,,480.5,,response,,,,17,B,,,,,,Space,keypress(Space),,,,lyrical,,,,-------------- --- -------- -------- ---------- ---- -------<br>-- ---------- -- --- ----- behave ----- ---- --------- ----<br>------- ------ -------- -- ------ ---------- ------ ---<br>------ -- -- ---- -- ---------- -------- ------ ---- -------<br>---- --- --------- ------- ----- --------- ---- ----- --<br>------ -------- -- ------ -- ---- ------------,244393,244382,243896.34,243896,243901.5,244394.4,,12,behave
screen,html.Screen,2_3_1_0_1_13,2022-05-10T16:22:12.389Z,,,,,,,,,,,,,,,,,19,,,,,,,,,,,,,,470.6000000000058,,response,,,,17,B,,,,,,Space,keypress(Space),,,,lyrical,,,,-------------- --- -------- -------- ---------- ---- -------<br>-- ---------- -- --- ----- ------ quite ---- --------- ----<br>------- ------ -------- -- ------ ---------- ------ ---<br>------ -- -- ---- -- ---------- -------- ------ ---- -------<br>---- --- --------- ------- ----- --------- ---- ----- --<br>------ -------- -- ------ -- ---- ------------,244874,244865,244392.24,244393,244394.4,244879.26,,13,quite
screen,html.Screen,2_3_1_0_1_14,2022-05-10T16:22:12.998Z,,,,,,,,,,,,,,,,,19,,,,,,,,,,,,,,594.7399999999907,,response,,,,17,B,,,,,,Space,keypress(Space),,,,lyrical,,,,-------------- --- -------- -------- ---------- ---- -------<br>-- ---------- -- --- ----- ------ ----- like --------- ----<br>------- ------ -------- -- ------ ---------- ------ ---<br>------ -- -- ---- -- ---------- -------- ------ ---- -------<br>---- --- --------- ------- ----- --------- ---- ----- --<br>------ -------- -- ------ -- ---- ------------,245483,245474,244873.34,244874,244879.26,245485.32,,14,like
screen,html.Screen,2_3_1_0_1_15,2022-05-10T16:22:13.497Z,,,,,,,,,,,,,,,,,19,,,,,,,,,,,,,,488.679999999993,,response,,,,17,B,,,,,,Space,keypress(Space),,,,lyrical,,,,-------------- --- -------- -------- ---------- ---- -------<br>-- ---------- -- --- ----- ------ ----- ---- science's ----<br>------- ------ -------- -- ------ ---------- ------ ---<br>------ -- -- ---- -- ---------- -------- ------ ---- -------<br>---- --- --------- ------- ----- --------- ---- ----- --<br>------ -------- -- ------ -- ---- ------------,245981,245974,245482.48,245483,245485.32,245984.3,,15,science's
screen,html.Screen,2_3_1_0_1_16,2022-05-10T16:22:13.987Z,,,,,,,,,,,,,,,,,19,,,,,,,,,,,,,,474.70000000001164,,response,,,,17,B,,,,,,Space,keypress(Space),,,,lyrical,,,,-------------- --- -------- -------- ---------- ---- -------<br>-- ---------- -- --- ----- ------ ----- ---- --------- best<br>------- ------ -------- -- ------ ---------- ------ ---<br>------ -- -- ---- -- ---------- -------- ------ ---- -------<br>---- --- --------- ------- ----- --------- ---- ----- --<br>------ -------- -- ------ -- ---- ------------,246472,246459,245981.54,245981,245984.3,246475.2,,16,best
screen,html.Screen,2_3_1_0_1_17,2022-05-10T16:22:14.486Z,,,,,,,,,,,,,,,,,19,,,,,,,,,,,,,,483.79999999998836,,response,,,,17,B,,,,,,Space,keypress(Space),,,,lyrical,,,,-------------- --- -------- -------- ---------- ---- -------<br>-- ---------- -- --- ----- ------ ----- ---- --------- ----<br>current ------ -------- -- ------ ---------- ------ ---<br>------ -- -- ---- -- ---------- -------- ------ ---- -------<br>---- --- --------- ------- ----- --------- ---- ----- --<br>------ -------- -- ------ -- ---- ------------,246971,246959,246471.66,246472,246475.2,246972.18,,17,current
screen,html.Screen,2_3_1_0_1_18,2022-05-10T16:22:15.039Z,,,,,,,,,,,,,,,,,19,,,,,,,,,,,,,,549.820000000007,,response,,,,17,B,,,,,,Space,keypress(Space),,,,lyrical,,,,-------------- --- -------- -------- ---------- ---- -------<br>-- ---------- -- --- ----- ------ ----- ---- --------- ----<br>------- models -------- -- ------ ---------- ------ ---<br>------ -- -- ---- -- ---------- -------- ------ ---- -------<br>---- --- --------- ------- ----- --------- ---- ----- --<br>------ -------- -- ------ -- ---- ------------,247523,247522,246970.64,246971,246972.18,247525.7,,18,models
screen,html.Screen,2_3_1_0_1_19,2022-05-10T16:22:15.926Z,,,,,,,,,,,,,,,,,19,,,,,,,,,,,,,,871.2999999999884,,response,,,,17,B,,,,,,Space,keypress(Space),,,,lyrical,,,,"-------------- --- -------- -------- ---------- ---- -------<br>-- ---------- -- --- ----- ------ ----- ---- --------- ----<br>------- ------ predict, -- ------ ---------- ------ ---<br>------ -- -- ---- -- ---------- -------- ------ ---- -------<br>---- --- --------- ------- ----- --------- ---- ----- --<br>------ -------- -- ------ -- ---- ------------",248410,248397,247523.5,247523,247525.7,248410.54,,19,"predict,"
screen,html.Screen,2_3_1_0_1_20,2022-05-10T16:22:16.422Z,,,,,,,,,,,,,,,,,19,,,,,,,,,,,,,,485.45999999999185,,response,,,,17,B,,,,,,Space,keypress(Space),,,,lyrical,,,,-------------- --- -------- -------- ---------- ---- -------<br>-- ---------- -- --- ----- ------ ----- ---- --------- ----<br>------- ------ -------- so ------ ---------- ------ ---<br>------ -- -- ---- -- ---------- -------- ------ ---- -------<br>---- --- --------- ------- ----- --------- ---- ----- --<br>------ -------- -- ------ -- ---- ------------,248907,248896,248409.68,248410,248410.54,248909.52,,20,so
screen,html.Screen,2_3_1_0_1_21,2022-05-10T16:22:16.917Z,,,,,,,,,,,,,,,,,19,,,,,,,,,,,,,,486.4800000000105,,response,,,,17,B,,,,,,Space,keypress(Space),,,,lyrical,,,,-------------- --- -------- -------- ---------- ---- -------<br>-- ---------- -- --- ----- ------ ----- ---- --------- ----<br>------- ------ -------- -- stable ---------- ------ ---<br>------ -- -- ---- -- ---------- -------- ------ ---- -------<br>---- --- --------- ------- ----- --------- ---- ----- --<br>------ -------- -- ------ -- ---- ------------,249400,249396,248906.76,248907,248909.52,249406.48,,21,stable
screen,html.Screen,2_3_1_0_1_22,2022-05-10T16:22:17.566Z,,,,,,,,,,,,,,,,,19,,,,,,,,,,,,,,630.5199999999895,,response,,,,17,B,,,,,,Space,keypress(Space),,,,lyrical,,,,-------------- --- -------- -------- ---------- ---- -------<br>-- ---------- -- --- ----- ------ ----- ---- --------- ----<br>------- ------ -------- -- ------ superheavy ------ ---<br>------ -- -- ---- -- ---------- -------- ------ ---- -------<br>---- --- --------- ------- ----- --------- ---- ----- --<br>------ -------- -- ------ -- ---- ------------,250050,250037,249400.8,249400,249406.48,250050.92,,22,superheavy
screen,html.Screen,2_3_1_0_1_23,2022-05-10T16:22:18.323Z,,,,,,,,,,,,,,,,,19,,,,,,,,,,,,,,751.0799999999872,,response,,,,17,B,,,,,,Space,keypress(Space),,,,lyrical,,,,-------------- --- -------- -------- ---------- ---- -------<br>-- ---------- -- --- ----- ------ ----- ---- --------- ----<br>------- ------ -------- -- ------ ---------- nuclei ---<br>------ -- -- ---- -- ---------- -------- ------ ---- -------<br>---- --- --------- ------- ----- --------- ---- ----- --<br>------ -------- -- ------ -- ---- ------------,250807,250802,250049.88,250050,250050.92,250808.5,,23,nuclei
screen,html.Screen,2_3_1_0_1_24,2022-05-10T16:22:18.818Z,,,,,,,,,,,,,,,,,19,,,,,,,,,,,,,,478.5,,response,,,,17,B,,,,,,Space,keypress(Space),,,,lyrical,,,,-------------- --- -------- -------- ---------- ---- -------<br>-- ---------- -- --- ----- ------ ----- ---- --------- ----<br>------- ------ -------- -- ------ ---------- ------ are<br>------ -- -- ---- -- ---------- -------- ------ ---- -------<br>---- --- --------- ------- ----- --------- ---- ----- --<br>------ -------- -- ------ -- ---- ------------,251302,251287,250807.12,250807,250808.5,251305.46,,24,are
screen,html.Screen,2_3_1_0_1_25,2022-05-10T16:22:19.541Z,,,,,,,,,,,,,,,,,19,,,,,,,,,,,,,,716.5400000000081,,response,,,,17,B,,,,,,Space,keypress(Space),,,,lyrical,,,,-------------- --- -------- -------- ---------- ---- -------<br>-- ---------- -- --- ----- ------ ----- ---- --------- ----<br>------- ------ -------- -- ------ ---------- ------ ---<br>likely -- -- ---- -- ---------- -------- ------ ---- -------<br>---- --- --------- ------- ----- --------- ---- ----- --<br>------ -------- -- ------ -- ---- ------------,252025,252022,251301.92,251302,251305.46,252028.68,,25,likely
screen,html.Screen,2_3_1_0_1_26,2022-05-10T16:22:19.941Z,,,,,,,,,,,,,,,,,19,,,,,,,,,,,,,,383.320000000007,,response,,,,17,B,,,,,,Space,keypress(Space),,,,lyrical,,,,-------------- --- -------- -------- ---------- ---- -------<br>-- ---------- -- --- ----- ------ ----- ---- --------- ----<br>------- ------ -------- -- ------ ---------- ------ ---<br>------ to -- ---- -- ---------- -------- ------ ---- -------<br>---- --- --------- ------- ----- --------- ---- ----- --<br>------ -------- -- ------ -- ---- ------------,252425,252412,252025.1,252025,252028.68,252428.68,,26,to
screen,html.Screen,2_3_1_0_1_27,2022-05-10T16:22:20.549Z,,,,,,,,,,,,,,,,,19,,,,,,,,,,,,,,593.320000000007,,response,,,,17,B,,,,,,Space,keypress(Space),,,,lyrical,,,,-------------- --- -------- -------- ---------- ---- -------<br>-- ---------- -- --- ----- ------ ----- ---- --------- ----<br>------- ------ -------- -- ------ ---------- ------ ---<br>------ -- be ---- -- ---------- -------- ------ ---- -------<br>---- --- --------- ------- ----- --------- ---- ----- --<br>------ -------- -- ------ -- ---- ------------,253033,253022,252425.18,252425,252428.68,253036.74,,27,be
screen,html.Screen,2_3_1_0_1_28,2022-05-10T16:22:20.956Z,,,,,,,,,,,,,,,,,19,,,,,,,,,,,,,,391.2600000000093,,response,,,,17,B,,,,,,Space,keypress(Space),,,,lyrical,,,,-------------- --- -------- -------- ---------- ---- -------<br>-- ---------- -- --- ----- ------ ----- ---- --------- ----<br>------- ------ -------- -- ------ ---------- ------ ---<br>------ -- -- full -- ---------- -------- ------ ---- -------<br>---- --- --------- ------- ----- --------- ---- ----- --<br>------ -------- -- ------ -- ---- ------------,253440,253428,253033.18,253033,253036.74,253442.8,,28,full
screen,html.Screen,2_3_1_0_1_29,2022-05-10T16:22:21.299Z,,,,,,,,,,,,,,,,,19,,,,,,,,,,,,,,328.20000000001164,,response,,,,17,B,,,,,,Space,keypress(Space),,,,lyrical,,,,-------------- --- -------- -------- ---------- ---- -------<br>-- ---------- -- --- ----- ------ ----- ---- --------- ----<br>------- ------ -------- -- ------ ---------- ------ ---<br>------ -- -- ---- of ---------- -------- ------ ---- -------<br>---- --- --------- ------- ----- --------- ---- ----- --<br>------ -------- -- ------ -- ---- ------------,253784,253771,253440.2,253440,253442.8,253788.26,,29,of
screen,html.Screen,2_3_1_0_1_30,2022-05-10T16:22:21.762Z,,,,,,,,,,,,,,,,,19,,,,,,,,,,,,,,452.7399999999907,,response,,,,17,B,,,,,,Space,keypress(Space),,,,lyrical,,,,-------------- --- -------- -------- ---------- ---- -------<br>-- ---------- -- --- ----- ------ ----- ---- --------- ----<br>------- ------ -------- -- ------ ---------- ------ ---<br>------ -- -- ---- -- surprises. -------- ------ ---- -------<br>---- --- --------- ------- ----- --------- ---- ----- --<br>------ -------- -- ------ -- ---- ------------,254246,254241,253784.36,253784,253788.26,254248.86,,30,surprises.
screen,html.Screen,2_3_1_0_1_31,2022-05-10T16:22:22.294Z,,,,,,,,,,,,,,,,,19,,,,,,,,,,,,,,523.140000000014,,response,,,,17,B,,,,,,Space,keypress(Space),,,,lyrical,,,,-------------- --- -------- -------- ---------- ---- -------<br>-- ---------- -- --- ----- ------ ----- ---- --------- ----<br>------- ------ -------- -- ------ ---------- ------ ---<br>------ -- -- ---- -- ---------- Chemists ------ ---- -------<br>---- --- --------- ------- ----- --------- ---- ----- --<br>------ -------- -- ------ -- ---- ------------,254777,254772,254246.62,254247,254248.86,254778.14,,31,Chemists
screen,html.Screen,2_3_1_0_1_32,2022-05-10T16:22:22.748Z,,,,,,,,,,,,,,,,,19,,,,,,,,,,,,,,446.85999999998603,,response,,,,17,B,,,,,,Space,keypress(Space),,,,lyrical,,,,-------------- --- -------- -------- ---------- ---- -------<br>-- ---------- -- --- ----- ------ ----- ---- --------- ----<br>------- ------ -------- -- ------ ---------- ------ ---<br>------ -- -- ---- -- ---------- -------- cannot ---- -------<br>---- --- --------- ------- ----- --------- ---- ----- --<br>------ -------- -- ------ -- ---- ------------,255232,255225,254777.76,254778,254778.14,255232.68,,32,cannot
screen,html.Screen,2_3_1_0_1_33,2022-05-10T16:22:23.173Z,,,,,,,,,,,,,,,,,19,,,,,,,,,,,,,,414.320000000007,,response,,,,17,B,,,,,,Space,keypress(Space),,,,lyrical,,,,-------------- --- -------- -------- ---------- ---- -------<br>-- ---------- -- --- ----- ------ ----- ---- --------- ----<br>------- ------ -------- -- ------ ---------- ------ ---<br>------ -- -- ---- -- ---------- -------- ------ even -------<br>---- --- --------- ------- ----- --------- ---- ----- --<br>------ -------- -- ------ -- ---- ------------,255656,255647,255232.58,255233,255232.68,255656.92,,33,even
screen,html.Screen,2_3_1_0_1_34,2022-05-10T16:22:23.612Z,,,,,,,,,,,,,,,,,19,,,,,,,,,,,,,,427.0799999999872,,response,,,,17,B,,,,,,Space,keypress(Space),,,,lyrical,,,,-------------- --- -------- -------- ---------- ---- -------<br>-- ---------- -- --- ----- ------ ----- ---- --------- ----<br>------- ------ -------- -- ------ ---------- ------ ---<br>------ -- -- ---- -- ---------- -------- ------ ---- predict<br>---- --- --------- ------- ----- --------- ---- ----- --<br>------ -------- -- ------ -- ---- ------------,256097,256084,255656.78,255657,255656.92,256101.36,,34,predict
screen,html.Screen,2_3_1_0_1_35,2022-05-10T16:22:24.038Z,,,,,,,,,,,,,,,,,19,,,,,,,,,,,,,,405.64000000001397,,response,,,,17,B,,,,,,Space,keypress(Space),,,,lyrical,,,,-------------- --- -------- -------- ---------- ---- -------<br>-- ---------- -- --- ----- ------ ----- ---- --------- ----<br>------- ------ -------- -- ------ ---------- ------ ---<br>------ -- -- ---- -- ---------- -------- ------ ---- -------<br>with --- --------- ------- ----- --------- ---- ----- --<br>------ -------- -- ------ -- ---- ------------,256521,256507,256096.6,256097,256101.36,256525.6,,35,with
screen,html.Screen,2_3_1_0_1_36,2022-05-10T16:22:24.591Z,,,,,,,,,,,,,,,,,19,,,,,,,,,,,,,,542.3999999999942,,response,,,,17,B,,,,,,Space,keypress(Space),,,,lyrical,,,,-------------- --- -------- -------- ---------- ---- -------<br>-- ---------- -- --- ----- ------ ----- ---- --------- ----<br>------- ------ -------- -- ------ ---------- ------ ---<br>------ -- -- ---- -- ---------- -------- ------ ---- -------<br>---- any --------- ------- ----- --------- ---- ----- --<br>------ -------- -- ------ -- ---- ------------,257076,257068,256521.72,256521,256525.6,257077.12,,36,any
screen,html.Screen,2_3_1_0_1_37,2022-05-10T16:22:25.109Z,,,,,,,,,,,,,,,,,19,,,,,,,,,,,,,,506.88000000000466,,response,,,,17,B,,,,,,Space,keypress(Space),,,,lyrical,,,,-------------- --- -------- -------- ---------- ---- -------<br>-- ---------- -- --- ----- ------ ----- ---- --------- ----<br>------- ------ -------- -- ------ ---------- ------ ---<br>------ -- -- ---- -- ---------- -------- ------ ---- -------<br>---- --- certainty ------- ----- --------- ---- ----- --<br>------ -------- -- ------ -- ---- ------------,257593,257584,257075.64,257076,257077.12,257594.28,,37,certainty
screen,html.Screen,2_3_1_0_1_38,2022-05-10T16:22:26.547Z,,,,,,,,,,,,,,,,,19,,,,,,,,,,,,,,1427.7200000000012,,response,,,,17,B,,,,,,Space,keypress(Space),,,,lyrical,,,,-------------- --- -------- -------- ---------- ---- -------<br>-- ---------- -- --- ----- ------ ----- ---- --------- ----<br>------- ------ -------- -- ------ ---------- ------ ---<br>------ -- -- ---- -- ---------- -------- ------ ---- -------<br>---- --- --------- whether ----- --------- ---- ----- --<br>------ -------- -- ------ -- ---- ------------,259032,259022,257592.9,257593,257594.28,259032.64,,38,whether
screen,html.Screen,2_3_1_0_1_39,2022-05-10T16:22:27.056Z,,,,,,,,,,,,,,,,,19,,,,,,,,,,,,,,505.35999999998603,,response,,,,17,B,,,,,,Space,keypress(Space),,,,lyrical,,,,-------------- --- -------- -------- ---------- ---- -------<br>-- ---------- -- --- ----- ------ ----- ---- --------- ----<br>------- ------ -------- -- ------ ---------- ------ ---<br>------ -- -- ---- -- ---------- -------- ------ ---- -------<br>---- --- --------- ------- these --------- ---- ----- --<br>------ -------- -- ------ -- ---- ------------,259540,259538,259031.94,259032,259032.64,259541.74,,39,these
screen,html.Screen,2_3_1_0_1_40,2022-05-10T16:22:27.475Z,,,,,,,,,,,,,,,,,19,,,,,,,,,,,,,,402.2600000000093,,response,,,,17,B,,,,,,Space,keypress(Space),,,,lyrical,,,,-------------- --- -------- -------- ---------- ---- -------<br>-- ---------- -- --- ----- ------ ----- ---- --------- ----<br>------- ------ -------- -- ------ ---------- ------ ---<br>------ -- -- ---- -- ---------- -------- ------ ---- -------<br>---- --- --------- ------- ----- materials ---- ----- --<br>------ -------- -- ------ -- ---- ------------,259959,259944,259540.4,259541,259541.74,259959.92,,40,materials
screen,html.Screen,2_3_1_0_1_41,2022-05-10T16:22:27.962Z,,,,,,,,,,,,,,,,,19,,,,,,,,,,,,,,484.0799999999872,,response,,,,17,B,,,,,,Space,keypress(Space),,,,lyrical,,,,-------------- --- -------- -------- ---------- ---- -------<br>-- ---------- -- --- ----- ------ ----- ---- --------- ----<br>------- ------ -------- -- ------ ---------- ------ ---<br>------ -- -- ---- -- ---------- -------- ------ ---- -------<br>---- --- --------- ------- ----- --------- will ----- --<br>------ -------- -- ------ -- ---- ------------,260446,260444,259958.9,259959,259959.92,260446.78,,41,will
screen,html.Screen,2_3_1_0_1_42,2022-05-10T16:22:28.992Z,,,,,,,,,,,,,,,,,19,,,,,,,,,,,,,,1013.2200000000012,,response,,,,17,B,,,,,,Space,keypress(Space),,,,lyrical,,,,-------------- --- -------- -------- ---------- ---- -------<br>-- ---------- -- --- ----- ------ ----- ---- --------- ----<br>------- ------ -------- -- ------ ---------- ------ ---<br>------ -- -- ---- -- ---------- -------- ------ ---- -------<br>---- --- --------- ------- ----- --------- ---- exist --<br>------ -------- -- ------ -- ---- ------------,261476,261460,260445.98,260446,260446.78,261477.08,,42,exist
screen,html.Screen,2_3_1_0_1_43,2022-05-10T16:22:29.511Z,,,,,,,,,,,,,,,,,19,,,,,,,,,,,,,,512.9200000000128,,response,,,,17,B,,,,,,Space,keypress(Space),,,,lyrical,,,,-------------- --- -------- -------- ---------- ---- -------<br>-- ---------- -- --- ----- ------ ----- ---- --------- ----<br>------- ------ -------- -- ------ ---------- ------ ---<br>------ -- -- ---- -- ---------- -------- ------ ---- -------<br>---- --- --------- ------- ----- --------- ---- ----- as<br>------ -------- -- ------ -- ---- ------------,261995,261990,261476.34,261476,261477.08,262000.3,,43,as
screen,html.Screen,2_3_1_0_1_44,2022-05-10T16:22:30.246Z,,,,,,,,,,,,,,,,,19,,,,,,,,,,,,,,723.7000000000116,,response,,,,17,B,,,,,,Space,keypress(Space),,,,lyrical,,,,"-------------- --- -------- -------- ---------- ---- -------<br>-- ---------- -- --- ----- ------ ----- ---- --------- ----<br>------- ------ -------- -- ------ ---------- ------ ---<br>------ -- -- ---- -- ---------- -------- ------ ---- -------<br>---- --- --------- ------- ----- --------- ---- ----- --<br>gases, -------- -- ------ -- ---- ------------",262731,262724,261995.18,261995,262000.3,262733.62,,44,"gases,"
screen,html.Screen,2_3_1_0_1_45,2022-05-10T16:22:30.680Z,,,,,,,,,,,,,,,,,19,,,,,,,,,,,,,,428.38000000000466,,response,,,,17,B,,,,,,Space,keypress(Space),,,,lyrical,,,,"-------------- --- -------- -------- ---------- ---- -------<br>-- ---------- -- --- ----- ------ ----- ---- --------- ----<br>------- ------ -------- -- ------ ---------- ------ ---<br>------ -- -- ---- -- ---------- -------- ------ ---- -------<br>---- --- --------- ------- ----- --------- ---- ----- --<br>------ liquids, -- ------ -- ---- ------------",263164,263162,262730.34,262731,262733.62,263172,,45,"liquids,"
screen,html.Screen,2_3_1_0_1_46,2022-05-10T16:22:31.081Z,,,,,,,,,,,,,,,,,19,,,,,,,,,,,,,,381,,response,,,,17,B,,,,,,Space,keypress(Space),,,,lyrical,,,,-------------- --- -------- -------- ---------- ---- -------<br>-- ---------- -- --- ----- ------ ----- ---- --------- ----<br>------- ------ -------- -- ------ ---------- ------ ---<br>------ -- -- ---- -- ---------- -------- ------ ---- -------<br>---- --- --------- ------- ----- --------- ---- ----- --<br>------ -------- or ------ -- ---- ------------,263565,263553,263164.42,263164,263172,263565.94,,46,or
screen,html.Screen,2_3_1_0_1_47,2022-05-10T16:22:31.487Z,,,,,,,,,,,,,,,,,19,,,,,,,,,,,,,,394.0599999999977,,response,,,,17,B,,,,,,Space,keypress(Space),,,,lyrical,,,,-------------- --- -------- -------- ---------- ---- -------<br>-- ---------- -- --- ----- ------ ----- ---- --------- ----<br>------- ------ -------- -- ------ ---------- ------ ---<br>------ -- -- ---- -- ---------- -------- ------ ---- -------<br>---- --- --------- ------- ----- --------- ---- ----- --<br>------ -------- -- solids -- ---- ------------,263970,263960,263565.36,263565,263565.94,263972,,47,solids
screen,html.Screen,2_3_1_0_1_48,2022-05-10T16:22:31.902Z,,,,,,,,,,,,,,,,,19,,,,,,,,,,,,,,409,,response,,,,17,B,,,,,,Space,keypress(Space),,,,lyrical,,,,-------------- --- -------- -------- ---------- ---- -------<br>-- ---------- -- --- ----- ------ ----- ---- --------- ----<br>------- ------ -------- -- ------ ---------- ------ ---<br>------ -- -- ---- -- ---------- -------- ------ ---- -------<br>---- --- --------- ------- ----- --------- ---- ----- --<br>------ -------- -- ------ at ---- ------------,264386,264381,263970.46,263970,263972,264390.18,,48,at
screen,html.Screen,2_3_1_0_1_49,2022-05-10T16:22:32.243Z,,,,,,,,,,,,,,,,,19,,,,,,,,,,,,,,334.820000000007,,response,,,,17,B,,,,,,Space,keypress(Space),,,,lyrical,,,,-------------- --- -------- -------- ---------- ---- -------<br>-- ---------- -- --- ----- ------ ----- ---- --------- ----<br>------- ------ -------- -- ------ ---------- ------ ---<br>------ -- -- ---- -- ---------- -------- ------ ---- -------<br>---- --- --------- ------- ----- --------- ---- ----- --<br>------ -------- -- ------ -- room ------------,264727,264725,264386.38,264386,264390.18,264731.58,,49,room
screen,html.Screen,2_3_1_0_1_50,2022-05-10T16:22:32.709Z,,,,,,,,,,,,,,,,,19,,,,,,,,,,,,,,446.4199999999837,,response,,,,17,B,,,,,,Space,keypress(Space),,,,lyrical,,,,-------------- --- -------- -------- ---------- ---- -------<br>-- ---------- -- --- ----- ------ ----- ---- --------- ----<br>------- ------ -------- -- ------ ---------- ------ ---<br>------ -- -- ---- -- ---------- -------- ------ ---- -------<br>---- --- --------- ------- ----- --------- ---- ----- --<br>------ -------- -- ------ -- ---- temperature.,265193,265178,264727.54,264727,264731.58,265198.26,,50,temperature.
