sender,sender_type,sender_id,timestamp,meta,,Blues,Classical,Country,Dance,Electronic,Folk,Gospel,Hip-Hop,Jazz,Latin,Musical/Film,New-age,Pop,Prolific_id,Provo_ID,R&B,Rap,Reggae,Religious,Rock,Soul,Swing,Traditional,age,artist_name,correct,correctResponse,distraction,duration,education,ended_on,familiarity,gender,headphone_check_performance,item,list,music_frequency,offensiveness,pleasantness,position_correct,preference,response,response_action,snippet_file,song_name,song_rating,sound,stimulus_1,stimulus_2,stimulus_3,text,time_commit,time_end,time_render,time_run,time_show,time_switch,url,word,word_ID
Prolific ID,html.Form,0,2022-05-09T13:27:05.731Z,"{""labjs_version"":""20.2.2"",""labjs_build"":{""flavor"":""production"",""commit"":""a25486e0c714a0ae2ce03ff94b7bb6896854dcfa""},""location"":""https://run.pavlovia.org/mvasilev/prolific3_music_f/"",""userAgent"":""Mozilla/5.0 (Macintosh; Intel Mac OS X 10_15_7) AppleWebKit/537.36 (KHTML, like Gecko) Chrome/100.0.4896.127 Safari/537.36"",""platform"":""MacIntel"",""language"":""en-GB"",""locale"":""en-GB"",""timeZone"":""Europe/London"",""timezoneOffset"":-60,""screen_width"":1280,""screen_height"":800,""scroll_width"":1268,""scroll_height"":583,""window_innerWidth"":1268,""window_innerHeight"":631,""devicePixelRatio"":2}",,,,,,,,,,,,,,,60a00380a43a4ac3e0a1c66a,,,,,,,,,,,,,,,5621.372999988078,,form submission,,,,,,,,,,,,,,,,,,,,,28576.5,28575.69999998808,22937.653,14313.399999976158,22954.327,28590.139,{},,
Introduction,html.Screen,1_0,2022-05-09T13:27:13.216Z,,,,,,,,,,,,,,,,,,,,,,,,,,,,,,,7448.760999976159,,response,,,,,,,,,,,continue,click button,,,,,,,,,36062.09999996424,36038.89999997616,28573.465,28576.899999976158,28590.139,36076.765,,,
Volume calibration,html.Screen,1_1,2022-05-09T13:27:25.709Z,,,,,,,,,,,,,,,,,,,,,,,,,,,,,,,12459.534999952317,,response,,,,,,,,,,,continue,click button,,,,,,,,,48554.89999997616,48536.299999952316,36060.091,36062.299999952316,36076.765,48566.579,,,
Task instructions,html.Screen,1_2,2022-05-09T13:27:32.365Z,,,,,,,,,,,,,,,,,,,,,,,,,,,,,,,6624.020999964239,,response,,,,,,,,,,,continue,click button,,,,,,,,,55210.39999997616,55190.59999996424,48549.905,48555,48566.579,55219.505,,,
Sounds,html.Screen,1_3_0_0,2022-05-09T13:27:36.613Z,,,,,,,,,,,,,,,,,,,,,,,,,,,,,,,4251.870000000003,,timeout,,,,,,,,,2,,,,,,,,O,S,I,,59457.89999997616,59454.701,55202.831,55210.59999996424,55219.505,59471.375,,,
Judgement,html.Screen,1_3_0_1,2022-05-09T13:27:37.558Z,,,,,,,,,,,,,,,,,,,,,,,,,,,,true,2,,914.625,,response,,,,,,,,,2,,2,click #choice-2,,,,,O,S,I,,60402.799999952316,60386,59454.701,59458.299999952316,59471.375,60405.506,,,
Trial,flow.Sequence,1_3_0,2022-05-09T13:27:37.558Z,,,,,,,,,,,,,,,,,,,,,,,,,,,,,,,5166.495000000003,,completion,,,,,,,,,2,,,,,,,,O,S,I,,60403.09999996424,60386,55202.831,55210.59999996424,55219.505,60405.506,,,
Sounds,html.Screen,1_3_1_0,2022-05-09T13:27:41.797Z,,,,,,,,,,,,,,,,,,,,,,,,,,,,,,,4251.869999999995,,timeout,,,,,,,,,3,,,,,,,,I,O,S,,64642,64640.702,60388.832,60403.299999952316,60405.506,64657.376,,,
Judgement,html.Screen,1_3_1_1,2022-05-09T13:27:42.270Z,,,,,,,,,,,,,,,,,,,,,,,,,,,,true,3,,445.22399996424065,,response,,,,,,,,,3,,3,click #choice-3,,,,,I,O,S,,65115.39999997616,65102.59999996424,64640.702,64642.19999998808,64657.376,65124.248,,,
Trial,flow.Sequence,1_3_1,2022-05-09T13:27:42.271Z,,,,,,,,,,,,,,,,,,,,,,,,,,,,,,,4697.093999964236,,completion,,,,,,,,,3,,,,,,,,I,O,S,,65115.59999996424,65102.59999996424,60388.832,60403.19999998808,60405.506,65124.248,,,
Sounds,html.Screen,1_3_2_0,2022-05-09T13:27:46.517Z,,,,,,,,,,,,,,,,,,,,,,,,,,,,,,,4251.870000000003,,timeout,,,,,,,,,1,,,,,,,,S,O,I,,69361.5,69359.444,65107.574,65115.799999952316,65124.248,69376.118,,,
Judgement,html.Screen,1_3_2_1,2022-05-09T13:27:46.964Z,,,,,,,,,,,,,,,,,,,,,,,,,,,,true,1,,411.8819999999978,,response,,,,,,,,,1,,1,click #choice-1,,,,,S,O,I,,69808.39999997616,69788,69359.444,69361.69999998808,69376.118,69809.642,,,
Trial,flow.Sequence,1_3_2,2022-05-09T13:27:46.964Z,,,,,,,,,,,,,,,,,,,,,,,,,,,,,,,4663.752,,completion,,,,,,,,,1,,,,,,,,S,O,I,,69808.59999996424,69788,65107.574,65115.69999998808,65124.248,69809.642,,,
Sounds,html.Screen,1_3_3_0,2022-05-09T13:27:51.202Z,,,,,,,,,,,,,,,,,,,,,,,,,,,,,,,4251.869999999995,,timeout,,,,,,,,,3,,,,,,,,O,I,S,,74046.69999998808,74044.838,69792.968,69808.79999995232,69809.642,74061.512,,,
Judgement,html.Screen,1_3_3_1,2022-05-09T13:27:51.603Z,,,,,,,,,,,,,,,,,,,,,,,,,,,,true,3,,373.6879999880766,,response,,,,,,,,,3,,3,click #choice-3,,,,,O,I,S,,74447.39999997616,74435.19999998808,74044.838,74046.79999995232,74061.512,74462.037,,,
Trial,flow.Sequence,1_3_3,2022-05-09T13:27:51.603Z,,,,,,,,,,,,,,,,,,,,,,,,,,,,,,,4625.557999988072,,completion,,,,,,,,,3,,,,,,,,O,I,S,,74447.69999998808,74435.19999998808,69792.968,69808.69999998808,69809.642,74462.037,,,
Sounds,html.Screen,1_3_4_0,2022-05-09T13:27:55.855Z,,,,,,,,,,,,,,,,,,,,,,,,,,,,,,,4251.87000000001,,timeout,,,,,,,,,1,,,,,,,,S,I,O,,78699.19999998808,78697.233,74445.363,74448,74462.037,78713.907,,,
Judgement,html.Screen,1_3_4_1,2022-05-09T13:27:56.502Z,,,,,,,,,,,,,,,,,,,,,,,,,,,,true,1,,614.9929999761516,,response,,,,,,,,,1,,1,click #choice-1,,,,,S,I,O,,79346.39999997616,79328.89999997616,78697.233,78699.39999997616,78713.907,79347.519,,,
Trial,flow.Sequence,1_3_4,2022-05-09T13:27:56.502Z,,,,,,,,,,,,,,,,,,,,,,,,,,,,,,,4866.8629999761615,,completion,,,,,,,,,1,,,,,,,,S,I,O,,79346.59999996424,79328.89999997616,74445.363,74447.89999997616,74462.037,79347.519,,,
Sounds,html.Screen,1_3_5_0,2022-05-09T13:28:00.740Z,,,,,,,,,,,,,,,,,,,,,,,,,,,,,,,4251.869999999995,,timeout,,,,,,,,,2,,,,,,,,I,S,O,,83584.79999995232,83582.715,79330.845,79346.69999998808,79347.519,83599.389,,,
Judgement,html.Screen,1_3_5_1,2022-05-09T13:28:01.253Z,,,,,,,,,,,,,,,,,,,,,,,,,,,,true,2,,487.71099996424164,,response,,,,,,,,,2,,2,click #choice-2,,,,,I,S,O,,84097.89999997616,84087.09999996424,83582.715,83585.09999996424,83599.389,84100.073,,,
Trial,flow.Sequence,1_3_5,2022-05-09T13:28:01.254Z,,,,,,,,,,,,,,,,,,,,,,,,,,,,,,,4739.580999964237,,completion,,,,,,,,,2,,,,,,,,I,S,O,,84098.09999996424,84087.09999996424,79330.845,79346.59999996424,79347.519,84100.073,,,
Task,flow.Loop,1_3,2022-05-09T13:28:01.258Z,,,,,,,,,,,,,,,,,,,,,,,,,,,,,,,28867.59499996424,,completion,,,1,,,,,,,,,,,,,,,,,,84102.69999998808,84087.09999996424,55202.831,55210.59999996424,55219.505,84100.073,,,
Trap,html.Screen,1_4,2022-05-09T13:28:01.259Z,,,,,,,,,,,,,,,,,,,,,,,,,,,,,,,NaN,,skipped,,,,,,,,,,,,,,,,,,,,,84103.89999997616,84087.09999996424,,84103.79999995232,,84100.073,,,
Thanks,html.Screen,1_5,2022-05-09T13:28:03.976Z,,,,,,,,,,,,,,,,,,,,,,,,,,,,,,,2702.426999999996,,response,,,,,,,,,,,continue,click button,,,,,,,,,86820.79999995232,86802.5,84083.399,84104.09999996424,84100.073,90586.259,,,
Headphone screening,flow.Sequence,1,2022-05-09T13:28:03.977Z,,,,,,,,,,,,,,,,,,,,,,,,,,,,,,,58212.361000000004,,completion,,,,,,,,,,,,,,,,,,,,,86821.09999996424,86802.5,28573.465,28576.899999976158,28590.139,90586.259,,,
Instructions,html.Page,2_0,2022-05-09T13:28:25.757Z,,,,,,,,,,,,,,,,,,,,,,,,,,,,,,,18014.640999976153,,form submission,,,,,,,,,,,,,,,,,,,,,108601.19999998808,108600.89999997616,90569.585,90570.89999997616,90586.259,108610.853,,,
Holding screen,html.Screen,2_1_0_0,2022-05-09T13:28:35.759Z,,,,,,,,,,,,,,,,,,,,,,,,,,,,,,,10005.225999999995,,timeout,,,,,,,,,,,,,,,,,,,,,118603,118599.405,108594.179,108601.5,108610.853,118616.079,,,
screen,html.Screen,2_1_0_1_0,2022-05-09T13:28:36.697Z,,,,,,,,,,,,,,,,,53,,,,,,,,,,,,,,916.3209999761602,,response,,,,99,,,,,,,Space,keypress(Space),,,,,,,,When -- ----- -- ------ - ------- --- ----------<br>------------- ------ ------ ---- ---- ------- ----- -- ----<br>-------- ------- -- ---------- --- - --- ----- ----- ----<br>---- --- --- ----- --- ---- ---- ------- ----- ---- -------<br>--- --- -- ----- -- --- ---- -- --- ---- -- ------ ------<br>--- ----- -- ----,119541,119532.39999997616,118599.405,118603.29999995232,118616.079,119549.823,,0,When
screen,html.Screen,2_1_0_1_1,2022-05-09T13:28:37.131Z,,,,,,,,,,,,,,,,,53,,,,,,,,,,,,,,419.5769999761542,,response,,,,99,,,,,,,Space,keypress(Space),,,,,,,,---- it ----- -- ------ - ------- --- ----------<br>------------- ------ ------ ---- ---- ------- ----- -- ----<br>-------- ------- -- ---------- --- - --- ----- ----- ----<br>---- --- --- ----- --- ---- ---- ------- ----- ---- -------<br>--- --- -- ----- -- --- ---- -- --- ---- -- ------ ------<br>--- ----- -- ----,119974.09999996424,119969.39999997616,119533.149,119541,119549.823,119983.702,,1,it
screen,html.Screen,2_1_0_1_2,2022-05-09T13:28:37.543Z,,,,,,,,,,,,,,,,,53,,,,,,,,,,,,,,397.5979999523115,,response,,,,99,,,,,,,Space,keypress(Space),,,,,,,,---- -- comes -- ------ - ------- --- ----------<br>------------- ------ ------ ---- ---- ------- ----- -- ----<br>-------- ------- -- ---------- --- - --- ----- ----- ----<br>---- --- --- ----- --- ---- ---- ------- ----- ---- -------<br>--- --- -- ----- -- --- ---- -- --- ---- -- ------ ------<br>--- ----- -- ----,120386.19999998808,120381.29999995232,119967.028,119974.29999995232,119983.702,120400.552,,2,comes
screen,html.Screen,2_1_0_1_3,2022-05-09T13:28:37.958Z,,,,,,,,,,,,,,,,,53,,,,,,,,,,,,,,395.94800000000396,,response,,,,99,,,,,,,Space,keypress(Space),,,,,,,,---- -- ----- to ------ - ------- --- ----------<br>------------- ------ ------ ---- ---- ------- ----- -- ----<br>-------- ------- -- ---------- --- - --- ----- ----- ----<br>---- --- --- ----- --- ---- ---- ------- ----- ---- -------<br>--- --- -- ----- -- --- ---- -- --- ---- -- ------ ------<br>--- ----- -- ----,120801.89999997616,120796.5,120383.878,120386.29999995232,120400.552,120817.402,,3,to
screen,html.Screen,2_1_0_1_4,2022-05-09T13:28:38.330Z,,,,,,,,,,,,,,,,,53,,,,,,,,,,,,,,351.09799999999814,,response,,,,99,,,,,,,Space,keypress(Space),,,,,,,,---- -- ----- -- having - ------- --- ----------<br>------------- ------ ------ ---- ---- ------- ----- -- ----<br>-------- ------- -- ---------- --- - --- ----- ----- ----<br>---- --- --- ----- --- ---- ---- ------- ----- ---- -------<br>--- --- -- ----- -- --- ---- -- --- ---- -- ------ ------<br>--- ----- -- ----,121174,121168.5,120800.728,120802.09999996424,120817.402,121184.23,,4,having
screen,html.Screen,2_1_0_1_5,2022-05-09T13:28:38.709Z,,,,,,,,,,,,,,,,,53,,,,,,,,,,,,,,362.96999998808315,,response,,,,99,,,,,,,Space,keypress(Space),,,,,,,,---- -- ----- -- ------ a ------- --- ----------<br>------------- ------ ------ ---- ---- ------- ----- -- ----<br>-------- ------- -- ---------- --- - --- ----- ----- ----<br>---- --- --- ----- --- ---- ---- ------- ----- ---- -------<br>--- --- -- ----- -- --- ---- -- --- ---- -- ------ ------<br>--- ----- -- ----,121552.39999997616,121547.19999998808,121167.556,121174,121184.23,121567.732,,5,a
screen,html.Screen,2_1_0_1_6,2022-05-09T13:28:39.073Z,,,,,,,,,,,,,,,,,53,,,,,,,,,,,,,,342.5679999523127,,response,,,,99,,,,,,,Space,keypress(Space),,,,,,,,---- -- ----- -- ------ - lasting --- ----------<br>------------- ------ ------ ---- ---- ------- ----- -- ----<br>-------- ------- -- ---------- --- - --- ----- ----- ----<br>---- --- --- ----- --- ---- ---- ------- ----- ---- -------<br>--- --- -- ----- -- --- ---- -- --- ---- -- ------ ------<br>--- ----- -- ----,121916.69999998808,121910.29999995232,121551.058,121552.5,121567.732,121934.56,,6,lasting
screen,html.Screen,2_1_0_1_7,2022-05-09T13:28:39.341Z,,,,,,,,,,,,,,,,,53,,,,,,,,,,,,,,245.6399999880814,,response,,,,99,,,,,,,Space,keypress(Space),,,,,,,,---- -- ----- -- ------ - ------- and ----------<br>------------- ------ ------ ---- ---- ------- ----- -- ----<br>-------- ------- -- ---------- --- - --- ----- ----- ----<br>---- --- --- ----- --- ---- ---- ------- ----- ---- -------<br>--- --- -- ----- -- --- ---- -- --- ---- -- ------ ------<br>--- ----- -- ----,122184.79999995232,122180.19999998808,121917.886,121916.79999995232,121934.56,122201.344,,7,and
screen,html.Screen,2_1_0_1_8,2022-05-09T13:28:39.700Z,,,,,,,,,,,,,,,,,53,,,,,,,,,,,,,,335.7559999642399,,response,,,,99,,,,,,,Space,keypress(Space),,,,,,,,---- -- ----- -- ------ - ------- --- fulfilling<br>------------- ------ ------ ---- ---- ------- ----- -- ----<br>-------- ------- -- ---------- --- - --- ----- ----- ----<br>---- --- --- ----- --- ---- ---- ------- ----- ---- -------<br>--- --- -- ----- -- --- ---- -- --- ---- -- ------ ------<br>--- ----- -- ----,122543,122537.09999996424,122184.67,122184.89999997616,122201.344,122551.498,,8,fulfilling
screen,html.Screen,2_1_0_1_9,2022-05-09T13:28:40.056Z,,,,,,,,,,,,,,,,,53,,,,,,,,,,,,,,342.7019999880722,,response,,,,99,,,,,,,Space,keypress(Space),,,,,,,,"---- -- ----- -- ------ - ------- --- ----------<br>relationship, ------ ------ ---- ---- ------- ----- -- ----<br>-------- ------- -- ---------- --- - --- ----- ----- ----<br>---- --- --- ----- --- ---- ---- ------- ----- ---- -------<br>--- --- -- ----- -- --- ---- -- --- ---- -- ------ ------<br>--- ----- -- ----",122899.29999995232,122894.19999998808,122534.824,122543.09999996424,122551.498,122901.652,,9,"relationship,"
screen,html.Screen,2_1_0_1_10,2022-05-09T13:28:40.575Z,,,,,,,,,,,,,,,,,53,,,,,,,,,,,,,,511.5479999880772,,response,,,,99,,,,,,,Space,keypress(Space),,,,,,,,---- -- ----- -- ------ - ------- --- ----------<br>------------- common ------ ---- ---- ------- ----- -- ----<br>-------- ------- -- ---------- --- - --- ----- ----- ----<br>---- --- --- ----- --- ---- ---- ------- ----- ---- -------<br>--- --- -- ----- -- --- ---- -- --- ---- -- ------ ------<br>--- ----- -- ----,123418.5,123413.19999998808,122884.978,122899.39999997616,122901.652,123435.22,,10,common
screen,html.Screen,2_1_0_1_11,2022-05-09T13:28:40.915Z,,,,,,,,,,,,,,,,,53,,,,,,,,,,,,,,317.9799999880779,,response,,,,99,,,,,,,Space,keypress(Space),,,,,,,,---- -- ----- -- ------ - ------- --- ----------<br>------------- ------ wisdom ---- ---- ------- ----- -- ----<br>-------- ------- -- ---------- --- - --- ----- ----- ----<br>---- --- --- ----- --- ---- ---- ------- ----- ---- -------<br>--- --- -- ----- -- --- ---- -- --- ---- -- ------ ------<br>--- ----- -- ----,123758.5,123753.19999998808,123418.546,123418.59999996424,123435.22,123768.7,,11,wisdom
screen,html.Screen,2_1_0_1_12,2022-05-09T13:28:41.206Z,,,,,,,,,,,,,,,,,53,,,,,,,,,,,,,,275.3999999642401,,response,,,,99,,,,,,,Space,keypress(Space),,,,,,,,---- -- ----- -- ------ - ------- --- ----------<br>------------- ------ ------ says ---- ------- ----- -- ----<br>-------- ------- -- ---------- --- - --- ----- ----- ----<br>---- --- --- ----- --- ---- ---- ------- ----- ---- -------<br>--- --- -- ----- -- --- ---- -- --- ---- -- ------ ------<br>--- ----- -- ----,124049.19999998808,124044.09999996424,123752.026,123758.5,123768.7,124052.158,,12,says
screen,html.Screen,2_1_0_1_13,2022-05-09T13:28:41.587Z,,,,,,,,,,,,,,,,,53,,,,,,,,,,,,,,372.74199997616233,,response,,,,99,,,,,,,Space,keypress(Space),,,,,,,,---- -- ----- -- ------ - ------- --- ----------<br>------------- ------ ------ ---- that ------- ----- -- ----<br>-------- ------- -- ---------- --- - --- ----- ----- ----<br>---- --- --- ----- --- ---- ---- ------- ----- ---- -------<br>--- --- -- ----- -- --- ---- -- --- ---- -- ------ ------<br>--- ----- -- ----,124430.19999998808,124424.89999997616,124035.484,124049.39999997616,124052.158,124435.66,,13,that
screen,html.Screen,2_1_0_1_14,2022-05-09T13:28:41.948Z,,,,,,,,,,,,,,,,,53,,,,,,,,,,,,,,351.3399999999965,,response,,,,99,,,,,,,Space,keypress(Space),,,,,,,,---- -- ----- -- ------ - ------- --- ----------<br>------------- ------ ------ ---- ---- feeling ----- -- ----<br>-------- ------- -- ---------- --- - --- ----- ----- ----<br>---- --- --- ----- --- ---- ---- ------- ----- ---- -------<br>--- --- -- ----- -- --- ---- -- --- ---- -- ------ ------<br>--- ----- -- ----,124791.39999997616,124787,124418.986,124430.29999995232,124435.66,124802.488,,14,feeling
screen,html.Screen,2_1_0_1_15,2022-05-09T13:28:42.380Z,,,,,,,,,,,,,,,,,53,,,,,,,,,,,,,,415.4119999761606,,response,,,,99,,,,,,,Space,keypress(Space),,,,,,,,---- -- ----- -- ------ - ------- --- ----------<br>------------- ------ ------ ---- ---- ------- close -- ----<br>-------- ------- -- ---------- --- - --- ----- ----- ----<br>---- --- --- ----- --- ---- ---- ------- ----- ---- -------<br>--- --- -- ----- -- --- ---- -- --- ---- -- ------ ------<br>--- ----- -- ----,125223.09999996424,125217.89999997616,124785.814,124791.79999995232,124802.488,125236.012,,15,close
screen,html.Screen,2_1_0_1_16,2022-05-09T13:28:42.716Z,,,,,,,,,,,,,,,,,53,,,,,,,,,,,,,,317.8879999761557,,response,,,,99,,,,,,,Space,keypress(Space),,,,,,,,---- -- ----- -- ------ - ------- --- ----------<br>------------- ------ ------ ---- ---- ------- ----- to ----<br>-------- ------- -- ---------- --- - --- ----- ----- ----<br>---- --- --- ----- --- ---- ---- ------- ----- ---- -------<br>--- --- -- ----- -- --- ---- -- --- ---- -- ------ ------<br>--- ----- -- ----,125559,125553.89999997616,125219.338,125223.29999995232,125236.012,125569.492,,16,to
screen,html.Screen,2_1_0_1_17,2022-05-09T13:28:43.037Z,,,,,,,,,,,,,,,,,53,,,,,,,,,,,,,,305.60799996423884,,response,,,,99,,,,,,,Space,keypress(Space),,,,,,,,---- -- ----- -- ------ - ------- --- ----------<br>------------- ------ ------ ---- ---- ------- ----- -- your<br>-------- ------- -- ---------- --- - --- ----- ----- ----<br>---- --- --- ----- --- ---- ---- ------- ----- ---- -------<br>--- --- -- ----- -- --- ---- -- --- ---- -- ------ ------<br>--- ----- -- ----,125880.29999995232,125875.09999996424,125552.818,125559.09999996424,125569.492,125886.298,,17,your
screen,html.Screen,2_1_0_1_18,2022-05-09T13:28:43.521Z,,,,,,,,,,,,,,,,,53,,,,,,,,,,,,,,473.7020000000048,,response,,,,99,,,,,,,Space,keypress(Space),,,,,,,,---- -- ----- -- ------ - ------- --- ----------<br>------------- ------ ------ ---- ---- ------- ----- -- ----<br>romantic ------- -- ---------- --- - --- ----- ----- ----<br>---- --- --- ----- --- ---- ---- ------- ----- ---- -------<br>--- --- -- ----- -- --- ---- -- --- ---- -- ------ ------<br>--- ----- -- ----,126364.79999995232,126360,125869.624,125880.29999995232,125886.298,126369.844,,18,romantic
screen,html.Screen,2_1_0_1_19,2022-05-09T13:28:43.733Z,,,,,,,,,,,,,,,,,53,,,,,,,,,,,,,,201.15600000000268,,response,,,,99,,,,,,,Space,keypress(Space),,,,,,,,---- -- ----- -- ------ - ------- --- ----------<br>------------- ------ ------ ---- ---- ------- ----- -- ----<br>-------- partner -- ---------- --- - --- ----- ----- ----<br>---- --- --- ----- --- ---- ---- ------- ----- ---- -------<br>--- --- -- ----- -- --- ---- -- --- ---- -- ------ ------<br>--- ----- -- ----,126576.19999998808,126571,126353.17,126365,126369.844,126586.606,,19,partner
screen,html.Screen,2_1_0_1_20,2022-05-09T13:28:43.998Z,,,,,,,,,,,,,,,,,53,,,,,,,,,,,,,,248.39400000000023,,response,,,,99,,,,,,,Space,keypress(Space),,,,,,,,---- -- ----- -- ------ - ------- --- ----------<br>------------- ------ ------ ---- ---- ------- ----- -- ----<br>-------- ------- is ---------- --- - --- ----- ----- ----<br>---- --- --- ----- --- ---- ---- ------- ----- ---- -------<br>--- --- -- ----- -- --- ---- -- --- ---- -- ------ ------<br>--- ----- -- ----,126841,126835,126569.932,126576.29999995232,126586.606,126853.39,,20,is
screen,html.Screen,2_1_0_1_21,2022-05-09T13:28:44.336Z,,,,,,,,,,,,,,,,,53,,,,,,,,,,,,,,320.6100000000006,,response,,,,99,,,,,,,Space,keypress(Space),,,,,,,,---- -- ----- -- ------ - ------- --- ----------<br>------------- ------ ------ ---- ---- ------- ----- -- ----<br>-------- ------- -- paramount. --- - --- ----- ----- ----<br>---- --- --- ----- --- ---- ---- ------- ----- ---- -------<br>--- --- -- ----- -- --- ---- -- --- ---- -- ------ ------<br>--- ----- -- ----,127179.09999996424,127174,126836.716,126841.19999998808,126853.39,127186.87,,21,paramount.
screen,html.Screen,2_1_0_1_22,2022-05-09T13:28:45.050Z,,,,,,,,,,,,,,,,,53,,,,,,,,,,,,,,703.2299999642419,,response,,,,99,,,,,,,Space,keypress(Space),,,,,,,,---- -- ----- -- ------ - ------- --- ----------<br>------------- ------ ------ ---- ---- ------- ----- -- ----<br>-------- ------- -- ---------- But - --- ----- ----- ----<br>---- --- --- ----- --- ---- ---- ------- ----- ---- -------<br>--- --- -- ----- -- --- ---- -- --- ---- -- ------ ------<br>--- ----- -- ----,127893.69999998808,127890.09999996424,127170.196,127179.19999998808,127186.87,127903.852,,22,But
screen,html.Screen,2_1_0_1_23,2022-05-09T13:28:45.511Z,,,,,,,,,,,,,,,,,53,,,,,,,,,,,,,,445.0479999761592,,response,,,,99,,,,,,,Space,keypress(Space),,,,,,,,---- -- ----- -- ------ - ------- --- ----------<br>------------- ------ ------ ---- ---- ------- ----- -- ----<br>-------- ------- -- ---------- --- a --- ----- ----- ----<br>---- --- --- ----- --- ---- ---- ------- ----- ---- -------<br>--- --- -- ----- -- --- ---- -- --- ---- -- ------ ------<br>--- ----- -- ----,128354,128348.89999997616,127887.178,127893.89999997616,127903.852,128370.724,,23,a
screen,html.Screen,2_1_0_1_24,2022-05-09T13:28:45.703Z,,,,,,,,,,,,,,,,,53,,,,,,,,,,,,,,170.9759999880771,,response,,,,99,,,,,,,Space,keypress(Space),,,,,,,,---- -- ----- -- ------ - ------- --- ----------<br>------------- ------ ------ ---- ---- ------- ----- -- ----<br>-------- ------- -- ---------- --- - new ----- ----- ----<br>---- --- --- ----- --- ---- ---- ------- ----- ---- -------<br>--- --- -- ----- -- --- ---- -- --- ---- -- ------ ------<br>--- ----- -- ----,128546.69999998808,128541.69999998808,128354.05,128354,128370.724,128554.138,,24,new
screen,html.Screen,2_1_0_1_25,2022-05-09T13:28:46.103Z,,,,,,,,,,,,,,,,,53,,,,,,,,,,,,,,387.76199997615186,,response,,,,99,,,,,,,Space,keypress(Space),,,,,,,,---- -- ----- -- ------ - ------- --- ----------<br>------------- ------ ------ ---- ---- ------- ----- -- ----<br>-------- ------- -- ---------- --- - --- study ----- ----<br>---- --- --- ----- --- ---- ---- ------- ----- ---- -------<br>--- --- -- ----- -- --- ---- -- --- ---- -- ------ ------<br>--- ----- -- ----,128946.79999995232,128941.89999997616,128537.464,128546.79999995232,128554.138,128954.314,,25,study
screen,html.Screen,2_1_0_1_26,2022-05-09T13:28:46.478Z,,,,,,,,,,,,,,,,,53,,,,,,,,,,,,,,361.4859999523178,,response,,,,99,,,,,,,Space,keypress(Space),,,,,,,,---- -- ----- -- ------ - ------- --- ----------<br>------------- ------ ------ ---- ---- ------- ----- -- ----<br>-------- ------- -- ---------- --- - --- ----- finds ----<br>---- --- --- ----- --- ---- ---- ------- ----- ---- -------<br>--- --- -- ----- -- --- ---- -- --- ---- -- ------ ------<br>--- ----- -- ----,129321,129315.79999995232,128937.64,128946.89999997616,128954.314,129337.816,,26,finds
screen,html.Screen,2_1_0_1_27,2022-05-09T13:28:46.839Z,,,,,,,,,,,,,,,,,53,,,,,,,,,,,,,,339.083999976152,,response,,,,99,,,,,,,Space,keypress(Space),,,,,,,,---- -- ----- -- ------ - ------- --- ----------<br>------------- ------ ------ ---- ---- ------- ----- -- ----<br>-------- ------- -- ---------- --- - --- ----- ----- that<br>---- --- --- ----- --- ---- ---- ------- ----- ---- -------<br>--- --- -- ----- -- --- ---- -- --- ---- -- ------ ------<br>--- ----- -- ----,129682.29999995232,129676.89999997616,129321.142,129321.09999996424,129337.816,129688.318,,27,that
screen,html.Screen,2_1_0_1_28,2022-05-09T13:28:47.432Z,,,,,,,,,,,,,,,,,53,,,,,,,,,,,,,,582.3819999880798,,response,,,,99,,,,,,,Space,keypress(Space),,,,,,,,---- -- ----- -- ------ - ------- --- ----------<br>------------- ------ ------ ---- ---- ------- ----- -- ----<br>-------- ------- -- ---------- --- - --- ----- ----- ----<br>it's --- --- ----- --- ---- ---- ------- ----- ---- -------<br>--- --- -- ----- -- --- ---- -- --- ---- -- ------ ------<br>--- ----- -- ----,130275.39999997616,130270.69999998808,129671.644,129682.5,129688.318,130288.582,,28,it's
screen,html.Screen,2_1_0_1_29,2022-05-09T13:28:47.886Z,,,,,,,,,,,,,,,,,53,,,,,,,,,,,,,,430.01799996424234,,response,,,,99,,,,,,,Space,keypress(Space),,,,,,,,---- -- ----- -- ------ - ------- --- ----------<br>------------- ------ ------ ---- ---- ------- ----- -- ----<br>-------- ------- -- ---------- --- - --- ----- ----- ----<br>---- not --- ----- --- ---- ---- ------- ----- ---- -------<br>--- --- -- ----- -- --- ---- -- --- ---- -- ------ ------<br>--- ----- -- ----,130728.79999995232,130718.59999996424,130271.908,130275.5,130288.582,130738.78,,29,not
screen,html.Screen,2_1_0_1_30,2022-05-09T13:28:48.268Z,,,,,,,,,,,,,,,,,53,,,,,,,,,,,,,,367.01999995231745,,response,,,,99,,,,,,,Space,keypress(Space),,,,,,,,---- -- ----- -- ------ - ------- --- ----------<br>------------- ------ ------ ---- ---- ------- ----- -- ----<br>-------- ------- -- ---------- --- - --- ----- ----- ----<br>---- --- how ----- --- ---- ---- ------- ----- ---- -------<br>--- --- -- ----- -- --- ---- -- --- ---- -- ------ ------<br>--- ----- -- ----,131110.79999995232,131105.79999995232,130722.106,130729,130738.78,131122.282,,30,how
screen,html.Screen,2_1_0_1_31,2022-05-09T13:28:48.610Z,,,,,,,,,,,,,,,,,53,,,,,,,,,,,,,,325.41799998807255,,response,,,,99,,,,,,,Space,keypress(Space),,,,,,,,---- -- ----- -- ------ - ------- --- ----------<br>------------- ------ ------ ---- ---- ------- ----- -- ----<br>-------- ------- -- ---------- --- - --- ----- ----- ----<br>---- --- --- close --- ---- ---- ------- ----- ---- -------<br>--- --- -- ----- -- --- ---- -- --- ---- -- ------ ------<br>--- ----- -- ----,131452.79999995232,131447.69999998808,131105.608,131110.89999997616,131122.282,131455.762,,31,close
screen,html.Screen,2_1_0_1_32,2022-05-09T13:28:49.014Z,,,,,,,,,,,,,,,,,53,,,,,,,,,,,,,,391.9379999880912,,response,,,,99,,,,,,,Space,keypress(Space),,,,,,,,---- -- ----- -- ------ - ------- --- ----------<br>------------- ------ ------ ---- ---- ------- ----- -- ----<br>-------- ------- -- ---------- --- - --- ----- ----- ----<br>---- --- --- ----- you ---- ---- ------- ----- ---- -------<br>--- --- -- ----- -- --- ---- -- --- ---- -- ------ ------<br>--- ----- -- ----,131857.09999996424,131847.69999998808,131439.088,131452.89999997616,131455.762,131872.612,,32,you
screen,html.Screen,2_1_0_1_33,2022-05-09T13:28:49.340Z,,,,,,,,,,,,,,,,,53,,,,,,,,,,,,,,306.08799998808536,,response,,,,99,,,,,,,Space,keypress(Space),,,,,,,,---- -- ----- -- ------ - ------- --- ----------<br>------------- ------ ------ ---- ---- ------- ----- -- ----<br>-------- ------- -- ---------- --- - --- ----- ----- ----<br>---- --- --- ----- --- feel ---- ------- ----- ---- -------<br>--- --- -- ----- -- --- ---- -- --- ---- -- ------ ------<br>--- ----- -- ----,132183.39999997616,132178.69999998808,131855.938,131857.19999998808,131872.612,132189.418,,33,feel
screen,html.Screen,2_1_0_1_34,2022-05-09T13:28:49.711Z,,,,,,,,,,,,,,,,,53,,,,,,,,,,,,,,360.28199998807395,,response,,,,99,,,,,,,Space,keypress(Space),,,,,,,,---- -- ----- -- ------ - ------- --- ----------<br>------------- ------ ------ ---- ---- ------- ----- -- ----<br>-------- ------- -- ---------- --- - --- ----- ----- ----<br>---- --- --- ----- --- ---- that ------- ----- ---- -------<br>--- --- -- ----- -- --- ---- -- --- ---- -- ------ ------<br>--- ----- -- ----,132554.29999995232,132549.69999998808,132172.744,132183.5,132189.418,132556.246,,34,that
screen,html.Screen,2_1_0_1_35,2022-05-09T13:28:50.044Z,,,,,,,,,,,,,,,,,53,,,,,,,,,,,,,,326.45399998806533,,response,,,,99,,,,,,,Space,keypress(Space),,,,,,,,---- -- ----- -- ------ - ------- --- ----------<br>------------- ------ ------ ---- ---- ------- ----- -- ----<br>-------- ------- -- ---------- --- - --- ----- ----- ----<br>---- --- --- ----- --- ---- ---- matters ----- ---- -------<br>--- --- -- ----- -- --- ---- -- --- ---- -- ------ ------<br>--- ----- -- ----,132887.5,132882.69999998808,132539.572,132554.39999997616,132556.246,132889.726,,35,matters
screen,html.Screen,2_1_0_1_36,2022-05-09T13:28:50.551Z,,,,,,,,,,,,,,,,,53,,,,,,,,,,,,,,499.7740000000049,,response,,,,99,,,,,,,Space,keypress(Space),,,,,,,,"---- -- ----- -- ------ - ------- --- ----------<br>------------- ------ ------ ---- ---- ------- ----- -- ----<br>-------- ------- -- ---------- --- - --- ----- ----- ----<br>---- --- --- ----- --- ---- ---- ------- most, ---- -------<br>--- --- -- ----- -- --- ---- -- --- ---- -- ------ ------<br>--- ----- -- ----",133394.5,133389.5,132873.052,132887.59999996424,132889.726,133406.62,,36,"most,"
screen,html.Screen,2_1_0_1_37,2022-05-09T13:28:51.068Z,,,,,,,,,,,,,,,,,53,,,,,,,,,,,,,,499.7799999761628,,response,,,,99,,,,,,,Space,keypress(Space),,,,,,,,---- -- ----- -- ------ - ------- --- ----------<br>------------- ------ ------ ---- ---- ------- ----- -- ----<br>-------- ------- -- ---------- --- - --- ----- ----- ----<br>---- --- --- ----- --- ---- ---- ------- ----- it's -------<br>--- --- -- ----- -- --- ---- -- --- ---- -- ------ ------<br>--- ----- -- ----,133911.09999996424,133906.39999997616,133389.946,133394.5,133406.62,133923.514,,37,it's
screen,html.Screen,2_1_0_1_38,2022-05-09T13:28:51.410Z,,,,,,,,,,,,,,,,,53,,,,,,,,,,,,,,324.9860000000044,,response,,,,99,,,,,,,Space,keypress(Space),,,,,,,,---- -- ----- -- ------ - ------- --- ----------<br>------------- ------ ------ ---- ---- ------- ----- -- ----<br>-------- ------- -- ---------- --- - --- ----- ----- ----<br>---- --- --- ----- --- ---- ---- ------- ----- ---- whether<br>--- --- -- ----- -- --- ---- -- --- ---- -- ------ ------<br>--- ----- -- ----,134253.5,134248.5,133906.84,133911.19999998808,133923.514,134256.994,,38,whether
screen,html.Screen,2_1_0_1_39,2022-05-09T13:28:51.795Z,,,,,,,,,,,,,,,,,53,,,,,,,,,,,,,,375.60599996423116,,response,,,,99,,,,,,,Space,keypress(Space),,,,,,,,---- -- ----- -- ------ - ------- --- ----------<br>------------- ------ ------ ---- ---- ------- ----- -- ----<br>-------- ------- -- ---------- --- - --- ----- ----- ----<br>---- --- --- ----- --- ---- ---- ------- ----- ---- -------<br>you --- -- ----- -- --- ---- -- --- ---- -- ------ ------<br>--- ----- -- ----,134638,134632.59999996424,134240.32,134253.59999996424,134256.994,134640.496,,39,you
screen,html.Screen,2_1_0_1_40,2022-05-09T13:28:52.124Z,,,,,,,,,,,,,,,,,53,,,,,,,,,,,,,,322.00399999998626,,response,,,,99,,,,,,,Space,keypress(Space),,,,,,,,---- -- ----- -- ------ - ------- --- ----------<br>------------- ------ ------ ---- ---- ------- ----- -- ----<br>-------- ------- -- ---------- --- - --- ----- ----- ----<br>---- --- --- ----- --- ---- ---- ------- ----- ---- -------<br>--- are -- ----- -- --- ---- -- --- ---- -- ------ ------<br>--- ----- -- ----,134967.5,134962.5,134623.822,134638.19999998808,134640.496,134973.976,,40,are
screen,html.Screen,2_1_0_1_41,2022-05-09T13:28:52.359Z,,,,,,,,,,,,,,,,,53,,,,,,,,,,,,,,222.6239999642421,,response,,,,99,,,,,,,Space,keypress(Space),,,,,,,,---- -- ----- -- ------ - ------- --- ----------<br>------------- ------ ------ ---- ---- ------- ----- -- ----<br>-------- ------- -- ---------- --- - --- ----- ----- ----<br>---- --- --- ----- --- ---- ---- ------- ----- ---- -------<br>--- --- as ----- -- --- ---- -- --- ---- -- ------ ------<br>--- ----- -- ----,135202,135196.59999996424,134957.302,134967.69999998808,134973.976,135207.412,,41,as
screen,html.Screen,2_1_0_1_42,2022-05-09T13:28:52.846Z,,,,,,,,,,,,,,,,,53,,,,,,,,,,,,,,477.0879999999888,,response,,,,99,,,,,,,Space,keypress(Space),,,,,,,,---- -- ----- -- ------ - ------- --- ----------<br>------------- ------ ------ ---- ---- ------- ----- -- ----<br>-------- ------- -- ---------- --- - --- ----- ----- ----<br>---- --- --- ----- --- ---- ---- ------- ----- ---- -------<br>--- --- -- close -- --- ---- -- --- ---- -- ------ ------<br>--- ----- -- ----,135689.5,135684.5,135190.738,135202.09999996424,135207.412,135707.632,,42,close
screen,html.Screen,2_1_0_1_43,2022-05-09T13:28:53.161Z,,,,,,,,,,,,,,,,,53,,,,,,,,,,,,,,291.9679999642249,,response,,,,99,,,,,,,Space,keypress(Space),,,,,,,,---- -- ----- -- ------ - ------- --- ----------<br>------------- ------ ------ ---- ---- ------- ----- -- ----<br>-------- ------- -- ---------- --- - --- ----- ----- ----<br>---- --- --- ----- --- ---- ---- ------- ----- ---- -------<br>--- --- -- ----- as --- ---- -- --- ---- -- ------ ------<br>--- ----- -- ----,136004.29999995232,135999.59999996424,135690.958,135689.69999998808,135707.632,136007.764,,43,as
screen,html.Screen,2_1_0_1_44,2022-05-09T13:28:53.556Z,,,,,,,,,,,,,,,,,53,,,,,,,,,,,,,,385.7360000000044,,response,,,,99,,,,,,,Space,keypress(Space),,,,,,,,---- -- ----- -- ------ - ------- --- ----------<br>------------- ------ ------ ---- ---- ------- ----- -- ----<br>-------- ------- -- ---------- --- - --- ----- ----- ----<br>---- --- --- ----- --- ---- ---- ------- ----- ---- -------<br>--- --- -- ----- -- you ---- -- --- ---- -- ------ ------<br>--- ----- -- ----,136398.59999996424,136393.5,135991.09,136004.39999997616,136007.764,136407.94,,44,you
screen,html.Screen,2_1_0_1_45,2022-05-09T13:28:54.024Z,,,,,,,,,,,,,,,,,53,,,,,,,,,,,,,,452.35999995231396,,response,,,,99,,,,,,,Space,keypress(Space),,,,,,,,---- -- ----- -- ------ - ------- --- ----------<br>------------- ------ ------ ---- ---- ------- ----- -- ----<br>-------- ------- -- ---------- --- - --- ----- ----- ----<br>---- --- --- ----- --- ---- ---- ------- ----- ---- -------<br>--- --- -- ----- -- --- want -- --- ---- -- ------ ------<br>--- ----- -- ----,136867.29999995232,136860.29999995232,136391.266,136398.69999998808,136407.94,136874.812,,45,want
screen,html.Screen,2_1_0_1_46,2022-05-09T13:28:54.400Z,,,,,,,,,,,,,,,,,53,,,,,,,,,,,,,,363.5879999761528,,response,,,,99,,,,,,,Space,keypress(Space),,,,,,,,---- -- ----- -- ------ - ------- --- ----------<br>------------- ------ ------ ---- ---- ------- ----- -- ----<br>-------- ------- -- ---------- --- - --- ----- ----- ----<br>---- --- --- ----- --- ---- ---- ------- ----- ---- -------<br>--- --- -- ----- -- --- ---- to --- ---- -- ------ ------<br>--- ----- -- ----,137243.19999998808,137238.39999997616,136858.138,136867.39999997616,136874.812,137258.314,,46,to
screen,html.Screen,2_1_0_1_47,2022-05-09T13:28:54.713Z,,,,,,,,,,,,,,,,,53,,,,,,,,,,,,,,292.98599995230325,,response,,,,99,,,,,,,Space,keypress(Space),,,,,,,,"---- -- ----- -- ------ - ------- --- ----------<br>------------- ------ ------ ---- ---- ------- ----- -- ----<br>-------- ------- -- ---------- --- - --- ----- ----- ----<br>---- --- --- ----- --- ---- ---- ------- ----- ---- -------<br>--- --- -- ----- -- --- ---- -- be, ---- -- ------ ------<br>--- ----- -- ----",137556.19999998808,137551.29999995232,137241.64,137243.19999998808,137258.314,137558.446,,47,"be,"
screen,html.Screen,2_1_0_1_48,2022-05-09T13:28:55.522Z,,,,,,,,,,,,,,,,,53,,,,,,,,,,,,,,801.85399995232,,response,,,,99,,,,,,,Space,keypress(Space),,,,,,,,---- -- ----- -- ------ - ------- --- ----------<br>------------- ------ ------ ---- ---- ------- ----- -- ----<br>-------- ------- -- ---------- --- - --- ----- ----- ----<br>---- --- --- ----- --- ---- ---- ------- ----- ---- -------<br>--- --- -- ----- -- --- ---- -- --- even -- ------ ------<br>--- ----- -- ----,138365.39999997616,138360.29999995232,137541.772,137556.19999998808,137558.446,138375.472,,48,even
screen,html.Screen,2_1_0_1_49,2022-05-09T13:28:55.911Z,,,,,,,,,,,,,,,,,53,,,,,,,,,,,,,,373.9279999761493,,response,,,,99,,,,,,,Space,keypress(Space),,,,,,,,---- -- ----- -- ------ - ------- --- ----------<br>------------- ------ ------ ---- ---- ------- ----- -- ----<br>-------- ------- -- ---------- --- - --- ----- ----- ----<br>---- --- --- ----- --- ---- ---- ------- ----- ---- -------<br>--- --- -- ----- -- --- ---- -- --- ---- if ------ ------<br>--- ----- -- ----,138754.19999998808,138749.39999997616,138358.798,138365.5,138375.472,138758.974,,49,if
screen,html.Screen,2_1_0_1_50,2022-05-09T13:28:56.220Z,,,,,,,,,,,,,,,,,53,,,,,,,,,,,,,,299.32599995232886,,response,,,,99,,,,,,,Space,keypress(Space),,,,,,,,---- -- ----- -- ------ - ------- --- ----------<br>------------- ------ ------ ---- ---- ------- ----- -- ----<br>-------- ------- -- ---------- --- - --- ----- ----- ----<br>---- --- --- ----- --- ---- ---- ------- ----- ---- -------<br>--- --- -- ----- -- --- ---- -- --- ---- -- that's ------<br>--- ----- -- ----,139063.29999995232,139058.29999995232,138742.3,138754.29999995232,138758.974,139075.78,,50,that's
screen,html.Screen,2_1_0_1_51,2022-05-09T13:28:56.727Z,,,,,,,,,,,,,,,,,53,,,,,,,,,,,,,,489.6199999761593,,response,,,,99,,,,,,,Space,keypress(Space),,,,,,,,---- -- ----- -- ------ - ------- --- ----------<br>------------- ------ ------ ---- ---- ------- ----- -- ----<br>-------- ------- -- ---------- --- - --- ----- ----- ----<br>---- --- --- ----- --- ---- ---- ------- ----- ---- -------<br>--- --- -- ----- -- --- ---- -- --- ---- -- ------ really<br>--- ----- -- ----,139570.39999997616,139565.39999997616,139059.106,139063.39999997616,139075.78,139576,,51,really
screen,html.Screen,2_1_0_1_52,2022-05-09T13:28:57.196Z,,,,,,,,,,,,,,,,,53,,,,,,,,,,,,,,457.2999999523163,,response,,,,99,,,,,,,Space,keypress(Space),,,,,,,,---- -- ----- -- ------ - ------- --- ----------<br>------------- ------ ------ ---- ---- ------- ----- -- ----<br>-------- ------- -- ---------- --- - --- ----- ----- ----<br>---- --- --- ----- --- ---- ---- ------- ----- ---- -------<br>--- --- -- ----- -- --- ---- -- --- ---- -- ------ ------<br>not ----- -- ----,140038.69999998808,140033.29999995232,139559.326,139570.59999996424,139576,140043.213,,52,not
screen,html.Screen,2_1_0_1_53,2022-05-09T13:28:57.493Z,,,,,,,,,,,,,,,,,53,,,,,,,,,,,,,,288.08699995232746,,response,,,,99,,,,,,,Space,keypress(Space),,,,,,,,---- -- ----- -- ------ - ------- --- ----------<br>------------- ------ ------ ---- ---- ------- ----- -- ----<br>-------- ------- -- ---------- --- - --- ----- ----- ----<br>---- --- --- ----- --- ---- ---- ------- ----- ---- -------<br>--- --- -- ----- -- --- ---- -- --- ---- -- ------ ------<br>--- close -- ----,140336.39999997616,140331.29999995232,140026.539,140038.79999995232,140043.213,140343.345,,53,close
screen,html.Screen,2_1_0_1_54,2022-05-09T13:28:57.864Z,,,,,,,,,,,,,,,,,53,,,,,,,,,,,,,,358.8549999880779,,response,,,,99,,,,,,,Space,keypress(Space),,,,,,,,---- -- ----- -- ------ - ------- --- ----------<br>------------- ------ ------ ---- ---- ------- ----- -- ----<br>-------- ------- -- ---------- --- - --- ----- ----- ----<br>---- --- --- ----- --- ---- ---- ------- ----- ---- -------<br>--- --- -- ----- -- --- ---- -- --- ---- -- ------ ------<br>--- ----- at ----,140707.09999996424,140702.19999998808,140326.671,140336.39999997616,140343.345,140710.173,,54,at
screen,html.Screen,2_1_0_1_55,2022-05-09T13:28:58.544Z,,,,,,,,,,,,,,,,,53,,,,,,,,,,,,,,672.9269999642274,,response,,,,99,,,,,,,Space,keypress(Space),,,,,,,,---- -- ----- -- ------ - ------- --- ----------<br>------------- ------ ------ ---- ---- ------- ----- -- ----<br>-------- ------- -- ---------- --- - --- ----- ----- ----<br>---- --- --- ----- --- ---- ---- ------- ----- ---- -------<br>--- --- -- ----- -- --- ---- -- --- ---- -- ------ ------<br>--- ----- -- all.,141387,141383.09999996424,140693.499,140707.09999996424,140710.173,141393.807,,55,all.
Item 99,flow.Loop,2_1_0_1,2022-05-09T13:28:58.544Z,,,,,,,,,,,,,,,,,,,,,,,,,,,,,,,22767.02099996424,,completion,,,,,F,,,,,,,,,,,silence,,,,,141387.29999995232,141383.09999996424,118599.405,118603.19999998808,118616.079,141393.807,,,
Question 1,html.Screen,2_1_0_2,2022-05-09T13:29:04.897Z,,,,,,,,,,,,,,,,,,,,,,,,,,,,true,FALSE,,6327.492999952316,,response,,,,99,F,,,,,,FALSE,click #choice-2,,,,silence,,,,,147739.5,147721.29999995232,141377.133,141387.29999995232,141393.807,147746.601,,,
Question 2,html.Screen,2_1_0_3,2022-05-09T13:29:12.496Z,,,,,,,,,,,,,,,,,,,,,,,,,,,,true,TRUE,,7573.698999952321,,response,,,,99,F,,,,,,TRUE,click #choice-1,,,,silence,,,,,155338.39999997616,155320.29999995232,147729.927,147739.59999996424,147746.601,155350.305,,,
Item 99,flow.Sequence,2_1_0,2022-05-09T13:29:12.496Z,,,,,,,,,,,,,,,,,,,,,,,,,,,,,,,46709.44699995231,,completion,,,,,,,,,,,,,,,,,,,,,155338.59999996424,155320.29999995232,108594.179,108601.39999997616,108610.853,155350.305,,,
Holding screen,html.Screen,2_1_1_0,2022-05-09T13:29:22.497Z,,,,,,,,,,,,,,,,,,,,,,,,,,,,,,,10004.757000000012,,timeout,,,,,,,,,,,,,,,,,,,,,165339.69999998808,165338.388,155333.631,155338.69999998808,155350.305,165355.062,,,
screen,html.Screen,2_1_1_1_0,2022-05-09T13:29:23.243Z,,,,,,,,,,,,,,,,,54,,,,,,,,,,,,,,722.1379999880737,,response,,,,100,,,,,,,Space,keypress(Space),,,,,,,,At --- ---- --- ------ ----- ------- ---- -- --- ------- --<br>------- ---------- ------ -- ----- -- ----- -- ---- ------<br>--- ----- --- --- ------ -------- ----- --- ------ ----- --<br>----- ----- ---------- --- --- ------ ------ ---- -- ------<br>------- --- ------ ----- --- ---- ------- -- ---- --- --<br>------- ------,166085.19999998808,166077.19999998808,165338.388,165339.79999995232,165355.062,166088.718,,0,At
screen,html.Screen,2_1_1_1_1,2022-05-09T13:29:23.572Z,,,,,,,,,,,,,,,,,54,,,,,,,,,,,,,,321.18199997616466,,response,,,,100,,,,,,,Space,keypress(Space),,,,,,,,-- the ---- --- ------ ----- ------- ---- -- --- ------- --<br>------- ---------- ------ -- ----- -- ----- -- ---- ------<br>--- ----- --- --- ------ -------- ----- --- ------ ----- --<br>----- ----- ---------- --- --- ------ ------ ---- -- ------<br>------- --- ------ ----- --- ---- ------- -- ---- --- --<br>------- ------,166414.69999998808,166409.89999997616,166072.044,166085.59999996424,166088.718,166422.198,,1,the
screen,html.Screen,2_1_1_1_2,2022-05-09T13:29:23.764Z,,,,,,,,,,,,,,,,,54,,,,,,,,,,,,,,178.70199997615418,,response,,,,100,,,,,,,Space,keypress(Space),,,,,,,,-- --- time --- ------ ----- ------- ---- -- --- ------- --<br>------- ---------- ------ -- ----- -- ----- -- ---- ------<br>--- ----- --- --- ------ -------- ----- --- ------ ----- --<br>----- ----- ---------- --- --- ------ ------ ---- -- ------<br>------- --- ------ ----- --- ---- ------- -- ---- --- --<br>------- ------,166606.69999998808,166600.89999997616,166405.524,166414.79999995232,166422.198,166622.286,,2,time
screen,html.Screen,2_1_1_1_3,2022-05-09T13:29:24.092Z,,,,,,,,,,,,,,,,,54,,,,,,,,,,,,,,307.7140000000072,,response,,,,100,,,,,,,Space,keypress(Space),,,,,,,,-- --- ---- the ------ ----- ------- ---- -- --- ------- --<br>------- ---------- ------ -- ----- -- ----- -- ---- ------<br>--- ----- --- --- ------ -------- ----- --- ------ ----- --<br>----- ----- ---------- --- --- ------ ------ ---- -- ------<br>------- --- ------ ----- --- ---- ------- -- ---- --- --<br>------- ------,166934.69999998808,166930,166605.612,166606.69999998808,166622.286,166939.092,,3,the
screen,html.Screen,2_1_1_1_4,2022-05-09T13:29:24.473Z,,,,,,,,,,,,,,,,,54,,,,,,,,,,,,,,370.9079999999958,,response,,,,100,,,,,,,Space,keypress(Space),,,,,,,,-- --- ---- --- French ----- ------- ---- -- --- ------- --<br>------- ---------- ------ -- ----- -- ----- -- ---- ------<br>--- ----- --- --- ------ -------- ----- --- ------ ----- --<br>----- ----- ---------- --- --- ------ ------ ---- -- ------<br>------- --- ------ ----- --- ---- ------- -- ---- --- --<br>------- ------,167314.89999997616,167310,166922.418,166934.89999997616,166939.092,167322.594,,4,French
screen,html.Screen,2_1_1_1_5,2022-05-09T13:29:24.694Z,,,,,,,,,,,,,,,,,54,,,,,,,,,,,,,,208.2059999523044,,response,,,,100,,,,,,,Space,keypress(Space),,,,,,,,-- --- ---- --- ------ crown ------- ---- -- --- ------- --<br>------- ---------- ------ -- ----- -- ----- -- ---- ------<br>--- ----- --- --- ------ -------- ----- --- ------ ----- --<br>----- ----- ---------- --- --- ------ ------ ---- -- ------<br>------- --- ------ ----- --- ---- ------- -- ---- --- --<br>------- ------,167535.89999997616,167530.79999995232,167305.92,167315,167322.594,167539.356,,5,crown
screen,html.Screen,2_1_1_1_6,2022-05-09T13:29:24.974Z,,,,,,,,,,,,,,,,,54,,,,,,,,,,,,,,270.5439999761584,,response,,,,100,,,,,,,Space,keypress(Space),,,,,,,,-- --- ---- --- ------ ----- secured ---- -- --- ------- --<br>------- ---------- ------ -- ----- -- ----- -- ---- ------<br>--- ----- --- --- ------ -------- ----- --- ------ ----- --<br>----- ----- ---------- --- --- ------ ------ ---- -- ------<br>------- --- ------ ----- --- ---- ------- -- ---- --- --<br>------- ------,167816,167809.89999997616,167522.682,167536,167539.356,167822.814,,6,secured
screen,html.Screen,2_1_1_1_7,2022-05-09T13:29:25.399Z,,,,,,,,,,,,,,,,,54,,,,,,,,,,,,,,412.98599995230325,,response,,,,100,,,,,,,Space,keypress(Space),,,,,,,,-- --- ---- --- ------ ----- ------- much -- --- ------- --<br>------- ---------- ------ -- ----- -- ----- -- ---- ------<br>--- ----- --- --- ------ -------- ----- --- ------ ----- --<br>----- ----- ---------- --- --- ------ ------ ---- -- ------<br>------- --- ------ ----- --- ---- ------- -- ---- --- --<br>------- ------,168240.89999997616,168235.79999995232,167806.14,167816.19999998808,167822.814,168256.338,,7,much
screen,html.Screen,2_1_1_1_8,2022-05-09T13:29:25.774Z,,,,,,,,,,,,,,,,,54,,,,,,,,,,,,,,355.46199995232746,,response,,,,100,,,,,,,Space,keypress(Space),,,,,,,,-- --- ---- --- ------ ----- ------- ---- of --- ------- --<br>------- ---------- ------ -- ----- -- ----- -- ---- ------<br>--- ----- --- --- ------ -------- ----- --- ------ ----- --<br>----- ----- ---------- --- --- ------ ------ ---- -- ------<br>------- --- ------ ----- --- ---- ------- -- ---- --- --<br>------- ------,168616.59999996424,168611.79999995232,168239.664,168241.09999996424,168256.338,168623.166,,8,of
screen,html.Screen,2_1_1_1_9,2022-05-09T13:29:26.100Z,,,,,,,,,,,,,,,,,54,,,,,,,,,,,,,,313.7339999761607,,response,,,,100,,,,,,,Space,keypress(Space),,,,,,,,-- --- ---- --- ------ ----- ------- ---- -- its ------- --<br>------- ---------- ------ -- ----- -- ----- -- ---- ------<br>--- ----- --- --- ------ -------- ----- --- ------ ----- --<br>----- ----- ---------- --- --- ------ ------ ---- -- ------<br>------- --- ------ ----- --- ---- ------- -- ---- --- --<br>------- ------,168942.29999995232,168936.89999997616,168606.492,168616.79999995232,168623.166,168956.646,,9,its
screen,html.Screen,2_1_1_1_10,2022-05-09T13:29:26.451Z,,,,,,,,,,,,,,,,,54,,,,,,,,,,,,,,331.15399995230837,,response,,,,100,,,,,,,Space,keypress(Space),,,,,,,,-- --- ---- --- ------ ----- ------- ---- -- --- revenue --<br>------- ---------- ------ -- ----- -- ----- -- ---- ------<br>--- ----- --- --- ------ -------- ----- --- ------ ----- --<br>----- ----- ---------- --- --- ------ ------ ---- -- ------<br>------- --- ------ ----- --- ---- ------- -- ---- --- --<br>------- ------,169292.69999998808,169287.79999995232,168939.972,168942.39999997616,168956.646,169306.8,,10,revenue
screen,html.Screen,2_1_1_1_11,2022-05-09T13:29:26.881Z,,,,,,,,,,,,,,,,,54,,,,,,,,,,,,,,410.8999999880907,,response,,,,100,,,,,,,Space,keypress(Space),,,,,,,,-- --- ---- --- ------ ----- ------- ---- -- --- ------- by<br>------- ---------- ------ -- ----- -- ----- -- ---- ------<br>--- ----- --- --- ------ -------- ----- --- ------ ----- --<br>----- ----- ---------- --- --- ------ ------ ---- -- ------<br>------- --- ------ ----- --- ---- ------- -- ---- --- --<br>------- ------,169722.79999995232,169717.69999998808,169290.126,169292.79999995232,169306.8,169723.65,,11,by
screen,html.Screen,2_1_1_1_12,2022-05-09T13:29:27.257Z,,,,,,,,,,,,,,,,,54,,,,,,,,,,,,,,370.0499999880849,,response,,,,100,,,,,,,Space,keypress(Space),,,,,,,,-- --- ---- --- ------ ----- ------- ---- -- --- ------- --<br>issuing ---------- ------ -- ----- -- ----- -- ---- ------<br>--- ----- --- --- ------ -------- ----- --- ------ ----- --<br>----- ----- ---------- --- --- ------ ------ ---- -- ------<br>------- --- ------ ----- --- ---- ------- -- ---- --- --<br>------- ------,170099.09999996424,170093.69999998808,169706.976,169722.89999997616,169723.65,170107.152,,12,issuing
screen,html.Screen,2_1_1_1_13,2022-05-09T13:29:27.595Z,,,,,,,,,,,,,,,,,54,,,,,,,,,,,,,,325.5479999880772,,response,,,,100,,,,,,,Space,keypress(Space),,,,,,,,-- --- ---- --- ------ ----- ------- ---- -- --- ------- --<br>------- government ------ -- ----- -- ----- -- ---- ------<br>--- ----- --- --- ------ -------- ----- --- ------ ----- --<br>----- ----- ---------- --- --- ------ ------ ---- -- ------<br>------- --- ------ ----- --- ---- ------- -- ---- --- --<br>------- ------,170437.29999995232,170432.69999998808,170090.478,170099.19999998808,170107.152,170440.632,,13,government
screen,html.Screen,2_1_1_1_14,2022-05-09T13:29:27.961Z,,,,,,,,,,,,,,,,,54,,,,,,,,,,,,,,357.9679999642249,,response,,,,100,,,,,,,Space,keypress(Space),,,,,,,,-- --- ---- --- ------ ----- ------- ---- -- --- ------- --<br>------- ---------- bonds. -- ----- -- ----- -- ---- ------<br>--- ----- --- --- ------ -------- ----- --- ------ ----- --<br>----- ----- ---------- --- --- ------ ------ ---- -- ------<br>------- --- ------ ----- --- ---- ------- -- ---- --- --<br>------- ------,170803.69999998808,170798.59999996424,170423.958,170437.29999995232,170440.632,170807.46,,14,bonds.
screen,html.Screen,2_1_1_1_15,2022-05-09T13:29:28.393Z,,,,,,,,,,,,,,,,,54,,,,,,,,,,,,,,423.13999996424536,,response,,,,100,,,,,,,Space,keypress(Space),,,,,,,,-- --- ---- --- ------ ----- ------- ---- -- --- ------- --<br>------- ---------- ------ In ----- -- ----- -- ---- ------<br>--- ----- --- --- ------ -------- ----- --- ------ ----- --<br>----- ----- ---------- --- --- ------ ------ ---- -- ------<br>------- --- ------ ----- --- ---- ------- -- ---- --- --<br>------- ------,171235.39999997616,171230.59999996424,170790.786,170803.69999998808,170807.46,171241.324,,15,In
screen,html.Screen,2_1_1_1_16,2022-05-09T13:29:28.814Z,,,,,,,,,,,,,,,,,54,,,,,,,,,,,,,,410.27599996424397,,response,,,,100,,,,,,,Space,keypress(Space),,,,,,,,"-- --- ---- --- ------ ----- ------- ---- -- --- ------- --<br>------- ---------- ------ -- 1727, -- ----- -- ---- ------<br>--- ----- --- --- ------ -------- ----- --- ------ ----- --<br>----- ----- ---------- --- --- ------ ------ ---- -- ------<br>------- --- ------ ----- --- ---- ------- -- ---- --- --<br>------- ------",171656.29999995232,171651.59999996424,171224.65,171235.39999997616,171241.324,171658.174,,16,"1727,"
screen,html.Screen,2_1_1_1_17,2022-05-09T13:29:29.331Z,,,,,,,,,,,,,,,,,54,,,,,,,,,,,,,,509.52599998808,,response,,,,100,,,,,,,Space,keypress(Space),,,,,,,,-- --- ---- --- ------ ----- ------- ---- -- --- ------- --<br>------- ---------- ------ -- ----- in ----- -- ---- ------<br>--- ----- --- --- ------ -------- ----- --- ------ ----- --<br>----- ----- ---------- --- --- ------ ------ ---- -- ------<br>------- --- ------ ----- --- ---- ------- -- ---- --- --<br>------- ------,172173,172167.69999998808,171641.5,171656.39999997616,171658.174,172175.068,,17,in
screen,html.Screen,2_1_1_1_18,2022-05-09T13:29:29.755Z,,,,,,,,,,,,,,,,,54,,,,,,,,,,,,,,416.5319999642379,,response,,,,100,,,,,,,Space,keypress(Space),,,,,,,,-- --- ---- --- ------ ----- ------- ---- -- --- ------- --<br>------- ---------- ------ -- ----- -- order -- ---- ------<br>--- ----- --- --- ------ -------- ----- --- ------ ----- --<br>----- ----- ---------- --- --- ------ ------ ---- -- ------<br>------- --- ------ ----- --- ---- ------- -- ---- --- --<br>------- ------,172597.09999996424,172591.59999996424,172158.394,172173.09999996424,172175.068,172608.592,,18,order
screen,html.Screen,2_1_1_1_19,2022-05-09T13:29:30.025Z,,,,,,,,,,,,,,,,,54,,,,,,,,,,,,,,254.9079999999958,,response,,,,100,,,,,,,Space,keypress(Space),,,,,,,,-- --- ---- --- ------ ----- ------- ---- -- --- ------- --<br>------- ---------- ------ -- ----- -- ----- to ---- ------<br>--- ----- --- --- ------ -------- ----- --- ------ ----- --<br>----- ----- ---------- --- --- ------ ------ ---- -- ------<br>------- --- ------ ----- --- ---- ------- -- ---- --- --<br>------- ------,172867.39999997616,172863.5,172591.918,172597.19999998808,172608.592,172875.376,,19,to
screen,html.Screen,2_1_1_1_20,2022-05-09T13:29:30.363Z,,,,,,,,,,,,,,,,,54,,,,,,,,,,,,,,325.2239999642479,,response,,,,100,,,,,,,Space,keypress(Space),,,,,,,,-- --- ---- --- ------ ----- ------- ---- -- --- ------- --<br>------- ---------- ------ -- ----- -- ----- -- save ------<br>--- ----- --- --- ------ -------- ----- --- ------ ----- --<br>----- ----- ---------- --- --- ------ ------ ---- -- ------<br>------- --- ------ ----- --- ---- ------- -- ---- --- --<br>------- ------,173205.39999997616,173200.59999996424,172858.702,172868.19999998808,172875.376,173208.856,,20,save
screen,html.Screen,2_1_1_1_21,2022-05-09T13:29:30.725Z,,,,,,,,,,,,,,,,,54,,,,,,,,,,,,,,353.64400000000023,,response,,,,100,,,,,,,Space,keypress(Space),,,,,,,,"-- --- ---- --- ------ ----- ------- ---- -- --- ------- --<br>------- ---------- ------ -- ----- -- ----- -- ---- money,<br>--- ----- --- --- ------ -------- ----- --- ------ ----- --<br>----- ----- ---------- --- --- ------ ------ ---- -- ------<br>------- --- ------ ----- --- ---- ------- -- ---- --- --<br>------- ------",173567.59999996424,173562.5,173192.182,173205.5,173208.856,173575.684,,21,"money,"
screen,html.Screen,2_1_1_1_22,2022-05-09T13:29:31.076Z,,,,,,,,,,,,,,,,,54,,,,,,,,,,,,,,335.91599996422883,,response,,,,100,,,,,,,Space,keypress(Space),,,,,,,,-- --- ---- --- ------ ----- ------- ---- -- --- ------- --<br>------- ---------- ------ -- ----- -- ----- -- ---- ------<br>the ----- --- --- ------ -------- ----- --- ------ ----- --<br>----- ----- ---------- --- --- ------ ------ ---- -- ------<br>------- --- ------ ----- --- ---- ------- -- ---- --- --<br>------- ------,173918.29999995232,173911.59999996424,173559.01,173567.59999996424,173575.684,173925.838,,22,the
screen,html.Screen,2_1_1_1_23,2022-05-09T13:29:31.406Z,,,,,,,,,,,,,,,,,54,,,,,,,,,,,,,,316.7619999642484,,response,,,,100,,,,,,,Space,keypress(Space),,,,,,,,-- --- ---- --- ------ ----- ------- ---- -- --- ------- --<br>------- ---------- ------ -- ----- -- ----- -- ---- ------<br>--- state --- --- ------ -------- ----- --- ------ ----- --<br>----- ----- ---------- --- --- ------ ------ ---- -- ------<br>------- --- ------ ----- --- ---- ------- -- ---- --- --<br>------- ------,174247.59999996424,174242.59999996424,173909.164,173918.5,173925.838,174259.318,,23,state
screen,html.Screen,2_1_1_1_24,2022-05-09T13:29:31.751Z,,,,,,,,,,,,,,,,,54,,,,,,,,,,,,,,328.1820000000007,,response,,,,100,,,,,,,Space,keypress(Space),,,,,,,,-- --- ---- --- ------ ----- ------- ---- -- --- ------- --<br>------- ---------- ------ -- ----- -- ----- -- ---- ------<br>--- ----- cut --- ------ -------- ----- --- ------ ----- --<br>----- ----- ---------- --- --- ------ ------ ---- -- ------<br>------- --- ------ ----- --- ---- ------- -- ---- --- --<br>------- ------,174593.19999998808,174587.5,174242.644,174247.69999998808,174259.318,174609.472,,24,cut
screen,html.Screen,2_1_1_1_25,2022-05-09T13:29:32.070Z,,,,,,,,,,,,,,,,,54,,,,,,,,,,,,,,296.82799995230744,,response,,,,100,,,,,,,Space,keypress(Space),,,,,,,,-- --- ---- --- ------ ----- ------- ---- -- --- ------- --<br>------- ---------- ------ -- ----- -- ----- -- ---- ------<br>--- ----- --- the ------ -------- ----- --- ------ ----- --<br>----- ----- ---------- --- --- ------ ------ ---- -- ------<br>------- --- ------ ----- --- ---- ------- -- ---- --- --<br>------- ------,174912.19999998808,174906.29999995232,174592.798,174593.29999995232,174609.472,174926.278,,25,the
screen,html.Screen,2_1_1_1_26,2022-05-09T13:29:32.389Z,,,,,,,,,,,,,,,,,54,,,,,,,,,,,,,,300.22200000000885,,response,,,,100,,,,,,,Space,keypress(Space),,,,,,,,-- --- ---- --- ------ ----- ------- ---- -- --- ------- --<br>------- ---------- ------ -- ----- -- ----- -- ---- ------<br>--- ----- --- --- bonds' -------- ----- --- ------ ----- --<br>----- ----- ---------- --- --- ------ ------ ---- -- ------<br>------- --- ------ ----- --- ---- ------- -- ---- --- --<br>------- ------,175231.29999995232,175226.5,174909.604,174912.29999995232,174926.278,175243.084,,26,bonds'
screen,html.Screen,2_1_1_1_27,2022-05-09T13:29:32.752Z,,,,,,,,,,,,,,,,,54,,,,,,,,,,,,,,346.41599999999744,,response,,,,100,,,,,,,Space,keypress(Space),,,,,,,,-- --- ---- --- ------ ----- ------- ---- -- --- ------- --<br>------- ---------- ------ -- ----- -- ----- -- ---- ------<br>--- ----- --- --- ------ interest ----- --- ------ ----- --<br>----- ----- ---------- --- --- ------ ------ ---- -- ------<br>------- --- ------ ----- --- ---- ------- -- ---- --- --<br>------- ------,175594.39999997616,175589.5,175226.41,175231.39999997616,175243.084,175609.912,,27,interest
screen,html.Screen,2_1_1_1_28,2022-05-09T13:29:33.101Z,,,,,,,,,,,,,,,,,54,,,,,,,,,,,,,,328.5879999999888,,response,,,,100,,,,,,,Space,keypress(Space),,,,,,,,-- --- ---- --- ------ ----- ------- ---- -- --- ------- --<br>------- ---------- ------ -- ----- -- ----- -- ---- ------<br>--- ----- --- --- ------ -------- rate. --- ------ ----- --<br>----- ----- ---------- --- --- ------ ------ ---- -- ------<br>------- --- ------ ----- --- ---- ------- -- ---- --- --<br>------- ------,175943.39999997616,175938.5,175593.238,175594.39999997616,175609.912,175960.066,,28,rate.
screen,html.Screen,2_1_1_1_29,2022-05-09T13:29:33.915Z,,,,,,,,,,,,,,,,,54,,,,,,,,,,,,,,792.2339999523247,,response,,,,100,,,,,,,Space,keypress(Space),,,,,,,,-- --- ---- --- ------ ----- ------- ---- -- --- ------- --<br>------- ---------- ------ -- ----- -- ----- -- ---- ------<br>--- ----- --- --- ------ -------- ----- The ------ ----- --<br>----- ----- ---------- --- --- ------ ------ ---- -- ------<br>------- --- ------ ----- --- ---- ------- -- ---- --- --<br>------- ------,176757.19999998808,176752.29999995232,175943.392,175943.69999998808,175960.066,176760.418,,29,The
screen,html.Screen,2_1_1_1_30,2022-05-09T13:29:34.412Z,,,,,,,,,,,,,,,,,54,,,,,,,,,,,,,,488.981999976153,,response,,,,100,,,,,,,Space,keypress(Space),,,,,,,,-- --- ---- --- ------ ----- ------- ---- -- --- ------- --<br>------- ---------- ------ -- ----- -- ----- -- ---- ------<br>--- ----- --- --- ------ -------- ----- --- market ----- --<br>----- ----- ---------- --- --- ------ ------ ---- -- ------<br>------- --- ------ ----- --- ---- ------- -- ---- --- --<br>------- ------,177254.19999998808,177249.39999997616,176743.744,176757.19999998808,176760.418,177260.638,,30,market
screen,html.Screen,2_1_1_1_31,2022-05-09T13:29:34.753Z,,,,,,,,,,,,,,,,,54,,,,,,,,,,,,,,328.66199995231,,response,,,,100,,,,,,,Space,keypress(Space),,,,,,,,-- --- ---- --- ------ ----- ------- ---- -- --- ------- --<br>------- ---------- ------ -- ----- -- ----- -- ---- ------<br>--- ----- --- --- ------ -------- ----- --- ------ value --<br>----- ----- ---------- --- --- ------ ------ ---- -- ------<br>------- --- ------ ----- --- ---- ------- -- ---- --- --<br>------- ------,177594.69999998808,177589.29999995232,177243.964,177254.19999998808,177260.638,177610.792,,31,value
screen,html.Screen,2_1_1_1_32,2022-05-09T13:29:35.109Z,,,,,,,,,,,,,,,,,54,,,,,,,,,,,,,,333.50799995232956,,response,,,,100,,,,,,,Space,keypress(Space),,,,,,,,-- --- ---- --- ------ ----- ------- ---- -- --- ------- --<br>------- ---------- ------ -- ----- -- ----- -- ---- ------<br>--- ----- --- --- ------ -------- ----- --- ------ ----- of<br>----- ----- ---------- --- --- ------ ------ ---- -- ------<br>------- --- ------ ----- --- ---- ------- -- ---- --- --<br>------- ------,177950.79999995232,177944.29999995232,177594.118,177594.69999998808,177610.792,177960.946,,32,of
screen,html.Screen,2_1_1_1_33,2022-05-09T13:29:35.507Z,,,,,,,,,,,,,,,,,54,,,,,,,,,,,,,,383.2539999880828,,response,,,,100,,,,,,,Space,keypress(Space),,,,,,,,-- --- ---- --- ------ ----- ------- ---- -- --- ------- --<br>------- ---------- ------ -- ----- -- ----- -- ---- ------<br>--- ----- --- --- ------ -------- ----- --- ------ ----- --<br>these ----- ---------- --- --- ------ ------ ---- -- ------<br>------- --- ------ ----- --- ---- ------- -- ---- --- --<br>------- ------,178349.5,178344.19999998808,177944.272,177951.79999995232,177960.946,178361.122,,33,these
screen,html.Screen,2_1_1_1_34,2022-05-09T13:29:35.693Z,,,,,,,,,,,,,,,,,54,,,,,,,,,,,,,,169.17799995231326,,response,,,,100,,,,,,,Space,keypress(Space),,,,,,,,-- --- ---- --- ------ ----- ------- ---- -- --- ------- --<br>------- ---------- ------ -- ----- -- ----- -- ---- ------<br>--- ----- --- --- ------ -------- ----- --- ------ ----- --<br>----- bonds ---------- --- --- ------ ------ ---- -- ------<br>------- --- ------ ----- --- ---- ------- -- ---- --- --<br>------- ------,178534.79999995232,178530.29999995232,178344.448,178349.59999996424,178361.122,178544.536,,34,bonds
screen,html.Screen,2_1_1_1_35,2022-05-09T13:29:35.970Z,,,,,,,,,,,,,,,,,54,,,,,,,,,,,,,,262.6639999880863,,response,,,,100,,,,,,,Space,keypress(Space),,,,,,,,"-- --- ---- --- ------ ----- ------- ---- -- --- ------- --<br>------- ---------- ------ -- ----- -- ----- -- ---- ------<br>--- ----- --- --- ------ -------- ----- --- ------ ----- --<br>----- ----- plummeted, --- --- ------ ------ ---- -- ------<br>------- --- ------ ----- --- ---- ------- -- ---- --- --<br>------- ------",178812.29999995232,178807.19999998808,178527.862,178535,178544.536,178827.994,,35,"plummeted,"
screen,html.Screen,2_1_1_1_36,2022-05-09T13:29:36.490Z,,,,,,,,,,,,,,,,,54,,,,,,,,,,,,,,498.30599995231023,,response,,,,100,,,,,,,Space,keypress(Space),,,,,,,,-- --- ---- --- ------ ----- ------- ---- -- --- ------- --<br>------- ---------- ------ -- ----- -- ----- -- ---- ------<br>--- ----- --- --- ------ -------- ----- --- ------ ----- --<br>----- ----- ---------- and --- ------ ------ ---- -- ------<br>------- --- ------ ----- --- ---- ------- -- ---- --- --<br>------- ------,179331.59999996424,179326.29999995232,178811.32,178812.39999997616,178827.994,179344.888,,36,and
screen,html.Screen,2_1_1_1_37,2022-05-09T13:29:36.945Z,,,,,,,,,,,,,,,,,54,,,,,,,,,,,,,,437.3119999880728,,response,,,,100,,,,,,,Space,keypress(Space),,,,,,,,-- --- ---- --- ------ ----- ------- ---- -- --- ------- --<br>------- ---------- ------ -- ----- -- ----- -- ---- ------<br>--- ----- --- --- ------ -------- ----- --- ------ ----- --<br>----- ----- ---------- --- the ------ ------ ---- -- ------<br>------- --- ------ ----- --- ---- ------- -- ---- --- --<br>------- ------,179787.19999998808,179782.19999998808,179328.214,179331.69999998808,179344.888,179795.086,,37,the
screen,html.Screen,2_1_1_1_38,2022-05-09T13:29:37.198Z,,,,,,,,,,,,,,,,,54,,,,,,,,,,,,,,239.11399998806883,,response,,,,100,,,,,,,Space,keypress(Space),,,,,,,,-- --- ---- --- ------ ----- ------- ---- -- --- ------- --<br>------- ---------- ------ -- ----- -- ----- -- ---- ------<br>--- ----- --- --- ------ -------- ----- --- ------ ----- --<br>----- ----- ---------- --- --- market ------ ---- -- ------<br>------- --- ------ ----- --- ---- ------- -- ---- --- --<br>------- ------,180039.5,180034.19999998808,179778.412,179787.19999998808,179795.086,180045.196,,38,market
screen,html.Screen,2_1_1_1_39,2022-05-09T13:29:37.542Z,,,,,,,,,,,,,,,,,54,,,,,,,,,,,,,,333.0039999880828,,response,,,,100,,,,,,,Space,keypress(Space),,,,,,,,-- --- ---- --- ------ ----- ------- ---- -- --- ------- --<br>------- ---------- ------ -- ----- -- ----- -- ---- ------<br>--- ----- --- --- ------ -------- ----- --- ------ ----- --<br>----- ----- ---------- --- --- ------ became ---- -- ------<br>------- --- ------ ----- --- ---- ------- -- ---- --- --<br>------- ------,180383.89999997616,180378.19999998808,180028.522,180039.5,180045.196,180395.35,,39,became
screen,html.Screen,2_1_1_1_40,2022-05-09T13:29:37.952Z,,,,,,,,,,,,,,,,,54,,,,,,,,,,,,,,393.7499999642314,,response,,,,100,,,,,,,Space,keypress(Space),,,,,,,,-- --- ---- --- ------ ----- ------- ---- -- --- ------- --<br>------- ---------- ------ -- ----- -- ----- -- ---- ------<br>--- ----- --- --- ------ -------- ----- --- ------ ----- --<br>----- ----- ---------- --- --- ------ ------ wary -- ------<br>------- --- ------ ----- --- ---- ------- -- ---- --- --<br>------- ------,180793.69999998808,180789.09999996424,180378.676,180384.09999996424,180395.35,180795.526,,40,wary
screen,html.Screen,2_1_1_1_41,2022-05-09T13:29:38.314Z,,,,,,,,,,,,,,,,,54,,,,,,,,,,,,,,355.6739999880665,,response,,,,100,,,,,,,Space,keypress(Space),,,,,,,,-- --- ---- --- ------ ----- ------- ---- -- --- ------- --<br>------- ---------- ------ -- ----- -- ----- -- ---- ------<br>--- ----- --- --- ------ -------- ----- --- ------ ----- --<br>----- ----- ---------- --- --- ------ ------ ---- of ------<br>------- --- ------ ----- --- ---- ------- -- ---- --- --<br>------- ------,181155.89999997616,181151.19999998808,180778.852,180793.79999995232,180795.526,181162.354,,41,of
screen,html.Screen,2_1_1_1_42,2022-05-09T13:29:38.611Z,,,,,,,,,,,,,,,,,54,,,,,,,,,,,,,,284.845999988087,,response,,,,100,,,,,,,Space,keypress(Space),,,,,,,,-- --- ---- --- ------ ----- ------- ---- -- --- ------- --<br>------- ---------- ------ -- ----- -- ----- -- ---- ------<br>--- ----- --- --- ------ -------- ----- --- ------ ----- --<br>----- ----- ---------- --- --- ------ ------ ---- -- French<br>------- --- ------ ----- --- ---- ------- -- ---- --- --<br>------- ------,181452.59999996424,181447.19999998808,181145.68,181156,181162.354,181462.835,,42,French
screen,html.Screen,2_1_1_1_43,2022-05-09T13:29:39.047Z,,,,,,,,,,,,,,,,,54,,,,,,,,,,,,,,419.3649999880872,,response,,,,100,,,,,,,Space,keypress(Space),,,,,,,,-- --- ---- --- ------ ----- ------- ---- -- --- ------- --<br>------- ---------- ------ -- ----- -- ----- -- ---- ------<br>--- ----- --- --- ------ -------- ----- --- ------ ----- --<br>----- ----- ---------- --- --- ------ ------ ---- -- ------<br>credit. --- ------ ----- --- ---- ------- -- ---- --- --<br>------- ------,181888.89999997616,181882.19999998808,181446.161,181452.69999998808,181462.835,181896.359,,43,credit.
screen,html.Screen,2_1_1_1_44,2022-05-09T13:29:39.670Z,,,,,,,,,,,,,,,,,54,,,,,,,,,,,,,,610.6410000000033,,response,,,,100,,,,,,,Space,keypress(Space),,,,,,,,-- --- ---- --- ------ ----- ------- ---- -- --- ------- --<br>------- ---------- ------ -- ----- -- ----- -- ---- ------<br>--- ----- --- --- ------ -------- ----- --- ------ ----- --<br>----- ----- ---------- --- --- ------ ------ ---- -- ------<br>------- The ------ ----- --- ---- ------- -- ---- --- --<br>------- ------,182512,182507,181879.685,181889,181896.359,182513.297,,44,The
screen,html.Screen,2_1_1_1_45,2022-05-09T13:29:40.061Z,,,,,,,,,,,,,,,,,54,,,,,,,,,,,,,,384.9029999880877,,response,,,,100,,,,,,,Space,keypress(Space),,,,,,,,-- --- ---- --- ------ ----- ------- ---- -- --- ------- --<br>------- ---------- ------ -- ----- -- ----- -- ---- ------<br>--- ----- --- --- ------ -------- ----- --- ------ ----- --<br>----- ----- ---------- --- --- ------ ------ ---- -- ------<br>------- --- French ----- --- ---- ------- -- ---- --- --<br>------- ------,182903.19999998808,182898.19999998808,182496.623,182512,182513.297,182913.473,,45,French
screen,html.Screen,2_1_1_1_46,2022-05-09T13:29:40.399Z,,,,,,,,,,,,,,,,,54,,,,,,,,,,,,,,322.6269999642391,,response,,,,100,,,,,,,Space,keypress(Space),,,,,,,,-- --- ---- --- ------ ----- ------- ---- -- --- ------- --<br>------- ---------- ------ -- ----- -- ----- -- ---- ------<br>--- ----- --- --- ------ -------- ----- --- ------ ----- --<br>----- ----- ---------- --- --- ------ ------ ---- -- ------<br>------- --- ------ state --- ---- ------- -- ---- --- --<br>------- ------,183241.19999998808,183236.09999996424,182896.799,182903.19999998808,182913.473,183246.953,,46,state
screen,html.Screen,2_1_1_1_47,2022-05-09T13:29:40.747Z,,,,,,,,,,,,,,,,,54,,,,,,,,,,,,,,336.24699998807046,,response,,,,100,,,,,,,Space,keypress(Space),,,,,,,,-- --- ---- --- ------ ----- ------- ---- -- --- ------- --<br>------- ---------- ------ -- ----- -- ----- -- ---- ------<br>--- ----- --- --- ------ -------- ----- --- ------ ----- --<br>----- ----- ---------- --- --- ------ ------ ---- -- ------<br>------- --- ------ ----- was ---- ------- -- ---- --- --<br>------- ------,183588.39999997616,183583.19999998808,183230.279,183241.29999995232,183246.953,183597.107,,47,was
screen,html.Screen,2_1_1_1_48,2022-05-09T13:29:41.357Z,,,,,,,,,,,,,,,,,54,,,,,,,,,,,,,,595.9929999642482,,response,,,,100,,,,,,,Space,keypress(Space),,,,,,,,-- --- ---- --- ------ ----- ------- ---- -- --- ------- --<br>------- ---------- ------ -- ----- -- ----- -- ---- ------<br>--- ----- --- --- ------ -------- ----- --- ------ ----- --<br>----- ----- ---------- --- --- ------ ------ ---- -- ------<br>------- --- ------ ----- --- left ------- -- ---- --- --<br>------- ------,184198.59999996424,184193.09999996424,183580.433,183588.5,183597.107,184214.045,,48,left
screen,html.Screen,2_1_1_1_49,2022-05-09T13:29:41.603Z,,,,,,,,,,,,,,,,,54,,,,,,,,,,,,,,226.0549999642244,,response,,,,100,,,,,,,Space,keypress(Space),,,,,,,,-- --- ---- --- ------ ----- ------- ---- -- --- ------- --<br>------- ---------- ------ -- ----- -- ----- -- ---- ------<br>--- ----- --- --- ------ -------- ----- --- ------ ----- --<br>----- ----- ---------- --- --- ------ ------ ---- -- ------<br>------- --- ------ ----- --- ---- without -- ---- --- --<br>------- ------,184444.89999997616,184440.09999996424,184197.371,184198.79999995232,184214.045,184447.481,,49,without
screen,html.Screen,2_1_1_1_50,2022-05-09T13:29:41.868Z,,,,,,,,,,,,,,,,,54,,,,,,,,,,,,,,256.51900000000023,,response,,,,100,,,,,,,Space,keypress(Space),,,,,,,,-- --- ---- --- ------ ----- ------- ---- -- --- ------- --<br>------- ---------- ------ -- ----- -- ----- -- ---- ------<br>--- ----- --- --- ------ -------- ----- --- ------ ----- --<br>----- ----- ---------- --- --- ------ ------ ---- -- ------<br>------- --- ------ ----- --- ---- ------- an ---- --- --<br>------- ------,184709.79999995232,184704,184430.807,184444.89999997616,184447.481,184714.265,,50,an
screen,html.Screen,2_1_1_1_51,2022-05-09T13:29:42.241Z,,,,,,,,,,,,,,,,,54,,,,,,,,,,,,,,363.6349999761442,,response,,,,100,,,,,,,Space,keypress(Space),,,,,,,,-- --- ---- --- ------ ----- ------- ---- -- --- ------- --<br>------- ---------- ------ -- ----- -- ----- -- ---- ------<br>--- ----- --- --- ------ -------- ----- --- ------ ----- --<br>----- ----- ---------- --- --- ------ ------ ---- -- ------<br>------- --- ------ ----- --- ---- ------- -- easy --- --<br>------- ------,185082.89999997616,185077.89999997616,184697.591,184710,184714.265,185097.767,,51,easy
screen,html.Screen,2_1_1_1_52,2022-05-09T13:29:42.614Z,,,,,,,,,,,,,,,,,54,,,,,,,,,,,,,,353.1329999761656,,response,,,,100,,,,,,,Space,keypress(Space),,,,,,,,-- --- ---- --- ------ ----- ------- ---- -- --- ------- --<br>------- ---------- ------ -- ----- -- ----- -- ---- ------<br>--- ----- --- --- ------ -------- ----- --- ------ ----- --<br>----- ----- ---------- --- --- ------ ------ ---- -- ------<br>------- --- ------ ----- --- ---- ------- -- ---- way --<br>------- ------,185456.29999995232,185450.89999997616,185081.093,185083,185097.767,185464.595,,52,way
screen,html.Screen,2_1_1_1_53,2022-05-09T13:29:42.979Z,,,,,,,,,,,,,,,,,54,,,,,,,,,,,,,,351.304999976157,,response,,,,100,,,,,,,Space,keypress(Space),,,,,,,,-- --- ---- --- ------ ----- ------- ---- -- --- ------- --<br>------- ---------- ------ -- ----- -- ----- -- ---- ------<br>--- ----- --- --- ------ -------- ----- --- ------ ----- --<br>----- ----- ---------- --- --- ------ ------ ---- -- ------<br>------- --- ------ ----- --- ---- ------- -- ---- --- of<br>------- ------,185821.09999996424,185815.89999997616,185447.921,185456.29999995232,185464.595,185831.423,,53,of
screen,html.Screen,2_1_1_1_54,2022-05-09T13:29:43.338Z,,,,,,,,,,,,,,,,,54,,,,,,,,,,,,,,343.5769999999902,,response,,,,100,,,,,,,Space,keypress(Space),,,,,,,,-- --- ---- --- ------ ----- ------- ---- -- --- ------- --<br>------- ---------- ------ -- ----- -- ----- -- ---- ------<br>--- ----- --- --- ------ -------- ----- --- ------ ----- --<br>----- ----- ---------- --- --- ------ ------ ---- -- ------<br>------- --- ------ ----- --- ---- ------- -- ---- --- --<br>raising ------,186180.19999998808,186175,185814.749,185821.19999998808,185831.423,186181.577,,54,raising
screen,html.Screen,2_1_1_1_55,2022-05-09T13:29:43.703Z,,,,,,,,,,,,,,,,,54,,,,,,,,,,,,,,358.3229999761679,,response,,,,100,,,,,,,Space,keypress(Space),,,,,,,,-- --- ---- --- ------ ----- ------- ---- -- --- ------- --<br>------- ---------- ------ -- ----- -- ----- -- ---- ------<br>--- ----- --- --- ------ -------- ----- --- ------ ----- --<br>----- ----- ---------- --- --- ------ ------ ---- -- ------<br>------- --- ------ ----- --- ---- ------- -- ---- --- --<br>------- money.,186544.59999996424,186539.89999997616,186164.903,186180.29999995232,186181.577,186548.405,,55,money.
Item 100,flow.Loop,2_1_1_1,2022-05-09T13:29:43.703Z,,,,,,,,,,,,,,,,,,,,,,,,,,,,,,,21184.837999976153,,completion,,,,,F,,,,,,,,,,,silence,,,,,186544.89999997616,186539.89999997616,165338.388,165339.79999995232,165355.062,186548.405,,,
Question 1,html.Screen,2_1_1_2,2022-05-09T13:29:47.961Z,,,,,,,,,,,,,,,,,,,,,,,,,,,,true,TRUE,,4233.595000000001,,response,,,,100,F,,,,,,TRUE,click #choice-1,,,,silence,,,,,190802.89999997616,190782,186531.731,186544.89999997616,186548.405,190816.949,,,
Question 2,html.Screen,2_1_1_3,2022-05-09T13:29:50.846Z,,,,,,,,,,,,,,,,,,,,,,,,,,,,true,FALSE,,2859.850999952323,,response,,,,100,F,,,,,,FALSE,click #choice-2,,,,silence,,,,,193688,193676.79999995232,190800.275,190803,190816.949,193701.922,,,
Item 100,flow.Sequence,2_1_1,2022-05-09T13:29:50.847Z,,,,,,,,,,,,,,,,,,,,,,,,,,,,,,,38326.49499995232,,completion,,,,,,,,,,,,,,,,,,,,,193688.19999998808,193676.79999995232,155333.631,155338.69999998808,155350.305,193701.922,,,
End of Practice,html.Page,2_1_2,2022-05-09T13:29:53.873Z,,,,,,,,,,,,,,,,,,,,,,,,,,,,,,,3012.377999952325,,form submission,,,,,,,,,,,,,,,,,,,,,196714.5,196714.29999995232,193685.248,193688.29999995232,193701.922,196719.916,,,
Practice,flow.Sequence,2_1,2022-05-09T13:29:53.873Z,,,,,,,,,,,,,,,,,,,,,,,,,,,,,,,88103.44699995231,,completion,,,,,,,,,,,,,,,,,,,,,196714.69999998808,196714.29999995232,108594.179,108601.39999997616,108610.853,196719.916,,,
Trap_instruction,html.Page,2_2_0,2022-05-09T13:29:58.152Z,,,,,,,,,,,,,,,,,,,,,,,,,,,,,,,4272.983999976161,,form submission,,,,,,,,,,,,,,,,,,,,,200993.29999995232,200992.89999997616,196703.242,196714.79999995232,196719.916,201005.134,,,
trap_trial,html.Screen,2_2_1,2022-05-09T13:30:03.219Z,,,,,,,,,,,,,,,,,,,,,,,,,,,,true,1,,5045.065999988088,,response,,,,,,,,,,,1,click #choice-1,,,,,,,,,206060.69999998808,206050.19999998808,200988.46,200993.39999997616,201005.134,206074.375,,,
end of trap trial,html.Page,2_2_2,2022-05-09T13:30:04.825Z,,,,,,,,,,,,,,,,,,,,,,,,,,,,,,,1591.125,,form submission,,,,,,,,,,,,,,,,,,,,,207666,207665.5,206057.701,206060.79999995232,206074.375,207675.079,,,
Trap 1,flow.Sequence,2_2,2022-05-09T13:30:04.826Z,,,,,,,,,,,,,,,,,,,,,,,,,,,,,,,10945.584000000003,,completion,,,,,,,,,,,,,,,,,,,,,207667.29999995232,207665.5,196703.242,196714.69999998808,196719.916,207675.079,,,
Standby,html.Page,2_3_0,2022-05-09T13:30:12.823Z,,,,,,,,,,,,,,,,,,,,,,,,,,,,,,,8003.5199999999895,,timeout,,,,,,,,,,,,,,,,,,,,,215663.69999998808,215661.925,207658.405,207667.5,207675.079,215678.599,,,
Holding screen,html.Screen,2_3_1_0_0,2022-05-09T13:30:19.827Z,,,,,,,,,,,,,,,,,,,,,,,,,,,,,,,7003.540000000008,,timeout,,,,,,,,,,,,,,,,,,,,,222667.5,222665.465,215661.925,215664,215678.599,222682.139,,,
screen,html.Screen,2_3_1_0_1_0,2022-05-09T13:30:21.050Z,,,,,,,,,,,,,,,,,12,,,,,,,,,,,,,,1203.1609999523207,,response,,,,5,F,,,,,,Space,keypress(Space),,,,lyrical,,,,Some ------ ------ ------- ------ --- ------- -----------<br>-- ----- --- ---- -- --- ------ ---- - ---- -- ----------<br>-- ------ ---- --- ---- --- --- --- ----- -- -------- ---<br>------ ------- -------- --- ---- -- ------- ------------ --<br>------ -- ---- -- --- ---- -- -------- -- --- ------ ------,223891.09999996424,223885.29999995232,222665.465,222668.39999997616,222682.139,223899.341,,0,Some
screen,html.Screen,2_3_1_0_1_1,2022-05-09T13:30:21.684Z,,,,,,,,,,,,,,,,,12,,,,,,,,,,,,,,621.8589999880933,,response,,,,5,F,,,,,,Space,keypress(Space),,,,lyrical,,,,---- months ------ ------- ------ --- ------- -----------<br>-- ----- --- ---- -- --- ------ ---- - ---- -- ----------<br>-- ------ ---- --- ---- --- --- --- ----- -- -------- ---<br>------ ------- -------- --- ---- -- ------- ------------ --<br>------ -- ---- -- --- ---- -- -------- -- --- ------ ------,224524.89999997616,224521.19999998808,223882.667,223891.19999998808,223899.341,224532.953,,1,months
screen,html.Screen,2_3_1_0_1_2,2022-05-09T13:30:22.053Z,,,,,,,,,,,,,,,,,12,,,,,,,,,,,,,,356.24699998807046,,response,,,,5,F,,,,,,Space,keypress(Space),,,,lyrical,,,,"---- ------ later, ------- ------ --- ------- -----------<br>-- ----- --- ---- -- --- ------ ---- - ---- -- ----------<br>-- ------ ---- --- ---- --- --- --- ----- -- -------- ---<br>------ ------- -------- --- ---- -- ------- ------------ --<br>------ -- ---- -- --- ---- -- -------- -- --- ------ ------",224894.09999996424,224889.19999998808,224516.279,224525.09999996424,224532.953,224899.781,,2,"later,"
screen,html.Screen,2_3_1_0_1_3,2022-05-09T13:30:22.294Z,,,,,,,,,,,,,,,,,12,,,,,,,,,,,,,,230.3189999642491,,response,,,,5,F,,,,,,Space,keypress(Space),,,,lyrical,,,,---- ------ ------ Michael ------ --- ------- -----------<br>-- ----- --- ---- -- --- ------ ---- - ---- -- ----------<br>-- ------ ---- --- ---- --- --- --- ----- -- -------- ---<br>------ ------- -------- --- ---- -- ------- ------------ --<br>------ -- ---- -- --- ---- -- -------- -- --- ------ ------,225134.69999998808,225130.09999996424,224883.107,224894.29999995232,224899.781,225149.891,,3,Michael
screen,html.Screen,2_3_1_0_1_4,2022-05-09T13:30:22.536Z,,,,,,,,,,,,,,,,,12,,,,,,,,,,,,,,222.3089999880758,,response,,,,5,F,,,,,,Space,keypress(Space),,,,lyrical,,,,---- ------ ------ ------- Larson --- ------- -----------<br>-- ----- --- ---- -- --- ------ ---- - ---- -- ----------<br>-- ------ ---- --- ---- --- --- --- ----- -- -------- ---<br>------ ------- -------- --- ---- -- ------- ------------ --<br>------ -- ---- -- --- ---- -- -------- -- --- ------ ------,225377.09999996424,225372.19999998808,225133.217,225134.79999995232,225149.891,225383.327,,4,Larson
screen,html.Screen,2_3_1_0_1_5,2022-05-09T13:30:22.760Z,,,,,,,,,,,,,,,,,12,,,,,,,,,,,,,,212.772999964247,,response,,,,5,F,,,,,,Space,keypress(Space),,,,lyrical,,,,---- ------ ------ ------- ------ saw ------- -----------<br>-- ----- --- ---- -- --- ------ ---- - ---- -- ----------<br>-- ------ ---- --- ---- --- --- --- ----- -- -------- ---<br>------ ------- -------- --- ---- -- ------- ------------ --<br>------ -- ---- -- --- ---- -- -------- -- --- ------ ------,225601.19999998808,225596.09999996424,225366.653,225377.29999995232,225383.327,225616.763,,5,saw
screen,html.Screen,2_3_1_0_1_6,2022-05-09T13:30:22.994Z,,,,,,,,,,,,,,,,,12,,,,,,,,,,,,,,213.33699996423093,,response,,,,5,F,,,,,,Space,keypress(Space),,,,lyrical,,,,---- ------ ------ ------- ------ --- another -----------<br>-- ----- --- ---- -- --- ------ ---- - ---- -- ----------<br>-- ------ ---- --- ---- --- --- --- ----- -- -------- ---<br>------ ------- -------- --- ---- -- ------- ------------ --<br>------ -- ---- -- --- ---- -- -------- -- --- ------ ------,225835.19999998808,225830.09999996424,225600.089,225601.29999995232,225616.763,225850.199,,6,another
screen,html.Screen,2_3_1_0_1_7,2022-05-09T13:30:23.230Z,,,,,,,,,,,,,,,,,12,,,,,,,,,,,,,,214.90099996424397,,response,,,,5,F,,,,,,Space,keypress(Space),,,,lyrical,,,,---- ------ ------ ------- ------ --- ------- opportunity<br>-- ----- --- ---- -- --- ------ ---- - ---- -- ----------<br>-- ------ ---- --- ---- --- --- --- ----- -- -------- ---<br>------ ------- -------- --- ---- -- ------- ------------ --<br>------ -- ---- -- --- ---- -- -------- -- --- ------ ------,226070.5,226065.09999996424,225833.525,225835.29999995232,225850.199,226083.635,,7,opportunity
screen,html.Screen,2_3_1_0_1_8,2022-05-09T13:30:23.458Z,,,,,,,,,,,,,,,,,12,,,,,,,,,,,,,,209.4649999642279,,response,,,,5,F,,,,,,Space,keypress(Space),,,,lyrical,,,,---- ------ ------ ------- ------ --- ------- -----------<br>to ----- --- ---- -- --- ------ ---- - ---- -- ----------<br>-- ------ ---- --- ---- --- --- --- ----- -- -------- ---<br>------ ------- -------- --- ---- -- ------- ------------ --<br>------ -- ---- -- --- ---- -- -------- -- --- ------ ------,226298.39999997616,226293.09999996424,226066.961,226070.5,226083.635,226300.739,,8,to
screen,html.Screen,2_3_1_0_1_9,2022-05-09T13:30:23.728Z,,,,,,,,,,,,,,,,,12,,,,,,,,,,,,,,263.2609999999986,,response,,,,5,F,,,,,,Space,keypress(Space),,,,lyrical,,,,---- ------ ------ ------- ------ --- ------- -----------<br>-- stack --- ---- -- --- ------ ---- - ---- -- ----------<br>-- ------ ---- --- ---- --- --- --- ----- -- -------- ---<br>------ ------- -------- --- ---- -- ------- ------------ --<br>------ -- ---- -- --- ---- -- -------- -- --- ------ ------,226569.19999998808,226564,226284.065,226298.5,226300.739,226584.197,,9,stack
screen,html.Screen,2_3_1_0_1_10,2022-05-09T13:30:23.958Z,,,,,,,,,,,,,,,,,12,,,,,,,,,,,,,,208.90299996425165,,response,,,,5,F,,,,,,Space,keypress(Space),,,,lyrical,,,,---- ------ ------ ------- ------ --- ------- -----------<br>-- ----- the ---- -- --- ------ ---- - ---- -- ----------<br>-- ------ ---- --- ---- --- --- --- ----- -- -------- ---<br>------ ------- -------- --- ---- -- ------- ------------ --<br>------ -- ---- -- --- ---- -- -------- -- --- ------ ------,226798.39999997616,226793.09999996424,226567.523,226569.19999998808,226584.197,226800.959,,10,the
screen,html.Screen,2_3_1_0_1_11,2022-05-09T13:30:24.210Z,,,,,,,,,,,,,,,,,12,,,,,,,,,,,,,,244.34099995231372,,response,,,,5,F,,,,,,Space,keypress(Space),,,,lyrical,,,,---- ------ ------ ------- ------ --- ------- -----------<br>-- ----- --- odds -- --- ------ ---- - ---- -- ----------<br>-- ------ ---- --- ---- --- --- --- ----- -- -------- ---<br>------ ------- -------- --- ---- -- ------- ------------ --<br>------ -- ---- -- --- ---- -- -------- -- --- ------ ------,227051,227045.29999995232,226784.285,226798.5,226800.959,227067.743,,11,odds
screen,html.Screen,2_3_1_0_1_12,2022-05-09T13:30:24.458Z,,,,,,,,,,,,,,,,,12,,,,,,,,,,,,,,225.35699996424955,,response,,,,5,F,,,,,,Space,keypress(Space),,,,lyrical,,,,---- ------ ------ ------- ------ --- ------- -----------<br>-- ----- --- ---- in --- ------ ---- - ---- -- ----------<br>-- ------ ---- --- ---- --- --- --- ----- -- -------- ---<br>------ ------- -------- --- ---- -- ------- ------------ --<br>------ -- ---- -- --- ---- -- -------- -- --- ------ ------,227298.39999997616,227293.09999996424,227051.069,227051.09999996424,227067.743,227301.179,,12,in
screen,html.Screen,2_3_1_0_1_13,2022-05-09T13:30:24.686Z,,,,,,,,,,,,,,,,,12,,,,,,,,,,,,,,220.72099997615442,,response,,,,5,F,,,,,,Space,keypress(Space),,,,lyrical,,,,---- ------ ------ ------- ------ --- ------- -----------<br>-- ----- --- ---- -- his ------ ---- - ---- -- ----------<br>-- ------ ---- --- ---- --- --- --- ----- -- -------- ---<br>------ ------- -------- --- ---- -- ------- ------------ --<br>------ -- ---- -- --- ---- -- -------- -- --- ------ ------,227527.09999996424,227521.89999997616,227284.505,227298.5,227301.179,227534.615,,13,his
screen,html.Screen,2_3_1_0_1_14,2022-05-09T13:30:24.942Z,,,,,,,,,,,,,,,,,12,,,,,,,,,,,,,,244.48499996424653,,response,,,,5,F,,,,,,Space,keypress(Space),,,,lyrical,,,,---- ------ ------ ------- ------ --- ------- -----------<br>-- ----- --- ---- -- --- favour ---- - ---- -- ----------<br>-- ------ ---- --- ---- --- --- --- ----- -- -------- ---<br>------ ------- -------- --- ---- -- ------- ------------ --<br>------ -- ---- -- --- ---- -- -------- -- --- ------ ------,227783,227779.09999996424,227517.941,227527.29999995232,227534.615,227784.725,,14,favour
screen,html.Screen,2_3_1_0_1_15,2022-05-09T13:30:25.258Z,,,,,,,,,,,,,,,,,12,,,,,,,,,,,,,,308.2749999999942,,response,,,,5,F,,,,,,Space,keypress(Space),,,,lyrical,,,,---- ------ ------ ------- ------ --- ------- -----------<br>-- ----- --- ---- -- --- ------ with - ---- -- ----------<br>-- ------ ---- --- ---- --- --- --- ----- -- -------- ---<br>------ ------- -------- --- ---- -- ------- ------------ --<br>------ -- ---- -- --- ---- -- -------- -- --- ------ ------,228098.29999995232,228093,227768.051,227783.09999996424,227784.725,228101.531,,15,with
screen,html.Screen,2_3_1_0_1_16,2022-05-09T13:30:25.944Z,,,,,,,,,,,,,,,,,12,,,,,,,,,,,,,,677.36899997617,,response,,,,5,F,,,,,,Space,keypress(Space),,,,lyrical,,,,---- ------ ------ ------- ------ --- ------- -----------<br>-- ----- --- ---- -- --- ------ ---- a ---- -- ----------<br>-- ------ ---- --- ---- --- --- --- ----- -- -------- ---<br>------ ------- -------- --- ---- -- ------- ------------ --<br>------ -- ---- -- --- ---- -- -------- -- --- ------ ------,228784.5,228778.89999997616,228084.857,228098.5,228101.531,228801.839,,16,a
screen,html.Screen,2_3_1_0_1_17,2022-05-09T13:30:26.298Z,,,,,,,,,,,,,,,,,12,,,,,,,,,,,,,,331.96099995230907,,response,,,,5,F,,,,,,Space,keypress(Space),,,,lyrical,,,,---- ------ ------ ------- ------ --- ------- -----------<br>-- ----- --- ---- -- --- ------ ---- - dash -- ----------<br>-- ------ ---- --- ---- --- --- --- ----- -- -------- ---<br>------ ------- -------- --- ---- -- ------- ------------ --<br>------ -- ---- -- --- ---- -- -------- -- --- ------ ------,229138.69999998808,229133.79999995232,228785.165,228784.59999996424,228801.839,229151.993,,17,dash
screen,html.Screen,2_3_1_0_1_18,2022-05-09T13:30:26.663Z,,,,,,,,,,,,,,,,,12,,,,,,,,,,,,,,346.00700000001234,,response,,,,5,F,,,,,,Space,keypress(Space),,,,lyrical,,,,---- ------ ------ ------- ------ --- ------- -----------<br>-- ----- --- ---- -- --- ------ ---- - ---- of ----------<br>-- ------ ---- --- ---- --- --- --- ----- -- -------- ---<br>------ ------- -------- --- ---- -- ------- ------------ --<br>------ -- ---- -- --- ---- -- -------- -- --- ------ ------,229503.19999998808,229498,229135.319,229138.79999995232,229151.993,229518.821,,18,of
screen,html.Screen,2_3_1_0_1_19,2022-05-09T13:30:26.980Z,,,,,,,,,,,,,,,,,12,,,,,,,,,,,,,,296.1790000000037,,response,,,,5,F,,,,,,Space,keypress(Space),,,,lyrical,,,,---- ------ ------ ------- ------ --- ------- -----------<br>-- ----- --- ---- -- --- ------ ---- - ---- -- ingenuity.<br>-- ------ ---- --- ---- --- --- --- ----- -- -------- ---<br>------ ------- -------- --- ---- -- ------- ------------ --<br>------ -- ---- -- --- ---- -- -------- -- --- ------ ------,229820.89999997616,229815,229502.147,229503.19999998808,229518.821,229835.627,,19,ingenuity.
screen,html.Screen,2_3_1_0_1_20,2022-05-09T13:30:27.553Z,,,,,,,,,,,,,,,,,12,,,,,,,,,,,,,,552.2729999761505,,response,,,,5,F,,,,,,Space,keypress(Space),,,,lyrical,,,,---- ------ ------ ------- ------ --- ------- -----------<br>-- ----- --- ---- -- --- ------ ---- - ---- -- ----------<br>He ------ ---- --- ---- --- --- --- ----- -- -------- ---<br>------ ------- -------- --- ---- -- ------- ------------ --<br>------ -- ---- -- --- ---- -- -------- -- --- ------ ------,230393.39999997616,230387.89999997616,229818.953,229821,229835.627,230402.543,,20,He
screen,html.Screen,2_3_1_0_1_21,2022-05-09T13:30:27.834Z,,,,,,,,,,,,,,,,,12,,,,,,,,,,,,,,267.25699995231116,,response,,,,5,F,,,,,,Space,keypress(Space),,,,lyrical,,,,---- ------ ------ ------- ------ --- ------- -----------<br>-- ----- --- ---- -- --- ------ ---- - ---- -- ----------<br>-- walked ---- --- ---- --- --- --- ----- -- -------- ---<br>------ ------- -------- --- ---- -- ------- ------------ --<br>------ -- ---- -- --- ---- -- -------- -- --- ------ ------,230675.09999996424,230669.79999995232,230385.869,230393.59999996424,230402.543,230686.001,,21,walked
screen,html.Screen,2_3_1_0_1_22,2022-05-09T13:30:28.152Z,,,,,,,,,,,,,,,,,12,,,,,,,,,,,,,,300.89899997616885,,response,,,,5,F,,,,,,Space,keypress(Space),,,,lyrical,,,,---- ------ ------ ------- ------ --- ------- -----------<br>-- ----- --- ---- -- --- ------ ---- - ---- -- ----------<br>-- ------ into --- ---- --- --- --- ----- -- -------- ---<br>------ ------- -------- --- ---- -- ------- ------------ --<br>------ -- ---- -- --- ---- -- -------- -- --- ------ ------,230992.89999997616,230986.89999997616,230669.327,230675.09999996424,230686.001,231002.807,,22,into
screen,html.Screen,2_3_1_0_1_23,2022-05-09T13:30:28.483Z,,,,,,,,,,,,,,,,,12,,,,,,,,,,,,,,315.2929999642365,,response,,,,5,F,,,,,,Space,keypress(Space),,,,lyrical,,,,---- ------ ------ ------- ------ --- ------- -----------<br>-- ----- --- ---- -- --- ------ ---- - ---- -- ----------<br>-- ------ ---- his ---- --- --- --- ----- -- -------- ---<br>------ ------- -------- --- ---- -- ------- ------------ --<br>------ -- ---- -- --- ---- -- -------- -- --- ------ ------,231323.39999997616,231318.09999996424,230986.133,230993,231002.807,231336.287,,23,his
screen,html.Screen,2_3_1_0_1_24,2022-05-09T13:30:28.735Z,,,,,,,,,,,,,,,,,12,,,,,,,,,,,,,,234.4129999880679,,response,,,,5,F,,,,,,Space,keypress(Space),,,,lyrical,,,,---- ------ ------ ------- ------ --- ------- -----------<br>-- ----- --- ---- -- --- ------ ---- - ---- -- ----------<br>-- ------ ---- --- bank --- --- --- ----- -- -------- ---<br>------ ------- -------- --- ---- -- ------- ------------ --<br>------ -- ---- -- --- ---- -- -------- -- --- ------ ------,231575.79999995232,231570.69999998808,231319.613,231323.5,231336.287,231586.397,,24,bank
screen,html.Screen,2_3_1_0_1_25,2022-05-09T13:30:28.969Z,,,,,,,,,,,,,,,,,12,,,,,,,,,,,,,,217.30299998808187,,response,,,,5,F,,,,,,Space,keypress(Space),,,,lyrical,,,,---- ------ ------ ------- ------ --- ------- -----------<br>-- ----- --- ---- -- --- ------ ---- - ---- -- ----------<br>-- ------ ---- --- ---- one --- --- ----- -- -------- ---<br>------ ------- -------- --- ---- -- ------- ------------ --<br>------ -- ---- -- --- ---- -- -------- -- --- ------ ------,231809.79999995232,231803.69999998808,231569.723,231576,231586.397,231819.833,,25,one
screen,html.Screen,2_3_1_0_1_26,2022-05-09T13:30:29.238Z,,,,,,,,,,,,,,,,,12,,,,,,,,,,,,,,254.06699997614487,,response,,,,5,F,,,,,,Space,keypress(Space),,,,lyrical,,,,---- ------ ------ ------- ------ --- ------- -----------<br>-- ----- --- ---- -- --- ------ ---- - ---- -- ----------<br>-- ------ ---- --- ---- --- day --- ----- -- -------- ---<br>------ ------- -------- --- ---- -- ------- ------------ --<br>------ -- ---- -- --- ---- -- -------- -- --- ------ ------,232079,232073.89999997616,231803.159,231809.89999997616,231819.833,232086.617,,26,day
screen,html.Screen,2_3_1_0_1_27,2022-05-09T13:30:29.505Z,,,,,,,,,,,,,,,,,12,,,,,,,,,,,,,,254.28299997615977,,response,,,,5,F,,,,,,Space,keypress(Space),,,,lyrical,,,,---- ------ ------ ------- ------ --- ------- -----------<br>-- ----- --- ---- -- --- ------ ---- - ---- -- ----------<br>-- ------ ---- --- ---- --- --- and ----- -- -------- ---<br>------ ------- -------- --- ---- -- ------- ------------ --<br>------ -- ---- -- --- ---- -- -------- -- --- ------ ------,232345.79999995232,232340.89999997616,232069.943,232079.09999996424,232086.617,232353.401,,27,and
screen,html.Screen,2_3_1_0_1_28,2022-05-09T13:30:29.789Z,,,,,,,,,,,,,,,,,12,,,,,,,,,,,,,,271.3989999523037,,response,,,,5,F,,,,,,Space,keypress(Space),,,,lyrical,,,,---- ------ ------ ------- ------ --- ------- -----------<br>-- ----- --- ---- -- --- ------ ---- - ---- -- ----------<br>-- ------ ---- --- ---- --- --- --- asked -- -------- ---<br>------ ------- -------- --- ---- -- ------- ------------ --<br>------ -- ---- -- --- ---- -- -------- -- --- ------ ------,232629.89999997616,232624.79999995232,232336.727,232345.89999997616,232353.401,232636.859,,28,asked
screen,html.Screen,2_3_1_0_1_29,2022-05-09T13:30:30.033Z,,,,,,,,,,,,,,,,,12,,,,,,,,,,,,,,231.84099998808233,,response,,,,5,F,,,,,,Space,keypress(Space),,,,lyrical,,,,---- ------ ------ ------- ------ --- ------- -----------<br>-- ----- --- ---- -- --- ------ ---- - ---- -- ----------<br>-- ------ ---- --- ---- --- --- --- ----- to -------- ---<br>------ ------- -------- --- ---- -- ------- ------------ --<br>------ -- ---- -- --- ---- -- -------- -- --- ------ ------,232873.79999995232,232868.69999998808,232620.185,232630,232636.859,232886.969,,29,to
screen,html.Screen,2_3_1_0_1_30,2022-05-09T13:30:30.255Z,,,,,,,,,,,,,,,,,12,,,,,,,,,,,,,,203.8309999523044,,response,,,,5,F,,,,,,Space,keypress(Space),,,,lyrical,,,,---- ------ ------ ------- ------ --- ------- -----------<br>-- ----- --- ---- -- --- ------ ---- - ---- -- ----------<br>-- ------ ---- --- ---- --- --- --- ----- -- withdraw ---<br>------ ------- -------- --- ---- -- ------- ------------ --<br>------ -- ---- -- --- ---- -- -------- -- --- ------ ------,233095.79999995232,233090.79999995232,232870.295,232873.89999997616,232886.969,233103.731,,30,withdraw
screen,html.Screen,2_3_1_0_1_31,2022-05-09T13:30:30.518Z,,,,,,,,,,,,,,,,,12,,,,,,,,,,,,,,249.06899995231652,,response,,,,5,F,,,,,,Space,keypress(Space),,,,lyrical,,,,---- ------ ------ ------- ------ --- ------- -----------<br>-- ----- --- ---- -- --- ------ ---- - ---- -- ----------<br>-- ------ ---- --- ---- --- --- --- ----- -- -------- his<br>------ ------- -------- --- ---- -- ------- ------------ --<br>------ -- ---- -- --- ---- -- -------- -- --- ------ ------,233358.19999998808,233352.79999995232,233087.057,233095.79999995232,233103.731,233370.515,,31,his
screen,html.Screen,2_3_1_0_1_32,2022-05-09T13:30:30.849Z,,,,,,,,,,,,,,,,,12,,,,,,,,,,,,,,314.1849999880651,,response,,,,5,F,,,,,,Space,keypress(Space),,,,lyrical,,,,---- ------ ------ ------- ------ --- ------- -----------<br>-- ----- --- ---- -- --- ------ ---- - ---- -- ----------<br>-- ------ ---- --- ---- --- --- --- ----- -- -------- ---<br>entire ------- -------- --- ---- -- ------- ------------ --<br>------ -- ---- -- --- ---- -- -------- -- --- ------ ------,233689.89999997616,233684.69999998808,233353.841,233358.29999995232,233370.515,233703.995,,32,entire
screen,html.Screen,2_3_1_0_1_33,2022-05-09T13:30:31.138Z,,,,,,,,,,,,,,,,,12,,,,,,,,,,,,,,268.60499996424187,,response,,,,5,F,,,,,,Space,keypress(Space),,,,lyrical,,,,---- ------ ------ ------- ------ --- ------- -----------<br>-- ----- --- ---- -- --- ------ ---- - ---- -- ----------<br>-- ------ ---- --- ---- --- --- --- ----- -- -------- ---<br>------ account -------- --- ---- -- ------- ------------ --<br>------ -- ---- -- --- ---- -- -------- -- --- ------ ------,233978.19999998808,233972.59999996424,233687.321,233690,233703.995,233987.453,,33,account
screen,html.Screen,2_3_1_0_1_34,2022-05-09T13:30:31.414Z,,,,,,,,,,,,,,,,,12,,,,,,,,,,,,,,262.0469999999914,,response,,,,5,F,,,,,,Space,keypress(Space),,,,lyrical,,,,"---- ------ ------ ------- ------ --- ------- -----------<br>-- ----- --- ---- -- --- ------ ---- - ---- -- ----------<br>-- ------ ---- --- ---- --- --- --- ----- -- -------- ---<br>------ ------- balance, --- ---- -- ------- ------------ --<br>------ -- ---- -- --- ---- -- -------- -- --- ------ ------",234254.19999998808,234249.5,233970.779,233978.19999998808,233987.453,234270.911,,34,"balance,"
screen,html.Screen,2_3_1_0_1_35,2022-05-09T13:30:31.704Z,,,,,,,,,,,,,,,,,12,,,,,,,,,,,,,,267.68899996424443,,response,,,,5,F,,,,,,Space,keypress(Space),,,,lyrical,,,,---- ------ ------ ------- ------ --- ------- -----------<br>-- ----- --- ---- -- --- ------ ---- - ---- -- ----------<br>-- ------ ---- --- ---- --- --- --- ----- -- -------- ---<br>------ ------- -------- but ---- -- ------- ------------ --<br>------ -- ---- -- --- ---- -- -------- -- --- ------ ------,234544.19999998808,234538.59999996424,234254.237,234254.29999995232,234270.911,234554.369,,35,but
screen,html.Screen,2_3_1_0_1_36,2022-05-09T13:30:32.036Z,,,,,,,,,,,,,,,,,12,,,,,,,,,,,,,,317.330999988073,,response,,,,5,F,,,,,,Space,keypress(Space),,,,lyrical,,,,---- ------ ------ ------- ------ --- ------- -----------<br>-- ----- --- ---- -- --- ------ ---- - ---- -- ----------<br>-- ------ ---- --- ---- --- --- --- ----- -- -------- ---<br>------ ------- -------- --- with -- ------- ------------ --<br>------ -- ---- -- --- ---- -- -------- -- --- ------ ------,234876.59999996424,234871.69999998808,234537.695,234544.29999995232,234554.369,234887.849,,36,with
screen,html.Screen,2_3_1_0_1_37,2022-05-09T13:30:32.339Z,,,,,,,,,,,,,,,,,12,,,,,,,,,,,,,,285.95099995232886,,response,,,,5,F,,,,,,Space,keypress(Space),,,,lyrical,,,,---- ------ ------ ------- ------ --- ------- -----------<br>-- ----- --- ---- -- --- ------ ---- - ---- -- ----------<br>-- ------ ---- --- ---- --- --- --- ----- -- -------- ---<br>------ ------- -------- --- ---- an ------- ------------ --<br>------ -- ---- -- --- ---- -- -------- -- --- ------ ------,235179,235173.79999995232,234871.175,234876.79999995232,234887.849,235187.981,,37,an
screen,html.Screen,2_3_1_0_1_38,2022-05-09T13:30:32.645Z,,,,,,,,,,,,,,,,,12,,,,,,,,,,,,,,292.7189999880793,,response,,,,5,F,,,,,,Space,keypress(Space),,,,lyrical,,,,---- ------ ------ ------- ------ --- ------- -----------<br>-- ----- --- ---- -- --- ------ ---- - ---- -- ----------<br>-- ------ ---- --- ---- --- --- --- ----- -- -------- ---<br>------ ------- -------- --- ---- -- unusual ------------ --<br>------ -- ---- -- --- ---- -- -------- -- --- ------ ------,235485.69999998808,235480.69999998808,235171.307,235179.09999996424,235187.981,235488.113,,38,unusual
screen,html.Screen,2_3_1_0_1_39,2022-05-09T13:30:32.949Z,,,,,,,,,,,,,,,,,12,,,,,,,,,,,,,,295.4869999642251,,response,,,,5,F,,,,,,Space,keypress(Space),,,,lyrical,,,,---- ------ ------ ------- ------ --- ------- -----------<br>-- ----- --- ---- -- --- ------ ---- - ---- -- ----------<br>-- ------ ---- --- ---- --- --- --- ----- -- -------- ---<br>------ ------- -------- --- ---- -- ------- stipulation: --<br>------ -- ---- -- --- ---- -- -------- -- --- ------ ------,235789.89999997616,235783.59999996424,235471.439,235485.79999995232,235488.113,235804.919,,39,stipulation:
screen,html.Screen,2_3_1_0_1_40,2022-05-09T13:30:33.512Z,,,,,,,,,,,,,,,,,12,,,,,,,,,,,,,,542.6809999642428,,response,,,,5,F,,,,,,Space,keypress(Space),,,,lyrical,,,,---- ------ ------ ------- ------ --- ------- -----------<br>-- ----- --- ---- -- --- ------ ---- - ---- -- ----------<br>-- ------ ---- --- ---- --- --- --- ----- -- -------- ---<br>------ ------- -------- --- ---- -- ------- ------------ He<br>------ -- ---- -- --- ---- -- -------- -- --- ------ ------,236352.19999998808,236347.59999996424,235788.245,235790,235804.919,236355.161,,40,He
screen,html.Screen,2_3_1_0_1_41,2022-05-09T13:30:33.956Z,,,,,,,,,,,,,,,,,12,,,,,,,,,,,,,,436.5389999880863,,response,,,,5,F,,,,,,Space,keypress(Space),,,,lyrical,,,,---- ------ ------ ------- ------ --- ------- -----------<br>-- ----- --- ---- -- --- ------ ---- - ---- -- ----------<br>-- ------ ---- --- ---- --- --- --- ----- -- -------- ---<br>------ ------- -------- --- ---- -- ------- ------------ --<br>wanted -- ---- -- --- ---- -- -------- -- --- ------ ------,236796.29999995232,236791.69999998808,236338.487,236352.19999998808,236355.161,236805.359,,41,wanted
screen,html.Screen,2_3_1_0_1_42,2022-05-09T13:30:34.306Z,,,,,,,,,,,,,,,,,12,,,,,,,,,,,,,,336.14100000000326,,response,,,,5,F,,,,,,Space,keypress(Space),,,,lyrical,,,,---- ------ ------ ------- ------ --- ------- -----------<br>-- ----- --- ---- -- --- ------ ---- - ---- -- ----------<br>-- ------ ---- --- ---- --- --- --- ----- -- -------- ---<br>------ ------- -------- --- ---- -- ------- ------------ --<br>------ as ---- -- --- ---- -- -------- -- --- ------ ------,237146.59999996424,237141.5,236788.685,236796.39999997616,236805.359,237155.868,,42,as
