sender,sender_type,sender_id,timestamp,meta,,Blues,Classical,Country,Dance,Electronic,Folk,Gospel,Hip-Hop,Jazz,Latin,Musical/Film,New-age,Pop,Prolific_id,Provo_ID,R&B,Rap,Reggae,Religious,Rock,Soul,Swing,Traditional,age,artist_name,correct,correctResponse,distraction,duration,education,ended_on,familiarity,gender,headphone_check_performance,item,list,music_frequency,offensiveness,pleasantness,position_correct,preference,response,response_action,snippet_file,song_name,song_rating,sound,stimulus_1,stimulus_2,stimulus_3,text,time_commit,time_end,time_render,time_run,time_show,time_switch,url,word,word_ID
Prolific ID,html.Form,0,2022-05-09T17:08:13.944Z,"{""labjs_version"":""20.2.2"",""labjs_build"":{""flavor"":""production"",""commit"":""a25486e0c714a0ae2ce03ff94b7bb6896854dcfa""},""location"":""https://run.pavlovia.org/mvasilev/prolific3_music_g/"",""userAgent"":""Mozilla/5.0 (Windows NT 10.0; Win64; x64) AppleWebKit/537.36 (KHTML, like Gecko) Chrome/101.0.4951.54 Safari/537.36"",""platform"":""Win32"",""language"":""en-GB"",""locale"":""en-GB"",""timeZone"":""Europe/London"",""timezoneOffset"":-60,""screen_width"":1280,""screen_height"":720,""scroll_width"":1280,""scroll_height"":577,""window_innerWidth"":1280,""window_innerHeight"":577,""devicePixelRatio"":1.5}",,,,,,,,,,,,,,,60b792b1c5c2e56c4c7a7d1d,,,,,,,,,,,,,,,2738.9230000000007,,form submission,,,,,,,,,,,,,,,,,,,,,15711.700000047684,15711,12688.95,12944.700000047684,12972.077,15720.963,{},,
Introduction,html.Screen,1_0,2022-05-09T17:08:16.916Z,,,,,,,,,,,,,,,,,,,,,,,,,,,,,,,2956.0370000000003,,response,,,,,,,,,,,continue,click button,,,,,,,,,18684,18677,15687.732,15712.100000023842,15720.963,18703.135,,,
Volume calibration,html.Screen,1_1,2022-05-09T17:08:32.115Z,,,,,,,,,,,,,,,,,,,,,,,,,,,,,,,15173.565000047685,,response,,,,,,,,,,,continue,click button,,,,,,,,,33882.5,33876.700000047684,18670.153,18684.300000071526,18703.135,33880.448,,,
Task instructions,html.Screen,1_2,2022-05-09T17:08:35.075Z,,,,,,,,,,,,,,,,,,,,,,,,,,,,,,,2961.4519999761615,,response,,,,,,,,,,,continue,click button,,,,,,,,,36843.39999997616,36841.89999997616,33863.908,33882.800000071526,33880.448,36845.991,,,
Sounds,html.Screen,1_3_0_0,2022-05-09T17:08:39.316Z,,,,,,,,,,,,,,,,,,,,,,,,,,,,,,,4248.32,,timeout,,,,,,,,,2,,,,,,,,O,S,I,,41083.800000071526,41077.736,36829.402,36843.89999997616,36845.991,41094.311,,,
Judgement,html.Screen,1_3_0_1,2022-05-09T17:08:42.518Z,,,,,,,,,,,,,,,,,,,,,,,,,,,,true,2,,3190.2890000238403,,response,,,,,,,,,2,,2,click #choice-2,,,,,O,S,I,,44285.700000047684,44284.60000002384,41077.736,41084.10000002384,41094.311,44292.906,,,
Trial,flow.Sequence,1_3_0,2022-05-09T17:08:42.520Z,,,,,,,,,,,,,,,,,,,,,,,,,,,,,,,7438.60900002384,,completion,,,,,,,,,2,,,,,,,,O,S,I,,44288.10000002384,44284.60000002384,36829.402,36843.89999997616,36845.991,44292.906,,,
Sounds,html.Screen,1_3_1_0,2022-05-09T17:08:46.758Z,,,,,,,,,,,,,,,,,,,,,,,,,,,,,,,4248.587999999996,,timeout,,,,,,,,,1,,,,,,,,S,O,I,,48526.10000002384,48524.671,44276.306,44288.700000047684,44292.906,48541.494,,,
Judgement,html.Screen,1_3_1_1,2022-05-09T17:08:47.578Z,,,,,,,,,,,,,,,,,,,,,,,,,,,,true,1,,801.6060000238431,,response,,,,,,,,,1,,1,click #choice-1,,,,,S,O,I,,49345.89999997616,49343.10000002384,48524.671,48526.5,48541.494,49357.684,,,
Trial,flow.Sequence,1_3_1,2022-05-09T17:08:47.579Z,,,,,,,,,,,,,,,,,,,,,,,,,,,,,,,5050.194000023839,,completion,,,,,,,,,1,,,,,,,,S,O,I,,49346.5,49343.10000002384,44276.306,44288.200000047684,44292.906,49357.684,,,
Sounds,html.Screen,1_3_2_0,2022-05-09T17:08:51.823Z,,,,,,,,,,,,,,,,,,,,,,,,,,,,,,,4248.296999999999,,timeout,,,,,,,,,2,,,,,,,,I,S,O,,53591.200000047684,53589.586,49340.971,49347,49357.684,53605.981,,,
Judgement,html.Screen,1_3_2_1,2022-05-09T17:08:52.507Z,,,,,,,,,,,,,,,,,,,,,,,,,,,,true,2,,667.1190000238421,,response,,,,,,,,,2,,2,click #choice-2,,,,,I,S,O,,54274.60000002384,54273.10000002384,53589.586,53591.60000002384,53605.981,54289.187,,,
Trial,flow.Sequence,1_3_2,2022-05-09T17:08:52.507Z,,,,,,,,,,,,,,,,,,,,,,,,,,,,,,,4915.416000023841,,completion,,,,,,,,,2,,,,,,,,I,S,O,,54275,54273.10000002384,49340.971,49346.800000071526,49357.684,54289.187,,,
Sounds,html.Screen,1_3_3_0,2022-05-09T17:08:56.754Z,,,,,,,,,,,,,,,,,,,,,,,,,,,,,,,4248.069000000003,,timeout,,,,,,,,,1,,,,,,,,S,I,O,,58522.300000071526,58520.668,54272.345,54275.39999997616,54289.187,58537.256,,,
Judgement,html.Screen,1_3_3_1,2022-05-09T17:08:57.597Z,,,,,,,,,,,,,,,,,,,,,,,,,,,,true,1,,825.7439999999988,,response,,,,,,,,,1,,1,click #choice-1,,,,,S,I,O,,59364.700000047684,59363,58520.668,58522.5,58537.256,59386.969,,,
Trial,flow.Sequence,1_3_3,2022-05-09T17:08:57.597Z,,,,,,,,,,,,,,,,,,,,,,,,,,,,,,,5073.813000000002,,completion,,,,,,,,,1,,,,,,,,S,I,O,,59365,59363,54272.345,54275.300000071526,54289.187,59386.969,,,
Sounds,html.Screen,1_3_4_0,2022-05-09T17:09:01.852Z,,,,,,,,,,,,,,,,,,,,,,,,,,,,,,,4248.296000000002,,timeout,,,,,,,,,3,,,,,,,,O,I,S,,63620.200000047684,63618.672,59353.725,59365.300000071526,59386.969,63635.265,,,
Judgement,html.Screen,1_3_4_1,2022-05-09T17:09:02.871Z,,,,,,,,,,,,,,,,,,,,,,,,,,,,true,3,,1001.8350000238424,,response,,,,,,,,,3,,3,click #choice-3,,,,,O,I,S,,64639.10000002384,64637.10000002384,63618.672,63620.5,63635.265,64651.828,,,
Trial,flow.Sequence,1_3_4,2022-05-09T17:09:02.872Z,,,,,,,,,,,,,,,,,,,,,,,,,,,,,,,5250.1310000238445,,completion,,,,,,,,,3,,,,,,,,O,I,S,,64639.5,64637.10000002384,59353.725,59365.200000047684,59386.969,64651.828,,,
Sounds,html.Screen,1_3_5_0,2022-05-09T17:09:07.117Z,,,,,,,,,,,,,,,,,,,,,,,,,,,,,,,4248.132999999994,,timeout,,,,,,,,,3,,,,,,,,I,O,S,,68884.70000004768,68883.477,64635.18,64639.800000071526,64651.828,68899.961,,,
Judgement,html.Screen,1_3_5_1,2022-05-09T17:09:07.759Z,,,,,,,,,,,,,,,,,,,,,,,,,,,,true,3,,625.4389999761624,,response,,,,,,,,,3,,3,click #choice-3,,,,,I,O,S,,69527.39999997616,69525.39999997616,68883.477,68885,68899.961,69549.652,,,
Trial,flow.Sequence,1_3_5,2022-05-09T17:09:07.760Z,,,,,,,,,,,,,,,,,,,,,,,,,,,,,,,4873.571999976157,,completion,,,,,,,,,3,,,,,,,,I,O,S,,69527.70000004768,69525.39999997616,64635.18,64639.700000047684,64651.828,69549.652,,,
Task,flow.Loop,1_3,2022-05-09T17:09:07.773Z,,,,,,,,,,,,,,,,,,,,,,,,,,,,,,,32679.408999976156,,completion,,,1,,,,,,,,,,,,,,,,,,69541.10000002384,69525.39999997616,36829.402,36843.800000071526,36845.991,69549.652,,,
Trap,html.Screen,1_4,2022-05-09T17:09:07.776Z,,,,,,,,,,,,,,,,,,,,,,,,,,,,,,,NaN,,skipped,,,,,,,,,,,,,,,,,,,,,69544.10000002384,69525.39999997616,,69543.80000007153,,69549.652,,,
Thanks,html.Screen,1_5,2022-05-09T17:09:11.576Z,,,,,,,,,,,,,,,,,,,,,,,,,,,,,,,3792.6480000715237,,response,,,,,,,,,,,continue,click button,,,,,,,,,73343.39999997616,73342.30000007153,69516.406,69544.30000007153,69549.652,76813.359,,,
Headphone screening,flow.Sequence,1,2022-05-09T17:09:11.576Z,,,,,,,,,,,,,,,,,,,,,,,,,,,,,,,57621.33700007152,,completion,,,,,,,,,,,,,,,,,,,,,73343.5,73342.30000007153,15687.732,15712,15720.963,76813.359,,,
Instructions,html.Page,2_0,2022-05-09T17:09:31.530Z,,,,,,,,,,,,,,,,,,,,,,,,,,,,,,,16483.641000000003,,form submission,,,,,,,,,,,,,,,,,,,,,93297.60000002384,93297,76796.663,76817.5,76813.359,93306.826,,,
Holding screen,html.Screen,2_1_0_0,2022-05-09T17:09:41.520Z,,,,,,,,,,,,,,,,,,,,,,,,,,,,,,,10029.251999999993,,timeout,,,,,,,,,,,,,,,,,,,,,103287.60000002384,103286.165,93290.219,93297.89999997616,93306.826,103336.078,,,
screen,html.Screen,2_1_0_1_0,2022-05-09T17:09:42.673Z,,,,,,,,,,,,,,,,,53,,,,,,,,,,,,,,1098.821999976164,,response,,,,99,,,,,,,Space,keypress(Space),,,,,,,,When -- ----- -- ------ - ------- --- ----------<br>------------- ------ ------ ---- ---- ------- ----- -- ----<br>-------- ------- -- ---------- --- - --- ----- ----- ----<br>---- --- --- ----- --- ---- ---- ------- ----- ---- -------<br>--- --- -- ----- -- --- ---- -- --- ---- -- ------ ------<br>--- ----- -- ----,104440.70000004768,104434.89999997616,103286.165,103288,103336.078,104452.334,,0,When
screen,html.Screen,2_1_0_1_1,2022-05-09T17:09:43.262Z,,,,,,,,,,,,,,,,,53,,,,,,,,,,,,,,575.6659999999974,,response,,,,99,,,,,,,Space,keypress(Space),,,,,,,,---- it ----- -- ------ - ------- --- ----------<br>------------- ------ ------ ---- ---- ------- ----- -- ----<br>-------- ------- -- ---------- --- - --- ----- ----- ----<br>---- --- --- ----- --- ---- ---- ------- ----- ---- -------<br>--- --- -- ----- -- --- ---- -- --- ---- -- ------ ------<br>--- ----- -- ----,105028.89999997616,105028,104435.892,104441,104452.334,105035.433,,1,it
screen,html.Screen,2_1_0_1_2,2022-05-09T17:09:44.078Z,,,,,,,,,,,,,,,,,53,,,,,,,,,,,,,,808.7670000476792,,response,,,,99,,,,,,,Space,keypress(Space),,,,,,,,---- -- comes -- ------ - ------- --- ----------<br>------------- ------ ------ ---- ---- ------- ----- -- ----<br>-------- ------- -- ---------- --- - --- ----- ----- ----<br>---- --- --- ----- --- ---- ---- ------- ----- ---- -------<br>--- --- -- ----- -- --- ---- -- --- ---- -- ------ ------<br>--- ----- -- ----,105845.30000007153,105844.20000004768,105019.036,105029.20000004768,105035.433,105851.808,,2,comes
screen,html.Screen,2_1_0_1_3,2022-05-09T17:09:44.544Z,,,,,,,,,,,,,,,,,53,,,,,,,,,,,,,,458.2920000238373,,response,,,,99,,,,,,,Space,keypress(Space),,,,,,,,---- -- ----- to ------ - ------- --- ----------<br>------------- ------ ------ ---- ---- ------- ----- -- ----<br>-------- ------- -- ---------- --- - --- ----- ----- ----<br>---- --- --- ----- --- ---- ---- ------- ----- ---- -------<br>--- --- -- ----- -- --- ---- -- --- ---- -- ------ ------<br>--- ----- -- ----,106311,106310.10000002384,105835.303,105845.5,105851.808,106318.236,,3,to
screen,html.Screen,2_1_0_1_4,2022-05-09T17:09:45.061Z,,,,,,,,,,,,,,,,,53,,,,,,,,,,,,,,509.06400007152115,,response,,,,99,,,,,,,Space,keypress(Space),,,,,,,,---- -- ----- -- having - ------- --- ----------<br>------------- ------ ------ ---- ---- ------- ----- -- ----<br>-------- ------- -- ---------- --- - --- ----- ----- ----<br>---- --- --- ----- --- ---- ---- ------- ----- ---- -------<br>--- --- -- ----- -- --- ---- -- --- ---- -- ------ ------<br>--- ----- -- ----,106828.39999997616,106827.30000007153,106301.625,106311.30000007153,106318.236,106834.713,,4,having
screen,html.Screen,2_1_0_1_5,2022-05-09T17:09:45.530Z,,,,,,,,,,,,,,,,,53,,,,,,,,,,,,,,461.2869999999966,,response,,,,99,,,,,,,Space,keypress(Space),,,,,,,,---- -- ----- -- ------ a ------- --- ----------<br>------------- ------ ------ ---- ---- ------- ----- -- ----<br>-------- ------- -- ---------- --- - --- ----- ----- ----<br>---- --- --- ----- --- ---- ---- ------- ----- ---- -------<br>--- --- -- ----- -- --- ---- -- --- ---- -- ------ ------<br>--- ----- -- ----,107297,107296,106818.249,106828.70000004768,106834.713,107301.262,,5,a
screen,html.Screen,2_1_0_1_6,2022-05-09T17:09:46.220Z,,,,,,,,,,,,,,,,,53,,,,,,,,,,,,,,682.7379999999976,,response,,,,99,,,,,,,Space,keypress(Space),,,,,,,,---- -- ----- -- ------ - lasting --- ----------<br>------------- ------ ------ ---- ---- ------- ----- -- ----<br>-------- ------- -- ---------- --- - --- ----- ----- ----<br>---- --- --- ----- --- ---- ---- ------- ----- ---- -------<br>--- --- -- ----- -- --- ---- -- --- ---- -- ------ ------<br>--- ----- -- ----,107987.30000007153,107984,107284.784,107297.30000007153,107301.262,108000.975,,6,lasting
screen,html.Screen,2_1_0_1_7,2022-05-09T17:09:46.819Z,,,,,,,,,,,,,,,,,53,,,,,,,,,,,,,,583.9249999761523,,response,,,,99,,,,,,,Space,keypress(Space),,,,,,,,---- -- ----- -- ------ - ------- and ----------<br>------------- ------ ------ ---- ---- ------- ----- -- ----<br>-------- ------- -- ---------- --- - --- ----- ----- ----<br>---- --- --- ----- --- ---- ---- ------- ----- ---- -------<br>--- --- -- ----- -- --- ---- -- --- ---- -- ------ ------<br>--- ----- -- ----,108586.20000004768,108584.89999997616,107984.385,107987.89999997616,108000.975,108601.011,,7,and
screen,html.Screen,2_1_0_1_8,2022-05-09T17:09:47.434Z,,,,,,,,,,,,,,,,,53,,,,,,,,,,,,,,599.4890000000014,,response,,,,99,,,,,,,Space,keypress(Space),,,,,,,,---- -- ----- -- ------ - ------- --- fulfilling<br>------------- ------ ------ ---- ---- ------- ----- -- ----<br>-------- ------- -- ---------- --- - --- ----- ----- ----<br>---- --- --- ----- --- ---- ---- ------- ----- ---- -------<br>--- --- -- ----- -- --- ---- -- --- ---- -- ------ ------<br>--- ----- -- ----,109201.39999997616,109200.5,108584.029,108586.5,108601.011,109217.134,,8,fulfilling
screen,html.Screen,2_1_0_1_9,2022-05-09T17:09:47.971Z,,,,,,,,,,,,,,,,,53,,,,,,,,,,,,,,520.2659999761527,,response,,,,99,,,,,,,Space,keypress(Space),,,,,,,,"---- -- ----- -- ------ - ------- --- ----------<br>relationship, ------ ------ ---- ---- ------- ----- -- ----<br>-------- ------- -- ---------- --- - --- ----- ----- ----<br>---- --- --- ----- --- ---- ---- ------- ----- ---- -------<br>--- --- -- ----- -- --- ---- -- --- ---- -- ------ ------<br>--- ----- -- ----",109738.30000007153,109737.39999997616,109200.484,109201.60000002384,109217.134,109750.239,,9,"relationship,"
screen,html.Screen,2_1_0_1_10,2022-05-09T17:09:48.479Z,,,,,,,,,,,,,,,,,53,,,,,,,,,,,,,,495.66099997615675,,response,,,,99,,,,,,,Space,keypress(Space),,,,,,,,---- -- ----- -- ------ - ------- --- ----------<br>------------- common ------ ---- ---- ------- ----- -- ----<br>-------- ------- -- ---------- --- - --- ----- ----- ----<br>---- --- --- ----- --- ---- ---- ------- ----- ---- -------<br>--- --- -- ----- -- --- ---- -- --- ---- -- ------ ------<br>--- ----- -- ----,110246.80000007153,110245.89999997616,109733.831,109738.39999997616,109750.239,110250.087,,10,common
screen,html.Screen,2_1_0_1_11,2022-05-09T17:09:48.905Z,,,,,,,,,,,,,,,,,53,,,,,,,,,,,,,,421.3129999761586,,response,,,,99,,,,,,,Space,keypress(Space),,,,,,,,---- -- ----- -- ------ - ------- --- ----------<br>------------- ------ wisdom ---- ---- ------- ----- -- ----<br>-------- ------- -- ---------- --- - --- ----- ----- ----<br>---- --- --- ----- --- ---- ---- ------- ----- ---- -------<br>--- --- -- ----- -- --- ---- -- --- ---- -- ------ ------<br>--- ----- -- ----,110672.30000007153,110671.39999997616,110233.342,110247.10000002384,110250.087,110683.389,,11,wisdom
screen,html.Screen,2_1_0_1_12,2022-05-09T17:09:49.342Z,,,,,,,,,,,,,,,,,53,,,,,,,,,,,,,,424.91100007153,,response,,,,99,,,,,,,Space,keypress(Space),,,,,,,,---- -- ----- -- ------ - ------- --- ----------<br>------------- ------ ------ says ---- ------- ----- -- ----<br>-------- ------- -- ---------- --- - --- ----- ----- ----<br>---- --- --- ----- --- ---- ---- ------- ----- ---- -------<br>--- --- -- ----- -- --- ---- -- --- ---- -- ------ ------<br>--- ----- -- ----,111109.39999997616,111108.30000007153,110666.506,110672.5,110683.389,111116.293,,12,says
screen,html.Screen,2_1_0_1_13,2022-05-09T17:09:49.739Z,,,,,,,,,,,,,,,,,53,,,,,,,,,,,,,,388.00700007152045,,response,,,,99,,,,,,,Space,keypress(Space),,,,,,,,---- -- ----- -- ------ - ------- --- ----------<br>------------- ------ ------ ---- that ------- ----- -- ----<br>-------- ------- -- ---------- --- - --- ----- ----- ----<br>---- --- --- ----- --- ---- ---- ------- ----- ---- -------<br>--- --- -- ----- -- --- ---- -- --- ---- -- ------ ------<br>--- ----- -- ----,111505.89999997616,111504.30000007153,111099.851,111109.70000004768,111116.293,111516.486,,13,that
screen,html.Screen,2_1_0_1_14,2022-05-09T17:09:50.120Z,,,,,,,,,,,,,,,,,53,,,,,,,,,,,,,,369.5139999999956,,response,,,,99,,,,,,,Space,keypress(Space),,,,,,,,---- -- ----- -- ------ - ------- --- ----------<br>------------- ------ ------ ---- ---- feeling ----- -- ----<br>-------- ------- -- ---------- --- - --- ----- ----- ----<br>---- --- --- ----- --- ---- ---- ------- ----- ---- -------<br>--- --- -- ----- -- --- ---- -- --- ---- -- ------ ------<br>--- ----- -- ----,111886.89999997616,111886,111499.485,111506.20000004768,111516.486,111899.412,,14,feeling
screen,html.Screen,2_1_0_1_15,2022-05-09T17:09:50.476Z,,,,,,,,,,,,,,,,,53,,,,,,,,,,,,,,342.7880000476871,,response,,,,99,,,,,,,Space,keypress(Space),,,,,,,,---- -- ----- -- ------ - ------- --- ----------<br>------------- ------ ------ ---- ---- ------- close -- ----<br>-------- ------- -- ---------- --- - --- ----- ----- ----<br>---- --- --- ----- --- ---- ---- ------- ----- ---- -------<br>--- --- -- ----- -- --- ---- -- --- ---- -- ------ ------<br>--- ----- -- ----,112243.5,112242.20000004768,111882.959,111887.20000004768,111899.412,112249.209,,15,close
screen,html.Screen,2_1_0_1_16,2022-05-09T17:09:50.835Z,,,,,,,,,,,,,,,,,53,,,,,,,,,,,,,,351.6909999761556,,response,,,,99,,,,,,,Space,keypress(Space),,,,,,,,---- -- ----- -- ------ - ------- --- ----------<br>------------- ------ ------ ---- ---- ------- ----- to ----<br>-------- ------- -- ---------- --- - --- ----- ----- ----<br>---- --- --- ----- --- ---- ---- ------- ----- ---- -------<br>--- --- -- ----- -- --- ---- -- --- ---- -- ------ ------<br>--- ----- -- ----,112602,112600.89999997616,112232.744,112243.70000004768,112249.209,112616.11,,16,to
screen,html.Screen,2_1_0_1_17,2022-05-09T17:09:51.202Z,,,,,,,,,,,,,,,,,53,,,,,,,,,,,,,,352.8899999999994,,response,,,,99,,,,,,,Space,keypress(Space),,,,,,,,---- -- ----- -- ------ - ------- --- ----------<br>------------- ------ ------ ---- ---- ------- ----- -- your<br>-------- ------- -- ---------- --- - --- ----- ----- ----<br>---- --- --- ----- --- ---- ---- ------- ----- ---- -------<br>--- --- -- ----- -- --- ---- -- --- ---- -- ------ ------<br>--- ----- -- ----,112969.60000002384,112969,112599.206,112602.30000007153,112616.11,112982.54,,17,your
screen,html.Screen,2_1_0_1_18,2022-05-09T17:09:51.581Z,,,,,,,,,,,,,,,,,53,,,,,,,,,,,,,,365.35999997616454,,response,,,,99,,,,,,,Space,keypress(Space),,,,,,,,---- -- ----- -- ------ - ------- --- ----------<br>------------- ------ ------ ---- ---- ------- ----- -- ----<br>romantic ------- -- ---------- --- - --- ----- ----- ----<br>---- --- --- ----- --- ---- ---- ------- ----- ---- -------<br>--- --- -- ----- -- --- ---- -- --- ---- -- ------ ------<br>--- ----- -- ----,113348.39999997616,113347.89999997616,112965.652,112969.80000007153,112982.54,113365.433,,18,romantic
screen,html.Screen,2_1_0_1_19,2022-05-09T17:09:51.947Z,,,,,,,,,,,,,,,,,53,,,,,,,,,,,,,,348.1670000238373,,response,,,,99,,,,,,,Space,keypress(Space),,,,,,,,---- -- ----- -- ------ - ------- --- ----------<br>------------- ------ ------ ---- ---- ------- ----- -- ----<br>-------- partner -- ---------- --- - --- ----- ----- ----<br>---- --- --- ----- --- ---- ---- ------- ----- ---- -------<br>--- --- -- ----- -- --- ---- -- --- ---- -- ------ ------<br>--- ----- -- ----,113714.5,113713.60000002384,113332.423,113348.60000002384,113365.433,113732.332,,19,partner
screen,html.Screen,2_1_0_1_20,2022-05-09T17:09:52.293Z,,,,,,,,,,,,,,,,,53,,,,,,,,,,,,,,326.56799997616326,,response,,,,99,,,,,,,Space,keypress(Space),,,,,,,,---- -- ----- -- ------ - ------- --- ----------<br>------------- ------ ------ ---- ---- ------- ----- -- ----<br>-------- ------- is ---------- --- - --- ----- ----- ----<br>---- --- --- ----- --- ---- ---- ------- ----- ---- -------<br>--- --- -- ----- -- --- ---- -- --- ---- -- ------ ------<br>--- ----- -- ----,114059.89999997616,114058.89999997616,113715.326,113714.70000004768,113732.332,114065.178,,20,is
screen,html.Screen,2_1_0_1_21,2022-05-09T17:09:52.634Z,,,,,,,,,,,,,,,,,53,,,,,,,,,,,,,,335.22199997615826,,response,,,,99,,,,,,,Space,keypress(Space),,,,,,,,---- -- ----- -- ------ - ------- --- ----------<br>------------- ------ ------ ---- ---- ------- ----- -- ----<br>-------- ------- -- paramount. --- - --- ----- ----- ----<br>---- --- --- ----- --- ---- ---- ------- ----- ---- -------<br>--- --- -- ----- -- --- ---- -- --- ---- -- ------ ------<br>--- ----- -- ----,114401,114400.39999997616,114048.754,114060.10000002384,114065.178,114414.968,,21,paramount.
screen,html.Screen,2_1_0_1_22,2022-05-09T17:09:53.010Z,,,,,,,,,,,,,,,,,53,,,,,,,,,,,,,,361.23200004769024,,response,,,,99,,,,,,,Space,keypress(Space),,,,,,,,---- -- ----- -- ------ - ------- --- ----------<br>------------- ------ ------ ---- ---- ------- ----- -- ----<br>-------- ------- -- ---------- But - --- ----- ----- ----<br>---- --- --- ----- --- ---- ---- ------- ----- ---- -------<br>--- --- -- ----- -- --- ---- -- --- ---- -- ------ ------<br>--- ----- -- ----,114777.30000007153,114776.20000004768,114398.329,114401.20000004768,114414.968,114781.561,,22,But
screen,html.Screen,2_1_0_1_23,2022-05-09T17:09:53.336Z,,,,,,,,,,,,,,,,,53,,,,,,,,,,,,,,320.9389999999985,,response,,,,99,,,,,,,Space,keypress(Space),,,,,,,,---- -- ----- -- ------ - ------- --- ----------<br>------------- ------ ------ ---- ---- ------- ----- -- ----<br>-------- ------- -- ---------- --- a --- ----- ----- ----<br>---- --- --- ----- --- ---- ---- ------- ----- ---- -------<br>--- --- -- ----- -- --- ---- -- --- ---- -- ------ ------<br>--- ----- -- ----,115103.39999997616,115102.5,114764.904,114777.5,114781.561,115115.092,,23,a
screen,html.Screen,2_1_0_1_24,2022-05-09T17:09:53.680Z,,,,,,,,,,,,,,,,,53,,,,,,,,,,,,,,331.7080000715214,,response,,,,99,,,,,,,Space,keypress(Space),,,,,,,,---- -- ----- -- ------ - ------- --- ----------<br>------------- ------ ------ ---- ---- ------- ----- -- ----<br>-------- ------- -- ---------- --- - new ----- ----- ----<br>---- --- --- ----- --- ---- ---- ------- ----- ---- -------<br>--- --- -- ----- -- --- ---- -- --- ---- -- ------ ------<br>--- ----- -- ----,115447.80000007153,115446.80000007153,115098.357,115103.60000002384,115115.092,115464.704,,24,new
screen,html.Screen,2_1_0_1_25,2022-05-09T17:09:53.984Z,,,,,,,,,,,,,,,,,53,,,,,,,,,,,,,,285.19599997616024,,response,,,,99,,,,,,,Space,keypress(Space),,,,,,,,---- -- ----- -- ------ - ------- --- ----------<br>------------- ------ ------ ---- ---- ------- ----- -- ----<br>-------- ------- -- ---------- --- - --- study ----- ----<br>---- --- --- ----- --- ---- ---- ------- ----- ---- -------<br>--- --- -- ----- -- --- ---- -- --- ---- -- ------ ------<br>--- ----- -- ----,115751.20000004768,115749.89999997616,115447.978,115448,115464.704,115764.888,,25,study
screen,html.Screen,2_1_0_1_26,2022-05-09T17:09:54.308Z,,,,,,,,,,,,,,,,,53,,,,,,,,,,,,,,310.01199997615186,,response,,,,99,,,,,,,Space,keypress(Space),,,,,,,,---- -- ----- -- ------ - ------- --- ----------<br>------------- ------ ------ ---- ---- ------- ----- -- ----<br>-------- ------- -- ---------- --- - --- ----- finds ----<br>---- --- --- ----- --- ---- ---- ------- ----- ---- -------<br>--- --- -- ----- -- --- ---- -- --- ---- -- ------ ------<br>--- ----- -- ----,116075.70000004768,116074.89999997616,115748.122,115751.30000007153,115764.888,116081.062,,26,finds
screen,html.Screen,2_1_0_1_27,2022-05-09T17:09:54.622Z,,,,,,,,,,,,,,,,,53,,,,,,,,,,,,,,306.7380000715202,,response,,,,99,,,,,,,Space,keypress(Space),,,,,,,,---- -- ----- -- ------ - ------- --- ----------<br>------------- ------ ------ ---- ---- ------- ----- -- ----<br>-------- ------- -- ---------- --- - --- ----- ----- that<br>---- --- --- ----- --- ---- ---- ------- ----- ---- -------<br>--- --- -- ----- -- --- ---- -- --- ---- -- ------ ------<br>--- ----- -- ----,116388.89999997616,116387.80000007153,116064.455,116075.89999997616,116081.062,116397.667,,27,that
screen,html.Screen,2_1_0_1_28,2022-05-09T17:09:54.947Z,,,,,,,,,,,,,,,,,53,,,,,,,,,,,,,,315.73299997615686,,response,,,,99,,,,,,,Space,keypress(Space),,,,,,,,---- -- ----- -- ------ - ------- --- ----------<br>------------- ------ ------ ---- ---- ------- ----- -- ----<br>-------- ------- -- ---------- --- - --- ----- ----- ----<br>it's --- --- ----- --- ---- ---- ------- ----- ---- -------<br>--- --- -- ----- -- --- ---- -- --- ---- -- ------ ------<br>--- ----- -- ----,116714.60000002384,116713.39999997616,116380.921,116389.20000004768,116397.667,116730.779,,28,it's
screen,html.Screen,2_1_0_1_29,2022-05-09T17:09:55.219Z,,,,,,,,,,,,,,,,,53,,,,,,,,,,,,,,254.62099997616315,,response,,,,99,,,,,,,Space,keypress(Space),,,,,,,,---- -- ----- -- ------ - ------- --- ----------<br>------------- ------ ------ ---- ---- ------- ----- -- ----<br>-------- ------- -- ---------- --- - --- ----- ----- ----<br>---- not --- ----- --- ---- ---- ------- ----- ---- -------<br>--- --- -- ----- -- --- ---- -- --- ---- -- ------ ------<br>--- ----- -- ----,116986.5,116985.39999997616,116714.417,116714.80000007153,116730.779,116997.404,,29,not
screen,html.Screen,2_1_0_1_30,2022-05-09T17:09:55.497Z,,,,,,,,,,,,,,,,,53,,,,,,,,,,,,,,265.69600002384686,,response,,,,99,,,,,,,Space,keypress(Space),,,,,,,,---- -- ----- -- ------ - ------- --- ----------<br>------------- ------ ------ ---- ---- ------- ----- -- ----<br>-------- ------- -- ---------- --- - --- ----- ----- ----<br>---- --- how ----- --- ---- ---- ------- ----- ---- -------<br>--- --- -- ----- -- --- ---- -- --- ---- -- ------ ------<br>--- ----- -- ----,117264.20000004768,117263.10000002384,116980.926,116986.80000007153,116997.404,117280.88,,30,how
screen,html.Screen,2_1_0_1_31,2022-05-09T17:09:55.790Z,,,,,,,,,,,,,,,,,53,,,,,,,,,,,,,,275.5199999761535,,response,,,,99,,,,,,,Space,keypress(Space),,,,,,,,---- -- ----- -- ------ - ------- --- ----------<br>------------- ------ ------ ---- ---- ------- ----- -- ----<br>-------- ------- -- ---------- --- - --- ----- ----- ----<br>---- --- --- close --- ---- ---- ------- ----- ---- -------<br>--- --- -- ----- -- --- ---- -- --- ---- -- ------ ------<br>--- ----- -- ----,117557.10000002384,117556.39999997616,117263.877,117264.5,117280.88,117563.798,,31,close
screen,html.Screen,2_1_0_1_32,2022-05-09T17:09:56.064Z,,,,,,,,,,,,,,,,,53,,,,,,,,,,,,,,266.9020000476885,,response,,,,99,,,,,,,Space,keypress(Space),,,,,,,,---- -- ----- -- ------ - ------- --- ----------<br>------------- ------ ------ ---- ---- ------- ----- -- ----<br>-------- ------- -- ---------- --- - --- ----- ----- ----<br>---- --- --- ----- you ---- ---- ------- ----- ---- -------<br>--- --- -- ----- -- --- ---- -- --- ---- -- ------ ------<br>--- ----- -- ----,117831.70000004768,117830.70000004768,117547.429,117557.20000004768,117563.798,117847.336,,32,you
screen,html.Screen,2_1_0_1_33,2022-05-09T17:09:56.352Z,,,,,,,,,,,,,,,,,53,,,,,,,,,,,,,,271.26400002384617,,response,,,,99,,,,,,,Space,keypress(Space),,,,,,,,---- -- ----- -- ------ - ------- --- ----------<br>------------- ------ ------ ---- ---- ------- ----- -- ----<br>-------- ------- -- ---------- --- - --- ----- ----- ----<br>---- --- --- ----- --- feel ---- ------- ----- ---- -------<br>--- --- -- ----- -- --- ---- -- --- ---- -- ------ ------<br>--- ----- -- ----,118119.39999997616,118118.60000002384,117830.573,117832.10000002384,117847.336,118130.415,,33,feel
screen,html.Screen,2_1_0_1_34,2022-05-09T17:09:56.630Z,,,,,,,,,,,,,,,,,53,,,,,,,,,,,,,,265.5850000000064,,response,,,,99,,,,,,,Space,keypress(Space),,,,,,,,---- -- ----- -- ------ - ------- --- ----------<br>------------- ------ ------ ---- ---- ------- ----- -- ----<br>-------- ------- -- ---------- --- - --- ----- ----- ----<br>---- --- --- ----- --- ---- that ------- ----- ---- -------<br>--- --- -- ----- -- --- ---- -- --- ---- -- ------ ------<br>--- ----- -- ----,118397.10000002384,118396,118113.893,118119.60000002384,118130.415,118413.823,,34,that
screen,html.Screen,2_1_0_1_35,2022-05-09T17:09:56.954Z,,,,,,,,,,,,,,,,,53,,,,,,,,,,,,,,306.7770000238379,,response,,,,99,,,,,,,Space,keypress(Space),,,,,,,,---- -- ----- -- ------ - ------- --- ----------<br>------------- ------ ------ ---- ---- ------- ----- -- ----<br>-------- ------- -- ---------- --- - --- ----- ----- ----<br>---- --- --- ----- --- ---- ---- matters ----- ---- -------<br>--- --- -- ----- -- --- ---- -- --- ---- -- ------ ------<br>--- ----- -- ----,118721.30000007153,118720.60000002384,118397.006,118397.30000007153,118413.823,118729.939,,35,matters
screen,html.Screen,2_1_0_1_36,2022-05-09T17:09:57.301Z,,,,,,,,,,,,,,,,,53,,,,,,,,,,,,,,336.8610000715271,,response,,,,99,,,,,,,Space,keypress(Space),,,,,,,,"---- -- ----- -- ------ - ------- --- ----------<br>------------- ------ ------ ---- ---- ------- ----- -- ----<br>-------- ------- -- ---------- --- - --- ----- ----- ----<br>---- --- --- ----- --- ---- ---- ------- most, ---- -------<br>--- --- -- ----- -- --- ---- -- --- ---- -- ------ ------<br>--- ----- -- ----",119067.89999997616,119066.80000007153,118713.519,118721.39999997616,118729.939,119079.916,,36,"most,"
screen,html.Screen,2_1_0_1_37,2022-05-09T17:09:57.663Z,,,,,,,,,,,,,,,,,53,,,,,,,,,,,,,,349.38400007152813,,response,,,,99,,,,,,,Space,keypress(Space),,,,,,,,---- -- ----- -- ------ - ------- --- ----------<br>------------- ------ ------ ---- ---- ------- ----- -- ----<br>-------- ------- -- ---------- --- - --- ----- ----- ----<br>---- --- --- ----- --- ---- ---- ------- ----- it's -------<br>--- --- -- ----- -- --- ---- -- --- ---- -- ------ ------<br>--- ----- -- ----,119430.30000007153,119429.30000007153,119063.085,119068.39999997616,119079.916,119446.763,,37,it's
screen,html.Screen,2_1_0_1_38,2022-05-09T17:09:58.010Z,,,,,,,,,,,,,,,,,53,,,,,,,,,,,,,,329.33700002383557,,response,,,,99,,,,,,,Space,keypress(Space),,,,,,,,---- -- ----- -- ------ - ------- --- ----------<br>------------- ------ ------ ---- ---- ------- ----- -- ----<br>-------- ------- -- ---------- --- - --- ----- ----- ----<br>---- --- --- ----- --- ---- ---- ------- ----- ---- whether<br>--- --- -- ----- -- --- ---- -- --- ---- -- ------ ------<br>--- ----- -- ----,119777,119776.10000002384,119429.685,119430.5,119446.763,119779.569,,38,whether
screen,html.Screen,2_1_0_1_39,2022-05-09T17:09:58.334Z,,,,,,,,,,,,,,,,,53,,,,,,,,,,,,,,320.5310000238387,,response,,,,99,,,,,,,Space,keypress(Space),,,,,,,,---- -- ----- -- ------ - ------- --- ----------<br>------------- ------ ------ ---- ---- ------- ----- -- ----<br>-------- ------- -- ---------- --- - --- ----- ----- ----<br>---- --- --- ----- --- ---- ---- ------- ----- ---- -------<br>you --- -- ----- -- --- ---- -- --- ---- -- ------ ------<br>--- ----- -- ----,120101.30000007153,120100.10000002384,119763.055,119777.30000007153,119779.569,120112.794,,39,you
screen,html.Screen,2_1_0_1_40,2022-05-09T17:09:58.637Z,,,,,,,,,,,,,,,,,53,,,,,,,,,,,,,,290.4060000476893,,response,,,,99,,,,,,,Space,keypress(Space),,,,,,,,---- -- ----- -- ------ - ------- --- ----------<br>------------- ------ ------ ---- ---- ------- ----- -- ----<br>-------- ------- -- ---------- --- - --- ----- ----- ----<br>---- --- --- ----- --- ---- ---- ------- ----- ---- -------<br>--- are -- ----- -- --- ---- -- --- ---- -- ------ ------<br>--- ----- -- ----,120404,120403.20000004768,120096.331,120101.5,120112.794,120412.685,,40,are
screen,html.Screen,2_1_0_1_41,2022-05-09T17:09:58.943Z,,,,,,,,,,,,,,,,,53,,,,,,,,,,,,,,295.51500004768604,,response,,,,99,,,,,,,Space,keypress(Space),,,,,,,,---- -- ----- -- ------ - ------- --- ----------<br>------------- ------ ------ ---- ---- ------- ----- -- ----<br>-------- ------- -- ---------- --- - --- ----- ----- ----<br>---- --- --- ----- --- ---- ---- ------- ----- ---- -------<br>--- --- as ----- -- --- ---- -- --- ---- -- ------ ------<br>--- ----- -- ----,120710,120708.20000004768,120396.045,120404.30000007153,120412.685,120712.484,,41,as
screen,html.Screen,2_1_0_1_42,2022-05-09T17:09:59.254Z,,,,,,,,,,,,,,,,,53,,,,,,,,,,,,,,308.4159999761614,,response,,,,99,,,,,,,Space,keypress(Space),,,,,,,,---- -- ----- -- ------ - ------- --- ----------<br>------------- ------ ------ ---- ---- ------- ----- -- ----<br>-------- ------- -- ---------- --- - --- ----- ----- ----<br>---- --- --- ----- --- ---- ---- ------- ----- ---- -------<br>--- --- -- close -- --- ---- -- --- ---- -- ------ ------<br>--- ----- -- ----,121021.80000007153,121020.89999997616,120696.115,120710.30000007153,120712.484,121029.108,,42,close
screen,html.Screen,2_1_0_1_43,2022-05-09T17:09:59.541Z,,,,,,,,,,,,,,,,,53,,,,,,,,,,,,,,278.3920000000071,,response,,,,99,,,,,,,Space,keypress(Space),,,,,,,,---- -- ----- -- ------ - ------- --- ----------<br>------------- ------ ------ ---- ---- ------- ----- -- ----<br>-------- ------- -- ---------- --- - --- ----- ----- ----<br>---- --- --- ----- --- ---- ---- ------- ----- ---- -------<br>--- --- -- ----- as --- ---- -- --- ---- -- ------ ------<br>--- ----- -- ----,121308.60000002384,121307.5,121012.665,121022,121029.108,121312.346,,43,as
screen,html.Screen,2_1_0_1_44,2022-05-09T17:09:59.875Z,,,,,,,,,,,,,,,,,53,,,,,,,,,,,,,,329.05399997615314,,response,,,,99,,,,,,,Space,keypress(Space),,,,,,,,---- -- ----- -- ------ - ------- --- ----------<br>------------- ------ ------ ---- ---- ------- ----- -- ----<br>-------- ------- -- ---------- --- - --- ----- ----- ----<br>---- --- --- ----- --- ---- ---- ------- ----- ---- -------<br>--- --- -- ----- -- you ---- -- --- ---- -- ------ ------<br>--- ----- -- ----,121642.39999997616,121641.39999997616,121295.849,121308.80000007153,121312.346,121645.497,,44,you
screen,html.Screen,2_1_0_1_45,2022-05-09T17:10:00.187Z,,,,,,,,,,,,,,,,,53,,,,,,,,,,,,,,308.2030000476807,,response,,,,99,,,,,,,Space,keypress(Space),,,,,,,,---- -- ----- -- ------ - ------- --- ----------<br>------------- ------ ------ ---- ---- ------- ----- -- ----<br>-------- ------- -- ---------- --- - --- ----- ----- ----<br>---- --- --- ----- --- ---- ---- ------- ----- ---- -------<br>--- --- -- ----- -- --- want -- --- ---- -- ------ ------<br>--- ----- -- ----,121954.60000002384,121953.70000004768,121629.002,121642.70000004768,121645.497,121962.055,,45,want
screen,html.Screen,2_1_0_1_46,2022-05-09T17:10:00.502Z,,,,,,,,,,,,,,,,,53,,,,,,,,,,,,,,306.3449999761651,,response,,,,99,,,,,,,Space,keypress(Space),,,,,,,,---- -- ----- -- ------ - ------- --- ----------<br>------------- ------ ------ ---- ---- ------- ----- -- ----<br>-------- ------- -- ---------- --- - --- ----- ----- ----<br>---- --- --- ----- --- ---- ---- ------- ----- ---- -------<br>--- --- -- ----- -- --- ---- to --- ---- -- ------ ------<br>--- ----- -- ----,122269,122268.39999997616,121945.408,121955,121962.055,122278.531,,46,to
screen,html.Screen,2_1_0_1_47,2022-05-09T17:10:00.887Z,,,,,,,,,,,,,,,,,53,,,,,,,,,,,,,,374.4689999999973,,response,,,,99,,,,,,,Space,keypress(Space),,,,,,,,"---- -- ----- -- ------ - ------- --- ----------<br>------------- ------ ------ ---- ---- ------- ----- -- ----<br>-------- ------- -- ---------- --- - --- ----- ----- ----<br>---- --- --- ----- --- ---- ---- ------- ----- ---- -------<br>--- --- -- ----- -- --- ---- -- be, ---- -- ------ ------<br>--- ----- -- ----",122654,122653,122261.952,122269.10000002384,122278.531,122661.729,,47,"be,"
screen,html.Screen,2_1_0_1_48,2022-05-09T17:10:01.418Z,,,,,,,,,,,,,,,,,53,,,,,,,,,,,,,,522.2709999999934,,response,,,,99,,,,,,,Space,keypress(Space),,,,,,,,---- -- ----- -- ------ - ------- --- ----------<br>------------- ------ ------ ---- ---- ------- ----- -- ----<br>-------- ------- -- ---------- --- - --- ----- ----- ----<br>---- --- --- ----- --- ---- ---- ------- ----- ---- -------<br>--- --- -- ----- -- --- ---- -- --- even -- ------ ------<br>--- ----- -- ----,123185,123184,122645.074,122654.30000007153,122661.729,123195.125,,48,even
screen,html.Screen,2_1_0_1_49,2022-05-09T17:10:01.854Z,,,,,,,,,,,,,,,,,53,,,,,,,,,,,,,,424.97500002384186,,response,,,,99,,,,,,,Space,keypress(Space),,,,,,,,---- -- ----- -- ------ - ------- --- ----------<br>------------- ------ ------ ---- ---- ------- ----- -- ----<br>-------- ------- -- ---------- --- - --- ----- ----- ----<br>---- --- --- ----- --- ---- ---- ------- ----- ---- -------<br>--- --- -- ----- -- --- ---- -- --- ---- if ------ ------<br>--- ----- -- ----,123621,123620.10000002384,123178.338,123185.30000007153,123195.125,123627.999,,49,if
screen,html.Screen,2_1_0_1_50,2022-05-09T17:10:02.379Z,,,,,,,,,,,,,,,,,53,,,,,,,,,,,,,,517.8010000715294,,response,,,,99,,,,,,,Space,keypress(Space),,,,,,,,---- -- ----- -- ------ - ------- --- ----------<br>------------- ------ ------ ---- ---- ------- ----- -- ----<br>-------- ------- -- ---------- --- - --- ----- ----- ----<br>---- --- --- ----- --- ---- ---- ------- ----- ---- -------<br>--- --- -- ----- -- --- ---- -- --- ---- -- that's ------<br>--- ----- -- ----,124146.89999997616,124145.80000007153,123611.6,123621.30000007153,123627.999,124161.134,,50,that's
screen,html.Screen,2_1_0_1_51,2022-05-09T17:10:02.777Z,,,,,,,,,,,,,,,,,53,,,,,,,,,,,,,,381.86599999999453,,response,,,,99,,,,,,,Space,keypress(Space),,,,,,,,---- -- ----- -- ------ - ------- --- ----------<br>------------- ------ ------ ---- ---- ------- ----- -- ----<br>-------- ------- -- ---------- --- - --- ----- ----- ----<br>---- --- --- ----- --- ---- ---- ------- ----- ---- -------<br>--- --- -- ----- -- --- ---- -- --- ---- -- ------ really<br>--- ----- -- ----,124544.20000004768,124543,124144.526,124147,124161.134,124561.372,,51,really
screen,html.Screen,2_1_0_1_52,2022-05-09T17:10:03.149Z,,,,,,,,,,,,,,,,,53,,,,,,,,,,,,,,354.3280000476807,,response,,,,99,,,,,,,Space,keypress(Space),,,,,,,,---- -- ----- -- ------ - ------- --- ----------<br>------------- ------ ------ ---- ---- ------- ----- -- ----<br>-------- ------- -- ---------- --- - --- ----- ----- ----<br>---- --- --- ----- --- ---- ---- ------- ----- ---- -------<br>--- --- -- ----- -- --- ---- -- --- ---- -- ------ ------<br>not ----- -- ----,124916.5,124915.70000004768,124544.324,124544.5,124561.372,124927.497,,52,not
screen,html.Screen,2_1_0_1_53,2022-05-09T17:10:03.536Z,,,,,,,,,,,,,,,,,53,,,,,,,,,,,,,,374.80300007152255,,response,,,,99,,,,,,,Space,keypress(Space),,,,,,,,---- -- ----- -- ------ - ------- --- ----------<br>------------- ------ ------ ---- ---- ------- ----- -- ----<br>-------- ------- -- ---------- --- - --- ----- ----- ----<br>---- --- --- ----- --- ---- ---- ------- ----- ---- -------<br>--- --- -- ----- -- --- ---- -- --- ---- -- ------ ------<br>--- close -- ----,125303.20000004768,125302.30000007153,124911.091,124916.60000002384,124927.497,125310.687,,53,close
screen,html.Screen,2_1_0_1_54,2022-05-09T17:10:03.947Z,,,,,,,,,,,,,,,,,53,,,,,,,,,,,,,,402.31299999999464,,response,,,,99,,,,,,,Space,keypress(Space),,,,,,,,---- -- ----- -- ------ - ------- --- ----------<br>------------- ------ ------ ---- ---- ------- ----- -- ----<br>-------- ------- -- ---------- --- - --- ----- ----- ----<br>---- --- --- ----- --- ---- ---- ------- ----- ---- -------<br>--- --- -- ----- -- --- ---- -- --- ---- -- ------ ------<br>--- ----- at ----,125714,125713,125294.014,125303.60000002384,125310.687,125727.225,,54,at
screen,html.Screen,2_1_0_1_55,2022-05-09T17:10:04.388Z,,,,,,,,,,,,,,,,,53,,,,,,,,,,,,,,426.6749999761523,,response,,,,99,,,,,,,Space,keypress(Space),,,,,,,,---- -- ----- -- ------ - ------- --- ----------<br>------------- ------ ------ ---- ---- ------- ----- -- ----<br>-------- ------- -- ---------- --- - --- ----- ----- ----<br>---- --- --- ----- --- ---- ---- ------- ----- ---- -------<br>--- --- -- ----- -- --- ---- -- --- ---- -- ------ ------<br>--- ----- -- all.,126155,126153.89999997616,125710.707,125714.39999997616,125727.225,126160.35,,55,all.
Item 99,flow.Loop,2_1_0_1,2022-05-09T17:10:04.388Z,,,,,,,,,,,,,,,,,,,,,,,,,,,,,,,22817.821999976164,,completion,,,,,G,,,,,,,,,,,silence,,,,,126155.5,126153.89999997616,103286.165,103287.89999997616,103336.078,126160.35,,,
Question 1,html.Screen,2_1_0_2,2022-05-09T17:10:08.276Z,,,,,,,,,,,,,,,,,,,,,,,,,,,,true,FALSE,,3881.250000023836,,response,,,,99,G,,,,,,FALSE,click #choice-2,,,,silence,,,,,130043.5,130041.60000002384,126143.98,126155.70000004768,126160.35,130058.865,,,
Question 2,html.Screen,2_1_0_3,2022-05-09T17:10:11.880Z,,,,,,,,,,,,,,,,,,,,,,,,,,,,true,TRUE,,3586.034999976153,,response,,,,99,G,,,,,,TRUE,click #choice-1,,,,silence,,,,,133647.10000002384,133644.89999997616,130042.088,130043.89999997616,130058.865,133657.403,,,
Item 99,flow.Sequence,2_1_0,2022-05-09T17:10:11.880Z,,,,,,,,,,,,,,,,,,,,,,,,,,,,,,,40338.07399997616,,completion,,,,,,,,,,,,,,,,,,,,,133647.39999997616,133644.89999997616,93290.219,93297.89999997616,93306.826,133657.403,,,
Holding screen,html.Screen,2_1_1_0,2022-05-09T17:10:21.870Z,,,,,,,,,,,,,,,,,,,,,,,,,,,,,,,9996.021999999997,,timeout,,,,,,,,,,,,,,,,,,,,,143637.89999997616,143636.751,133640.971,133647.60000002384,133657.403,143653.425,,,
screen,html.Screen,2_1_1_1_0,2022-05-09T17:10:26.270Z,,,,,,,,,,,,,,,,,54,,,,,,,,,,,,,,4383.6750000238535,,response,,,,100,,,,,,,Space,keypress(Space),,,,,,,,At --- ---- --- ------ ----- ------- ---- -- --- ------- --<br>------- ---------- ------ -- ----- -- ----- -- ---- ------<br>--- ----- --- --- ------ -------- ----- --- ------ ----- --<br>----- ----- ---------- --- --- ------ ------ ---- -- ------<br>------- --- ------ ----- --- ---- ------- -- ---- --- --<br>------- ------,148037.89999997616,148037.10000002384,143636.751,143638.20000004768,143653.425,148051.584,,0,At
screen,html.Screen,2_1_1_1_1,2022-05-09T17:10:26.849Z,,,,,,,,,,,,,,,,,54,,,,,,,,,,,,,,564.1160000476812,,response,,,,100,,,,,,,Space,keypress(Space),,,,,,,,-- the ---- --- ------ ----- ------- ---- -- --- ------- --<br>------- ---------- ------ -- ----- -- ----- -- ---- ------<br>--- ----- --- --- ------ -------- ----- --- ------ ----- --<br>----- ----- ---------- --- --- ------ ------ ---- -- ------<br>------- --- ------ ----- --- ---- ------- -- ---- --- --<br>------- ------,148616.70000004768,148615.70000004768,148035.225,148038,148051.584,148645.705,,1,the
screen,html.Screen,2_1_1_1_2,2022-05-09T17:10:31.839Z,,,,,,,,,,,,,,,,,54,,,,,,,,,,,,,,4959.395000023855,,response,,,,100,,,,,,,Space,keypress(Space),,,,,,,,-- --- time --- ------ ----- ------- ---- -- --- ------- --<br>------- ---------- ------ -- ----- -- ----- -- ---- ------<br>--- ----- --- --- ------ -------- ----- --- ------ ----- --<br>----- ----- ---------- --- --- ------ ------ ---- -- ------<br>------- --- ------ ----- --- ---- ------- -- ---- --- --<br>------- ------,153606.10000002384,153605.10000002384,148601.391,148617,148645.705,153616.1,,2,time
screen,html.Screen,2_1_1_1_3,2022-05-09T17:10:32.244Z,,,,,,,,,,,,,,,,,54,,,,,,,,,,,,,,394.50000002383604,,response,,,,100,,,,,,,Space,keypress(Space),,,,,,,,-- --- ---- the ------ ----- ------- ---- -- --- ------- --<br>------- ---------- ------ -- ----- -- ----- -- ---- ------<br>--- ----- --- --- ------ -------- ----- --- ------ ----- --<br>----- ----- ---------- --- --- ------ ------ ---- -- ------<br>------- --- ------ ----- --- ---- ------- -- ---- --- --<br>------- ------,154011.39999997616,154010.60000002384,153599.378,153606.5,153616.1,154015.954,,3,the
screen,html.Screen,2_1_1_1_4,2022-05-09T17:10:32.568Z,,,,,,,,,,,,,,,,,54,,,,,,,,,,,,,,319.2460000476858,,response,,,,100,,,,,,,Space,keypress(Space),,,,,,,,-- --- ---- --- French ----- ------- ---- -- --- ------- --<br>------- ---------- ------ -- ----- -- ----- -- ---- ------<br>--- ----- --- --- ------ -------- ----- --- ------ ----- --<br>----- ----- ---------- --- --- ------ ------ ---- -- ------<br>------- --- ------ ----- --- ---- ------- -- ---- --- --<br>------- ------,154335.80000007153,154335.20000004768,153999.499,154011.70000004768,154015.954,154349.216,,4,French
screen,html.Screen,2_1_1_1_5,2022-05-09T17:10:32.832Z,,,,,,,,,,,,,,,,,54,,,,,,,,,,,,,,248.98400004769792,,response,,,,100,,,,,,,Space,keypress(Space),,,,,,,,-- --- ---- --- ------ crown ------- ---- -- --- ------- --<br>------- ---------- ------ -- ----- -- ----- -- ---- ------<br>--- ----- --- --- ------ -------- ----- --- ------ ----- --<br>----- ----- ---------- --- --- ------ ------ ---- -- ------<br>------- --- ------ ----- --- ---- ------- -- ---- --- --<br>------- ------,154599.20000004768,154598.20000004768,154332.488,154335.89999997616,154349.216,154616.033,,5,crown
screen,html.Screen,2_1_1_1_6,2022-05-09T17:10:33.129Z,,,,,,,,,,,,,,,,,54,,,,,,,,,,,,,,279.26700007152976,,response,,,,100,,,,,,,Space,keypress(Space),,,,,,,,-- --- ---- --- ------ ----- secured ---- -- --- ------- --<br>------- ---------- ------ -- ----- -- ----- -- ---- ------<br>--- ----- --- --- ------ -------- ----- --- ------ ----- --<br>----- ----- ---------- --- --- ------ ------ ---- -- ------<br>------- --- ------ ----- --- ---- ------- -- ---- --- --<br>------- ------,154896.5,154895.30000007153,154599.024,154599.39999997616,154616.033,154898.886,,6,secured
screen,html.Screen,2_1_1_1_7,2022-05-09T17:10:33.350Z,,,,,,,,,,,,,,,,,54,,,,,,,,,,,,,,217.3140000476851,,response,,,,100,,,,,,,Space,keypress(Space),,,,,,,,-- --- ---- --- ------ ----- ------- much -- --- ------- --<br>------- ---------- ------ -- ----- -- ----- -- ---- ------<br>--- ----- --- --- ------ -------- ----- --- ------ ----- --<br>----- ----- ---------- --- --- ------ ------ ---- -- ------<br>------- --- ------ ----- --- ---- ------- -- ---- --- --<br>------- ------,155117.30000007153,155116.20000004768,154882.268,154896.80000007153,154898.886,155132.507,,7,much
screen,html.Screen,2_1_1_1_8,2022-05-09T17:10:33.664Z,,,,,,,,,,,,,,,,,54,,,,,,,,,,,,,,297.99299999998766,,response,,,,100,,,,,,,Space,keypress(Space),,,,,,,,-- --- ---- --- ------ ----- ------- ---- of --- ------- --<br>------- ---------- ------ -- ----- -- ----- -- ---- ------<br>--- ----- --- --- ------ -------- ----- --- ------ ----- --<br>----- ----- ---------- --- --- ------ ------ ---- -- ------<br>------- --- ------ ----- --- ---- ------- -- ---- --- --<br>------- ------,155431.39999997616,155430.5,155115.43,155117.5,155132.507,155448.687,,8,of
screen,html.Screen,2_1_1_1_9,2022-05-09T17:10:33.896Z,,,,,,,,,,,,,,,,,54,,,,,,,,,,,,,,214.51300004767836,,response,,,,100,,,,,,,Space,keypress(Space),,,,,,,,-- --- ---- --- ------ ----- ------- ---- -- its ------- --<br>------- ---------- ------ -- ----- -- ----- -- ---- ------<br>--- ----- --- --- ------ -------- ----- --- ------ ----- --<br>----- ----- ---------- --- --- ------ ------ ---- -- ------<br>------- --- ------ ----- --- ---- ------- -- ---- --- --<br>------- ------,155663.70000004768,155663.20000004768,155432.218,155431.70000004768,155448.687,155684.583,,9,its
screen,html.Screen,2_1_1_1_10,2022-05-09T17:10:34.110Z,,,,,,,,,,,,,,,,,54,,,,,,,,,,,,,,192.0170000238286,,response,,,,100,,,,,,,Space,keypress(Space),,,,,,,,-- --- ---- --- ------ ----- ------- ---- -- --- revenue --<br>------- ---------- ------ -- ----- -- ----- -- ---- ------<br>--- ----- --- --- ------ -------- ----- --- ------ ----- --<br>----- ----- ---------- --- --- ------ ------ ---- -- ------<br>------- --- ------ ----- --- ---- ------- -- ---- --- --<br>------- ------,155877.20000004768,155876.60000002384,155648.548,155663.80000007153,155684.583,155881.807,,10,revenue
screen,html.Screen,2_1_1_1_11,2022-05-09T17:10:34.331Z,,,,,,,,,,,,,,,,,54,,,,,,,,,,,,,,215.59299997615744,,response,,,,100,,,,,,,Space,keypress(Space),,,,,,,,-- --- ---- --- ------ ----- ------- ---- -- --- ------- by<br>------- ---------- ------ -- ----- -- ----- -- ---- ------<br>--- ----- --- --- ------ -------- ----- --- ------ ----- --<br>----- ----- ---------- --- --- ------ ------ ---- -- ------<br>------- --- ------ ----- --- ---- ------- -- ---- --- --<br>------- ------,156098.39999997616,156097.39999997616,155865.18,155877.39999997616,155881.807,156115.419,,11,by
screen,html.Screen,2_1_1_1_12,2022-05-09T17:10:34.606Z,,,,,,,,,,,,,,,,,54,,,,,,,,,,,,,,256.98099997616373,,response,,,,100,,,,,,,Space,keypress(Space),,,,,,,,-- --- ---- --- ------ ----- ------- ---- -- --- ------- --<br>issuing ---------- ------ -- ----- -- ----- -- ---- ------<br>--- ----- --- --- ------ -------- ----- --- ------ ----- --<br>----- ----- ---------- --- --- ------ ------ ---- -- ------<br>------- --- ------ ----- --- ---- ------- -- ---- --- --<br>------- ------,156373.30000007153,156372.39999997616,156098.639,156098.70000004768,156115.419,156381.677,,12,issuing
screen,html.Screen,2_1_1_1_13,2022-05-09T17:10:34.899Z,,,,,,,,,,,,,,,,,54,,,,,,,,,,,,,,283.7229999761621,,response,,,,100,,,,,,,Space,keypress(Space),,,,,,,,-- --- ---- --- ------ ----- ------- ---- -- --- ------- --<br>------- government ------ -- ----- -- ----- -- ---- ------<br>--- ----- --- --- ------ -------- ----- --- ------ ----- --<br>----- ----- ---------- --- --- ------ ------ ---- -- ------<br>------- --- ------ ----- --- ---- ------- -- ---- --- --<br>------- ------,156666.39999997616,156665.39999997616,156365.236,156373.5,156381.677,156681.908,,13,government
screen,html.Screen,2_1_1_1_14,2022-05-09T17:10:35.144Z,,,,,,,,,,,,,,,,,54,,,,,,,,,,,,,,228.89200007152976,,response,,,,100,,,,,,,Space,keypress(Space),,,,,,,,-- --- ---- --- ------ ----- ------- ---- -- --- ------- --<br>------- ---------- bonds. -- ----- -- ----- -- ---- ------<br>--- ----- --- --- ------ -------- ----- --- ------ ----- --<br>----- ----- ---------- --- --- ------ ------ ---- -- ------<br>------- --- ------ ----- --- ---- ------- -- ---- --- --<br>------- ------,156911.80000007153,156910.80000007153,156664.892,156666.70000004768,156681.908,156914.83,,14,bonds.
screen,html.Screen,2_1_1_1_15,2022-05-09T17:10:35.426Z,,,,,,,,,,,,,,,,,54,,,,,,,,,,,,,,277.4700000715384,,response,,,,100,,,,,,,Space,keypress(Space),,,,,,,,-- --- ---- --- ------ ----- ------- ---- -- --- ------- --<br>------- ---------- ------ In ----- -- ----- -- ---- ------<br>--- ----- --- --- ------ -------- ----- --- ------ ----- --<br>----- ----- ---------- --- --- ------ ------ ---- -- ------<br>------- --- ------ ----- --- ---- ------- -- ---- --- --<br>------- ------,157193.39999997616,157192.30000007153,156898.141,156912.10000002384,156914.83,157197.975,,15,In
screen,html.Screen,2_1_1_1_16,2022-05-09T17:10:35.721Z,,,,,,,,,,,,,,,,,54,,,,,,,,,,,,,,290.0249999999942,,response,,,,100,,,,,,,Space,keypress(Space),,,,,,,,"-- --- ---- --- ------ ----- ------- ---- -- --- ------- --<br>------- ---------- ------ -- 1727, -- ----- -- ---- ------<br>--- ----- --- --- ------ -------- ----- --- ------ ----- --<br>----- ----- ---------- --- --- ------ ------ ---- -- ------<br>------- --- ------ ----- --- ---- ------- -- ---- --- --<br>------- ------",157488.89999997616,157488,157181.601,157193.60000002384,157197.975,157497.799,,16,"1727,"
screen,html.Screen,2_1_1_1_17,2022-05-09T17:10:35.994Z,,,,,,,,,,,,,,,,,54,,,,,,,,,,,,,,262.6009999761591,,response,,,,100,,,,,,,Space,keypress(Space),,,,,,,,-- --- ---- --- ------ ----- ------- ---- -- --- ------- --<br>------- ---------- ------ -- ----- in ----- -- ---- ------<br>--- ----- --- --- ------ -------- ----- --- ------ ----- --<br>----- ----- ---------- --- --- ------ ------ ---- -- ------<br>------- --- ------ ----- --- ---- ------- -- ---- --- --<br>------- ------,157761.30000007153,157760.39999997616,157481.419,157490.80000007153,157497.799,157764.474,,17,in
screen,html.Screen,2_1_1_1_18,2022-05-09T17:10:36.238Z,,,,,,,,,,,,,,,,,54,,,,,,,,,,,,,,240.02600000001257,,response,,,,100,,,,,,,Space,keypress(Space),,,,,,,,-- --- ---- --- ------ ----- ------- ---- -- --- ------- --<br>------- ---------- ------ -- ----- -- order -- ---- ------<br>--- ----- --- --- ------ -------- ----- --- ------ ----- --<br>----- ----- ---------- --- --- ------ ------ ---- -- ------<br>------- --- ------ ----- --- ---- ------- -- ---- --- --<br>------- ------,158005.5,158004.5,157747.795,157761.5,157764.474,158014.296,,18,order
screen,html.Screen,2_1_1_1_19,2022-05-09T17:10:36.495Z,,,,,,,,,,,,,,,,,54,,,,,,,,,,,,,,247.2039999999979,,response,,,,100,,,,,,,Space,keypress(Space),,,,,,,,-- --- ---- --- ------ ----- ------- ---- -- --- ------- --<br>------- ---------- ------ -- ----- -- ----- to ---- ------<br>--- ----- --- --- ------ -------- ----- --- ------ ----- --<br>----- ----- ---------- --- --- ------ ------ ---- -- ------<br>------- --- ------ ----- --- ---- ------- -- ---- --- --<br>------- ------,158262.39999997616,158261.5,157997.908,158005.70000004768,158014.296,158292.433,,19,to
screen,html.Screen,2_1_1_1_20,2022-05-09T17:10:36.736Z,,,,,,,,,,,,,,,,,54,,,,,,,,,,,,,,210.16700002385187,,response,,,,100,,,,,,,Space,keypress(Space),,,,,,,,-- --- ---- --- ------ ----- ------- ---- -- --- ------- --<br>------- ---------- ------ -- ----- -- ----- -- save ------<br>--- ----- --- --- ------ -------- ----- --- ------ ----- --<br>----- ----- ---------- --- --- ------ ------ ---- -- ------<br>------- --- ------ ----- --- ---- ------- -- ---- --- --<br>------- ------,158503.5,158502.60000002384,158247.631,158262.60000002384,158292.433,158514.244,,20,save
screen,html.Screen,2_1_1_1_21,2022-05-09T17:10:36.960Z,,,,,,,,,,,,,,,,,54,,,,,,,,,,,,,,212.55600007151952,,response,,,,100,,,,,,,Space,keypress(Space),,,,,,,,"-- --- ---- --- ------ ----- ------- ---- -- --- ------- --<br>------- ---------- ------ -- ----- -- ----- -- ---- money,<br>--- ----- --- --- ------ -------- ----- --- ------ ----- --<br>----- ----- ---------- --- --- ------ ------ ---- -- ------<br>------- --- ------ ----- --- ---- ------- -- ---- --- --<br>------- ------",158727.89999997616,158726.80000007153,158497.496,158503.80000007153,158514.244,158730.731,,21,"money,"
screen,html.Screen,2_1_1_1_22,2022-05-09T17:10:37.213Z,,,,,,,,,,,,,,,,,54,,,,,,,,,,,,,,249.0690000715258,,response,,,,100,,,,,,,Space,keypress(Space),,,,,,,,-- --- ---- --- ------ ----- ------- ---- -- --- ------- --<br>------- ---------- ------ -- ----- -- ----- -- ---- ------<br>the ----- --- --- ------ -------- ----- --- ------ ----- --<br>----- ----- ---------- --- --- ------ ------ ---- -- ------<br>------- --- ------ ----- --- ---- ------- -- ---- --- --<br>------- ------,158980.89999997616,158979.80000007153,158714.074,158728,158730.731,158997.662,,22,the
screen,html.Screen,2_1_1_1_23,2022-05-09T17:10:37.483Z,,,,,,,,,,,,,,,,,54,,,,,,,,,,,,,,252.6380000715144,,response,,,,100,,,,,,,Space,keypress(Space),,,,,,,,-- --- ---- --- ------ ----- ------- ---- -- --- ------- --<br>------- ---------- ------ -- ----- -- ----- -- ---- ------<br>--- state --- --- ------ -------- ----- --- ------ ----- --<br>----- ----- ---------- --- --- ------ ------ ---- -- ------<br>------- --- ------ ----- --- ---- ------- -- ---- --- --<br>------- ------,159251,159250.30000007153,158980.697,158981.20000004768,158997.662,159263.79,,23,state
screen,html.Screen,2_1_1_1_24,2022-05-09T17:10:37.759Z,,,,,,,,,,,,,,,,,54,,,,,,,,,,,,,,262.0100000715174,,response,,,,100,,,,,,,Space,keypress(Space),,,,,,,,-- --- ---- --- ------ ----- ------- ---- -- --- ------- --<br>------- ---------- ------ -- ----- -- ----- -- ---- ------<br>--- ----- cut --- ------ -------- ----- --- ------ ----- --<br>----- ----- ---------- --- --- ------ ------ ---- -- ------<br>------- --- ------ ----- --- ---- ------- -- ---- --- --<br>------- ------,159526.89999997616,159525.80000007153,159247.479,159251.20000004768,159263.79,159530.411,,24,cut
screen,html.Screen,2_1_1_1_25,2022-05-09T17:10:38.003Z,,,,,,,,,,,,,,,,,54,,,,,,,,,,,,,,239.48899997616536,,response,,,,100,,,,,,,Space,keypress(Space),,,,,,,,-- --- ---- --- ------ ----- ------- ---- -- --- ------- --<br>------- ---------- ------ -- ----- -- ----- -- ---- ------<br>--- ----- --- the ------ -------- ----- --- ------ ----- --<br>----- ----- ---------- --- --- ------ ------ ---- -- ------<br>------- --- ------ ----- --- ---- ------- -- ---- --- --<br>------- ------,159770.70000004768,159769.89999997616,159513.667,159527,159530.411,159780.576,,25,the
screen,html.Screen,2_1_1_1_26,2022-05-09T17:10:38.256Z,,,,,,,,,,,,,,,,,54,,,,,,,,,,,,,,241.62400004768278,,response,,,,100,,,,,,,Space,keypress(Space),,,,,,,,-- --- ---- --- ------ ----- ------- ---- -- --- ------- --<br>------- ---------- ------ -- ----- -- ----- -- ---- ------<br>--- ----- --- --- bonds' -------- ----- --- ------ ----- --<br>----- ----- ---------- --- --- ------ ------ ---- -- ------<br>------- --- ------ ----- --- ---- ------- -- ---- --- --<br>------- ------,160023.20000004768,160022.20000004768,159763.63,159770.89999997616,159780.576,160030.209,,26,bonds'
screen,html.Screen,2_1_1_1_27,2022-05-09T17:10:38.520Z,,,,,,,,,,,,,,,,,54,,,,,,,,,,,,,,256.091000071523,,response,,,,100,,,,,,,Space,keypress(Space),,,,,,,,-- --- ---- --- ------ ----- ------- ---- -- --- ------- --<br>------- ---------- ------ -- ----- -- ----- -- ---- ------<br>--- ----- --- --- ------ interest ----- --- ------ ----- --<br>----- ----- ---------- --- --- ------ ------ ---- -- ------<br>------- --- ------ ----- --- ---- ------- -- ---- --- --<br>------- ------,160287.30000007153,160286.30000007153,160013.559,160023.39999997616,160030.209,160297,,27,interest
screen,html.Screen,2_1_1_1_28,2022-05-09T17:10:38.842Z,,,,,,,,,,,,,,,,,54,,,,,,,,,,,,,,311.89999997615814,,response,,,,100,,,,,,,Space,keypress(Space),,,,,,,,-- --- ---- --- ------ ----- ------- ---- -- --- ------- --<br>------- ---------- ------ -- ----- -- ----- -- ---- ------<br>--- ----- --- --- ------ -------- rate. --- ------ ----- --<br>----- ----- ---------- --- --- ------ ------ ---- -- ------<br>------- --- ------ ----- --- ---- ------- -- ---- --- --<br>------- ------,160609.80000007153,160608.89999997616,160280.327,160287.5,160297,160613.271,,28,rate.
screen,html.Screen,2_1_1_1_29,2022-05-09T17:10:39.129Z,,,,,,,,,,,,,,,,,54,,,,,,,,,,,,,,281.52900007151766,,response,,,,100,,,,,,,Space,keypress(Space),,,,,,,,-- --- ---- --- ------ ----- ------- ---- -- --- ------- --<br>------- ---------- ------ -- ----- -- ----- -- ---- ------<br>--- ----- --- --- ------ -------- ----- The ------ ----- --<br>----- ----- ---------- --- --- ------ ------ ---- -- ------<br>------- --- ------ ----- --- ---- ------- -- ---- --- --<br>------- ------,160896.10000002384,160894.80000007153,160596.84,160610,160613.271,160913.216,,29,The
screen,html.Screen,2_1_1_1_30,2022-05-09T17:10:39.428Z,,,,,,,,,,,,,,,,,54,,,,,,,,,,,,,,281.9840000476979,,response,,,,100,,,,,,,Space,keypress(Space),,,,,,,,-- --- ---- --- ------ ----- ------- ---- -- --- ------- --<br>------- ---------- ------ -- ----- -- ----- -- ---- ------<br>--- ----- --- --- ------ -------- ----- --- market ----- --<br>----- ----- ---------- --- --- ------ ------ ---- -- ------<br>------- --- ------ ----- --- ---- ------- -- ---- --- --<br>------- ------,161195.89999997616,161195.20000004768,160896.749,160896.30000007153,160913.216,161213.06,,30,market
screen,html.Screen,2_1_1_1_31,2022-05-09T17:10:39.715Z,,,,,,,,,,,,,,,,,54,,,,,,,,,,,,,,268.64000004768604,,response,,,,100,,,,,,,Space,keypress(Space),,,,,,,,-- --- ---- --- ------ ----- ------- ---- -- --- ------- --<br>------- ---------- ------ -- ----- -- ----- -- ---- ------<br>--- ----- --- --- ------ -------- ----- --- ------ value --<br>----- ----- ---------- --- --- ------ ------ ---- -- ------<br>------- --- ------ ----- --- ---- ------- -- ---- --- --<br>------- ------,161482.80000007153,161481.70000004768,161196.382,161195.89999997616,161213.06,161496.345,,31,value
screen,html.Screen,2_1_1_1_32,2022-05-09T17:10:39.966Z,,,,,,,,,,,,,,,,,54,,,,,,,,,,,,,,236.2550000238407,,response,,,,100,,,,,,,Space,keypress(Space),,,,,,,,-- --- ---- --- ------ ----- ------- ---- -- --- ------- --<br>------- ---------- ------ -- ----- -- ----- -- ---- ------<br>--- ----- --- --- ------ -------- ----- --- ------ ----- of<br>----- ----- ---------- --- --- ------ ------ ---- -- ------<br>------- --- ------ ----- --- ---- ------- -- ---- --- --<br>------- ------,161733.70000004768,161732.60000002384,161479.862,161483.10000002384,161496.345,161746.369,,32,of
screen,html.Screen,2_1_1_1_33,2022-05-09T17:10:40.249Z,,,,,,,,,,,,,,,,,54,,,,,,,,,,,,,,269.2310000238358,,response,,,,100,,,,,,,Space,keypress(Space),,,,,,,,-- --- ---- --- ------ ----- ------- ---- -- --- ------- --<br>------- ---------- ------ -- ----- -- ----- -- ---- ------<br>--- ----- --- --- ------ -------- ----- --- ------ ----- --<br>these ----- ---------- --- --- ------ ------ ---- -- ------<br>------- --- ------ ----- --- ---- ------- -- ---- --- --<br>------- ------,162016.5,162015.60000002384,161729.537,161734,161746.369,162029.702,,33,these
screen,html.Screen,2_1_1_1_34,2022-05-09T17:10:40.515Z,,,,,,,,,,,,,,,,,54,,,,,,,,,,,,,,251.4980000476935,,response,,,,100,,,,,,,Space,keypress(Space),,,,,,,,-- --- ---- --- ------ ----- ------- ---- -- --- ------- --<br>------- ---------- ------ -- ----- -- ----- -- ---- ------<br>--- ----- --- --- ------ -------- ----- --- ------ ----- --<br>----- bonds ---------- --- --- ------ ------ ---- -- ------<br>------- --- ------ ----- --- ---- ------- -- ---- --- --<br>------- ------,162282.39999997616,162281.20000004768,162012.965,162016.80000007153,162029.702,162295.968,,34,bonds
screen,html.Screen,2_1_1_1_35,2022-05-09T17:10:40.769Z,,,,,,,,,,,,,,,,,54,,,,,,,,,,,,,,239.73200004769024,,response,,,,100,,,,,,,Space,keypress(Space),,,,,,,,"-- --- ---- --- ------ ----- ------- ---- -- --- ------- --<br>------- ---------- ------ -- ----- -- ----- -- ---- ------<br>--- ----- --- --- ------ -------- ----- --- ------ ----- --<br>----- ----- plummeted, --- --- ------ ------ ---- -- ------<br>------- --- ------ ----- --- ---- ------- -- ---- --- --<br>------- ------",162536.60000002384,162535.70000004768,162279.614,162282.70000004768,162295.968,162545.921,,35,"plummeted,"
screen,html.Screen,2_1_1_1_36,2022-05-09T17:10:41.021Z,,,,,,,,,,,,,,,,,54,,,,,,,,,,,,,,240.97899997615605,,response,,,,100,,,,,,,Space,keypress(Space),,,,,,,,-- --- ---- --- ------ ----- ------- ---- -- --- ------- --<br>------- ---------- ------ -- ----- -- ----- -- ---- ------<br>--- ----- --- --- ------ -------- ----- --- ------ ----- --<br>----- ----- ---------- and --- ------ ------ ---- -- ------<br>------- --- ------ ----- --- ---- ------- -- ---- --- --<br>------- ------,162788.10000002384,162786.89999997616,162529.46,162536.89999997616,162545.921,162795.688,,36,and
screen,html.Screen,2_1_1_1_37,2022-05-09T17:10:41.276Z,,,,,,,,,,,,,,,,,54,,,,,,,,,,,,,,246.61200007153093,,response,,,,100,,,,,,,Space,keypress(Space),,,,,,,,-- --- ---- --- ------ ----- ------- ---- -- --- ------- --<br>------- ---------- ------ -- ----- -- ----- -- ---- ------<br>--- ----- --- --- ------ -------- ----- --- ------ ----- --<br>----- ----- ---------- --- the ------ ------ ---- -- ------<br>------- --- ------ ----- --- ---- ------- -- ---- --- --<br>------- ------,163043.10000002384,163042.30000007153,162779.167,162788.20000004768,162795.688,163045.616,,37,the
screen,html.Screen,2_1_1_1_38,2022-05-09T17:10:41.549Z,,,,,,,,,,,,,,,,,54,,,,,,,,,,,,,,270.08400004767464,,response,,,,100,,,,,,,Space,keypress(Space),,,,,,,,-- --- ---- --- ------ ----- ------- ---- -- --- ------- --<br>------- ---------- ------ -- ----- -- ----- -- ---- ------<br>--- ----- --- --- ------ -------- ----- --- ------ ----- --<br>----- ----- ---------- --- --- market ------ ---- -- ------<br>------- --- ------ ----- --- ---- ------- -- ---- --- --<br>------- ------,163316.89999997616,163315.70000004768,163028.979,163043.30000007153,163045.616,163328.92,,38,market
screen,html.Screen,2_1_1_1_39,2022-05-09T17:10:41.814Z,,,,,,,,,,,,,,,,,54,,,,,,,,,,,,,,251.7800000476709,,response,,,,100,,,,,,,Space,keypress(Space),,,,,,,,-- --- ---- --- ------ ----- ------- ---- -- --- ------- --<br>------- ---------- ------ -- ----- -- ----- -- ---- ------<br>--- ----- --- --- ------ -------- ----- --- ------ ----- --<br>----- ----- ---------- --- --- ------ became ---- -- ------<br>------- --- ------ ----- --- ---- ------- -- ---- --- --<br>------- ------,163581.80000007153,163580.70000004768,163312.427,163317.20000004768,163328.92,163595.484,,39,became
screen,html.Screen,2_1_1_1_40,2022-05-09T17:10:42.085Z,,,,,,,,,,,,,,,,,54,,,,,,,,,,,,,,256.31600007152883,,response,,,,100,,,,,,,Space,keypress(Space),,,,,,,,-- --- ---- --- ------ ----- ------- ---- -- --- ------- --<br>------- ---------- ------ -- ----- -- ----- -- ---- ------<br>--- ----- --- --- ------ -------- ----- --- ------ ----- --<br>----- ----- ---------- --- --- ------ ------ wary -- ------<br>------- --- ------ ----- --- ---- ------- -- ---- --- --<br>------- ------,163852.30000007153,163851.80000007153,163578.78,163582.10000002384,163595.484,163861.981,,40,wary
screen,html.Screen,2_1_1_1_41,2022-05-09T17:10:42.332Z,,,,,,,,,,,,,,,,,54,,,,,,,,,,,,,,235.91899997615837,,response,,,,100,,,,,,,Space,keypress(Space),,,,,,,,-- --- ---- --- ------ ----- ------- ---- -- --- ------- --<br>------- ---------- ------ -- ----- -- ----- -- ---- ------<br>--- ----- --- --- ------ -------- ----- --- ------ ----- --<br>----- ----- ---------- --- --- ------ ------ ---- of ------<br>------- --- ------ ----- --- ---- ------- -- ---- --- --<br>------- ------,164099,164097.89999997616,163845.66,163852.5,163861.981,164112.232,,41,of
screen,html.Screen,2_1_1_1_42,2022-05-09T17:10:42.593Z,,,,,,,,,,,,,,,,,54,,,,,,,,,,,,,,247.06800007153652,,response,,,,100,,,,,,,Space,keypress(Space),,,,,,,,-- --- ---- --- ------ ----- ------- ---- -- --- ------- --<br>------- ---------- ------ -- ----- -- ----- -- ---- ------<br>--- ----- --- --- ------ -------- ----- --- ------ ----- --<br>----- ----- ---------- --- --- ------ ------ ---- -- French<br>------- --- ------ ----- --- ---- ------- -- ---- --- --<br>------- ------,164360.30000007153,164359.30000007153,164095.18,164099.30000007153,164112.232,164396.281,,42,French
screen,html.Screen,2_1_1_1_43,2022-05-09T17:10:42.960Z,,,,,,,,,,,,,,,,,54,,,,,,,,,,,,,,330.11899997617,,response,,,,100,,,,,,,Space,keypress(Space),,,,,,,,-- --- ---- --- ------ ----- ------- ---- -- --- ------- --<br>------- ---------- ------ -- ----- -- ----- -- ---- ------<br>--- ----- --- --- ------ -------- ----- --- ------ ----- --<br>----- ----- ---------- --- --- ------ ------ ---- -- ------<br>credit. --- ------ ----- --- ---- ------- -- ---- --- --<br>------- ------,164727.30000007153,164726.39999997616,164345.389,164360.5,164396.281,164762.038,,43,credit.
screen,html.Screen,2_1_1_1_44,2022-05-09T17:10:43.314Z,,,,,,,,,,,,,,,,,54,,,,,,,,,,,,,,318.5620000238414,,response,,,,100,,,,,,,Space,keypress(Space),,,,,,,,-- --- ---- --- ------ ----- ------- ---- -- --- ------- --<br>------- ---------- ------ -- ----- -- ----- -- ---- ------<br>--- ----- --- --- ------ -------- ----- --- ------ ----- --<br>----- ----- ---------- --- --- ------ ------ ---- -- ------<br>------- The ------ ----- --- ---- ------- -- ---- --- --<br>------- ------,165081.20000004768,165080.60000002384,164745.255,164727.60000002384,164762.038,165094.872,,44,The
screen,html.Screen,2_1_1_1_45,2022-05-09T17:10:43.649Z,,,,,,,,,,,,,,,,,54,,,,,,,,,,,,,,321.127999999997,,response,,,,100,,,,,,,Space,keypress(Space),,,,,,,,-- --- ---- --- ------ ----- ------- ---- -- --- ------- --<br>------- ---------- ------ -- ----- -- ----- -- ---- ------<br>--- ----- --- --- ------ -------- ----- --- ------ ----- --<br>----- ----- ---------- --- --- ------ ------ ---- -- ------<br>------- --- French ----- --- ---- ------- -- ---- --- --<br>------- ------,165416.70000004768,165416,165078.151,165081.39999997616,165094.872,165428.111,,45,French
screen,html.Screen,2_1_1_1_46,2022-05-09T17:10:43.901Z,,,,,,,,,,,,,,,,,54,,,,,,,,,,,,,,239.68900007152115,,response,,,,100,,,,,,,Space,keypress(Space),,,,,,,,-- --- ---- --- ------ ----- ------- ---- -- --- ------- --<br>------- ---------- ------ -- ----- -- ----- -- ---- ------<br>--- ----- --- --- ------ -------- ----- --- ------ ----- --<br>----- ----- ---------- --- --- ------ ------ ---- -- ------<br>------- --- ------ state --- ---- ------- -- ---- --- --<br>------- ------,165668.60000002384,165667.80000007153,165411.371,165416.70000004768,165428.111,165677.872,,46,state
screen,html.Screen,2_1_1_1_47,2022-05-09T17:10:44.165Z,,,,,,,,,,,,,,,,,54,,,,,,,,,,,,,,254.52799997615512,,response,,,,100,,,,,,,Space,keypress(Space),,,,,,,,-- --- ---- --- ------ ----- ------- ---- -- --- ------- --<br>------- ---------- ------ -- ----- -- ----- -- ---- ------<br>--- ----- --- --- ------ -------- ----- --- ------ ----- --<br>----- ----- ---------- --- --- ------ ------ ---- -- ------<br>------- --- ------ ----- was ---- ------- -- ---- --- --<br>------- ------,165933,165932.39999997616,165661.272,165668.80000007153,165677.872,165944.459,,47,was
screen,html.Screen,2_1_1_1_48,2022-05-09T17:10:44.391Z,,,,,,,,,,,,,,,,,54,,,,,,,,,,,,,,212.54099999999744,,response,,,,100,,,,,,,Space,keypress(Space),,,,,,,,-- --- ---- --- ------ ----- ------- ---- -- --- ------- --<br>------- ---------- ------ -- ----- -- ----- -- ---- ------<br>--- ----- --- --- ------ -------- ----- --- ------ ----- --<br>----- ----- ---------- --- --- ------ ------ ---- -- ------<br>------- --- ------ ----- --- left ------- -- ---- --- --<br>------- ------,166158,166157,165927.825,165933,165944.459,166161.089,,48,left
screen,html.Screen,2_1_1_1_49,2022-05-09T17:10:44.619Z,,,,,,,,,,,,,,,,,54,,,,,,,,,,,,,,224.41099999999278,,response,,,,100,,,,,,,Space,keypress(Space),,,,,,,,-- --- ---- --- ------ ----- ------- ---- -- --- ------- --<br>------- ---------- ------ -- ----- -- ----- -- ---- ------<br>--- ----- --- --- ------ -------- ----- --- ------ ----- --<br>----- ----- ---------- --- --- ------ ------ ---- -- ------<br>------- --- ------ ----- --- ---- without -- ---- --- --<br>------- ------,166386.20000004768,166385.5,166144.408,166158.39999997616,166161.089,166394.314,,49,without
screen,html.Screen,2_1_1_1_50,2022-05-09T17:10:44.881Z,,,,,,,,,,,,,,,,,54,,,,,,,,,,,,,,253.0859999761451,,response,,,,100,,,,,,,Space,keypress(Space),,,,,,,,-- --- ---- --- ------ ----- ------- ---- -- --- ------- --<br>------- ---------- ------ -- ----- -- ----- -- ---- ------<br>--- ----- --- --- ------ -------- ----- --- ------ ----- --<br>----- ----- ---------- --- --- ------ ------ ---- -- ------<br>------- --- ------ ----- --- ---- ------- an ---- --- --<br>------- ------,166648.39999997616,166647.39999997616,166377.661,166386.39999997616,166394.314,166661.139,,50,an
screen,html.Screen,2_1_1_1_51,2022-05-09T17:10:45.151Z,,,,,,,,,,,,,,,,,54,,,,,,,,,,,,,,256.3610000000044,,response,,,,100,,,,,,,Space,keypress(Space),,,,,,,,-- --- ---- --- ------ ----- ------- ---- -- --- ------- --<br>------- ---------- ------ -- ----- -- ----- -- ---- ------<br>--- ----- --- --- ------ -------- ----- --- ------ ----- --<br>----- ----- ---------- --- --- ------ ------ ---- -- ------<br>------- --- ------ ----- --- ---- ------- -- easy --- --<br>------- ------,166918.5,166917.5,166644.179,166648.70000004768,166661.139,166927.703,,51,easy
screen,html.Screen,2_1_1_1_52,2022-05-09T17:10:45.422Z,,,,,,,,,,,,,,,,,54,,,,,,,,,,,,,,261.2969999999914,,response,,,,100,,,,,,,Space,keypress(Space),,,,,,,,-- --- ---- --- ------ ----- ------- ---- -- --- ------- --<br>------- ---------- ------ -- ----- -- ----- -- ---- ------<br>--- ----- --- --- ------ -------- ----- --- ------ ----- --<br>----- ----- ---------- --- --- ------ ------ ---- -- ------<br>------- --- ------ ----- --- ---- ------- -- ---- way --<br>------- ------,167189.60000002384,167189,166910.816,166918.60000002384,166927.703,167193.942,,52,way
screen,html.Screen,2_1_1_1_53,2022-05-09T17:10:45.728Z,,,,,,,,,,,,,,,,,54,,,,,,,,,,,,,,300.7580000476737,,response,,,,100,,,,,,,Space,keypress(Space),,,,,,,,-- --- ---- --- ------ ----- ------- ---- -- --- ------- --<br>------- ---------- ------ -- ----- -- ----- -- ---- ------<br>--- ----- --- --- ------ -------- ----- --- ------ ----- --<br>----- ----- ---------- --- --- ------ ------ ---- -- ------<br>------- --- ------ ----- --- ---- ------- -- ---- --- of<br>------- ------,167495.30000007153,167494.70000004768,167177.318,167189.80000007153,167193.942,167510.506,,53,of
screen,html.Screen,2_1_1_1_54,2022-05-09T17:10:46.122Z,,,,,,,,,,,,,,,,,54,,,,,,,,,,,,,,377.7940000715316,,response,,,,100,,,,,,,Space,keypress(Space),,,,,,,,-- --- ---- --- ------ ----- ------- ---- -- --- ------- --<br>------- ---------- ------ -- ----- -- ----- -- ---- ------<br>--- ----- --- --- ------ -------- ----- --- ------ ----- --<br>----- ----- ---------- --- --- ------ ------ ---- -- ------<br>------- --- ------ ----- --- ---- ------- -- ---- --- --<br>raising ------,167889.30000007153,167888.30000007153,167493.875,167495.60000002384,167510.506,167893.66,,54,raising
screen,html.Screen,2_1_1_1_55,2022-05-09T17:10:46.488Z,,,,,,,,,,,,,,,,,54,,,,,,,,,,,,,,360.5400000476802,,response,,,,100,,,,,,,Space,keypress(Space),,,,,,,,-- --- ---- --- ------ ----- ------- ---- -- --- ------- --<br>------- ---------- ------ -- ----- -- ----- -- ---- ------<br>--- ----- --- --- ------ -------- ----- --- ------ ----- --<br>----- ----- ---------- --- --- ------ ------ ---- -- ------<br>------- --- ------ ----- --- ---- ------- -- ---- --- --<br>------- money.,168255.30000007153,168254.20000004768,167877.3,167889.5,167893.66,168260.234,,55,money.
Item 100,flow.Loop,2_1_1_1,2022-05-09T17:10:46.488Z,,,,,,,,,,,,,,,,,,,,,,,,,,,,,,,24600.775000047695,,completion,,,,,G,,,,,,,,,,,silence,,,,,168255.89999997616,168254.20000004768,143636.751,143638.10000002384,143653.425,168260.234,,,
Question 1,html.Screen,2_1_1_2,2022-05-09T17:10:48.478Z,,,,,,,,,,,,,,,,,,,,,,,,,,,,true,TRUE,,1983.7660000000033,,response,,,,100,G,,,,,,TRUE,click #choice-1,,,,silence,,,,,170245.5,170244,168243.66,168256.10000002384,168260.234,170259.459,,,
Question 2,html.Screen,2_1_1_3,2022-05-09T17:10:51.244Z,,,,,,,,,,,,,,,,,,,,,,,,,,,,true,FALSE,,2749.841000071523,,response,,,,100,G,,,,,,FALSE,click #choice-2,,,,silence,,,,,173011.60000002384,173009.30000007153,170242.83,170245.70000004768,170259.459,173025.011,,,
Item 100,flow.Sequence,2_1_1,2022-05-09T17:10:51.245Z,,,,,,,,,,,,,,,,,,,,,,,,,,,,,,,39351.897000071534,,completion,,,,,,,,,,,,,,,,,,,,,173012.10000002384,173009.30000007153,133640.971,133647.60000002384,133657.403,173025.011,,,
End of Practice,html.Page,2_1_2,2022-05-09T17:10:54.674Z,,,,,,,,,,,,,,,,,,,,,,,,,,,,,,,3415.9890000000014,,form submission,,,,,,,,,,,,,,,,,,,,,176441.70000004768,176441,173008.547,173012.20000004768,173025.011,176457.006,,,
Practice,flow.Sequence,2_1,2022-05-09T17:10:54.675Z,,,,,,,,,,,,,,,,,,,,,,,,,,,,,,,83134.174,,completion,,,,,,,,,,,,,,,,,,,,,176442.30000007153,176441,93290.219,93297.80000007153,93306.826,176457.006,,,
Trap_instruction,html.Page,2_2_0,2022-05-09T17:10:57.154Z,,,,,,,,,,,,,,,,,,,,,,,,,,,,,,,2464.393999976164,,form submission,,,,,,,,,,,,,,,,,,,,,178921.80000007153,178921.39999997616,176423.89,176442.70000004768,176457.006,178955.928,,,
trap_trial,html.Screen,2_2_1,2022-05-09T17:11:00.539Z,,,,,,,,,,,,,,,,,,,,,,,,,,,,true,1,,3348.9719999761437,,response,,,,,,,,,,,1,click #choice-1,,,,,,,,,182306.20000004768,182304.89999997616,178906.289,178922,178955.928,182321.253,,,
end of trap trial,html.Page,2_2_2,2022-05-09T17:11:02.785Z,,,,,,,,,,,,,,,,,,,,,,,,,,,,,,,2231.4470000476867,,form submission,,,,,,,,,,,,,,,,,,,,,184552.89999997616,184552.70000004768,182304.603,182306.39999997616,182321.253,184553.649,,,
Trap 1,flow.Sequence,2_2,2022-05-09T17:11:02.786Z,,,,,,,,,,,,,,,,,,,,,,,,,,,,,,,8095.69400004769,,completion,,,,,,,,,,,,,,,,,,,,,184553.10000002384,184552.70000004768,176423.89,176442.60000002384,176457.006,184553.649,,,
Standby,html.Page,2_3_0,2022-05-09T17:11:10.768Z,,,,,,,,,,,,,,,,,,,,,,,,,,,,,,,7996.90400000001,,timeout,,,,,,,,,,,,,,,,,,,,,192535.10000002384,192533.934,184537.072,184553.20000004768,184553.649,192550.553,,,
Holding screen,html.Screen,2_3_1_0_0,2022-05-09T17:11:17.765Z,,,,,,,,,,,,,,,,,,,,,,,,,,,,,,,6997.2149999999965,,timeout,,,,,,,,,,,,,,,,,,,,,199532.39999997616,199531.179,192533.934,192535.5,192550.553,199547.768,,,
screen,html.Screen,2_3_1_0_1_0,2022-05-09T17:11:18.918Z,,,,,,,,,,,,,,,,,51,,,,,,,,,,,,,,1136.731999999989,,response,,,,13,G,,,,,,Space,keypress(Space),,,,instrumental,,,,American -------- --- --- ---- --- --- ------ -- --------<br>---- --------- --- ------- ------------ ---------- ---------<br>--- ---------- ------- ---------- ------- -- -------- ----<br>---- --- ------ ----- ------ -- ---- --- ----- -- - -------<br>-------- -- --- --- -- ----- ----------- ----- -----------<br>---- --- ---------- --- ---- --- -- ----------,200685.60000002384,200684.5,199531.179,199532.80000007153,199547.768,200697.583,,0,American
screen,html.Screen,2_3_1_0_1_1,2022-05-09T17:11:19.351Z,,,,,,,,,,,,,,,,,51,,,,,,,,,,,,,,419.7170000715123,,response,,,,13,G,,,,,,Space,keypress(Space),,,,instrumental,,,,-------- industry --- --- ---- --- --- ------ -- --------<br>---- --------- --- ------- ------------ ---------- ---------<br>--- ---------- ------- ---------- ------- -- -------- ----<br>---- --- ------ ----- ------ -- ---- --- ----- -- - -------<br>-------- -- --- --- -- ----- ----------- ----- -----------<br>---- --- ---------- --- ---- --- -- ----------,201118.39999997616,201117.30000007153,200680.66,200686,200697.583,201130.601,,1,industry
screen,html.Screen,2_3_1_0_1_2,2022-05-09T17:11:19.766Z,,,,,,,,,,,,,,,,,51,,,,,,,,,,,,,,401.49900002384675,,response,,,,13,G,,,,,,Space,keypress(Space),,,,instrumental,,,,-------- -------- may --- ---- --- --- ------ -- --------<br>---- --------- --- ------- ------------ ---------- ---------<br>--- ---------- ------- ---------- ------- -- -------- ----<br>---- --- ------ ----- ------ -- ---- --- ----- -- - -------<br>-------- -- --- --- -- ----- ----------- ----- -----------<br>---- --- ---------- --- ---- --- -- ----------,201532.89999997616,201532.10000002384,201114.015,201118.70000004768,201130.601,201547.166,,2,may
screen,html.Screen,2_3_1_0_1_3,2022-05-09T17:11:20.103Z,,,,,,,,,,,,,,,,,51,,,,,,,,,,,,,,322.4340000238444,,response,,,,13,G,,,,,,Space,keypress(Space),,,,instrumental,,,,-------- -------- --- not ---- --- --- ------ -- --------<br>---- --------- --- ------- ------------ ---------- ---------<br>--- ---------- ------- ---------- ------- -- -------- ----<br>---- --- ------ ----- ------ -- ---- --- ----- -- - -------<br>-------- -- --- --- -- ----- ----------- ----- -----------<br>---- --- ---------- --- ---- --- -- ----------,201870.70000004768,201869.60000002384,201530.556,201533,201547.166,201880.264,,3,not
screen,html.Screen,2_3_1_0_1_4,2022-05-09T17:11:20.428Z,,,,,,,,,,,,,,,,,51,,,,,,,,,,,,,,314.43600004768814,,response,,,,13,G,,,,,,Space,keypress(Space),,,,instrumental,,,,-------- -------- --- --- know --- --- ------ -- --------<br>---- --------- --- ------- ------------ ---------- ---------<br>--- ---------- ------- ---------- ------- -- -------- ----<br>---- --- ------ ----- ------ -- ---- --- ----- -- - -------<br>-------- -- --- --- -- ----- ----------- ----- -----------<br>---- --- ---------- --- ---- --- -- ----------,202195.60000002384,202194.70000004768,201863.573,201871,201880.264,202230.153,,4,know
screen,html.Screen,2_3_1_0_1_5,2022-05-09T17:11:20.751Z,,,,,,,,,,,,,,,,,51,,,,,,,,,,,,,,287.1470000715344,,response,,,,13,G,,,,,,Space,keypress(Space),,,,instrumental,,,,"-------- -------- --- --- ---- it, --- ------ -- --------<br>---- --------- --- ------- ------------ ---------- ---------<br>--- ---------- ------- ---------- ------- -- -------- ----<br>---- --- ------ ----- ------ -- ---- --- ----- -- - -------<br>-------- -- --- --- -- ----- ----------- ----- -----------<br>---- --- ---------- --- ---- --- -- ----------",202518.39999997616,202517.30000007153,202214.867,202195.80000007153,202230.153,202529.958,,5,"it,"
screen,html.Screen,2_3_1_0_1_6,2022-05-09T17:11:20.985Z,,,,,,,,,,,,,,,,,51,,,,,,,,,,,,,,221.94199997614487,,response,,,,13,G,,,,,,Space,keypress(Space),,,,instrumental,,,,-------- -------- --- --- ---- --- but ------ -- --------<br>---- --------- --- ------- ------------ ---------- ---------<br>--- ---------- ------- ---------- ------- -- -------- ----<br>---- --- ------ ----- ------ -- ---- --- ----- -- - -------<br>-------- -- --- --- -- ----- ----------- ----- -----------<br>---- --- ---------- --- ---- --- -- ----------,202752.5,202751.89999997616,202513.331,202518.70000004768,202529.958,202763.314,,6,but
screen,html.Screen,2_3_1_0_1_7,2022-05-09T17:11:21.238Z,,,,,,,,,,,,,,,,,51,,,,,,,,,,,,,,240.78600002382882,,response,,,,13,G,,,,,,Space,keypress(Space),,,,instrumental,,,,-------- -------- --- --- ---- --- --- debate -- --------<br>---- --------- --- ------- ------------ ---------- ---------<br>--- ---------- ------- ---------- ------- -- -------- ----<br>---- --- ------ ----- ------ -- ---- --- ----- -- - -------<br>-------- -- --- --- -- ----- ----------- ----- -----------<br>---- --- ---------- --- ---- --- -- ----------,203005,203004.10000002384,202746.53,202752.60000002384,202763.314,203013.109,,7,debate
screen,html.Screen,2_3_1_0_1_8,2022-05-09T17:11:21.482Z,,,,,,,,,,,,,,,,,51,,,,,,,,,,,,,,235.19100007152883,,response,,,,13,G,,,,,,Space,keypress(Space),,,,instrumental,,,,-------- -------- --- --- ---- --- --- ------ in --------<br>---- --------- --- ------- ------------ ---------- ---------<br>--- ---------- ------- ---------- ------- -- -------- ----<br>---- --- ------ ----- ------ -- ---- --- ----- -- - -------<br>-------- -- --- --- -- ----- ----------- ----- -----------<br>---- --- ---------- --- ---- --- -- ----------,203248.89999997616,203248.30000007153,202996.664,203005.20000004768,203013.109,203262.955,,8,in
screen,html.Screen,2_3_1_0_1_9,2022-05-09T17:11:21.775Z,,,,,,,,,,,,,,,,,51,,,,,,,,,,,,,,277.7450000476965,,response,,,,13,G,,,,,,Space,keypress(Space),,,,instrumental,,,,-------- -------- --- --- ---- --- --- ------ -- Congress<br>---- --------- --- ------- ------------ ---------- ---------<br>--- ---------- ------- ---------- ------- -- -------- ----<br>---- --- ------ ----- ------ -- ---- --- ----- -- - -------<br>-------- -- --- --- -- ----- ----------- ----- -----------<br>---- --- ---------- --- ---- --- -- ----------,203541.89999997616,203540.70000004768,203246.486,203249.10000002384,203262.955,203546.197,,9,Congress
screen,html.Screen,2_3_1_0_1_10,2022-05-09T17:11:22.092Z,,,,,,,,,,,,,,,,,51,,,,,,,,,,,,,,311.60300007154,,response,,,,13,G,,,,,,Space,keypress(Space),,,,instrumental,,,,-------- -------- --- --- ---- --- --- ------ -- --------<br>over --------- --- ------- ------------ ---------- ---------<br>--- ---------- ------- ---------- ------- -- -------- ----<br>---- --- ------ ----- ------ -- ---- --- ----- -- - -------<br>-------- -- --- --- -- ----- ----------- ----- -----------<br>---- --- ---------- --- ---- --- -- ----------,203859,203857.80000007153,203529.507,203542.20000004768,203546.197,203862.683,,10,over
screen,html.Screen,2_3_1_0_1_11,2022-05-09T17:11:22.338Z,,,,,,,,,,,,,,,,,51,,,,,,,,,,,,,,241.21699997616815,,response,,,,13,G,,,,,,Space,keypress(Space),,,,instrumental,,,,-------- -------- --- --- ---- --- --- ------ -- --------<br>---- reforming --- ------- ------------ ---------- ---------<br>--- ---------- ------- ---------- ------- -- -------- ----<br>---- --- ------ ----- ------ -- ---- --- ----- -- - -------<br>-------- -- --- --- -- ----- ----------- ----- -----------<br>---- --- ---------- --- ---- --- -- ----------,204105,204103.89999997616,203846.112,203859.30000007153,203862.683,204112.559,,11,reforming
screen,html.Screen,2_3_1_0_1_12,2022-05-09T17:11:22.566Z,,,,,,,,,,,,,,,,,51,,,,,,,,,,,,,,220.34099997614976,,response,,,,13,G,,,,,,Space,keypress(Space),,,,instrumental,,,,-------- -------- --- --- ---- --- --- ------ -- --------<br>---- --------- the ------- ------------ ---------- ---------<br>--- ---------- ------- ---------- ------- -- -------- ----<br>---- --- ------ ----- ------ -- ---- --- ----- -- - -------<br>-------- -- --- --- -- ----- ----------- ----- -----------<br>---- --- ---------- --- ---- --- -- ----------,204333.5,204332.89999997616,204095.977,204105.39999997616,204112.559,204345.876,,12,the
screen,html.Screen,2_3_1_0_1_13,2022-05-09T17:11:22.809Z,,,,,,,,,,,,,,,,,51,,,,,,,,,,,,,,229.52399997616885,,response,,,,13,G,,,,,,Space,keypress(Space),,,,instrumental,,,,-------- -------- --- --- ---- --- --- ------ -- --------<br>---- --------- --- federal ------------ ---------- ---------<br>--- ---------- ------- ---------- ------- -- -------- ----<br>---- --- ------ ----- ------ -- ---- --- ----- -- - -------<br>-------- -- --- --- -- ----- ----------- ----- -----------<br>---- --- ---------- --- ---- --- -- ----------,204576.60000002384,204575.39999997616,204329.225,204333.70000004768,204345.876,204579.144,,13,federal
screen,html.Screen,2_3_1_0_1_14,2022-05-09T17:11:23.002Z,,,,,,,,,,,,,,,,,51,,,,,,,,,,,,,,189.65600007152534,,response,,,,13,G,,,,,,Space,keypress(Space),,,,instrumental,,,,-------- -------- --- --- ---- --- --- ------ -- --------<br>---- --------- --- ------- government's ---------- ---------<br>--- ---------- ------- ---------- ------- -- -------- ----<br>---- --- ------ ----- ------ -- ---- --- ----- -- - -------<br>-------- -- --- --- -- ----- ----------- ----- -----------<br>---- --- ---------- --- ---- --- -- ----------,204769.5,204768.80000007153,204562.387,204576.89999997616,204579.144,204779.288,,14,government's
screen,html.Screen,2_3_1_0_1_15,2022-05-09T17:11:23.216Z,,,,,,,,,,,,,,,,,51,,,,,,,,,,,,,,202.41200004768325,,response,,,,13,G,,,,,,Space,keypress(Space),,,,instrumental,,,,-------- -------- --- --- ---- --- --- ------ -- --------<br>---- --------- --- ------- ------------ regulatory ---------<br>--- ---------- ------- ---------- ------- -- -------- ----<br>---- --- ------ ----- ------ -- ---- --- ----- -- - -------<br>-------- -- --- --- -- ----- ----------- ----- -----------<br>---- --- ---------- --- ---- --- -- ----------,204982.89999997616,204981.70000004768,204762.364,204769.70000004768,204779.288,204995.718,,15,regulatory
screen,html.Screen,2_3_1_0_1_16,2022-05-09T17:11:23.438Z,,,,,,,,,,,,,,,,,51,,,,,,,,,,,,,,209.0820000715321,,response,,,,13,G,,,,,,Space,keypress(Space),,,,instrumental,,,,-------- -------- --- --- ---- --- --- ------ -- --------<br>---- --------- --- ------- ------------ ---------- apparatus<br>--- ---------- ------- ---------- ------- -- -------- ----<br>---- --- ------ ----- ------ -- ---- --- ----- -- - -------<br>-------- -- --- --- -- ----- ----------- ----- -----------<br>---- --- ---------- --- ---- --- -- ----------,205205.5,205204.80000007153,204978.97,204983.20000004768,204995.718,205212.199,,16,apparatus
screen,html.Screen,2_3_1_0_1_17,2022-05-09T17:11:23.812Z,,,,,,,,,,,,,,,,,51,,,,,,,,,,,,,,365.9010000238486,,response,,,,13,G,,,,,,Space,keypress(Space),,,,instrumental,,,,-------- -------- --- --- ---- --- --- ------ -- --------<br>---- --------- --- ------- ------------ ---------- ---------<br>may ---------- ------- ---------- ------- -- -------- ----<br>---- --- ------ ----- ------ -- ---- --- ----- -- - -------<br>-------- -- --- --- -- ----- ----------- ----- -----------<br>---- --- ---------- --- ---- --- -- ----------,205579,205578.10000002384,205195.674,205205.70000004768,205212.199,205595.634,,17,may
screen,html.Screen,2_3_1_0_1_18,2022-05-09T17:11:24.108Z,,,,,,,,,,,,,,,,,51,,,,,,,,,,,,,,278.5660000476928,,response,,,,13,G,,,,,,Space,keypress(Space),,,,instrumental,,,,-------- -------- --- --- ---- --- --- ------ -- --------<br>---- --------- --- ------- ------------ ---------- ---------<br>--- profoundly ------- ---------- ------- -- -------- ----<br>---- --- ------ ----- ------ -- ---- --- ----- -- - -------<br>-------- -- --- --- -- ----- ----------- ----- -----------<br>---- --- ---------- --- ---- --- -- ----------,205875.30000007153,205874.20000004768,205578.876,205579.20000004768,205595.634,205878.572,,18,profoundly
screen,html.Screen,2_3_1_0_1_19,2022-05-09T17:11:24.414Z,,,,,,,,,,,,,,,,,51,,,,,,,,,,,,,,301.12800004769815,,response,,,,13,G,,,,,,Space,keypress(Space),,,,instrumental,,,,-------- -------- --- --- ---- --- --- ------ -- --------<br>---- --------- --- ------- ------------ ---------- ---------<br>--- ---------- improve ---------- ------- -- -------- ----<br>---- --- ------ ----- ------ -- ---- --- ----- -- - -------<br>-------- -- --- --- -- ----- ----------- ----- -----------<br>---- --- ---------- --- ---- --- -- ----------,206180.89999997616,206179.70000004768,205861.976,205875.60000002384,205878.572,206195.371,,19,improve
screen,html.Screen,2_3_1_0_1_20,2022-05-09T17:11:24.725Z,,,,,,,,,,,,,,,,,51,,,,,,,,,,,,,,295.92900007151184,,response,,,,13,G,,,,,,Space,keypress(Space),,,,instrumental,,,,-------- -------- --- --- ---- --- --- ------ -- --------<br>---- --------- --- ------- ------------ ---------- ---------<br>--- ---------- ------- companies' ------- -- -------- ----<br>---- --- ------ ----- ------ -- ---- --- ----- -- - -------<br>-------- -- --- --- -- ----- ----------- ----- -----------<br>---- --- ---------- --- ---- --- -- ----------,206492.30000007153,206491.30000007153,206178.528,206181.20000004768,206195.371,206494.979,,20,companies'
screen,html.Screen,2_3_1_0_1_21,2022-05-09T17:11:25.030Z,,,,,,,,,,,,,,,,,51,,,,,,,,,,,,,,301.3210000715335,,response,,,,13,G,,,,,,Space,keypress(Space),,,,instrumental,,,,-------- -------- --- --- ---- --- --- ------ -- --------<br>---- --------- --- ------- ------------ ---------- ---------<br>--- ---------- ------- ---------- ability -- -------- ----<br>---- --- ------ ----- ------ -- ---- --- ----- -- - -------<br>-------- -- --- --- -- ----- ----------- ----- -----------<br>---- --- ---------- --- ---- --- -- ----------,206797.30000007153,206796.30000007153,206478.353,206492.70000004768,206494.979,206811.519,,21,ability
screen,html.Screen,2_3_1_0_1_22,2022-05-09T17:11:25.315Z,,,,,,,,,,,,,,,,,51,,,,,,,,,,,,,,269.28100007152534,,response,,,,13,G,,,,,,Space,keypress(Space),,,,instrumental,,,,-------- -------- --- --- ---- --- --- ------ -- --------<br>---- --------- --- ------- ------------ ---------- ---------<br>--- ---------- ------- ---------- ------- to -------- ----<br>---- --- ------ ----- ------ -- ---- --- ----- -- - -------<br>-------- -- --- --- -- ----- ----------- ----- -----------<br>---- --- ---------- --- ---- --- -- ----------,207082.20000004768,207080.80000007153,206795.049,206797.60000002384,206811.519,207095.095,,22,to
screen,html.Screen,2_3_1_0_1_23,2022-05-09T17:11:25.587Z,,,,,,,,,,,,,,,,,51,,,,,,,,,,,,,,258.40499999999884,,response,,,,13,G,,,,,,Space,keypress(Space),,,,instrumental,,,,-------- -------- --- --- ---- --- --- ------ -- --------<br>---- --------- --- ------- ------------ ---------- ---------<br>--- ---------- ------- ---------- ------- -- survive. ----<br>---- --- ------ ----- ------ -- ---- --- ----- -- - -------<br>-------- -- --- --- -- ----- ----------- ----- -----------<br>---- --- ---------- --- ---- --- -- ----------,207354.10000002384,207353.5,207078.103,207082.5,207095.095,207361.279,,23,survive.
screen,html.Screen,2_3_1_0_1_24,2022-05-09T17:11:25.859Z,,,,,,,,,,,,,,,,,51,,,,,,,,,,,,,,264.021000071516,,response,,,,13,G,,,,,,Space,keypress(Space),,,,instrumental,,,,-------- -------- --- --- ---- --- --- ------ -- --------<br>---- --------- --- ------- ------------ ---------- ---------<br>--- ---------- ------- ---------- ------- -- -------- This<br>---- --- ------ ----- ------ -- ---- --- ----- -- - -------<br>-------- -- --- --- -- ----- ----------- ----- -----------<br>---- --- ---------- --- ---- --- -- ----------,207626.20000004768,207625.30000007153,207344.938,207354.20000004768,207361.279,207646.493,,24,This
screen,html.Screen,2_3_1_0_1_25,2022-05-09T17:11:26.144Z,,,,,,,,,,,,,,,,,51,,,,,,,,,,,,,,264.20700004769606,,response,,,,13,G,,,,,,Space,keypress(Space),,,,instrumental,,,,-------- -------- --- --- ---- --- --- ------ -- --------<br>---- --------- --- ------- ------------ ---------- ---------<br>--- ---------- ------- ---------- ------- -- -------- ----<br>week --- ------ ----- ------ -- ---- --- ----- -- - -------<br>-------- -- --- --- -- ----- ----------- ----- -----------<br>---- --- ---------- --- ---- --- -- ----------,207911.5,207910.70000004768,207611.295,207626.5,207646.493,207927.753,,25,week
screen,html.Screen,2_3_1_0_1_26,2022-05-09T17:11:26.473Z,,,,,,,,,,,,,,,,,51,,,,,,,,,,,,,,311.14699997616117,,response,,,,13,G,,,,,,Space,keypress(Space),,,,instrumental,,,,-------- -------- --- --- ---- --- --- ------ -- --------<br>---- --------- --- ------- ------------ ---------- ---------<br>--- ---------- ------- ---------- ------- -- -------- ----<br>---- the ------ ----- ------ -- ---- --- ----- -- - -------<br>-------- -- --- --- -- ----- ----------- ----- -----------<br>---- --- ---------- --- ---- --- -- ----------,208239.89999997616,208238.89999997616,207911.178,207911.80000007153,207927.753,208244.299,,26,the
screen,html.Screen,2_3_1_0_1_27,2022-05-09T17:11:26.802Z,,,,,,,,,,,,,,,,,51,,,,,,,,,,,,,,324.0010000715265,,response,,,,13,G,,,,,,Space,keypress(Space),,,,instrumental,,,,-------- -------- --- --- ---- --- --- ------ -- --------<br>---- --------- --- ------- ------------ ---------- ---------<br>--- ---------- ------- ---------- ------- -- -------- ----<br>---- --- Senate ----- ------ -- ---- --- ----- -- - -------<br>-------- -- --- --- -- ----- ----------- ----- -----------<br>---- --- ---------- --- ---- --- -- ----------,208569.10000002384,208568.30000007153,208227.807,208240.10000002384,208244.299,208577.503,,27,Senate
screen,html.Screen,2_3_1_0_1_28,2022-05-09T17:11:27.038Z,,,,,,,,,,,,,,,,,51,,,,,,,,,,,,,,227.09700002384488,,response,,,,13,G,,,,,,Space,keypress(Space),,,,instrumental,,,,-------- -------- --- --- ---- --- --- ------ -- --------<br>---- --------- --- ------- ------------ ---------- ---------<br>--- ---------- ------- ---------- ------- -- -------- ----<br>---- --- ------ seems ------ -- ---- --- ----- -- - -------<br>-------- -- --- --- -- ----- ----------- ----- -----------<br>---- --- ---------- --- ---- --- -- ----------,208805.60000002384,208804.60000002384,208560.987,208569.20000004768,208577.503,208810.718,,28,seems
screen,html.Screen,2_3_1_0_1_29,2022-05-09T17:11:27.280Z,,,,,,,,,,,,,,,,,51,,,,,,,,,,,,,,235.88200002384838,,response,,,,13,G,,,,,,Space,keypress(Space),,,,instrumental,,,,-------- -------- --- --- ---- --- --- ------ -- --------<br>---- --------- --- ------- ------------ ---------- ---------<br>--- ---------- ------- ---------- ------- -- -------- ----<br>---- --- ------ ----- poised -- ---- --- ----- -- - -------<br>-------- -- --- --- -- ----- ----------- ----- -----------<br>---- --- ---------- --- ---- --- -- ----------,209047.60000002384,209046.60000002384,208794.077,208805.80000007153,208810.718,209060.7,,29,poised
screen,html.Screen,2_3_1_0_1_30,2022-05-09T17:11:27.544Z,,,,,,,,,,,,,,,,,51,,,,,,,,,,,,,,250.10000007151393,,response,,,,13,G,,,,,,Space,keypress(Space),,,,instrumental,,,,-------- -------- --- --- ---- --- --- ------ -- --------<br>---- --------- --- ------- ------------ ---------- ---------<br>--- ---------- ------- ---------- ------- -- -------- ----<br>---- --- ------ ----- ------ to ---- --- ----- -- - -------<br>-------- -- --- --- -- ----- ----------- ----- -----------<br>---- --- ---------- --- ---- --- -- ----------,209311.70000004768,209310.80000007153,209044.19,209047.89999997616,209060.7,209327.225,,30,to
screen,html.Screen,2_3_1_0_1_31,2022-05-09T17:11:27.797Z,,,,,,,,,,,,,,,,,51,,,,,,,,,,,,,,236.4750000476779,,response,,,,13,G,,,,,,Space,keypress(Space),,,,instrumental,,,,-------- -------- --- --- ---- --- --- ------ -- --------<br>---- --------- --- ------- ------------ ---------- ---------<br>--- ---------- ------- ---------- ------- -- -------- ----<br>---- --- ------ ----- ------ -- join --- ----- -- - -------<br>-------- -- --- --- -- ----- ----------- ----- -----------<br>---- --- ---------- --- ---- --- -- ----------,209564.60000002384,209563.70000004768,209310.811,209311.89999997616,209327.225,209577.072,,31,join
screen,html.Screen,2_3_1_0_1_32,2022-05-09T17:11:28.041Z,,,,,,,,,,,,,,,,,51,,,,,,,,,,,,,,230.62800004769815,,response,,,,13,G,,,,,,Space,keypress(Space),,,,instrumental,,,,-------- -------- --- --- ---- --- --- ------ -- --------<br>---- --------- --- ------- ------------ ---------- ---------<br>--- ---------- ------- ---------- ------- -- -------- ----<br>---- --- ------ ----- ------ -- ---- the ----- -- - -------<br>-------- -- --- --- -- ----- ----------- ----- -----------<br>---- --- ---------- --- ---- --- -- ----------,209808.70000004768,209807.70000004768,209560.417,209564.80000007153,209577.072,209829.462,,32,the
screen,html.Screen,2_3_1_0_1_33,2022-05-09T17:11:28.289Z,,,,,,,,,,,,,,,,,51,,,,,,,,,,,,,,225.23800004768418,,response,,,,13,G,,,,,,Space,keypress(Space),,,,instrumental,,,,-------- -------- --- --- ---- --- --- ------ -- --------<br>---- --------- --- ------- ------------ ---------- ---------<br>--- ---------- ------- ---------- ------- -- -------- ----<br>---- --- ------ ----- ------ -- ---- --- House -- - -------<br>-------- -- --- --- -- ----- ----------- ----- -----------<br>---- --- ---------- --- ---- --- -- ----------,210055.80000007153,210054.70000004768,209793.717,209808.89999997616,209829.462,210060.258,,33,House
screen,html.Screen,2_3_1_0_1_34,2022-05-09T17:11:28.520Z,,,,,,,,,,,,,,,,,51,,,,,,,,,,,,,,226.24199999999837,,response,,,,13,G,,,,,,Space,keypress(Space),,,,instrumental,,,,-------- -------- --- --- ---- --- --- ------ -- --------<br>---- --------- --- ------- ------------ ---------- ---------<br>--- ---------- ------- ---------- ------- -- -------- ----<br>---- --- ------ ----- ------ -- ---- --- ----- in - -------<br>-------- -- --- --- -- ----- ----------- ----- -----------<br>---- --- ---------- --- ---- --- -- ----------,210287.60000002384,210286.5,210043.609,210056.10000002384,210060.258,210293.517,,34,in
screen,html.Screen,2_3_1_0_1_35,2022-05-09T17:11:28.739Z,,,,,,,,,,,,,,,,,51,,,,,,,,,,,,,,212.18300004769117,,response,,,,13,G,,,,,,Space,keypress(Space),,,,instrumental,,,,-------- -------- --- --- ---- --- --- ------ -- --------<br>---- --------- --- ------- ------------ ---------- ---------<br>--- ---------- ------- ---------- ------- -- -------- ----<br>---- --- ------ ----- ------ -- ---- --- ----- -- a -------<br>-------- -- --- --- -- ----- ----------- ----- -----------<br>---- --- ---------- --- ---- --- -- ----------,210506.39999997616,210505.70000004768,210276.837,210287.89999997616,210293.517,210509.954,,35,a
screen,html.Screen,2_3_1_0_1_36,2022-05-09T17:11:28.966Z,,,,,,,,,,,,,,,,,51,,,,,,,,,,,,,,222.44599997616024,,response,,,,13,G,,,,,,Space,keypress(Space),,,,instrumental,,,,-------- -------- --- --- ---- --- --- ------ -- --------<br>---- --------- --- ------- ------------ ---------- ---------<br>--- ---------- ------- ---------- ------- -- -------- ----<br>---- --- ------ ----- ------ -- ---- --- ----- -- - massive<br>-------- -- --- --- -- ----- ----------- ----- -----------<br>---- --- ---------- --- ---- --- -- ----------,210733.60000002384,210732.39999997616,210493.546,210506.5,210509.954,210743.374,,36,massive
screen,html.Screen,2_3_1_0_1_37,2022-05-09T17:11:29.246Z,,,,,,,,,,,,,,,,,51,,,,,,,,,,,,,,269.326000047673,,response,,,,13,G,,,,,,Space,keypress(Space),,,,instrumental,,,,-------- -------- --- --- ---- --- --- ------ -- --------<br>---- --------- --- ------- ------------ ---------- ---------<br>--- ---------- ------- ---------- ------- -- -------- ----<br>---- --- ------ ----- ------ -- ---- --- ----- -- - -------<br>overhaul -- --- --- -- ----- ----------- ----- -----------<br>---- --- ---------- --- ---- --- -- ----------,211013.39999997616,211012.70000004768,210726.778,210733.89999997616,210743.374,211026.629,,37,overhaul
screen,html.Screen,2_3_1_0_1_38,2022-05-09T17:11:29.493Z,,,,,,,,,,,,,,,,,51,,,,,,,,,,,,,,232.1710000715393,,response,,,,13,G,,,,,,Space,keypress(Space),,,,instrumental,,,,-------- -------- --- --- ---- --- --- ------ -- --------<br>---- --------- --- ------- ------------ ---------- ---------<br>--- ---------- ------- ---------- ------- -- -------- ----<br>---- --- ------ ----- ------ -- ---- --- ----- -- - -------<br>-------- of --- --- -- ----- ----------- ----- -----------<br>---- --- ---------- --- ---- --- -- ----------,211259.89999997616,211258.80000007153,211010.111,211013.60000002384,211026.629,211276.444,,38,of
