sender,sender_type,sender_id,timestamp,meta,,Blues,Classical,Country,Dance,Electronic,Folk,Gospel,Hip-Hop,Jazz,Latin,Musical/Film,New-age,Pop,Prolific_id,Provo_ID,R&B,Rap,Reggae,Religious,Rock,Soul,Swing,Traditional,age,artist_name,correct,correctResponse,distraction,duration,education,ended_on,familiarity,gender,headphone_check_performance,item,list,music_frequency,offensiveness,pleasantness,position_correct,preference,response,response_action,snippet_file,song_name,song_rating,sound,stimulus_1,stimulus_2,stimulus_3,text,time_commit,time_end,time_render,time_run,time_show,time_switch,url,word,word_ID
Prolific ID,html.Form,0,2022-05-03T13:19:36.339Z,"{""labjs_version"":""20.2.2"",""labjs_build"":{""flavor"":""production"",""commit"":""a25486e0c714a0ae2ce03ff94b7bb6896854dcfa""},""location"":""https://run.pavlovia.org/mvasilev/prolific3_music_h/"",""userAgent"":""Mozilla/5.0 (Windows NT 10.0; Win64; x64) AppleWebKit/537.36 (KHTML, like Gecko) Chrome/100.0.4896.88 Safari/537.36"",""platform"":""Win32"",""language"":""en-US"",""locale"":""en-US"",""timeZone"":""Europe/London"",""timezoneOffset"":-60,""screen_width"":1600,""screen_height"":900,""scroll_width"":1600,""scroll_height"":741,""window_innerWidth"":1600,""window_innerHeight"":789,""devicePixelRatio"":1}",,,,,,,,,,,,,,,608702d7661a76c56f62a02a,,,,,,,,,,,,,,,5978.720000095374,,form submission,,,,,,,,,,,,,,,,,,,,,160746.5,160744.40000009537,153717.009,151198.90000009537,154765.68,161173.734,{},,
Introduction,html.Screen,1_0,2022-05-03T13:19:42.397Z,,,,,,,,,,,,,,,,,,,,,,,,,,,,,,,5577.266000000003,,response,,,,,,,,,,,continue,click button,,,,,,,,,166804.79999995232,166751,159842.125,160747.79999995232,161173.734,167015.892,,,
Volume calibration,html.Screen,1_1,2022-05-03T13:20:14.645Z,,,,,,,,,,,,,,,,,,,,,,,,,,,,,,,31875.80800004769,,response,,,,,,,,,,,continue,click button,,,,,,,,,199052.5,198891.70000004768,166782.948,166807.90000009537,167015.892,199089.686,,,
Task instructions,html.Screen,1_2,2022-05-03T13:20:20.132Z,,,,,,,,,,,,,,,,,,,,,,,,,,,,,,,5418.2140000953805,,response,,,,,,,,,,,continue,click button,,,,,,,,,204539.79999995232,204507.90000009537,199023.178,199053,199089.686,204565.75,,,
Sounds,html.Screen,1_3_0_0,2022-05-03T13:20:24.396Z,,,,,,,,,,,,,,,,,,,,,,,,,,,,,,,4277.564000000013,,timeout,,,,,,,,,3,,,,,,,,I,O,S,,208803.40000009537,208793.372,204532.523,204541,204565.75,208843.314,,,
Judgement,html.Screen,1_3_0_1,2022-05-03T13:20:29.081Z,,,,,,,,,,,,,,,,,,,,,,,,,,,,true,3,,4511.386000047671,,response,,,,,,,,,3,,3,click #choice-3,,,,,I,O,S,,213489.09999990463,213354.70000004768,208793.372,208804.40000009537,208843.314,213503.806,,,
Trial,flow.Sequence,1_3_0,2022-05-03T13:20:29.088Z,,,,,,,,,,,,,,,,,,,,,,,,,,,,,,,8788.950000047684,,completion,,,,,,,,,3,,,,,,,,I,O,S,,213495.70000004768,213354.70000004768,204532.523,204540.79999995232,204565.75,213503.806,,,
Sounds,html.Screen,1_3_1_0,2022-05-03T13:20:33.336Z,,,,,,,,,,,,,,,,,,,,,,,,,,,,,,,4244.28899999999,,timeout,,,,,,,,,2,,,,,,,,I,S,O,,217744.09999990463,217731.526,213470.569,213498.79999995232,213503.806,217748.095,,,
Judgement,html.Screen,1_3_1_1,2022-05-03T13:20:33.884Z,,,,,,,,,,,,,,,,,,,,,,,,,,,,true,2,,536.0049999046314,,response,,,,,,,,,2,,2,click #choice-2,,,,,I,S,O,,218291.70000004768,218284.09999990463,217731.526,217745,217748.095,218380.613,,,
Trial,flow.Sequence,1_3_1,2022-05-03T13:20:33.964Z,,,,,,,,,,,,,,,,,,,,,,,,,,,,,,,4780.293999904621,,completion,,,,,,,,,2,,,,,,,,I,S,O,,218371.40000009537,218284.09999990463,213470.569,213497.59999990463,213503.806,218380.613,,,
Sounds,html.Screen,1_3_2_0,2022-05-03T13:20:38.202Z,,,,,,,,,,,,,,,,,,,,,,,,,,,,,,,4244.2179999999935,,timeout,,,,,,,,,1,,,,,,,,S,O,I,,222610.20000004768,222608.234,218280.668,218372.5,218380.613,222624.831,,,
Judgement,html.Screen,1_3_2_1,2022-05-03T13:20:38.864Z,,,,,,,,,,,,,,,,,,,,,,,,,,,,true,1,,643.0690000953618,,response,,,,,,,,,1,,1,click #choice-1,,,,,S,O,I,,223271.5,223267.90000009537,222608.234,222610.70000004768,222624.831,223274.042,,,
Trial,flow.Sequence,1_3_2,2022-05-03T13:20:38.865Z,,,,,,,,,,,,,,,,,,,,,,,,,,,,,,,4887.287000095355,,completion,,,,,,,,,1,,,,,,,,S,O,I,,223272.40000009537,223267.90000009537,218280.668,218372.20000004768,218380.613,223274.042,,,
Sounds,html.Screen,1_3_3_0,2022-05-03T13:20:43.096Z,,,,,,,,,,,,,,,,,,,,,,,,,,,,,,,4244.868000000017,,timeout,,,,,,,,,3,,,,,,,,O,I,S,,227504.09999990463,227501.678,223257.355,223273,223274.042,227518.91,,,
Judgement,html.Screen,1_3_3_1,2022-05-03T13:20:43.745Z,,,,,,,,,,,,,,,,,,,,,,,,,,,,true,3,,628.9900000953639,,response,,,,,,,,,3,,3,click #choice-3,,,,,O,I,S,,228153.09999990463,228147.90000009537,227501.678,227504.40000009537,227518.91,228150.822,,,
Trial,flow.Sequence,1_3_3,2022-05-03T13:20:43.746Z,,,,,,,,,,,,,,,,,,,,,,,,,,,,,,,4873.858000095381,,completion,,,,,,,,,3,,,,,,,,O,I,S,,228153.79999995232,228147.90000009537,223257.355,223272.79999995232,223274.042,228150.822,,,
Sounds,html.Screen,1_3_4_0,2022-05-03T13:20:47.994Z,,,,,,,,,,,,,,,,,,,,,,,,,,,,,,,4244.391000000003,,timeout,,,,,,,,,2,,,,,,,,O,S,I,,232401.90000009537,232378.546,228134.16,228154.40000009537,228150.822,232395.213,,,
Judgement,html.Screen,1_3_4_1,2022-05-03T13:20:48.449Z,,,,,,,,,,,,,,,,,,,,,,,,,,,,true,2,,457.6870000953786,,response,,,,,,,,,2,,2,click #choice-2,,,,,O,S,I,,232856.5,232852.90000009537,232378.546,232402.79999995232,232395.213,232861.235,,,
Trial,flow.Sequence,1_3_4,2022-05-03T13:20:48.449Z,,,,,,,,,,,,,,,,,,,,,,,,,,,,,,,4702.078000095382,,completion,,,,,,,,,2,,,,,,,,O,S,I,,232857.20000004768,232852.90000009537,228134.16,228154.09999990463,228150.822,232861.235,,,
Sounds,html.Screen,1_3_5_0,2022-05-03T13:20:52.686Z,,,,,,,,,,,,,,,,,,,,,,,,,,,,,,,4277.593000000023,,timeout,,,,,,,,,1,,,,,,,,S,I,O,,237094,237088.902,232844.511,232857.79999995232,232861.235,237138.828,,,
Judgement,html.Screen,1_3_5_1,2022-05-03T13:20:53.377Z,,,,,,,,,,,,,,,,,,,,,,,,,,,,true,1,,641.5720000953588,,response,,,,,,,,,1,,1,click #choice-1,,,,,S,I,O,,237784.5,237780.40000009537,237088.902,237094.70000004768,237138.828,237854.533,,,
Trial,flow.Sequence,1_3_5,2022-05-03T13:20:53.378Z,,,,,,,,,,,,,,,,,,,,,,,,,,,,,,,4919.165000095381,,completion,,,,,,,,,1,,,,,,,,S,I,O,,237785.40000009537,237780.40000009537,232844.511,232857.59999990463,232861.235,237854.533,,,
Task,flow.Loop,1_3,2022-05-03T13:20:53.406Z,,,,,,,,,,,,,,,,,,,,,,,,,,,,,,,33214.65000009537,,completion,,,1,,,,,,,,,,,,,,,,,,237813.29999995232,237780.40000009537,204532.523,204540.5,204565.75,237854.533,,,
Trap,html.Screen,1_4,2022-05-03T13:20:53.439Z,,,,,,,,,,,,,,,,,,,,,,,,,,,,,,,NaN,,skipped,,,,,,,,,,,,,,,,,,,,,237846.90000009537,237780.40000009537,,237845.5,,237854.533,,,
Thanks,html.Screen,1_5,2022-05-03T13:20:58.536Z,,,,,,,,,,,,,,,,,,,,,,,,,,,,,,,5037.967000000004,,response,,,,,,,,,,,continue,click button,,,,,,,,,242943.40000009537,242892.5,237771.367,237848.79999995232,237854.533,252368.518,,,
Headphone screening,flow.Sequence,1,2022-05-03T13:20:58.536Z,,,,,,,,,,,,,,,,,,,,,,,,,,,,,,,81718.766,,completion,,,,,,,,,,,,,,,,,,,,,242944.20000004768,242892.5,159842.125,160747.59999990463,161173.734,252368.518,,,
Instructions,html.Page,2_0,2022-05-03T13:21:29.246Z,,,,,,,,,,,,,,,,,,,,,,,,,,,,,,,21285.08199990462,,form submission,,,,,,,,,,,,,,,,,,,,,273654.5,273653.59999990463,252285.18,252314.09999990463,252368.518,273689.981,,,
Holding screen,html.Screen,2_1_0_0,2022-05-03T13:21:39.270Z,,,,,,,,,,,,,,,,,,,,,,,,,,,,,,,10203.046999999962,,timeout,,,,,,,,,,,,,,,,,,,,,283678,283676.533,273573.474,273655.40000009537,273689.981,283893.028,,,
screen,html.Screen,2_1_0_1_0,2022-05-03T13:21:40.316Z,,,,,,,,,,,,,,,,,53,,,,,,,,,,,,,,799.5719999046414,,response,,,,99,,,,,,,Space,keypress(Space),,,,,,,,When -- ----- -- ------ - ------- --- ----------<br>------------- ------ ------ ---- ---- ------- ----- -- ----<br>-------- ------- -- ---------- --- - --- ----- ----- ----<br>---- --- --- ----- --- ---- ---- ------- ----- ---- -------<br>--- --- -- ----- -- --- ---- -- --- ---- -- ------ ------<br>--- ----- -- ----,284723.90000009537,284692.59999990463,283676.533,283678.5,283893.028,284741.758,,0,When
screen,html.Screen,2_1_0_1_1,2022-05-03T13:21:40.774Z,,,,,,,,,,,,,,,,,53,,,,,,,,,,,,,,436.4420000477112,,response,,,,99,,,,,,,Space,keypress(Space),,,,,,,,---- it ----- -- ------ - ------- --- ----------<br>------------- ------ ------ ---- ---- ------- ----- -- ----<br>-------- ------- -- ---------- --- - --- ----- ----- ----<br>---- --- --- ----- --- ---- ---- ------- ----- ---- -------<br>--- --- -- ----- -- --- ---- -- --- ---- -- ------ ------<br>--- ----- -- ----,285182.5,285178.2000000477,284725.17,284724.40000009537,284741.758,285191.22,,1,it
screen,html.Screen,2_1_0_1_2,2022-05-03T13:21:41.263Z,,,,,,,,,,,,,,,,,53,,,,,,,,,,,,,,470.3799999046605,,response,,,,99,,,,,,,Space,keypress(Space),,,,,,,,---- -- comes -- ------ - ------- --- ----------<br>------------- ------ ------ ---- ---- ------- ----- -- ----<br>-------- ------- -- ---------- --- - --- ----- ----- ----<br>---- --- --- ----- --- ---- ---- ------- ----- ---- -------<br>--- --- -- ----- -- --- ---- -- --- ---- -- ------ ------<br>--- ----- -- ----,285671.2000000477,285661.59999990463,285174.548,285183.09999990463,285191.22,285673.937,,2,comes
screen,html.Screen,2_1_0_1_3,2022-05-03T13:21:41.671Z,,,,,,,,,,,,,,,,,53,,,,,,,,,,,,,,402.6629999046563,,response,,,,99,,,,,,,Space,keypress(Space),,,,,,,,---- -- ----- to ------ - ------- --- ----------<br>------------- ------ ------ ---- ---- ------- ----- -- ----<br>-------- ------- -- ---------- --- - --- ----- ----- ----<br>---- --- --- ----- --- ---- ---- ------- ----- ---- -------<br>--- --- -- ----- -- --- ---- -- --- ---- -- ------ ------<br>--- ----- -- ----,286079.40000009537,286076.59999990463,285657.318,285671.7000000477,285673.937,286089.974,,3,to
screen,html.Screen,2_1_0_1_4,2022-05-03T13:21:42.079Z,,,,,,,,,,,,,,,,,53,,,,,,,,,,,,,,395.0260000000126,,response,,,,99,,,,,,,Space,keypress(Space),,,,,,,,---- -- ----- -- having - ------- --- ----------<br>------------- ------ ------ ---- ---- ------- ----- -- ----<br>-------- ------- -- ---------- --- - --- ----- ----- ----<br>---- --- --- ----- --- ---- ---- ------- ----- ---- -------<br>--- --- -- ----- -- --- ---- -- --- ---- -- ------ ------<br>--- ----- -- ----,286486.59999990463,286485,286073.336,286080.09999990463,286089.974,286489.444,,4,having
screen,html.Screen,2_1_0_1_5,2022-05-03T13:21:42.456Z,,,,,,,,,,,,,,,,,53,,,,,,,,,,,,,,371.756000047666,,response,,,,99,,,,,,,Space,keypress(Space),,,,,,,,---- -- ----- -- ------ a ------- --- ----------<br>------------- ------ ------ ---- ---- ------- ----- -- ----<br>-------- ------- -- ---------- --- - --- ----- ----- ----<br>---- --- --- ----- --- ---- ---- ------- ----- ---- -------<br>--- --- -- ----- -- --- ---- -- --- ---- -- ------ ------<br>--- ----- -- ----,286864.2000000477,286861.2000000477,286472.749,286487.09999990463,286489.444,286872.272,,5,a
screen,html.Screen,2_1_0_1_6,2022-05-03T13:21:43.026Z,,,,,,,,,,,,,,,,,53,,,,,,,,,,,,,,525.9280000476865,,response,,,,99,,,,,,,Space,keypress(Space),,,,,,,,---- -- ----- -- ------ - lasting --- ----------<br>------------- ------ ------ ---- ---- ------- ----- -- ----<br>-------- ------- -- ---------- --- - --- ----- ----- ----<br>---- --- --- ----- --- ---- ---- ------- ----- ---- -------<br>--- --- -- ----- -- --- ---- -- --- ---- -- ------ ------<br>--- ----- -- ----,287434.40000009537,287398.2000000477,286855.585,286864.7000000477,286872.272,287438.179,,6,lasting
screen,html.Screen,2_1_0_1_7,2022-05-03T13:21:43.620Z,,,,,,,,,,,,,,,,,53,,,,,,,,,,,,,,570.2210000953637,,response,,,,99,,,,,,,Space,keypress(Space),,,,,,,,---- -- ----- -- ------ - ------- and ----------<br>------------- ------ ------ ---- ---- ------- ----- -- ----<br>-------- ------- -- ---------- --- - --- ----- ----- ----<br>---- --- --- ----- --- ---- ---- ------- ----- ---- -------<br>--- --- -- ----- -- --- ---- -- --- ---- -- ------ ------<br>--- ----- -- ----,288028.2999999523,288008.40000009537,287421.54,287435.09999990463,287438.179,288037.476,,7,and
screen,html.Screen,2_1_0_1_8,2022-05-03T13:21:44.145Z,,,,,,,,,,,,,,,,,53,,,,,,,,,,,,,,505.2240000476595,,response,,,,99,,,,,,,Space,keypress(Space),,,,,,,,---- -- ----- -- ------ - ------- --- fulfilling<br>------------- ------ ------ ---- ---- ------- ----- -- ----<br>-------- ------- -- ---------- --- - --- ----- ----- ----<br>---- --- --- ----- --- ---- ---- ------- ----- ---- -------<br>--- --- -- ----- -- --- ---- -- --- ---- -- ------ ------<br>--- ----- -- ----,288552.7000000477,288542.7000000477,288020.718,288029,288037.476,288586.662,,8,fulfilling
screen,html.Screen,2_1_0_1_9,2022-05-03T13:21:44.696Z,,,,,,,,,,,,,,,,,53,,,,,,,,,,,,,,514.2380000953563,,response,,,,99,,,,,,,Space,keypress(Space),,,,,,,,"---- -- ----- -- ------ - ------- --- ----------<br>relationship, ------ ------ ---- ---- ------- ----- -- ----<br>-------- ------- -- ---------- --- - --- ----- ----- ----<br>---- --- --- ----- --- ---- ---- ------- ----- ---- -------<br>--- --- -- ----- -- --- ---- -- --- ---- -- ------ ------<br>--- ----- -- ----",289103.7999999523,289100.90000009537,288553.378,288566.2000000477,288586.662,289119.5,,9,"relationship,"
screen,html.Screen,2_1_0_1_10,2022-05-03T13:21:45.434Z,,,,,,,,,,,,,,,,,53,,,,,,,,,,,,,,709.7000000476837,,response,,,,99,,,,,,,Space,keypress(Space),,,,,,,,---- -- ----- -- ------ - ------- --- ----------<br>------------- common ------ ---- ---- ------- ----- -- ----<br>-------- ------- -- ---------- --- - --- ----- ----- ----<br>---- --- --- ----- --- ---- ---- ------- ----- ---- -------<br>--- --- -- ----- -- --- ---- -- --- ---- -- ------ ------<br>--- ----- -- ----,289841.7000000477,289829.2000000477,289102.558,289104.40000009537,289119.5,289851.613,,10,common
screen,html.Screen,2_1_0_1_11,2022-05-03T13:21:46.025Z,,,,,,,,,,,,,,,,,53,,,,,,,,,,,,,,499.98699990462046,,response,,,,99,,,,,,,Space,keypress(Space),,,,,,,,---- -- ----- -- ------ - ------- --- ----------<br>------------- ------ wisdom ---- ---- ------- ----- -- ----<br>-------- ------- -- ---------- --- - --- ----- ----- ----<br>---- --- --- ----- --- ---- ---- ------- ----- ---- -------<br>--- --- -- ----- -- --- ---- -- --- ---- -- ------ ------<br>--- ----- -- ----,290433.2000000477,290351.59999990463,289834.927,289842.2999999523,289851.613,290450.815,,11,wisdom
screen,html.Screen,2_1_0_1_12,2022-05-03T13:21:46.538Z,,,,,,,,,,,,,,,,,53,,,,,,,,,,,,,,486.78499990463024,,response,,,,99,,,,,,,Space,keypress(Space),,,,,,,,---- -- ----- -- ------ - ------- --- ----------<br>------------- ------ ------ says ---- ------- ----- -- ----<br>-------- ------- -- ---------- --- - --- ----- ----- ----<br>---- --- --- ----- --- ---- ---- ------- ----- ---- -------<br>--- --- -- ----- -- --- ---- -- --- ---- -- ------ ------<br>--- ----- -- ----,290946.5,290937.59999990463,290434.248,290433.90000009537,290450.815,290966.861,,12,says
screen,html.Screen,2_1_0_1_13,2022-05-03T13:21:46.990Z,,,,,,,,,,,,,,,,,53,,,,,,,,,,,,,,429.1390000000247,,response,,,,99,,,,,,,Space,keypress(Space),,,,,,,,---- -- ----- -- ------ - ------- --- ----------<br>------------- ------ ------ ---- that ------- ----- -- ----<br>-------- ------- -- ---------- --- - --- ----- ----- ----<br>---- --- --- ----- --- ---- ---- ------- ----- ---- -------<br>--- --- -- ----- -- --- ---- -- --- ---- -- ------ ------<br>--- ----- -- ----,291397.90000009537,291396,290950.225,290955.7000000477,290966.861,291432.84,,13,that
screen,html.Screen,2_1_0_1_14,2022-05-03T13:21:47.552Z,,,,,,,,,,,,,,,,,53,,,,,,,,,,,,,,477.25999990460696,,response,,,,99,,,,,,,Space,keypress(Space),,,,,,,,---- -- ----- -- ------ - ------- --- ----------<br>------------- ------ ------ ---- ---- feeling ----- -- ----<br>-------- ------- -- ---------- --- - --- ----- ----- ----<br>---- --- --- ----- --- ---- ---- ------- ----- ---- -------<br>--- --- -- ----- -- --- ---- -- --- ---- -- ------ ------<br>--- ----- -- ----,291960,291910.09999990463,291416.203,291398.5,291432.84,291965.534,,14,feeling
screen,html.Screen,2_1_0_1_15,2022-05-03T13:21:48.147Z,,,,,,,,,,,,,,,,,53,,,,,,,,,,,,,,455.1660000476986,,response,,,,99,,,,,,,Space,keypress(Space),,,,,,,,---- -- ----- -- ------ - ------- --- ----------<br>------------- ------ ------ ---- ---- ------- close -- ----<br>-------- ------- -- ---------- --- - --- ----- ----- ----<br>---- --- --- ----- --- ---- ---- ------- ----- ---- -------<br>--- --- -- ----- -- --- ---- -- --- ---- -- ------ ------<br>--- ----- -- ----,292555,292420.7000000477,291948.769,291960.5,291965.534,292564.783,,15,close
screen,html.Screen,2_1_0_1_16,2022-05-03T13:21:48.469Z,,,,,,,,,,,,,,,,,53,,,,,,,,,,,,,,309.6170000953716,,response,,,,99,,,,,,,Space,keypress(Space),,,,,,,,---- -- ----- -- ------ - ------- --- ----------<br>------------- ------ ------ ---- ---- ------- ----- to ----<br>-------- ------- -- ---------- --- - --- ----- ----- ----<br>---- --- --- ----- --- ---- ---- ------- ----- ---- -------<br>--- --- -- ----- -- --- ---- -- --- ---- -- ------ ------<br>--- ----- -- ----,292876.7999999523,292874.40000009537,292547.944,292555.2999999523,292564.783,292880.882,,16,to
screen,html.Screen,2_1_0_1_17,2022-05-03T13:21:49.078Z,,,,,,,,,,,,,,,,,53,,,,,,,,,,,,,,598.3180000477005,,response,,,,99,,,,,,,Space,keypress(Space),,,,,,,,---- -- ----- -- ------ - ------- --- ----------<br>------------- ------ ------ ---- ---- ------- ----- -- your<br>-------- ------- -- ---------- --- - --- ----- ----- ----<br>---- --- --- ----- --- ---- ---- ------- ----- ---- -------<br>--- --- -- ----- -- --- ---- -- --- ---- -- ------ ------<br>--- ----- -- ----,293485.90000009537,293479.2000000477,292864.313,292877.09999990463,292880.882,293496.788,,17,your
screen,html.Screen,2_1_0_1_18,2022-05-03T13:21:49.667Z,,,,,,,,,,,,,,,,,53,,,,,,,,,,,,,,517.9120000476833,,response,,,,99,,,,,,,Space,keypress(Space),,,,,,,,---- -- ----- -- ------ - ------- --- ----------<br>------------- ------ ------ ---- ---- ------- ----- -- ----<br>romantic ------- -- ---------- --- - --- ----- ----- ----<br>---- --- --- ----- --- ---- ---- ------- ----- ---- -------<br>--- --- -- ----- -- --- ---- -- --- ---- -- ------ ------<br>--- ----- -- ----,294075.5,294014.7000000477,293480.167,293487.2000000477,293496.788,294079.337,,18,romantic
screen,html.Screen,2_1_0_1_19,2022-05-03T13:21:50.151Z,,,,,,,,,,,,,,,,,53,,,,,,,,,,,,,,477.3630000476842,,response,,,,99,,,,,,,Space,keypress(Space),,,,,,,,---- -- ----- -- ------ - ------- --- ----------<br>------------- ------ ------ ---- ---- ------- ----- -- ----<br>-------- partner -- ---------- --- - --- ----- ----- ----<br>---- --- --- ----- --- ---- ---- ------- ----- ---- -------<br>--- --- -- ----- -- --- ---- -- --- ---- -- ------ ------<br>--- ----- -- ----,294558.7000000477,294556.7000000477,294062.68,294076,294079.337,294578.625,,19,partner
screen,html.Screen,2_1_0_1_20,2022-05-03T13:21:50.799Z,,,,,,,,,,,,,,,,,53,,,,,,,,,,,,,,552.875,,response,,,,99,,,,,,,Space,keypress(Space),,,,,,,,---- -- ----- -- ------ - ------- --- ----------<br>------------- ------ ------ ---- ---- ------- ----- -- ----<br>-------- ------- is ---------- --- - --- ----- ----- ----<br>---- --- --- ----- --- ---- ---- ------- ----- ---- -------<br>--- --- -- ----- -- --- ---- -- --- ---- -- ------ ------<br>--- ----- -- ----,295207.40000009537,295131.5,294563.017,294559.40000009537,294578.625,295227.781,,20,is
screen,html.Screen,2_1_0_1_21,2022-05-03T13:21:51.842Z,,,,,,,,,,,,,,,,,53,,,,,,,,,,,,,,1019.2189999999828,,response,,,,99,,,,,,,Space,keypress(Space),,,,,,,,---- -- ----- -- ------ - ------- --- ----------<br>------------- ------ ------ ---- ---- ------- ----- -- ----<br>-------- ------- -- paramount. --- - --- ----- ----- ----<br>---- --- --- ----- --- ---- ---- ------- ----- ---- -------<br>--- --- -- ----- -- --- ---- -- --- ---- -- ------ ------<br>--- ----- -- ----,296249.59999990463,296247,295194.461,295208.2999999523,295227.781,296259.692,,21,paramount.
screen,html.Screen,2_1_0_1_22,2022-05-03T13:21:52.588Z,,,,,,,,,,,,,,,,,53,,,,,,,,,,,,,,731.8080000000191,,response,,,,99,,,,,,,Space,keypress(Space),,,,,,,,---- -- ----- -- ------ - ------- --- ----------<br>------------- ------ ------ ---- ---- ------- ----- -- ----<br>-------- ------- -- ---------- But - --- ----- ----- ----<br>---- --- --- ----- --- ---- ---- ------- ----- ---- -------<br>--- --- -- ----- -- --- ---- -- --- ---- -- ------ ------<br>--- ----- -- ----,296996,296991.5,296243.166,296251.5,296259.692,297008.708,,22,But
screen,html.Screen,2_1_0_1_23,2022-05-03T13:21:53.205Z,,,,,,,,,,,,,,,,,53,,,,,,,,,,,,,,526.3919999046484,,response,,,,99,,,,,,,Space,keypress(Space),,,,,,,,---- -- ----- -- ------ - ------- --- ----------<br>------------- ------ ------ ---- ---- ------- ----- -- ----<br>-------- ------- -- ---------- --- a --- ----- ----- ----<br>---- --- --- ----- --- ---- ---- ------- ----- ---- -------<br>--- --- -- ----- -- --- ---- -- --- ---- -- ------ ------<br>--- ----- -- ----,297613.40000009537,297535.09999990463,296992.079,296996.7999999523,297008.708,297624.593,,23,a
screen,html.Screen,2_1_0_1_24,2022-05-03T13:21:53.607Z,,,,,,,,,,,,,,,,,53,,,,,,,,,,,,,,389.5069999046391,,response,,,,99,,,,,,,Space,keypress(Space),,,,,,,,---- -- ----- -- ------ - ------- --- ----------<br>------------- ------ ------ ---- ---- ------- ----- -- ----<br>-------- ------- -- ---------- --- - new ----- ----- ----<br>---- --- --- ----- --- ---- ---- ------- ----- ---- -------<br>--- --- -- ----- -- --- ---- -- --- ---- -- ------ ------<br>--- ----- -- ----,298015.40000009537,298014.09999990463,297607.9,297613.7000000477,297624.593,298024.162,,24,new
screen,html.Screen,2_1_0_1_25,2022-05-03T13:21:54.063Z,,,,,,,,,,,,,,,,,53,,,,,,,,,,,,,,443.3379999999888,,response,,,,99,,,,,,,Space,keypress(Space),,,,,,,,---- -- ----- -- ------ - ------- --- ----------<br>------------- ------ ------ ---- ---- ------- ----- -- ----<br>-------- ------- -- ---------- --- - --- study ----- ----<br>---- --- --- ----- --- ---- ---- ------- ----- ---- -------<br>--- --- -- ----- -- --- ---- -- --- ---- -- ------ ------<br>--- ----- -- ----,298470.7000000477,298467.5,298007.344,298015.7000000477,298024.162,298473.425,,25,study
screen,html.Screen,2_1_0_1_26,2022-05-03T13:21:54.458Z,,,,,,,,,,,,,,,,,53,,,,,,,,,,,,,,391.57500000001164,,response,,,,99,,,,,,,Space,keypress(Space),,,,,,,,---- -- ----- -- ------ - ------- --- ----------<br>------------- ------ ------ ---- ---- ------- ----- -- ----<br>-------- ------- -- ---------- --- - --- ----- finds ----<br>---- --- --- ----- --- ---- ---- ------- ----- ---- -------<br>--- --- -- ----- -- --- ---- -- --- ---- -- ------ ------<br>--- ----- -- ----,298866.5,298865,298456.711,298471.2000000477,298473.425,298872.864,,26,finds
screen,html.Screen,2_1_0_1_27,2022-05-03T13:21:54.952Z,,,,,,,,,,,,,,,,,53,,,,,,,,,,,,,,485.8360000476823,,response,,,,99,,,,,,,Space,keypress(Space),,,,,,,,---- -- ----- -- ------ - ------- --- ----------<br>------------- ------ ------ ---- ---- ------- ----- -- ----<br>-------- ------- -- ---------- --- - --- ----- ----- that<br>---- --- --- ----- --- ---- ---- ------- ----- ---- -------<br>--- --- -- ----- -- --- ---- -- --- ---- -- ------ ------<br>--- ----- -- ----,299360.40000009537,299358.7000000477,298856.266,298866.90000009537,298872.864,299372.213,,27,that
screen,html.Screen,2_1_0_1_28,2022-05-03T13:21:55.610Z,,,,,,,,,,,,,,,,,53,,,,,,,,,,,,,,644.3869999046437,,response,,,,99,,,,,,,Space,keypress(Space),,,,,,,,---- -- ----- -- ------ - ------- --- ----------<br>------------- ------ ------ ---- ---- ------- ----- -- ----<br>-------- ------- -- ---------- --- - --- ----- ----- ----<br>it's --- --- ----- --- ---- ---- ------- ----- ---- -------<br>--- --- -- ----- -- --- ---- -- --- ---- -- ------ ------<br>--- ----- -- ----,300018.2999999523,300016.59999990463,299355.527,299360.7999999523,299372.213,300021.396,,28,it's
screen,html.Screen,2_1_0_1_29,2022-05-03T13:21:56.066Z,,,,,,,,,,,,,,,,,53,,,,,,,,,,,,,,450.8040000476758,,response,,,,99,,,,,,,Space,keypress(Space),,,,,,,,---- -- ----- -- ------ - ------- --- ----------<br>------------- ------ ------ ---- ---- ------- ----- -- ----<br>-------- ------- -- ---------- --- - --- ----- ----- ----<br>---- not --- ----- --- ---- ---- ------- ----- ---- -------<br>--- --- -- ----- -- --- ---- -- --- ---- -- ------ ------<br>--- ----- -- ----,300474.40000009537,300472.2000000477,300004.644,300018.7999999523,300021.396,300487.369,,29,not
screen,html.Screen,2_1_0_1_30,2022-05-03T13:21:56.586Z,,,,,,,,,,,,,,,,,53,,,,,,,,,,,,,,503.0310000953614,,response,,,,99,,,,,,,Space,keypress(Space),,,,,,,,---- -- ----- -- ------ - ------- --- ----------<br>------------- ------ ------ ---- ---- ------- ----- -- ----<br>-------- ------- -- ---------- --- - --- ----- ----- ----<br>---- --- how ----- --- ---- ---- ------- ----- ---- -------<br>--- --- -- ----- -- --- ---- -- --- ---- -- ------ ------<br>--- ----- -- ----,300993.7000000477,300990.40000009537,300470.797,300475.2999999523,300487.369,301003.36,,30,how
screen,html.Screen,2_1_0_1_31,2022-05-03T13:21:57.122Z,,,,,,,,,,,,,,,,,53,,,,,,,,,,,,,,505.73999990464654,,response,,,,99,,,,,,,Space,keypress(Space),,,,,,,,---- -- ----- -- ------ - ------- --- ----------<br>------------- ------ ------ ---- ---- ------- ----- -- ----<br>-------- ------- -- ---------- --- - --- ----- ----- ----<br>---- --- --- close --- ---- ---- ------- ----- ---- -------<br>--- --- -- ----- -- --- ---- -- --- ---- -- ------ ------<br>--- ----- -- ----,301530.5,301509.09999990463,300986.757,300994.2000000477,301003.36,301536.063,,31,close
screen,html.Screen,2_1_0_1_32,2022-05-03T13:21:57.536Z,,,,,,,,,,,,,,,,,53,,,,,,,,,,,,,,404.73699995229254,,response,,,,99,,,,,,,Space,keypress(Space),,,,,,,,---- -- ----- -- ------ - ------- --- ----------<br>------------- ------ ------ ---- ---- ------- ----- -- ----<br>-------- ------- -- ---------- --- - --- ----- ----- ----<br>---- --- --- ----- you ---- ---- ------- ----- ---- -------<br>--- --- -- ----- -- --- ---- -- --- ---- -- ------ ------<br>--- ----- -- ----,301944.2999999523,301940.7999999523,301519.38,301530.90000009537,301536.063,301952.251,,32,you
screen,html.Screen,2_1_0_1_33,2022-05-03T13:21:58.333Z,,,,,,,,,,,,,,,,,53,,,,,,,,,,,,,,787.048999952327,,response,,,,99,,,,,,,Space,keypress(Space),,,,,,,,---- -- ----- -- ------ - ------- --- ----------<br>------------- ------ ------ ---- ---- ------- ----- -- ----<br>-------- ------- -- ---------- --- - --- ----- ----- ----<br>---- --- --- ----- --- feel ---- ------- ----- ---- -------<br>--- --- -- ----- -- --- ---- -- --- ---- -- ------ ------<br>--- ----- -- ----,302741.2999999523,302739.2999999523,301935.464,301945.2000000477,301952.251,302751.075,,33,feel
screen,html.Screen,2_1_0_1_34,2022-05-03T13:21:58.769Z,,,,,,,,,,,,,,,,,53,,,,,,,,,,,,,,423.3250000953558,,response,,,,99,,,,,,,Space,keypress(Space),,,,,,,,---- -- ----- -- ------ - ------- --- ----------<br>------------- ------ ------ ---- ---- ------- ----- -- ----<br>-------- ------- -- ---------- --- - --- ----- ----- ----<br>---- --- --- ----- --- ---- that ------- ----- ---- -------<br>--- --- -- ----- -- --- ---- -- --- ---- -- ------ ------<br>--- ----- -- ----,303177.2999999523,303174.40000009537,302734.345,302741.59999990463,302751.075,303183.788,,34,that
screen,html.Screen,2_1_0_1_35,2022-05-03T13:21:59.352Z,,,,,,,,,,,,,,,,,53,,,,,,,,,,,,,,572.8119999046321,,response,,,,99,,,,,,,Space,keypress(Space),,,,,,,,---- -- ----- -- ------ - ------- --- ----------<br>------------- ------ ------ ---- ---- ------- ----- -- ----<br>-------- ------- -- ---------- --- - --- ----- ----- ----<br>---- --- --- ----- --- ---- ---- matters ----- ---- -------<br>--- --- -- ----- -- --- ---- -- --- ---- -- ------ ------<br>--- ----- -- ----,303760.09999990463,303756.59999990463,303167.188,303180.2000000477,303183.788,303766.349,,35,matters
screen,html.Screen,2_1_0_1_36,2022-05-03T13:21:59.836Z,,,,,,,,,,,,,,,,,53,,,,,,,,,,,,,,474.95099995232886,,response,,,,99,,,,,,,Space,keypress(Space),,,,,,,,"---- -- ----- -- ------ - ------- --- ----------<br>------------- ------ ------ ---- ---- ------- ----- -- ----<br>-------- ------- -- ---------- --- - --- ----- ----- ----<br>---- --- --- ----- --- ---- ---- ------- most, ---- -------<br>--- --- -- ----- -- --- ---- -- --- ---- -- ------ ------<br>--- ----- -- ----",304244.40000009537,304241.2999999523,303749.798,303760.59999990463,303766.349,304249.011,,36,"most,"
screen,html.Screen,2_1_0_1_37,2022-05-03T13:22:00.423Z,,,,,,,,,,,,,,,,,53,,,,,,,,,,,,,,534.2889999523177,,response,,,,99,,,,,,,Space,keypress(Space),,,,,,,,---- -- ----- -- ------ - ------- --- ----------<br>------------- ------ ------ ---- ---- ------- ----- -- ----<br>-------- ------- -- ---------- --- - --- ----- ----- ----<br>---- --- --- ----- --- ---- ---- ------- ----- it's -------<br>--- --- -- ----- -- --- ---- -- --- ---- -- ------ ------<br>--- ----- -- ----,304831,304783.2999999523,304232.329,304244.90000009537,304249.011,304848.21,,37,it's
screen,html.Screen,2_1_0_1_38,2022-05-03T13:22:01.011Z,,,,,,,,,,,,,,,,,53,,,,,,,,,,,,,,505.8899999046116,,response,,,,99,,,,,,,Space,keypress(Space),,,,,,,,---- -- ----- -- ------ - ------- --- ----------<br>------------- ------ ------ ---- ---- ------- ----- -- ----<br>-------- ------- -- ---------- --- - --- ----- ----- ----<br>---- --- --- ----- --- ---- ---- ------- ----- ---- whether<br>--- --- -- ----- -- --- ---- -- --- ---- -- ------ ------<br>--- ----- -- ----,305418.90000009537,305354.09999990463,304831.64,304831.40000009537,304848.21,305430.758,,38,whether
screen,html.Screen,2_1_0_1_39,2022-05-03T13:22:01.500Z,,,,,,,,,,,,,,,,,53,,,,,,,,,,,,,,446.04199995234376,,response,,,,99,,,,,,,Space,keypress(Space),,,,,,,,---- -- ----- -- ------ - ------- --- ----------<br>------------- ------ ------ ---- ---- ------- ----- -- ----<br>-------- ------- -- ---------- --- - --- ----- ----- ----<br>---- --- --- ----- --- ---- ---- ------- ----- ---- -------<br>you --- -- ----- -- --- ---- -- --- ---- -- ------ ------<br>--- ----- -- ----,305908,305876.7999999523,305414.053,305420.2999999523,305430.758,305913.499,,39,you
screen,html.Screen,2_1_0_1_40,2022-05-03T13:22:01.968Z,,,,,,,,,,,,,,,,,53,,,,,,,,,,,,,,450.3009999523056,,response,,,,99,,,,,,,Space,keypress(Space),,,,,,,,---- -- ----- -- ------ - ------- --- ----------<br>------------- ------ ------ ---- ---- ------- ----- -- ----<br>-------- ------- -- ---------- --- - --- ----- ----- ----<br>---- --- --- ----- --- ---- ---- ------- ----- ---- -------<br>--- are -- ----- -- --- ---- -- --- ---- -- ------ ------<br>--- ----- -- ----,306376,306363.7999999523,305896.819,305908.59999990463,305913.499,306379.627,,40,are
screen,html.Screen,2_1_0_1_41,2022-05-03T13:22:02.580Z,,,,,,,,,,,,,,,,,53,,,,,,,,,,,,,,604.8730000000214,,response,,,,99,,,,,,,Space,keypress(Space),,,,,,,,---- -- ----- -- ------ - ------- --- ----------<br>------------- ------ ------ ---- ---- ------- ----- -- ----<br>-------- ------- -- ---------- --- - --- ----- ----- ----<br>---- --- --- ----- --- ---- ---- ------- ----- ---- -------<br>--- --- as ----- -- --- ---- -- --- ---- -- ------ ------<br>--- ----- -- ----,306988.09999990463,306984.5,306362.817,306376.59999990463,306379.627,306995.347,,41,as
screen,html.Screen,2_1_0_1_42,2022-05-03T13:22:03.140Z,,,,,,,,,,,,,,,,,53,,,,,,,,,,,,,,534.7529999046237,,response,,,,99,,,,,,,Space,keypress(Space),,,,,,,,---- -- ----- -- ------ - ------- --- ----------<br>------------- ------ ------ ---- ---- ------- ----- -- ----<br>-------- ------- -- ---------- --- - --- ----- ----- ----<br>---- --- --- ----- --- ---- ---- ------- ----- ---- -------<br>--- --- -- close -- --- ---- -- --- ---- -- ------ ------<br>--- ----- -- ----,307548.2000000477,307530.09999990463,306978.729,306988.5,306995.347,307561.25,,42,close
screen,html.Screen,2_1_0_1_43,2022-05-03T13:22:03.548Z,,,,,,,,,,,,,,,,,53,,,,,,,,,,,,,,393.34999990463257,,response,,,,99,,,,,,,Space,keypress(Space),,,,,,,,---- -- ----- -- ------ - ------- --- ----------<br>------------- ------ ------ ---- ---- ------- ----- -- ----<br>-------- ------- -- ---------- --- - --- ----- ----- ----<br>---- --- --- ----- --- ---- ---- ------- ----- ---- -------<br>--- --- -- ----- as --- ---- -- --- ---- -- ------ ------<br>--- ----- -- ----,307956.5,307954.59999990463,307544.531,307548.59999990463,307561.25,307960.728,,43,as
screen,html.Screen,2_1_0_1_44,2022-05-03T13:22:04.032Z,,,,,,,,,,,,,,,,,53,,,,,,,,,,,,,,476.9720000476809,,response,,,,99,,,,,,,Space,keypress(Space),,,,,,,,---- -- ----- -- ------ - ------- --- ----------<br>------------- ------ ------ ---- ---- ------- ----- -- ----<br>-------- ------- -- ---------- --- - --- ----- ----- ----<br>---- --- --- ----- --- ---- ---- ------- ----- ---- -------<br>--- --- -- ----- -- you ---- -- --- ---- -- ------ ------<br>--- ----- -- ----,308440,308437.7000000477,307944.132,307957.09999990463,307960.728,308443.457,,44,you
screen,html.Screen,2_1_0_1_45,2022-05-03T13:22:04.625Z,,,,,,,,,,,,,,,,,53,,,,,,,,,,,,,,587.4430000953726,,response,,,,99,,,,,,,Space,keypress(Space),,,,,,,,---- -- ----- -- ------ - ------- --- ----------<br>------------- ------ ------ ---- ---- ------- ----- -- ----<br>-------- ------- -- ---------- --- - --- ----- ----- ----<br>---- --- --- ----- --- ---- ---- ------- ----- ---- -------<br>--- --- -- ----- -- --- want -- --- ---- -- ------ ------<br>--- ----- -- ----,309032.90000009537,309030.90000009537,308426.736,308440.2999999523,308443.457,309042.788,,45,want
screen,html.Screen,2_1_0_1_46,2022-05-03T13:22:04.994Z,,,,,,,,,,,,,,,,,53,,,,,,,,,,,,,,356.5119999523158,,response,,,,99,,,,,,,Space,keypress(Space),,,,,,,,---- -- ----- -- ------ - ------- --- ----------<br>------------- ------ ------ ---- ---- ------- ----- -- ----<br>-------- ------- -- ---------- --- - --- ----- ----- ----<br>---- --- --- ----- --- ---- ---- ------- ----- ---- -------<br>--- --- -- ----- -- --- ---- to --- ---- -- ------ ------<br>--- ----- -- ----,309401.90000009537,309399.2999999523,309025.95,309033.40000009537,309042.788,309408.871,,46,to
screen,html.Screen,2_1_0_1_47,2022-05-03T13:22:05.924Z,,,,,,,,,,,,,,,,,53,,,,,,,,,,,,,,921.6290000000154,,response,,,,99,,,,,,,Space,keypress(Space),,,,,,,,"---- -- ----- -- ------ - ------- --- ----------<br>------------- ------ ------ ---- ---- ------- ----- -- ----<br>-------- ------- -- ---------- --- - --- ----- ----- ----<br>---- --- --- ----- --- ---- ---- ------- ----- ---- -------<br>--- --- -- ----- -- --- ---- -- be, ---- -- ------ ------<br>--- ----- -- ----",310332.59999990463,310330.5,309392.161,309402.5,309408.871,310340.877,,47,"be,"
screen,html.Screen,2_1_0_1_48,2022-05-03T13:22:06.386Z,,,,,,,,,,,,,,,,,53,,,,,,,,,,,,,,451.1230000000214,,response,,,,99,,,,,,,Space,keypress(Space),,,,,,,,---- -- ----- -- ------ - ------- --- ----------<br>------------- ------ ------ ---- ---- ------- ----- -- ----<br>-------- ------- -- ---------- --- - --- ----- ----- ----<br>---- --- --- ----- --- ---- ---- ------- ----- ---- -------<br>--- --- -- ----- -- --- ---- -- --- even -- ------ ------<br>--- ----- -- ----,310793.7000000477,310792,310324.242,310333,310340.877,310806.926,,48,even
screen,html.Screen,2_1_0_1_49,2022-05-03T13:22:06.779Z,,,,,,,,,,,,,,,,,53,,,,,,,,,,,,,,377.07400000002235,,response,,,,99,,,,,,,Space,keypress(Space),,,,,,,,---- -- ----- -- ------ - ------- --- ----------<br>------------- ------ ------ ---- ---- ------- ----- -- ----<br>-------- ------- -- ---------- --- - --- ----- ----- ----<br>---- --- --- ----- --- ---- ---- ------- ----- ---- -------<br>--- --- -- ----- -- --- ---- -- --- ---- if ------ ------<br>--- ----- -- ----,311186.59999990463,311184,310790.273,310794.7000000477,310806.926,311189.782,,49,if
screen,html.Screen,2_1_0_1_50,2022-05-03T13:22:07.270Z,,,,,,,,,,,,,,,,,53,,,,,,,,,,,,,,486.2179999999935,,response,,,,99,,,,,,,Space,keypress(Space),,,,,,,,---- -- ----- -- ------ - ------- --- ----------<br>------------- ------ ------ ---- ---- ------- ----- -- ----<br>-------- ------- -- ---------- --- - --- ----- ----- ----<br>---- --- --- ----- --- ---- ---- ------- ----- ---- -------<br>--- --- -- ----- -- --- ---- -- --- ---- -- that's ------<br>--- ----- -- ----,311678,311676,311173.065,311187.09999990463,311189.782,311689.095,,50,that's
screen,html.Screen,2_1_0_1_51,2022-05-03T13:22:07.813Z,,,,,,,,,,,,,,,,,53,,,,,,,,,,,,,,519.6050000477117,,response,,,,99,,,,,,,Space,keypress(Space),,,,,,,,---- -- ----- -- ------ - ------- --- ----------<br>------------- ------ ------ ---- ---- ------- ----- -- ----<br>-------- ------- -- ---------- --- - --- ----- ----- ----<br>---- --- --- ----- --- ---- ---- ------- ----- ---- -------<br>--- --- -- ----- -- --- ---- -- --- ---- -- ------ really<br>--- ----- -- ----,312220.7000000477,312208.7000000477,311672.402,311679.2999999523,311689.095,312238.339,,51,really
screen,html.Screen,2_1_0_1_52,2022-05-03T13:22:08.282Z,,,,,,,,,,,,,,,,,53,,,,,,,,,,,,,,441.96099995233817,,response,,,,99,,,,,,,Space,keypress(Space),,,,,,,,---- -- ----- -- ------ - ------- --- ----------<br>------------- ------ ------ ---- ---- ------- ----- -- ----<br>-------- ------- -- ---------- --- - --- ----- ----- ----<br>---- --- --- ----- --- ---- ---- ------- ----- ---- -------<br>--- --- -- ----- -- --- ---- -- --- ---- -- ------ ------<br>not ----- -- ----,312689.59999990463,312680.2999999523,312221.65,312221.2000000477,312238.339,312704.449,,52,not
screen,html.Screen,2_1_0_1_53,2022-05-03T13:22:08.674Z,,,,,,,,,,,,,,,,,53,,,,,,,,,,,,,,376.6509999046102,,response,,,,99,,,,,,,Space,keypress(Space),,,,,,,,---- -- ----- -- ------ - ------- --- ----------<br>------------- ------ ------ ---- ---- ------- ----- -- ----<br>-------- ------- -- ---------- --- - --- ----- ----- ----<br>---- --- --- ----- --- ---- ---- ------- ----- ---- -------<br>--- --- -- ----- -- --- ---- -- --- ---- -- ------ ------<br>--- close -- ----,313082.40000009537,313081.09999990463,312687.786,312690.59999990463,312704.449,313087.193,,53,close
screen,html.Screen,2_1_0_1_54,2022-05-03T13:22:09.079Z,,,,,,,,,,,,,,,,,53,,,,,,,,,,,,,,397.0070000476553,,response,,,,99,,,,,,,Space,keypress(Space),,,,,,,,---- -- ----- -- ------ - ------- --- ----------<br>------------- ------ ------ ---- ---- ------- ----- -- ----<br>-------- ------- -- ---------- --- - --- ----- ----- ----<br>---- --- --- ----- --- ---- ---- ------- ----- ---- -------<br>--- --- -- ----- -- --- ---- -- --- ---- -- ------ ------<br>--- ----- at ----,313487.2999999523,313484.2000000477,313070.537,313082.7999999523,313087.193,313503.331,,54,at
screen,html.Screen,2_1_0_1_55,2022-05-03T13:22:10.832Z,,,,,,,,,,,,,,,,,53,,,,,,,,,,,,,,1692.268999904627,,response,,,,99,,,,,,,Space,keypress(Space),,,,,,,,---- -- ----- -- ------ - ------- --- ----------<br>------------- ------ ------ ---- ---- ------- ----- -- ----<br>-------- ------- -- ---------- --- - --- ----- ----- ----<br>---- --- --- ----- --- ---- ---- ------- ----- ---- -------<br>--- --- -- ----- -- --- ---- -- --- ---- -- ------ ------<br>--- ----- -- all.,315240,315195.59999990463,313486.66,313489.2999999523,313503.331,315300.926,,55,all.
Item 99,flow.Loop,2_1_0_1,2022-05-03T13:22:10.834Z,,,,,,,,,,,,,,,,,,,,,,,,,,,,,,,31302.57199990464,,completion,,,,,H,,,,,,,,,,,silence,,,,,315242,315195.59999990463,283676.533,283678.2999999523,283893.028,315300.926,,,
Question 1,html.Screen,2_1_0_2,2022-05-03T13:22:19.480Z,,,,,,,,,,,,,,,,,,,,,,,,,,,,true,FALSE,,8578.673999904655,,response,,,,99,H,,,,,,FALSE,click #choice-2,,,,silence,,,,,323888.2000000477,323879.59999990463,315234.236,315243.5,315300.926,323922.697,,,
Question 2,html.Screen,2_1_0_3,2022-05-03T13:22:24.618Z,,,,,,,,,,,,,,,,,,,,,,,,,,,,true,TRUE,,5100.703000095382,,response,,,,99,H,,,,,,TRUE,click #choice-1,,,,silence,,,,,329025.90000009537,329023.40000009537,323872.77,323888.90000009537,323922.697,329032.623,,,
Item 99,flow.Sequence,2_1_0,2022-05-03T13:22:24.618Z,,,,,,,,,,,,,,,,,,,,,,,,,,,,,,,55333.41900009534,,completion,,,,,,,,,,,,,,,,,,,,,329026.40000009537,329023.40000009537,273573.474,273655.2000000477,273689.981,329032.623,,,
Holding screen,html.Screen,2_1_1_0,2022-05-03T13:22:34.613Z,,,,,,,,,,,,,,,,,,,,,,,,,,,,,,,10003.188999999955,,timeout,,,,,,,,,,,,,,,,,,,,,339020.90000009537,339019.236,329015.889,329026.7000000477,329032.623,339035.812,,,
screen,html.Screen,2_1_1_1_0,2022-05-03T13:22:35.376Z,,,,,,,,,,,,,,,,,54,,,,,,,,,,,,,,745.8880000477075,,response,,,,100,,,,,,,Space,keypress(Space),,,,,,,,At --- ---- --- ------ ----- ------- ---- -- --- ------- --<br>------- ---------- ------ -- ----- -- ----- -- ---- ------<br>--- ----- --- --- ------ -------- ----- --- ------ ----- --<br>----- ----- ---------- --- --- ------ ------ ---- -- ------<br>------- --- ------ ----- --- ---- ------- -- ---- --- --<br>------- ------,339784.09999990463,339781.7000000477,339019.236,339021.5,339035.812,339801.506,,0,At
screen,html.Screen,2_1_1_1_1,2022-05-03T13:22:35.999Z,,,,,,,,,,,,,,,,,54,,,,,,,,,,,,,,598.1940000476898,,response,,,,100,,,,,,,Space,keypress(Space),,,,,,,,-- the ---- --- ------ ----- ------- ---- -- --- ------- --<br>------- ---------- ------ -- ----- -- ----- -- ---- ------<br>--- ----- --- --- ------ -------- ----- --- ------ ----- --<br>----- ----- ---------- --- --- ------ ------ ---- -- ------<br>------- --- ------ ----- --- ---- ------- -- ---- --- --<br>------- ------,340407.2000000477,340399.7000000477,339784.785,339784.90000009537,339801.506,340417.319,,1,the
screen,html.Screen,2_1_1_1_2,2022-05-03T13:22:36.544Z,,,,,,,,,,,,,,,,,54,,,,,,,,,,,,,,530.0810000953497,,response,,,,100,,,,,,,Space,keypress(Space),,,,,,,,-- --- time --- ------ ----- ------- ---- -- --- ------- --<br>------- ---------- ------ -- ----- -- ----- -- ---- ------<br>--- ----- --- --- ------ -------- ----- --- ------ ----- --<br>----- ----- ---------- --- --- ------ ------ ---- -- ------<br>------- --- ------ ----- --- ---- ------- -- ---- --- --<br>------- ------,340952.2000000477,340947.40000009537,340400.621,340407.7000000477,340417.319,340966.583,,2,time
screen,html.Screen,2_1_1_1_3,2022-05-03T13:22:36.962Z,,,,,,,,,,,,,,,,,54,,,,,,,,,,,,,,401.5169999046484,,response,,,,100,,,,,,,Space,keypress(Space),,,,,,,,-- --- ---- the ------ ----- ------- ---- -- --- ------- --<br>------- ---------- ------ -- ----- -- ----- -- ---- ------<br>--- ----- --- --- ------ -------- ----- --- ------ ----- --<br>----- ----- ---------- --- --- ------ ------ ---- -- ------<br>------- --- ------ ----- --- ---- ------- -- ---- --- --<br>------- ------,341370.5,341368.09999990463,340949.897,340952.7999999523,340966.583,341382.761,,3,the
screen,html.Screen,2_1_1_1_4,2022-05-03T13:22:37.742Z,,,,,,,,,,,,,,,,,54,,,,,,,,,,,,,,764.7390000000014,,response,,,,100,,,,,,,Space,keypress(Space),,,,,,,,-- --- ---- --- French ----- ------- ---- -- --- ------- --<br>------- ---------- ------ -- ----- -- ----- -- ---- ------<br>--- ----- --- --- ------ -------- ----- --- ------ ----- --<br>----- ----- ---------- --- --- ------ ------ ---- -- ------<br>------- --- ------ ----- --- ---- ------- -- ---- --- --<br>------- ------,342149.7999999523,342147.5,341366.012,341370.90000009537,341382.761,342164.997,,4,French
screen,html.Screen,2_1_1_1_5,2022-05-03T13:22:38.485Z,,,,,,,,,,,,,,,,,54,,,,,,,,,,,,,,726.3029999523424,,response,,,,100,,,,,,,Space,keypress(Space),,,,,,,,-- --- ---- --- ------ crown ------- ---- -- --- ------- --<br>------- ---------- ------ -- ----- -- ----- -- ---- ------<br>--- ----- --- --- ------ -------- ----- --- ------ ----- --<br>----- ----- ---------- --- --- ------ ------ ---- -- ------<br>------- --- ------ ----- --- ---- ------- -- ---- --- --<br>------- ------,342893.5,342891.2999999523,342148.284,342150.2000000477,342164.997,342897.377,,5,crown
screen,html.Screen,2_1_1_1_6,2022-05-03T13:22:39.073Z,,,,,,,,,,,,,,,,,54,,,,,,,,,,,,,,580.5230000953889,,response,,,,100,,,,,,,Space,keypress(Space),,,,,,,,-- --- ---- --- ------ ----- secured ---- -- --- ------- --<br>------- ---------- ------ -- ----- -- ----- -- ---- ------<br>--- ----- --- --- ------ -------- ----- --- ------ ----- --<br>----- ----- ---------- --- --- ------ ------ ---- -- ------<br>------- --- ------ ----- --- ---- ------- -- ---- --- --<br>------- ------,343480.59999990463,343477.90000009537,342880.62,342893.90000009537,342897.377,343497.611,,6,secured
screen,html.Screen,2_1_1_1_7,2022-05-03T13:22:39.619Z,,,,,,,,,,,,,,,,,54,,,,,,,,,,,,,,521.0890000477084,,response,,,,100,,,,,,,Space,keypress(Space),,,,,,,,-- --- ---- --- ------ ----- ------- much -- --- ------- --<br>------- ---------- ------ -- ----- -- ----- -- ---- ------<br>--- ----- --- --- ------ -------- ----- --- ------ ----- --<br>----- ----- ---------- --- --- ------ ------ ---- -- ------<br>------- --- ------ ----- --- ---- ------- -- ---- --- --<br>------- ------,344026.59999990463,344018.7000000477,343479.845,343482.40000009537,343497.611,344029.173,,7,much
screen,html.Screen,2_1_1_1_8,2022-05-03T13:22:40.152Z,,,,,,,,,,,,,,,,,54,,,,,,,,,,,,,,527.7270000953577,,response,,,,100,,,,,,,Space,keypress(Space),,,,,,,,-- --- ---- --- ------ ----- ------- ---- of --- ------- --<br>------- ---------- ------ -- ----- -- ----- -- ---- ------<br>--- ----- --- --- ------ -------- ----- --- ------ ----- --<br>----- ----- ---------- --- --- ------ ------ ---- -- ------<br>------- --- ------ ----- --- ---- ------- -- ---- --- --<br>------- ------,344560.2999999523,344556.90000009537,344012.485,344027,344029.173,344578.436,,8,of
screen,html.Screen,2_1_1_1_9,2022-05-03T13:22:40.702Z,,,,,,,,,,,,,,,,,54,,,,,,,,,,,,,,489.3639999523293,,response,,,,100,,,,,,,Space,keypress(Space),,,,,,,,-- --- ---- --- ------ ----- ------- ---- -- its ------- --<br>------- ---------- ------ -- ----- -- ----- -- ---- ------<br>--- ----- --- --- ------ -------- ----- --- ------ ----- --<br>----- ----- ---------- --- --- ------ ------ ---- -- ------<br>------- --- ------ ----- --- ---- ------- -- ---- --- --<br>------- ------,345110.2000000477,345067.7999999523,344561.816,344561,344578.436,345127.69,,9,its
screen,html.Screen,2_1_1_1_10,2022-05-03T13:22:41.551Z,,,,,,,,,,,,,,,,,54,,,,,,,,,,,,,,821.2100000953651,,response,,,,100,,,,,,,Space,keypress(Space),,,,,,,,-- --- ---- --- ------ ----- ------- ---- -- --- revenue --<br>------- ---------- ------ -- ----- -- ----- -- ---- ------<br>--- ----- --- --- ------ -------- ----- --- ------ ----- --<br>----- ----- ---------- --- --- ------ ------ ---- -- ------<br>------- --- ------ ----- --- ---- ------- -- ---- --- --<br>------- ------,345959.09999990463,345948.90000009537,345111.02,345110.90000009537,345127.69,345976.541,,10,revenue
screen,html.Screen,2_1_1_1_11,2022-05-03T13:22:42.026Z,,,,,,,,,,,,,,,,,54,,,,,,,,,,,,,,450.45899999997346,,response,,,,100,,,,,,,Space,keypress(Space),,,,,,,,-- --- ---- --- ------ ----- ------- ---- -- --- ------- by<br>------- ---------- ------ -- ----- -- ----- -- ---- ------<br>--- ----- --- --- ------ -------- ----- --- ------ ----- --<br>----- ----- ---------- --- --- ------ ------ ---- -- ------<br>------- --- ------ ----- --- ---- ------- -- ---- --- --<br>------- ------,346434.2000000477,346427,345959.862,345959.7000000477,345976.541,346442.699,,11,by
screen,html.Screen,2_1_1_1_12,2022-05-03T13:22:42.897Z,,,,,,,,,,,,,,,,,54,,,,,,,,,,,,,,849.7010000953451,,response,,,,100,,,,,,,Space,keypress(Space),,,,,,,,-- --- ---- --- ------ ----- ------- ---- -- --- ------- --<br>issuing ---------- ------ -- ----- -- ----- -- ---- ------<br>--- ----- --- --- ------ -------- ----- --- ------ ----- --<br>----- ----- ---------- --- --- ------ ------ ---- -- ------<br>------- --- ------ ----- --- ---- ------- -- ---- --- --<br>------- ------,347304.7000000477,347292.40000009537,346425.969,346435.2999999523,346442.699,347308.128,,12,issuing
screen,html.Screen,2_1_1_1_13,2022-05-03T13:22:43.689Z,,,,,,,,,,,,,,,,,54,,,,,,,,,,,,,,780.5720000476576,,response,,,,100,,,,,,,Space,keypress(Space),,,,,,,,-- --- ---- --- ------ ----- ------- ---- -- --- ------- --<br>------- government ------ -- ----- -- ----- -- ---- ------<br>--- ----- --- --- ------ -------- ----- --- ------ ----- --<br>----- ----- ---------- --- --- ------ ------ ---- -- ------<br>------- --- ------ ----- --- ---- ------- -- ---- --- --<br>------- ------,348097.09999990463,348088.7000000477,347291.394,347305.2000000477,347308.128,348107.018,,13,government
screen,html.Screen,2_1_1_1_14,2022-05-03T13:22:45.229Z,,,,,,,,,,,,,,,,,54,,,,,,,,,,,,,,1528.5819999046507,,response,,,,100,,,,,,,Space,keypress(Space),,,,,,,,-- --- ---- --- ------ ----- ------- ---- -- --- ------- --<br>------- ---------- bonds. -- ----- -- ----- -- ---- ------<br>--- ----- --- --- ------ -------- ----- --- ------ ----- --<br>----- ----- ---------- --- --- ------ ------ ---- -- ------<br>------- --- ------ ----- --- ---- ------- -- ---- --- --<br>------- ------,349637.09999990463,349635.59999990463,348090.368,348097.40000009537,348107.018,349654.966,,14,bonds.
screen,html.Screen,2_1_1_1_15,2022-05-03T13:22:45.650Z,,,,,,,,,,,,,,,,,54,,,,,,,,,,,,,,399.0339999999851,,response,,,,100,,,,,,,Space,keypress(Space),,,,,,,,-- --- ---- --- ------ ----- ------- ---- -- --- ------- --<br>------- ---------- ------ In ----- -- ----- -- ---- ------<br>--- ----- --- --- ------ -------- ----- --- ------ ----- --<br>----- ----- ---------- --- --- ------ ------ ---- -- ------<br>------- --- ------ ----- --- ---- ------- -- ---- --- --<br>------- ------,350058,350054,349638.234,349637.7000000477,349654.966,350071.229,,15,In
screen,html.Screen,2_1_1_1_16,2022-05-03T13:22:46.054Z,,,,,,,,,,,,,,,,,54,,,,,,,,,,,,,,386.3709999046405,,response,,,,100,,,,,,,Space,keypress(Space),,,,,,,,"-- --- ---- --- ------ ----- ------- ---- -- --- ------- --<br>------- ---------- ------ -- 1727, -- ----- -- ---- ------<br>--- ----- --- --- ------ -------- ----- --- ------ ----- --<br>----- ----- ---------- --- --- ------ ------ ---- -- ------<br>------- --- ------ ----- --- ---- ------- -- ---- --- --<br>------- ------",350461.59999990463,350457.59999990463,350054.438,350058.7999999523,350071.229,350487.254,,16,"1727,"
screen,html.Screen,2_1_1_1_17,2022-05-03T13:22:47.056Z,,,,,,,,,,,,,,,,,54,,,,,,,,,,,,,,969.0459999523009,,response,,,,100,,,,,,,Space,keypress(Space),,,,,,,,-- --- ---- --- ------ ----- ------- ---- -- --- ------- --<br>------- ---------- ------ -- ----- in ----- -- ---- ------<br>--- ----- --- --- ------ -------- ----- --- ------ ----- --<br>----- ----- ---------- --- --- ------ ------ ---- -- ------<br>------- --- ------ ----- --- ---- ------- -- ---- --- --<br>------- ------,351464.09999990463,351456.2999999523,350453.865,350462.7000000477,350487.254,351469.221,,17,in
screen,html.Screen,2_1_1_1_18,2022-05-03T13:22:47.470Z,,,,,,,,,,,,,,,,,54,,,,,,,,,,,,,,407.378999904613,,response,,,,100,,,,,,,Space,keypress(Space),,,,,,,,-- --- ---- --- ------ ----- ------- ---- -- --- ------- --<br>------- ---------- ------ -- ----- -- order -- ---- ------<br>--- ----- --- --- ------ -------- ----- --- ------ ----- --<br>----- ----- ---------- --- --- ------ ------ ---- -- ------<br>------- --- ------ ----- --- ---- ------- -- ---- --- --<br>------- ------,351878.2999999523,351876.59999990463,351452.562,351464.7999999523,351469.221,351885.293,,18,order
screen,html.Screen,2_1_1_1_19,2022-05-03T13:22:47.853Z,,,,,,,,,,,,,,,,,54,,,,,,,,,,,,,,356.9070000476786,,response,,,,100,,,,,,,Space,keypress(Space),,,,,,,,-- --- ---- --- ------ ----- ------- ---- -- --- ------- --<br>------- ---------- ------ -- ----- -- ----- to ---- ------<br>--- ----- --- --- ------ -------- ----- --- ------ ----- --<br>----- ----- ---------- --- --- ------ ------ ---- -- ------<br>------- --- ------ ----- --- ---- ------- -- ---- --- --<br>------- ------,352261.2999999523,352242.2000000477,351868.865,351878.59999990463,351885.293,352268.169,,19,to
screen,html.Screen,2_1_1_1_20,2022-05-03T13:22:48.239Z,,,,,,,,,,,,,,,,,54,,,,,,,,,,,,,,374.8310000000056,,response,,,,100,,,,,,,Space,keypress(Space),,,,,,,,-- --- ---- --- ------ ----- ------- ---- -- --- ------- --<br>------- ---------- ------ -- ----- -- ----- -- save ------<br>--- ----- --- --- ------ -------- ----- --- ------ ----- --<br>----- ----- ---------- --- --- ------ ------ ---- -- ------<br>------- --- ------ ----- --- ---- ------- -- ---- --- --<br>------- ------,352647.40000009537,352643,352251.496,352261.7999999523,352268.169,352651.103,,20,save
screen,html.Screen,2_1_1_1_21,2022-05-03T13:22:48.718Z,,,,,,,,,,,,,,,,,54,,,,,,,,,,,,,,468.9969999046298,,response,,,,100,,,,,,,Space,keypress(Space),,,,,,,,"-- --- ---- --- ------ ----- ------- ---- -- --- ------- --<br>------- ---------- ------ -- ----- -- ----- -- ---- money,<br>--- ----- --- --- ------ -------- ----- --- ------ ----- --<br>----- ----- ---------- --- --- ------ ------ ---- -- ------<br>------- --- ------ ----- --- ---- ------- -- ---- --- --<br>------- ------",353126.5,353120.09999990463,352634.267,352647.90000009537,352651.103,353133.672,,21,"money,"
screen,html.Screen,2_1_1_1_22,2022-05-03T13:22:49.201Z,,,,,,,,,,,,,,,,,54,,,,,,,,,,,,,,458.1279999522958,,response,,,,100,,,,,,,Space,keypress(Space),,,,,,,,-- --- ---- --- ------ ----- ------- ---- -- --- ------- --<br>------- ---------- ------ -- ----- -- ----- -- ---- ------<br>the ----- --- --- ------ -------- ----- --- ------ ----- --<br>----- ----- ---------- --- --- ------ ------ ---- -- ------<br>------- --- ------ ----- --- ---- ------- -- ---- --- --<br>------- ------,353609,353591.7999999523,353117.055,353128.2999999523,353133.672,353616.327,,22,the
screen,html.Screen,2_1_1_1_23,2022-05-03T13:22:49.678Z,,,,,,,,,,,,,,,,,54,,,,,,,,,,,,,,467.27299990464235,,response,,,,100,,,,,,,Space,keypress(Space),,,,,,,,-- --- ---- --- ------ ----- ------- ---- -- --- ------- --<br>------- ---------- ------ -- ----- -- ----- -- ---- ------<br>--- state --- --- ------ -------- ----- --- ------ ----- --<br>----- ----- ---------- --- --- ------ ------ ---- -- ------<br>------- --- ------ ----- --- ---- ------- -- ---- --- --<br>------- ------,354086.40000009537,354083.59999990463,353599.694,353609.5,353616.327,354099.045,,23,state
screen,html.Screen,2_1_1_1_24,2022-05-03T13:22:50.216Z,,,,,,,,,,,,,,,,,54,,,,,,,,,,,,,,510.7549999523326,,response,,,,100,,,,,,,Space,keypress(Space),,,,,,,,-- --- ---- --- ------ ----- ------- ---- -- --- ------- --<br>------- ---------- ------ -- ----- -- ----- -- ---- ------<br>--- ----- cut --- ------ -------- ----- --- ------ ----- --<br>----- ----- ---------- --- --- ------ ------ ---- -- ------<br>------- --- ------ ----- --- ---- ------- -- ---- --- --<br>------- ------,354623.90000009537,354609.7999999523,354082.349,354086.90000009537,354099.045,354631.667,,24,cut
screen,html.Screen,2_1_1_1_25,2022-05-03T13:22:50.639Z,,,,,,,,,,,,,,,,,54,,,,,,,,,,,,,,412.93299990461674,,response,,,,100,,,,,,,Space,keypress(Space),,,,,,,,-- --- ---- --- ------ ----- ------- ---- -- --- ------- --<br>------- ---------- ------ -- ----- -- ----- -- ---- ------<br>--- ----- --- the ------ -------- ----- --- ------ ----- --<br>----- ----- ---------- --- --- ------ ------ ---- -- ------<br>------- --- ------ ----- --- ---- ------- -- ---- --- --<br>------- ------,355046.90000009537,355044.59999990463,354614.957,354624.90000009537,354631.667,355064.369,,25,the
screen,html.Screen,2_1_1_1_26,2022-05-03T13:22:51.594Z,,,,,,,,,,,,,,,,,54,,,,,,,,,,,,,,912.130999999994,,response,,,,100,,,,,,,Space,keypress(Space),,,,,,,,-- --- ---- --- ------ ----- ------- ---- -- --- ------- --<br>------- ---------- ------ -- ----- -- ----- -- ---- ------<br>--- ----- --- --- bonds' -------- ----- --- ------ ----- --<br>----- ----- ---------- --- --- ------ ------ ---- -- ------<br>------- --- ------ ----- --- ---- ------- -- ---- --- --<br>------- ------,356001.90000009537,355976.5,355047.773,355047.2999999523,355064.369,356013.123,,26,bonds'
screen,html.Screen,2_1_1_1_27,2022-05-03T13:22:52.395Z,,,,,,,,,,,,,,,,,54,,,,,,,,,,,,,,785.0770000476623,,response,,,,100,,,,,,,Space,keypress(Space),,,,,,,,-- --- ---- --- ------ ----- ------- ---- -- --- ------- --<br>------- ---------- ------ -- ----- -- ----- -- ---- ------<br>--- ----- --- --- ------ interest ----- --- ------ ----- --<br>----- ----- ---------- --- --- ------ ------ ---- -- ------<br>------- --- ------ ----- --- ---- ------- -- ---- --- --<br>------- ------,356802.7999999523,356798.2000000477,355996.405,356002.5,356013.123,356812.142,,27,interest
screen,html.Screen,2_1_1_1_28,2022-05-03T13:22:53.347Z,,,,,,,,,,,,,,,,,54,,,,,,,,,,,,,,940.6579999523237,,response,,,,100,,,,,,,Space,keypress(Space),,,,,,,,-- --- ---- --- ------ ----- ------- ---- -- --- ------- --<br>------- ---------- ------ -- ----- -- ----- -- ---- ------<br>--- ----- --- --- ------ -------- rate. --- ------ ----- --<br>----- ----- ---------- --- --- ------ ------ ---- -- ------<br>------- --- ------ ----- --- ---- ------- -- ---- --- --<br>------- ------,357755,357752.7999999523,356795.378,356803.2999999523,356812.142,357760.841,,28,rate.
screen,html.Screen,2_1_1_1_29,2022-05-03T13:22:53.855Z,,,,,,,,,,,,,,,,,54,,,,,,,,,,,,,,462.55900009535253,,response,,,,100,,,,,,,Space,keypress(Space),,,,,,,,-- --- ---- --- ------ ----- ------- ---- -- --- ------- --<br>------- ---------- ------ -- ----- -- ----- -- ---- ------<br>--- ----- --- --- ------ -------- ----- The ------ ----- --<br>----- ----- ---------- --- --- ------ ------ ---- -- ------<br>------- --- ------ ----- --- ---- ------- -- ---- --- --<br>------- ------,358263.40000009537,358223.40000009537,357744.099,357755.59999990463,357760.841,358276.801,,29,The
screen,html.Screen,2_1_1_1_30,2022-05-03T13:22:54.309Z,,,,,,,,,,,,,,,,,54,,,,,,,,,,,,,,436.39900004770607,,response,,,,100,,,,,,,Space,keypress(Space),,,,,,,,-- --- ---- --- ------ ----- ------- ---- -- --- ------- --<br>------- ---------- ------ -- ----- -- ----- -- ---- ------<br>--- ----- --- --- ------ -------- ----- --- market ----- --<br>----- ----- ---------- --- --- ------ ------ ---- -- ------<br>------- --- ------ ----- --- ---- ------- -- ---- --- --<br>------- ------,358717,358713.2000000477,358260.16,358267,358276.801,358726.244,,30,market
screen,html.Screen,2_1_1_1_31,2022-05-03T13:22:54.800Z,,,,,,,,,,,,,,,,,54,,,,,,,,,,,,,,473.1560000953614,,response,,,,100,,,,,,,Space,keypress(Space),,,,,,,,-- --- ---- --- ------ ----- ------- ---- -- --- ------- --<br>------- ---------- ------ -- ----- -- ----- -- ---- ------<br>--- ----- --- --- ------ -------- ----- --- ------ value --<br>----- ----- ---------- --- --- ------ ------ ---- -- ------<br>------- --- ------ ----- --- ---- ------- -- ---- --- --<br>------- ------,359207.59999990463,359199.40000009537,358709.533,358717.5,358726.244,359225.553,,31,value
screen,html.Screen,2_1_1_1_32,2022-05-03T13:22:55.226Z,,,,,,,,,,,,,,,,,54,,,,,,,,,,,,,,406.94699999998556,,response,,,,100,,,,,,,Space,keypress(Space),,,,,,,,-- --- ---- --- ------ ----- ------- ---- -- --- ------- --<br>------- ---------- ------ -- ----- -- ----- -- ---- ------<br>--- ----- --- --- ------ -------- ----- --- ------ ----- of<br>----- ----- ---------- --- --- ------ ------ ---- -- ------<br>------- --- ------ ----- --- ---- ------- -- ---- --- --<br>------- ------,359634.5,359632.5,359208.897,359208.2000000477,359225.553,359641.618,,32,of
screen,html.Screen,2_1_1_1_33,2022-05-03T13:22:55.781Z,,,,,,,,,,,,,,,,,54,,,,,,,,,,,,,,496.4819999046158,,response,,,,100,,,,,,,Space,keypress(Space),,,,,,,,-- --- ---- --- ------ ----- ------- ---- -- --- ------- --<br>------- ---------- ------ -- ----- -- ----- -- ---- ------<br>--- ----- --- --- ------ -------- ----- --- ------ ----- --<br>these ----- ---------- --- --- ------ ------ ---- -- ------<br>------- --- ------ ----- --- ---- ------- -- ---- --- --<br>------- ------,360188.90000009537,360138.09999990463,359624.987,359635,359641.618,360190.841,,33,these
screen,html.Screen,2_1_1_1_34,2022-05-03T13:22:56.484Z,,,,,,,,,,,,,,,,,54,,,,,,,,,,,,,,697.7589999046177,,response,,,,100,,,,,,,Space,keypress(Space),,,,,,,,-- --- ---- --- ------ ----- ------- ---- -- --- ------- --<br>------- ---------- ------ -- ----- -- ----- -- ---- ------<br>--- ----- --- --- ------ -------- ----- --- ------ ----- --<br>----- bonds ---------- --- --- ------ ------ ---- -- ------<br>------- --- ------ ----- --- ---- ------- -- ---- --- --<br>------- ------,360892.40000009537,360888.59999990463,360174.198,360189.09999990463,360190.841,360906.618,,34,bonds
screen,html.Screen,2_1_1_1_35,2022-05-03T13:22:57.261Z,,,,,,,,,,,,,,,,,54,,,,,,,,,,,,,,761.1819999522995,,response,,,,100,,,,,,,Space,keypress(Space),,,,,,,,"-- --- ---- --- ------ ----- ------- ---- -- --- ------- --<br>------- ---------- ------ -- ----- -- ----- -- ---- ------<br>--- ----- --- --- ------ -------- ----- --- ------ ----- --<br>----- ----- plummeted, --- --- ------ ------ ---- -- ------<br>------- --- ------ ----- --- ---- ------- -- ---- --- --<br>------- ------",361669.40000009537,361667.7999999523,360889.846,360893.2000000477,360906.618,361672.274,,35,"plummeted,"
screen,html.Screen,2_1_1_1_36,2022-05-03T13:22:57.676Z,,,,,,,,,,,,,,,,,54,,,,,,,,,,,,,,407.7260000000242,,response,,,,100,,,,,,,Space,keypress(Space),,,,,,,,-- --- ---- --- ------ ----- ------- ---- -- --- ------- --<br>------- ---------- ------ -- ----- -- ----- -- ---- ------<br>--- ----- --- --- ------ -------- ----- --- ------ ----- --<br>----- ----- ---------- and --- ------ ------ ---- -- ------<br>------- --- ------ ----- --- ---- ------- -- ---- --- --<br>------- ------,362084.09999990463,362080,361655.537,361669.90000009537,361672.274,362088.363,,36,and
screen,html.Screen,2_1_1_1_37,2022-05-03T13:22:58.106Z,,,,,,,,,,,,,,,,,54,,,,,,,,,,,,,,422.73699990462046,,response,,,,100,,,,,,,Space,keypress(Space),,,,,,,,-- --- ---- --- ------ ----- ------- ---- -- --- ------- --<br>------- ---------- ------ -- ----- -- ----- -- ---- ------<br>--- ----- --- --- ------ -------- ----- --- ------ ----- --<br>----- ----- ---------- --- the ------ ------ ---- -- ------<br>------- --- ------ ----- --- ---- ------- -- ---- --- --<br>------- ------,362514.09999990463,362511.09999990463,362071.663,362084.5,362088.363,362521.123,,37,the
screen,html.Screen,2_1_1_1_38,2022-05-03T13:22:58.589Z,,,,,,,,,,,,,,,,,54,,,,,,,,,,,,,,471.67699995229486,,response,,,,100,,,,,,,Space,keypress(Space),,,,,,,,-- --- ---- --- ------ ----- ------- ---- -- --- ------- --<br>------- ---------- ------ -- ----- -- ----- -- ---- ------<br>--- ----- --- --- ------ -------- ----- --- ------ ----- --<br>----- ----- ---------- --- --- market ------ ---- -- ------<br>------- --- ------ ----- --- ---- ------- -- ---- --- --<br>------- ------,362997.09999990463,362992.7999999523,362504.39,362514.59999990463,362521.123,363003.757,,38,market
screen,html.Screen,2_1_1_1_39,2022-05-03T13:22:59.033Z,,,,,,,,,,,,,,,,,54,,,,,,,,,,,,,,431.4430000477005,,response,,,,100,,,,,,,Space,keypress(Space),,,,,,,,-- --- ---- --- ------ ----- ------- ---- -- --- ------- --<br>------- ---------- ------ -- ----- -- ----- -- ---- ------<br>--- ----- --- --- ------ -------- ----- --- ------ ----- --<br>----- ----- ---------- --- --- ------ became ---- -- ------<br>------- --- ------ ----- --- ---- ------- -- ---- --- --<br>------- ------,363440.90000009537,363435.2000000477,362987.143,362997.5,363003.757,363453.413,,39,became
screen,html.Screen,2_1_1_1_40,2022-05-03T13:22:59.679Z,,,,,,,,,,,,,,,,,54,,,,,,,,,,,,,,616.2870000476833,,response,,,,100,,,,,,,Space,keypress(Space),,,,,,,,-- --- ---- --- ------ ----- ------- ---- -- --- ------- --<br>------- ---------- ------ -- ----- -- ----- -- ---- ------<br>--- ----- --- --- ------ -------- ----- --- ------ ----- --<br>----- ----- ---------- --- --- ------ ------ wary -- ------<br>------- --- ------ ----- --- ---- ------- -- ---- --- --<br>------- ------,364086.7000000477,364069.7000000477,363436.592,363441.7000000477,363453.413,364102.367,,40,wary
screen,html.Screen,2_1_1_1_41,2022-05-03T13:23:00.162Z,,,,,,,,,,,,,,,,,54,,,,,,,,,,,,,,351.9329999522888,,response,,,,100,,,,,,,Space,keypress(Space),,,,,,,,-- --- ---- --- ------ ----- ------- ---- -- --- ------- --<br>------- ---------- ------ -- ----- -- ----- -- ---- ------<br>--- ----- --- --- ------ -------- ----- --- ------ ----- --<br>----- ----- ---------- --- --- ------ ------ ---- of ------<br>------- --- ------ ----- --- ---- ------- -- ---- --- --<br>------- ------,364570,364454.2999999523,364085.946,364087.2000000477,364102.367,364584.984,,41,of
screen,html.Screen,2_1_1_1_42,2022-05-03T13:23:00.812Z,,,,,,,,,,,,,,,,,54,,,,,,,,,,,,,,633.216000047687,,response,,,,100,,,,,,,Space,keypress(Space),,,,,,,,-- --- ---- --- ------ ----- ------- ---- -- --- ------- --<br>------- ---------- ------ -- ----- -- ----- -- ---- ------<br>--- ----- --- --- ------ -------- ----- --- ------ ----- --<br>----- ----- ---------- --- --- ------ ------ ---- -- French<br>------- --- ------ ----- --- ---- ------- -- ---- --- --<br>------- ------,365220.2000000477,365218.2000000477,364568.309,364571.5,364584.984,365234.131,,42,French
screen,html.Screen,2_1_1_1_43,2022-05-03T13:23:01.557Z,,,,,,,,,,,,,,,,,54,,,,,,,,,,,,,,510.7690000953735,,response,,,,100,,,,,,,Space,keypress(Space),,,,,,,,-- --- ---- --- ------ ----- ------- ---- -- --- ------- --<br>------- ---------- ------ -- ----- -- ----- -- ---- ------<br>--- ----- --- --- ------ -------- ----- --- ------ ----- --<br>----- ----- ---------- --- --- ------ ------ ---- -- ------<br>credit. --- ------ ----- --- ---- ------- -- ---- --- --<br>------- ------,365965.09999990463,365744.90000009537,365217.425,365220.59999990463,365234.131,365999.938,,43,credit.
screen,html.Screen,2_1_1_1_44,2022-05-03T13:23:02.509Z,,,,,,,,,,,,,,,,,54,,,,,,,,,,,,,,915.3619999522925,,response,,,,100,,,,,,,Space,keypress(Space),,,,,,,,-- --- ---- --- ------ ----- ------- ---- -- --- ------- --<br>------- ---------- ------ -- ----- -- ----- -- ---- ------<br>--- ----- --- --- ------ -------- ----- --- ------ ----- --<br>----- ----- ---------- --- --- ------ ------ ---- -- ------<br>------- The ------ ----- --- ---- ------- -- ---- --- --<br>------- ------,366917.5,366915.2999999523,365966.438,365965.40000009537,365999.938,366932.235,,44,The
screen,html.Screen,2_1_1_1_45,2022-05-03T13:23:03.136Z,,,,,,,,,,,,,,,,,54,,,,,,,,,,,,,,609.9650000476977,,response,,,,100,,,,,,,Space,keypress(Space),,,,,,,,-- --- ---- --- ------ ----- ------- ---- -- --- ------- --<br>------- ---------- ------ -- ----- -- ----- -- ---- ------<br>--- ----- --- --- ------ -------- ----- --- ------ ----- --<br>----- ----- ---------- --- --- ------ ------ ---- -- ------<br>------- --- French ----- --- ---- ------- -- ---- --- --<br>------- ------,367543.59999990463,367542.2000000477,366915.165,366918.59999990463,366932.235,367547.693,,45,French
screen,html.Screen,2_1_1_1_46,2022-05-03T13:23:03.621Z,,,,,,,,,,,,,,,,,54,,,,,,,,,,,,,,474.707000095339,,response,,,,100,,,,,,,Space,keypress(Space),,,,,,,,-- --- ---- --- ------ ----- ------- ---- -- --- ------- --<br>------- ---------- ------ -- ----- -- ----- -- ---- ------<br>--- ----- --- --- ------ -------- ----- --- ------ ----- --<br>----- ----- ---------- --- --- ------ ------ ---- -- ------<br>------- --- ------ state --- ---- ------- -- ---- --- --<br>------- ------,368029.40000009537,368022.40000009537,367531.031,367544.2000000477,367547.693,368047.135,,46,state
screen,html.Screen,2_1_1_1_47,2022-05-03T13:23:04.028Z,,,,,,,,,,,,,,,,,54,,,,,,,,,,,,,,387.8649999999907,,response,,,,100,,,,,,,Space,keypress(Space),,,,,,,,-- --- ---- --- ------ ----- ------- ---- -- --- ------- --<br>------- ---------- ------ -- ----- -- ----- -- ---- ------<br>--- ----- --- --- ------ -------- ----- --- ------ ----- --<br>----- ----- ---------- --- --- ------ ------ ---- -- ------<br>------- --- ------ ----- was ---- ------- -- ---- --- --<br>------- ------,368436.40000009537,368435,368030.328,368029.7999999523,368047.135,368446.544,,47,was
screen,html.Screen,2_1_1_1_48,2022-05-03T13:23:04.576Z,,,,,,,,,,,,,,,,,54,,,,,,,,,,,,,,430.7559999523219,,response,,,,100,,,,,,,Space,keypress(Space),,,,,,,,-- --- ---- --- ------ ----- ------- ---- -- --- ------- --<br>------- ---------- ------ -- ----- -- ----- -- ---- ------<br>--- ----- --- --- ------ -------- ----- --- ------ ----- --<br>----- ----- ---------- --- --- ------ ------ ---- -- ------<br>------- --- ------ ----- --- left ------- -- ---- --- --<br>------- ------,368984.2999999523,368877.2999999523,368429.769,368436.59999990463,368446.544,368995.751,,48,left
screen,html.Screen,2_1_1_1_49,2022-05-03T13:23:05.032Z,,,,,,,,,,,,,,,,,54,,,,,,,,,,,,,,441.8489999046433,,response,,,,100,,,,,,,Space,keypress(Space),,,,,,,,-- --- ---- --- ------ ----- ------- ---- -- --- ------- --<br>------- ---------- ------ -- ----- -- ----- -- ---- ------<br>--- ----- --- --- ------ -------- ----- --- ------ ----- --<br>----- ----- ---------- --- --- ------ ------ ---- -- ------<br>------- --- ------ ----- --- ---- without -- ---- --- --<br>------- ------,369439.90000009537,369437.59999990463,368979.11,368984.59999990463,368995.751,369445.217,,49,without
screen,html.Screen,2_1_1_1_50,2022-05-03T13:23:05.427Z,,,,,,,,,,,,,,,,,54,,,,,,,,,,,,,,385.4830000476795,,response,,,,100,,,,,,,Space,keypress(Space),,,,,,,,-- --- ---- --- ------ ----- ------- ---- -- --- ------- --<br>------- ---------- ------ -- ----- -- ----- -- ---- ------<br>--- ----- --- --- ------ -------- ----- --- ------ ----- --<br>----- ----- ---------- --- --- ------ ------ ---- -- ------<br>------- --- ------ ----- --- ---- ------- an ---- --- --<br>------- ------,369835.59999990463,369830.7000000477,369428.469,369440.2999999523,369445.217,369844.722,,50,an
screen,html.Screen,2_1_1_1_51,2022-05-03T13:23:05.875Z,,,,,,,,,,,,,,,,,54,,,,,,,,,,,,,,435.8779999046237,,response,,,,100,,,,,,,Space,keypress(Space),,,,,,,,-- --- ---- --- ------ ----- ------- ---- -- --- ------- --<br>------- ---------- ------ -- ----- -- ----- -- ---- ------<br>--- ----- --- --- ------ -------- ----- --- ------ ----- --<br>----- ----- ---------- --- --- ------ ------ ---- -- ------<br>------- --- ------ ----- --- ---- ------- -- easy --- --<br>------- ------,370283.5,370280.59999990463,369827.988,369836.2000000477,369844.722,370294.002,,51,easy
screen,html.Screen,2_1_1_1_52,2022-05-03T13:23:06.294Z,,,,,,,,,,,,,,,,,54,,,,,,,,,,,,,,406.097999904654,,response,,,,100,,,,,,,Space,keypress(Space),,,,,,,,-- --- ---- --- ------ ----- ------- ---- -- --- ------- --<br>------- ---------- ------ -- ----- -- ----- -- ---- ------<br>--- ----- --- --- ------ -------- ----- --- ------ ----- --<br>----- ----- ---------- --- --- ------ ------ ---- -- ------<br>------- --- ------ ----- --- ---- ------- -- ---- way --<br>------- ------,370702.09999990463,370700.09999990463,370277.482,370283.90000009537,370294.002,370710.121,,52,way
screen,html.Screen,2_1_1_1_53,2022-05-03T13:23:06.896Z,,,,,,,,,,,,,,,,,54,,,,,,,,,,,,,,591.6789999523317,,response,,,,100,,,,,,,Space,keypress(Space),,,,,,,,-- --- ---- --- ------ ----- ------- ---- -- --- ------- --<br>------- ---------- ------ -- ----- -- ----- -- ---- ------<br>--- ----- --- --- ------ -------- ----- --- ------ ----- --<br>----- ----- ---------- --- --- ------ ------ ---- -- ------<br>------- --- ------ ----- --- ---- ------- -- ---- --- of<br>------- ------,371303.90000009537,371301.7999999523,370693.513,370702.5,370710.121,371309.401,,53,of
screen,html.Screen,2_1_1_1_54,2022-05-03T13:23:07.331Z,,,,,,,,,,,,,,,,,54,,,,,,,,,,,,,,421.3989999523037,,response,,,,100,,,,,,,Space,keypress(Space),,,,,,,,-- --- ---- --- ------ ----- ------- ---- -- --- ------- --<br>------- ---------- ------ -- ----- -- ----- -- ---- ------<br>--- ----- --- --- ------ -------- ----- --- ------ ----- --<br>----- ----- ---------- --- --- ------ ------ ---- -- ------<br>------- --- ------ ----- --- ---- ------- -- ---- --- --<br>raising ------,371739,371730.7999999523,371292.666,371304.2999999523,371309.401,371794.023,,54,raising
screen,html.Screen,2_1_1_1_55,2022-05-03T13:23:08.041Z,,,,,,,,,,,,,,,,,54,,,,,,,,,,,,,,650.8770000953809,,response,,,,100,,,,,,,Space,keypress(Space),,,,,,,,-- --- ---- --- ------ ----- ------- ---- -- --- ------- --<br>------- ---------- ------ -- ----- -- ----- -- ---- ------<br>--- ----- --- --- ------ -------- ----- --- ------ ----- --<br>----- ----- ---------- --- --- ------ ------ ---- -- ------<br>------- --- ------ ----- --- ---- ------- -- ---- --- --<br>------- money.,372449.2999999523,372444.90000009537,371725.481,371739.5,371794.023,372474.467,,55,money.
Item 100,flow.Loop,2_1_1_1,2022-05-03T13:23:08.043Z,,,,,,,,,,,,,,,,,,,,,,,,,,,,,,,33409.08800009539,,completion,,,,,H,,,,,,,,,,,silence,,,,,372451.2999999523,372444.90000009537,339019.236,339021.40000009537,339035.812,372474.467,,,
Question 1,html.Screen,2_1_1_2,2022-05-03T13:23:10.578Z,,,,,,,,,,,,,,,,,,,,,,,,,,,,true,TRUE,,2509.6329999046284,,response,,,,100,H,,,,,,TRUE,click #choice-1,,,,silence,,,,,374986.5,374984.09999990463,372441.193,372451.7999999523,372474.467,374987.767,,,
Question 2,html.Screen,2_1_1_3,2022-05-03T13:23:14.236Z,,,,,,,,,,,,,,,,,,,,,,,,,,,,true,FALSE,,3652.933000047691,,response,,,,100,H,,,,,,FALSE,click #choice-2,,,,silence,,,,,378643.90000009537,378640.7000000477,374971.108,374986.90000009537,374987.767,378649.503,,,
Item 100,flow.Sequence,2_1_1,2022-05-03T13:23:14.237Z,,,,,,,,,,,,,,,,,,,,,,,,,,,,,,,49608.07700004766,,completion,,,,,,,,,,,,,,,,,,,,,378644.59999990463,378640.7000000477,329015.889,329026.59999990463,329032.623,378649.503,,,
End of Practice,html.Page,2_1_2,2022-05-03T13:23:18.166Z,,,,,,,,,,,,,,,,,,,,,,,,,,,,,,,3922.3970000953414,,form submission,,,,,,,,,,,,,,,,,,,,,382572.90000009537,382571.90000009537,378632.926,378644.7999999523,378649.503,382577.602,,,
Practice,flow.Sequence,2_1,2022-05-03T13:23:18.166Z,,,,,,,,,,,,,,,,,,,,,,,,,,,,,,,108881.91900009534,,completion,,,,,,,,,,,,,,,,,,,,,382573.59999990463,382571.90000009537,273573.474,273655.09999990463,273689.981,382577.602,,,
Trap_instruction,html.Page,2_2_0,2022-05-03T13:23:31.772Z,,,,,,,,,,,,,,,,,,,,,,,,,,,,,,,13598.09800004767,,form submission,,,,,,,,,,,,,,,,,,,,,396179.40000009537,396175.7000000477,382560.965,382574.2999999523,382577.602,396508.951,,,
trap_trial,html.Screen,2_2_1,2022-05-03T13:23:39.520Z,,,,,,,,,,,,,,,,,,,,,,,,,,,,true,1,,7413.9490000953665,,response,,,,,,,,,,,1,click #choice-1,,,,,,,,,403927.59999990463,403922.90000009537,396176.114,396182.2999999523,396508.951,403965.641,,,
end of trap trial,html.Page,2_2_2,2022-05-03T13:23:41.530Z,,,,,,,,,,,,,,,,,,,,,,,,,,,,,,,1971.2590000953642,,form submission,,,,,,,,,,,,,,,,,,,,,405937.7999999523,405936.90000009537,403915.867,403928.40000009537,403965.641,405946.344,,,
Trap 1,flow.Sequence,2_2,2022-05-03T13:23:41.531Z,,,,,,,,,,,,,,,,,,,,,,,,,,,,,,,23359.298000095354,,completion,,,,,,,,,,,,,,,,,,,,,405938.5,405936.90000009537,382560.965,382574.09999990463,382577.602,405946.344,,,
Standby,html.Page,2_3_0,2022-05-03T13:23:49.531Z,,,,,,,,,,,,,,,,,,,,,,,,,,,,,,,8005.991000000038,,timeout,,,,,,,,,,,,,,,,,,,,,413938.2999999523,413935.732,405913.072,405939.09999990463,405946.344,413952.335,,,
Holding screen,html.Screen,2_3_1_0_0,2022-05-03T13:23:56.558Z,,,,,,,,,,,,,,,,,,,,,,,,,,,,,,,7007.2729999999865,,timeout,,,,,,,,,,,,,,,,,,,,,420965.7999999523,420943.011,413935.732,413939.40000009537,413952.335,420959.608,,,
screen,html.Screen,2_3_1_0_1_0,2022-05-03T13:23:58.452Z,,,,,,,,,,,,,,,,,2,,,,,,,,,,,,,,1895.5920000476763,,response,,,,1,H,,,,,,Space,keypress(Space),,,,speech,,,,Two ---- ------ --- ------- ---------- ------- ----------<br>--- --------- --- ----------- ------- ----- ------- ---<br>--------- ---- -- --- ---- -- --------- -- ---- -------<br>-- --------- ------ --- ----- ------ ---- --- --------- --<br>------ - ---- -- --- ----------- ------- ---- ----- -----<br>--- -------- - ------ ---- -- ----- ---- --- --- -----------<br>-- -------,422859,422855.2000000477,420943.011,420968.2000000477,420959.608,422857.104,,0,Two
screen,html.Screen,2_3_1_0_1_1,2022-05-03T13:23:59.052Z,,,,,,,,,,,,,,,,,2,,,,,,,,,,,,,,535.6959999523242,,response,,,,1,H,,,,,,Space,keypress(Space),,,,speech,,,,--- days ------ --- ------- ---------- ------- ----------<br>--- --------- --- ----------- ------- ----- ------- ---<br>--------- ---- -- --- ---- -- --------- -- ---- -------<br>-- --------- ------ --- ----- ------ ---- --- --------- --<br>------ - ---- -- --- ----------- ------- ---- ----- -----<br>--- -------- - ------ ---- -- ----- ---- --- --- -----------<br>-- -------,423459.2000000477,423392.7999999523,422840.363,422859.5,422857.104,423472.867,,1,days
screen,html.Screen,2_3_1_0_1_2,2022-05-03T13:23:59.625Z,,,,,,,,,,,,,,,,,2,,,,,,,,,,,,,,479.03300009533996,,response,,,,1,H,,,,,,Space,keypress(Space),,,,speech,,,,"--- ---- later, --- ------- ---------- ------- ----------<br>--- --------- --- ----------- ------- ----- ------- ---<br>--------- ---- -- --- ---- -- --------- -- ---- -------<br>-- --------- ------ --- ----- ------ ---- --- --------- --<br>------ - ---- -- --- ----------- ------- ---- ----- -----<br>--- -------- - ------ ---- -- ----- ---- --- --- -----------<br>-- -------",424032.5,423951.90000009537,423456.267,423459.7000000477,423472.867,424038.835,,2,"later,"
screen,html.Screen,2_3_1_0_1_3,2022-05-03T13:24:00.088Z,,,,,,,,,,,,,,,,,2,,,,,,,,,,,,,,421.5650000953465,,response,,,,1,H,,,,,,Space,keypress(Space),,,,speech,,,,--- ---- ------ the ------- ---------- ------- ----------<br>--- --------- --- ----------- ------- ----- ------- ---<br>--------- ---- -- --- ---- -- --------- -- ---- -------<br>-- --------- ------ --- ----- ------ ---- --- --------- --<br>------ - ---- -- --- ----------- ------- ---- ----- -----<br>--- -------- - ------ ---- -- ----- ---- --- --- -----------<br>-- -------,424495.40000009537,424460.40000009537,424022.218,424033.5,424038.835,424504.813,,3,the
screen,html.Screen,2_3_1_0_1_4,2022-05-03T13:24:00.554Z,,,,,,,,,,,,,,,,,2,,,,,,,,,,,,,,454.98699995229254,,response,,,,1,H,,,,,,Space,keypress(Space),,,,speech,,,,--- ---- ------ --- British ---------- ------- ----------<br>--- --------- --- ----------- ------- ----- ------- ---<br>--------- ---- -- --- ---- -- --------- -- ---- -------<br>-- --------- ------ --- ----- ------ ---- --- --------- --<br>------ - ---- -- --- ----------- ------- ---- ----- -----<br>--- -------- - ------ ---- -- ----- ---- --- --- -----------<br>-- -------,424961.2000000477,424959.7999999523,424488.178,424495.90000009537,424504.813,424970.974,,4,British
screen,html.Screen,2_3_1_0_1_5,2022-05-03T13:24:01.132Z,,,,,,,,,,,,,,,,,2,,,,,,,,,,,,,,555.42600009538,,response,,,,1,H,,,,,,Space,keypress(Space),,,,speech,,,,--- ---- ------ --- ------- astronomer ------- ----------<br>--- --------- --- ----------- ------- ----- ------- ---<br>--------- ---- -- --- ---- -- --------- -- ---- -------<br>-- --------- ------ --- ----- ------ ---- --- --------- --<br>------ - ---- -- --- ----------- ------- ---- ----- -----<br>--- -------- - ------ ---- -- ----- ---- --- --- -----------<br>-- -------,425539.7000000477,425526.40000009537,424954.315,424961.40000009537,424970.974,425553.47,,5,astronomer
screen,html.Screen,2_3_1_0_1_6,2022-05-03T13:24:02.035Z,,,,,,,,,,,,,,,,,2,,,,,,,,,,,,,,883.7300000477117,,response,,,,1,H,,,,,,Space,keypress(Space),,,,speech,,,,--- ---- ------ --- ------- ---------- Richard ----------<br>--- --------- --- ----------- ------- ----- ------- ---<br>--------- ---- -- --- ---- -- --------- -- ---- -------<br>-- --------- ------ --- ----- ------ ---- --- --------- --<br>------ - ---- -- --- ----------- ------- ---- ----- -----<br>--- -------- - ------ ---- -- ----- ---- --- --- -----------<br>-- -------,426442.7000000477,426437.2000000477,425536.816,425540.5,425553.47,426452.237,,6,Richard
screen,html.Screen,2_3_1_0_1_7,2022-05-03T13:24:02.435Z,,,,,,,,,,,,,,,,,2,,,,,,,,,,,,,,388.36299990460975,,response,,,,1,H,,,,,,Space,keypress(Space),,,,speech,,,,--- ---- ------ --- ------- ---------- ------- Carrington<br>--- --------- --- ----------- ------- ----- ------- ---<br>--------- ---- -- --- ---- -- --------- -- ---- -------<br>-- --------- ------ --- ----- ------ ---- --- --------- --<br>------ - ---- -- --- ----------- ------- ---- ----- -----<br>--- -------- - ------ ---- -- ----- ---- --- --- -----------<br>-- -------,426842.59999990463,426840.59999990463,426435.57,426443.09999990463,426452.237,426851.693,,7,Carrington
screen,html.Screen,2_3_1_0_1_8,2022-05-03T13:24:02.871Z,,,,,,,,,,,,,,,,,2,,,,,,,,,,,,,,425.0070000476553,,response,,,,1,H,,,,,,Space,keypress(Space),,,,speech,,,,--- ---- ------ --- ------- ---------- ------- ----------<br>was --------- --- ----------- ------- ----- ------- ---<br>--------- ---- -- --- ---- -- --------- -- ---- -------<br>-- --------- ------ --- ----- ------ ---- --- --------- --<br>------ - ---- -- --- ----------- ------- ---- ----- -----<br>--- -------- - ------ ---- -- ----- ---- --- --- -----------<br>-- -------,427278.09999990463,427276.7000000477,426835.025,426843,426851.693,427284.551,,8,was
screen,html.Screen,2_3_1_0_1_9,2022-05-03T13:24:03.437Z,,,,,,,,,,,,,,,,,2,,,,,,,,,,,,,,545.6490000477061,,response,,,,1,H,,,,,,Space,keypress(Space),,,,speech,,,,--- ---- ------ --- ------- ---------- ------- ----------<br>--- observing --- ----------- ------- ----- ------- ---<br>--------- ---- -- --- ---- -- --------- -- ---- -------<br>-- --------- ------ --- ----- ------ ---- --- --------- --<br>------ - ---- -- --- ----------- ------- ---- ----- -----<br>--- -------- - ------ ---- -- ----- ---- --- --- -----------<br>-- -------,427844.59999990463,427830.2000000477,427267.797,427278.5,427284.551,427850.34,,9,observing
screen,html.Screen,2_3_1_0_1_10,2022-05-03T13:24:04.464Z,,,,,,,,,,,,,,,,,2,,,,,,,,,,,,,,1018.0600000953418,,response,,,,1,H,,,,,,Space,keypress(Space),,,,speech,,,,--- ---- ------ --- ------- ---------- ------- ----------<br>--- --------- the ----------- ------- ----- ------- ---<br>--------- ---- -- --- ---- -- --------- -- ---- -------<br>-- --------- ------ --- ----- ------ ---- --- --------- --<br>------ - ---- -- --- ----------- ------- ---- ----- -----<br>--- -------- - ------ ---- -- ----- ---- --- --- -----------<br>-- -------,428871.2000000477,428868.40000009537,427833.727,427844.90000009537,427850.34,428882.338,,10,the
screen,html.Screen,2_3_1_0_1_11,2022-05-03T13:24:05.174Z,,,,,,,,,,,,,,,,,2,,,,,,,,,,,,,,696.2619999046437,,response,,,,1,H,,,,,,Space,keypress(Space),,,,speech,,,,--- ---- ------ --- ------- ---------- ------- ----------<br>--- --------- --- interesting ------- ----- ------- ---<br>--------- ---- -- --- ---- -- --------- -- ---- -------<br>-- --------- ------ --- ----- ------ ---- --- --------- --<br>------ - ---- -- --- ----------- ------- ---- ----- -----<br>--- -------- - ------ ---- -- ----- ---- --- --- -----------<br>-- -------,429581,429578.59999990463,428865.619,428872.2000000477,428882.338,429598.032,,11,interesting
screen,html.Screen,2_3_1_0_1_12,2022-05-03T13:24:05.597Z,,,,,,,,,,,,,,,,,2,,,,,,,,,,,,,,403.4679999999935,,response,,,,1,H,,,,,,Space,keypress(Space),,,,speech,,,,--- ---- ------ --- ------- ---------- ------- ----------<br>--- --------- --- ----------- sunspot ----- ------- ---<br>--------- ---- -- --- ---- -- --------- -- ---- -------<br>-- --------- ------ --- ----- ------ ---- --- --------- --<br>------ - ---- -- --- ----------- ------- ---- ----- -----<br>--- -------- - ------ ---- -- ----- ---- --- --- -----------<br>-- -------,430004.2999999523,430001.5,429581.412,429581.90000009537,429598.032,430014.149,,12,sunspot
screen,html.Screen,2_3_1_0_1_13,2022-05-03T13:24:06.085Z,,,,,,,,,,,,,,,,,2,,,,,,,,,,,,,,423.05100004770793,,response,,,,1,H,,,,,,Space,keypress(Space),,,,speech,,,,--- ---- ------ --- ------- ---------- ------- ----------<br>--- --------- --- ----------- ------- group ------- ---<br>--------- ---- -- --- ---- -- --------- -- ---- -------<br>-- --------- ------ --- ----- ------ ---- --- --------- --<br>------ - ---- -- --- ----------- ------- ---- ----- -----<br>--- -------- - ------ ---- -- ----- ---- --- --- -----------<br>-- -------,430492.2999999523,430437.2000000477,429997.478,430005,430014.149,430496.889,,13,group
screen,html.Screen,2_3_1_0_1_14,2022-05-03T13:24:06.782Z,,,,,,,,,,,,,,,,,2,,,,,,,,,,,,,,609.311000047659,,response,,,,1,H,,,,,,Space,keypress(Space),,,,speech,,,,--- ---- ------ --- ------- ---------- ------- ----------<br>--- --------- --- ----------- ------- ----- through ---<br>--------- ---- -- --- ---- -- --------- -- ---- -------<br>-- --------- ------ --- ----- ------ ---- --- --------- --<br>------ - ---- -- --- ----------- ------- ---- ----- -----<br>--- -------- - ------ ---- -- ----- ---- --- --- -----------<br>-- -------,431189,431106.2000000477,430480.177,430492.90000009537,430496.889,431196.07,,14,through
screen,html.Screen,2_3_1_0_1_15,2022-05-03T13:24:07.295Z,,,,,,,,,,,,,,,,,2,,,,,,,,,,,,,,503.7299999523093,,response,,,,1,H,,,,,,Space,keypress(Space),,,,speech,,,,--- ---- ------ --- ------- ---------- ------- ----------<br>--- --------- --- ----------- ------- ----- ------- his<br>--------- ---- -- --- ---- -- --------- -- ---- -------<br>-- --------- ------ --- ----- ------ ---- --- --------- --<br>------ - ---- -- --- ----------- ------- ---- ----- -----<br>--- -------- - ------ ---- -- ----- ---- --- --- -----------<br>-- -------,431702,431699.7999999523,431179.191,431189.2999999523,431196.07,431711.901,,15,his
screen,html.Screen,2_3_1_0_1_16,2022-05-03T13:24:07.946Z,,,,,,,,,,,,,,,,,2,,,,,,,,,,,,,,637.3989999523037,,response,,,,1,H,,,,,,Space,keypress(Space),,,,speech,,,,--- ---- ------ --- ------- ---------- ------- ----------<br>--- --------- --- ----------- ------- ----- ------- ---<br>telescope ---- -- --- ---- -- --------- -- ---- -------<br>-- --------- ------ --- ----- ------ ---- --- --------- --<br>------ - ---- -- --- ----------- ------- ---- ----- -----<br>--- -------- - ------ ---- -- ----- ---- --- --- -----------<br>-- -------,432353.40000009537,432349.2999999523,431695.21,431702.2999999523,431711.901,432361.046,,16,telescope
screen,html.Screen,2_3_1_0_1_17,2022-05-03T13:24:08.385Z,,,,,,,,,,,,,,,,,2,,,,,,,,,,,,,,429.0539999046596,,response,,,,1,H,,,,,,Space,keypress(Space),,,,speech,,,,--- ---- ------ --- ------- ---------- ------- ----------<br>--- --------- --- ----------- ------- ----- ------- ---<br>--------- when -- --- ---- -- --------- -- ---- -------<br>-- --------- ------ --- ----- ------ ---- --- --------- --<br>------ - ---- -- --- ----------- ------- ---- ----- -----<br>--- -------- - ------ ---- -- ----- ---- --- --- -----------<br>-- -------,432792.2000000477,432790.09999990463,432344.352,432353.7999999523,432361.046,432810.4,,17,when
screen,html.Screen,2_3_1_0_1_18,2022-05-03T13:24:08.779Z,,,,,,,,,,,,,,,,,2,,,,,,,,,,,,,,348.399999952293,,response,,,,1,H,,,,,,Space,keypress(Space),,,,speech,,,,--- ---- ------ --- ------- ---------- ------- ----------<br>--- --------- --- ----------- ------- ----- ------- ---<br>--------- ---- he --- ---- -- --------- -- ---- -------<br>-- --------- ------ --- ----- ------ ---- --- --------- --<br>------ - ---- -- --- ----------- ------- ---- ----- -----<br>--- -------- - ------ ---- -- ----- ---- --- --- -----------<br>-- -------,433186.7000000477,433158.7999999523,432793.742,432792.7000000477,432810.4,433193.275,,18,he
screen,html.Screen,2_3_1_0_1_19,2022-05-03T13:24:09.514Z,,,,,,,,,,,,,,,,,2,,,,,,,,,,,,,,633.1250000953441,,response,,,,1,H,,,,,,Space,keypress(Space),,,,speech,,,,--- ---- ------ --- ------- ---------- ------- ----------<br>--- --------- --- ----------- ------- ----- ------- ---<br>--------- ---- -- saw ---- -- --------- -- ---- -------<br>-- --------- ------ --- ----- ------ ---- --- --------- --<br>------ - ---- -- --- ----------- ------- ---- ----- -----<br>--- -------- - ------ ---- -- ----- ---- --- --- -----------<br>-- -------,433921.5,433826.40000009537,433176.552,433187.7000000477,433193.275,433925.575,,19,saw
screen,html.Screen,2_3_1_0_1_20,2022-05-03T13:24:09.926Z,,,,,,,,,,,,,,,,,2,,,,,,,,,,,,,,407.0249999046209,,response,,,,1,H,,,,,,Space,keypress(Space),,,,speech,,,,--- ---- ------ --- ------- ---------- ------- ----------<br>--- --------- --- ----------- ------- ----- ------- ---<br>--------- ---- -- --- what -- --------- -- ---- -------<br>-- --------- ------ --- ----- ------ ---- --- --------- --<br>------ - ---- -- --- ----------- ------- ---- ----- -----<br>--- -------- - ------ ---- -- ----- ---- --- --- -----------<br>-- -------,434333.90000009537,434332.59999990463,433908.884,433922.7000000477,433925.575,434341.664,,20,what
screen,html.Screen,2_3_1_0_1_21,2022-05-03T13:24:10.291Z,,,,,,,,,,,,,,,,,2,,,,,,,,,,,,,,353.13599995232653,,response,,,,1,H,,,,,,Space,keypress(Space),,,,speech,,,,--- ---- ------ --- ------- ---------- ------- ----------<br>--- --------- --- ----------- ------- ----- ------- ---<br>--------- ---- -- --- ---- he --------- -- ---- -------<br>-- --------- ------ --- ----- ------ ---- --- --------- --<br>------ - ---- -- --- ----------- ------- ---- ----- -----<br>--- -------- - ------ ---- -- ----- ---- --- --- -----------<br>-- -------,434698.59999990463,434694.7999999523,434324.999,434334.5,434341.664,434707.851,,21,he
screen,html.Screen,2_3_1_0_1_22,2022-05-03T13:24:10.766Z,,,,,,,,,,,,,,,,,2,,,,,,,,,,,,,,463.74899990460835,,response,,,,1,H,,,,,,Space,keypress(Space),,,,speech,,,,--- ---- ------ --- ------- ---------- ------- ----------<br>--- --------- --- ----------- ------- ----- ------- ---<br>--------- ---- -- --- ---- -- described -- ---- -------<br>-- --------- ------ --- ----- ------ ---- --- --------- --<br>------ - ---- -- --- ----------- ------- ---- ----- -----<br>--- -------- - ------ ---- -- ----- ---- --- --- -----------<br>-- -------,435173.59999990463,435171.59999990463,434691.174,434698.90000009537,434707.851,435190.515,,22,described
screen,html.Screen,2_3_1_0_1_23,2022-05-03T13:24:11.145Z,,,,,,,,,,,,,,,,,2,,,,,,,,,,,,,,360.48499999998603,,response,,,,1,H,,,,,,Space,keypress(Space),,,,speech,,,,--- ---- ------ --- ------- ---------- ------- ----------<br>--- --------- --- ----------- ------- ----- ------- ---<br>--------- ---- -- --- ---- -- --------- as ---- -------<br>-- --------- ------ --- ----- ------ ---- --- --------- --<br>------ - ---- -- --- ----------- ------- ---- ----- -----<br>--- -------- - ------ ---- -- ----- ---- --- --- -----------<br>-- -------,435552.59999990463,435551,435173.87,435174.90000009537,435190.515,435556.741,,23,as
screen,html.Screen,2_3_1_0_1_24,2022-05-03T13:24:11.576Z,,,,,,,,,,,,,,,,,2,,,,,,,,,,,,,,424.45900004770374,,response,,,,1,H,,,,,,Space,keypress(Space),,,,speech,,,,"--- ---- ------ --- ------- ---------- ------- ----------<br>--- --------- --- ----------- ------- ----- ------- ---<br>--------- ---- -- --- ---- -- --------- -- ""two -------<br>-- --------- ------ --- ----- ------ ---- --- --------- --<br>------ - ---- -- --- ----------- ------- ---- ----- -----<br>--- -------- - ------ ---- -- ----- ---- --- --- -----------<br>-- -------",435983.59999990463,435981.2000000477,435540.05,435552.90000009537,435556.741,435989.561,,24,"""two"
screen,html.Screen,2_3_1_0_1_25,2022-05-03T13:24:12.216Z,,,,,,,,,,,,,,,,,2,,,,,,,,,,,,,,630.939000000013,,response,,,,1,H,,,,,,Space,keypress(Space),,,,speech,,,,--- ---- ------ --- ------- ---------- ------- ----------<br>--- --------- --- ----------- ------- ----- ------- ---<br>--------- ---- -- --- ---- -- --------- -- ---- patches<br>-- --------- ------ --- ----- ------ ---- --- --------- --<br>------ - ---- -- --- ----------- ------- ---- ----- -----<br>--- -------- - ------ ---- -- ----- ---- --- --- -----------<br>-- -------,436623.2000000477,436620.5,435972.91,435984.2999999523,435989.561,436638.693,,25,patches
screen,html.Screen,2_3_1_0_1_26,2022-05-03T13:24:12.718Z,,,,,,,,,,,,,,,,,2,,,,,,,,,,,,,,406.707000095339,,response,,,,1,H,,,,,,Space,keypress(Space),,,,speech,,,,--- ---- ------ --- ------- ---------- ------- ----------<br>--- --------- --- ----------- ------- ----- ------- ---<br>--------- ---- -- --- ---- -- --------- -- ---- -------<br>of --------- ------ --- ----- ------ ---- --- --------- --<br>------ - ---- -- --- ----------- ------- ---- ----- -----<br>--- -------- - ------ ---- -- ----- ---- --- --- -----------<br>-- -------,437125.7999999523,437045.40000009537,436621.909,436623.90000009537,436638.693,437138.021,,26,of
screen,html.Screen,2_3_1_0_1_27,2022-05-03T13:24:13.291Z,,,,,,,,,,,,,,,,,2,,,,,,,,,,,,,,553.6790000476758,,response,,,,1,H,,,,,,Space,keypress(Space),,,,speech,,,,--- ---- ------ --- ------- ---------- ------- ----------<br>--- --------- --- ----------- ------- ----- ------- ---<br>--------- ---- -- --- ---- -- --------- -- ---- -------<br>-- intensely ------ --- ----- ------ ---- --- --------- --<br>------ - ---- -- --- ----------- ------- ---- ----- -----<br>--- -------- - ------ ---- -- ----- ---- --- --- -----------<br>-- -------,437698.40000009537,437691.7000000477,437121.433,437126.7000000477,437138.021,437703.88,,27,intensely
screen,html.Screen,2_3_1_0_1_28,2022-05-03T13:24:13.775Z,,,,,,,,,,,,,,,,,2,,,,,,,,,,,,,,462.32000004767906,,response,,,,1,H,,,,,,Space,keypress(Space),,,,speech,,,,--- ---- ------ --- ------- ---------- ------- ----------<br>--- --------- --- ----------- ------- ----- ------- ---<br>--------- ---- -- --- ---- -- --------- -- ---- -------<br>-- --------- bright --- ----- ------ ---- --- --------- --<br>------ - ---- -- --- ----------- ------- ---- ----- -----<br>--- -------- - ------ ---- -- ----- ---- --- --- -----------<br>-- -------,438182.7000000477,438166.2000000477,437687.125,437698.90000009537,437703.88,438186.603,,28,bright
screen,html.Screen,2_3_1_0_1_29,2022-05-03T13:24:14.410Z,,,,,,,,,,,,,,,,,2,,,,,,,,,,,,,,628.0970000476809,,response,,,,1,H,,,,,,Space,keypress(Space),,,,speech,,,,--- ---- ------ --- ------- ---------- ------- ----------<br>--- --------- --- ----------- ------- ----- ------- ---<br>--------- ---- -- --- ---- -- --------- -- ---- -------<br>-- --------- ------ and ----- ------ ---- --- --------- --<br>------ - ---- -- --- ----------- ------- ---- ----- -----<br>--- -------- - ------ ---- -- ----- ---- --- --- -----------<br>-- -------,438817.2000000477,438814.7000000477,438169.872,438183.2000000477,438186.603,438819.028,,29,and
screen,html.Screen,2_3_1_0_1_30,2022-05-03T13:24:15.625Z,,,,,,,,,,,,,,,,,2,,,,,,,,,,,,,,1209.8720000953763,,response,,,,1,H,,,,,,Space,keypress(Space),,,,speech,,,,--- ---- ------ --- ------- ---------- ------- ----------<br>--- --------- --- ----------- ------- ----- ------- ---<br>--------- ---- -- --- ---- -- --------- -- ---- -------<br>-- --------- ------ --- white ------ ---- --- --------- --<br>------ - ---- -- --- ----------- ------- ---- ----- -----<br>--- -------- - ------ ---- -- ----- ---- --- --- -----------<br>-- -------,440032.2999999523,440028.90000009537,438802.333,438817.7000000477,438819.028,440050.733,,30,white
screen,html.Screen,2_3_1_0_1_31,2022-05-03T13:24:17.413Z,,,,,,,,,,,,,,,,,2,,,,,,,,,,,,,,1765.5669999523088,,response,,,,1,H,,,,,,Space,keypress(Space),,,,speech,,,,"--- ---- ------ --- ------- ---------- ------- ----------<br>--- --------- --- ----------- ------- ----- ------- ---<br>--------- ---- -- --- ---- -- --------- -- ---- -------<br>-- --------- ------ --- ----- light"" ---- --- --------- --<br>------ - ---- -- --- ----------- ------- ---- ----- -----<br>--- -------- - ------ ---- -- ----- ---- --- --- -----------<br>-- -------",441820.40000009537,441816.2999999523,440033.992,440032.90000009537,440050.733,441831.764,,31,"light"""
screen,html.Screen,2_3_1_0_1_32,2022-05-03T13:24:17.865Z,,,,,,,,,,,,,,,,,2,,,,,,,,,,,,,,385.8359999046079,,response,,,,1,H,,,,,,Space,keypress(Space),,,,speech,,,,--- ---- ------ --- ------- ---------- ------- ----------<br>--- --------- --- ----------- ------- ----- ------- ---<br>--------- ---- -- --- ---- -- --------- -- ---- -------<br>-- --------- ------ --- ----- ------ over --- --------- --<br>------ - ---- -- --- ----------- ------- ---- ----- -----<br>--- -------- - ------ ---- -- ----- ---- --- --- -----------<br>-- -------,442272,442217.59999990463,441814.911,441825.40000009537,441831.764,442281.14,,32,over
screen,html.Screen,2_3_1_0_1_33,2022-05-03T13:24:18.264Z,,,,,,,,,,,,,,,,,2,,,,,,,,,,,,,,388.6599999523023,,response,,,,1,H,,,,,,Space,keypress(Space),,,,speech,,,,--- ---- ------ --- ------- ---------- ------- ----------<br>--- --------- --- ----------- ------- ----- ------- ---<br>--------- ---- -- --- ---- -- --------- -- ---- -------<br>-- --------- ------ --- ----- ------ ---- the --------- --<br>------ - ---- -- --- ----------- ------- ---- ----- -----<br>--- -------- - ------ ---- -- ----- ---- --- --- -----------<br>-- -------,442671.7999999523,442669.7999999523,442264.425,442272.5,442281.14,442680.562,,33,the
screen,html.Screen,2_3_1_0_1_34,2022-05-03T13:24:19.127Z,,,,,,,,,,,,,,,,,2,,,,,,,,,,,,,,852.6380000477075,,response,,,,1,H,,,,,,Space,keypress(Space),,,,speech,,,,--- ---- ------ --- ------- ---------- ------- ----------<br>--- --------- --- ----------- ------- ----- ------- ---<br>--------- ---- -- --- ---- -- --------- -- ---- -------<br>-- --------- ------ --- ----- ------ ---- --- sunspots. --<br>------ - ---- -- --- ----------- ------- ---- ----- -----<br>--- -------- - ------ ---- -- ----- ---- --- --- -----------<br>-- -------,443534.7000000477,443533.2000000477,442663.852,442672.40000009537,442680.562,443546.142,,34,sunspots.
screen,html.Screen,2_3_1_0_1_35,2022-05-03T13:24:19.712Z,,,,,,,,,,,,,,,,,2,,,,,,,,,,,,,,517.0580000476912,,response,,,,1,H,,,,,,Space,keypress(Space),,,,speech,,,,--- ---- ------ --- ------- ---------- ------- ----------<br>--- --------- --- ----------- ------- ----- ------- ---<br>--------- ---- -- --- ---- -- --------- -- ---- -------<br>-- --------- ------ --- ----- ------ ---- --- --------- He<br>------ - ---- -- --- ----------- ------- ---- ----- -----<br>--- -------- - ------ ---- -- ----- ---- --- --- -----------<br>-- -------,444119.2999999523,444063.2000000477,443529.42,443534.90000009537,443546.142,444128.584,,35,He
screen,html.Screen,2_3_1_0_1_36,2022-05-03T13:24:20.314Z,,,,,,,,,,,,,,,,,2,,,,,,,,,,,,,,590.1160000477103,,response,,,,1,H,,,,,,Space,keypress(Space),,,,speech,,,,--- ---- ------ --- ------- ---------- ------- ----------<br>--- --------- --- ----------- ------- ----- ------- ---<br>--------- ---- -- --- ---- -- --------- -- ---- -------<br>-- --------- ------ --- ----- ------ ---- --- --------- --<br>jotted - ---- -- --- ----------- ------- ---- ----- -----<br>--- -------- - ------ ---- -- ----- ---- --- --- -----------<br>-- -------,444721,444718.7000000477,444111.9,444120.2000000477,444128.584,444727.807,,36,jotted
screen,html.Screen,2_3_1_0_1_37,2022-05-03T13:24:20.962Z,,,,,,,,,,,,,,,,,2,,,,,,,,,,,,,,639.6930000000284,,response,,,,1,H,,,,,,Space,keypress(Space),,,,speech,,,,--- ---- ------ --- ------- ---------- ------- ----------<br>--- --------- --- ----------- ------- ----- ------- ---<br>--------- ---- -- --- ---- -- --------- -- ---- -------<br>-- --------- ------ --- ----- ------ ---- --- --------- --<br>------ a ---- -- --- ----------- ------- ---- ----- -----<br>--- -------- - ------ ---- -- ----- ---- --- --- -----------<br>-- -------,445369.09999990463,445367.5,444711.083,444721.59999990463,444727.807,445376.912,,37,a
screen,html.Screen,2_3_1_0_1_38,2022-05-03T13:24:21.545Z,,,,,,,,,,,,,,,,,2,,,,,,,,,,,,,,530.0879999999888,,response,,,,1,H,,,,,,Space,keypress(Space),,,,speech,,,,--- ---- ------ --- ------- ---------- ------- ----------<br>--- --------- --- ----------- ------- ----- ------- ---<br>--------- ---- -- --- ---- -- --------- -- ---- -------<br>-- --------- ------ --- ----- ------ ---- --- --------- --<br>------ - note -- --- ----------- ------- ---- ----- -----<br>--- -------- - ------ ---- -- ----- ---- --- --- -----------<br>-- -------,445952.2999999523,445907,445360.302,445369.5,445376.912,445959.528,,38,note
