sender,sender_type,sender_id,timestamp,meta,,Blues,Classical,Country,Dance,Electronic,Folk,Gospel,Hip-Hop,Jazz,Latin,Musical/Film,New-age,Pop,Prolific_id,Provo_ID,R&B,Rap,Reggae,Religious,Rock,Soul,Swing,Traditional,age,artist_name,correct,correctResponse,distraction,duration,education,ended_on,familiarity,gender,headphone_check_performance,item,list,music_frequency,offensiveness,pleasantness,position_correct,preference,response,response_action,snippet_file,song_name,song_rating,sound,stimulus_1,stimulus_2,stimulus_3,text,time_commit,time_end,time_render,time_run,time_show,time_switch,url,word,word_ID
Prolific ID,html.Form,0,2022-05-03T17:59:05.579Z,"{""labjs_version"":""20.2.2"",""labjs_build"":{""flavor"":""production"",""commit"":""a25486e0c714a0ae2ce03ff94b7bb6896854dcfa""},""location"":""https://run.pavlovia.org/mvasilev/prolific3_music_a/"",""userAgent"":""Mozilla/5.0 (Windows NT 10.0; Win64; x64) AppleWebKit/537.36 (KHTML, like Gecko) Chrome/100.0.4896.127 Safari/537.36"",""platform"":""Win32"",""language"":""en-GB"",""locale"":""en-GB"",""timeZone"":""Europe/London"",""timezoneOffset"":-60,""screen_width"":1280,""screen_height"":720,""scroll_width"":1280,""scroll_height"":577,""window_innerWidth"":1280,""window_innerHeight"":577,""devicePixelRatio"":1.5}",,,,,,,,,,,,,,,5c3e56303178f800010aadf4,,,,,,,,,,,,,,,4831.39500002384,,form submission,,,,,,,,,,,,,,,,,,,,,23814.800000071526,23811.100000023842,18895.605,18896.200000047684,18979.705,23862.767,{},,
Introduction,html.Screen,1_0,2022-05-03T17:59:09.903Z,,,,,,,,,,,,,,,,,,,,,,,,,,,,,,,4273.333000023842,,response,,,,,,,,,,,continue,click button,,,,,,,,,28138.600000023842,28136.100000023842,23779.648,23816.700000047684,23862.767,28195.876,,,
Volume calibration,html.Screen,1_1,2022-05-03T17:59:25.823Z,,,,,,,,,,,,,,,,,,,,,,,,,,,,,,,15860.924000071525,,response,,,,,,,,,,,continue,click button,,,,,,,,,44059.10000002384,44056.800000071526,28129.393,28139.100000023842,28195.876,44078.424,,,
Task instructions,html.Screen,1_2,2022-05-03T17:59:53.230Z,,,,,,,,,,,,,,,,,,,,,,,,,,,,,,,27386.876000071527,,response,,,,,,,,,,,continue,click button,,,,,,,,,71466.80000007153,71465.30000007153,44045.105,44059.300000071526,44078.424,71477.001,,,
Sounds,html.Screen,1_3_0_0,2022-05-03T17:59:57.495Z,,,,,,,,,,,,,,,,,,,,,,,,,,,,,,,4249.826000000001,,timeout,,,,,,,,,2,,,,,,,,O,S,I,,75730.90000009537,75710.165,71460.542,71467.20000004768,71477.001,75726.827,,,
Judgement,html.Screen,1_3_0_1,2022-05-03T18:00:00.995Z,,,,,,,,,,,,,,,,,,,,,,,,,,,,true,2,,3501.873000047679,,response,,,,,,,,,2,,2,click #choice-2,,,,,O,S,I,,79231.30000007153,79228.70000004768,75710.165,75731.30000007153,75726.827,79259.985,,,
Trial,flow.Sequence,1_3_0,2022-05-03T18:00:00.996Z,,,,,,,,,,,,,,,,,,,,,,,,,,,,,,,7751.69900004768,,completion,,,,,,,,,2,,,,,,,,O,S,I,,79232.20000004768,79228.70000004768,71460.542,71467.10000002384,71477.001,79259.985,,,
Sounds,html.Screen,1_3_1_0,2022-05-03T18:00:05.258Z,,,,,,,,,,,,,,,,,,,,,,,,,,,,,,,4249.736999999994,,timeout,,,,,,,,,2,,,,,,,,I,S,O,,83494.5,83493.105,79226.77,79261.30000007153,79259.985,83509.722,,,
Judgement,html.Screen,1_3_1_1,2022-05-03T18:00:06.406Z,,,,,,,,,,,,,,,,,,,,,,,,,,,,true,2,,1129.4780000476894,,response,,,,,,,,,2,,2,click #choice-2,,,,,I,S,O,,84641.90000009537,84639.20000004768,83493.105,83494.80000007153,83509.722,84642.982,,,
Trial,flow.Sequence,1_3_1,2022-05-03T18:00:06.407Z,,,,,,,,,,,,,,,,,,,,,,,,,,,,,,,5379.215000047683,,completion,,,,,,,,,2,,,,,,,,I,S,O,,84643.70000004768,84639.20000004768,79226.77,79232.5,79259.985,84642.982,,,
Sounds,html.Screen,1_3_2_0,2022-05-03T18:00:10.642Z,,,,,,,,,,,,,,,,,,,,,,,,,,,,,,,4249.800000000003,,timeout,,,,,,,,,3,,,,,,,,O,I,S,,88878,88876.125,84626.415,84644.80000007153,84642.982,88892.782,,,
Judgement,html.Screen,1_3_2_1,2022-05-03T18:00:11.205Z,,,,,,,,,,,,,,,,,,,,,,,,,,,,true,3,,547.1180000953609,,response,,,,,,,,,3,,3,click #choice-3,,,,,O,I,S,,89441.70000004768,89439.90000009537,88876.125,88878.40000009537,88892.782,89442.743,,,
Trial,flow.Sequence,1_3_2,2022-05-03T18:00:11.206Z,,,,,,,,,,,,,,,,,,,,,,,,,,,,,,,4796.918000095364,,completion,,,,,,,,,3,,,,,,,,O,I,S,,89442.30000007153,89439.90000009537,84626.415,84644.40000009537,84642.982,89442.743,,,
Sounds,html.Screen,1_3_3_0,2022-05-03T18:00:15.441Z,,,,,,,,,,,,,,,,,,,,,,,,,,,,,,,4249.803,,timeout,,,,,,,,,1,,,,,,,,S,O,I,,93677.40000009537,93675.972,89426.089,89442.5,89442.743,93692.546,,,
Judgement,html.Screen,1_3_3_1,2022-05-03T18:00:16.315Z,,,,,,,,,,,,,,,,,,,,,,,,,,,,true,1,,856.9539999999979,,response,,,,,,,,,1,,1,click #choice-1,,,,,S,O,I,,94551.20000004768,94549.5,93675.972,93677.60000002384,93692.546,94559.152,,,
Trial,flow.Sequence,1_3_3,2022-05-03T18:00:16.315Z,,,,,,,,,,,,,,,,,,,,,,,,,,,,,,,5106.756999999998,,completion,,,,,,,,,1,,,,,,,,S,O,I,,94551.60000002384,94549.5,89426.089,89442.40000009537,89442.743,94559.152,,,
Sounds,html.Screen,1_3_4_0,2022-05-03T18:00:20.573Z,,,,,,,,,,,,,,,,,,,,,,,,,,,,,,,4249.773000000001,,timeout,,,,,,,,,3,,,,,,,,I,O,S,,98809.5,98792.289,94542.506,94551.90000009537,94559.152,98808.925,,,
Judgement,html.Screen,1_3_4_1,2022-05-03T18:00:21.064Z,,,,,,,,,,,,,,,,,,,,,,,,,,,,true,3,,489.87500007152266,,response,,,,,,,,,3,,3,click #choice-3,,,,,I,O,S,,99300.60000002384,99298.80000007153,98792.289,98809.90000009537,98808.925,99308.902,,,
Trial,flow.Sequence,1_3_4,2022-05-03T18:00:21.065Z,,,,,,,,,,,,,,,,,,,,,,,,,,,,,,,4739.648000071524,,completion,,,,,,,,,3,,,,,,,,I,O,S,,99301.10000002384,99298.80000007153,94542.506,94551.80000007153,94559.152,99308.902,,,
Sounds,html.Screen,1_3_5_0,2022-05-03T18:00:25.307Z,,,,,,,,,,,,,,,,,,,,,,,,,,,,,,,4249.732000000004,,timeout,,,,,,,,,1,,,,,,,,S,I,O,,103543.20000004768,103542.074,99292.444,99301.40000009537,99308.902,103558.634,,,
Judgement,html.Screen,1_3_5_1,2022-05-03T18:00:26.253Z,,,,,,,,,,,,,,,,,,,,,,,,,,,,true,1,,928.6660000715201,,response,,,,,,,,,1,,1,click #choice-1,,,,,S,I,O,,104489.60000002384,104487.30000007153,103542.074,103543.40000009537,103558.634,104491.938,,,
Trial,flow.Sequence,1_3_5,2022-05-03T18:00:26.254Z,,,,,,,,,,,,,,,,,,,,,,,,,,,,,,,5178.398000071524,,completion,,,,,,,,,1,,,,,,,,S,I,O,,104490,104487.30000007153,99292.444,99301.20000004768,99308.902,104491.938,,,
Task,flow.Loop,1_3,2022-05-03T18:00:26.263Z,,,,,,,,,,,,,,,,,,,,,,,,,,,,,,,33010.29900007152,,completion,,,1,,,,,,,,,,,,,,,,,,104499.10000002384,104487.30000007153,71460.542,71467.10000002384,71477.001,104491.938,,,
Trap,html.Screen,1_4,2022-05-03T18:00:26.266Z,,,,,,,,,,,,,,,,,,,,,,,,,,,,,,,NaN,,skipped,,,,,,,,,,,,,,,,,,,,,104502.60000002384,104487.30000007153,,104502.5,,104491.938,,,
Thanks,html.Screen,1_5,2022-05-03T18:00:39.574Z,,,,,,,,,,,,,,,,,,,,,,,,,,,,,,,13316.962000095373,,response,,,,,,,,,,,continue,click button,,,,,,,,,117810.60000002384,117808.90000009537,104475.286,104502.80000007153,104491.938,129857.431,,,
Headphone screening,flow.Sequence,1,2022-05-03T18:00:39.575Z,,,,,,,,,,,,,,,,,,,,,,,,,,,,,,,93946.13300009537,,completion,,,,,,,,,,,,,,,,,,,,,117811,117808.90000009537,23779.648,23815.900000095367,23862.767,129857.431,,,
Instructions,html.Page,2_0,2022-05-03T18:01:56.011Z,,,,,,,,,,,,,,,,,,,,,,,,,,,,,,,64388.96900009537,,form submission,,,,,,,,,,,,,,,,,,,,,194247.30000007153,194246.40000009537,129774.009,129839.60000002384,129857.431,194270.752,,,
Holding screen,html.Screen,2_1_0_0,2022-05-03T18:02:06.019Z,,,,,,,,,,,,,,,,,,,,,,,,,,,,,,,10066.07799999998,,timeout,,,,,,,,,,,,,,,,,,,,,204255.30000007153,204253.665,194237.492,194247.90000009537,194270.752,204336.83,,,
screen,html.Screen,2_1_0_1_0,2022-05-03T18:02:07.111Z,,,,,,,,,,,,,,,,,53,,,,,,,,,,,,,,989.6700000000128,,response,,,,99,,,,,,,Space,keypress(Space),,,,,,,,When -- ----- -- ------ - ------- --- ----------<br>------------- ------ ------ ---- ---- ------- ----- -- ----<br>-------- ------- -- ---------- --- - --- ----- ----- ----<br>---- --- --- ----- --- ---- ---- ------- ----- ---- -------<br>--- --- -- ----- -- --- ---- -- --- ---- -- ------ ------<br>--- ----- -- ----,205347,205326.5,204253.665,204255.80000007153,204336.83,205353.48,,0,When
screen,html.Screen,2_1_0_1_1,2022-05-03T18:02:07.466Z,,,,,,,,,,,,,,,,,53,,,,,,,,,,,,,,347.92000009535695,,response,,,,99,,,,,,,Space,keypress(Space),,,,,,,,---- it ----- -- ------ - ------- --- ----------<br>------------- ------ ------ ---- ---- ------- ----- -- ----<br>-------- ------- -- ---------- --- - --- ----- ----- ----<br>---- --- --- ----- --- ---- ---- ------- ----- ---- -------<br>--- --- -- ----- -- --- ---- -- --- ---- -- ------ ------<br>--- ----- -- ----,205702.60000002384,205701.40000009537,205336.849,205347.20000004768,205353.48,205720.233,,1,it
screen,html.Screen,2_1_0_1_2,2022-05-03T18:02:07.901Z,,,,,,,,,,,,,,,,,53,,,,,,,,,,,,,,416.3670000238344,,response,,,,99,,,,,,,Space,keypress(Space),,,,,,,,---- -- comes -- ------ - ------- --- ----------<br>------------- ------ ------ ---- ---- ------- ----- -- ----<br>-------- ------- -- ---------- --- - --- ----- ----- ----<br>---- --- --- ----- --- ---- ---- ------- ----- ---- -------<br>--- --- -- ----- -- --- ---- -- --- ---- -- ------ ------<br>--- ----- -- ----,206137.70000004768,206136.60000002384,205703.569,205702.80000007153,205720.233,206153.536,,2,comes
screen,html.Screen,2_1_0_1_3,2022-05-03T18:02:08.228Z,,,,,,,,,,,,,,,,,53,,,,,,,,,,,,,,309.4640000000072,,response,,,,99,,,,,,,Space,keypress(Space),,,,,,,,---- -- ----- to ------ - ------- --- ----------<br>------------- ------ ------ ---- ---- ------- ----- -- ----<br>-------- ------- -- ---------- --- - --- ----- ----- ----<br>---- --- --- ----- --- ---- ---- ------- ----- ---- -------<br>--- --- -- ----- -- --- ---- -- --- ---- -- ------ ------<br>--- ----- -- ----,206464.20000004768,206463,206136.865,206137.90000009537,206153.536,206470.051,,3,to
screen,html.Screen,2_1_0_1_4,2022-05-03T18:02:08.495Z,,,,,,,,,,,,,,,,,53,,,,,,,,,,,,,,260.0490000238351,,response,,,,99,,,,,,,Space,keypress(Space),,,,,,,,---- -- ----- -- having - ------- --- ----------<br>------------- ------ ------ ---- ---- ------- ----- -- ----<br>-------- ------- -- ---------- --- - --- ----- ----- ----<br>---- --- --- ----- --- ---- ---- ------- ----- ---- -------<br>--- --- -- ----- -- --- ---- -- --- ---- -- ------ ------<br>--- ----- -- ----,206731.30000007153,206730.10000002384,206453.565,206464.40000009537,206470.051,206736.733,,4,having
screen,html.Screen,2_1_0_1_5,2022-05-03T18:02:08.813Z,,,,,,,,,,,,,,,,,53,,,,,,,,,,,,,,311.3670000238344,,response,,,,99,,,,,,,Space,keypress(Space),,,,,,,,---- -- ----- -- ------ a ------- --- ----------<br>------------- ------ ------ ---- ---- ------- ----- -- ----<br>-------- ------- -- ---------- --- - --- ----- ----- ----<br>---- --- --- ----- --- ---- ---- ------- ----- ---- -------<br>--- --- -- ----- -- --- ---- -- --- ---- -- ------ ------<br>--- ----- -- ----,207049.10000002384,207048.10000002384,206720.241,206731.5,206736.733,207053.413,,5,a
screen,html.Screen,2_1_0_1_6,2022-05-03T18:02:09.095Z,,,,,,,,,,,,,,,,,53,,,,,,,,,,,,,,276.1870000238414,,response,,,,99,,,,,,,Space,keypress(Space),,,,,,,,---- -- ----- -- ------ - lasting --- ----------<br>------------- ------ ------ ---- ---- ------- ----- -- ----<br>-------- ------- -- ---------- --- - --- ----- ----- ----<br>---- --- --- ----- --- ---- ---- ------- ----- ---- -------<br>--- --- -- ----- -- --- ---- -- --- ---- -- ------ ------<br>--- ----- -- ----,207330.80000007153,207329.60000002384,207036.739,207049.40000009537,207053.413,207336.663,,6,lasting
screen,html.Screen,2_1_0_1_7,2022-05-03T18:02:09.304Z,,,,,,,,,,,,,,,,,53,,,,,,,,,,,,,,202.83699999999953,,response,,,,99,,,,,,,Space,keypress(Space),,,,,,,,---- -- ----- -- ------ - ------- and ----------<br>------------- ------ ------ ---- ---- ------- ----- -- ----<br>-------- ------- -- ---------- --- - --- ----- ----- ----<br>---- --- --- ----- --- ---- ---- ------- ----- ---- -------<br>--- --- -- ----- -- --- ---- -- --- ---- -- ------ ------<br>--- ----- -- ----,207540.60000002384,207539.5,207320.19,207331.20000004768,207336.663,207553.377,,7,and
screen,html.Screen,2_1_0_1_8,2022-05-03T18:02:09.674Z,,,,,,,,,,,,,,,,,53,,,,,,,,,,,,,,356.1229999999923,,response,,,,99,,,,,,,Space,keypress(Space),,,,,,,,---- -- ----- -- ------ - ------- --- fulfilling<br>------------- ------ ------ ---- ---- ------- ----- -- ----<br>-------- ------- -- ---------- --- - --- ----- ----- ----<br>---- --- --- ----- --- ---- ---- ------- ----- ---- -------<br>--- --- -- ----- -- --- ---- -- --- ---- -- ------ ------<br>--- ----- -- ----,207910.70000004768,207909.5,207536.68,207540.80000007153,207553.377,207920.012,,8,fulfilling
screen,html.Screen,2_1_0_1_9,2022-05-03T18:02:10.025Z,,,,,,,,,,,,,,,,,53,,,,,,,,,,,,,,340.2880000715377,,response,,,,99,,,,,,,Space,keypress(Space),,,,,,,,"---- -- ----- -- ------ - ------- --- ----------<br>relationship, ------ ------ ---- ---- ------- ----- -- ----<br>-------- ------- -- ---------- --- - --- ----- ----- ----<br>---- --- --- ----- --- ---- ---- ------- ----- ---- -------<br>--- --- -- ----- -- --- ---- -- --- ---- -- ------ ------<br>--- ----- -- ----",208261.5,208260.30000007153,207903.514,207911,207920.012,208269.972,,9,"relationship,"
screen,html.Screen,2_1_0_1_10,2022-05-03T18:02:10.420Z,,,,,,,,,,,,,,,,,53,,,,,,,,,,,,,,385.22800004767487,,response,,,,99,,,,,,,Space,keypress(Space),,,,,,,,---- -- ----- -- ------ - ------- --- ----------<br>------------- common ------ ---- ---- ------- ----- -- ----<br>-------- ------- -- ---------- --- - --- ----- ----- ----<br>---- --- --- ----- --- ---- ---- ------- ----- ---- -------<br>--- --- -- ----- -- --- ---- -- --- ---- -- ------ ------<br>--- ----- -- ----,208656.30000007153,208655.20000004768,208253.425,208261.70000004768,208269.972,208669.995,,10,common
screen,html.Screen,2_1_0_1_11,2022-05-03T18:02:10.759Z,,,,,,,,,,,,,,,,,53,,,,,,,,,,,,,,323.7050000476884,,response,,,,99,,,,,,,Space,keypress(Space),,,,,,,,---- -- ----- -- ------ - ------- --- ----------<br>------------- ------ wisdom ---- ---- ------- ----- -- ----<br>-------- ------- -- ---------- --- - --- ----- ----- ----<br>---- --- --- ----- --- ---- ---- ------- ----- ---- -------<br>--- --- -- ----- -- --- ---- -- --- ---- -- ------ ------<br>--- ----- -- ----,208995,208993.70000004768,208653.501,208656.60000002384,208669.995,209003.294,,11,wisdom
screen,html.Screen,2_1_0_1_12,2022-05-03T18:02:11.095Z,,,,,,,,,,,,,,,,,53,,,,,,,,,,,,,,326.30600002384745,,response,,,,99,,,,,,,Space,keypress(Space),,,,,,,,---- -- ----- -- ------ - ------- --- ----------<br>------------- ------ ------ says ---- ------- ----- -- ----<br>-------- ------- -- ---------- --- - --- ----- ----- ----<br>---- --- --- ----- --- ---- ---- ------- ----- ---- -------<br>--- --- -- ----- -- --- ---- -- --- ---- -- ------ ------<br>--- ----- -- ----,209330.70000004768,209329.60000002384,208986.746,208995.20000004768,209003.294,209336.601,,12,says
screen,html.Screen,2_1_0_1_13,2022-05-03T18:02:11.487Z,,,,,,,,,,,,,,,,,53,,,,,,,,,,,,,,385.0990000476886,,response,,,,99,,,,,,,Space,keypress(Space),,,,,,,,---- -- ----- -- ------ - ------- --- ----------<br>------------- ------ ------ ---- that ------- ----- -- ----<br>-------- ------- -- ---------- --- - --- ----- ----- ----<br>---- --- --- ----- --- ---- ---- ------- ----- ---- -------<br>--- --- -- ----- -- --- ---- -- --- ---- -- ------ ------<br>--- ----- -- ----,209723.10000002384,209721.70000004768,209320.129,209331,209336.601,209736.79,,13,that
screen,html.Screen,2_1_0_1_14,2022-05-03T18:02:11.728Z,,,,,,,,,,,,,,,,,53,,,,,,,,,,,,,,225.8100000238337,,response,,,,99,,,,,,,Space,keypress(Space),,,,,,,,---- -- ----- -- ------ - ------- --- ----------<br>------------- ------ ------ ---- ---- feeling ----- -- ----<br>-------- ------- -- ---------- --- - --- ----- ----- ----<br>---- --- --- ----- --- ---- ---- ------- ----- ---- -------<br>--- --- -- ----- -- --- ---- -- --- ---- -- ------ ------<br>--- ----- -- ----,209963.80000007153,209962.60000002384,209720.119,209723.40000009537,209736.79,209969.905,,14,feeling
screen,html.Screen,2_1_0_1_15,2022-05-03T18:02:12.228Z,,,,,,,,,,,,,,,,,53,,,,,,,,,,,,,,493.09500000000116,,response,,,,99,,,,,,,Space,keypress(Space),,,,,,,,---- -- ----- -- ------ - ------- --- ----------<br>------------- ------ ------ ---- ---- ------- close -- ----<br>-------- ------- -- ---------- --- - --- ----- ----- ----<br>---- --- --- ----- --- ---- ---- ------- ----- ---- -------<br>--- --- -- ----- -- --- ---- -- --- ---- -- ------ ------<br>--- ----- -- ----,210464.5,210463,209953.313,209964.60000002384,209969.905,210469.883,,15,close
screen,html.Screen,2_1_0_1_16,2022-05-03T18:02:12.573Z,,,,,,,,,,,,,,,,,53,,,,,,,,,,,,,,338.2170000238402,,response,,,,99,,,,,,,Space,keypress(Space),,,,,,,,---- -- ----- -- ------ - ------- --- ----------<br>------------- ------ ------ ---- ---- ------- ----- to ----<br>-------- ------- -- ---------- --- - --- ----- ----- ----<br>---- --- --- ----- --- ---- ---- ------- ----- ---- -------<br>--- --- -- ----- -- --- ---- -- --- ---- -- ------ ------<br>--- ----- -- ----,210809.10000002384,210808.10000002384,210453.2,210464.80000007153,210469.883,210819.878,,16,to
screen,html.Screen,2_1_0_1_17,2022-05-03T18:02:12.953Z,,,,,,,,,,,,,,,,,53,,,,,,,,,,,,,,368.32200004768674,,response,,,,99,,,,,,,Space,keypress(Space),,,,,,,,---- -- ----- -- ------ - ------- --- ----------<br>------------- ------ ------ ---- ---- ------- ----- -- your<br>-------- ------- -- ---------- --- - --- ----- ----- ----<br>---- --- --- ----- --- ---- ---- ------- ----- ---- -------<br>--- --- -- ----- -- --- ---- -- --- ---- -- ------ ------<br>--- ----- -- ----,211189.20000004768,211188.20000004768,210803.317,210809.40000009537,210819.878,211203.24,,17,your
screen,html.Screen,2_1_0_1_18,2022-05-03T18:02:13.347Z,,,,,,,,,,,,,,,,,53,,,,,,,,,,,,,,379.36000002385117,,response,,,,99,,,,,,,Space,keypress(Space),,,,,,,,---- -- ----- -- ------ - ------- --- ----------<br>------------- ------ ------ ---- ---- ------- ----- -- ----<br>romantic ------- -- ---------- --- - --- ----- ----- ----<br>---- --- --- ----- --- ---- ---- ------- ----- ---- -------<br>--- --- -- ----- -- --- ---- -- --- ---- -- ------ ------<br>--- ----- -- ----,211583.20000004768,211582.60000002384,211186.637,211189.5,211203.24,211586.46,,18,romantic
screen,html.Screen,2_1_0_1_19,2022-05-03T18:02:13.730Z,,,,,,,,,,,,,,,,,53,,,,,,,,,,,,,,378.24000004769186,,response,,,,99,,,,,,,Space,keypress(Space),,,,,,,,---- -- ----- -- ------ - ------- --- ----------<br>------------- ------ ------ ---- ---- ------- ----- -- ----<br>-------- partner -- ---------- --- - --- ----- ----- ----<br>---- --- --- ----- --- ---- ---- ------- ----- ---- -------<br>--- --- -- ----- -- --- ---- -- --- ---- -- ------ ------<br>--- ----- -- ----,211965.80000007153,211964.70000004768,211569.905,211583.40000009537,211586.46,211969.787,,19,partner
screen,html.Screen,2_1_0_1_20,2022-05-03T18:02:14.033Z,,,,,,,,,,,,,,,,,53,,,,,,,,,,,,,,298.0130000715144,,response,,,,99,,,,,,,Space,keypress(Space),,,,,,,,---- -- ----- -- ------ - ------- --- ----------<br>------------- ------ ------ ---- ---- ------- ----- -- ----<br>-------- ------- is ---------- --- - --- ----- ----- ----<br>---- --- --- ----- --- ---- ---- ------- ----- ---- -------<br>--- --- -- ----- -- --- ---- -- --- ---- -- ------ ------<br>--- ----- -- ----,212268.90000009537,212267.80000007153,211953.335,211966.10000002384,211969.787,212303.282,,20,is
screen,html.Screen,2_1_0_1_21,2022-05-03T18:02:14.362Z,,,,,,,,,,,,,,,,,53,,,,,,,,,,,,,,293.4180000476772,,response,,,,99,,,,,,,Space,keypress(Space),,,,,,,,---- -- ----- -- ------ - ------- --- ----------<br>------------- ------ ------ ---- ---- ------- ----- -- ----<br>-------- ------- -- paramount. --- - --- ----- ----- ----<br>---- --- --- ----- --- ---- ---- ------- ----- ---- -------<br>--- --- -- ----- -- --- ---- -- --- ---- -- ------ ------<br>--- ----- -- ----,212597.90000009537,212596.70000004768,212286.466,212269.10000002384,212303.282,212603.076,,21,paramount.
screen,html.Screen,2_1_0_1_22,2022-05-03T18:02:14.879Z,,,,,,,,,,,,,,,,,53,,,,,,,,,,,,,,510.92399999999907,,response,,,,99,,,,,,,Space,keypress(Space),,,,,,,,---- -- ----- -- ------ - ------- --- ----------<br>------------- ------ ------ ---- ---- ------- ----- -- ----<br>-------- ------- -- ---------- But - --- ----- ----- ----<br>---- --- --- ----- --- ---- ---- ------- ----- ---- -------<br>--- --- -- ----- -- --- ---- -- --- ---- -- ------ ------<br>--- ----- -- ----,213115.10000002384,213114,212586.569,212598.20000004768,212603.076,213119.753,,22,But
screen,html.Screen,2_1_0_1_23,2022-05-03T18:02:15.213Z,,,,,,,,,,,,,,,,,53,,,,,,,,,,,,,,327.94700004768674,,response,,,,99,,,,,,,Space,keypress(Space),,,,,,,,---- -- ----- -- ------ - ------- --- ----------<br>------------- ------ ------ ---- ---- ------- ----- -- ----<br>-------- ------- -- ---------- --- a --- ----- ----- ----<br>---- --- --- ----- --- ---- ---- ------- ----- ---- -------<br>--- --- -- ----- -- --- ---- -- --- ---- -- ------ ------<br>--- ----- -- ----,213448.80000007153,213447.70000004768,213103.063,213115.20000004768,213119.753,213453.054,,23,a
screen,html.Screen,2_1_0_1_24,2022-05-03T18:02:15.672Z,,,,,,,,,,,,,,,,,53,,,,,,,,,,,,,,453.74600007152185,,response,,,,99,,,,,,,Space,keypress(Space),,,,,,,,---- -- ----- -- ------ - ------- --- ----------<br>------------- ------ ------ ---- ---- ------- ----- -- ----<br>-------- ------- -- ---------- --- - new ----- ----- ----<br>---- --- --- ----- --- ---- ---- ------- ----- ---- -------<br>--- --- -- ----- -- --- ---- -- --- ---- -- ------ ------<br>--- ----- -- ----,213907.90000009537,213906.80000007153,213436.56,213449.10000002384,213453.054,213919.79,,24,new
screen,html.Screen,2_1_0_1_25,2022-05-03T18:02:16.074Z,,,,,,,,,,,,,,,,,53,,,,,,,,,,,,,,389.20999999999185,,response,,,,99,,,,,,,Space,keypress(Space),,,,,,,,---- -- ----- -- ------ - ------- --- ----------<br>------------- ------ ------ ---- ---- ------- ----- -- ----<br>-------- ------- -- ---------- --- - --- study ----- ----<br>---- --- --- ----- --- ---- ---- ------- ----- ---- -------<br>--- --- -- ----- -- --- ---- -- --- ---- -- ------ ------<br>--- ----- -- ----,214310.10000002384,214309,213903.074,213908.20000004768,213919.79,214319.69,,25,study
screen,html.Screen,2_1_0_1_26,2022-05-03T18:02:16.419Z,,,,,,,,,,,,,,,,,53,,,,,,,,,,,,,,332.2100000953651,,response,,,,99,,,,,,,Space,keypress(Space),,,,,,,,---- -- ----- -- ------ - ------- --- ----------<br>------------- ------ ------ ---- ---- ------- ----- -- ----<br>-------- ------- -- ---------- --- - --- ----- finds ----<br>---- --- --- ----- --- ---- ---- ------- ----- ---- -------<br>--- --- -- ----- -- --- ---- -- --- ---- -- ------ ------<br>--- ----- -- ----,214655.60000002384,214651.90000009537,214303.141,214310.5,214319.69,214669.657,,26,finds
screen,html.Screen,2_1_0_1_27,2022-05-03T18:02:16.764Z,,,,,,,,,,,,,,,,,53,,,,,,,,,,,,,,329.3429999999935,,response,,,,99,,,,,,,Space,keypress(Space),,,,,,,,---- -- ----- -- ------ - ------- --- ----------<br>------------- ------ ------ ---- ---- ------- ----- -- ----<br>-------- ------- -- ---------- --- - --- ----- ----- that<br>---- --- --- ----- --- ---- ---- ------- ----- ---- -------<br>--- --- -- ----- -- --- ---- -- --- ---- -- ------ ------<br>--- ----- -- ----,215000.10000002384,214999,214653.142,214655.90000009537,214669.657,215002.992,,27,that
screen,html.Screen,2_1_0_1_28,2022-05-03T18:02:17.091Z,,,,,,,,,,,,,,,,,53,,,,,,,,,,,,,,323.3080000715272,,response,,,,99,,,,,,,Space,keypress(Space),,,,,,,,---- -- ----- -- ------ - ------- --- ----------<br>------------- ------ ------ ---- ---- ------- ----- -- ----<br>-------- ------- -- ---------- --- - --- ----- ----- ----<br>it's --- --- ----- --- ---- ---- ------- ----- ---- -------<br>--- --- -- ----- -- --- ---- -- --- ---- -- ------ ------<br>--- ----- -- ----,215327.30000007153,215326.30000007153,214986.408,215000.40000009537,215002.992,215336.375,,28,it's
screen,html.Screen,2_1_0_1_29,2022-05-03T18:02:17.396Z,,,,,,,,,,,,,,,,,53,,,,,,,,,,,,,,294.125,,response,,,,99,,,,,,,Space,keypress(Space),,,,,,,,---- -- ----- -- ------ - ------- --- ----------<br>------------- ------ ------ ---- ---- ------- ----- -- ----<br>-------- ------- -- ---------- --- - --- ----- ----- ----<br>---- not --- ----- --- ---- ---- ------- ----- ---- -------<br>--- --- -- ----- -- --- ---- -- --- ---- -- ------ ------<br>--- ----- -- ----,215631.80000007153,215630.5,215319.818,215327.60000002384,215336.375,215636.22,,29,not
screen,html.Screen,2_1_0_1_30,2022-05-03T18:02:17.650Z,,,,,,,,,,,,,,,,,53,,,,,,,,,,,,,,248.3800000238407,,response,,,,99,,,,,,,Space,keypress(Space),,,,,,,,---- -- ----- -- ------ - ------- --- ----------<br>------------- ------ ------ ---- ---- ------- ----- -- ----<br>-------- ------- -- ---------- --- - --- ----- ----- ----<br>---- --- how ----- --- ---- ---- ------- ----- ---- -------<br>--- --- -- ----- -- --- ---- -- --- ---- -- ------ ------<br>--- ----- -- ----,215885.70000004768,215884.60000002384,215619.798,215632,215636.22,215903.195,,30,how
screen,html.Screen,2_1_0_1_31,2022-05-03T18:02:17.973Z,,,,,,,,,,,,,,,,,53,,,,,,,,,,,,,,305.00500004767673,,response,,,,99,,,,,,,Space,keypress(Space),,,,,,,,---- -- ----- -- ------ - ------- --- ----------<br>------------- ------ ------ ---- ---- ------- ----- -- ----<br>-------- ------- -- ---------- --- - --- ----- ----- ----<br>---- --- --- close --- ---- ---- ------- ----- ---- -------<br>--- --- -- ----- -- --- ---- -- --- ---- -- ------ ------<br>--- ----- -- ----,216209.30000007153,216208.20000004768,215886.428,215886,215903.195,216219.59,,31,close
screen,html.Screen,2_1_0_1_32,2022-05-03T18:02:18.275Z,,,,,,,,,,,,,,,,,53,,,,,,,,,,,,,,290.71000007152907,,response,,,,99,,,,,,,Space,keypress(Space),,,,,,,,---- -- ----- -- ------ - ------- --- ----------<br>------------- ------ ------ ---- ---- ------- ----- -- ----<br>-------- ------- -- ---------- --- - --- ----- ----- ----<br>---- --- --- ----- you ---- ---- ------- ----- ---- -------<br>--- --- -- ----- -- --- ---- -- --- ---- -- ------ ------<br>--- ----- -- ----,216511.20000004768,216510.30000007153,216203.025,216209.5,216219.59,216519.544,,32,you
screen,html.Screen,2_1_0_1_33,2022-05-03T18:02:18.516Z,,,,,,,,,,,,,,,,,53,,,,,,,,,,,,,,231.4560000000056,,response,,,,99,,,,,,,Space,keypress(Space),,,,,,,,---- -- ----- -- ------ - ------- --- ----------<br>------------- ------ ------ ---- ---- ------- ----- -- ----<br>-------- ------- -- ---------- --- - --- ----- ----- ----<br>---- --- --- ----- --- feel ---- ------- ----- ---- -------<br>--- --- -- ----- -- --- ---- -- --- ---- -- ------ ------<br>--- ----- -- ----,216752.40000009537,216751,216503.031,216511.40000009537,216519.544,216769.766,,33,feel
screen,html.Screen,2_1_0_1_34,2022-05-03T18:02:18.841Z,,,,,,,,,,,,,,,,,53,,,,,,,,,,,,,,306.3340000238386,,response,,,,99,,,,,,,Space,keypress(Space),,,,,,,,---- -- ----- -- ------ - ------- --- ----------<br>------------- ------ ------ ---- ---- ------- ----- -- ----<br>-------- ------- -- ---------- --- - --- ----- ----- ----<br>---- --- --- ----- --- ---- that ------- ----- ---- -------<br>--- --- -- ----- -- --- ---- -- --- ---- -- ------ ------<br>--- ----- -- ----,217077.30000007153,217076.10000002384,216753.002,216752.60000002384,216769.766,217086.222,,34,that
screen,html.Screen,2_1_0_1_35,2022-05-03T18:02:19.190Z,,,,,,,,,,,,,,,,,53,,,,,,,,,,,,,,339.27799999999115,,response,,,,99,,,,,,,Space,keypress(Space),,,,,,,,---- -- ----- -- ------ - ------- --- ----------<br>------------- ------ ------ ---- ---- ------- ----- -- ----<br>-------- ------- -- ---------- --- - --- ----- ----- ----<br>---- --- --- ----- --- ---- ---- matters ----- ---- -------<br>--- --- -- ----- -- --- ---- -- --- ---- -- ------ ------<br>--- ----- -- ----,217426.70000004768,217425.5,217069.737,217077.60000002384,217086.222,217436.265,,35,matters
screen,html.Screen,2_1_0_1_36,2022-05-03T18:02:19.581Z,,,,,,,,,,,,,,,,,53,,,,,,,,,,,,,,380.23499999998603,,response,,,,99,,,,,,,Space,keypress(Space),,,,,,,,"---- -- ----- -- ------ - ------- --- ----------<br>------------- ------ ------ ---- ---- ------- ----- -- ----<br>-------- ------- -- ---------- --- - --- ----- ----- ----<br>---- --- --- ----- --- ---- ---- ------- most, ---- -------<br>--- --- -- ----- -- --- ---- -- --- ---- -- ------ ------<br>--- ----- -- ----",217817.60000002384,217816.5,217419.725,217426.90000009537,217436.265,217840.671,,36,"most,"
screen,html.Screen,2_1_0_1_37,2022-05-03T18:02:19.893Z,,,,,,,,,,,,,,,,,53,,,,,,,,,,,,,,285.42900002383976,,response,,,,99,,,,,,,Space,keypress(Space),,,,,,,,---- -- ----- -- ------ - ------- --- ----------<br>------------- ------ ------ ---- ---- ------- ----- -- ----<br>-------- ------- -- ---------- --- - --- ----- ----- ----<br>---- --- --- ----- --- ---- ---- ------- ----- it's -------<br>--- --- -- ----- -- --- ---- -- --- ---- -- ------ ------<br>--- ----- -- ----,218129.10000002384,218126.10000002384,217802.934,217817.90000009537,217840.671,218136.182,,37,it's
screen,html.Screen,2_1_0_1_38,2022-05-03T18:02:20.253Z,,,,,,,,,,,,,,,,,53,,,,,,,,,,,,,,351.71800009536673,,response,,,,99,,,,,,,Space,keypress(Space),,,,,,,,---- -- ----- -- ------ - ------- --- ----------<br>------------- ------ ------ ---- ---- ------- ----- -- ----<br>-------- ------- -- ---------- --- - --- ----- ----- ----<br>---- --- --- ----- --- ---- ---- ------- ----- ---- whether<br>--- --- -- ----- -- --- ---- -- --- ---- -- ------ ------<br>--- ----- -- ----,218489.10000002384,218487.90000009537,218119.719,218129.30000007153,218136.182,218502.988,,38,whether
screen,html.Screen,2_1_0_1_39,2022-05-03T18:02:20.581Z,,,,,,,,,,,,,,,,,53,,,,,,,,,,,,,,312.81200007151347,,response,,,,99,,,,,,,Space,keypress(Space),,,,,,,,---- -- ----- -- ------ - ------- --- ----------<br>------------- ------ ------ ---- ---- ------- ----- -- ----<br>-------- ------- -- ---------- --- - --- ----- ----- ----<br>---- --- --- ----- --- ---- ---- ------- ----- ---- -------<br>you --- -- ----- -- --- ---- -- --- ---- -- ------ ------<br>--- ----- -- ----,218817,218815.80000007153,218486.215,218489.30000007153,218502.988,218819.465,,39,you
screen,html.Screen,2_1_0_1_40,2022-05-03T18:02:20.849Z,,,,,,,,,,,,,,,,,53,,,,,,,,,,,,,,264.33500007152907,,response,,,,99,,,,,,,Space,keypress(Space),,,,,,,,---- -- ----- -- ------ - ------- --- ----------<br>------------- ------ ------ ---- ---- ------- ----- -- ----<br>-------- ------- -- ---------- --- - --- ----- ----- ----<br>---- --- --- ----- --- ---- ---- ------- ----- ---- -------<br>--- are -- ----- -- --- ---- -- --- ---- -- ------ ------<br>--- ----- -- ----,219084.80000007153,219083.80000007153,218802.808,218817.30000007153,218819.465,219110.557,,40,are
screen,html.Screen,2_1_0_1_41,2022-05-03T18:02:21.212Z,,,,,,,,,,,,,,,,,53,,,,,,,,,,,,,,336.54300002384116,,response,,,,99,,,,,,,Space,keypress(Space),,,,,,,,---- -- ----- -- ------ - ------- --- ----------<br>------------- ------ ------ ---- ---- ------- ----- -- ----<br>-------- ------- -- ---------- --- - --- ----- ----- ----<br>---- --- --- ----- --- ---- ---- ------- ----- ---- -------<br>--- --- as ----- -- --- ---- -- --- ---- -- ------ ------<br>--- ----- -- ----,219448.30000007153,219447.10000002384,219069.551,219085.10000002384,219110.557,219452.75,,41,as
screen,html.Screen,2_1_0_1_42,2022-05-03T18:02:21.454Z,,,,,,,,,,,,,,,,,53,,,,,,,,,,,,,,236.75,,response,,,,99,,,,,,,Space,keypress(Space),,,,,,,,---- -- ----- -- ------ - ------- --- ----------<br>------------- ------ ------ ---- ---- ------- ----- -- ----<br>-------- ------- -- ---------- --- - --- ----- ----- ----<br>---- --- --- ----- --- ---- ---- ------- ----- ---- -------<br>--- --- -- close -- --- ---- -- --- ---- -- ------ ------<br>--- ----- -- ----,219690.60000002384,219689.5,219436.145,219448.60000002384,219452.75,219702.755,,42,close
screen,html.Screen,2_1_0_1_43,2022-05-03T18:02:21.742Z,,,,,,,,,,,,,,,,,53,,,,,,,,,,,,,,274.8450000238372,,response,,,,99,,,,,,,Space,keypress(Space),,,,,,,,---- -- ----- -- ------ - ------- --- ----------<br>------------- ------ ------ ---- ---- ------- ----- -- ----<br>-------- ------- -- ---------- --- - --- ----- ----- ----<br>---- --- --- ----- --- ---- ---- ------- ----- ---- -------<br>--- --- -- ----- as --- ---- -- --- ---- -- ------ ------<br>--- ----- -- ----,219978.30000007153,219977.60000002384,219686.244,219690.80000007153,219702.755,219986.08,,43,as
screen,html.Screen,2_1_0_1_44,2022-05-03T18:02:22.009Z,,,,,,,,,,,,,,,,,53,,,,,,,,,,,,,,257.9200000000128,,response,,,,99,,,,,,,Space,keypress(Space),,,,,,,,---- -- ----- -- ------ - ------- --- ----------<br>------------- ------ ------ ---- ---- ------- ----- -- ----<br>-------- ------- -- ---------- --- - --- ----- ----- ----<br>---- --- --- ----- --- ---- ---- ------- ----- ---- -------<br>--- --- -- ----- -- you ---- -- --- ---- -- ------ ------<br>--- ----- -- ----,220245,220244,219969.645,219978.5,219986.08,220252.687,,44,you
screen,html.Screen,2_1_0_1_45,2022-05-03T18:02:22.292Z,,,,,,,,,,,,,,,,,53,,,,,,,,,,,,,,274.51300004767836,,response,,,,99,,,,,,,Space,keypress(Space),,,,,,,,---- -- ----- -- ------ - ------- --- ----------<br>------------- ------ ------ ---- ---- ------- ----- -- ----<br>-------- ------- -- ---------- --- - --- ----- ----- ----<br>---- --- --- ----- --- ---- ---- ------- ----- ---- -------<br>--- --- -- ----- -- --- want -- --- ---- -- ------ ------<br>--- ----- -- ----,220528,220527.20000004768,220235.992,220245.10000002384,220252.687,220536.02,,45,want
screen,html.Screen,2_1_0_1_46,2022-05-03T18:02:22.577Z,,,,,,,,,,,,,,,,,53,,,,,,,,,,,,,,276.1800000476942,,response,,,,99,,,,,,,Space,keypress(Space),,,,,,,,---- -- ----- -- ------ - ------- --- ----------<br>------------- ------ ------ ---- ---- ------- ----- -- ----<br>-------- ------- -- ---------- --- - --- ----- ----- ----<br>---- --- --- ----- --- ---- ---- ------- ----- ---- -------<br>--- --- -- ----- -- --- ---- to --- ---- -- ------ ------<br>--- ----- -- ----,220812.80000007153,220812.20000004768,220519.328,220528.10000002384,220536.02,220819.307,,46,to
screen,html.Screen,2_1_0_1_47,2022-05-03T18:02:22.889Z,,,,,,,,,,,,,,,,,53,,,,,,,,,,,,,,304.6929999999993,,response,,,,99,,,,,,,Space,keypress(Space),,,,,,,,"---- -- ----- -- ------ - ------- --- ----------<br>------------- ------ ------ ---- ---- ------- ----- -- ----<br>-------- ------- -- ---------- --- - --- ----- ----- ----<br>---- --- --- ----- --- ---- ---- ------- ----- ---- -------<br>--- --- -- ----- -- --- ---- -- be, ---- -- ------ ------<br>--- ----- -- ----",221125.5,221124,220802.622,220812.90000009537,220819.307,221135.99,,47,"be,"
screen,html.Screen,2_1_0_1_48,2022-05-03T18:02:23.176Z,,,,,,,,,,,,,,,,,53,,,,,,,,,,,,,,275.5100000000093,,response,,,,99,,,,,,,Space,keypress(Space),,,,,,,,---- -- ----- -- ------ - ------- --- ----------<br>------------- ------ ------ ---- ---- ------- ----- -- ----<br>-------- ------- -- ---------- --- - --- ----- ----- ----<br>---- --- --- ----- --- ---- ---- ------- ----- ---- -------<br>--- --- -- ----- -- --- ---- -- --- even -- ------ ------<br>--- ----- -- ----,221412.30000007153,221411.5,221119.274,221125.80000007153,221135.99,221419.336,,48,even
screen,html.Screen,2_1_0_1_49,2022-05-03T18:02:23.477Z,,,,,,,,,,,,,,,,,53,,,,,,,,,,,,,,292.96400007151533,,response,,,,99,,,,,,,Space,keypress(Space),,,,,,,,---- -- ----- -- ------ - ------- --- ----------<br>------------- ------ ------ ---- ---- ------- ----- -- ----<br>-------- ------- -- ---------- --- - --- ----- ----- ----<br>---- --- --- ----- --- ---- ---- ------- ----- ---- -------<br>--- --- -- ----- -- --- ---- -- --- ---- if ------ ------<br>--- ----- -- ----,221713.20000004768,221712.30000007153,221402.654,221412.5,221419.336,221719.281,,49,if
screen,html.Screen,2_1_0_1_50,2022-05-03T18:02:23.760Z,,,,,,,,,,,,,,,,,53,,,,,,,,,,,,,,276.2190000000119,,response,,,,99,,,,,,,Space,keypress(Space),,,,,,,,---- -- ----- -- ------ - ------- --- ----------<br>------------- ------ ------ ---- ---- ------- ----- -- ----<br>-------- ------- -- ---------- --- - --- ----- ----- ----<br>---- --- --- ----- --- ---- ---- ------- ----- ---- -------<br>--- --- -- ----- -- --- ---- -- --- ---- -- that's ------<br>--- ----- -- ----,221996.40000009537,221995.5,221702.614,221713.30000007153,221719.281,222002.58,,50,that's
screen,html.Screen,2_1_0_1_51,2022-05-03T18:02:24.086Z,,,,,,,,,,,,,,,,,53,,,,,,,,,,,,,,318.02000002385466,,response,,,,99,,,,,,,Space,keypress(Space),,,,,,,,---- -- ----- -- ------ - ------- --- ----------<br>------------- ------ ------ ---- ---- ------- ----- -- ----<br>-------- ------- -- ---------- --- - --- ----- ----- ----<br>---- --- --- ----- --- ---- ---- ------- ----- ---- -------<br>--- --- -- ----- -- --- ---- -- --- ---- -- ------ really<br>--- ----- -- ----,222321.80000007153,222320.60000002384,221985.893,221996.5,222002.58,222335.923,,51,really
screen,html.Screen,2_1_0_1_52,2022-05-03T18:02:24.422Z,,,,,,,,,,,,,,,,,53,,,,,,,,,,,,,,320.47700009535765,,response,,,,99,,,,,,,Space,keypress(Space),,,,,,,,---- -- ----- -- ------ - ------- --- ----------<br>------------- ------ ------ ---- ---- ------- ----- -- ----<br>-------- ------- -- ---------- --- - --- ----- ----- ----<br>---- --- --- ----- --- ---- ---- ------- ----- ---- -------<br>--- --- -- ----- -- --- ---- -- --- ---- -- ------ ------<br>not ----- -- ----,222657.70000004768,222656.40000009537,222319.239,222322.10000002384,222335.923,222669.342,,52,not
screen,html.Screen,2_1_0_1_53,2022-05-03T18:02:24.757Z,,,,,,,,,,,,,,,,,53,,,,,,,,,,,,,,322.3580000476795,,response,,,,99,,,,,,,Space,keypress(Space),,,,,,,,---- -- ----- -- ------ - ------- --- ----------<br>------------- ------ ------ ---- ---- ------- ----- -- ----<br>-------- ------- -- ---------- --- - --- ----- ----- ----<br>---- --- --- ----- --- ---- ---- ------- ----- ---- -------<br>--- --- -- ----- -- --- ---- -- --- ---- -- ------ ------<br>--- close -- ----,222993.10000002384,222991.70000004768,222652.585,222658,222669.342,223002.603,,53,close
screen,html.Screen,2_1_0_1_54,2022-05-03T18:02:25.117Z,,,,,,,,,,,,,,,,,53,,,,,,,,,,,,,,349.79700009536464,,response,,,,99,,,,,,,Space,keypress(Space),,,,,,,,---- -- ----- -- ------ - ------- --- ----------<br>------------- ------ ------ ---- ---- ------- ----- -- ----<br>-------- ------- -- ---------- --- - --- ----- ----- ----<br>---- --- --- ----- --- ---- ---- ------- ----- ---- -------<br>--- --- -- ----- -- --- ---- -- --- ---- -- ------ ------<br>--- ----- at ----,223353.40000009537,223352.40000009537,222986.073,222993.30000007153,223002.603,223369.223,,54,at
screen,html.Screen,2_1_0_1_55,2022-05-03T18:02:25.973Z,,,,,,,,,,,,,,,,,53,,,,,,,,,,,,,,838.9770000476856,,response,,,,99,,,,,,,Space,keypress(Space),,,,,,,,---- -- ----- -- ------ - ------- --- ----------<br>------------- ------ ------ ---- ---- ------- ----- -- ----<br>-------- ------- -- ---------- --- - --- ----- ----- ----<br>---- --- --- ----- --- ---- ---- ------- ----- ---- -------<br>--- --- -- ----- -- --- ---- -- --- ---- -- ------ ------<br>--- ----- -- all.,224209.60000002384,224208.20000004768,223352.815,223353.5,223369.223,224235.884,,55,all.
Item 99,flow.Loop,2_1_0_1,2022-05-03T18:02:25.974Z,,,,,,,,,,,,,,,,,,,,,,,,,,,,,,,19871.370000047697,,completion,,,,,A,,,,,,,,,,,silence,,,,,224210.20000004768,224208.20000004768,204253.665,204255.60000002384,204336.83,224235.884,,,
Question 1,html.Screen,2_1_0_2,2022-05-03T18:02:30.802Z,,,,,,,,,,,,,,,,,,,,,,,,,,,,true,FALSE,,4801.0160000953765,,response,,,,99,A,,,,,,FALSE,click #choice-2,,,,silence,,,,,229038.60000002384,229036.90000009537,224202.458,224210.40000009537,224235.884,229052.284,,,
Question 2,html.Screen,2_1_0_3,2022-05-03T18:02:35.024Z,,,,,,,,,,,,,,,,,,,,,,,,,,,,true,TRUE,,4206.016000071511,,response,,,,99,A,,,,,,TRUE,click #choice-1,,,,silence,,,,,233260,233258.30000007153,229035.868,229038.80000007153,229052.284,233268.772,,,
Item 99,flow.Sequence,2_1_0,2022-05-03T18:02:35.024Z,,,,,,,,,,,,,,,,,,,,,,,,,,,,,,,38987.54800007152,,completion,,,,,,,,,,,,,,,,,,,,,233260.30000007153,233258.30000007153,194237.492,194247.80000007153,194270.752,233268.772,,,
Holding screen,html.Screen,2_1_1_0,2022-05-03T18:02:45.016Z,,,,,,,,,,,,,,,,,,,,,,,,,,,,,,,9999.434999999998,,timeout,,,,,,,,,,,,,,,,,,,,,243252.70000004768,243251.646,233252.07,233260.5,233268.772,243268.207,,,
screen,html.Screen,2_1_1_1_0,2022-05-03T18:02:45.820Z,,,,,,,,,,,,,,,,,54,,,,,,,,,,,,,,786.5930000715307,,response,,,,100,,,,,,,Space,keypress(Space),,,,,,,,At --- ---- --- ------ ----- ------- ---- -- --- ------- --<br>------- ---------- ------ -- ----- -- ----- -- ---- ------<br>--- ----- --- --- ------ -------- ----- --- ------ ----- --<br>----- ----- ---------- --- --- ------ ------ ---- -- ------<br>------- --- ------ ----- --- ---- ------- -- ---- --- --<br>------- ------,244055.90000009537,244054.80000007153,243251.646,243253,243268.207,244068.165,,0,At
screen,html.Screen,2_1_1_1_1,2022-05-03T18:02:46.195Z,,,,,,,,,,,,,,,,,54,,,,,,,,,,,,,,362.33499999999185,,response,,,,100,,,,,,,Space,keypress(Space),,,,,,,,-- the ---- --- ------ ----- ------- ---- -- --- ------- --<br>------- ---------- ------ -- ----- -- ----- -- ---- ------<br>--- ----- --- --- ------ -------- ----- --- ------ ----- --<br>----- ----- ---------- --- --- ------ ------ ---- -- ------<br>------- --- ------ ----- --- ---- ------- -- ---- --- --<br>------- ------,244431.5,244430.5,244051.491,244056.10000002384,244068.165,244434.839,,1,the
screen,html.Screen,2_1_1_1_2,2022-05-03T18:02:46.434Z,,,,,,,,,,,,,,,,,54,,,,,,,,,,,,,,234.46100007151836,,response,,,,100,,,,,,,Space,keypress(Space),,,,,,,,-- --- time --- ------ ----- ------- ---- -- --- ------- --<br>------- ---------- ------ -- ----- -- ----- -- ---- ------<br>--- ----- --- --- ------ -------- ----- --- ------ ----- --<br>----- ----- ---------- --- --- ------ ------ ---- -- ------<br>------- --- ------ ----- --- ---- ------- -- ---- --- --<br>------- ------,244670.40000009537,244669.30000007153,244418.323,244431.80000007153,244434.839,244684.82,,2,time
screen,html.Screen,2_1_1_1_3,2022-05-03T18:02:46.643Z,,,,,,,,,,,,,,,,,54,,,,,,,,,,,,,,192.67999999999302,,response,,,,100,,,,,,,Space,keypress(Space),,,,,,,,-- --- ---- the ------ ----- ------- ---- -- --- ------- --<br>------- ---------- ------ -- ----- -- ----- -- ---- ------<br>--- ----- --- --- ------ -------- ----- --- ------ ----- --<br>----- ----- ---------- --- --- ------ ------ ---- -- ------<br>------- --- ------ ----- --- ---- ------- -- ---- --- --<br>------- ------,244878.70000004768,244877.5,244668.361,244670.60000002384,244684.82,244884.782,,3,the
screen,html.Screen,2_1_1_1_4,2022-05-03T18:02:46.896Z,,,,,,,,,,,,,,,,,54,,,,,,,,,,,,,,246.51800007151905,,response,,,,100,,,,,,,Space,keypress(Space),,,,,,,,-- --- ---- --- French ----- ------- ---- -- --- ------- --<br>------- ---------- ------ -- ----- -- ----- -- ---- ------<br>--- ----- --- --- ------ -------- ----- --- ------ ----- --<br>----- ----- ---------- --- --- ------ ------ ---- -- ------<br>------- --- ------ ----- --- ---- ------- -- ---- --- --<br>------- ------,245132.40000009537,245131.30000007153,244868.231,244879.10000002384,244884.782,245134.785,,4,French
screen,html.Screen,2_1_1_1_5,2022-05-03T18:02:47.137Z,,,,,,,,,,,,,,,,,54,,,,,,,,,,,,,,236.91500004768022,,response,,,,100,,,,,,,Space,keypress(Space),,,,,,,,-- --- ---- --- ------ crown ------- ---- -- --- ------- --<br>------- ---------- ------ -- ----- -- ----- -- ---- ------<br>--- ----- --- --- ------ -------- ----- --- ------ ----- --<br>----- ----- ---------- --- --- ------ ------ ---- -- ------<br>------- --- ------ ----- --- ---- ------- -- ---- --- --<br>------- ------,245373,245371.70000004768,245118.114,245132.70000004768,245134.785,245384.774,,5,crown
screen,html.Screen,2_1_1_1_6,2022-05-03T18:02:47.410Z,,,,,,,,,,,,,,,,,54,,,,,,,,,,,,,,260.7259999999951,,response,,,,100,,,,,,,Space,keypress(Space),,,,,,,,-- --- ---- --- ------ ----- secured ---- -- --- ------- --<br>------- ---------- ------ -- ----- -- ----- -- ---- ------<br>--- ----- --- --- ------ -------- ----- --- ------ ----- --<br>----- ----- ---------- --- --- ------ ------ ---- -- ------<br>------- --- ------ ----- --- ---- ------- -- ---- --- --<br>------- ------,245646.5,245645.5,245368.231,245373.40000009537,245384.774,245651.404,,6,secured
screen,html.Screen,2_1_1_1_7,2022-05-03T18:02:47.703Z,,,,,,,,,,,,,,,,,54,,,,,,,,,,,,,,286.4960000953579,,response,,,,100,,,,,,,Space,keypress(Space),,,,,,,,-- --- ---- --- ------ ----- ------- much -- --- ------- --<br>------- ---------- ------ -- ----- -- ----- -- ---- ------<br>--- ----- --- --- ------ -------- ----- --- ------ ----- --<br>----- ----- ---------- --- --- ------ ------ ---- -- ------<br>------- --- ------ ----- --- ---- ------- -- ---- --- --<br>------- ------,245939,245937.90000009537,245634.939,245646.80000007153,245651.404,245951.42,,7,much
screen,html.Screen,2_1_1_1_8,2022-05-03T18:02:48.013Z,,,,,,,,,,,,,,,,,54,,,,,,,,,,,,,,296.5799999999872,,response,,,,100,,,,,,,Space,keypress(Space),,,,,,,,-- --- ---- --- ------ ----- ------- ---- of --- ------- --<br>------- ---------- ------ -- ----- -- ----- -- ---- ------<br>--- ----- --- --- ------ -------- ----- --- ------ ----- --<br>----- ----- ---------- --- --- ------ ------ ---- -- ------<br>------- --- ------ ----- --- ---- ------- -- ---- --- --<br>------- ------,246249.30000007153,246248,245934.818,245939.20000004768,245951.42,246251.368,,8,of
screen,html.Screen,2_1_1_1_9,2022-05-03T18:02:48.412Z,,,,,,,,,,,,,,,,,54,,,,,,,,,,,,,,395.9320000715379,,response,,,,100,,,,,,,Space,keypress(Space),,,,,,,,-- --- ---- --- ------ ----- ------- ---- -- its ------- --<br>------- ---------- ------ -- ----- -- ----- -- ---- ------<br>--- ----- --- --- ------ -------- ----- --- ------ ----- --<br>----- ----- ---------- --- --- ------ ------ ---- -- ------<br>------- --- ------ ----- --- ---- ------- -- ---- --- --<br>------- ------,246648.70000004768,246647.30000007153,246234.786,246249.5,246251.368,246651.344,,9,its
screen,html.Screen,2_1_1_1_10,2022-05-03T18:02:48.660Z,,,,,,,,,,,,,,,,,54,,,,,,,,,,,,,,244.05600009535556,,response,,,,100,,,,,,,Space,keypress(Space),,,,,,,,-- --- ---- --- ------ ----- ------- ---- -- --- revenue --<br>------- ---------- ------ -- ----- -- ----- -- ---- ------<br>--- ----- --- --- ------ -------- ----- --- ------ ----- --<br>----- ----- ---------- --- --- ------ ------ ---- -- ------<br>------- --- ------ ----- --- ---- ------- -- ---- --- --<br>------- ------,246896.5,246895.40000009537,246634.755,246649,246651.344,246901.325,,10,revenue
screen,html.Screen,2_1_1_1_11,2022-05-03T18:02:49.054Z,,,,,,,,,,,,,,,,,54,,,,,,,,,,,,,,388.0750000953558,,response,,,,100,,,,,,,Space,keypress(Space),,,,,,,,-- --- ---- --- ------ ----- ------- ---- -- --- ------- by<br>------- ---------- ------ -- ----- -- ----- -- ---- ------<br>--- ----- --- --- ------ -------- ----- --- ------ ----- --<br>----- ----- ---------- --- --- ------ ------ ---- -- ------<br>------- --- ------ ----- --- ---- ------- -- ---- --- --<br>------- ------,247290.60000002384,247289.40000009537,246884.687,246896.70000004768,246901.325,247301.337,,11,by
screen,html.Screen,2_1_1_1_12,2022-05-03T18:02:49.359Z,,,,,,,,,,,,,,,,,54,,,,,,,,,,,,,,292.7630000238423,,response,,,,100,,,,,,,Space,keypress(Space),,,,,,,,-- --- ---- --- ------ ----- ------- ---- -- --- ------- --<br>issuing ---------- ------ -- ----- -- ----- -- ---- ------<br>--- ----- --- --- ------ -------- ----- --- ------ ----- --<br>----- ----- ---------- --- --- ------ ------ ---- -- ------<br>------- --- ------ ----- --- ---- ------- -- ---- --- --<br>------- ------,247595.30000007153,247594.10000002384,247284.76,247290.80000007153,247301.337,247601.302,,12,issuing
screen,html.Screen,2_1_1_1_13,2022-05-03T18:02:49.581Z,,,,,,,,,,,,,,,,,54,,,,,,,,,,,,,,215.0980000953714,,response,,,,100,,,,,,,Space,keypress(Space),,,,,,,,-- --- ---- --- ------ ----- ------- ---- -- --- ------- --<br>------- government ------ -- ----- -- ----- -- ---- ------<br>--- ----- --- --- ------ -------- ----- --- ------ ----- --<br>----- ----- ---------- --- --- ------ ------ ---- -- ------<br>------- --- ------ ----- --- ---- ------- -- ---- --- --<br>------- ------,247817.60000002384,247816.40000009537,247584.839,247595.5,247601.302,247834.755,,13,government
screen,html.Screen,2_1_1_1_14,2022-05-03T18:02:49.805Z,,,,,,,,,,,,,,,,,54,,,,,,,,,,,,,,204.74499999999534,,response,,,,100,,,,,,,Space,keypress(Space),,,,,,,,-- --- ---- --- ------ ----- ------- ---- -- --- ------- --<br>------- ---------- bonds. -- ----- -- ----- -- ---- ------<br>--- ----- --- --- ------ -------- ----- --- ------ ----- --<br>----- ----- ---------- --- --- ------ ------ ---- -- ------<br>------- --- ------ ----- --- ---- ------- -- ---- --- --<br>------- ------,248040.80000007153,248039.5,247817.973,247817.80000007153,247834.755,248051.295,,14,bonds.
screen,html.Screen,2_1_1_1_15,2022-05-03T18:02:50.122Z,,,,,,,,,,,,,,,,,54,,,,,,,,,,,,,,305.1050000953546,,response,,,,100,,,,,,,Space,keypress(Space),,,,,,,,-- --- ---- --- ------ ----- ------- ---- -- --- ------- --<br>------- ---------- ------ In ----- -- ----- -- ---- ------<br>--- ----- --- --- ------ -------- ----- --- ------ ----- --<br>----- ----- ---------- --- --- ------ ------ ---- -- ------<br>------- --- ------ ----- --- ---- ------- -- ---- --- --<br>------- ------,248358.60000002384,248356.40000009537,248034.761,248041,248051.295,248367.951,,15,In
screen,html.Screen,2_1_1_1_16,2022-05-03T18:02:50.463Z,,,,,,,,,,,,,,,,,54,,,,,,,,,,,,,,329.9490000953665,,response,,,,100,,,,,,,Space,keypress(Space),,,,,,,,"-- --- ---- --- ------ ----- ------- ---- -- --- ------- --<br>------- ---------- ------ -- 1727, -- ----- -- ---- ------<br>--- ----- --- --- ------ -------- ----- --- ------ ----- --<br>----- ----- ---------- --- --- ------ ------ ---- -- ------<br>------- --- ------ ----- --- ---- ------- -- ---- --- --<br>------- ------",248699.10000002384,248697.90000009537,248351.459,248358.80000007153,248367.951,248701.255,,16,"1727,"
screen,html.Screen,2_1_1_1_17,2022-05-03T18:02:51.277Z,,,,,,,,,,,,,,,,,54,,,,,,,,,,,,,,811.6450000953628,,response,,,,100,,,,,,,Space,keypress(Space),,,,,,,,-- --- ---- --- ------ ----- ------- ---- -- --- ------- --<br>------- ---------- ------ -- ----- in ----- -- ---- ------<br>--- ----- --- --- ------ -------- ----- --- ------ ----- --<br>----- ----- ---------- --- --- ------ ------ ---- -- ------<br>------- --- ------ ----- --- ---- ------- -- ---- --- --<br>------- ------,249513.70000004768,249512.90000009537,248684.884,248699.40000009537,248701.255,249517.867,,17,in
screen,html.Screen,2_1_1_1_18,2022-05-03T18:02:51.603Z,,,,,,,,,,,,,,,,,54,,,,,,,,,,,,,,319.83300004768535,,response,,,,100,,,,,,,Space,keypress(Space),,,,,,,,-- --- ---- --- ------ ----- ------- ---- -- --- ------- --<br>------- ---------- ------ -- ----- -- order -- ---- ------<br>--- ----- --- --- ------ -------- ----- --- ------ ----- --<br>----- ----- ---------- --- --- ------ ------ ---- -- ------<br>------- --- ------ ----- --- ---- ------- -- ---- --- --<br>------- ------,249838.90000009537,249837.70000004768,249501.306,249513.80000007153,249517.867,249851.226,,18,order
screen,html.Screen,2_1_1_1_19,2022-05-03T18:02:51.874Z,,,,,,,,,,,,,,,,,54,,,,,,,,,,,,,,258.07400007153046,,response,,,,100,,,,,,,Space,keypress(Space),,,,,,,,-- --- ---- --- ------ ----- ------- ---- -- --- ------- --<br>------- ---------- ------ -- ----- -- ----- to ---- ------<br>--- ----- --- --- ------ -------- ----- --- ------ ----- --<br>----- ----- ---------- --- --- ------ ------ ---- -- ------<br>------- --- ------ ----- --- ---- ------- -- ---- --- --<br>------- ------,250110.30000007153,250109.30000007153,249834.595,249839.20000004768,249851.226,250117.858,,19,to
screen,html.Screen,2_1_1_1_20,2022-05-03T18:02:52.139Z,,,,,,,,,,,,,,,,,54,,,,,,,,,,,,,,256.04200009536,,response,,,,100,,,,,,,Space,keypress(Space),,,,,,,,-- --- ---- --- ------ ----- ------- ---- -- --- ------- --<br>------- ---------- ------ -- ----- -- ----- -- save ------<br>--- ----- --- --- ------ -------- ----- --- ------ ----- --<br>----- ----- ---------- --- --- ------ ------ ---- -- ------<br>------- --- ------ ----- --- ---- ------- -- ---- --- --<br>------- ------,250375.10000002384,250373.90000009537,250101.206,250110.60000002384,250117.858,250384.51,,20,save
screen,html.Screen,2_1_1_1_21,2022-05-03T18:02:52.372Z,,,,,,,,,,,,,,,,,54,,,,,,,,,,,,,,222.6900000476744,,response,,,,100,,,,,,,Space,keypress(Space),,,,,,,,"-- --- ---- --- ------ ----- ------- ---- -- --- ------- --<br>------- ---------- ------ -- ----- -- ----- -- ---- money,<br>--- ----- --- --- ------ -------- ----- --- ------ ----- --<br>----- ----- ---------- --- --- ------ ------ ---- -- ------<br>------- --- ------ ----- --- ---- ------- -- ---- --- --<br>------- ------",250608.30000007153,250607.20000004768,250367.973,250375.30000007153,250384.51,250617.833,,21,"money,"
screen,html.Screen,2_1_1_1_22,2022-05-03T18:02:52.760Z,,,,,,,,,,,,,,,,,54,,,,,,,,,,,,,,377.56700009535416,,response,,,,100,,,,,,,Space,keypress(Space),,,,,,,,-- --- ---- --- ------ ----- ------- ---- -- --- ------- --<br>------- ---------- ------ -- ----- -- ----- -- ---- ------<br>the ----- --- --- ------ -------- ----- --- ------ ----- --<br>----- ----- ---------- --- --- ------ ------ ---- -- ------<br>------- --- ------ ----- --- ---- ------- -- ---- --- --<br>------- ------,250996.70000004768,250995.40000009537,250601.435,250608.5,250617.833,251001.155,,22,the
screen,html.Screen,2_1_1_1_23,2022-05-03T18:02:53.064Z,,,,,,,,,,,,,,,,,54,,,,,,,,,,,,,,297.445000023843,,response,,,,100,,,,,,,Space,keypress(Space),,,,,,,,-- --- ---- --- ------ ----- ------- ---- -- --- ------- --<br>------- ---------- ------ -- ----- -- ----- -- ---- ------<br>--- state --- --- ------ -------- ----- --- ------ ----- --<br>----- ----- ---------- --- --- ------ ------ ---- -- ------<br>------- --- ------ ----- --- ---- ------- -- ---- --- --<br>------- ------,251300.10000002384,251298.60000002384,250984.479,250996.90000009537,251001.155,251334.576,,23,state
screen,html.Screen,2_1_1_1_24,2022-05-03T18:02:53.306Z,,,,,,,,,,,,,,,,,54,,,,,,,,,,,,,,206.02400002384093,,response,,,,100,,,,,,,Space,keypress(Space),,,,,,,,-- --- ---- --- ------ ----- ------- ---- -- --- ------- --<br>------- ---------- ------ -- ----- -- ----- -- ---- ------<br>--- ----- cut --- ------ -------- ----- --- ------ ----- --<br>----- ----- ---------- --- --- ------ ------ ---- -- ------<br>------- --- ------ ----- --- ---- ------- -- ---- --- --<br>------- ------,251541.70000004768,251540.60000002384,251317.956,251300.40000009537,251334.576,251551.156,,24,cut
screen,html.Screen,2_1_1_1_25,2022-05-03T18:02:53.565Z,,,,,,,,,,,,,,,,,54,,,,,,,,,,,,,,248.34400000001187,,response,,,,100,,,,,,,Space,keypress(Space),,,,,,,,-- --- ---- --- ------ ----- ------- ---- -- --- ------- --<br>------- ---------- ------ -- ----- -- ----- -- ---- ------<br>--- ----- --- the ------ -------- ----- --- ------ ----- --<br>----- ----- ---------- --- --- ------ ------ ---- -- ------<br>------- --- ------ ----- --- ---- ------- -- ---- --- --<br>------- ------,251800.80000007153,251799.5,251534.712,251542,251551.156,251817.835,,25,the
screen,html.Screen,2_1_1_1_26,2022-05-03T18:02:53.807Z,,,,,,,,,,,,,,,,,54,,,,,,,,,,,,,,224.46500007153372,,response,,,,100,,,,,,,Space,keypress(Space),,,,,,,,-- --- ---- --- ------ ----- ------- ---- -- --- ------- --<br>------- ---------- ------ -- ----- -- ----- -- ---- ------<br>--- ----- --- --- bonds' -------- ----- --- ------ ----- --<br>----- ----- ---------- --- --- ------ ------ ---- -- ------<br>------- --- ------ ----- --- ---- ------- -- ---- --- --<br>------- ------,252043.5,252042.30000007153,251801.253,251801,251817.835,252051.065,,26,bonds'
screen,html.Screen,2_1_1_1_27,2022-05-03T18:02:54.035Z,,,,,,,,,,,,,,,,,54,,,,,,,,,,,,,,218.6350000476814,,response,,,,100,,,,,,,Space,keypress(Space),,,,,,,,-- --- ---- --- ------ ----- ------- ---- -- --- ------- --<br>------- ---------- ------ -- ----- -- ----- -- ---- ------<br>--- ----- --- --- ------ interest ----- --- ------ ----- --<br>----- ----- ---------- --- --- ------ ------ ---- -- ------<br>------- --- ------ ----- --- ---- ------- -- ---- --- --<br>------- ------,252270.90000009537,252269.70000004768,252034.55,252043.80000007153,252051.065,252284.6,,27,interest
screen,html.Screen,2_1_1_1_28,2022-05-03T18:02:54.249Z,,,,,,,,,,,,,,,,,54,,,,,,,,,,,,,,199.00000002383604,,response,,,,100,,,,,,,Space,keypress(Space),,,,,,,,-- --- ---- --- ------ ----- ------- ---- -- --- ------- --<br>------- ---------- ------ -- ----- -- ----- -- ---- ------<br>--- ----- --- --- ------ -------- rate. --- ------ ----- --<br>----- ----- ---------- --- --- ------ ------ ---- -- ------<br>------- --- ------ ----- --- ---- ------- -- ---- --- --<br>------- ------,252484.80000007153,252483.60000002384,252267.951,252271.20000004768,252284.6,252501.065,,28,rate.
screen,html.Screen,2_1_1_1_29,2022-05-03T18:02:54.511Z,,,,,,,,,,,,,,,,,54,,,,,,,,,,,,,,244.8350000953651,,response,,,,100,,,,,,,Space,keypress(Space),,,,,,,,-- --- ---- --- ------ ----- ------- ---- -- --- ------- --<br>------- ---------- ------ -- ----- -- ----- -- ---- ------<br>--- ----- --- --- ------ -------- ----- The ------ ----- --<br>----- ----- ---------- --- --- ------ ------ ---- -- ------<br>------- --- ------ ----- --- ---- ------- -- ---- --- --<br>------- ------,252747.40000009537,252745.90000009537,252484.429,252485,252501.065,252751.043,,29,The
screen,html.Screen,2_1_1_1_30,2022-05-03T18:02:54.794Z,,,,,,,,,,,,,,,,,54,,,,,,,,,,,,,,278.25700007152045,,response,,,,100,,,,,,,Space,keypress(Space),,,,,,,,-- --- ---- --- ------ ----- ------- ---- -- --- ------- --<br>------- ---------- ------ -- ----- -- ----- -- ---- ------<br>--- ----- --- --- ------ -------- ----- --- market ----- --<br>----- ----- ---------- --- --- ------ ------ ---- -- ------<br>------- --- ------ ----- --- ---- ------- -- ---- --- --<br>------- ------,253030.5,253029.30000007153,252734.559,252747.60000002384,252751.043,253034.391,,30,market
screen,html.Screen,2_1_1_1_31,2022-05-03T18:02:55.043Z,,,,,,,,,,,,,,,,,54,,,,,,,,,,,,,,243.80900004768046,,response,,,,100,,,,,,,Space,keypress(Space),,,,,,,,-- --- ---- --- ------ ----- ------- ---- -- --- ------- --<br>------- ---------- ------ -- ----- -- ----- -- ---- ------<br>--- ----- --- --- ------ -------- ----- --- ------ value --<br>----- ----- ---------- --- --- ------ ------ ---- -- ------<br>------- --- ------ ----- --- ---- ------- -- ---- --- --<br>------- ------,253279.5,253278.20000004768,253017.682,253030.80000007153,253034.391,253284.343,,31,value
screen,html.Screen,2_1_1_1_32,2022-05-03T18:02:55.271Z,,,,,,,,,,,,,,,,,54,,,,,,,,,,,,,,221.9570000715321,,response,,,,100,,,,,,,Space,keypress(Space),,,,,,,,-- --- ---- --- ------ ----- ------- ---- -- --- ------- --<br>------- ---------- ------ -- ----- -- ----- -- ---- ------<br>--- ----- --- --- ------ -------- ----- --- ------ ----- of<br>----- ----- ---------- --- --- ------ ------ ---- -- ------<br>------- --- ------ ----- --- ---- ------- -- ---- --- --<br>------- ------,253507,253506.30000007153,253267.782,253279.70000004768,253284.343,253517.714,,32,of
screen,html.Screen,2_1_1_1_33,2022-05-03T18:02:55.517Z,,,,,,,,,,,,,,,,,54,,,,,,,,,,,,,,234.08600007151836,,response,,,,100,,,,,,,Space,keypress(Space),,,,,,,,-- --- ---- --- ------ ----- ------- ---- -- --- ------- --<br>------- ---------- ------ -- ----- -- ----- -- ---- ------<br>--- ----- --- --- ------ -------- ----- --- ------ ----- --<br>these ----- ---------- --- --- ------ ------ ---- -- ------<br>------- --- ------ ----- --- ---- ------- -- ---- --- --<br>------- ------,253753,253751.80000007153,253501.214,253507,253517.714,253767.733,,33,these
screen,html.Screen,2_1_1_1_34,2022-05-03T18:02:55.727Z,,,,,,,,,,,,,,,,,54,,,,,,,,,,,,,,194.46700004767627,,response,,,,100,,,,,,,Space,keypress(Space),,,,,,,,-- --- ---- --- ------ ----- ------- ---- -- --- ------- --<br>------- ---------- ------ -- ----- -- ----- -- ---- ------<br>--- ----- --- --- ------ -------- ----- --- ------ ----- --<br>----- bonds ---------- --- --- ------ ------ ---- -- ------<br>------- --- ------ ----- --- ---- ------- -- ---- --- --<br>------- ------,253963.5,253962.20000004768,253751.218,253753.20000004768,253767.733,253967.685,,34,bonds
screen,html.Screen,2_1_1_1_35,2022-05-03T18:02:55.961Z,,,,,,,,,,,,,,,,,54,,,,,,,,,,,,,,228.51500004768604,,response,,,,100,,,,,,,Space,keypress(Space),,,,,,,,"-- --- ---- --- ------ ----- ------- ---- -- --- ------- --<br>------- ---------- ------ -- ----- -- ----- -- ---- ------<br>--- ----- --- --- ------ -------- ----- --- ------ ----- --<br>----- ----- plummeted, --- --- ------ ------ ---- -- ------<br>------- --- ------ ----- --- ---- ------- -- ---- --- --<br>------- ------",254197.40000009537,254196.20000004768,253951.118,253963.60000002384,253967.685,254200.996,,35,"plummeted,"
screen,html.Screen,2_1_1_1_36,2022-05-03T18:02:56.175Z,,,,,,,,,,,,,,,,,54,,,,,,,,,,,,,,209.10400002382812,,response,,,,100,,,,,,,Space,keypress(Space),,,,,,,,-- --- ---- --- ------ ----- ------- ---- -- --- ------- --<br>------- ---------- ------ -- ----- -- ----- -- ---- ------<br>--- ----- --- --- ------ -------- ----- --- ------ ----- --<br>----- ----- ---------- and --- ------ ------ ---- -- ------<br>------- --- ------ ----- --- ---- ------- -- ---- --- --<br>------- ------,254411.40000009537,254410.10000002384,254184.452,254197.60000002384,254200.996,254417.645,,36,and
screen,html.Screen,2_1_1_1_37,2022-05-03T18:02:56.405Z,,,,,,,,,,,,,,,,,54,,,,,,,,,,,,,,222.15500007153605,,response,,,,100,,,,,,,Space,keypress(Space),,,,,,,,-- --- ---- --- ------ ----- ------- ---- -- --- ------- --<br>------- ---------- ------ -- ----- -- ----- -- ---- ------<br>--- ----- --- --- ------ -------- ----- --- ------ ----- --<br>----- ----- ---------- --- the ------ ------ ---- -- ------<br>------- --- ------ ----- --- ---- ------- -- ---- --- --<br>------- ------,254640.80000007153,254639.80000007153,254401.046,254411.60000002384,254417.645,254650.961,,37,the
screen,html.Screen,2_1_1_1_38,2022-05-03T18:02:56.659Z,,,,,,,,,,,,,,,,,54,,,,,,,,,,,,,,243.4390000953572,,response,,,,100,,,,,,,Space,keypress(Space),,,,,,,,-- --- ---- --- ------ ----- ------- ---- -- --- ------- --<br>------- ---------- ------ -- ----- -- ----- -- ---- ------<br>--- ----- --- --- ------ -------- ----- --- ------ ----- --<br>----- ----- ---------- --- --- market ------ ---- -- ------<br>------- --- ------ ----- --- ---- ------- -- ---- --- --<br>------- ------,254895.5,254894.40000009537,254634.475,254641.10000002384,254650.961,254900.929,,38,market
screen,html.Screen,2_1_1_1_39,2022-05-03T18:02:56.903Z,,,,,,,,,,,,,,,,,54,,,,,,,,,,,,,,236.87100007152185,,response,,,,100,,,,,,,Space,keypress(Space),,,,,,,,-- --- ---- --- ------ ----- ------- ---- -- --- ------- --<br>------- ---------- ------ -- ----- -- ----- -- ---- ------<br>--- ----- --- --- ------ -------- ----- --- ------ ----- --<br>----- ----- ---------- --- --- ------ became ---- -- ------<br>------- --- ------ ----- --- ---- ------- -- ---- --- --<br>------- ------,255138.90000009537,255137.80000007153,254884.304,254895.70000004768,254900.929,255150.952,,39,became
screen,html.Screen,2_1_1_1_40,2022-05-03T18:02:57.105Z,,,,,,,,,,,,,,,,,54,,,,,,,,,,,,,,189.2480000476935,,response,,,,100,,,,,,,Space,keypress(Space),,,,,,,,-- --- ---- --- ------ ----- ------- ---- -- --- ------- --<br>------- ---------- ------ -- ----- -- ----- -- ---- ------<br>--- ----- --- --- ------ -------- ----- --- ------ ----- --<br>----- ----- ---------- --- --- ------ ------ wary -- ------<br>------- --- ------ ----- --- ---- ------- -- ---- --- --<br>------- ------,255341.20000004768,255340.20000004768,255134.504,255139.10000002384,255150.952,255350.943,,40,wary
screen,html.Screen,2_1_1_1_41,2022-05-03T18:02:57.309Z,,,,,,,,,,,,,,,,,54,,,,,,,,,,,,,,193.45700009536813,,response,,,,100,,,,,,,Space,keypress(Space),,,,,,,,-- --- ---- --- ------ ----- ------- ---- -- --- ------- --<br>------- ---------- ------ -- ----- -- ----- -- ---- ------<br>--- ----- --- --- ------ -------- ----- --- ------ ----- --<br>----- ----- ---------- --- --- ------ ------ ---- of ------<br>------- --- ------ ----- --- ---- ------- -- ---- --- --<br>------- ------,255545.40000009537,255544.40000009537,255334.304,255341.5,255350.943,255550.888,,41,of
screen,html.Screen,2_1_1_1_42,2022-05-03T18:02:57.510Z,,,,,,,,,,,,,,,,,54,,,,,,,,,,,,,,194.1119999999937,,response,,,,100,,,,,,,Space,keypress(Space),,,,,,,,-- --- ---- --- ------ ----- ------- ---- -- --- ------- --<br>------- ---------- ------ -- ----- -- ----- -- ---- ------<br>--- ----- --- --- ------ -------- ----- --- ------ ----- --<br>----- ----- ---------- --- --- ------ ------ ---- -- French<br>------- --- ------ ----- --- ---- ------- -- ---- --- --<br>------- ------,255746.10000002384,255745,255534.486,255545.80000007153,255550.888,255750.911,,42,French
screen,html.Screen,2_1_1_1_43,2022-05-03T18:02:57.781Z,,,,,,,,,,,,,,,,,54,,,,,,,,,,,,,,264.78900004769093,,response,,,,100,,,,,,,Space,keypress(Space),,,,,,,,-- --- ---- --- ------ ----- ------- ---- -- --- ------- --<br>------- ---------- ------ -- ----- -- ----- -- ---- ------<br>--- ----- --- --- ------ -------- ----- --- ------ ----- --<br>----- ----- ---------- --- --- ------ ------ ---- -- ------<br>credit. --- ------ ----- --- ---- ------- -- ---- --- --<br>------- ------,256016.90000009537,256015.70000004768,255734.475,255746.30000007153,255750.911,256034.358,,43,credit.
screen,html.Screen,2_1_1_1_44,2022-05-03T18:02:58.173Z,,,,,,,,,,,,,,,,,54,,,,,,,,,,,,,,373.4420000715181,,response,,,,100,,,,,,,Space,keypress(Space),,,,,,,,-- --- ---- --- ------ ----- ------- ---- -- --- ------- --<br>------- ---------- ------ -- ----- -- ----- -- ---- ------<br>--- ----- --- --- ------ -------- ----- --- ------ ----- --<br>----- ----- ---------- --- --- ------ ------ ---- -- ------<br>------- The ------ ----- --- ---- ------- -- ---- --- --<br>------- ------,256409,256407.80000007153,256017.8,256017.20000004768,256034.358,256417.505,,44,The
screen,html.Screen,2_1_1_1_45,2022-05-03T18:02:58.361Z,,,,,,,,,,,,,,,,,54,,,,,,,,,,,,,,178.49499999999534,,response,,,,100,,,,,,,Space,keypress(Space),,,,,,,,-- --- ---- --- ------ ----- ------- ---- -- --- ------- --<br>------- ---------- ------ -- ----- -- ----- -- ---- ------<br>--- ----- --- --- ------ -------- ----- --- ------ ----- --<br>----- ----- ---------- --- --- ------ ------ ---- -- ------<br>------- --- French ----- --- ---- ------- -- ---- --- --<br>------- ------,256597.20000004768,256596,256401.009,256409.30000007153,256417.505,256600.862,,45,French
screen,html.Screen,2_1_1_1_46,2022-05-03T18:02:58.560Z,,,,,,,,,,,,,,,,,54,,,,,,,,,,,,,,194.23800002384814,,response,,,,100,,,,,,,Space,keypress(Space),,,,,,,,-- --- ---- --- ------ ----- ------- ---- -- --- ------- --<br>------- ---------- ------ -- ----- -- ----- -- ---- ------<br>--- ----- --- --- ------ -------- ----- --- ------ ----- --<br>----- ----- ---------- --- --- ------ ------ ---- -- ------<br>------- --- ------ state --- ---- ------- -- ---- --- --<br>------- ------,256796.10000002384,256795.10000002384,256584.368,256597.40000009537,256600.862,256800.874,,46,state
screen,html.Screen,2_1_1_1_47,2022-05-03T18:02:58.889Z,,,,,,,,,,,,,,,,,54,,,,,,,,,,,,,,323.6259999999893,,response,,,,100,,,,,,,Space,keypress(Space),,,,,,,,-- --- ---- --- ------ ----- ------- ---- -- --- ------- --<br>------- ---------- ------ -- ----- -- ----- -- ---- ------<br>--- ----- --- --- ------ -------- ----- --- ------ ----- --<br>----- ----- ---------- --- --- ------ ------ ---- -- ------<br>------- --- ------ ----- was ---- ------- -- ---- --- --<br>------- ------,257125.70000004768,257124.5,256784.189,256796.60000002384,256800.874,257134.13,,47,was
screen,html.Screen,2_1_1_1_48,2022-05-03T18:02:59.217Z,,,,,,,,,,,,,,,,,54,,,,,,,,,,,,,,317.6700000715209,,response,,,,100,,,,,,,Space,keypress(Space),,,,,,,,-- --- ---- --- ------ ----- ------- ---- -- --- ------- --<br>------- ---------- ------ -- ----- -- ----- -- ---- ------<br>--- ----- --- --- ------ -------- ----- --- ------ ----- --<br>----- ----- ---------- --- --- ------ ------ ---- -- ------<br>------- --- ------ ----- --- left ------- -- ---- --- --<br>------- ------,257453.10000002384,257451.80000007153,257117.576,257125.90000009537,257134.13,257467.536,,48,left
screen,html.Screen,2_1_1_1_49,2022-05-03T18:02:59.482Z,,,,,,,,,,,,,,,,,54,,,,,,,,,,,,,,249.2640000715328,,response,,,,100,,,,,,,Space,keypress(Space),,,,,,,,-- --- ---- --- ------ ----- ------- ---- -- --- ------- --<br>------- ---------- ------ -- ----- -- ----- -- ---- ------<br>--- ----- --- --- ------ -------- ----- --- ------ ----- --<br>----- ----- ---------- --- --- ------ ------ ---- -- ------<br>------- --- ------ ----- --- ---- without -- ---- --- --<br>------- ------,257718,257716.80000007153,257450.868,257453.30000007153,257467.536,257734.34,,49,without
screen,html.Screen,2_1_1_1_50,2022-05-03T18:02:59.748Z,,,,,,,,,,,,,,,,,54,,,,,,,,,,,,,,248.46000007152907,,response,,,,100,,,,,,,Space,keypress(Space),,,,,,,,-- --- ---- --- ------ ----- ------- ---- -- --- ------- --<br>------- ---------- ------ -- ----- -- ----- -- ---- ------<br>--- ----- --- --- ------ -------- ----- --- ------ ----- --<br>----- ----- ---------- --- --- ------ ------ ---- -- ------<br>------- --- ------ ----- --- ---- ------- an ---- --- --<br>------- ------,257983.90000009537,257982.80000007153,257717.49,257718.20000004768,257734.34,258000.863,,50,an
screen,html.Screen,2_1_1_1_51,2022-05-03T18:03:00.012Z,,,,,,,,,,,,,,,,,54,,,,,,,,,,,,,,246.3370000476716,,response,,,,100,,,,,,,Space,keypress(Space),,,,,,,,-- --- ---- --- ------ ----- ------- ---- -- --- ------- --<br>------- ---------- ------ -- ----- -- ----- -- ---- ------<br>--- ----- --- --- ------ -------- ----- --- ------ ----- --<br>----- ----- ---------- --- --- ------ ------ ---- -- ------<br>------- --- ------ ----- --- ---- ------- -- easy --- --<br>------- ------,258248.70000004768,258247.20000004768,257984.157,257984.10000002384,258000.863,258269.73,,51,easy
screen,html.Screen,2_1_1_1_52,2022-05-03T18:03:00.320Z,,,,,,,,,,,,,,,,,54,,,,,,,,,,,,,,285.2699999999895,,response,,,,100,,,,,,,Space,keypress(Space),,,,,,,,-- --- ---- --- ------ ----- ------- ---- -- --- ------- --<br>------- ---------- ------ -- ----- -- ----- -- ---- ------<br>--- ----- --- --- ------ -------- ----- --- ------ ----- --<br>----- ----- ---------- --- --- ------ ------ ---- -- ------<br>------- --- ------ ----- --- ---- ------- -- ---- way --<br>------- ------,258556.10000002384,258555,258234.191,258249,258269.73,258567.441,,52,way
screen,html.Screen,2_1_1_1_53,2022-05-03T18:03:00.604Z,,,,,,,,,,,,,,,,,54,,,,,,,,,,,,,,271.5590000000084,,response,,,,100,,,,,,,Space,keypress(Space),,,,,,,,-- --- ---- --- ------ ----- ------- ---- -- --- ------- --<br>------- ---------- ------ -- ----- -- ----- -- ---- ------<br>--- ----- --- --- ------ -------- ----- --- ------ ----- --<br>----- ----- ---------- --- --- ------ ------ ---- -- ------<br>------- --- ------ ----- --- ---- ------- -- ---- --- of<br>------- ------,258840.30000007153,258839,258550.7,258556.30000007153,258567.441,258850.742,,53,of
screen,html.Screen,2_1_1_1_54,2022-05-03T18:03:00.863Z,,,,,,,,,,,,,,,,,54,,,,,,,,,,,,,,247.3580000238435,,response,,,,100,,,,,,,Space,keypress(Space),,,,,,,,-- --- ---- --- ------ ----- ------- ---- -- --- ------- --<br>------- ---------- ------ -- ----- -- ----- -- ---- ------<br>--- ----- --- --- ------ -------- ----- --- ------ ----- --<br>----- ----- ---------- --- --- ------ ------ ---- -- ------<br>------- --- ------ ----- --- ---- ------- -- ---- --- --<br>raising ------,259099.30000007153,259098.10000002384,258834.291,258840.5,258850.742,259122.365,,54,raising
screen,html.Screen,2_1_1_1_55,2022-05-03T18:03:01.214Z,,,,,,,,,,,,,,,,,54,,,,,,,,,,,,,,326.73500002385117,,response,,,,100,,,,,,,Space,keypress(Space),,,,,,,,-- --- ---- --- ------ ----- ------- ---- -- --- ------- --<br>------- ---------- ------ -- ----- -- ----- -- ---- ------<br>--- ----- --- --- ------ -------- ----- --- ------ ----- --<br>----- ----- ---------- --- --- ------ ------ ---- -- ------<br>------- --- ------ ----- --- ---- ------- -- ---- --- --<br>------- money.,259450.30000007153,259449.10000002384,259084.247,259099.40000009537,259122.365,259467.379,,55,money.
Item 100,flow.Loop,2_1_1_1,2022-05-03T18:03:01.214Z,,,,,,,,,,,,,,,,,,,,,,,,,,,,,,,16180.893000023847,,completion,,,,,A,,,,,,,,,,,silence,,,,,259450.80000007153,259449.10000002384,243251.646,243252.90000009537,243268.207,259467.379,,,
Question 1,html.Screen,2_1_1_2,2022-05-03T18:03:03.560Z,,,,,,,,,,,,,,,,,,,,,,,,,,,,true,TRUE,,2327.521000095381,,response,,,,100,A,,,,,,TRUE,click #choice-1,,,,silence,,,,,261796.40000009537,261794.90000009537,259450.922,259450.90000009537,259467.379,261800.617,,,
Question 2,html.Screen,2_1_1_3,2022-05-03T18:03:06.004Z,,,,,,,,,,,,,,,,,,,,,,,,,,,,true,FALSE,,2437.683000071527,,response,,,,100,A,,,,,,FALSE,click #choice-2,,,,silence,,,,,264240,264238.3000000715,261784.015,261796.70000004768,261800.617,264250.512,,,
Item 100,flow.Sequence,2_1_1,2022-05-03T18:03:06.004Z,,,,,,,,,,,,,,,,,,,,,,,,,,,,,,,30969.52800007153,,completion,,,,,,,,,,,,,,,,,,,,,264240.3000000715,264238.3000000715,233252.07,233260.5,233268.772,264250.512,,,
End of Practice,html.Page,2_1_2,2022-05-03T18:03:08.779Z,,,,,,,,,,,,,,,,,,,,,,,,,,,,,,,2764.588000023854,,form submission,,,,,,,,,,,,,,,,,,,,,267015.40000009537,267015.10000002384,264233.84,264240.5,264250.512,267016.97,,,
Practice,flow.Sequence,2_1,2022-05-03T18:03:08.779Z,,,,,,,,,,,,,,,,,,,,,,,,,,,,,,,72744.34800002383,,completion,,,,,,,,,,,,,,,,,,,,,267015.60000002384,267015.10000002384,194237.492,194247.70000004768,194270.752,267016.97,,,
Trap_instruction,html.Page,2_2_0,2022-05-03T18:03:12.861Z,,,,,,,,,,,,,,,,,,,,,,,,,,,,,,,4079.4300000953954,,form submission,,,,,,,,,,,,,,,,,,,,,271097.3000000715,271096.40000009537,267000.433,267015.8000000715,267016.97,271166.728,,,
trap_trial,html.Screen,2_2_1,2022-05-03T18:03:17.167Z,,,,,,,,,,,,,,,,,,,,,,,,,,,,true,1,,4234.572000071523,,response,,,,,,,,,,,1,click #choice-1,,,,,,,,,275403.8000000715,275401.3000000715,271083.543,271097.5,271166.728,275416.614,,,
end of trap trial,html.Page,2_2_2,2022-05-03T18:03:21.107Z,,,,,,,,,,,,,,,,,,,,,,,,,,,,,,,3926.286000095366,,form submission,,,,,,,,,,,,,,,,,,,,,279343.3000000715,279342.90000009537,275400.059,275404.10000002384,275416.614,279349.721,,,
Trap 1,flow.Sequence,2_2,2022-05-03T18:03:21.107Z,,,,,,,,,,,,,,,,,,,,,,,,,,,,,,,12325.930000095395,,completion,,,,,,,,,,,,,,,,,,,,,279343.7000000477,279342.90000009537,267000.433,267015.8000000715,267016.97,279349.721,,,
Standby,html.Page,2_3_0,2022-05-03T18:03:29.098Z,,,,,,,,,,,,,,,,,,,,,,,,,,,,,,,7999.601999999955,,timeout,,,,,,,,,,,,,,,,,,,,,287333.90000009537,287332.738,279333.086,279344.10000002384,279349.721,287349.323,,,
Holding screen,html.Screen,2_3_1_0_0,2022-05-03T18:03:36.097Z,,,,,,,,,,,,,,,,,,,,,,,,,,,,,,,6999.608000000007,,timeout,,,,,,,,,,,,,,,,,,,,,294333.7000000477,294332.554,287332.738,287334.2000000477,287349.323,294348.931,,,
screen,html.Screen,2_3_1_0_1_0,2022-05-03T18:03:38.203Z,,,,,,,,,,,,,,,,,51,,,,,,,,,,,,,,2089.0690000000177,,response,,,,13,A,,,,,,Space,keypress(Space),,,,silence,,,,American -------- --- --- ---- --- --- ------ -- --------<br>---- --------- --- ------- ------------ ---------- ---------<br>--- ---------- ------- ---------- ------- -- -------- ----<br>---- --- ------ ----- ------ -- ---- --- ----- -- - -------<br>-------- -- --- --- -- ----- ----------- ----- -----------<br>---- --- ---------- --- ---- --- -- ----------,296439.40000009537,296438,294332.554,294333.90000009537,294348.931,296448.829,,0,American
screen,html.Screen,2_3_1_0_1_1,2022-05-03T18:03:38.579Z,,,,,,,,,,,,,,,,,51,,,,,,,,,,,,,,365.47100007149857,,response,,,,13,A,,,,,,Space,keypress(Space),,,,silence,,,,-------- industry --- --- ---- --- --- ------ -- --------<br>---- --------- --- ------- ------------ ---------- ---------<br>--- ---------- ------- ---------- ------- -- -------- ----<br>---- --- ------ ----- ------ -- ---- --- ----- -- - -------<br>-------- -- --- --- -- ----- ----------- ----- -----------<br>---- --- ---------- --- ---- --- -- ----------,296815.5,296814.3000000715,296432.12,296439.7000000477,296448.829,296832.306,,1,industry
screen,html.Screen,2_3_1_0_1_2,2022-05-03T18:03:38.785Z,,,,,,,,,,,,,,,,,51,,,,,,,,,,,,,,187.99400007154327,,response,,,,13,A,,,,,,Space,keypress(Space),,,,silence,,,,-------- -------- may --- ---- --- --- ------ -- --------<br>---- --------- --- ------- ------------ ---------- ---------<br>--- ---------- ------- ---------- ------- -- -------- ----<br>---- --- ------ ----- ------ -- ---- --- ----- -- - -------<br>-------- -- --- --- -- ----- ----------- ----- -----------<br>---- --- ---------- --- ---- --- -- ----------,297021.40000009537,297020.3000000715,296815.489,296815.7000000477,296832.306,297032.173,,2,may
screen,html.Screen,2_3_1_0_1_3,2022-05-03T18:03:39.059Z,,,,,,,,,,,,,,,,,51,,,,,,,,,,,,,,261.6270000715158,,response,,,,13,A,,,,,,Space,keypress(Space),,,,silence,,,,-------- -------- --- not ---- --- --- ------ -- --------<br>---- --------- --- ------- ------------ ---------- ---------<br>--- ---------- ------- ---------- ------- -- -------- ----<br>---- --- ------ ----- ------ -- ---- --- ----- -- - -------<br>-------- -- --- --- -- ----- ----------- ----- -----------<br>---- --- ---------- --- ---- --- -- ----------,297294.90000009537,297293.8000000715,297015.662,297021.7000000477,297032.173,297298.764,,3,not
screen,html.Screen,2_3_1_0_1_4,2022-05-03T18:03:39.323Z,,,,,,,,,,,,,,,,,51,,,,,,,,,,,,,,259.5360000715009,,response,,,,13,A,,,,,,Space,keypress(Space),,,,silence,,,,-------- -------- --- --- know --- --- ------ -- --------<br>---- --------- --- ------- ------------ ---------- ---------<br>--- ---------- ------- ---------- ------- -- -------- ----<br>---- --- ------ ----- ------ -- ---- --- ----- -- - -------<br>-------- -- --- --- -- ----- ----------- ----- -----------<br>---- --- ---------- --- ---- --- -- ----------,297559.3000000715,297558.3000000715,297282.178,297295.40000009537,297298.764,297565.442,,4,know
screen,html.Screen,2_3_1_0_1_5,2022-05-03T18:03:39.530Z,,,,,,,,,,,,,,,,,51,,,,,,,,,,,,,,199.5580000000191,,response,,,,13,A,,,,,,Space,keypress(Space),,,,silence,,,,"-------- -------- --- --- ---- it, --- ------ -- --------<br>---- --------- --- ------- ------------ ---------- ---------<br>--- ---------- ------- ---------- ------- -- -------- ----<br>---- --- ------ ----- ------ -- ---- --- ----- -- - -------<br>-------- -- --- --- -- ----- ----------- ----- -----------<br>---- --- ---------- --- ---- --- -- ----------",297766,297765,297548.878,297559.60000002384,297565.442,297782.215,,5,"it,"
screen,html.Screen,2_3_1_0_1_6,2022-05-03T18:03:39.721Z,,,,,,,,,,,,,,,,,51,,,,,,,,,,,,,,173.38500002381625,,response,,,,13,A,,,,,,Space,keypress(Space),,,,silence,,,,-------- -------- --- --- ---- --- but ------ -- --------<br>---- --------- --- ------- ------------ ---------- ---------<br>--- ---------- ------- ---------- ------- -- -------- ----<br>---- --- ------ ----- ------ -- ---- --- ----- -- - -------<br>-------- -- --- --- -- ----- ----------- ----- -----------<br>---- --- ---------- --- ---- --- -- ----------,297956.90000009537,297955.60000002384,297765.674,297766.3000000715,297782.215,297965.416,,6,but
screen,html.Screen,2_3_1_0_1_7,2022-05-03T18:03:39.916Z,,,,,,,,,,,,,,,,,51,,,,,,,,,,,,,,185.9840000953409,,response,,,,13,A,,,,,,Space,keypress(Space),,,,silence,,,,-------- -------- --- --- ---- --- --- debate -- --------<br>---- --------- --- ------- ------------ ---------- ---------<br>--- ---------- ------- ---------- ------- -- -------- ----<br>---- --- ------ ----- ------ -- ---- --- ----- -- - -------<br>-------- -- --- --- -- ----- ----------- ----- -----------<br>---- --- ---------- --- ---- --- -- ----------,298152.60000002384,298151.40000009537,297948.996,297957.10000002384,297965.416,298165.408,,7,debate
screen,html.Screen,2_3_1_0_1_8,2022-05-03T18:03:40.130Z,,,,,,,,,,,,,,,,,51,,,,,,,,,,,,,,199.39200007152976,,response,,,,13,A,,,,,,Space,keypress(Space),,,,silence,,,,-------- -------- --- --- ---- --- --- ------ in --------<br>---- --------- --- ------- ------------ ---------- ---------<br>--- ---------- ------- ---------- ------- -- -------- ----<br>---- --- ------ ----- ------ -- ---- --- ----- -- - -------<br>-------- -- --- --- -- ----- ----------- ----- -----------<br>---- --- ---------- --- ---- --- -- ----------,298365.90000009537,298364.8000000715,298148.954,298152.8000000715,298165.408,298382.285,,8,in
screen,html.Screen,2_3_1_0_1_9,2022-05-03T18:03:40.301Z,,,,,,,,,,,,,,,,,51,,,,,,,,,,,,,,153.51500007155119,,response,,,,13,A,,,,,,Space,keypress(Space),,,,silence,,,,-------- -------- --- --- ---- --- --- ------ -- Congress<br>---- --------- --- ------- ------------ ---------- ---------<br>--- ---------- ------- ---------- ------- -- -------- ----<br>---- --- ------ ----- ------ -- ---- --- ----- -- - -------<br>-------- -- --- --- -- ----- ----------- ----- -----------<br>---- --- ---------- --- ---- --- -- ----------,298536.90000009537,298535.8000000715,298365.37,298366.2000000477,298382.285,298548.728,,9,Congress
screen,html.Screen,2_3_1_0_1_10,2022-05-03T18:03:40.470Z,,,,,,,,,,,,,,,,,51,,,,,,,,,,,,,,156.7719999999972,,response,,,,13,A,,,,,,Space,keypress(Space),,,,silence,,,,-------- -------- --- --- ---- --- --- ------ -- --------<br>over --------- --- ------- ------------ ---------- ---------<br>--- ---------- ------- ---------- ------- -- -------- ----<br>---- --- ------ ----- ------ -- ---- --- ----- -- - -------<br>-------- -- --- --- -- ----- ----------- ----- -----------<br>---- --- ---------- --- ---- --- -- ----------,298706.60000002384,298705.5,298532.266,298537.2000000477,298548.728,298715.387,,10,over
screen,html.Screen,2_3_1_0_1_11,2022-05-03T18:03:40.873Z,,,,,,,,,,,,,,,,,51,,,,,,,,,,,,,,392.8130000476958,,response,,,,13,A,,,,,,Space,keypress(Space),,,,silence,,,,-------- -------- --- --- ---- --- --- ------ -- --------<br>---- reforming --- ------- ------------ ---------- ---------<br>--- ---------- ------- ---------- ------- -- -------- ----<br>---- --- ------ ----- ------ -- ---- --- ----- -- - -------<br>-------- -- --- --- -- ----- ----------- ----- -----------<br>---- --- ---------- --- ---- --- -- ----------,299109.40000009537,299108.2000000477,298698.791,298706.90000009537,298715.387,299115.37,,11,reforming
screen,html.Screen,2_3_1_0_1_12,2022-05-03T18:03:41.158Z,,,,,,,,,,,,,,,,,51,,,,,,,,,,,,,,277.7300000238465,,response,,,,13,A,,,,,,Space,keypress(Space),,,,silence,,,,-------- -------- --- --- ---- --- --- ------ -- --------<br>---- --------- the ------- ------------ ---------- ---------<br>--- ---------- ------- ---------- ------- -- -------- ----<br>---- --- ------ ----- ------ -- ---- --- ----- -- - -------<br>-------- -- --- --- -- ----- ----------- ----- -----------<br>---- --- ---------- --- ---- --- -- ----------,299394.10000002384,299393.10000002384,299098.787,299109.60000002384,299115.37,299415.557,,12,the
screen,html.Screen,2_3_1_0_1_13,2022-05-03T18:03:41.422Z,,,,,,,,,,,,,,,,,51,,,,,,,,,,,,,,241.64300004771212,,response,,,,13,A,,,,,,Space,keypress(Space),,,,silence,,,,-------- -------- --- --- ---- --- --- ------ -- --------<br>---- --------- --- federal ------------ ---------- ---------<br>--- ---------- ------- ---------- ------- -- -------- ----<br>---- --- ------ ----- ------ -- ---- --- ----- -- - -------<br>-------- -- --- --- -- ----- ----------- ----- -----------<br>---- --- ---------- --- ---- --- -- ----------,299658.40000009537,299657.2000000477,299382.086,299394.3000000715,299415.557,299665.326,,13,federal
screen,html.Screen,2_3_1_0_1_14,2022-05-03T18:03:41.628Z,,,,,,,,,,,,,,,,,51,,,,,,,,,,,,,,197.27400002384093,,response,,,,13,A,,,,,,Space,keypress(Space),,,,silence,,,,-------- -------- --- --- ---- --- --- ------ -- --------<br>---- --------- --- ------- government's ---------- ---------<br>--- ---------- ------- ---------- ------- -- -------- ----<br>---- --- ------ ----- ------ -- ---- --- ----- -- - -------<br>-------- -- --- --- -- ----- ----------- ----- -----------<br>---- --- ---------- --- ---- --- -- ----------,299863.8000000715,299862.60000002384,299648.807,299658.60000002384,299665.326,299886.557,,14,government's
screen,html.Screen,2_3_1_0_1_15,2022-05-03T18:03:41.830Z,,,,,,,,,,,,,,,,,51,,,,,,,,,,,,,,178.34300009539584,,response,,,,13,A,,,,,,Space,keypress(Space),,,,silence,,,,-------- -------- --- --- ---- --- --- ------ -- --------<br>---- --------- --- ------- ------------ regulatory ---------<br>--- ---------- ------- ---------- ------- -- -------- ----<br>---- --- ------ ----- ------ -- ---- --- ----- -- - -------<br>-------- -- --- --- -- ----- ----------- ----- -----------<br>---- --- ---------- --- ---- --- -- ----------,300066.10000002384,300064.90000009537,299848.87,299864,299886.557,300082.03,,15,regulatory
screen,html.Screen,2_3_1_0_1_16,2022-05-03T18:03:42.646Z,,,,,,,,,,,,,,,,,51,,,,,,,,,,,,,,798.9699999999721,,response,,,,13,A,,,,,,Space,keypress(Space),,,,silence,,,,-------- -------- --- --- ---- --- --- ------ -- --------<br>---- --------- --- ------- ------------ ---------- apparatus<br>--- ---------- ------- ---------- ------- -- -------- ----<br>---- --- ------ ----- ------ -- ---- --- ----- -- - -------<br>-------- -- --- --- -- ----- ----------- ----- -----------<br>---- --- ---------- --- ---- --- -- ----------,300882.40000009537,300881,300065.389,300066.40000009537,300082.03,300898.694,,16,apparatus
screen,html.Screen,2_3_1_0_1_17,2022-05-03T18:03:43.004Z,,,,,,,,,,,,,,,,,51,,,,,,,,,,,,,,340.20600009534974,,response,,,,13,A,,,,,,Space,keypress(Space),,,,silence,,,,-------- -------- --- --- ---- --- --- ------ -- --------<br>---- --------- --- ------- ------------ ---------- ---------<br>may ---------- ------- ---------- ------- -- -------- ----<br>---- --- ------ ----- ------ -- ---- --- ----- -- - -------<br>-------- -- --- --- -- ----- ----------- ----- -----------<br>---- --- ---------- --- ---- --- -- ----------,301240.2000000477,301238.90000009537,300882.082,300882.60000002384,300898.694,301248.565,,17,may
screen,html.Screen,2_3_1_0_1_18,2022-05-03T18:03:43.351Z,,,,,,,,,,,,,,,,,51,,,,,,,,,,,,,,337.1350000476814,,response,,,,13,A,,,,,,Space,keypress(Space),,,,silence,,,,-------- -------- --- --- ---- --- --- ------ -- --------<br>---- --------- --- ------- ------------ ---------- ---------<br>--- profoundly ------- ---------- ------- -- -------- ----<br>---- --- ------ ----- ------ -- ---- --- ----- -- - -------<br>-------- -- --- --- -- ----- ----------- ----- -----------<br>---- --- ---------- --- ---- --- -- ----------,301587,301585.7000000477,301231.948,301240.40000009537,301248.565,301598.575,,18,profoundly
screen,html.Screen,2_3_1_0_1_19,2022-05-03T18:03:43.608Z,,,,,,,,,,,,,,,,,51,,,,,,,,,,,,,,244.02500002383022,,response,,,,13,A,,,,,,Space,keypress(Space),,,,silence,,,,-------- -------- --- --- ---- --- --- ------ -- --------<br>---- --------- --- ------- ------------ ---------- ---------<br>--- ---------- improve ---------- ------- -- -------- ----<br>---- --- ------ ----- ------ -- ---- --- ----- -- - -------<br>-------- -- --- --- -- ----- ----------- ----- -----------<br>---- --- ---------- --- ---- --- -- ----------,301843.8000000715,301842.60000002384,301582.075,301587.2000000477,301598.575,301848.538,,19,improve
screen,html.Screen,2_3_1_0_1_20,2022-05-03T18:03:43.888Z,,,,,,,,,,,,,,,,,51,,,,,,,,,,,,,,274.66200004768325,,response,,,,13,A,,,,,,Space,keypress(Space),,,,silence,,,,-------- -------- --- --- ---- --- --- ------ -- --------<br>---- --------- --- ------- ------------ ---------- ---------<br>--- ---------- ------- companies' ------- -- -------- ----<br>---- --- ------ ----- ------ -- ---- --- ----- -- - -------<br>-------- -- --- --- -- ----- ----------- ----- -----------<br>---- --- ---------- --- ---- --- -- ----------,302124.3000000715,302123.2000000477,301831.908,301844.10000002384,301848.538,302131.865,,20,companies'
screen,html.Screen,2_3_1_0_1_21,2022-05-03T18:03:44.350Z,,,,,,,,,,,,,,,,,51,,,,,,,,,,,,,,453.1350000000093,,response,,,,13,A,,,,,,Space,keypress(Space),,,,silence,,,,-------- -------- --- --- ---- --- --- ------ -- --------<br>---- --------- --- ------- ------------ ---------- ---------<br>--- ---------- ------- ---------- ability -- -------- ----<br>---- --- ------ ----- ------ -- ---- --- ----- -- - -------<br>-------- -- --- --- -- ----- ----------- ----- -----------<br>---- --- ---------- --- ---- --- -- ----------,302586.2000000477,302585,302115.393,302124.7000000477,302131.865,302598.536,,21,ability
screen,html.Screen,2_3_1_0_1_22,2022-05-03T18:03:44.602Z,,,,,,,,,,,,,,,,,51,,,,,,,,,,,,,,238.66400004766183,,response,,,,13,A,,,,,,Space,keypress(Space),,,,silence,,,,-------- -------- --- --- ---- --- --- ------ -- --------<br>---- --------- --- ------- ------------ ---------- ---------<br>--- ---------- ------- ---------- ------- to -------- ----<br>---- --- ------ ----- ------ -- ---- --- ----- -- - -------<br>-------- -- --- --- -- ----- ----------- ----- -----------<br>---- --- ---------- --- ---- --- -- ----------,302838.3000000715,302837.2000000477,302581.958,302586.40000009537,302598.536,302848.51,,22,to
screen,html.Screen,2_3_1_0_1_23,2022-05-03T18:03:44.906Z,,,,,,,,,,,,,,,,,51,,,,,,,,,,,,,,292.59000002383254,,response,,,,13,A,,,,,,Space,keypress(Space),,,,silence,,,,-------- -------- --- --- ---- --- --- ------ -- --------<br>---- --------- --- ------- ------------ ---------- ---------<br>--- ---------- ------- ---------- ------- -- survive. ----<br>---- --- ------ ----- ------ -- ---- --- ----- -- - -------<br>-------- -- --- --- -- ----- ----------- ----- -----------<br>---- --- ---------- --- ---- --- -- ----------,303142.40000009537,303141.10000002384,302831.955,302838.60000002384,302848.51,303148.476,,23,survive.
screen,html.Screen,2_3_1_0_1_24,2022-05-03T18:03:45.154Z,,,,,,,,,,,,,,,,,51,,,,,,,,,,,,,,240.7240000476595,,response,,,,13,A,,,,,,Space,keypress(Space),,,,silence,,,,-------- -------- --- --- ---- --- --- ------ -- --------<br>---- --------- --- ------- ------------ ---------- ---------<br>--- ---------- ------- ---------- ------- -- -------- This<br>---- --- ------ ----- ------ -- ---- --- ----- -- - -------<br>-------- -- --- --- -- ----- ----------- ----- -----------<br>---- --- ---------- --- ---- --- -- ----------,303390.3000000715,303389.2000000477,303132.025,303142.8000000715,303148.476,303398.476,,24,This
screen,html.Screen,2_3_1_0_1_25,2022-05-03T18:03:45.507Z,,,,,,,,,,,,,,,,,51,,,,,,,,,,,,,,343.2240000476595,,response,,,,13,A,,,,,,Space,keypress(Space),,,,silence,,,,-------- -------- --- --- ---- --- --- ------ -- --------<br>---- --------- --- ------- ------------ ---------- ---------<br>--- ---------- ------- ---------- ------- -- -------- ----<br>week --- ------ ----- ------ -- ---- --- ----- -- - -------<br>-------- -- --- --- -- ----- ----------- ----- -----------<br>---- --- ---------- --- ---- --- -- ----------,303742.8000000715,303741.7000000477,303381.958,303390.5,303398.476,303748.451,,25,week
screen,html.Screen,2_3_1_0_1_26,2022-05-03T18:03:45.769Z,,,,,,,,,,,,,,,,,51,,,,,,,,,,,,,,255.54899999999907,,response,,,,13,A,,,,,,Space,keypress(Space),,,,silence,,,,-------- -------- --- --- ---- --- --- ------ -- --------<br>---- --------- --- ------- ------------ ---------- ---------<br>--- ---------- ------- ---------- ------- -- -------- ----<br>---- the ------ ----- ------ -- ---- --- ----- -- - -------<br>-------- -- --- --- -- ----- ----------- ----- -----------<br>---- --- ---------- --- ---- --- -- ----------,304005.10000002384,304004,303731.924,303743.10000002384,303748.451,304015.106,,26,the
screen,html.Screen,2_3_1_0_1_27,2022-05-03T18:03:46.025Z,,,,,,,,,,,,,,,,,51,,,,,,,,,,,,,,245.494000023813,,response,,,,13,A,,,,,,Space,keypress(Space),,,,silence,,,,-------- -------- --- --- ---- --- --- ------ -- --------<br>---- --------- --- ------- ------------ ---------- ---------<br>--- ---------- ------- ---------- ------- -- -------- ----<br>---- --- Senate ----- ------ -- ---- --- ----- -- - -------<br>-------- -- --- --- -- ----- ----------- ----- -----------<br>---- --- ---------- --- ---- --- -- ----------,304261.8000000715,304260.60000002384,303998.555,304005.40000009537,304015.106,304265.095,,27,Senate
screen,html.Screen,2_3_1_0_1_28,2022-05-03T18:03:46.224Z,,,,,,,,,,,,,,,,,51,,,,,,,,,,,,,,194.40500000002794,,response,,,,13,A,,,,,,Space,keypress(Space),,,,silence,,,,-------- -------- --- --- ---- --- --- ------ -- --------<br>---- --------- --- ------- ------------ ---------- ---------<br>--- ---------- ------- ---------- ------- -- -------- ----<br>---- --- ------ seems ------ -- ---- --- ----- -- - -------<br>-------- -- --- --- -- ----- ----------- ----- -----------<br>---- --- ---------- --- ---- --- -- ----------,304460.60000002384,304459.5,304248.533,304262,304265.095,304465.099,,28,seems
screen,html.Screen,2_3_1_0_1_29,2022-05-03T18:03:46.454Z,,,,,,,,,,,,,,,,,51,,,,,,,,,,,,,,223.70100007153815,,response,,,,13,A,,,,,,Space,keypress(Space),,,,silence,,,,-------- -------- --- --- ---- --- --- ------ -- --------<br>---- --------- --- ------- ------------ ---------- ---------<br>--- ---------- ------- ---------- ------- -- -------- ----<br>---- --- ------ ----- poised -- ---- --- ----- -- - -------<br>-------- -- --- --- -- ----- ----------- ----- -----------<br>---- --- ---------- --- ---- --- -- ----------,304689.90000009537,304688.8000000715,304448.593,304460.8000000715,304465.099,304698.404,,29,poised
screen,html.Screen,2_3_1_0_1_30,2022-05-03T18:03:46.735Z,,,,,,,,,,,,,,,,,51,,,,,,,,,,,,,,271.39600007154513,,response,,,,13,A,,,,,,Space,keypress(Space),,,,silence,,,,-------- -------- --- --- ---- --- --- ------ -- --------<br>---- --------- --- ------- ------------ ---------- ---------<br>--- ---------- ------- ---------- ------- -- -------- ----<br>---- --- ------ ----- ------ to ---- --- ----- -- - -------<br>-------- -- --- --- -- ----- ----------- ----- -----------<br>---- --- ---------- --- ---- --- -- ----------,304971,304969.8000000715,304681.917,304690.2000000477,304698.404,304981.739,,30,to
screen,html.Screen,2_3_1_0_1_31,2022-05-03T18:03:46.977Z,,,,,,,,,,,,,,,,,51,,,,,,,,,,,,,,230.16100009536603,,response,,,,13,A,,,,,,Space,keypress(Space),,,,silence,,,,-------- -------- --- --- ---- --- --- ------ -- --------<br>---- --------- --- ------- ------------ ---------- ---------<br>--- ---------- ------- ---------- ------- -- -------- ----<br>---- --- ------ ----- ------ -- join --- ----- -- - -------<br>-------- -- --- --- -- ----- ----------- ----- -----------<br>---- --- ---------- --- ---- --- -- ----------,305212.8000000715,305211.90000009537,304965.265,304971.3000000715,304981.739,305214.993,,31,join
screen,html.Screen,2_3_1_0_1_32,2022-05-03T18:03:47.205Z,,,,,,,,,,,,,,,,,51,,,,,,,,,,,,,,224.70700004766695,,response,,,,13,A,,,,,,Space,keypress(Space),,,,silence,,,,-------- -------- --- --- ---- --- --- ------ -- --------<br>---- --------- --- ------- ------------ ---------- ---------<br>--- ---------- ------- ---------- ------- -- -------- ----<br>---- --- ------ ----- ------ -- ---- the ----- -- - -------<br>-------- -- --- --- -- ----- ----------- ----- -----------<br>---- --- ---------- --- ---- --- -- ----------,305440.90000009537,305439.7000000477,305198.46,305212.90000009537,305214.993,305448.389,,32,the
screen,html.Screen,2_3_1_0_1_33,2022-05-03T18:03:47.405Z,,,,,,,,,,,,,,,,,51,,,,,,,,,,,,,,192.51100009534275,,response,,,,13,A,,,,,,Space,keypress(Space),,,,silence,,,,-------- -------- --- --- ---- --- --- ------ -- --------<br>---- --------- --- ------- ------------ ---------- ---------<br>--- ---------- ------- ---------- ------- -- -------- ----<br>---- --- ------ ----- ------ -- ---- --- House -- - -------<br>-------- -- --- --- -- ----- ----------- ----- -----------<br>---- --- ---------- --- ---- --- -- ----------,305641.60000002384,305640.90000009537,305431.915,305441.10000002384,305448.389,305648.329,,33,House
screen,html.Screen,2_3_1_0_1_34,2022-05-03T18:03:47.573Z,,,,,,,,,,,,,,,,,51,,,,,,,,,,,,,,159.77100002381485,,response,,,,13,A,,,,,,Space,keypress(Space),,,,silence,,,,-------- -------- --- --- ---- --- --- ------ -- --------<br>---- --------- --- ------- ------------ ---------- ---------<br>--- ---------- ------- ---------- ------- -- -------- ----<br>---- --- ------ ----- ------ -- ---- --- ----- in - -------<br>-------- -- --- --- -- ----- ----------- ----- -----------<br>---- --- ---------- --- ---- --- -- ----------,305809.3000000715,305808.10000002384,305631.789,305641.8000000715,305648.329,305815.023,,34,in
screen,html.Screen,2_3_1_0_1_35,2022-05-03T18:03:47.774Z,,,,,,,,,,,,,,,,,51,,,,,,,,,,,,,,193.9770000000135,,response,,,,13,A,,,,,,Space,keypress(Space),,,,silence,,,,-------- -------- --- --- ---- --- --- ------ -- --------<br>---- --------- --- ------- ------------ ---------- ---------<br>--- ---------- ------- ---------- ------- -- -------- ----<br>---- --- ------ ----- ------ -- ---- --- ----- -- a -------<br>-------- -- --- --- -- ----- ----------- ----- -----------<br>---- --- ---------- --- ---- --- -- ----------,306010.2000000477,306009,305798.592,305809.5,305815.023,306014.997,,35,a
screen,html.Screen,2_3_1_0_1_36,2022-05-03T18:03:48.002Z,,,,,,,,,,,,,,,,,51,,,,,,,,,,,,,,221.7030000477098,,response,,,,13,A,,,,,,Space,keypress(Space),,,,silence,,,,-------- -------- --- --- ---- --- --- ------ -- --------<br>---- --------- --- ------- ------------ ---------- ---------<br>--- ---------- ------- ---------- ------- -- -------- ----<br>---- --- ------ ----- ------ -- ---- --- ----- -- - massive<br>-------- -- --- --- -- ----- ----------- ----- -----------<br>---- --- ---------- --- ---- --- -- ----------,306237.90000009537,306236.7000000477,305998.492,306010.5,306014.997,306248.353,,36,massive
screen,html.Screen,2_3_1_0_1_37,2022-05-03T18:03:48.231Z,,,,,,,,,,,,,,,,,51,,,,,,,,,,,,,,217.6469999999972,,response,,,,13,A,,,,,,Space,keypress(Space),,,,silence,,,,-------- -------- --- --- ---- --- --- ------ -- --------<br>---- --------- --- ------- ------------ ---------- ---------<br>--- ---------- ------- ---------- ------- -- -------- ----<br>---- --- ------ ----- ------ -- ---- --- ----- -- - -------<br>overhaul -- --- --- -- ----- ----------- ----- -----------<br>---- --- ---------- --- ---- --- -- ----------,306467.3000000715,306466,306231.835,306238.2000000477,306248.353,306481.707,,37,overhaul
screen,html.Screen,2_3_1_0_1_38,2022-05-03T18:03:48.448Z,,,,,,,,,,,,,,,,,51,,,,,,,,,,,,,,201.5930000715307,,response,,,,13,A,,,,,,Space,keypress(Space),,,,silence,,,,-------- -------- --- --- ---- --- --- ------ -- --------<br>---- --------- --- ------- ------------ ---------- ---------<br>--- ---------- ------- ---------- ------- -- -------- ----<br>---- --- ------ ----- ------ -- ---- --- ----- -- - -------<br>-------- of --- --- -- ----- ----------- ----- -----------<br>---- --- ---------- --- ---- --- -- ----------,306684.40000009537,306683.3000000715,306465.177,306467.5,306481.707,306698.361,,38,of
