sender,sender_type,sender_id,timestamp,meta,,Blues,Classical,Country,Dance,Electronic,Folk,Gospel,Hip-Hop,Jazz,Latin,Musical/Film,New-age,Pop,Prolific_id,Provo_ID,R&B,Rap,Reggae,Religious,Rock,Soul,Swing,Traditional,age,artist_name,correct,correctResponse,distraction,duration,education,ended_on,familiarity,gender,headphone_check_performance,item,list,music_frequency,offensiveness,pleasantness,position_correct,preference,response,response_action,snippet_file,song_name,song_rating,sound,stimulus_1,stimulus_2,stimulus_3,text,time_commit,time_end,time_render,time_run,time_show,time_switch,url,word,word_ID
Prolific ID,html.Form,0,2022-04-27T11:13:08.193Z,"{""labjs_version"":""20.2.2"",""labjs_build"":{""flavor"":""production"",""commit"":""a25486e0c714a0ae2ce03ff94b7bb6896854dcfa""},""location"":""https://run.pavlovia.org/mvasilev/prolific3_music_b/"",""userAgent"":""Mozilla/5.0 (X11; CrOS x86_64 14388.61.0) AppleWebKit/537.36 (KHTML, like Gecko) Chrome/98.0.4758.107 Safari/537.36"",""platform"":""Linux x86_64"",""language"":""en-GB"",""locale"":""en-GB"",""timeZone"":""Europe/London"",""timezoneOffset"":-60,""screen_width"":1366,""screen_height"":768,""scroll_width"":1366,""scroll_height"":649,""window_innerWidth"":1366,""window_innerHeight"":697,""devicePixelRatio"":1}",,,,,,,,,,,,,,,6148574991df9ef24fea8fd1,,,,,,,,,,,,,,,25063.94799999851,,form submission,,,,,,,,,,,,,,,,,,,,,49107.20000000298,49105.89999999851,23991.969,23993.39999999851,24041.952,49133.487,{},,
Introduction,html.Screen,1_0,2022-04-27T11:14:10.888Z,,,,,,,,,,,,,,,,,,,,,,,,,,,,,,,62653.41299999851,,response,,,,,,,,,,,continue,click button,,,,,,,,,111802.39999999851,111786.89999999851,49116.826,49107.89999999851,49133.487,111812.328,,,
Volume calibration,html.Screen,1_1,2022-04-27T11:14:38.893Z,,,,,,,,,,,,,,,,,,,,,,,,,,,,,,,27978.672000000006,,response,,,,,,,,,,,continue,click button,,,,,,,,,139807.1000000015,139791,111779.006,111802.80000000447,111812.328,139802.875,,,
Task instructions,html.Screen,1_2,2022-04-27T11:14:51.293Z,,,,,,,,,,,,,,,,,,,,,,,,,,,,,,,12393.42500000447,,response,,,,,,,,,,,continue,click button,,,,,,,,,152206.8999999985,152196.30000000447,139786.214,139807.30000000447,139802.875,152215.332,,,
Sounds,html.Screen,1_3_0_0,2022-04-27T11:14:55.545Z,,,,,,,,,,,,,,,,,,,,,,,,,,,,,,,4248.58600000001,,timeout,,,,,,,,,2,,,,,,,,I,S,O,,156458.6000000015,156447.257,152198.671,152207.5,152215.332,156463.918,,,
Judgement,html.Screen,1_3_0_1,2022-04-27T11:14:56.835Z,,,,,,,,,,,,,,,,,,,,,,,,,,,,true,2,,1281.0819999999949,,response,,,,,,,,,2,,2,click #choice-2,,,,,I,S,O,,157749,157745,156447.257,156459.1000000015,156463.918,157763.491,,,
Trial,flow.Sequence,1_3_0,2022-04-27T11:14:56.836Z,,,,,,,,,,,,,,,,,,,,,,,,,,,,,,,5529.668000000005,,completion,,,,,,,,,2,,,,,,,,I,S,O,,157750.3999999985,157745,152198.671,152207.3999999985,152215.332,157763.491,,,
Sounds,html.Screen,1_3_1_0,2022-04-27T11:15:01.084Z,,,,,,,,,,,,,,,,,,,,,,,,,,,,,,,4248.53899999999,,timeout,,,,,,,,,3,,,,,,,,O,I,S,,161998.20000000298,161995.369,157746.83,157751.30000000447,157763.491,162012.03,,,
Judgement,html.Screen,1_3_1_1,2022-04-27T11:15:02.203Z,,,,,,,,,,,,,,,,,,,,,,,,,,,,true,3,,1099.369999998511,,response,,,,,,,,,3,,3,click #choice-3,,,,,O,I,S,,163116.6000000015,163111.3999999985,161995.369,161999.3999999985,162012.03,163128.335,,,
Trial,flow.Sequence,1_3_1,2022-04-27T11:15:02.204Z,,,,,,,,,,,,,,,,,,,,,,,,,,,,,,,5347.908999998501,,completion,,,,,,,,,3,,,,,,,,O,I,S,,163118.1000000015,163111.3999999985,157746.83,157750.80000000447,157763.491,163128.335,,,
Sounds,html.Screen,1_3_2_0,2022-04-27T11:15:06.449Z,,,,,,,,,,,,,,,,,,,,,,,,,,,,,,,4248.555000000022,,timeout,,,,,,,,,1,,,,,,,,S,I,O,,167363.20000000298,167360.229,163111.674,163119.3999999985,163128.335,167376.89,,,
Judgement,html.Screen,1_3_2_1,2022-04-27T11:15:07.454Z,,,,,,,,,,,,,,,,,,,,,,,,,,,,true,1,,985.7100000014761,,response,,,,,,,,,1,,1,click #choice-1,,,,,S,I,O,,168367.70000000298,168362.6000000015,167360.229,167364.1000000015,167376.89,168376.563,,,
Trial,flow.Sequence,1_3_2,2022-04-27T11:15:07.456Z,,,,,,,,,,,,,,,,,,,,,,,,,,,,,,,5234.265000001498,,completion,,,,,,,,,1,,,,,,,,S,I,O,,168369.5,168362.6000000015,163111.674,163119,163128.335,168376.563,,,
Sounds,html.Screen,1_3_3_0,2022-04-27T11:15:11.698Z,,,,,,,,,,,,,,,,,,,,,,,,,,,,,,,4248.554999999993,,timeout,,,,,,,,,1,,,,,,,,S,O,I,,172611.8999999985,172608.457,168359.902,168370.70000000298,168376.563,172625.118,,,
Judgement,html.Screen,1_3_3_1,2022-04-27T11:15:12.166Z,,,,,,,,,,,,,,,,,,,,,,,,,,,,true,1,,449.98200000150246,,response,,,,,,,,,1,,1,click #choice-1,,,,,S,O,I,,173080.1000000015,173075.1000000015,172608.457,172612.8999999985,172625.118,173091.637,,,
Trial,flow.Sequence,1_3_3,2022-04-27T11:15:12.167Z,,,,,,,,,,,,,,,,,,,,,,,,,,,,,,,4698.5370000014955,,completion,,,,,,,,,1,,,,,,,,S,O,I,,173080.8999999985,173075.1000000015,168359.902,168370.30000000447,168376.563,173091.637,,,
Sounds,html.Screen,1_3_4_0,2022-04-27T11:15:16.414Z,,,,,,,,,,,,,,,,,,,,,,,,,,,,,,,4248.553000000014,,timeout,,,,,,,,,2,,,,,,,,O,S,I,,177328.3999999985,177323.529,173074.976,173081.5,173091.637,177340.19,,,
Judgement,html.Screen,1_3_4_1,2022-04-27T11:15:16.918Z,,,,,,,,,,,,,,,,,,,,,,,,,,,,true,2,,486.110000004468,,response,,,,,,,,,2,,2,click #choice-2,,,,,O,S,I,,177831.70000000298,177826.30000000447,177323.529,177329.20000000298,177340.19,177840.044,,,
Trial,flow.Sequence,1_3_4,2022-04-27T11:15:16.920Z,,,,,,,,,,,,,,,,,,,,,,,,,,,,,,,4734.6630000044825,,completion,,,,,,,,,2,,,,,,,,O,S,I,,177833.80000000447,177826.30000000447,173074.976,173081.30000000447,173091.637,177840.044,,,
Sounds,html.Screen,1_3_5_0,2022-04-27T11:15:21.162Z,,,,,,,,,,,,,,,,,,,,,,,,,,,,,,,4248.559999999998,,timeout,,,,,,,,,3,,,,,,,,I,O,S,,182075.5,182071.943,177823.383,177835.3999999985,177840.044,182088.604,,,
Judgement,html.Screen,1_3_5_1,2022-04-27T11:15:21.793Z,,,,,,,,,,,,,,,,,,,,,,,,,,,,true,3,,613.5960000029881,,response,,,,,,,,,3,,3,click #choice-3,,,,,I,O,S,,182707.20000000298,182702.20000000298,182071.943,182077,182088.604,182738.375,,,
Trial,flow.Sequence,1_3_5,2022-04-27T11:15:21.794Z,,,,,,,,,,,,,,,,,,,,,,,,,,,,,,,4862.156000002986,,completion,,,,,,,,,3,,,,,,,,I,O,S,,182708.1000000015,182702.20000000298,177823.383,177834.8999999985,177840.044,182738.375,,,
Task,flow.Loop,1_3,2022-04-27T11:15:21.811Z,,,,,,,,,,,,,,,,,,,,,,,,,,,,,,,30486.868000002985,,completion,,,1,,,,,,,,,,,,,,,,,,182725.3999999985,182702.20000000298,152198.671,152207.30000000447,152215.332,182738.375,,,
Trap,html.Screen,1_4,2022-04-27T11:15:21.815Z,,,,,,,,,,,,,,,,,,,,,,,,,,,,,,,NaN,,skipped,,,,,,,,,,,,,,,,,,,,,182728.80000000447,182702.20000000298,,182728.1000000015,,182738.375,,,
Thanks,html.Screen,1_5,2022-04-27T11:15:26.765Z,,,,,,,,,,,,,,,,,,,,,,,,,,,,,,,4935.92500000447,,response,,,,,,,,,,,continue,click button,,,,,,,,,187679.3999999985,187674.30000000447,182705.053,182729.1000000015,182738.375,191718.668,,,
Headphone screening,flow.Sequence,1,2022-04-27T11:15:26.766Z,,,,,,,,,,,,,,,,,,,,,,,,,,,,,,,138540.81300000448,,completion,,,,,,,,,,,,,,,,,,,,,187680.1000000015,187674.30000000447,49116.826,49107.80000000447,49133.487,191718.668,,,
Instructions,html.Page,2_0,2022-04-27T11:15:55.733Z,,,,,,,,,,,,,,,,,,,,,,,,,,,,,,,24927.331999999995,,form submission,,,,,,,,,,,,,,,,,,,,,216646.8999999985,216646,191702.007,191720.1000000015,191718.668,216660.258,,,
Holding screen,html.Screen,2_1_0_0,2022-04-27T11:16:05.730Z,,,,,,,,,,,,,,,,,,,,,,,,,,,,,,,10013.28899999999,,timeout,,,,,,,,,,,,,,,,,,,,,226644,226640.225,216626.936,216647.5,216660.258,226673.547,,,
screen,html.Screen,2_1_0_1_0,2022-04-27T11:16:06.631Z,,,,,,,,,,,,,,,,,53,,,,,,,,,,,,,,857.5530000014987,,response,,,,99,,,,,,,Space,keypress(Space),,,,,,,,When -- ----- -- ------ - ------- --- ----------<br>------------- ------ ------ ---- ---- ------- ----- -- ----<br>-------- ------- -- ---------- --- - --- ----- ----- ----<br>---- --- --- ----- --- ---- ---- ------- ----- ---- -------<br>--- --- -- ----- -- --- ---- -- --- ---- -- ------ ------<br>--- ----- -- ----,227545.30000000447,227531.1000000015,226640.225,226645.6000000015,226673.547,227556.588,,0,When
screen,html.Screen,2_1_0_1_1,2022-04-27T11:16:07.324Z,,,,,,,,,,,,,,,,,53,,,,,,,,,,,,,,676.3119999985211,,response,,,,99,,,,,,,Space,keypress(Space),,,,,,,,---- it ----- -- ------ - ------- --- ----------<br>------------- ------ ------ ---- ---- ------- ----- -- ----<br>-------- ------- -- ---------- --- - --- ----- ----- ----<br>---- --- --- ----- --- ---- ---- ------- ----- ---- -------<br>--- --- -- ----- -- --- ---- -- --- ---- -- ------ ------<br>--- ----- -- ----,228238.30000000447,228232.8999999985,227539.927,227545.6000000015,227556.588,228256.344,,1,it
screen,html.Screen,2_1_0_1_2,2022-04-27T11:16:08.134Z,,,,,,,,,,,,,,,,,53,,,,,,,,,,,,,,784.555999998498,,response,,,,99,,,,,,,Space,keypress(Space),,,,,,,,---- -- comes -- ------ - ------- --- ----------<br>------------- ------ ------ ---- ---- ------- ----- -- ----<br>-------- ------- -- ---------- --- - --- ----- ----- ----<br>---- --- --- ----- --- ---- ---- ------- ----- ---- -------<br>--- --- -- ----- -- --- ---- -- --- ---- -- ------ ------<br>--- ----- -- ----,229047.6000000015,229040.8999999985,228239.683,228238.70000000298,228256.344,229056.077,,2,comes
screen,html.Screen,2_1_0_1_3,2022-04-27T11:16:08.818Z,,,,,,,,,,,,,,,,,53,,,,,,,,,,,,,,670.3229999985197,,response,,,,99,,,,,,,Space,keypress(Space),,,,,,,,---- -- ----- to ------ - ------- --- ----------<br>------------- ------ ------ ---- ---- ------- ----- -- ----<br>-------- ------- -- ---------- --- - --- ----- ----- ----<br>---- --- --- ----- --- ---- ---- ------- ----- ---- -------<br>--- --- -- ----- -- --- ---- -- --- ---- -- ------ ------<br>--- ----- -- ----,229731.8999999985,229726.3999999985,229039.416,229048.5,229056.077,229739.177,,3,to
screen,html.Screen,2_1_0_1_4,2022-04-27T11:16:09.734Z,,,,,,,,,,,,,,,,,53,,,,,,,,,,,,,,902.0230000029842,,response,,,,99,,,,,,,Space,keypress(Space),,,,,,,,---- -- ----- -- having - ------- --- ----------<br>------------- ------ ------ ---- ---- ------- ----- -- ----<br>-------- ------- -- ---------- --- - --- ----- ----- ----<br>---- --- --- ----- --- ---- ---- ------- ----- ---- -------<br>--- --- -- ----- -- --- ---- -- --- ---- -- ------ ------<br>--- ----- -- ----,230648,230641.20000000298,229722.516,229733.1000000015,229739.177,230655.543,,4,having
screen,html.Screen,2_1_0_1_5,2022-04-27T11:16:10.340Z,,,,,,,,,,,,,,,,,53,,,,,,,,,,,,,,588.4569999999949,,response,,,,99,,,,,,,Space,keypress(Space),,,,,,,,---- -- ----- -- ------ a ------- --- ----------<br>------------- ------ ------ ---- ---- ------- ----- -- ----<br>-------- ------- -- ---------- --- - --- ----- ----- ----<br>---- --- --- ----- --- ---- ---- ------- ----- ---- -------<br>--- --- -- ----- -- --- ---- -- --- ---- -- ------ ------<br>--- ----- -- ----,231254.5,231244,230638.882,230649,230655.543,231271.992,,5,a
screen,html.Screen,2_1_0_1_6,2022-04-27T11:16:11.249Z,,,,,,,,,,,,,,,,,53,,,,,,,,,,,,,,883.308000004472,,response,,,,99,,,,,,,Space,keypress(Space),,,,,,,,---- -- ----- -- ------ - lasting --- ----------<br>------------- ------ ------ ---- ---- ------- ----- -- ----<br>-------- ------- -- ---------- --- - --- ----- ----- ----<br>---- --- --- ----- --- ---- ---- ------- ----- ---- -------<br>--- --- -- ----- -- --- ---- -- --- ---- -- ------ ------<br>--- ----- -- ----,232163.1000000015,232155.30000000447,231255.331,231254.70000000298,231271.992,232171.689,,6,lasting
screen,html.Screen,2_1_0_1_7,2022-04-27T11:16:12.049Z,,,,,,,,,,,,,,,,,53,,,,,,,,,,,,,,782.6110000044573,,response,,,,99,,,,,,,Space,keypress(Space),,,,,,,,---- -- ----- -- ------ - ------- and ----------<br>------------- ------ ------ ---- ---- ------- ----- -- ----<br>-------- ------- -- ---------- --- - --- ----- ----- ----<br>---- --- --- ----- --- ---- ---- ------- ----- ---- -------<br>--- --- -- ----- -- --- ---- -- --- ---- -- ------ ------<br>--- ----- -- ----,232963.3999999985,232954.30000000447,232155.028,232164.20000000298,232171.689,232971.422,,7,and
screen,html.Screen,2_1_0_1_8,2022-04-27T11:16:12.736Z,,,,,,,,,,,,,,,,,53,,,,,,,,,,,,,,673.378000004479,,response,,,,99,,,,,,,Space,keypress(Space),,,,,,,,---- -- ----- -- ------ - ------- --- fulfilling<br>------------- ------ ------ ---- ---- ------- ----- -- ----<br>-------- ------- -- ---------- --- - --- ----- ----- ----<br>---- --- --- ----- --- ---- ---- ------- ----- ---- -------<br>--- --- -- ----- -- --- ---- -- --- ---- -- ------ ------<br>--- ----- -- ----,233649.8999999985,233644.80000000447,232954.761,232964.5,232971.422,233671.184,,8,fulfilling
screen,html.Screen,2_1_0_1_9,2022-04-27T11:16:13.222Z,,,,,,,,,,,,,,,,,53,,,,,,,,,,,,,,460.8159999999916,,response,,,,99,,,,,,,Space,keypress(Space),,,,,,,,"---- -- ----- -- ------ - ------- --- ----------<br>relationship, ------ ------ ---- ---- ------- ----- -- ----<br>-------- ------- -- ---------- --- - --- ----- ----- ----<br>---- --- --- ----- --- ---- ---- ------- ----- ---- -------<br>--- --- -- ----- -- --- ---- -- --- ---- -- ------ ------<br>--- ----- -- ----",234135.8999999985,234132,233654.523,233650.80000000447,233671.184,234154.367,,9,"relationship,"
screen,html.Screen,2_1_0_1_10,2022-04-27T11:16:13.594Z,,,,,,,,,,,,,,,,,53,,,,,,,,,,,,,,348.0329999985115,,response,,,,99,,,,,,,Space,keypress(Space),,,,,,,,---- -- ----- -- ------ - ------- --- ----------<br>------------- common ------ ---- ---- ------- ----- -- ----<br>-------- ------- -- ---------- --- - --- ----- ----- ----<br>---- --- --- ----- --- ---- ---- ------- ----- ---- -------<br>--- --- -- ----- -- --- ---- -- --- ---- -- ------ ------<br>--- ----- -- ----,234508.1000000015,234502.3999999985,234137.706,234136.3999999985,234154.367,234520.897,,10,common
screen,html.Screen,2_1_0_1_11,2022-04-27T11:16:14.498Z,,,,,,,,,,,,,,,,,53,,,,,,,,,,,,,,882.303000002983,,response,,,,99,,,,,,,Space,keypress(Space),,,,,,,,---- -- ----- -- ------ - ------- --- ----------<br>------------- ------ wisdom ---- ---- ------- ----- -- ----<br>-------- ------- -- ---------- --- - --- ----- ----- ----<br>---- --- --- ----- --- ---- ---- ------- ----- ---- -------<br>--- --- -- ----- -- --- ---- -- --- ---- -- ------ ------<br>--- ----- -- ----,235411.6000000015,235403.20000000298,234504.236,234509.3999999985,234520.897,235420.594,,11,wisdom
screen,html.Screen,2_1_0_1_12,2022-04-27T11:16:15.018Z,,,,,,,,,,,,,,,,,53,,,,,,,,,,,,,,505.305999998498,,response,,,,99,,,,,,,Space,keypress(Space),,,,,,,,---- -- ----- -- ------ - ------- --- ----------<br>------------- ------ ------ says ---- ------- ----- -- ----<br>-------- ------- -- ---------- --- - --- ----- ----- ----<br>---- --- --- ----- --- ---- ---- ------- ----- ---- -------<br>--- --- -- ----- -- --- ---- -- --- ---- -- ------ ------<br>--- ----- -- ----,235932.3999999985,235925.8999999985,235403.933,235412.5,235420.594,235937.1,,12,says
screen,html.Screen,2_1_0_1_13,2022-04-27T11:16:15.507Z,,,,,,,,,,,,,,,,,53,,,,,,,,,,,,,,477.2000000044645,,response,,,,99,,,,,,,Space,keypress(Space),,,,,,,,---- -- ----- -- ------ - ------- --- ----------<br>------------- ------ ------ ---- that ------- ----- -- ----<br>-------- ------- -- ---------- --- - --- ----- ----- ----<br>---- --- --- ----- --- ---- ---- ------- ----- ---- -------<br>--- --- -- ----- -- --- ---- -- --- ---- -- ------ ------<br>--- ----- -- ----,236420.80000000447,236414.30000000447,235920.439,235932.8999999985,235937.1,236436.911,,13,that
screen,html.Screen,2_1_0_1_14,2022-04-27T11:16:15.962Z,,,,,,,,,,,,,,,,,53,,,,,,,,,,,,,,433.0890000000072,,response,,,,99,,,,,,,Space,keypress(Space),,,,,,,,---- -- ----- -- ------ - ------- --- ----------<br>------------- ------ ------ ---- ---- feeling ----- -- ----<br>-------- ------- -- ---------- --- - --- ----- ----- ----<br>---- --- --- ----- --- ---- ---- ------- ----- ---- -------<br>--- --- -- ----- -- --- ---- -- --- ---- -- ------ ------<br>--- ----- -- ----,236876.1000000015,236870,236420.25,236421.20000000298,236436.911,236886.768,,14,feeling
screen,html.Screen,2_1_0_1_15,2022-04-27T11:16:16.506Z,,,,,,,,,,,,,,,,,53,,,,,,,,,,,,,,527.9320000029693,,response,,,,99,,,,,,,Space,keypress(Space),,,,,,,,---- -- ----- -- ------ - ------- --- ----------<br>------------- ------ ------ ---- ---- ------- close -- ----<br>-------- ------- -- ---------- --- - --- ----- ----- ----<br>---- --- --- ----- --- ---- ---- ------- ----- ---- -------<br>--- --- -- ----- -- --- ---- -- --- ---- -- ------ ------<br>--- ----- -- ----,237420.1000000015,237414.70000000298,236870.107,236877.3999999985,236886.768,237436.577,,15,close
screen,html.Screen,2_1_0_1_16,2022-04-27T11:16:16.948Z,,,,,,,,,,,,,,,,,53,,,,,,,,,,,,,,416.2230000044801,,response,,,,99,,,,,,,Space,keypress(Space),,,,,,,,---- -- ----- -- ------ - ------- --- ----------<br>------------- ------ ------ ---- ---- ------- ----- to ----<br>-------- ------- -- ---------- --- - --- ----- ----- ----<br>---- --- --- ----- --- ---- ---- ------- ----- ---- -------<br>--- --- -- ----- -- --- ---- -- --- ---- -- ------ ------<br>--- ----- -- ----,237861.6000000015,237852.80000000447,237419.916,237421.6000000015,237436.577,237869.764,,16,to
screen,html.Screen,2_1_0_1_17,2022-04-27T11:16:17.769Z,,,,,,,,,,,,,,,,,53,,,,,,,,,,,,,,809.4360000029847,,response,,,,99,,,,,,,Space,keypress(Space),,,,,,,,---- -- ----- -- ------ - ------- --- ----------<br>------------- ------ ------ ---- ---- ------- ----- -- your<br>-------- ------- -- ---------- --- - --- ----- ----- ----<br>---- --- --- ----- --- ---- ---- ------- ----- ---- -------<br>--- --- -- ----- -- --- ---- -- --- ---- -- ------ ------<br>--- ----- -- ----,238683.3999999985,238679.20000000298,237853.103,237863.70000000298,237869.764,238686.155,,17,your
screen,html.Screen,2_1_0_1_18,2022-04-27T11:16:18.373Z,,,,,,,,,,,,,,,,,53,,,,,,,,,,,,,,598.4450000014913,,response,,,,99,,,,,,,Space,keypress(Space),,,,,,,,---- -- ----- -- ------ - ------- --- ----------<br>------------- ------ ------ ---- ---- ------- ----- -- ----<br>romantic ------- -- ---------- --- - --- ----- ----- ----<br>---- --- --- ----- --- ---- ---- ------- ----- ---- -------<br>--- --- -- ----- -- --- ---- -- --- ---- -- ------ ------<br>--- ----- -- ----,239286.8999999985,239284.6000000015,238669.494,238684,238686.155,239302.622,,18,romantic
screen,html.Screen,2_1_0_1_19,2022-04-27T11:16:18.797Z,,,,,,,,,,,,,,,,,53,,,,,,,,,,,,,,401.6780000044673,,response,,,,99,,,,,,,Space,keypress(Space),,,,,,,,---- -- ----- -- ------ - ------- --- ----------<br>------------- ------ ------ ---- ---- ------- ----- -- ----<br>-------- partner -- ---------- --- - --- ----- ----- ----<br>---- --- --- ----- --- ---- ---- ------- ----- ---- -------<br>--- --- -- ----- -- --- ---- -- --- ---- -- ------ ------<br>--- ----- -- ----,239710.5,239704.30000000447,239285.961,239287.30000000447,239302.622,239719.138,,19,partner
screen,html.Screen,2_1_0_1_20,2022-04-27T11:16:19.206Z,,,,,,,,,,,,,,,,,53,,,,,,,,,,,,,,393.16200000446406,,response,,,,99,,,,,,,Space,keypress(Space),,,,,,,,---- -- ----- -- ------ - ------- --- ----------<br>------------- ------ ------ ---- ---- ------- ----- -- ----<br>-------- ------- is ---------- --- - --- ----- ----- ----<br>---- --- --- ----- --- ---- ---- ------- ----- ---- -------<br>--- --- -- ----- -- --- ---- -- --- ---- -- ------ ------<br>--- ----- -- ----,240119.8999999985,240112.30000000447,239702.477,239711.70000000298,239719.138,240135.678,,20,is
screen,html.Screen,2_1_0_1_21,2022-04-27T11:16:19.578Z,,,,,,,,,,,,,,,,,53,,,,,,,,,,,,,,349.0220000029658,,response,,,,99,,,,,,,Space,keypress(Space),,,,,,,,---- -- ----- -- ------ - ------- --- ----------<br>------------- ------ ------ ---- ---- ------- ----- -- ----<br>-------- ------- -- paramount. --- - --- ----- ----- ----<br>---- --- --- ----- --- ---- ---- ------- ----- ---- -------<br>--- --- -- ----- -- --- ---- -- --- ---- -- ------ ------<br>--- ----- -- ----,240492,240484.70000000298,240119.017,240121.1000000015,240135.678,240502.205,,21,paramount.
screen,html.Screen,2_1_0_1_22,2022-04-27T11:16:20.027Z,,,,,,,,,,,,,,,,,53,,,,,,,,,,,,,,432.7950000000128,,response,,,,99,,,,,,,Space,keypress(Space),,,,,,,,---- -- ----- -- ------ - ------- --- ----------<br>------------- ------ ------ ---- ---- ------- ----- -- ----<br>-------- ------- -- ---------- But - --- ----- ----- ----<br>---- --- --- ----- --- ---- ---- ------- ----- ---- -------<br>--- --- -- ----- -- --- ---- -- --- ---- -- ------ ------<br>--- ----- -- ----,240940.8999999985,240935,240485.544,240492.80000000447,240502.205,240952.073,,22,But
screen,html.Screen,2_1_0_1_23,2022-04-27T11:16:20.499Z,,,,,,,,,,,,,,,,,53,,,,,,,,,,,,,,456.1270000029763,,response,,,,99,,,,,,,Space,keypress(Space),,,,,,,,---- -- ----- -- ------ - ------- --- ----------<br>------------- ------ ------ ---- ---- ------- ----- -- ----<br>-------- ------- -- ---------- --- a --- ----- ----- ----<br>---- --- --- ----- --- ---- ---- ------- ----- ---- -------<br>--- --- -- ----- -- --- ---- -- --- ---- -- ------ ------<br>--- ----- -- ----,241413,241408.20000000298,240935.412,240942.30000000447,240952.073,241418.572,,23,a
screen,html.Screen,2_1_0_1_24,2022-04-27T11:16:20.749Z,,,,,,,,,,,,,,,,,53,,,,,,,,,,,,,,238.32799999852432,,response,,,,99,,,,,,,Space,keypress(Space),,,,,,,,---- -- ----- -- ------ - ------- --- ----------<br>------------- ------ ------ ---- ---- ------- ----- -- ----<br>-------- ------- -- ---------- --- - new ----- ----- ----<br>---- --- --- ----- --- ---- ---- ------- ----- ---- -------<br>--- --- -- ----- -- --- ---- -- --- ---- -- ------ ------<br>--- ----- -- ----,241663.20000000298,241656.8999999985,241401.911,241413.5,241418.572,241685.151,,24,new
screen,html.Screen,2_1_0_1_25,2022-04-27T11:16:21.250Z,,,,,,,,,,,,,,,,,53,,,,,,,,,,,,,,472.7489999984973,,response,,,,99,,,,,,,Space,keypress(Space),,,,,,,,---- -- ----- -- ------ - ------- --- ----------<br>------------- ------ ------ ---- ---- ------- ----- -- ----<br>-------- ------- -- ---------- --- - --- study ----- ----<br>---- --- --- ----- --- ---- ---- ------- ----- ---- -------<br>--- --- -- ----- -- --- ---- -- --- ---- -- ------ ------<br>--- ----- -- ----,242164.30000000447,242157.8999999985,241668.49,241664.3999999985,241685.151,242184.973,,25,study
screen,html.Screen,2_1_0_1_26,2022-04-27T11:16:21.535Z,,,,,,,,,,,,,,,,,53,,,,,,,,,,,,,,257.2270000029821,,response,,,,99,,,,,,,Space,keypress(Space),,,,,,,,---- -- ----- -- ------ - ------- --- ----------<br>------------- ------ ------ ---- ---- ------- ----- -- ----<br>-------- ------- -- ---------- --- - --- ----- finds ----<br>---- --- --- ----- --- ---- ---- ------- ----- ---- -------<br>--- --- -- ----- -- --- ---- -- --- ---- -- ------ ------<br>--- ----- -- ----,242449.3999999985,242442.20000000298,242168.312,242165.20000000298,242184.973,242468.218,,26,finds
screen,html.Screen,2_1_0_1_27,2022-04-27T11:16:21.736Z,,,,,,,,,,,,,,,,,53,,,,,,,,,,,,,,177.58200000447687,,response,,,,99,,,,,,,Space,keypress(Space),,,,,,,,---- -- ----- -- ------ - ------- --- ----------<br>------------- ------ ------ ---- ---- ------- ----- -- ----<br>-------- ------- -- ---------- --- - --- ----- ----- that<br>---- --- --- ----- --- ---- ---- ------- ----- ---- -------<br>--- --- -- ----- -- --- ---- -- --- ---- -- ------ ------<br>--- ----- -- ----,242649.80000000447,242645.80000000447,242451.557,242450.3999999985,242468.218,242668.158,,27,that
screen,html.Screen,2_1_0_1_28,2022-04-27T11:16:22.288Z,,,,,,,,,,,,,,,,,53,,,,,,,,,,,,,,528.2419999985141,,response,,,,99,,,,,,,Space,keypress(Space),,,,,,,,---- -- ----- -- ------ - ------- --- ----------<br>------------- ------ ------ ---- ---- ------- ----- -- ----<br>-------- ------- -- ---------- --- - --- ----- ----- ----<br>it's --- --- ----- --- ---- ---- ------- ----- ---- -------<br>--- --- -- ----- -- --- ---- -- --- ---- -- ------ ------<br>--- ----- -- ----,243202.3999999985,243196.3999999985,242651.497,242650.30000000447,242668.158,243217.964,,28,it's
screen,html.Screen,2_1_0_1_29,2022-04-27T11:16:22.595Z,,,,,,,,,,,,,,,,,53,,,,,,,,,,,,,,285.5359999999928,,response,,,,99,,,,,,,Space,keypress(Space),,,,,,,,---- -- ----- -- ------ - ------- --- ----------<br>------------- ------ ------ ---- ---- ------- ----- -- ----<br>-------- ------- -- ---------- --- - --- ----- ----- ----<br>---- not --- ----- --- ---- ---- ------- ----- ---- -------<br>--- --- -- ----- -- --- ---- -- --- ---- -- ------ ------<br>--- ----- -- ----,243508.70000000298,243503.5,243201.303,243203.3999999985,243217.964,243517.872,,29,not
screen,html.Screen,2_1_0_1_30,2022-04-27T11:16:22.786Z,,,,,,,,,,,,,,,,,53,,,,,,,,,,,,,,177.3280000029772,,response,,,,99,,,,,,,Space,keypress(Space),,,,,,,,---- -- ----- -- ------ - ------- --- ----------<br>------------- ------ ------ ---- ---- ------- ----- -- ----<br>-------- ------- -- ---------- --- - --- ----- ----- ----<br>---- --- how ----- --- ---- ---- ------- ----- ---- -------<br>--- --- -- ----- -- --- ---- -- --- ---- -- ------ ------<br>--- ----- -- ----,243700.3999999985,243695.20000000298,243501.211,243509,243517.872,243717.791,,30,how
screen,html.Screen,2_1_0_1_31,2022-04-27T11:16:23.477Z,,,,,,,,,,,,,,,,,53,,,,,,,,,,,,,,668.0090000044729,,response,,,,99,,,,,,,Space,keypress(Space),,,,,,,,---- -- ----- -- ------ - ------- --- ----------<br>------------- ------ ------ ---- ---- ------- ----- -- ----<br>-------- ------- -- ---------- --- - --- ----- ----- ----<br>---- --- --- close --- ---- ---- ------- ----- ---- -------<br>--- --- -- ----- -- --- ---- -- --- ---- -- ------ ------<br>--- ----- -- ----,244391.20000000298,244385.80000000447,243701.13,243701,243717.791,244400.903,,31,close
screen,html.Screen,2_1_0_1_32,2022-04-27T11:16:23.870Z,,,,,,,,,,,,,,,,,53,,,,,,,,,,,,,,377.3970000044792,,response,,,,99,,,,,,,Space,keypress(Space),,,,,,,,---- -- ----- -- ------ - ------- --- ----------<br>------------- ------ ------ ---- ---- ------- ----- -- ----<br>-------- ------- -- ---------- --- - --- ----- ----- ----<br>---- --- --- ----- you ---- ---- ------- ----- ---- -------<br>--- --- -- ----- -- --- ---- -- --- ---- -- ------ ------<br>--- ----- -- ----,244784.1000000015,244778.30000000447,244384.242,244392.1000000015,244400.903,244800.756,,32,you
screen,html.Screen,2_1_0_1_33,2022-04-27T11:16:24.405Z,,,,,,,,,,,,,,,,,53,,,,,,,,,,,,,,512.0440000044764,,response,,,,99,,,,,,,Space,keypress(Space),,,,,,,,---- -- ----- -- ------ - ------- --- ----------<br>------------- ------ ------ ---- ---- ------- ----- -- ----<br>-------- ------- -- ---------- --- - --- ----- ----- ----<br>---- --- --- ----- --- feel ---- ------- ----- ---- -------<br>--- --- -- ----- -- --- ---- -- --- ---- -- ------ ------<br>--- ----- -- ----,245319.30000000447,245312.80000000447,244784.095,244785.30000000447,244800.756,245333.909,,33,feel
screen,html.Screen,2_1_0_1_34,2022-04-27T11:16:25.793Z,,,,,,,,,,,,,,,,,53,,,,,,,,,,,,,,1368.0909999999858,,response,,,,99,,,,,,,Space,keypress(Space),,,,,,,,---- -- ----- -- ------ - ------- --- ----------<br>------------- ------ ------ ---- ---- ------- ----- -- ----<br>-------- ------- -- ---------- --- - --- ----- ----- ----<br>---- --- --- ----- --- ---- that ------- ----- ---- -------<br>--- --- -- ----- -- --- ---- -- --- ---- -- ------ ------<br>--- ----- -- ----,246707.3999999985,246702,245317.248,245320.5,245333.909,246716.789,,34,that
screen,html.Screen,2_1_0_1_35,2022-04-27T11:16:26.272Z,,,,,,,,,,,,,,,,,53,,,,,,,,,,,,,,464.11099999852013,,response,,,,99,,,,,,,Space,keypress(Space),,,,,,,,---- -- ----- -- ------ - ------- --- ----------<br>------------- ------ ------ ---- ---- ------- ----- -- ----<br>-------- ------- -- ---------- --- - --- ----- ----- ----<br>---- --- --- ----- --- ---- ---- matters ----- ---- -------<br>--- --- -- ----- -- --- ---- -- --- ---- -- ------ ------<br>--- ----- -- ----,247185.80000000447,247180.8999999985,246700.128,246708.20000000298,246716.789,247199.958,,35,matters
screen,html.Screen,2_1_0_1_36,2022-04-27T11:16:26.652Z,,,,,,,,,,,,,,,,,53,,,,,,,,,,,,,,357.74200000296696,,response,,,,99,,,,,,,Space,keypress(Space),,,,,,,,"---- -- ----- -- ------ - ------- --- ----------<br>------------- ------ ------ ---- ---- ------- ----- -- ----<br>-------- ------- -- ---------- --- - --- ----- ----- ----<br>---- --- --- ----- --- ---- ---- ------- most, ---- -------<br>--- --- -- ----- -- --- ---- -- --- ---- -- ------ ------<br>--- ----- -- ----",247565.8999999985,247557.70000000298,247183.297,247186.6000000015,247199.958,247583.151,,36,"most,"
screen,html.Screen,2_1_0_1_37,2022-04-27T11:16:27.100Z,,,,,,,,,,,,,,,,,53,,,,,,,,,,,,,,421.94900000147754,,response,,,,99,,,,,,,Space,keypress(Space),,,,,,,,---- -- ----- -- ------ - ------- --- ----------<br>------------- ------ ------ ---- ---- ------- ----- -- ----<br>-------- ------- -- ---------- --- - --- ----- ----- ----<br>---- --- --- ----- --- ---- ---- ------- ----- it's -------<br>--- --- -- ----- -- --- ---- -- --- ---- -- ------ ------<br>--- ----- -- ----,248013.80000000447,248005.1000000015,247566.49,247566.5,247583.151,248033.013,,37,it's
screen,html.Screen,2_1_0_1_38,2022-04-27T11:16:27.465Z,,,,,,,,,,,,,,,,,53,,,,,,,,,,,,,,338.28700000446406,,response,,,,99,,,,,,,Space,keypress(Space),,,,,,,,---- -- ----- -- ------ - ------- --- ----------<br>------------- ------ ------ ---- ---- ------- ----- -- ----<br>-------- ------- -- ---------- --- - --- ----- ----- ----<br>---- --- --- ----- --- ---- ---- ------- ----- ---- whether<br>--- --- -- ----- -- --- ---- -- --- ---- -- ------ ------<br>--- ----- -- ----,248378.5,248371.30000000447,248016.352,248015,248033.013,248382.881,,38,whether
screen,html.Screen,2_1_0_1_39,2022-04-27T11:16:27.749Z,,,,,,,,,,,,,,,,,53,,,,,,,,,,,,,,275.9190000044764,,response,,,,99,,,,,,,Space,keypress(Space),,,,,,,,---- -- ----- -- ------ - ------- --- ----------<br>------------- ------ ------ ---- ---- ------- ----- -- ----<br>-------- ------- -- ---------- --- - --- ----- ----- ----<br>---- --- --- ----- --- ---- ---- ------- ----- ---- -------<br>you --- -- ----- -- --- ---- -- --- ---- -- ------ ------<br>--- ----- -- ----,248662.70000000298,248658.80000000447,248366.22,248378.8999999985,248382.881,248682.795,,39,you
screen,html.Screen,2_1_0_1_40,2022-04-27T11:16:28.017Z,,,,,,,,,,,,,,,,,53,,,,,,,,,,,,,,242.7049999999872,,response,,,,99,,,,,,,Space,keypress(Space),,,,,,,,---- -- ----- -- ------ - ------- --- ----------<br>------------- ------ ------ ---- ---- ------- ----- -- ----<br>-------- ------- -- ---------- --- - --- ----- ----- ----<br>---- --- --- ----- --- ---- ---- ------- ----- ---- -------<br>--- are -- ----- -- --- ---- -- --- ---- -- ------ ------<br>--- ----- -- ----,248931.5,248925.5,248666.134,248666.3999999985,248682.795,248949.365,,40,are
screen,html.Screen,2_1_0_1_41,2022-04-27T11:16:28.233Z,,,,,,,,,,,,,,,,,53,,,,,,,,,,,,,,193.6350000000093,,response,,,,99,,,,,,,Space,keypress(Space),,,,,,,,---- -- ----- -- ------ - ------- --- ----------<br>------------- ------ ------ ---- ---- ------- ----- -- ----<br>-------- ------- -- ---------- --- - --- ----- ----- ----<br>---- --- --- ----- --- ---- ---- ------- ----- ---- -------<br>--- --- as ----- -- --- ---- -- --- ---- -- ------ ------<br>--- ----- -- ----,249146.6000000015,249143,248932.704,248931.80000000447,248949.365,249165.966,,41,as
screen,html.Screen,2_1_0_1_42,2022-04-27T11:16:28.436Z,,,,,,,,,,,,,,,,,53,,,,,,,,,,,,,,176.5340000000142,,response,,,,99,,,,,,,Space,keypress(Space),,,,,,,,---- -- ----- -- ------ - ------- --- ----------<br>------------- ------ ------ ---- ---- ------- ----- -- ----<br>-------- ------- -- ---------- --- - --- ----- ----- ----<br>---- --- --- ----- --- ---- ---- ------- ----- ---- -------<br>--- --- -- close -- --- ---- -- --- ---- -- ------ ------<br>--- ----- -- ----,249350.20000000298,249342.5,249149.305,249147.5,249165.966,249365.899,,42,close
screen,html.Screen,2_1_0_1_43,2022-04-27T11:16:28.884Z,,,,,,,,,,,,,,,,,53,,,,,,,,,,,,,,425.40100000446546,,response,,,,99,,,,,,,Space,keypress(Space),,,,,,,,---- -- ----- -- ------ - ------- --- ----------<br>------------- ------ ------ ---- ---- ------- ----- -- ----<br>-------- ------- -- ---------- --- - --- ----- ----- ----<br>---- --- --- ----- --- ---- ---- ------- ----- ---- -------<br>--- --- -- ----- as --- ---- -- --- ---- -- ------ ------<br>--- ----- -- ----,249798.5,249791.30000000447,249349.238,249351.3999999985,249365.899,249815.728,,43,as
screen,html.Screen,2_1_0_1_44,2022-04-27T11:16:29.160Z,,,,,,,,,,,,,,,,,53,,,,,,,,,,,,,,249.57200000446755,,response,,,,99,,,,,,,Space,keypress(Space),,,,,,,,---- -- ----- -- ------ - ------- --- ----------<br>------------- ------ ------ ---- ---- ------- ----- -- ----<br>-------- ------- -- ---------- --- - --- ----- ----- ----<br>---- --- --- ----- --- ---- ---- ------- ----- ---- -------<br>--- --- -- ----- -- you ---- -- --- ---- -- ------ ------<br>--- ----- -- ----,250073.5,250065.30000000447,249799.067,249799.6000000015,249815.728,250082.307,,44,you
screen,html.Screen,2_1_0_1_45,2022-04-27T11:16:29.452Z,,,,,,,,,,,,,,,,,53,,,,,,,,,,,,,,276.6929999999993,,response,,,,99,,,,,,,Space,keypress(Space),,,,,,,,---- -- ----- -- ------ - ------- --- ----------<br>------------- ------ ------ ---- ---- ------- ----- -- ----<br>-------- ------- -- ---------- --- - --- ----- ----- ----<br>---- --- --- ----- --- ---- ---- ------- ----- ---- -------<br>--- --- -- ----- -- --- want -- --- ---- -- ------ ------<br>--- ----- -- ----,250365.80000000447,250359,250065.646,250073.80000000447,250082.307,250382.205,,45,want
screen,html.Screen,2_1_0_1_46,2022-04-27T11:16:29.800Z,,,,,,,,,,,,,,,,,53,,,,,,,,,,,,,,325.49500000299304,,response,,,,99,,,,,,,Space,keypress(Space),,,,,,,,---- -- ----- -- ------ - ------- --- ----------<br>------------- ------ ------ ---- ---- ------- ----- -- ----<br>-------- ------- -- ---------- --- - --- ----- ----- ----<br>---- --- --- ----- --- ---- ---- ------- ----- ---- -------<br>--- --- -- ----- -- --- ---- to --- ---- -- ------ ------<br>--- ----- -- ----,250713.70000000298,250707.70000000298,250365.544,250367,250382.205,250732.097,,46,to
screen,html.Screen,2_1_0_1_47,2022-04-27T11:16:30.209Z,,,,,,,,,,,,,,,,,53,,,,,,,,,,,,,,382.6030000029714,,response,,,,99,,,,,,,Space,keypress(Space),,,,,,,,"---- -- ----- -- ------ - ------- --- ----------<br>------------- ------ ------ ---- ---- ------- ----- -- ----<br>-------- ------- -- ---------- --- - --- ----- ----- ----<br>---- --- --- ----- --- ---- ---- ------- ----- ---- -------<br>--- --- -- ----- -- --- ---- -- be, ---- -- ------ ------<br>--- ----- -- ----",251122.70000000298,251114.70000000298,250715.436,250716.5,250732.097,251131.953,,47,"be,"
screen,html.Screen,2_1_0_1_48,2022-04-27T11:16:30.709Z,,,,,,,,,,,,,,,,,53,,,,,,,,,,,,,,484.2470000029716,,response,,,,99,,,,,,,Space,keypress(Space),,,,,,,,---- -- ----- -- ------ - ------- --- ----------<br>------------- ------ ------ ---- ---- ------- ----- -- ----<br>-------- ------- -- ---------- --- - --- ----- ----- ----<br>---- --- --- ----- --- ---- ---- ------- ----- ---- -------<br>--- --- -- ----- -- --- ---- -- --- even -- ------ ------<br>--- ----- -- ----,251622.6000000015,251616.20000000298,251115.292,251123.30000000447,251131.953,251631.784,,48,even
screen,html.Screen,2_1_0_1_49,2022-04-27T11:16:31.038Z,,,,,,,,,,,,,,,,,53,,,,,,,,,,,,,,314.51600000445615,,response,,,,99,,,,,,,Space,keypress(Space),,,,,,,,---- -- ----- -- ------ - ------- --- ----------<br>------------- ------ ------ ---- ---- ------- ----- -- ----<br>-------- ------- -- ---------- --- - --- ----- ----- ----<br>---- --- --- ----- --- ---- ---- ------- ----- ---- -------<br>--- --- -- ----- -- --- ---- -- --- ---- if ------ ------<br>--- ----- -- ----,251951.8999999985,251946.30000000447,251615.123,251623.30000000447,251631.784,251965.008,,49,if
screen,html.Screen,2_1_0_1_50,2022-04-27T11:16:31.240Z,,,,,,,,,,,,,,,,,53,,,,,,,,,,,,,,182.6920000029786,,response,,,,99,,,,,,,Space,keypress(Space),,,,,,,,---- -- ----- -- ------ - ------- --- ----------<br>------------- ------ ------ ---- ---- ------- ----- -- ----<br>-------- ------- -- ---------- --- - --- ----- ----- ----<br>---- --- --- ----- --- ---- ---- ------- ----- ---- -------<br>--- --- -- ----- -- --- ---- -- --- ---- -- that's ------<br>--- ----- -- ----,252154.3999999985,252147.70000000298,251948.347,251952.5,251965.008,252164.952,,50,that's
screen,html.Screen,2_1_0_1_51,2022-04-27T11:16:31.435Z,,,,,,,,,,,,,,,,,53,,,,,,,,,,,,,,178.1480000014999,,response,,,,99,,,,,,,Space,keypress(Space),,,,,,,,---- -- ----- -- ------ - ------- --- ----------<br>------------- ------ ------ ---- ---- ------- ----- -- ----<br>-------- ------- -- ---------- --- - --- ----- ----- ----<br>---- --- --- ----- --- ---- ---- ------- ----- ---- -------<br>--- --- -- ----- -- --- ---- -- --- ---- -- ------ really<br>--- ----- -- ----,252349.1000000015,252343.1000000015,252148.291,252154.80000000447,252164.952,252364.886,,51,really
screen,html.Screen,2_1_0_1_52,2022-04-27T11:16:32.061Z,,,,,,,,,,,,,,,,,53,,,,,,,,,,,,,,605.1140000000014,,response,,,,99,,,,,,,Space,keypress(Space),,,,,,,,---- -- ----- -- ------ - ------- --- ----------<br>------------- ------ ------ ---- ---- ------- ----- -- ----<br>-------- ------- -- ---------- --- - --- ----- ----- ----<br>---- --- --- ----- --- ---- ---- ------- ----- ---- -------<br>--- --- -- ----- -- --- ---- -- --- ---- -- ------ ------<br>not ----- -- ----,252975.5,252970,252348.225,252350.20000000298,252364.886,252981.325,,52,not
screen,html.Screen,2_1_0_1_53,2022-04-27T11:16:32.451Z,,,,,,,,,,,,,,,,,53,,,,,,,,,,,,,,376.57499999849824,,response,,,,99,,,,,,,Space,keypress(Space),,,,,,,,---- -- ----- -- ------ - ------- --- ----------<br>------------- ------ ------ ---- ---- ------- ----- -- ----<br>-------- ------- -- ---------- --- - --- ----- ----- ----<br>---- --- --- ----- --- ---- ---- ------- ----- ---- -------<br>--- --- -- ----- -- --- ---- -- --- ---- -- ------ ------<br>--- close -- ----,253364.6000000015,253357.8999999985,252964.664,252976,252981.325,253381.209,,53,close
screen,html.Screen,2_1_0_1_54,2022-04-27T11:16:32.841Z,,,,,,,,,,,,,,,,,53,,,,,,,,,,,,,,370.0910000044678,,response,,,,99,,,,,,,Space,keypress(Space),,,,,,,,---- -- ----- -- ------ - ------- --- ----------<br>------------- ------ ------ ---- ---- ------- ----- -- ----<br>-------- ------- -- ---------- --- - --- ----- ----- ----<br>---- --- --- ----- --- ---- ---- ------- ----- ---- -------<br>--- --- -- ----- -- --- ---- -- --- ---- -- ------ ------<br>--- ----- at ----,253755.5,253751.30000000447,253364.548,253365.6000000015,253381.209,253764.398,,54,at
screen,html.Screen,2_1_0_1_55,2022-04-27T11:16:33.495Z,,,,,,,,,,,,,,,,,53,,,,,,,,,,,,,,636.3020000029937,,response,,,,99,,,,,,,Space,keypress(Space),,,,,,,,---- -- ----- -- ------ - ------- --- ----------<br>------------- ------ ------ ---- ---- ------- ----- -- ----<br>-------- ------- -- ---------- --- - --- ----- ----- ----<br>---- --- --- ----- --- ---- ---- ------- ----- ---- -------<br>--- --- -- ----- -- --- ---- -- --- ---- -- ------ ------<br>--- ----- -- all.,254408.80000000447,254400.70000000298,253747.737,253756,253764.398,254430.847,,55,all.
Item 99,flow.Loop,2_1_0_1,2022-04-27T11:16:33.497Z,,,,,,,,,,,,,,,,,,,,,,,,,,,,,,,27727.15300000299,,completion,,,,,B,,,,,,,,,,,silence,,,,,254411.3999999985,254400.70000000298,226640.225,226645.1000000015,226673.547,254430.847,,,
Question 1,html.Screen,2_1_0_2,2022-04-27T11:16:38.861Z,,,,,,,,,,,,,,,,,,,,,,,,,,,,false,FALSE,,5336.753000001481,,response,,,,99,B,,,,,,TRUE,click #choice-1,,,,silence,,,,,259774.70000000298,259767.6000000015,254397.525,254411.70000000298,254430.847,259779.048,,,
Question 2,html.Screen,2_1_0_3,2022-04-27T11:16:48.963Z,,,,,,,,,,,,,,,,,,,,,,,,,,,,true,TRUE,,10092.8519999985,,response,,,,99,B,,,,,,TRUE,click #choice-1,,,,silence,,,,,269876.8999999985,269871.8999999985,259762.387,259776.1000000015,259779.048,269892.288,,,
Item 99,flow.Sequence,2_1_0,2022-04-27T11:16:48.965Z,,,,,,,,,,,,,,,,,,,,,,,,,,,,,,,53211.64199999851,,completion,,,,,,,,,,,,,,,,,,,,,269878.80000000447,269871.8999999985,216626.936,216647.3999999985,216660.258,269892.288,,,
Holding screen,html.Screen,2_1_1_0,2022-04-27T11:16:58.961Z,,,,,,,,,,,,,,,,,,,,,,,,,,,,,,,9996.63400000002,,timeout,,,,,,,,,,,,,,,,,,,,,279874.80000000447,279872.261,269875.627,269881.200000003,269892.288,279888.922,,,
screen,html.Screen,2_1_1_1_0,2022-04-27T11:16:59.566Z,,,,,,,,,,,,,,,,,54,,,,,,,,,,,,,,581.8780000044499,,response,,,,100,,,,,,,Space,keypress(Space),,,,,,,,At --- ---- --- ------ ----- ------- ---- -- --- ------- --<br>------- ---------- ------ -- ----- -- ----- -- ---- ------<br>--- ----- --- --- ------ -------- ----- --- ------ ----- --<br>----- ----- ---------- --- --- ------ ------ ---- -- ------<br>------- --- ------ ----- --- ---- ------- -- ---- --- --<br>------- ------,280480.200000003,280470.80000000447,279872.261,279875.80000000447,279888.922,280488.716,,0,At
screen,html.Screen,2_1_1_1_1,2022-04-27T11:17:00.517Z,,,,,,,,,,,,,,,,,54,,,,,,,,,,,,,,938.183999998495,,response,,,,100,,,,,,,Space,keypress(Space),,,,,,,,-- the ---- --- ------ ----- ------- ---- -- --- ------- --<br>------- ---------- ------ -- ----- -- ----- -- ---- ------<br>--- ----- --- --- ------ -------- ----- --- ------ ----- --<br>----- ----- ---------- --- --- ------ ------ ---- -- ------<br>------- --- ------ ----- --- ---- ------- -- ---- --- --<br>------- ------,281430.700000003,281426.8999999985,280472.055,280481.5,280488.716,281438.402,,1,the
screen,html.Screen,2_1_1_1_2,2022-04-27T11:17:01.131Z,,,,,,,,,,,,,,,,,54,,,,,,,,,,,,,,601.0979999999981,,response,,,,100,,,,,,,Space,keypress(Space),,,,,,,,-- --- time --- ------ ----- ------- ---- -- --- ------- --<br>------- ---------- ------ -- ----- -- ----- -- ---- ------<br>--- ----- --- --- ------ -------- ----- --- ------ ----- --<br>----- ----- ---------- --- --- ------ ------ ---- -- ------<br>------- --- ------ ----- --- ---- ------- -- ---- --- --<br>------- ------,282044.80000000447,282039.5,281421.741,281431.30000000447,281438.402,282054.862,,2,time
screen,html.Screen,2_1_1_1_3,2022-04-27T11:17:01.578Z,,,,,,,,,,,,,,,,,54,,,,,,,,,,,,,,428.8380000029574,,response,,,,100,,,,,,,Space,keypress(Space),,,,,,,,-- --- ---- the ------ ----- ------- ---- -- --- ------- --<br>------- ---------- ------ -- ----- -- ----- -- ---- ------<br>--- ----- --- --- ------ -------- ----- --- ------ ----- --<br>----- ----- ---------- --- --- ------ ------ ---- -- ------<br>------- --- ------ ----- --- ---- ------- -- ---- --- --<br>------- ------,282491.8999999985,282483.700000003,282038.201,282045.80000000447,282054.862,282504.69,,3,the
screen,html.Screen,2_1_1_1_4,2022-04-27T11:17:02.096Z,,,,,,,,,,,,,,,,,54,,,,,,,,,,,,,,499.20999999850756,,response,,,,100,,,,,,,Space,keypress(Space),,,,,,,,-- --- ---- --- French ----- ------- ---- -- --- ------- --<br>------- ---------- ------ -- ----- -- ----- -- ---- ------<br>--- ----- --- --- ------ -------- ----- --- ------ ----- --<br>----- ----- ---------- --- --- ------ ------ ---- -- ------<br>------- --- ------ ----- --- ---- ------- -- ---- --- --<br>------- ------,283010,283003.8999999985,282488.029,282492.8999999985,282504.69,283021.186,,4,French
screen,html.Screen,2_1_1_1_5,2022-04-27T11:17:02.420Z,,,,,,,,,,,,,,,,,54,,,,,,,,,,,,,,307.7139999985229,,response,,,,100,,,,,,,Space,keypress(Space),,,,,,,,-- --- ---- --- ------ crown ------- ---- -- --- ------- --<br>------- ---------- ------ -- ----- -- ----- -- ---- ------<br>--- ----- --- --- ------ -------- ----- --- ------ ----- --<br>----- ----- ---------- --- --- ------ ------ ---- -- ------<br>------- --- ------ ----- --- ---- ------- -- ---- --- --<br>------- ------,283334.30000000447,283328.8999999985,283004.525,283011.200000003,283021.186,283354.42,,5,crown
screen,html.Screen,2_1_1_1_6,2022-04-27T11:17:02.984Z,,,,,,,,,,,,,,,,,54,,,,,,,,,,,,,,537.2800000029965,,response,,,,100,,,,,,,Space,keypress(Space),,,,,,,,-- --- ---- --- ------ ----- secured ---- -- --- ------- --<br>------- ---------- ------ -- ----- -- ----- -- ---- ------<br>--- ----- --- --- ------ -------- ----- --- ------ ----- --<br>----- ----- ---------- --- --- ------ ------ ---- -- ------<br>------- --- ------ ----- --- ---- ------- -- ---- --- --<br>------- ------,283898,283891.700000003,283337.759,283335,283354.42,283904.218,,6,secured
screen,html.Screen,2_1_1_1_7,2022-04-27T11:17:03.418Z,,,,,,,,,,,,,,,,,54,,,,,,,,,,,,,,422.98200000298675,,response,,,,100,,,,,,,Space,keypress(Space),,,,,,,,-- --- ---- --- ------ ----- ------- much -- --- ------- --<br>------- ---------- ------ -- ----- -- ----- -- ---- ------<br>--- ----- --- --- ------ -------- ----- --- ------ ----- --<br>----- ----- ---------- --- --- ------ ------ ---- -- ------<br>------- --- ------ ----- --- ---- ------- -- ---- --- --<br>------- ------,284331.700000003,284327.200000003,283887.557,283898.6000000015,283904.218,284337.413,,7,much
screen,html.Screen,2_1_1_1_8,2022-04-27T11:17:03.789Z,,,,,,,,,,,,,,,,,54,,,,,,,,,,,,,,361.08699999999953,,response,,,,100,,,,,,,Space,keypress(Space),,,,,,,,-- --- ---- --- ------ ----- ------- ---- of --- ------- --<br>------- ---------- ------ -- ----- -- ----- -- ---- ------<br>--- ----- --- --- ------ -------- ----- --- ------ ----- --<br>----- ----- ---------- --- --- ------ ------ ---- -- ------<br>------- --- ------ ----- --- ---- ------- -- ---- --- --<br>------- ------,284702.8999999985,284698.5,284320.752,284332.80000000447,284337.413,284720.622,,8,of
screen,html.Screen,2_1_1_1_9,2022-04-27T11:17:04.137Z,,,,,,,,,,,,,,,,,54,,,,,,,,,,,,,,323.77799999853596,,response,,,,100,,,,,,,Space,keypress(Space),,,,,,,,-- --- ---- --- ------ ----- ------- ---- -- its ------- --<br>------- ---------- ------ -- ----- -- ----- -- ---- ------<br>--- ----- --- --- ------ -------- ----- --- ------ ----- --<br>----- ----- ---------- --- --- ------ ------ ---- -- ------<br>------- --- ------ ----- --- ---- ------- -- ---- --- --<br>------- ------,285050.8999999985,285044.3999999985,284703.961,284703.1000000015,284720.622,285070.504,,9,its
screen,html.Screen,2_1_1_1_10,2022-04-27T11:17:04.507Z,,,,,,,,,,,,,,,,,54,,,,,,,,,,,,,,341.49599999998463,,response,,,,100,,,,,,,Space,keypress(Space),,,,,,,,-- --- ---- --- ------ ----- ------- ---- -- --- revenue --<br>------- ---------- ------ -- ----- -- ----- -- ---- ------<br>--- ----- --- --- ------ -------- ----- --- ------ ----- --<br>----- ----- ---------- --- --- ------ ------ ---- -- ------<br>------- --- ------ ----- --- ---- ------- -- ---- --- --<br>------- ------,285420.6000000015,285412,285053.843,285051.30000000447,285070.504,285437.036,,10,revenue
screen,html.Screen,2_1_1_1_11,2022-04-27T11:17:05.807Z,,,,,,,,,,,,,,,,,54,,,,,,,,,,,,,,1278.5640000014682,,response,,,,100,,,,,,,Space,keypress(Space),,,,,,,,-- --- ---- --- ------ ----- ------- ---- -- --- ------- by<br>------- ---------- ------ -- ----- -- ----- -- ---- ------<br>--- ----- --- --- ------ -------- ----- --- ------ ----- --<br>----- ----- ---------- --- --- ------ ------ ---- -- ------<br>------- --- ------ ----- --- ---- ------- -- ---- --- --<br>------- ------,286721.3999999985,286715.6000000015,285420.375,285421.700000003,285437.036,286736.612,,11,by
screen,html.Screen,2_1_1_1_12,2022-04-27T11:17:06.466Z,,,,,,,,,,,,,,,,,54,,,,,,,,,,,,,,638.9880000014673,,response,,,,100,,,,,,,Space,keypress(Space),,,,,,,,-- --- ---- --- ------ ----- ------- ---- -- --- ------- --<br>issuing ---------- ------ -- ----- -- ----- -- ---- ------<br>--- ----- --- --- ------ -------- ----- --- ------ ----- --<br>----- ----- ---------- --- --- ------ ------ ---- -- ------<br>------- --- ------ ----- --- ---- ------- -- ---- --- --<br>------- ------,287380.3999999985,287375.6000000015,286719.951,286722.200000003,286736.612,287403.04,,12,issuing
screen,html.Screen,2_1_1_1_13,2022-04-27T11:17:06.902Z,,,,,,,,,,,,,,,,,54,,,,,,,,,,,,,,406.56000000151107,,response,,,,100,,,,,,,Space,keypress(Space),,,,,,,,-- --- ---- --- ------ ----- ------- ---- -- --- ------- --<br>------- government ------ -- ----- -- ----- -- ---- ------<br>--- ----- --- --- ------ -------- ----- --- ------ ----- --<br>----- ----- ---------- --- --- ------ ------ ---- -- ------<br>------- --- ------ ----- --- ---- ------- -- ---- --- --<br>------- ------,287815.6000000015,287809.6000000015,287386.379,287381.200000003,287403.04,287836.239,,13,government
screen,html.Screen,2_1_1_1_14,2022-04-27T11:17:07.844Z,,,,,,,,,,,,,,,,,54,,,,,,,,,,,,,,916.2609999999986,,response,,,,100,,,,,,,Space,keypress(Space),,,,,,,,-- --- ---- --- ------ ----- ------- ---- -- --- ------- --<br>------- ---------- bonds. -- ----- -- ----- -- ---- ------<br>--- ----- --- --- ------ -------- ----- --- ------ ----- --<br>----- ----- ---------- --- --- ------ ------ ---- -- ------<br>------- --- ------ ----- --- ---- ------- -- ---- --- --<br>------- ------,288758.30000000447,288752.5,287819.578,287816.700000003,287836.239,288769.25,,14,bonds.
screen,html.Screen,2_1_1_1_15,2022-04-27T11:17:08.281Z,,,,,,,,,,,,,,,,,54,,,,,,,,,,,,,,420.05000000447035,,response,,,,100,,,,,,,Space,keypress(Space),,,,,,,,-- --- ---- --- ------ ----- ------- ---- -- --- ------- --<br>------- ---------- ------ In ----- -- ----- -- ---- ------<br>--- ----- --- --- ------ -------- ----- --- ------ ----- --<br>----- ----- ---------- --- --- ------ ------ ---- -- ------<br>------- --- ------ ----- --- ---- ------- -- ---- --- --<br>------- ------,289194.5,289189.30000000447,288752.589,288762.6000000015,288769.25,289202.433,,15,In
screen,html.Screen,2_1_1_1_16,2022-04-27T11:17:08.681Z,,,,,,,,,,,,,,,,,54,,,,,,,,,,,,,,386.76700000296114,,response,,,,100,,,,,,,Space,keypress(Space),,,,,,,,"-- --- ---- --- ------ ----- ------- ---- -- --- ------- --<br>------- ---------- ------ -- 1727, -- ----- -- ---- ------<br>--- ----- --- --- ------ -------- ----- --- ------ ----- --<br>----- ----- ---------- --- --- ------ ------ ---- -- ------<br>------- --- ------ ----- --- ---- ------- -- ---- --- --<br>------- ------",289594.5,289589.200000003,289185.772,289195.30000000447,289202.433,289602.313,,16,"1727,"
screen,html.Screen,2_1_1_1_17,2022-04-27T11:17:09.660Z,,,,,,,,,,,,,,,,,54,,,,,,,,,,,,,,962.1869999999763,,response,,,,100,,,,,,,Space,keypress(Space),,,,,,,,-- --- ---- --- ------ ----- ------- ---- -- --- ------- --<br>------- ---------- ------ -- ----- in ----- -- ---- ------<br>--- ----- --- --- ------ -------- ----- --- ------ ----- --<br>----- ----- ---------- --- --- ------ ------ ---- -- ------<br>------- --- ------ ----- --- ---- ------- -- ---- --- --<br>------- ------,290573.80000000447,290564.5,289585.652,289595,289602.313,290585.304,,17,in
screen,html.Screen,2_1_1_1_18,2022-04-27T11:17:10.206Z,,,,,,,,,,,,,,,,,54,,,,,,,,,,,,,,528.8960000029765,,response,,,,100,,,,,,,Space,keypress(Space),,,,,,,,-- --- ---- --- ------ ----- ------- ---- -- --- ------- --<br>------- ---------- ------ -- ----- -- order -- ---- ------<br>--- ----- --- --- ------ -------- ----- --- ------ ----- --<br>----- ----- ---------- --- --- ------ ------ ---- -- ------<br>------- --- ------ ----- --- ---- ------- -- ---- --- --<br>------- ------,291119.8999999985,291114.200000003,290568.643,290574,290585.304,291135.116,,18,order
screen,html.Screen,2_1_1_1_19,2022-04-27T11:17:10.540Z,,,,,,,,,,,,,,,,,54,,,,,,,,,,,,,,312.88400000002,,response,,,,100,,,,,,,Space,keypress(Space),,,,,,,,-- --- ---- --- ------ ----- ------- ---- -- --- ------- --<br>------- ---------- ------ -- ----- -- ----- to ---- ------<br>--- ----- --- --- ------ -------- ----- --- ------ ----- --<br>----- ----- ---------- --- --- ------ ------ ---- -- ------<br>------- --- ------ ----- --- ---- ------- -- ---- --- --<br>------- ------,291453.80000000447,291448,291118.455,291120.8999999985,291135.116,291468.352,,19,to
screen,html.Screen,2_1_1_1_20,2022-04-27T11:17:10.761Z,,,,,,,,,,,,,,,,,54,,,,,,,,,,,,,,198.1479999999865,,response,,,,100,,,,,,,Space,keypress(Space),,,,,,,,-- --- ---- --- ------ ----- ------- ---- -- --- ------- --<br>------- ---------- ------ -- ----- -- ----- -- save ------<br>--- ----- --- --- ------ -------- ----- --- ------ ----- --<br>----- ----- ---------- --- --- ------ ------ ---- -- ------<br>------- --- ------ ----- --- ---- ------- -- ---- --- --<br>------- ------,291674.5,291666.5,291451.691,291454.6000000015,291468.352,291684.925,,20,save
screen,html.Screen,2_1_1_1_21,2022-04-27T11:17:11.357Z,,,,,,,,,,,,,,,,,54,,,,,,,,,,,,,,576.5750000000116,,response,,,,100,,,,,,,Space,keypress(Space),,,,,,,,"-- --- ---- --- ------ ----- ------- ---- -- --- ------- --<br>------- ---------- ------ -- ----- -- ----- -- ---- money,<br>--- ----- --- --- ------ -------- ----- --- ------ ----- --<br>----- ----- ---------- --- --- ------ ------ ---- -- ------<br>------- --- ------ ----- --- ---- ------- -- ---- --- --<br>------- ------",292270.8999999985,292261.5,291668.264,291675.700000003,291684.925,292284.73,,21,"money,"
screen,html.Screen,2_1_1_1_22,2022-04-27T11:17:12.051Z,,,,,,,,,,,,,,,,,54,,,,,,,,,,,,,,673.1699999985285,,response,,,,100,,,,,,,Space,keypress(Space),,,,,,,,-- --- ---- --- ------ ----- ------- ---- -- --- ------- --<br>------- ---------- ------ -- ----- -- ----- -- ---- ------<br>the ----- --- --- ------ -------- ----- --- ------ ----- --<br>----- ----- ---------- --- --- ------ ------ ---- -- ------<br>------- --- ------ ----- --- ---- ------- -- ---- --- --<br>------- ------,292964.5,292957.8999999985,292268.069,292271.1000000015,292284.73,292984.5,,22,the
screen,html.Screen,2_1_1_1_23,2022-04-27T11:17:12.955Z,,,,,,,,,,,,,,,,,54,,,,,,,,,,,,,,876.3000000044703,,response,,,,100,,,,,,,Space,keypress(Space),,,,,,,,-- --- ---- --- ------ ----- ------- ---- -- --- ------- --<br>------- ---------- ------ -- ----- -- ----- -- ---- ------<br>--- state --- --- ------ -------- ----- --- ------ ----- --<br>----- ----- ---------- --- --- ------ ------ ---- -- ------<br>------- --- ------ ----- --- ---- ------- -- ---- --- --<br>------- ------,293869.3999999985,293860.80000000447,292967.839,292965.5,292984.5,293884.188,,23,state
screen,html.Screen,2_1_1_1_24,2022-04-27T11:17:13.612Z,,,,,,,,,,,,,,,,,54,,,,,,,,,,,,,,635.6120000044466,,response,,,,100,,,,,,,Space,keypress(Space),,,,,,,,-- --- ---- --- ------ ----- ------- ---- -- --- ------- --<br>------- ---------- ------ -- ----- -- ----- -- ---- ------<br>--- ----- cut --- ------ -------- ----- --- ------ ----- --<br>----- ----- ---------- --- --- ------ ------ ---- -- ------<br>------- --- ------ ----- --- ---- ------- -- ---- --- --<br>------- ------,294525.6000000015,294519.80000000447,293867.527,293870.5,293884.188,294533.971,,24,cut
screen,html.Screen,2_1_1_1_25,2022-04-27T11:17:14.950Z,,,,,,,,,,,,,,,,,54,,,,,,,,,,,,,,1323.0289999999804,,response,,,,100,,,,,,,Space,keypress(Space),,,,,,,,-- --- ---- --- ------ ----- ------- ---- -- --- ------- --<br>------- ---------- ------ -- ----- -- ----- -- ---- ------<br>--- ----- --- the ------ -------- ----- --- ------ ----- --<br>----- ----- ---------- --- --- ------ ------ ---- -- ------<br>------- --- ------ ----- --- ---- ------- -- ---- --- --<br>------- ------,295864.5,295857,294517.31,294526.6000000015,294533.971,295883.509,,25,the
screen,html.Screen,2_1_1_1_26,2022-04-27T11:17:15.483Z,,,,,,,,,,,,,,,,,54,,,,,,,,,,,,,,507.89099999848986,,response,,,,100,,,,,,,Space,keypress(Space),,,,,,,,-- --- ---- --- ------ ----- ------- ---- -- --- ------- --<br>------- ---------- ------ -- ----- -- ----- -- ---- ------<br>--- ----- --- --- bonds' -------- ----- --- ------ ----- --<br>----- ----- ---------- --- --- ------ ------ ---- -- ------<br>------- --- ------ ----- --- ---- ------- -- ---- --- --<br>------- ------,296396.3999999985,296391.3999999985,295866.848,295865.5,295883.509,296400.011,,26,bonds'
screen,html.Screen,2_1_1_1_27,2022-04-27T11:17:16.252Z,,,,,,,,,,,,,,,,,54,,,,,,,,,,,,,,760.6890000029816,,response,,,,100,,,,,,,Space,keypress(Space),,,,,,,,-- --- ---- --- ------ ----- ------- ---- -- --- ------- --<br>------- ---------- ------ -- ----- -- ----- -- ---- ------<br>--- ----- --- --- ------ interest ----- --- ------ ----- --<br>----- ----- ---------- --- --- ------ ------ ---- -- ------<br>------- --- ------ ----- --- ---- ------- -- ---- --- --<br>------- ------,297166.30000000447,297160.700000003,296383.35,296397,296400.011,297183.07,,27,interest
screen,html.Screen,2_1_1_1_28,2022-04-27T11:17:16.813Z,,,,,,,,,,,,,,,,,54,,,,,,,,,,,,,,539.5300000014831,,response,,,,100,,,,,,,Space,keypress(Space),,,,,,,,-- --- ---- --- ------ ----- ------- ---- -- --- ------- --<br>------- ---------- ------ -- ----- -- ----- -- ---- ------<br>--- ----- --- --- ------ -------- rate. --- ------ ----- --<br>----- ----- ---------- --- --- ------ ------ ---- -- ------<br>------- --- ------ ----- --- ---- ------- -- ---- --- --<br>------- ------,297727.30000000447,297722.6000000015,297166.409,297167.3999999985,297183.07,297732.883,,28,rate.
screen,html.Screen,2_1_1_1_29,2022-04-27T11:17:17.797Z,,,,,,,,,,,,,,,,,54,,,,,,,,,,,,,,970.9170000044978,,response,,,,100,,,,,,,Space,keypress(Space),,,,,,,,-- --- ---- --- ------ ----- ------- ---- -- --- ------- --<br>------- ---------- ------ -- ----- -- ----- -- ---- ------<br>--- ----- --- --- ------ -------- ----- The ------ ----- --<br>----- ----- ---------- --- --- ------ ------ ---- -- ------<br>------- --- ------ ----- --- ---- ------- -- ---- --- --<br>------- ------,298711.30000000447,298703.80000000447,297716.222,297727.700000003,297732.883,298732.547,,29,The
screen,html.Screen,2_1_1_1_30,2022-04-27T11:17:18.578Z,,,,,,,,,,,,,,,,,54,,,,,,,,,,,,,,753.0530000014696,,response,,,,100,,,,,,,Space,keypress(Space),,,,,,,,-- --- ---- --- ------ ----- ------- ---- -- --- ------- --<br>------- ---------- ------ -- ----- -- ----- -- ---- ------<br>--- ----- --- --- ------ -------- ----- --- market ----- --<br>----- ----- ---------- --- --- ------ ------ ---- -- ------<br>------- --- ------ ----- --- ---- ------- -- ---- --- --<br>------- ------,299492.3999999985,299485.6000000015,298715.886,298712.5,298732.547,299498.966,,30,market
screen,html.Screen,2_1_1_1_31,2022-04-27T11:17:19.141Z,,,,,,,,,,,,,,,,,54,,,,,,,,,,,,,,550.433999998495,,response,,,,100,,,,,,,Space,keypress(Space),,,,,,,,-- --- ---- --- ------ ----- ------- ---- -- --- ------- --<br>------- ---------- ------ -- ----- -- ----- -- ---- ------<br>--- ----- --- --- ------ -------- ----- --- ------ value --<br>----- ----- ---------- --- --- ------ ------ ---- -- ------<br>------- --- ------ ----- --- ---- ------- -- ---- --- --<br>------- ------,300054.5,300049.3999999985,299482.305,299492.80000000447,299498.966,300065.432,,31,value
screen,html.Screen,2_1_1_1_32,2022-04-27T11:17:19.847Z,,,,,,,,,,,,,,,,,54,,,,,,,,,,,,,,688.7680000030086,,response,,,,100,,,,,,,Space,keypress(Space),,,,,,,,-- --- ---- --- ------ ----- ------- ---- -- --- ------- --<br>------- ---------- ------ -- ----- -- ----- -- ---- ------<br>--- ----- --- --- ------ -------- ----- --- ------ ----- of<br>----- ----- ---------- --- --- ------ ------ ---- -- ------<br>------- --- ------ ----- --- ---- ------- -- ---- --- --<br>------- ------,300760.6000000015,300754.200000003,300048.771,300055.700000003,300065.432,300765.199,,32,of
screen,html.Screen,2_1_1_1_33,2022-04-27T11:17:20.382Z,,,,,,,,,,,,,,,,,54,,,,,,,,,,,,,,526.3009999999776,,response,,,,100,,,,,,,Space,keypress(Space),,,,,,,,-- --- ---- --- ------ ----- ------- ---- -- --- ------- --<br>------- ---------- ------ -- ----- -- ----- -- ---- ------<br>--- ----- --- --- ------ -------- ----- --- ------ ----- --<br>these ----- ---------- --- --- ------ ------ ---- -- ------<br>------- --- ------ ----- --- ---- ------- -- ---- --- --<br>------- ------,301296,301291.5,300748.538,300761.3999999985,300765.199,301315.016,,33,these
screen,html.Screen,2_1_1_1_34,2022-04-27T11:17:20.895Z,,,,,,,,,,,,,,,,,54,,,,,,,,,,,,,,487.184000002977,,response,,,,100,,,,,,,Space,keypress(Space),,,,,,,,-- --- ---- --- ------ ----- ------- ---- -- --- ------- --<br>------- ---------- ------ -- ----- -- ----- -- ---- ------<br>--- ----- --- --- ------ -------- ----- --- ------ ----- --<br>----- bonds ---------- --- --- ------ ------ ---- -- ------<br>------- --- ------ ----- --- ---- ------- -- ---- --- --<br>------- ------,301808.8999999985,301802.200000003,301298.355,301296.6000000015,301315.016,301814.847,,34,bonds
screen,html.Screen,2_1_1_1_35,2022-04-27T11:17:21.942Z,,,,,,,,,,,,,,,,,54,,,,,,,,,,,,,,1032.552999998501,,response,,,,100,,,,,,,Space,keypress(Space),,,,,,,,"-- --- ---- --- ------ ----- ------- ---- -- --- ------- --<br>------- ---------- ------ -- ----- -- ----- -- ---- ------<br>--- ----- --- --- ------ -------- ----- --- ------ ----- --<br>----- ----- plummeted, --- --- ------ ------ ---- -- ------<br>------- --- ------ ----- --- ---- ------- -- ---- --- --<br>------- ------",302855.700000003,302847.3999999985,301798.186,301810,301814.847,302864.483,,35,"plummeted,"
screen,html.Screen,2_1_1_1_36,2022-04-27T11:17:22.557Z,,,,,,,,,,,,,,,,,54,,,,,,,,,,,,,,598.0169999999925,,response,,,,100,,,,,,,Space,keypress(Space),,,,,,,,-- --- ---- --- ------ ----- ------- ---- -- --- ------- --<br>------- ---------- ------ -- ----- -- ----- -- ---- ------<br>--- ----- --- --- ------ -------- ----- --- ------ ----- --<br>----- ----- ---------- and --- ------ ------ ---- -- ------<br>------- --- ------ ----- --- ---- ------- -- ---- --- --<br>------- ------,303470.80000000447,303462.5,302847.822,302856.8999999985,302864.483,303480.959,,36,and
screen,html.Screen,2_1_1_1_37,2022-04-27T11:17:23.560Z,,,,,,,,,,,,,,,,,54,,,,,,,,,,,,,,984.2410000030068,,response,,,,100,,,,,,,Space,keypress(Space),,,,,,,,-- --- ---- --- ------ ----- ------- ---- -- --- ------- --<br>------- ---------- ------ -- ----- -- ----- -- ---- ------<br>--- ----- --- --- ------ -------- ----- --- ------ ----- --<br>----- ----- ---------- --- the ------ ------ ---- -- ------<br>------- --- ------ ----- --- ---- ------- -- ---- --- --<br>------- ------,304473.6000000015,304465.200000003,303464.298,303471.80000000447,303480.959,304480.611,,37,the
screen,html.Screen,2_1_1_1_38,2022-04-27T11:17:24.111Z,,,,,,,,,,,,,,,,,54,,,,,,,,,,,,,,535.5890000030049,,response,,,,100,,,,,,,Space,keypress(Space),,,,,,,,-- --- ---- --- ------ ----- ------- ---- -- --- ------- --<br>------- ---------- ------ -- ----- -- ----- -- ---- ------<br>--- ----- --- --- ------ -------- ----- --- ------ ----- --<br>----- ----- ---------- --- --- market ------ ---- -- ------<br>------- --- ------ ----- --- ---- ------- -- ---- --- --<br>------- ------,305024.80000000447,305016.200000003,304463.95,304475.6000000015,304480.611,305030.427,,38,market
screen,html.Screen,2_1_1_1_39,2022-04-27T11:17:24.595Z,,,,,,,,,,,,,,,,,54,,,,,,,,,,,,,,473.97299999848474,,response,,,,100,,,,,,,Space,keypress(Space),,,,,,,,-- --- ---- --- ------ ----- ------- ---- -- --- ------- --<br>------- ---------- ------ -- ----- -- ----- -- ---- ------<br>--- ----- --- --- ------ -------- ----- --- ------ ----- --<br>----- ----- ---------- --- --- ------ became ---- -- ------<br>------- --- ------ ----- --- ---- ------- -- ---- --- --<br>------- ------,305509,305504.3999999985,305013.766,305025.8999999985,305030.427,305530.259,,39,became
screen,html.Screen,2_1_1_1_40,2022-04-27T11:17:25.049Z,,,,,,,,,,,,,,,,,54,,,,,,,,,,,,,,427.5410000044503,,response,,,,100,,,,,,,Space,keypress(Space),,,,,,,,-- --- ---- --- ------ ----- ------- ---- -- --- ------- --<br>------- ---------- ------ -- ----- -- ----- -- ---- ------<br>--- ----- --- --- ------ -------- ----- --- ------ ----- --<br>----- ----- ---------- --- --- ------ ------ wary -- ------<br>------- --- ------ ----- --- ---- ------- -- ---- --- --<br>------- ------,305963.30000000447,305957.80000000447,305513.598,305509.6000000015,305530.259,305980.11,,40,wary
screen,html.Screen,2_1_1_1_41,2022-04-27T11:17:25.567Z,,,,,,,,,,,,,,,,,54,,,,,,,,,,,,,,494.9900000015041,,response,,,,100,,,,,,,Space,keypress(Space),,,,,,,,-- --- ---- --- ------ ----- ------- ---- -- --- ------- --<br>------- ---------- ------ -- ----- -- ----- -- ---- ------<br>--- ----- --- --- ------ -------- ----- --- ------ ----- --<br>----- ----- ---------- --- --- ------ ------ ---- of ------<br>------- --- ------ ----- --- ---- ------- -- ---- --- --<br>------- ------,306481.200000003,306475.1000000015,305963.449,305964.5,305980.11,306496.597,,41,of
screen,html.Screen,2_1_1_1_42,2022-04-27T11:17:26.167Z,,,,,,,,,,,,,,,,,54,,,,,,,,,,,,,,580.302999998501,,response,,,,100,,,,,,,Space,keypress(Space),,,,,,,,-- --- ---- --- ------ ----- ------- ---- -- --- ------- --<br>------- ---------- ------ -- ----- -- ----- -- ---- ------<br>--- ----- --- --- ------ -------- ----- --- ------ ----- --<br>----- ----- ---------- --- --- ------ ------ ---- -- French<br>------- --- ------ ----- --- ---- ------- -- ---- --- --<br>------- ------,307080.700000003,307076.8999999985,306479.936,306481.80000000447,306496.597,307096.396,,42,French
screen,html.Screen,2_1_1_1_43,2022-04-27T11:17:26.925Z,,,,,,,,,,,,,,,,,54,,,,,,,,,,,,,,736.4040000044624,,response,,,,100,,,,,,,Space,keypress(Space),,,,,,,,-- --- ---- --- ------ ----- ------- ---- -- --- ------- --<br>------- ---------- ------ -- ----- -- ----- -- ---- ------<br>--- ----- --- --- ------ -------- ----- --- ------ ----- --<br>----- ----- ---------- --- --- ------ ------ ---- -- ------<br>credit. --- ------ ----- --- ---- ------- -- ---- --- --<br>------- ------,307839.1000000015,307832.80000000447,307079.735,307081.1000000015,307096.396,307846.143,,43,credit.
screen,html.Screen,2_1_1_1_44,2022-04-27T11:17:27.440Z,,,,,,,,,,,,,,,,,54,,,,,,,,,,,,,,500.75699999852804,,response,,,,100,,,,,,,Space,keypress(Space),,,,,,,,-- --- ---- --- ------ ----- ------- ---- -- --- ------- --<br>------- ---------- ------ -- ----- -- ----- -- ---- ------<br>--- ----- --- --- ------ -------- ----- --- ------ ----- --<br>----- ----- ---------- --- --- ------ ------ ---- -- ------<br>------- The ------ ----- --- ---- ------- -- ---- --- --<br>------- ------,308353.700000003,308346.8999999985,307829.482,307840,307846.143,308362.629,,44,The
screen,html.Screen,2_1_1_1_45,2022-04-27T11:17:27.900Z,,,,,,,,,,,,,,,,,54,,,,,,,,,,,,,,445.7709999984945,,response,,,,100,,,,,,,Space,keypress(Space),,,,,,,,-- --- ---- --- ------ ----- ------- ---- -- --- ------- --<br>------- ---------- ------ -- ----- -- ----- -- ---- ------<br>--- ----- --- --- ------ -------- ----- --- ------ ----- --<br>----- ----- ---------- --- --- ------ ------ ---- -- ------<br>------- --- French ----- --- ---- ------- -- ---- --- --<br>------- ------,308814.3999999985,308808.3999999985,308345.968,308354.80000000447,308362.629,308829.142,,45,French
screen,html.Screen,2_1_1_1_46,2022-04-27T11:17:28.405Z,,,,,,,,,,,,,,,,,54,,,,,,,,,,,,,,485.6580000044778,,response,,,,100,,,,,,,Space,keypress(Space),,,,,,,,-- --- ---- --- ------ ----- ------- ---- -- --- ------- --<br>------- ---------- ------ -- ----- -- ----- -- ---- ------<br>--- ----- --- --- ------ -------- ----- --- ------ ----- --<br>----- ----- ---------- --- --- ------ ------ ---- -- ------<br>------- --- ------ state --- ---- ------- -- ---- --- --<br>------- ------,309319.1000000015,309314.80000000447,308812.481,308814.700000003,308829.142,309328.983,,46,state
screen,html.Screen,2_1_1_1_47,2022-04-27T11:17:28.872Z,,,,,,,,,,,,,,,,,54,,,,,,,,,,,,,,452.11700000148267,,response,,,,100,,,,,,,Space,keypress(Space),,,,,,,,-- --- ---- --- ------ ----- ------- ---- -- --- ------- --<br>------- ---------- ------ -- ----- -- ----- -- ---- ------<br>--- ----- --- --- ------ -------- ----- --- ------ ----- --<br>----- ----- ---------- --- --- ------ ------ ---- -- ------<br>------- --- ------ ----- was ---- ------- -- ---- --- --<br>------- ------,309786.3999999985,309781.1000000015,309312.322,309319.700000003,309328.983,309795.482,,47,was
screen,html.Screen,2_1_1_1_48,2022-04-27T11:17:29.701Z,,,,,,,,,,,,,,,,,54,,,,,,,,,,,,,,813.0179999999818,,response,,,,100,,,,,,,Space,keypress(Space),,,,,,,,-- --- ---- --- ------ ----- ------- ---- -- --- ------- --<br>------- ---------- ------ -- ----- -- ----- -- ---- ------<br>--- ----- --- --- ------ -------- ----- --- ------ ----- --<br>----- ----- ---------- --- --- ------ ------ ---- -- ------<br>------- --- ------ ----- --- left ------- -- ---- --- --<br>------- ------,310615.200000003,310608.5,309778.821,309786.8999999985,309795.482,310628.532,,48,left
screen,html.Screen,2_1_1_1_49,2022-04-27T11:17:30.323Z,,,,,,,,,,,,,,,,,54,,,,,,,,,,,,,,599.6680000029737,,response,,,,100,,,,,,,Space,keypress(Space),,,,,,,,-- --- ---- --- ------ ----- ------- ---- -- --- ------- --<br>------- ---------- ------ -- ----- -- ----- -- ---- ------<br>--- ----- --- --- ------ -------- ----- --- ------ ----- --<br>----- ----- ---------- --- --- ------ ------ ---- -- ------<br>------- --- ------ ----- --- ---- without -- ---- --- --<br>------- ------,311237.1000000015,311228.200000003,310611.871,310616.3999999985,310628.532,311244.998,,49,without
screen,html.Screen,2_1_1_1_50,2022-04-27T11:17:30.676Z,,,,,,,,,,,,,,,,,54,,,,,,,,,,,,,,339.6020000014687,,response,,,,100,,,,,,,Space,keypress(Space),,,,,,,,-- --- ---- --- ------ ----- ------- ---- -- --- ------- --<br>------- ---------- ------ -- ----- -- ----- -- ---- ------<br>--- ----- --- --- ------ -------- ----- --- ------ ----- --<br>----- ----- ---------- --- --- ------ ------ ---- -- ------<br>------- --- ------ ----- --- ---- ------- an ---- --- --<br>------- ------,311590.1000000015,311584.6000000015,311228.337,311237.5,311244.998,311594.878,,50,an
screen,html.Screen,2_1_1_1_51,2022-04-27T11:17:31.086Z,,,,,,,,,,,,,,,,,54,,,,,,,,,,,,,,396.32200000295416,,response,,,,100,,,,,,,Space,keypress(Space),,,,,,,,-- --- ---- --- ------ ----- ------- ---- -- --- ------- --<br>------- ---------- ------ -- ----- -- ----- -- ---- ------<br>--- ----- --- --- ------ -------- ----- --- ------ ----- --<br>----- ----- ---------- --- --- ------ ------ ---- -- ------<br>------- --- ------ ----- --- ---- ------- -- easy --- --<br>------- ------,311999.6000000015,311991.200000003,311578.217,311590.8999999985,311594.878,312011.414,,51,easy
screen,html.Screen,2_1_1_1_52,2022-04-27T11:17:31.491Z,,,,,,,,,,,,,,,,,54,,,,,,,,,,,,,,385.7860000029905,,response,,,,100,,,,,,,Space,keypress(Space),,,,,,,,-- --- ---- --- ------ ----- ------- ---- -- --- ------- --<br>------- ---------- ------ -- ----- -- ----- -- ---- ------<br>--- ----- --- --- ------ -------- ----- --- ------ ----- --<br>----- ----- ---------- --- --- ------ ------ ---- -- ------<br>------- --- ------ ----- --- ---- ------- -- ---- way --<br>------- ------,312404.80000000447,312397.200000003,311994.753,312000,312011.414,312411.27,,52,way
screen,html.Screen,2_1_1_1_53,2022-04-27T11:17:31.923Z,,,,,,,,,,,,,,,,,54,,,,,,,,,,,,,,418.62999999849126,,response,,,,100,,,,,,,Space,keypress(Space),,,,,,,,-- --- ---- --- ------ ----- ------- ---- -- --- ------- --<br>------- ---------- ------ -- ----- -- ----- -- ---- ------<br>--- ----- --- --- ------ -------- ----- --- ------ ----- --<br>----- ----- ---------- --- --- ------ ------ ---- -- ------<br>------- --- ------ ----- --- ---- ------- -- ---- --- of<br>------- ------,312837.3999999985,312829.8999999985,312394.609,312405.80000000447,312411.27,312844.452,,53,of
screen,html.Screen,2_1_1_1_54,2022-04-27T11:17:32.437Z,,,,,,,,,,,,,,,,,54,,,,,,,,,,,,,,500.74800000299,,response,,,,100,,,,,,,Space,keypress(Space),,,,,,,,-- --- ---- --- ------ ----- ------- ---- -- --- ------- --<br>------- ---------- ------ -- ----- -- ----- -- ---- ------<br>--- ----- --- --- ------ -------- ----- --- ------ ----- --<br>----- ----- ---------- --- --- ------ ------ ---- -- ------<br>------- --- ------ ----- --- ---- ------- -- ---- --- --<br>raising ------,313351.30000000447,313345.200000003,312827.791,312838.30000000447,312844.452,313360.944,,54,raising
screen,html.Screen,2_1_1_1_55,2022-04-27T11:17:32.988Z,,,,,,,,,,,,,,,,,54,,,,,,,,,,,,,,535.0559999999823,,response,,,,100,,,,,,,Space,keypress(Space),,,,,,,,-- --- ---- --- ------ ----- ------- ---- -- --- ------- --<br>------- ---------- ------ -- ----- -- ----- -- ---- ------<br>--- ----- --- --- ------ -------- ----- --- ------ ----- --<br>----- ----- ---------- --- --- ------ ------ ---- -- ------<br>------- --- ------ ----- --- ---- ------- -- ---- --- --<br>------- money.,313902.1000000015,313896,313344.283,313352.1000000015,313360.944,313910.768,,55,money.
Item 100,flow.Loop,2_1_1_1,2022-04-27T11:17:32.989Z,,,,,,,,,,,,,,,,,,,,,,,,,,,,,,,34007.07799999998,,completion,,,,,B,,,,,,,,,,,silence,,,,,313903,313896,279872.261,279875.5,279888.922,313910.768,,,
Question 1,html.Screen,2_1_1_2,2022-04-27T11:17:37.056Z,,,,,,,,,,,,,,,,,,,,,,,,,,,,true,TRUE,,4054.631999998528,,response,,,,100,B,,,,,,TRUE,click #choice-1,,,,silence,,,,,317969.80000000447,317965.3999999985,313894.107,313903.3999999985,313910.768,317992.719,,,
Question 2,html.Screen,2_1_1_3,2022-04-27T11:17:40.835Z,,,,,,,,,,,,,,,,,,,,,,,,,,,,true,FALSE,,3752.3810000015073,,response,,,,100,B,,,,,,FALSE,click #choice-2,,,,silence,,,,,321748.6000000015,321745.1000000015,317976.058,317970.8999999985,317992.719,321774.783,,,
Item 100,flow.Sequence,2_1_1,2022-04-27T11:17:40.836Z,,,,,,,,,,,,,,,,,,,,,,,,,,,,,,,51852.81200000149,,completion,,,,,,,,,,,,,,,,,,,,,321749.8999999985,321745.1000000015,269875.627,269881,269892.288,321774.783,,,
End of Practice,html.Page,2_1_2,2022-04-27T11:17:44.570Z,,,,,,,,,,,,,,,,,,,,,,,,,,,,,,,3707.5170000044745,,form submission,,,,,,,,,,,,,,,,,,,,,325483.6000000015,325482.30000000447,321758.122,321750.5,321774.783,325490.178,,,
Practice,flow.Sequence,2_1,2022-04-27T11:17:44.571Z,,,,,,,,,,,,,,,,,,,,,,,,,,,,,,,108822.04200000447,,completion,,,,,,,,,,,,,,,,,,,,,325484.8999999985,325482.30000000447,216626.936,216647.20000000298,216660.258,325490.178,,,
Trap_instruction,html.Page,2_2_0,2022-04-27T11:17:52.736Z,,,,,,,,,,,,,,,,,,,,,,,,,,,,,,,8158.922000001476,,form submission,,,,,,,,,,,,,,,,,,,,,333650.3999999985,333649.1000000015,325473.517,325486.1000000015,325490.178,333687.414,,,
trap_trial,html.Screen,2_2_1,2022-04-27T11:17:55.728Z,,,,,,,,,,,,,,,,,,,,,,,,,,,,true,1,,2947.3860000044806,,response,,,,,,,,,,,1,click #choice-1,,,,,,,,,336641.700000003,336634.80000000447,333637.431,333651.1000000015,333687.414,336653.087,,,
end of trap trial,html.Page,2_2_2,2022-04-27T11:17:57.807Z,,,,,,,,,,,,,,,,,,,,,,,,,,,,,,,2065.4130000000005,,form submission,,,,,,,,,,,,,,,,,,,,,338720.8999999985,338718.5,336636.426,336642.8999999985,336653.087,338719.051,,,
Trap 1,flow.Sequence,2_2,2022-04-27T11:17:57.811Z,,,,,,,,,,,,,,,,,,,,,,,,,,,,,,,13228.321999999986,,completion,,,,,,,,,,,,,,,,,,,,,338724.8999999985,338718.5,325473.517,325485.6000000015,325490.178,338719.051,,,
Standby,html.Page,2_3_0,2022-04-27T11:18:05.789Z,,,,,,,,,,,,,,,,,,,,,,,,,,,,,,,7997.285000000033,,timeout,,,,,,,,,,,,,,,,,,,,,346702.700000003,346699.675,338702.39,338725.30000000447,338719.051,346716.336,,,
Holding screen,html.Screen,2_3_1_0_0,2022-04-27T11:18:12.786Z,,,,,,,,,,,,,,,,,,,,,,,,,,,,,,,6997.652999999991,,timeout,,,,,,,,,,,,,,,,,,,,,353700,353697.328,346699.675,346704.30000000447,346716.336,353713.989,,,
screen,html.Screen,2_3_1_0_1_0,2022-04-27T11:18:13.768Z,,,,,,,,,,,,,,,,,19,,,,,,,,,,,,,,956.9109999985085,,response,,,,17,B,,,,,,Space,keypress(Space),,,,lyrical,,,,"Interestingly, --- -------- -------- ---------- ---- -------<br>-- ---------- -- --- ----- ------ ----- ---- --------- ----<br>------- ------ -------- -- ------ ---------- ------ ---<br>------ -- -- ---- -- ---------- -------- ------ ---- -------<br>---- --- --------- ------- ----- --------- ---- ----- --<br>------ -------- -- ------ -- ---- ------------",354681.6000000015,354670.8999999985,353697.328,353701.5,353713.989,354680.325,,0,"Interestingly,"
screen,html.Screen,2_3_1_0_1_1,2022-04-27T11:18:14.268Z,,,,,,,,,,,,,,,,,19,,,,,,,,,,,,,,495.4750000044587,,response,,,,17,B,,,,,,Space,keypress(Space),,,,lyrical,,,,-------------- the -------- -------- ---------- ---- -------<br>-- ---------- -- --- ----- ------ ----- ---- --------- ----<br>------- ------ -------- -- ------ ---------- ------ ---<br>------ -- -- ---- -- ---------- -------- ------ ---- -------<br>---- --- --------- ------- ----- --------- ---- ----- --<br>------ -------- -- ------ -- ---- ------------,355181.80000000447,355175.80000000447,354663.664,354682.3999999985,354680.325,355196.82,,1,the
screen,html.Screen,2_3_1_0_1_2,2022-04-27T11:18:14.909Z,,,,,,,,,,,,,,,,,19,,,,,,,,,,,,,,623.0799999985029,,response,,,,17,B,,,,,,Space,keypress(Space),,,,lyrical,,,,-------------- --- heaviest -------- ---------- ---- -------<br>-- ---------- -- --- ----- ------ ----- ---- --------- ----<br>------- ------ -------- -- ------ ---------- ------ ---<br>------ -- -- ---- -- ---------- -------- ------ ---- -------<br>---- --- --------- ------- ----- --------- ---- ----- --<br>------ -------- -- ------ -- ---- ------------,355822.6000000015,355819.8999999985,355180.159,355182.700000003,355196.82,355829.941,,2,heaviest
screen,html.Screen,2_3_1_0_1_3,2022-04-27T11:18:15.407Z,,,,,,,,,,,,,,,,,19,,,,,,,,,,,,,,485.85900000447873,,response,,,,17,B,,,,,,Space,keypress(Space),,,,lyrical,,,,-------------- --- -------- isotopes ---------- ---- -------<br>-- ---------- -- --- ----- ------ ----- ---- --------- ----<br>------- ------ -------- -- ------ ---------- ------ ---<br>------ -- -- ---- -- ---------- -------- ------ ---- -------<br>---- --- --------- ------- ----- --------- ---- ----- --<br>------ -------- -- ------ -- ---- ------------,356321.1000000015,356315.80000000447,355813.28,355823,355829.941,356329.769,,3,isotopes
screen,html.Screen,2_3_1_0_1_4,2022-04-27T11:18:15.891Z,,,,,,,,,,,,,,,,,19,,,,,,,,,,,,,,469.9310000030091,,response,,,,17,B,,,,,,Space,keypress(Space),,,,lyrical,,,,-------------- --- -------- -------- physicists ---- -------<br>-- ---------- -- --- ----- ------ ----- ---- --------- ----<br>------- ------ -------- -- ------ ---------- ------ ---<br>------ -- -- ---- -- ---------- -------- ------ ---- -------<br>---- --- --------- ------- ----- --------- ---- ----- --<br>------ -------- -- ------ -- ---- ------------,356805.1000000015,356799.700000003,356313.108,356322.1000000015,356329.769,356812.941,,4,physicists
screen,html.Screen,2_3_1_0_1_5,2022-04-27T11:18:16.521Z,,,,,,,,,,,,,,,,,19,,,,,,,,,,,,,,617.0590000000084,,response,,,,17,B,,,,,,Space,keypress(Space),,,,lyrical,,,,-------------- --- -------- -------- ---------- have -------<br>-- ---------- -- --- ----- ------ ----- ---- --------- ----<br>------- ------ -------- -- ------ ---------- ------ ---<br>------ -- -- ---- -- ---------- -------- ------ ---- -------<br>---- --- --------- ------- ----- --------- ---- ----- --<br>------ -------- -- ------ -- ---- ------------,357435.3999999985,357430,356796.28,356806.6000000015,356812.941,357446.066,,5,have
screen,html.Screen,2_3_1_0_1_6,2022-04-27T11:18:17.020Z,,,,,,,,,,,,,,,,,19,,,,,,,,,,,,,,482.9340000000084,,response,,,,17,B,,,,,,Space,keypress(Space),,,,lyrical,,,,-------------- --- -------- -------- ---------- ---- managed<br>-- ---------- -- --- ----- ------ ----- ---- --------- ----<br>------- ------ -------- -- ------ ---------- ------ ---<br>------ -- -- ---- -- ---------- -------- ------ ---- -------<br>---- --- --------- ------- ----- --------- ---- ----- --<br>------ -------- -- ------ -- ---- ------------,357934.30000000447,357929,357429.405,357436,357446.066,357945.897,,6,managed
screen,html.Screen,2_3_1_0_1_7,2022-04-27T11:18:17.399Z,,,,,,,,,,,,,,,,,19,,,,,,,,,,,,,,360.90300000447314,,response,,,,17,B,,,,,,Space,keypress(Space),,,,lyrical,,,,-------------- --- -------- -------- ---------- ---- -------<br>to ---------- -- --- ----- ------ ----- ---- --------- ----<br>------- ------ -------- -- ------ ---------- ------ ---<br>------ -- -- ---- -- ---------- -------- ------ ---- -------<br>---- --- --------- ------- ----- --------- ---- ----- --<br>------ -------- -- ------ -- ---- ------------,358312.80000000447,358306.80000000447,357929.236,357935,357945.897,358329.098,,7,to
screen,html.Screen,2_3_1_0_1_8,2022-04-27T11:18:18.175Z,,,,,,,,,,,,,,,,,19,,,,,,,,,,,,,,755.8019999985117,,response,,,,17,B,,,,,,Space,keypress(Space),,,,lyrical,,,,-------------- --- -------- -------- ---------- ---- -------<br>-- synthesize -- --- ----- ------ ----- ---- --------- ----<br>------- ------ -------- -- ------ ---------- ------ ---<br>------ -- -- ---- -- ---------- -------- ------ ---- -------<br>---- --- --------- ------- ----- --------- ---- ----- --<br>------ -------- -- ------ -- ---- ------------,359088.700000003,359084.8999999985,358312.437,358313.30000000447,358329.098,359095.512,,8,synthesize
screen,html.Screen,2_3_1_0_1_9,2022-04-27T11:18:18.605Z,,,,,,,,,,,,,,,,,19,,,,,,,,,,,,,,416.0880000015022,,response,,,,17,B,,,,,,Space,keypress(Space),,,,lyrical,,,,-------------- --- -------- -------- ---------- ---- -------<br>-- ---------- so --- ----- ------ ----- ---- --------- ----<br>------- ------ -------- -- ------ ---------- ------ ---<br>------ -- -- ---- -- ---------- -------- ------ ---- -------<br>---- --- --------- ------- ----- --------- ---- ----- --<br>------ -------- -- ------ -- ---- ------------,359518.6000000015,359511.6000000015,359078.851,359089.200000003,359095.512,359528.701,,9,so
screen,html.Screen,2_3_1_0_1_10,2022-04-27T11:18:18.998Z,,,,,,,,,,,,,,,,,19,,,,,,,,,,,,,,374.69899999850895,,response,,,,17,B,,,,,,Space,keypress(Space),,,,lyrical,,,,-------------- --- -------- -------- ---------- ---- -------<br>-- ---------- -- far ----- ------ ----- ---- --------- ----<br>------- ------ -------- -- ------ ---------- ------ ---<br>------ -- -- ---- -- ---------- -------- ------ ---- -------<br>---- --- --------- ------- ----- --------- ---- ----- --<br>------ -------- -- ------ -- ---- ------------,359912.200000003,359903.3999999985,359512.04,359519,359528.701,359928.553,,10,far
screen,html.Screen,2_3_1_0_1_11,2022-04-27T11:18:19.412Z,,,,,,,,,,,,,,,,,19,,,,,,,,,,,,,,390.34699999849545,,response,,,,17,B,,,,,,Space,keypress(Space),,,,lyrical,,,,-------------- --- -------- -------- ---------- ---- -------<br>-- ---------- -- --- don't ------ ----- ---- --------- ----<br>------- ------ -------- -- ------ ---------- ------ ---<br>------ -- -- ---- -- ---------- -------- ------ ---- -------<br>---- --- --------- ------- ----- --------- ---- ----- --<br>------ -------- -- ------ -- ---- ------------,360325.80000000447,360318.8999999985,359911.892,359912.5,359928.553,360345.095,,11,don't
screen,html.Screen,2_3_1_0_1_12,2022-04-27T11:18:19.906Z,,,,,,,,,,,,,,,,,19,,,,,,,,,,,,,,467.40500000002794,,response,,,,17,B,,,,,,Space,keypress(Space),,,,lyrical,,,,-------------- --- -------- -------- ---------- ---- -------<br>-- ---------- -- --- ----- behave ----- ---- --------- ----<br>------- ------ -------- -- ------ ---------- ------ ---<br>------ -- -- ---- -- ---------- -------- ------ ---- -------<br>---- --- --------- ------- ----- --------- ---- ----- --<br>------ -------- -- ------ -- ---- ------------,360820.200000003,360812.5,360328.434,360327,360345.095,360828.261,,12,behave
screen,html.Screen,2_3_1_0_1_13,2022-04-27T11:18:20.360Z,,,,,,,,,,,,,,,,,19,,,,,,,,,,,,,,441.6389999985113,,response,,,,17,B,,,,,,Space,keypress(Space),,,,lyrical,,,,-------------- --- -------- -------- ---------- ---- -------<br>-- ---------- -- --- ----- ------ quite ---- --------- ----<br>------- ------ -------- -- ------ ---------- ------ ---<br>------ -- -- ---- -- ---------- -------- ------ ---- -------<br>---- --- --------- ------- ----- --------- ---- ----- --<br>------ -------- -- ------ -- ---- ------------,361273.700000003,361269.8999999985,360811.6,360820.5,360828.261,361278.096,,13,quite
screen,html.Screen,2_3_1_0_1_14,2022-04-27T11:18:20.893Z,,,,,,,,,,,,,,,,,19,,,,,,,,,,,,,,521.8039999984903,,response,,,,17,B,,,,,,Space,keypress(Space),,,,lyrical,,,,-------------- --- -------- -------- ---------- ---- -------<br>-- ---------- -- --- ----- ------ ----- like --------- ----<br>------- ------ -------- -- ------ ---------- ------ ---<br>------ -- -- ---- -- ---------- -------- ------ ---- -------<br>---- --- --------- ------- ----- --------- ---- ----- --<br>------ -------- -- ------ -- ---- ------------,361806.80000000447,361799.8999999985,361261.435,361274.5,361278.096,361827.924,,14,like
screen,html.Screen,2_3_1_0_1_15,2022-04-27T11:18:21.405Z,,,,,,,,,,,,,,,,,19,,,,,,,,,,,,,,487.8760000044713,,response,,,,17,B,,,,,,Space,keypress(Space),,,,lyrical,,,,-------------- --- -------- -------- ---------- ---- -------<br>-- ---------- -- --- ----- ------ ----- ---- science's ----<br>------- ------ -------- -- ------ ---------- ------ ---<br>------ -- -- ---- -- ---------- -------- ------ ---- -------<br>---- --- --------- ------- ----- --------- ---- ----- --<br>------ -------- -- ------ -- ---- ------------,362318.700000003,362315.80000000447,361811.263,361808,361827.924,362327.746,,15,science's
screen,html.Screen,2_3_1_0_1_16,2022-04-27T11:18:21.911Z,,,,,,,,,,,,,,,,,19,,,,,,,,,,,,,,493.8540000015055,,response,,,,17,B,,,,,,Space,keypress(Space),,,,lyrical,,,,-------------- --- -------- -------- ---------- ---- -------<br>-- ---------- -- --- ----- ------ ----- ---- --------- best<br>------- ------ -------- -- ------ ---------- ------ ---<br>------ -- -- ---- -- ---------- -------- ------ ---- -------<br>---- --- --------- ------- ----- --------- ---- ----- --<br>------ -------- -- ------ -- ---- ------------,362825.30000000447,362821.6000000015,362311.085,362318.8999999985,362327.746,362827.585,,16,best
screen,html.Screen,2_3_1_0_1_17,2022-04-27T11:18:22.626Z,,,,,,,,,,,,,,,,,19,,,,,,,,,,,,,,704.914999999979,,response,,,,17,B,,,,,,Space,keypress(Space),,,,lyrical,,,,-------------- --- -------- -------- ---------- ---- -------<br>-- ---------- -- --- ----- ------ ----- ---- --------- ----<br>current ------ -------- -- ------ ---------- ------ ---<br>------ -- -- ---- -- ---------- -------- ------ ---- -------<br>---- --- --------- ------- ----- --------- ---- ----- --<br>------ -------- -- ------ -- ---- ------------,363539.6000000015,363532.5,362810.924,362825.6000000015,362827.585,363544.01,,17,current
screen,html.Screen,2_3_1_0_1_18,2022-04-27T11:18:23.280Z,,,,,,,,,,,,,,,,,19,,,,,,,,,,,,,,646.3899999985006,,response,,,,17,B,,,,,,Space,keypress(Space),,,,lyrical,,,,-------------- --- -------- -------- ---------- ---- -------<br>-- ---------- -- --- ----- ------ ----- ---- --------- ----<br>------- models -------- -- ------ ---------- ------ ---<br>------ -- -- ---- -- ---------- -------- ------ ---- -------<br>---- --- --------- ------- ----- --------- ---- ----- --<br>------ -------- -- ------ -- ---- ------------,364193.8999999985,364190.3999999985,363527.349,363539.8999999985,363544.01,364210.437,,18,models
screen,html.Screen,2_3_1_0_1_19,2022-04-27T11:18:24.394Z,,,,,,,,,,,,,,,,,19,,,,,,,,,,,,,,1089.1630000015139,,response,,,,17,B,,,,,,Space,keypress(Space),,,,lyrical,,,,"-------------- --- -------- -------- ---------- ---- -------<br>-- ---------- -- --- ----- ------ ----- ---- --------- ----<br>------- ------ predict, -- ------ ---------- ------ ---<br>------ -- -- ---- -- ---------- -------- ------ ---- -------<br>---- --- --------- ------- ----- --------- ---- ----- --<br>------ -------- -- ------ -- ---- ------------",365308.200000003,365299.6000000015,364193.776,364194.6000000015,364210.437,365326.744,,19,"predict,"
screen,html.Screen,2_3_1_0_1_20,2022-04-27T11:18:24.882Z,,,,,,,,,,,,,,,,,19,,,,,,,,,,,,,,463.5560000044643,,response,,,,17,B,,,,,,Space,keypress(Space),,,,lyrical,,,,-------------- --- -------- -------- ---------- ---- -------<br>-- ---------- -- --- ----- ------ ----- ---- --------- ----<br>------- ------ -------- so ------ ---------- ------ ---<br>------ -- -- ---- -- ---------- -------- ------ ---- -------<br>---- --- --------- ------- ----- --------- ---- ----- --<br>------ -------- -- ------ -- ---- ------------,365795.700000003,365790.30000000447,365310.083,365309.1000000015,365326.744,365809.908,,20,so
screen,html.Screen,2_3_1_0_1_21,2022-04-27T11:18:25.407Z,,,,,,,,,,,,,,,,,19,,,,,,,,,,,,,,506.0920000000042,,response,,,,17,B,,,,,,Space,keypress(Space),,,,lyrical,,,,-------------- --- -------- -------- ---------- ---- -------<br>-- ---------- -- --- ----- ------ ----- ---- --------- ----<br>------- ------ -------- -- stable ---------- ------ ---<br>------ -- -- ---- -- ---------- -------- ------ ---- -------<br>---- --- --------- ------- ----- --------- ---- ----- --<br>------ -------- -- ------ -- ---- ------------,366320.700000003,366316,365793.247,365797.5,365809.908,366326.397,,21,stable
screen,html.Screen,2_3_1_0_1_22,2022-04-27T11:18:25.975Z,,,,,,,,,,,,,,,,,19,,,,,,,,,,,,,,555.6030000000028,,response,,,,17,B,,,,,,Space,keypress(Space),,,,lyrical,,,,-------------- --- -------- -------- ---------- ---- -------<br>-- ---------- -- --- ----- ------ ----- ---- --------- ----<br>------- ------ -------- -- ------ superheavy ------ ---<br>------ -- -- ---- -- ---------- -------- ------ ---- -------<br>---- --- --------- ------- ----- --------- ---- ----- --<br>------ -------- -- ------ -- ---- ------------,366889.3999999985,366882,366309.736,366321.5,366326.397,366892.867,,22,superheavy
screen,html.Screen,2_3_1_0_1_23,2022-04-27T11:18:26.448Z,,,,,,,,,,,,,,,,,19,,,,,,,,,,,,,,461.73300000146264,,response,,,,17,B,,,,,,Space,keypress(Space),,,,lyrical,,,,-------------- --- -------- -------- ---------- ---- -------<br>-- ---------- -- --- ----- ------ ----- ---- --------- ----<br>------- ------ -------- -- ------ ---------- nuclei ---<br>------ -- -- ---- -- ---------- -------- ------ ---- -------<br>---- --- --------- ------- ----- --------- ---- ----- --<br>------ -------- -- ------ -- ---- ------------,367361.8999999985,367354.6000000015,366876.206,366889.6000000015,366892.867,367376.036,,23,nuclei
screen,html.Screen,2_3_1_0_1_24,2022-04-27T11:18:27.288Z,,,,,,,,,,,,,,,,,19,,,,,,,,,,,,,,820.863999998488,,response,,,,17,B,,,,,,Space,keypress(Space),,,,lyrical,,,,-------------- --- -------- -------- ---------- ---- -------<br>-- ---------- -- --- ----- ------ ----- ---- --------- ----<br>------- ------ -------- -- ------ ---------- ------ are<br>------ -- -- ---- -- ---------- -------- ------ ---- -------<br>---- --- --------- ------- ----- --------- ---- ----- --<br>------ -------- -- ------ -- ---- ------------,368202.1000000015,368196.8999999985,367359.375,367362.80000000447,367376.036,368209.093,,24,are
screen,html.Screen,2_3_1_0_1_25,2022-04-27T11:18:27.829Z,,,,,,,,,,,,,,,,,19,,,,,,,,,,,,,,522.0070000014966,,response,,,,17,B,,,,,,Space,keypress(Space),,,,lyrical,,,,-------------- --- -------- -------- ---------- ---- -------<br>-- ---------- -- --- ----- ------ ----- ---- --------- ----<br>------- ------ -------- -- ------ ---------- ------ ---<br>likely -- -- ---- -- ---------- -------- ------ ---- -------<br>---- --- --------- ------- ----- --------- ---- ----- --<br>------ -------- -- ------ -- ---- ------------,368742.80000000447,368731.1000000015,368192.432,368202.8999999985,368209.093,368758.914,,25,likely
screen,html.Screen,2_3_1_0_1_26,2022-04-27T11:18:28.210Z,,,,,,,,,,,,,,,,,19,,,,,,,,,,,,,,357.48599999852013,,response,,,,17,B,,,,,,Space,keypress(Space),,,,lyrical,,,,-------------- --- -------- -------- ---------- ---- -------<br>-- ---------- -- --- ----- ------ ----- ---- --------- ----<br>------- ------ -------- -- ------ ---------- ------ ---<br>------ to -- ---- -- ---------- -------- ------ ---- -------<br>---- --- --------- ------- ----- --------- ---- ----- --<br>------ -------- -- ------ -- ---- ------------,369124.3999999985,369116.3999999985,368742.253,368743.6000000015,368758.914,369142.122,,26,to
screen,html.Screen,2_3_1_0_1_27,2022-04-27T11:18:28.568Z,,,,,,,,,,,,,,,,,19,,,,,,,,,,,,,,334.0780000030063,,response,,,,17,B,,,,,,Space,keypress(Space),,,,lyrical,,,,-------------- --- -------- -------- ---------- ---- -------<br>-- ---------- -- --- ----- ------ ----- ---- --------- ----<br>------- ------ -------- -- ------ ---------- ------ ---<br>------ -- be ---- -- ---------- -------- ------ ---- -------<br>---- --- --------- ------- ----- --------- ---- ----- --<br>------ -------- -- ------ -- ---- ------------,369481.700000003,369476.200000003,369125.461,369125.30000000447,369142.122,369491.998,,27,be
screen,html.Screen,2_3_1_0_1_28,2022-04-27T11:18:29.121Z,,,,,,,,,,,,,,,,,19,,,,,,,,,,,,,,536.8020000044489,,response,,,,17,B,,,,,,Space,keypress(Space),,,,lyrical,,,,-------------- --- -------- -------- ---------- ---- -------<br>-- ---------- -- --- ----- ------ ----- ---- --------- ----<br>------- ------ -------- -- ------ ---------- ------ ---<br>------ -- -- full -- ---------- -------- ------ ---- -------<br>---- --- --------- ------- ----- --------- ---- ----- --<br>------ -------- -- ------ -- ---- ------------,370035.200000003,370028.80000000447,369475.337,369482.30000000447,369491.998,370041.802,,28,full
screen,html.Screen,2_3_1_0_1_29,2022-04-27T11:18:29.518Z,,,,,,,,,,,,,,,,,19,,,,,,,,,,,,,,383.9980000044452,,response,,,,17,B,,,,,,Space,keypress(Space),,,,lyrical,,,,-------------- --- -------- -------- ---------- ---- -------<br>-- ---------- -- --- ----- ------ ----- ---- --------- ----<br>------- ------ -------- -- ------ ---------- ------ ---<br>------ -- -- ---- of ---------- -------- ------ ---- -------<br>---- --- --------- ------- ----- --------- ---- ----- --<br>------ -------- -- ------ -- ---- ------------,370432,370425.80000000447,370025.141,370035.5,370041.802,370441.678,,29,of
screen,html.Screen,2_3_1_0_1_30,2022-04-27T11:18:30.263Z,,,,,,,,,,,,,,,,,19,,,,,,,,,,,,,,731.5220000029658,,response,,,,17,B,,,,,,Space,keypress(Space),,,,lyrical,,,,-------------- --- -------- -------- ---------- ---- -------<br>-- ---------- -- --- ----- ------ ----- ---- --------- ----<br>------- ------ -------- -- ------ ---------- ------ ---<br>------ -- -- ---- -- surprises. -------- ------ ---- -------<br>---- --- --------- ------- ----- --------- ---- ----- --<br>------ -------- -- ------ -- ---- ------------,371176.700000003,371173.200000003,370425.017,370432.3999999985,370441.678,371191.43,,30,surprises.
screen,html.Screen,2_3_1_0_1_31,2022-04-27T11:18:30.798Z,,,,,,,,,,,,,,,,,19,,,,,,,,,,,,,,514.070000000007,,response,,,,17,B,,,,,,Space,keypress(Space),,,,lyrical,,,,-------------- --- -------- -------- ---------- ---- -------<br>-- ---------- -- --- ----- ------ ----- ---- --------- ----<br>------- ------ -------- -- ------ ---------- ------ ---<br>------ -- -- ---- -- ---------- Chemists ------ ---- -------<br>---- --- --------- ------- ----- --------- ---- ----- --<br>------ -------- -- ------ -- ---- ------------,371712.5,371705.5,371174.769,371177.30000000447,371191.43,371724.57,,31,Chemists
screen,html.Screen,2_3_1_0_1_32,2022-04-27T11:18:31.390Z,,,,,,,,,,,,,,,,,19,,,,,,,,,,,,,,573.7300000044634,,response,,,,17,B,,,,,,Space,keypress(Space),,,,lyrical,,,,-------------- --- -------- -------- ---------- ---- -------<br>-- ---------- -- --- ----- ------ ----- ---- --------- ----<br>------- ------ -------- -- ------ ---------- ------ ---<br>------ -- -- ---- -- ---------- -------- cannot ---- -------<br>---- --- --------- ------- ----- --------- ---- ----- --<br>------ -------- -- ------ -- ---- ------------,372304.200000003,372298.30000000447,371707.909,371713,371724.57,372307.703,,32,cannot
screen,html.Screen,2_3_1_0_1_33,2022-04-27T11:18:31.763Z,,,,,,,,,,,,,,,,,19,,,,,,,,,,,,,,361.4970000030007,,response,,,,17,B,,,,,,Space,keypress(Space),,,,lyrical,,,,-------------- --- -------- -------- ---------- ---- -------<br>-- ---------- -- --- ----- ------ ----- ---- --------- ----<br>------- ------ -------- -- ------ ---------- ------ ---<br>------ -- -- ---- -- ---------- -------- ------ even -------<br>---- --- --------- ------- ----- --------- ---- ----- --<br>------ -------- -- ------ -- ---- ------------,372676.6000000015,372669.200000003,372291.042,372305,372307.703,372690.926,,33,even
screen,html.Screen,2_3_1_0_1_34,2022-04-27T11:18:32.255Z,,,,,,,,,,,,,,,,,19,,,,,,,,,,,,,,471.8740000044927,,response,,,,17,B,,,,,,Space,keypress(Space),,,,lyrical,,,,-------------- --- -------- -------- ---------- ---- -------<br>-- ---------- -- --- ----- ------ ----- ---- --------- ----<br>------- ------ -------- -- ------ ---------- ------ ---<br>------ -- -- ---- -- ---------- -------- ------ ---- predict<br>---- --- --------- ------- ----- --------- ---- ----- --<br>------ -------- -- ------ -- ---- ------------,373169,373162.80000000447,372674.265,372677.80000000447,372690.926,373174.083,,34,predict
screen,html.Screen,2_3_1_0_1_35,2022-04-27T11:18:32.641Z,,,,,,,,,,,,,,,,,19,,,,,,,,,,,,,,374.91700000001583,,response,,,,17,B,,,,,,Space,keypress(Space),,,,lyrical,,,,-------------- --- -------- -------- ---------- ---- -------<br>-- ---------- -- --- ----- ------ ----- ---- --------- ----<br>------- ------ -------- -- ------ ---------- ------ ---<br>------ -- -- ---- -- ---------- -------- ------ ---- -------<br>with --- --------- ------- ----- --------- ---- ----- --<br>------ -------- -- ------ -- ---- ------------,373555,373549,373157.422,373170,373174.083,373557.297,,35,with
screen,html.Screen,2_3_1_0_1_36,2022-04-27T11:18:33.090Z,,,,,,,,,,,,,,,,,19,,,,,,,,,,,,,,436.3030000014696,,response,,,,17,B,,,,,,Space,keypress(Space),,,,lyrical,,,,-------------- --- -------- -------- ---------- ---- -------<br>-- ---------- -- --- ----- ------ ----- ---- --------- ----<br>------- ------ -------- -- ------ ---------- ------ ---<br>------ -- -- ---- -- ---------- -------- ------ ---- -------<br>---- any --------- ------- ----- --------- ---- ----- --<br>------ -------- -- ------ -- ---- ------------,374003.6000000015,373993.6000000015,373540.636,373555.3999999985,373557.297,374007.141,,36,any
screen,html.Screen,2_3_1_0_1_37,2022-04-27T11:18:33.655Z,,,,,,,,,,,,,,,,,19,,,,,,,,,,,,,,554.2589999985066,,response,,,,17,B,,,,,,Space,keypress(Space),,,,lyrical,,,,-------------- --- -------- -------- ---------- ---- -------<br>-- ---------- -- --- ----- ------ ----- ---- --------- ----<br>------- ------ -------- -- ------ ---------- ------ ---<br>------ -- -- ---- -- ---------- -------- ------ ---- -------<br>---- --- certainty ------- ----- --------- ---- ----- --<br>------ -------- -- ------ -- ---- ------------,374568.700000003,374561.3999999985,373990.48,374003.8999999985,374007.141,374573.618,,37,certainty
screen,html.Screen,2_3_1_0_1_38,2022-04-27T11:18:34.079Z,,,,,,,,,,,,,,,,,19,,,,,,,,,,,,,,413.38199999998324,,response,,,,17,B,,,,,,Space,keypress(Space),,,,lyrical,,,,-------------- --- -------- -------- ---------- ---- -------<br>-- ---------- -- --- ----- ------ ----- ---- --------- ----<br>------- ------ -------- -- ------ ---------- ------ ---<br>------ -- -- ---- -- ---------- -------- ------ ---- -------<br>---- --- --------- whether ----- --------- ---- ----- --<br>------ -------- -- ------ -- ---- ------------,374992.700000003,374987,374556.957,374569,374573.618,375006.813,,38,whether
screen,html.Screen,2_3_1_0_1_39,2022-04-27T11:18:34.553Z,,,,,,,,,,,,,,,,,19,,,,,,,,,,,,,,452.58699999848614,,response,,,,17,B,,,,,,Space,keypress(Space),,,,lyrical,,,,-------------- --- -------- -------- ---------- ---- -------<br>-- ---------- -- --- ----- ------ ----- ---- --------- ----<br>------- ------ -------- -- ------ ---------- ------ ---<br>------ -- -- ---- -- ---------- -------- ------ ---- -------<br>---- --- --------- ------- these --------- ---- ----- --<br>------ -------- -- ------ -- ---- ------------,375467.30000000447,375459.3999999985,374990.152,374993.80000000447,375006.813,375473.303,,39,these
