sender,sender_type,sender_id,timestamp,meta,,Blues,Classical,Country,Dance,Electronic,Folk,Gospel,Hip-Hop,Jazz,Latin,Musical/Film,New-age,Pop,Prolific_id,Provo_ID,R&B,Rap,Reggae,Religious,Rock,Soul,Swing,Traditional,age,artist_name,correct,correctResponse,distraction,duration,education,ended_on,familiarity,gender,headphone_check_performance,item,list,music_frequency,offensiveness,pleasantness,position_correct,preference,response,response_action,snippet_file,song_name,song_rating,sound,stimulus_1,stimulus_2,stimulus_3,text,time_commit,time_end,time_render,time_run,time_show,time_switch,url,word,word_ID
Prolific ID,html.Form,0,2022-05-03T18:31:27.722Z,"{""labjs_version"":""20.2.2"",""labjs_build"":{""flavor"":""production"",""commit"":""a25486e0c714a0ae2ce03ff94b7bb6896854dcfa""},""location"":""https://run.pavlovia.org/mvasilev/prolific3_music_a/"",""userAgent"":""Mozilla/5.0 (Windows NT 10.0; Win64; x64) AppleWebKit/537.36 (KHTML, like Gecko) Chrome/100.0.4896.127 Safari/537.36"",""platform"":""Win32"",""language"":""en-GB"",""locale"":""en-GB"",""timeZone"":""Europe/London"",""timezoneOffset"":-60,""screen_width"":1366,""screen_height"":768,""scroll_width"":1366,""scroll_height"":619,""window_innerWidth"":1366,""window_innerHeight"":667,""devicePixelRatio"":1}",,,,,,,,,,,,,,,5c5caa79cfdd2800011fc34f,,,,,,,,,,,,,,,28755.48199990463,,form submission,,,,,,,,,,,,,,,,,,,,,82658.5,82657.59999990463,48602.598,47520.5,53902.118,84250.49,{},,
Introduction,html.Screen,1_0,2022-05-03T18:31:50.140Z,,,,,,,,,,,,,,,,,,,,,,,,,,,,,,,20824.509999999995,,response,,,,,,,,,,,continue,click button,,,,,,,,,105077,105075,80934.297,82659.09999990463,84250.49,106049.525,,,
Volume calibration,html.Screen,1_1,2022-05-03T18:32:10.613Z,,,,,,,,,,,,,,,,,,,,,,,,,,,,,,,19497.874999976164,,response,,,,,,,,,,,continue,click button,,,,,,,,,125549.59999990463,125547.39999997616,105066.19,105077.29999995232,106049.525,125581.645,,,
Task instructions,html.Screen,1_2,2022-05-03T18:32:50.308Z,,,,,,,,,,,,,,,,,,,,,,,,,,,,,,,39661.45499990463,,response,,,,,,,,,,,continue,click button,,,,,,,,,165244.5,165243.09999990463,125548.214,125549.79999995232,125581.645,165346.098,,,
Sounds,html.Screen,1_3_0_0,2022-05-03T18:32:54.644Z,,,,,,,,,,,,,,,,,,,,,,,,,,,,,,,4299.815000000002,,timeout,,,,,,,,,3,,,,,,,,I,O,S,,169581.19999992847,169579.209,165229.622,165244.89999997616,165346.098,169645.913,,,
Judgement,html.Screen,1_3_0_1,2022-05-03T18:32:57.500Z,,,,,,,,,,,,,,,,,,,,,,,,,,,,true,3,,2789.286999928474,,response,,,,,,,,,3,,3,click #choice-3,,,,,I,O,S,,172437,172435.19999992847,169579.209,169581.5,169645.913,172445.742,,,
Trial,flow.Sequence,1_3_0,2022-05-03T18:32:57.501Z,,,,,,,,,,,,,,,,,,,,,,,,,,,,,,,7089.101999928476,,completion,,,,,,,,,3,,,,,,,,I,O,S,,172437.5,172435.19999992847,165229.622,165244.79999995232,165346.098,172445.742,,,
Sounds,html.Screen,1_3_1_0,2022-05-03T18:33:01.743Z,,,,,,,,,,,,,,,,,,,,,,,,,,,,,,,4249.723999999987,,timeout,,,,,,,,,3,,,,,,,,O,I,S,,176679.79999995232,176678.846,172429.082,172437.89999997616,172445.742,176695.466,,,
Judgement,html.Screen,1_3_1_1,2022-05-03T18:33:03.084Z,,,,,,,,,,,,,,,,,,,,,,,,,,,,true,3,,1323.6339999046468,,response,,,,,,,,,3,,3,click #choice-3,,,,,O,I,S,,178021,178019.09999990463,176678.846,176680.09999990463,176695.466,178028.644,,,
Trial,flow.Sequence,1_3_1,2022-05-03T18:33:03.085Z,,,,,,,,,,,,,,,,,,,,,,,,,,,,,,,5573.357999904634,,completion,,,,,,,,,3,,,,,,,,O,I,S,,178021.5,178019.09999990463,172429.082,172437.79999995232,172445.742,178028.644,,,
Sounds,html.Screen,1_3_2_0,2022-05-03T18:33:07.326Z,,,,,,,,,,,,,,,,,,,,,,,,,,,,,,,4249.823000000004,,timeout,,,,,,,,,2,,,,,,,,I,S,O,,182263.29999995232,182261.798,178012.328,178021.89999997616,178028.644,182278.467,,,
Judgement,html.Screen,1_3_2_1,2022-05-03T18:33:08.100Z,,,,,,,,,,,,,,,,,,,,,,,,,,,,true,2,,756.6329999046284,,response,,,,,,,,,2,,2,click #choice-2,,,,,I,S,O,,183036.69999992847,183035.09999990463,182261.798,182263.59999990463,182278.467,183045.004,,,
Trial,flow.Sequence,1_3_2,2022-05-03T18:33:08.100Z,,,,,,,,,,,,,,,,,,,,,,,,,,,,,,,5006.455999904632,,completion,,,,,,,,,2,,,,,,,,I,S,O,,183037.19999992847,183035.09999990463,178012.328,178021.69999992847,178028.644,183045.004,,,
Sounds,html.Screen,1_3_3_0,2022-05-03T18:33:12.342Z,,,,,,,,,,,,,,,,,,,,,,,,,,,,,,,4249.90300000002,,timeout,,,,,,,,,1,,,,,,,,S,O,I,,187279.19999992847,187278.169,183028.496,183037.39999997616,183045.004,187294.907,,,
Judgement,html.Screen,1_3_3_1,2022-05-03T18:33:14.588Z,,,,,,,,,,,,,,,,,,,,,,,,,,,,true,1,,2228.192999904626,,response,,,,,,,,,1,,1,click #choice-1,,,,,S,O,I,,189524.79999995232,189523.09999990463,187278.169,187279.39999997616,187294.907,189528.038,,,
Trial,flow.Sequence,1_3_3,2022-05-03T18:33:14.588Z,,,,,,,,,,,,,,,,,,,,,,,,,,,,,,,6478.095999904646,,completion,,,,,,,,,1,,,,,,,,S,O,I,,189525.19999992847,189523.09999990463,183028.496,183037.39999997616,183045.004,189528.038,,,
Sounds,html.Screen,1_3_4_0,2022-05-03T18:33:18.826Z,,,,,,,,,,,,,,,,,,,,,,,,,,,,,,,4250,,timeout,,,,,,,,,1,,,,,,,,S,I,O,,193762.79999995232,193761.251,189511.377,189525.5,189528.038,193778.038,,,
Judgement,html.Screen,1_3_4_1,2022-05-03T18:33:21.037Z,,,,,,,,,,,,,,,,,,,,,,,,,,,,true,1,,2194.061999904632,,response,,,,,,,,,1,,1,click #choice-1,,,,,S,I,O,,195973.69999992847,195972.09999990463,193761.251,193763.19999992847,193778.038,195977.711,,,
Trial,flow.Sequence,1_3_4,2022-05-03T18:33:21.037Z,,,,,,,,,,,,,,,,,,,,,,,,,,,,,,,6444.061999904632,,completion,,,,,,,,,1,,,,,,,,S,I,O,,195974.09999990463,195972.09999990463,189511.377,189525.39999997616,189528.038,195977.711,,,
Sounds,html.Screen,1_3_5_0,2022-05-03T18:33:25.275Z,,,,,,,,,,,,,,,,,,,,,,,,,,,,,,,4249.729999999981,,timeout,,,,,,,,,2,,,,,,,,O,S,I,,200211.89999997616,200210.852,195961.147,195974.5,195977.711,200227.441,,,
Judgement,html.Screen,1_3_5_1,2022-05-03T18:33:26.741Z,,,,,,,,,,,,,,,,,,,,,,,,,,,,true,2,,1448.0590000000084,,response,,,,,,,,,2,,2,click #choice-2,,,,,O,S,I,,201678.29999995232,201675.5,200210.852,200212.19999992847,200227.441,201844.113,,,
Trial,flow.Sequence,1_3_5,2022-05-03T18:33:26.742Z,,,,,,,,,,,,,,,,,,,,,,,,,,,,,,,5697.78899999999,,completion,,,,,,,,,2,,,,,,,,O,S,I,,201678.69999992847,201675.5,195961.147,195974.5,195977.711,201844.113,,,
Task,flow.Loop,1_3,2022-05-03T18:33:26.743Z,,,,,,,,,,,,,,,,,,,,,,,,,,,,,,,36329.402,,completion,,,1,,,,,,,,,,,,,,,,,,201679.89999997616,201675.5,165229.622,165244.69999992847,165346.098,201844.113,,,
Trap,html.Screen,1_4,2022-05-03T18:33:26.894Z,,,,,,,,,,,,,,,,,,,,,,,,,,,,,,,NaN,,skipped,,,,,,,,,,,,,,,,,,,,,201830.5,201675.5,,201830,,201844.113,,,
Thanks,html.Screen,1_5,2022-05-03T18:33:40.976Z,,,,,,,,,,,,,,,,,,,,,,,,,,,,,,,14063.98699990462,,response,,,,,,,,,,,continue,click button,,,,,,,,,215913,215908.09999990463,201660.712,201831,201844.113,245576.581,,,
Headphone screening,flow.Sequence,1,2022-05-03T18:33:40.977Z,,,,,,,,,,,,,,,,,,,,,,,,,,,,,,,131657.60999990464,,completion,,,,,,,,,,,,,,,,,,,,,215913.39999997616,215908.09999990463,80934.297,82659,84250.49,245576.581,,,
Instructions,html.Page,2_0,2022-05-03T18:35:05.068Z,,,,,,,,,,,,,,,,,,,,,,,,,,,,,,,54427.31899997615,,form submission,,,,,,,,,,,,,,,,,,,,,300004.89999997616,300003.89999997616,243925.457,244346.89999997616,245576.581,300122.111,,,
Holding screen,html.Screen,2_1_0_0,2022-05-03T18:35:15.221Z,,,,,,,,,,,,,,,,,,,,,,,,,,,,,,,10282.828000000038,,timeout,,,,,,,,,,,,,,,,,,,,,310157.6999999285,310154.915,299938.823,300005.59999990463,300122.111,310404.939,,,
screen,html.Screen,2_1_0_1_0,2022-05-03T18:35:17.461Z,,,,,,,,,,,,,,,,,53,,,,,,,,,,,,,,1988.560999999987,,response,,,,99,,,,,,,Space,keypress(Space),,,,,,,,When -- ----- -- ------ - ------- --- ----------<br>------------- ------ ------ ---- ---- ------- ----- -- ----<br>-------- ------- -- ---------- --- - --- ----- ----- ----<br>---- --- --- ----- --- ---- ---- ------- ----- ---- -------<br>--- --- -- ----- -- --- ---- -- --- ---- -- ------ ------<br>--- ----- -- ----,312398.1999999285,312393.5,310154.915,310158.89999997616,310404.939,312404.747,,0,When
screen,html.Screen,2_1_0_1_1,2022-05-03T18:35:18.234Z,,,,,,,,,,,,,,,,,53,,,,,,,,,,,,,,765.0529999523424,,response,,,,99,,,,,,,Space,keypress(Space),,,,,,,,---- it ----- -- ------ - ------- --- ----------<br>------------- ------ ------ ---- ---- ------- ----- -- ----<br>-------- ------- -- ---------- --- - --- ----- ----- ----<br>---- --- --- ----- --- ---- ---- ------- ----- ---- -------<br>--- --- -- ----- -- --- ---- -- --- ---- -- ------ ------<br>--- ----- -- ----,313170.7999999523,313169.7999999523,312387.957,312398.7999999523,312404.747,313187.922,,1,it
screen,html.Screen,2_1_0_1_2,2022-05-03T18:35:19.023Z,,,,,,,,,,,,,,,,,53,,,,,,,,,,,,,,770.1779999046121,,response,,,,99,,,,,,,Space,keypress(Space),,,,,,,,---- -- comes -- ------ - ------- --- ----------<br>------------- ------ ------ ---- ---- ------- ----- -- ----<br>-------- ------- -- ---------- --- - --- ----- ----- ----<br>---- --- --- ----- --- ---- ---- ------- ----- ---- -------<br>--- --- -- ----- -- --- ---- -- --- ---- -- ------ ------<br>--- ----- -- ----,313960,313958.09999990463,313171.296,313171,313187.922,313971.323,,2,comes
screen,html.Screen,2_1_0_1_3,2022-05-03T18:35:19.782Z,,,,,,,,,,,,,,,,,53,,,,,,,,,,,,,,746.5769999761833,,response,,,,99,,,,,,,Space,keypress(Space),,,,,,,,---- -- ----- to ------ - ------- --- ----------<br>------------- ------ ------ ---- ---- ------- ----- -- ----<br>-------- ------- -- ---------- --- - --- ----- ----- ----<br>---- --- --- ----- --- ---- ---- ------- ----- ---- -------<br>--- --- -- ----- -- --- ---- -- --- ---- -- ------ ------<br>--- ----- -- ----,314719.1999999285,314717.89999997616,313954.569,313960.5,313971.323,314746.425,,3,to
screen,html.Screen,2_1_0_1_4,2022-05-03T18:35:20.451Z,,,,,,,,,,,,,,,,,53,,,,,,,,,,,,,,641.0750000000116,,response,,,,99,,,,,,,Space,keypress(Space),,,,,,,,---- -- ----- -- having - ------- --- ----------<br>------------- ------ ------ ---- ---- ------- ----- -- ----<br>-------- ------- -- ---------- --- - --- ----- ----- ----<br>---- --- --- ----- --- ---- ---- ------- ----- ---- -------<br>--- --- -- ----- -- --- ---- -- --- ---- -- ------ ------<br>--- ----- -- ----,315388.5,315387.5,314704.587,314719.39999997616,314746.425,315404.465,,4,having
screen,html.Screen,2_1_0_1_5,2022-05-03T18:35:21.202Z,,,,,,,,,,,,,,,,,53,,,,,,,,,,,,,,733.134999904607,,response,,,,99,,,,,,,Space,keypress(Space),,,,,,,,---- -- ----- -- ------ a ------- --- ----------<br>------------- ------ ------ ---- ---- ------- ----- -- ----<br>-------- ------- -- ---------- --- - --- ----- ----- ----<br>---- --- --- ----- --- ---- ---- ------- ----- ---- -------<br>--- --- -- ----- -- --- ---- -- --- ---- -- ------ ------<br>--- ----- -- ----,316139.1999999285,316137.59999990463,315387.919,315388.7999999523,315404.465,316154.571,,5,a
screen,html.Screen,2_1_0_1_6,2022-05-03T18:35:21.852Z,,,,,,,,,,,,,,,,,53,,,,,,,,,,,,,,632.4290000000037,,response,,,,99,,,,,,,Space,keypress(Space),,,,,,,,---- -- ----- -- ------ - lasting --- ----------<br>------------- ------ ------ ---- ---- ------- ----- -- ----<br>-------- ------- -- ---------- --- - --- ----- ----- ----<br>---- --- --- ----- --- ---- ---- ------- ----- ---- -------<br>--- --- -- ----- -- --- ---- -- --- ---- -- ------ ------<br>--- ----- -- ----,316788.59999990463,316787,316137.809,316139.59999990463,316154.571,316804.625,,6,lasting
screen,html.Screen,2_1_0_1_7,2022-05-03T18:35:22.608Z,,,,,,,,,,,,,,,,,53,,,,,,,,,,,,,,738.9749999046326,,response,,,,99,,,,,,,Space,keypress(Space),,,,,,,,---- -- ----- -- ------ - ------- and ----------<br>------------- ------ ------ ---- ---- ------- ----- -- ----<br>-------- ------- -- ---------- --- - --- ----- ----- ----<br>---- --- --- ----- --- ---- ---- ------- ----- ---- -------<br>--- --- -- ----- -- --- ---- -- --- ---- -- ------ ------<br>--- ----- -- ----,317545.09999990463,317543.59999990463,316788.11,316789,316804.625,317554.463,,7,and
screen,html.Screen,2_1_0_1_8,2022-05-03T18:35:23.269Z,,,,,,,,,,,,,,,,,53,,,,,,,,,,,,,,649.9369999761693,,response,,,,99,,,,,,,Space,keypress(Space),,,,,,,,---- -- ----- -- ------ - ------- --- fulfilling<br>------------- ------ ------ ---- ---- ------- ----- -- ----<br>-------- ------- -- ---------- --- - --- ----- ----- ----<br>---- --- --- ----- --- ---- ---- ------- ----- ---- -------<br>--- --- -- ----- -- --- ---- -- --- ---- -- ------ ------<br>--- ----- -- ----,318206.39999997616,318204.39999997616,317538.065,317545.5,317554.463,318221.077,,8,fulfilling
screen,html.Screen,2_1_0_1_9,2022-05-03T18:35:24.174Z,,,,,,,,,,,,,,,,,53,,,,,,,,,,,,,,889.0229999046423,,response,,,,99,,,,,,,Space,keypress(Space),,,,,,,,"---- -- ----- -- ------ - ------- --- ----------<br>relationship, ------ ------ ---- ---- ------- ----- -- ----<br>-------- ------- -- ---------- --- - --- ----- ----- ----<br>---- --- --- ----- --- ---- ---- ------- ----- ---- -------<br>--- --- -- ----- -- --- ---- -- --- ---- -- ------ ------<br>--- ----- -- ----",319111.1999999285,319110.09999990463,318204.695,318206.7999999523,318221.077,319120.957,,9,"relationship,"
screen,html.Screen,2_1_0_1_10,2022-05-03T18:35:25.037Z,,,,,,,,,,,,,,,,,53,,,,,,,,,,,,,,850.9429999761633,,response,,,,99,,,,,,,Space,keypress(Space),,,,,,,,---- -- ----- -- ------ - ------- --- ----------<br>------------- common ------ ---- ---- ------- ----- -- ----<br>-------- ------- -- ---------- --- - --- ----- ----- ----<br>---- --- --- ----- --- ---- ---- ------- ----- ---- -------<br>--- --- -- ----- -- --- ---- -- --- ---- -- ------ ------<br>--- ----- -- ----,319974.5,319971.89999997616,319104.285,319111.5,319120.957,319987.654,,10,common
screen,html.Screen,2_1_0_1_11,2022-05-03T18:35:25.843Z,,,,,,,,,,,,,,,,,53,,,,,,,,,,,,,,789.4459999046521,,response,,,,99,,,,,,,Space,keypress(Space),,,,,,,,---- -- ----- -- ------ - ------- --- ----------<br>------------- ------ wisdom ---- ---- ------- ----- -- ----<br>-------- ------- -- ---------- --- - --- ----- ----- ----<br>---- --- --- ----- --- ---- ---- ------- ----- ---- -------<br>--- --- -- ----- -- --- ---- -- --- ---- -- ------ ------<br>--- ----- -- ----,320780.39999997616,320777.09999990463,319971.005,319974.89999997616,319987.654,320787.627,,11,wisdom
screen,html.Screen,2_1_0_1_12,2022-05-03T18:35:26.625Z,,,,,,,,,,,,,,,,,53,,,,,,,,,,,,,,772.5729999284958,,response,,,,99,,,,,,,Space,keypress(Space),,,,,,,,---- -- ----- -- ------ - ------- --- ----------<br>------------- ------ ------ says ---- ------- ----- -- ----<br>-------- ------- -- ---------- --- - --- ----- ----- ----<br>---- --- --- ----- --- ---- ---- ------- ----- ---- -------<br>--- --- -- ----- -- --- ---- -- --- ---- -- ------ ------<br>--- ----- -- ----,321562.09999990463,321560.1999999285,320770.998,320780.7999999523,320787.627,321570.902,,12,says
screen,html.Screen,2_1_0_1_13,2022-05-03T18:35:27.433Z,,,,,,,,,,,,,,,,,53,,,,,,,,,,,,,,795.4979999761563,,response,,,,99,,,,,,,Space,keypress(Space),,,,,,,,---- -- ----- -- ------ - ------- --- ----------<br>------------- ------ ------ ---- that ------- ----- -- ----<br>-------- ------- -- ---------- --- - --- ----- ----- ----<br>---- --- --- ----- --- ---- ---- ------- ----- ---- -------<br>--- --- -- ----- -- --- ---- -- --- ---- -- ------ ------<br>--- ----- -- ----,322369.6999999285,322366.39999997616,321555.352,321562.59999990463,321570.902,322387.549,,13,that
screen,html.Screen,2_1_0_1_14,2022-05-03T18:35:28.385Z,,,,,,,,,,,,,,,,,53,,,,,,,,,,,,,,932.9510000000009,,response,,,,99,,,,,,,Space,keypress(Space),,,,,,,,---- -- ----- -- ------ - ------- --- ----------<br>------------- ------ ------ ---- ---- feeling ----- -- ----<br>-------- ------- -- ---------- --- - --- ----- ----- ----<br>---- --- --- ----- --- ---- ---- ------- ----- ---- -------<br>--- --- -- ----- -- --- ---- -- --- ---- -- ------ ------<br>--- ----- -- ----,323321.59999990463,323320.5,322371.042,322370.1999999285,322387.549,323337.398,,14,feeling
screen,html.Screen,2_1_0_1_15,2022-05-03T18:35:29.218Z,,,,,,,,,,,,,,,,,53,,,,,,,,,,,,,,815.4019999523298,,response,,,,99,,,,,,,Space,keypress(Space),,,,,,,,---- -- ----- -- ------ - ------- --- ----------<br>------------- ------ ------ ---- ---- ------- close -- ----<br>-------- ------- -- ---------- --- - --- ----- ----- ----<br>---- --- --- ----- --- ---- ---- ------- ----- ---- -------<br>--- --- -- ----- -- --- ---- -- --- ---- -- ------ ------<br>--- ----- -- ----,324154.7999999523,324152.7999999523,323320.894,323321.7999999523,323337.398,324171.025,,15,close
screen,html.Screen,2_1_0_1_16,2022-05-03T18:35:29.871Z,,,,,,,,,,,,,,,,,53,,,,,,,,,,,,,,634.774999952293,,response,,,,99,,,,,,,Space,keypress(Space),,,,,,,,---- -- ----- -- ------ - ------- --- ----------<br>------------- ------ ------ ---- ---- ------- ----- to ----<br>-------- ------- -- ---------- --- - --- ----- ----- ----<br>---- --- --- ----- --- ---- ---- ------- ----- ---- -------<br>--- --- -- ----- -- --- ---- -- --- ---- -- ------ ------<br>--- ----- -- ----,324808.09999990463,324805.7999999523,324154.07,324155.2999999523,324171.025,324820.686,,16,to
screen,html.Screen,2_1_0_1_17,2022-05-03T18:35:30.503Z,,,,,,,,,,,,,,,,,53,,,,,,,,,,,,,,618.0139999284875,,response,,,,99,,,,,,,Space,keypress(Space),,,,,,,,---- -- ----- -- ------ - ------- --- ----------<br>------------- ------ ------ ---- ---- ------- ----- -- your<br>-------- ------- -- ---------- --- - --- ----- ----- ----<br>---- --- --- ----- --- ---- ---- ------- ----- ---- -------<br>--- --- -- ----- -- --- ---- -- --- ---- -- ------ ------<br>--- ----- -- ----,325439.59999990463,325438.6999999285,324804.089,324808.59999990463,324820.686,325453.959,,17,your
screen,html.Screen,2_1_0_1_18,2022-05-03T18:35:31.230Z,,,,,,,,,,,,,,,,,53,,,,,,,,,,,,,,709.6409999046591,,response,,,,99,,,,,,,Space,keypress(Space),,,,,,,,---- -- ----- -- ------ - ------- --- ----------<br>------------- ------ ------ ---- ---- ------- ----- -- ----<br>romantic ------- -- ---------- --- - --- ----- ----- ----<br>---- --- --- ----- --- ---- ---- ------- ----- ---- -------<br>--- --- -- ----- -- --- ---- -- --- ---- -- ------ ------<br>--- ----- -- ----,326167.5,326163.59999990463,325437.648,325439.89999997616,325453.959,326170.601,,18,romantic
screen,html.Screen,2_1_0_1_19,2022-05-03T18:35:31.920Z,,,,,,,,,,,,,,,,,53,,,,,,,,,,,,,,683.6989999522921,,response,,,,99,,,,,,,Space,keypress(Space),,,,,,,,---- -- ----- -- ------ - ------- --- ----------<br>------------- ------ ------ ---- ---- ------- ----- -- ----<br>-------- partner -- ---------- --- - --- ----- ----- ----<br>---- --- --- ----- --- ---- ---- ------- ----- ---- -------<br>--- --- -- ----- -- --- ---- -- --- ---- -- ------ ------<br>--- ----- -- ----,326856.6999999285,326854.2999999523,326153.927,326167.89999997616,326170.601,326870.739,,19,partner
screen,html.Screen,2_1_0_1_20,2022-05-03T18:35:32.653Z,,,,,,,,,,,,,,,,,53,,,,,,,,,,,,,,717.460999928473,,response,,,,99,,,,,,,Space,keypress(Space),,,,,,,,---- -- ----- -- ------ - ------- --- ----------<br>------------- ------ ------ ---- ---- ------- ----- -- ----<br>-------- ------- is ---------- --- - --- ----- ----- ----<br>---- --- --- ----- --- ---- ---- ------- ----- ---- -------<br>--- --- -- ----- -- --- ---- -- --- ---- -- ------ ------<br>--- ----- -- ----,327589.7999999523,327588.1999999285,326854.209,326857.09999990463,326870.739,327603.833,,20,is
screen,html.Screen,2_1_0_1_21,2022-05-03T18:35:33.419Z,,,,,,,,,,,,,,,,,53,,,,,,,,,,,,,,750.9669999523321,,response,,,,99,,,,,,,Space,keypress(Space),,,,,,,,---- -- ----- -- ------ - ------- --- ----------<br>------------- ------ ------ ---- ---- ------- ----- -- ----<br>-------- ------- -- paramount. --- - --- ----- ----- ----<br>---- --- --- ----- --- ---- ---- ------- ----- ---- -------<br>--- --- -- ----- -- --- ---- -- --- ---- -- ------ ------<br>--- ----- -- ----,328356.39999997616,328354.7999999523,327587.455,327590.1999999285,327603.833,328370.53,,21,paramount.
screen,html.Screen,2_1_0_1_22,2022-05-03T18:35:34.340Z,,,,,,,,,,,,,,,,,53,,,,,,,,,,,,,,905.5699999046046,,response,,,,99,,,,,,,Space,keypress(Space),,,,,,,,---- -- ----- -- ------ - ------- --- ----------<br>------------- ------ ------ ---- ---- ------- ----- -- ----<br>-------- ------- -- ---------- But - --- ----- ----- ----<br>---- --- --- ----- --- ---- ---- ------- ----- ---- -------<br>--- --- -- ----- -- --- ---- -- --- ---- -- ------ ------<br>--- ----- -- ----,329277.5,329276.09999990463,328354.135,328356.89999997616,328370.53,329287.065,,22,But
screen,html.Screen,2_1_0_1_23,2022-05-03T18:35:35.160Z,,,,,,,,,,,,,,,,,53,,,,,,,,,,,,,,807.734999952314,,response,,,,99,,,,,,,Space,keypress(Space),,,,,,,,---- -- ----- -- ------ - ------- --- ----------<br>------------- ------ ------ ---- ---- ------- ----- -- ----<br>-------- ------- -- ---------- --- a --- ----- ----- ----<br>---- --- --- ----- --- ---- ---- ------- ----- ---- -------<br>--- --- -- ----- -- --- ---- -- --- ---- -- ------ ------<br>--- ----- -- ----,330096.59999990463,330094.7999999523,329270.45,329277.7999999523,329287.065,330103.74,,23,a
screen,html.Screen,2_1_0_1_24,2022-05-03T18:35:35.907Z,,,,,,,,,,,,,,,,,53,,,,,,,,,,,,,,736.2600000000093,,response,,,,99,,,,,,,Space,keypress(Space),,,,,,,,---- -- ----- -- ------ - ------- --- ----------<br>------------- ------ ------ ---- ---- ------- ----- -- ----<br>-------- ------- -- ---------- --- - new ----- ----- ----<br>---- --- --- ----- --- ---- ---- ------- ----- ---- -------<br>--- --- -- ----- -- --- ---- -- --- ---- -- ------ ------<br>--- ----- -- ----,330843.89999997616,330840,330087.02,330096.89999997616,330103.74,330853.749,,24,new
screen,html.Screen,2_1_0_1_25,2022-05-03T18:35:36.613Z,,,,,,,,,,,,,,,,,53,,,,,,,,,,,,,,695.0509999523056,,response,,,,99,,,,,,,Space,keypress(Space),,,,,,,,---- -- ----- -- ------ - ------- --- ----------<br>------------- ------ ------ ---- ---- ------- ----- -- ----<br>-------- ------- -- ---------- --- - --- study ----- ----<br>---- --- --- ----- --- ---- ---- ------- ----- ---- -------<br>--- --- -- ----- -- --- ---- -- --- ---- -- ------ ------<br>--- ----- -- ----,331549.89999997616,331548.7999999523,330837.099,330844.39999997616,330853.749,331553.609,,25,study
screen,html.Screen,2_1_0_1_26,2022-05-03T18:35:37.285Z,,,,,,,,,,,,,,,,,53,,,,,,,,,,,,,,666.4909999046358,,response,,,,99,,,,,,,Space,keypress(Space),,,,,,,,---- -- ----- -- ------ - ------- --- ----------<br>------------- ------ ------ ---- ---- ------- ----- -- ----<br>-------- ------- -- ---------- --- - --- ----- finds ----<br>---- --- --- ----- --- ---- ---- ------- ----- ---- -------<br>--- --- -- ----- -- --- ---- -- --- ---- -- ------ ------<br>--- ----- -- ----,332222,332220.09999990463,331537.419,331550.09999990463,331553.609,332237.232,,26,finds
screen,html.Screen,2_1_0_1_27,2022-05-03T18:35:38.003Z,,,,,,,,,,,,,,,,,53,,,,,,,,,,,,,,700.9679999284563,,response,,,,99,,,,,,,Space,keypress(Space),,,,,,,,---- -- ----- -- ------ - ------- --- ----------<br>------------- ------ ------ ---- ---- ------- ----- -- ----<br>-------- ------- -- ---------- --- - --- ----- ----- that<br>---- --- --- ----- --- ---- ---- ------- ----- ---- -------<br>--- --- -- ----- -- --- ---- -- --- ---- -- ------ ------<br>--- ----- -- ----,332940.5,332938.1999999285,332220.39,332222.39999997616,332237.232,332953.746,,27,that
screen,html.Screen,2_1_0_1_28,2022-05-03T18:35:38.739Z,,,,,,,,,,,,,,,,,53,,,,,,,,,,,,,,719.9539999284898,,response,,,,99,,,,,,,Space,keypress(Space),,,,,,,,---- -- ----- -- ------ - ------- --- ----------<br>------------- ------ ------ ---- ---- ------- ----- -- ----<br>-------- ------- -- ---------- --- - --- ----- ----- ----<br>it's --- --- ----- --- ---- ---- ------- ----- ---- -------<br>--- --- -- ----- -- --- ---- -- --- ---- -- ------ ------<br>--- ----- -- ----,333675.7999999523,333673.6999999285,332937.199,332941,332953.746,333687.07,,28,it's
screen,html.Screen,2_1_0_1_29,2022-05-03T18:35:39.413Z,,,,,,,,,,,,,,,,,53,,,,,,,,,,,,,,662.429999999993,,response,,,,99,,,,,,,Space,keypress(Space),,,,,,,,---- -- ----- -- ------ - ------- --- ----------<br>------------- ------ ------ ---- ---- ------- ----- -- ----<br>-------- ------- -- ---------- --- - --- ----- ----- ----<br>---- not --- ----- --- ---- ---- ------- ----- ---- -------<br>--- --- -- ----- -- --- ---- -- --- ---- -- ------ ------<br>--- ----- -- ----,334350.59999990463,334349.5,333670.194,333676.1999999285,333687.07,334353.505,,29,not
screen,html.Screen,2_1_0_1_30,2022-05-03T18:35:40.077Z,,,,,,,,,,,,,,,,,53,,,,,,,,,,,,,,659.6949999284698,,response,,,,99,,,,,,,Space,keypress(Space),,,,,,,,---- -- ----- -- ------ - ------- --- ----------<br>------------- ------ ------ ---- ---- ------- ----- -- ----<br>-------- ------- -- ---------- --- - --- ----- ----- ----<br>---- --- how ----- --- ---- ---- ------- ----- ---- -------<br>--- --- -- ----- -- --- ---- -- --- ---- -- ------ ------<br>--- ----- -- ----,335014.39999997616,335013.1999999285,334336.898,334350.6999999285,334353.505,335020.385,,30,how
screen,html.Screen,2_1_0_1_31,2022-05-03T18:35:40.805Z,,,,,,,,,,,,,,,,,53,,,,,,,,,,,,,,719.3149999284651,,response,,,,99,,,,,,,Space,keypress(Space),,,,,,,,---- -- ----- -- ------ - ------- --- ----------<br>------------- ------ ------ ---- ---- ------- ----- -- ----<br>-------- ------- -- ---------- --- - --- ----- ----- ----<br>---- --- --- close --- ---- ---- ------- ----- ---- -------<br>--- --- -- ----- -- --- ---- -- --- ---- -- ------ ------<br>--- ----- -- ----,335741.7999999523,335739.6999999285,335003.502,335014.59999990463,335020.385,335754.907,,31,close
screen,html.Screen,2_1_0_1_32,2022-05-03T18:35:41.504Z,,,,,,,,,,,,,,,,,53,,,,,,,,,,,,,,684.5929999999935,,response,,,,99,,,,,,,Space,keypress(Space),,,,,,,,---- -- ----- -- ------ - ------- --- ----------<br>------------- ------ ------ ---- ---- ------- ----- -- ----<br>-------- ------- -- ---------- --- - --- ----- ----- ----<br>---- --- --- ----- you ---- ---- ------- ----- ---- -------<br>--- --- -- ----- -- --- ---- -- --- ---- -- ------ ------<br>--- ----- -- ----,336441.39999997616,336439.5,335736.771,335742,335754.907,336453.363,,32,you
screen,html.Screen,2_1_0_1_33,2022-05-03T18:35:42.162Z,,,,,,,,,,,,,,,,,53,,,,,,,,,,,,,,644.8369999284623,,response,,,,99,,,,,,,Space,keypress(Space),,,,,,,,---- -- ----- -- ------ - ------- --- ----------<br>------------- ------ ------ ---- ---- ------- ----- -- ----<br>-------- ------- -- ---------- --- - --- ----- ----- ----<br>---- --- --- ----- --- feel ---- ------- ----- ---- -------<br>--- --- -- ----- -- --- ---- -- --- ---- -- ------ ------<br>--- ----- -- ----,337099.09999990463,337098.1999999285,336436.92,336441.7999999523,336453.363,337103.333,,33,feel
screen,html.Screen,2_1_0_1_34,2022-05-03T18:35:42.895Z,,,,,,,,,,,,,,,,,53,,,,,,,,,,,,,,726.566999976174,,response,,,,99,,,,,,,Space,keypress(Space),,,,,,,,---- -- ----- -- ------ - ------- --- ----------<br>------------- ------ ------ ---- ---- ------- ----- -- ----<br>-------- ------- -- ---------- --- - --- ----- ----- ----<br>---- --- --- ----- --- ---- that ------- ----- ---- -------<br>--- --- -- ----- -- --- ---- -- --- ---- -- ------ ------<br>--- ----- -- ----,337831.7999999523,337829.89999997616,337086.707,337099.2999999523,337103.333,337836.713,,34,that
screen,html.Screen,2_1_0_1_35,2022-05-03T18:35:43.559Z,,,,,,,,,,,,,,,,,53,,,,,,,,,,,,,,657.9869999284856,,response,,,,99,,,,,,,Space,keypress(Space),,,,,,,,---- -- ----- -- ------ - ------- --- ----------<br>------------- ------ ------ ---- ---- ------- ----- -- ----<br>-------- ------- -- ---------- --- - --- ----- ----- ----<br>---- --- --- ----- --- ---- ---- matters ----- ---- -------<br>--- --- -- ----- -- --- ---- -- --- ---- -- ------ ------<br>--- ----- -- ----,338496.09999990463,338494.6999999285,337819.926,337832.1999999285,337836.713,338503.224,,35,matters
screen,html.Screen,2_1_0_1_36,2022-05-03T18:35:44.418Z,,,,,,,,,,,,,,,,,53,,,,,,,,,,,,,,850.1759999761707,,response,,,,99,,,,,,,Space,keypress(Space),,,,,,,,"---- -- ----- -- ------ - ------- --- ----------<br>------------- ------ ------ ---- ---- ------- ----- -- ----<br>-------- ------- -- ---------- --- - --- ----- ----- ----<br>---- --- --- ----- --- ---- ---- ------- most, ---- -------<br>--- --- -- ----- -- --- ---- -- --- ---- -- ------ ------<br>--- ----- -- ----",339354.6999999285,339353.39999997616,338486.772,338496.1999999285,338503.224,339369.841,,36,"most,"
screen,html.Screen,2_1_0_1_37,2022-05-03T18:35:45.182Z,,,,,,,,,,,,,,,,,53,,,,,,,,,,,,,,747.5589999761432,,response,,,,99,,,,,,,Space,keypress(Space),,,,,,,,---- -- ----- -- ------ - ------- --- ----------<br>------------- ------ ------ ---- ---- ------- ----- -- ----<br>-------- ------- -- ---------- --- - --- ----- ----- ----<br>---- --- --- ----- --- ---- ---- ------- ----- it's -------<br>--- --- -- ----- -- --- ---- -- --- ---- -- ------ ------<br>--- ----- -- ----,340119.09999990463,340117.39999997616,339353.281,339355,339369.841,340136.659,,37,it's
screen,html.Screen,2_1_0_1_38,2022-05-03T18:35:46.027Z,,,,,,,,,,,,,,,,,53,,,,,,,,,,,,,,824.0409999284893,,response,,,,99,,,,,,,Space,keypress(Space),,,,,,,,---- -- ----- -- ------ - ------- --- ----------<br>------------- ------ ------ ---- ---- ------- ----- -- ----<br>-------- ------- -- ---------- --- - --- ----- ----- ----<br>---- --- --- ----- --- ---- ---- ------- ----- ---- whether<br>--- --- -- ----- -- --- ---- -- --- ---- -- ------ ------<br>--- ----- -- ----,340963.59999990463,340960.6999999285,340103.28,340119.39999997616,340136.659,340969.833,,38,whether
screen,html.Screen,2_1_0_1_39,2022-05-03T18:35:46.717Z,,,,,,,,,,,,,,,,,53,,,,,,,,,,,,,,681.9669999523321,,response,,,,99,,,,,,,Space,keypress(Space),,,,,,,,---- -- ----- -- ------ - ------- --- ----------<br>------------- ------ ------ ---- ---- ------- ----- -- ----<br>-------- ------- -- ---------- --- - --- ----- ----- ----<br>---- --- --- ----- --- ---- ---- ------- ----- ---- -------<br>you --- -- ----- -- --- ---- -- --- ---- -- ------ ------<br>--- ----- -- ----,341654.1999999285,341651.7999999523,340953.279,340964,340969.833,341669.915,,39,you
screen,html.Screen,2_1_0_1_40,2022-05-03T18:35:47.427Z,,,,,,,,,,,,,,,,,53,,,,,,,,,,,,,,692.8849999523372,,response,,,,99,,,,,,,Space,keypress(Space),,,,,,,,---- -- ----- -- ------ - ------- --- ----------<br>------------- ------ ------ ---- ---- ------- ----- -- ----<br>-------- ------- -- ---------- --- - --- ----- ----- ----<br>---- --- --- ----- --- ---- ---- ------- ----- ---- -------<br>--- are -- ----- -- --- ---- -- --- ---- -- ------ ------<br>--- ----- -- ----,342364.39999997616,342362.7999999523,341653.061,341654.59999990463,341669.915,342369.782,,40,are
screen,html.Screen,2_1_0_1_41,2022-05-03T18:35:48.100Z,,,,,,,,,,,,,,,,,53,,,,,,,,,,,,,,665.4179999284679,,response,,,,99,,,,,,,Space,keypress(Space),,,,,,,,---- -- ----- -- ------ - ------- --- ----------<br>------------- ------ ------ ---- ---- ------- ----- -- ----<br>-------- ------- -- ---------- --- - --- ----- ----- ----<br>---- --- --- ----- --- ---- ---- ------- ----- ---- -------<br>--- --- as ----- -- --- ---- -- --- ---- -- ------ ------<br>--- ----- -- ----,343036.6999999285,343035.1999999285,342353.185,342364.7999999523,342369.782,343053.016,,41,as
screen,html.Screen,2_1_0_1_42,2022-05-03T18:35:48.829Z,,,,,,,,,,,,,,,,,53,,,,,,,,,,,,,,711.5839999046293,,response,,,,99,,,,,,,Space,keypress(Space),,,,,,,,---- -- ----- -- ------ - ------- --- ----------<br>------------- ------ ------ ---- ---- ------- ----- -- ----<br>-------- ------- -- ---------- --- - --- ----- ----- ----<br>---- --- --- ----- --- ---- ---- ------- ----- ---- -------<br>--- --- -- close -- --- ---- -- --- ---- -- ------ ------<br>--- ----- -- ----,343766.5,343764.59999990463,343036.435,343036.89999997616,343053.016,343769.7,,42,close
screen,html.Screen,2_1_0_1_43,2022-05-03T18:35:49.576Z,,,,,,,,,,,,,,,,,53,,,,,,,,,,,,,,742.1999999761465,,response,,,,99,,,,,,,Space,keypress(Space),,,,,,,,---- -- ----- -- ------ - ------- --- ----------<br>------------- ------ ------ ---- ---- ------- ----- -- ----<br>-------- ------- -- ---------- --- - --- ----- ----- ----<br>---- --- --- ----- --- ---- ---- ------- ----- ---- -------<br>--- --- -- ----- as --- ---- -- --- ---- -- ------ ------<br>--- ----- -- ----,344513.2999999523,344511.89999997616,343752.918,343766.89999997616,343769.7,344519.555,,43,as
screen,html.Screen,2_1_0_1_44,2022-05-03T18:35:50.273Z,,,,,,,,,,,,,,,,,53,,,,,,,,,,,,,,689.7449999523233,,response,,,,99,,,,,,,Space,keypress(Space),,,,,,,,---- -- ----- -- ------ - ------- --- ----------<br>------------- ------ ------ ---- ---- ------- ----- -- ----<br>-------- ------- -- ---------- --- - --- ----- ----- ----<br>---- --- --- ----- --- ---- ---- ------- ----- ---- -------<br>--- --- -- ----- -- you ---- -- --- ---- -- ------ ------<br>--- ----- -- ----,345210.2999999523,345209.2999999523,344503.218,344513.5,344519.555,345219.556,,44,you
screen,html.Screen,2_1_0_1_45,2022-05-03T18:35:50.984Z,,,,,,,,,,,,,,,,,53,,,,,,,,,,,,,,697.5439999046503,,response,,,,99,,,,,,,Space,keypress(Space),,,,,,,,---- -- ----- -- ------ - ------- --- ----------<br>------------- ------ ------ ---- ---- ------- ----- -- ----<br>-------- ------- -- ---------- --- - --- ----- ----- ----<br>---- --- --- ----- --- ---- ---- ------- ----- ---- -------<br>--- --- -- ----- -- --- want -- --- ---- -- ------ ------<br>--- ----- -- ----,345921,345917.09999990463,345203.002,345210.59999990463,345219.556,345936.591,,45,want
screen,html.Screen,2_1_0_1_46,2022-05-03T18:35:51.662Z,,,,,,,,,,,,,,,,,53,,,,,,,,,,,,,,660.6089999284595,,response,,,,99,,,,,,,Space,keypress(Space),,,,,,,,---- -- ----- -- ------ - ------- --- ----------<br>------------- ------ ------ ---- ---- ------- ----- -- ----<br>-------- ------- -- ---------- --- - --- ----- ----- ----<br>---- --- --- ----- --- ---- ---- ------- ----- ---- -------<br>--- --- -- ----- -- --- ---- to --- ---- -- ------ ------<br>--- ----- -- ----,346599.5,346597.1999999285,345919.675,345921.5,345936.591,346602.854,,46,to
screen,html.Screen,2_1_0_1_47,2022-05-03T18:35:52.619Z,,,,,,,,,,,,,,,,,53,,,,,,,,,,,,,,952.1460000000079,,response,,,,99,,,,,,,Space,keypress(Space),,,,,,,,"---- -- ----- -- ------ - ------- --- ----------<br>------------- ------ ------ ---- ---- ------- ----- -- ----<br>-------- ------- -- ---------- --- - --- ----- ----- ----<br>---- --- --- ----- --- ---- ---- ------- ----- ---- -------<br>--- --- -- ----- -- --- ---- -- be, ---- -- ------ ------<br>--- ----- -- ----",347556,347555,346586.59,346599.7999999523,346602.854,347569.655,,47,"be,"
screen,html.Screen,2_1_0_1_48,2022-05-03T18:35:53.385Z,,,,,,,,,,,,,,,,,53,,,,,,,,,,,,,,749.0449999284465,,response,,,,99,,,,,,,Space,keypress(Space),,,,,,,,---- -- ----- -- ------ - ------- --- ----------<br>------------- ------ ------ ---- ---- ------- ----- -- ----<br>-------- ------- -- ---------- --- - --- ----- ----- ----<br>---- --- --- ----- --- ---- ---- ------- ----- ---- -------<br>--- --- -- ----- -- --- ---- -- --- even -- ------ ------<br>--- ----- -- ----,348322.5,348318.6999999285,347553.102,347556.2999999523,347569.655,348336.259,,48,even
screen,html.Screen,2_1_0_1_49,2022-05-03T18:35:54.126Z,,,,,,,,,,,,,,,,,53,,,,,,,,,,,,,,726.4409999284544,,response,,,,99,,,,,,,Space,keypress(Space),,,,,,,,---- -- ----- -- ------ - ------- --- ----------<br>------------- ------ ------ ---- ---- ------- ----- -- ----<br>-------- ------- -- ---------- --- - --- ----- ----- ----<br>---- --- --- ----- --- ---- ---- ------- ----- ---- -------<br>--- --- -- ----- -- --- ---- -- --- ---- if ------ ------<br>--- ----- -- ----,349063.5,349062.6999999285,348319.598,348323,348336.259,349069.314,,49,if
screen,html.Screen,2_1_0_1_50,2022-05-03T18:35:54.797Z,,,,,,,,,,,,,,,,,53,,,,,,,,,,,,,,660.8859999284614,,response,,,,99,,,,,,,Space,keypress(Space),,,,,,,,---- -- ----- -- ------ - ------- --- ----------<br>------------- ------ ------ ---- ---- ------- ----- -- ----<br>-------- ------- -- ---------- --- - --- ----- ----- ----<br>---- --- --- ----- --- ---- ---- ------- ----- ---- -------<br>--- --- -- ----- -- --- ---- -- --- ---- -- that's ------<br>--- ----- -- ----,349734.09999990463,349730.1999999285,349052.939,349063.7999999523,349069.314,349799.778,,50,that's
screen,html.Screen,2_1_0_1_51,2022-05-03T18:35:55.527Z,,,,,,,,,,,,,,,,,53,,,,,,,,,,,,,,661.9219999284833,,response,,,,99,,,,,,,Space,keypress(Space),,,,,,,,---- -- ----- -- ------ - ------- --- ----------<br>------------- ------ ------ ---- ---- ------- ----- -- ----<br>-------- ------- -- ---------- --- - --- ----- ----- ----<br>---- --- --- ----- --- ---- ---- ------- ----- ---- -------<br>--- --- -- ----- -- --- ---- -- --- ---- -- ------ really<br>--- ----- -- ----,350464.09999990463,350461.6999999285,349768.619,349734.5,349799.778,350469.289,,51,really
screen,html.Screen,2_1_0_1_52,2022-05-03T18:35:56.259Z,,,,,,,,,,,,,,,,,53,,,,,,,,,,,,,,726.2110000000102,,response,,,,99,,,,,,,Space,keypress(Space),,,,,,,,---- -- ----- -- ------ - ------- --- ----------<br>------------- ------ ------ ---- ---- ------- ----- -- ----<br>-------- ------- -- ---------- --- - --- ----- ----- ----<br>---- --- --- ----- --- ---- ---- ------- ----- ---- -------<br>--- --- -- ----- -- --- ---- -- --- ---- -- ------ ------<br>not ----- -- ----,351196.59999990463,351195.5,350452.718,350464.5,350469.289,351202.611,,52,not
screen,html.Screen,2_1_0_1_53,2022-05-03T18:35:57.029Z,,,,,,,,,,,,,,,,,53,,,,,,,,,,,,,,760.8890000000247,,response,,,,99,,,,,,,Space,keypress(Space),,,,,,,,---- -- ----- -- ------ - ------- --- ----------<br>------------- ------ ------ ---- ---- ------- ----- -- ----<br>-------- ------- -- ---------- --- - --- ----- ----- ----<br>---- --- --- ----- --- ---- ---- ------- ----- ---- -------<br>--- --- -- ----- -- --- ---- -- --- ---- -- ------ ------<br>--- close -- ----,351966.5,351963.5,351186.473,351196.6999999285,351202.611,351969.192,,53,close
screen,html.Screen,2_1_0_1_54,2022-05-03T18:35:57.740Z,,,,,,,,,,,,,,,,,53,,,,,,,,,,,,,,705.9079999046517,,response,,,,99,,,,,,,Space,keypress(Space),,,,,,,,---- -- ----- -- ------ - ------- --- ----------<br>------------- ------ ------ ---- ---- ------- ----- -- ----<br>-------- ------- -- ---------- --- - --- ----- ----- ----<br>---- --- --- ----- --- ---- ---- ------- ----- ---- -------<br>--- --- -- ----- -- --- ---- -- --- ---- -- ------ ------<br>--- ----- at ----,352677.39999997616,352675.09999990463,351952.536,351966.59999990463,351969.192,352685.877,,54,at
screen,html.Screen,2_1_0_1_55,2022-05-03T18:35:58.636Z,,,,,,,,,,,,,,,,,53,,,,,,,,,,,,,,885.0229999761796,,response,,,,99,,,,,,,Space,keypress(Space),,,,,,,,---- -- ----- -- ------ - ------- --- ----------<br>------------- ------ ------ ---- ---- ------- ----- -- ----<br>-------- ------- -- ---------- --- - --- ----- ----- ----<br>---- --- --- ----- --- ---- ---- ------- ----- ---- -------<br>--- --- -- ----- -- --- ---- -- --- ---- -- ------ ------<br>--- ----- -- all.,353572.89999997616,353570.89999997616,352669.242,352677.7999999523,352685.877,353635.832,,55,all.
Item 99,flow.Loop,2_1_0_1,2022-05-03T18:35:58.636Z,,,,,,,,,,,,,,,,,,,,,,,,,,,,,,,43165.960999976145,,completion,,,,,A,,,,,,,,,,,silence,,,,,353573.2999999523,353570.89999997616,310154.915,310158.5,310404.939,353635.832,,,
Question 1,html.Screen,2_1_0_2,2022-05-03T18:36:12.357Z,,,,,,,,,,,,,,,,,,,,,,,,,,,,true,FALSE,,13656.567999976163,,response,,,,99,A,,,,,,FALSE,click #choice-2,,,,silence,,,,,367294,367292.39999997616,353619.415,353573.5,353635.832,367301.685,,,
Question 2,html.Screen,2_1_0_3,2022-05-03T18:36:17.736Z,,,,,,,,,,,,,,,,,,,,,,,,,,,,true,TRUE,,5365.114999952319,,response,,,,99,A,,,,,,TRUE,click #choice-1,,,,silence,,,,,372672.09999990463,372666.7999999523,367285.008,367294.1999999285,367301.685,372684.784,,,
Item 99,flow.Sequence,2_1_0,2022-05-03T18:36:17.736Z,,,,,,,,,,,,,,,,,,,,,,,,,,,,,,,72544.68899995234,,completion,,,,,,,,,,,,,,,,,,,,,372672.89999997616,372666.7999999523,299938.823,300005.39999997616,300122.111,372684.784,,,
Holding screen,html.Screen,2_1_1_0,2022-05-03T18:36:27.733Z,,,,,,,,,,,,,,,,,,,,,,,,,,,,,,,9999.437000000034,,timeout,,,,,,,,,,,,,,,,,,,,,382669.59999990463,382667.863,372668.158,372673.5,372684.784,382684.221,,,
screen,html.Screen,2_1_1_1_0,2022-05-03T18:36:29.478Z,,,,,,,,,,,,,,,,,54,,,,,,,,,,,,,,1728.378999904613,,response,,,,100,,,,,,,Space,keypress(Space),,,,,,,,At --- ---- --- ------ ----- ------- ---- -- --- ------- --<br>------- ---------- ------ -- ----- -- ----- -- ---- ------<br>--- ----- --- --- ------ -------- ----- --- ------ ----- --<br>----- ----- ---------- --- --- ------ ------ ---- -- ------<br>------- --- ------ ----- --- ---- ------- -- ---- --- --<br>------- ------,384415,384412.59999990463,382667.863,382670.2999999523,382684.221,384417.494,,0,At
screen,html.Screen,2_1_1_1_1,2022-05-03T18:36:30.221Z,,,,,,,,,,,,,,,,,54,,,,,,,,,,,,,,739.505999999994,,response,,,,100,,,,,,,Space,keypress(Space),,,,,,,,-- the ---- --- ------ ----- ------- ---- -- --- ------- --<br>------- ---------- ------ -- ----- -- ----- -- ---- ------<br>--- ----- --- --- ------ -------- ----- --- ------ ----- --<br>----- ----- ---------- --- --- ------ ------ ---- -- ------<br>------- --- ------ ----- --- ---- ------- -- ---- --- --<br>------- ------,385158,385157,384401.046,384415.39999997616,384417.494,385167.492,,1,the
screen,html.Screen,2_1_1_1_2,2022-05-03T18:36:30.909Z,,,,,,,,,,,,,,,,,54,,,,,,,,,,,,,,676.0079999999725,,response,,,,100,,,,,,,Space,keypress(Space),,,,,,,,-- --- time --- ------ ----- ------- ---- -- --- ------- --<br>------- ---------- ------ -- ----- -- ----- -- ---- ------<br>--- ----- --- --- ------ -------- ----- --- ------ ----- --<br>----- ----- ---------- --- --- ------ ------ ---- -- ------<br>------- --- ------ ----- --- ---- ------- -- ---- --- --<br>------- ------,385845.2999999523,385843.5,385151.047,385158.1999999285,385167.492,385850.726,,2,time
screen,html.Screen,2_1_1_1_3,2022-05-03T18:36:31.588Z,,,,,,,,,,,,,,,,,54,,,,,,,,,,,,,,671.4739999284502,,response,,,,100,,,,,,,Space,keypress(Space),,,,,,,,-- --- ---- the ------ ----- ------- ---- -- --- ------- --<br>------- ---------- ------ -- ----- -- ----- -- ---- ------<br>--- ----- --- --- ------ -------- ----- --- ------ ----- --<br>----- ----- ---------- --- --- ------ ------ ---- -- ------<br>------- --- ------ ----- --- ---- ------- -- ---- --- --<br>------- ------,386524.6999999285,386522.1999999285,385833.967,385845.59999990463,385850.726,386534.817,,3,the
screen,html.Screen,2_1_1_1_4,2022-05-03T18:36:32.110Z,,,,,,,,,,,,,,,,,54,,,,,,,,,,,,,,510.3829999284935,,response,,,,100,,,,,,,Space,keypress(Space),,,,,,,,-- --- ---- --- French ----- ------- ---- -- --- ------- --<br>------- ---------- ------ -- ----- -- ----- -- ---- ------<br>--- ----- --- --- ------ -------- ----- --- ------ ----- --<br>----- ----- ---------- --- --- ------ ------ ---- -- ------<br>------- --- ------ ----- --- ---- ------- -- ---- --- --<br>------- ------,387046.1999999285,387045.1999999285,386517.322,386525.09999990463,386534.817,387051.271,,4,French
screen,html.Screen,2_1_1_1_5,2022-05-03T18:36:32.642Z,,,,,,,,,,,,,,,,,54,,,,,,,,,,,,,,526.8289999046247,,response,,,,100,,,,,,,Space,keypress(Space),,,,,,,,-- --- ---- --- ------ crown ------- ---- -- --- ------- --<br>------- ---------- ------ -- ----- -- ----- -- ---- ------<br>--- ----- --- --- ------ -------- ----- --- ------ ----- --<br>----- ----- ---------- --- --- ------ ------ ---- -- ------<br>------- --- ------ ----- --- ---- ------- -- ---- --- --<br>------- ------,387579.1999999285,387578.09999990463,387033.939,387046.2999999523,387051.271,387584.039,,5,crown
screen,html.Screen,2_1_1_1_6,2022-05-03T18:36:33.277Z,,,,,,,,,,,,,,,,,54,,,,,,,,,,,,,,628.7609999523265,,response,,,,100,,,,,,,Space,keypress(Space),,,,,,,,-- --- ---- --- ------ ----- secured ---- -- --- ------- --<br>------- ---------- ------ -- ----- -- ----- -- ---- ------<br>--- ----- --- --- ------ -------- ----- --- ------ ----- --<br>----- ----- ---------- --- --- ------ ------ ---- -- ------<br>------- --- ------ ----- --- ---- ------- -- ---- --- --<br>------- ------,388213.59999990463,388212.7999999523,387567.239,387579.2999999523,387584.039,388217.232,,6,secured
screen,html.Screen,2_1_1_1_7,2022-05-03T18:36:33.961Z,,,,,,,,,,,,,,,,,54,,,,,,,,,,,,,,677.2679999999818,,response,,,,100,,,,,,,Space,keypress(Space),,,,,,,,-- --- ---- --- ------ ----- ------- much -- --- ------- --<br>------- ---------- ------ -- ----- -- ----- -- ---- ------<br>--- ----- --- --- ------ -------- ----- --- ------ ----- --<br>----- ----- ---------- --- --- ------ ------ ---- -- ------<br>------- --- ------ ----- --- ---- ------- -- ---- --- --<br>------- ------,388897.39999997616,388894.5,388200.817,388213.7999999523,388217.232,388900.507,,7,much
screen,html.Screen,2_1_1_1_8,2022-05-03T18:36:34.502Z,,,,,,,,,,,,,,,,,54,,,,,,,,,,,,,,537.5929999046493,,response,,,,100,,,,,,,Space,keypress(Space),,,,,,,,-- --- ---- --- ------ ----- ------- ---- of --- ------- --<br>------- ---------- ------ -- ----- -- ----- -- ---- ------<br>--- ----- --- --- ------ -------- ----- --- ------ ----- --<br>----- ----- ---------- --- --- ------ ------ ---- -- ------<br>------- --- ------ ----- --- ---- ------- -- ---- --- --<br>------- ------,389439,389438.09999990463,388884.089,388897.89999997616,388900.507,389450.466,,8,of
screen,html.Screen,2_1_1_1_9,2022-05-03T18:36:35.064Z,,,,,,,,,,,,,,,,,54,,,,,,,,,,,,,,547.6339999046177,,response,,,,100,,,,,,,Space,keypress(Space),,,,,,,,-- --- ---- --- ------ ----- ------- ---- -- its ------- --<br>------- ---------- ------ -- ----- -- ----- -- ---- ------<br>--- ----- --- --- ------ -------- ----- --- ------ ----- --<br>----- ----- ---------- --- --- ------ ------ ---- -- ------<br>------- --- ------ ----- --- ---- ------- -- ---- --- --<br>------- ------,390000.39999997616,389998.09999990463,389434.127,389439.2999999523,389450.466,390017.403,,9,its
screen,html.Screen,2_1_1_1_10,2022-05-03T18:36:35.659Z,,,,,,,,,,,,,,,,,54,,,,,,,,,,,,,,576.1969999046414,,response,,,,100,,,,,,,Space,keypress(Space),,,,,,,,-- --- ---- --- ------ ----- ------- ---- -- --- revenue --<br>------- ---------- ------ -- ----- -- ----- -- ---- ------<br>--- ----- --- --- ------ -------- ----- --- ------ ----- --<br>----- ----- ---------- --- --- ------ ------ ---- -- ------<br>------- --- ------ ----- --- ---- ------- -- ---- --- --<br>------- ------,390595.59999990463,390593.59999990463,390000.415,390000.6999999285,390017.403,390600.486,,10,revenue
screen,html.Screen,2_1_1_1_11,2022-05-03T18:36:36.232Z,,,,,,,,,,,,,,,,,54,,,,,,,,,,,,,,566.9139999761828,,response,,,,100,,,,,,,Space,keypress(Space),,,,,,,,-- --- ---- --- ------ ----- ------- ---- -- --- ------- by<br>------- ---------- ------ -- ----- -- ----- -- ---- ------<br>--- ----- --- --- ------ -------- ----- --- ------ ----- --<br>----- ----- ---------- --- --- ------ ------ ---- -- ------<br>------- --- ------ ----- --- ---- ------- -- ---- --- --<br>------- ------,391168.39999997616,391167.39999997616,390583.978,390596.09999990463,390600.486,391183.668,,11,by
screen,html.Screen,2_1_1_1_12,2022-05-03T18:36:36.911Z,,,,,,,,,,,,,,,,,54,,,,,,,,,,,,,,662.1319999523112,,response,,,,100,,,,,,,Space,keypress(Space),,,,,,,,-- --- ---- --- ------ ----- ------- ---- -- --- ------- --<br>issuing ---------- ------ -- ----- -- ----- -- ---- ------<br>--- ----- --- --- ------ -------- ----- --- ------ ----- --<br>----- ----- ---------- --- --- ------ ------ ---- -- ------<br>------- --- ------ ----- --- ---- ------- -- ---- --- --<br>------- ------,391848.09999990463,391845.7999999523,391167.069,391168.6999999285,391183.668,391868.29,,12,issuing
screen,html.Screen,2_1_1_1_13,2022-05-03T18:36:37.617Z,,,,,,,,,,,,,,,,,54,,,,,,,,,,,,,,683.710000000021,,response,,,,100,,,,,,,Space,keypress(Space),,,,,,,,-- --- ---- --- ------ ----- ------- ---- -- --- ------- --<br>------- government ------ -- ----- -- ----- -- ---- ------<br>--- ----- --- --- ------ -------- ----- --- ------ ----- --<br>----- ----- ---------- --- --- ------ ------ ---- -- ------<br>------- --- ------ ----- --- ---- ------- -- ---- --- --<br>------- ------,392554.09999990463,392552,391833.654,391848.5,391868.29,392567.141,,13,government
screen,html.Screen,2_1_1_1_14,2022-05-03T18:36:38.260Z,,,,,,,,,,,,,,,,,54,,,,,,,,,,,,,,628.158999952313,,response,,,,100,,,,,,,Space,keypress(Space),,,,,,,,-- --- ---- --- ------ ----- ------- ---- -- --- ------- --<br>------- ---------- bonds. -- ----- -- ----- -- ---- ------<br>--- ----- --- --- ------ -------- ----- --- ------ ----- --<br>----- ----- ---------- --- --- ------ ------ ---- -- ------<br>------- --- ------ ----- --- ---- ------- -- ---- --- --<br>------- ------,393196.2999999523,393195.2999999523,392550.65,392554.59999990463,392567.141,393200.267,,14,bonds.
screen,html.Screen,2_1_1_1_15,2022-05-03T18:36:38.932Z,,,,,,,,,,,,,,,,,54,,,,,,,,,,,,,,664.83299990464,,response,,,,100,,,,,,,Space,keypress(Space),,,,,,,,-- --- ---- --- ------ ----- ------- ---- -- --- ------- --<br>------- ---------- ------ In ----- -- ----- -- ---- ------<br>--- ----- --- --- ------ -------- ----- --- ------ ----- --<br>----- ----- ---------- --- --- ------ ------ ---- -- ------<br>------- --- ------ ----- --- ---- ------- -- ---- --- --<br>------- ------,393868.89999997616,393865.09999990463,393183.877,393196.5,393200.267,393883.613,,15,In
screen,html.Screen,2_1_1_1_16,2022-05-03T18:36:39.666Z,,,,,,,,,,,,,,,,,54,,,,,,,,,,,,,,717.1869999523042,,response,,,,100,,,,,,,Space,keypress(Space),,,,,,,,"-- --- ---- --- ------ ----- ------- ---- -- --- ------- --<br>------- ---------- ------ -- 1727, -- ----- -- ---- ------<br>--- ----- --- --- ------ -------- ----- --- ------ ----- --<br>----- ----- ---------- --- --- ------ ------ ---- -- ------<br>------- --- ------ ----- --- ---- ------- -- ---- --- --<br>------- ------",394602.6999999285,394600.7999999523,393866.892,393869.2999999523,393883.613,394617.163,,16,"1727,"
screen,html.Screen,2_1_1_1_17,2022-05-03T18:36:40.626Z,,,,,,,,,,,,,,,,,54,,,,,,,,,,,,,,943.8369999999995,,response,,,,100,,,,,,,Space,keypress(Space),,,,,,,,-- --- ---- --- ------ ----- ------- ---- -- --- ------- --<br>------- ---------- ------ -- ----- in ----- -- ---- ------<br>--- ----- --- --- ------ -------- ----- --- ------ ----- --<br>----- ----- ---------- --- --- ------ ------ ---- -- ------<br>------- --- ------ ----- --- ---- ------- -- ---- --- --<br>------- ------,395563,395561,394600.532,394603.09999990463,394617.163,395566.864,,17,in
screen,html.Screen,2_1_1_1_18,2022-05-03T18:36:41.322Z,,,,,,,,,,,,,,,,,54,,,,,,,,,,,,,,689.5359999761567,,response,,,,100,,,,,,,Space,keypress(Space),,,,,,,,-- --- ---- --- ------ ----- ------- ---- -- --- ------- --<br>------- ---------- ------ -- ----- -- order -- ---- ------<br>--- ----- --- --- ------ -------- ----- --- ------ ----- --<br>----- ----- ---------- --- --- ------ ------ ---- -- ------<br>------- --- ------ ----- --- ---- ------- -- ---- --- --<br>------- ------,396258.39999997616,396256.39999997616,395550.293,395563.39999997616,395566.864,396266.789,,18,order
screen,html.Screen,2_1_1_1_19,2022-05-03T18:36:41.800Z,,,,,,,,,,,,,,,,,54,,,,,,,,,,,,,,467.41099992848467,,response,,,,100,,,,,,,Space,keypress(Space),,,,,,,,-- --- ---- --- ------ ----- ------- ---- -- --- ------- --<br>------- ---------- ------ -- ----- -- ----- to ---- ------<br>--- ----- --- --- ------ -------- ----- --- ------ ----- --<br>----- ----- ---------- --- --- ------ ------ ---- -- ------<br>------- --- ------ ----- --- ---- ------- -- ---- --- --<br>------- ------,396736.2999999523,396734.1999999285,396250.42,396258.7999999523,396266.789,396750.272,,19,to
screen,html.Screen,2_1_1_1_20,2022-05-03T18:36:42.388Z,,,,,,,,,,,,,,,,,54,,,,,,,,,,,,,,573.5279999523191,,response,,,,100,,,,,,,Space,keypress(Space),,,,,,,,-- --- ---- --- ------ ----- ------- ---- -- --- ------- --<br>------- ---------- ------ -- ----- -- ----- -- save ------<br>--- ----- --- --- ------ -------- ----- --- ------ ----- --<br>----- ----- ---------- --- --- ------ ------ ---- -- ------<br>------- --- ------ ----- --- ---- ------- -- ---- --- --<br>------- ------,397325,397323.7999999523,396733.701,396736.59999990463,396750.272,397333.348,,20,save
screen,html.Screen,2_1_1_1_21,2022-05-03T18:36:43.036Z,,,,,,,,,,,,,,,,,54,,,,,,,,,,,,,,637.4519999523181,,response,,,,100,,,,,,,Space,keypress(Space),,,,,,,,"-- --- ---- --- ------ ----- ------- ---- -- --- ------- --<br>------- ---------- ------ -- ----- -- ----- -- ---- money,<br>--- ----- --- --- ------ -------- ----- --- ------ ----- --<br>----- ----- ---------- --- --- ------ ------ ---- -- ------<br>------- --- ------ ----- --- ---- ------- -- ---- --- --<br>------- ------",397973.09999990463,397970.7999999523,397316.783,397325.1999999285,397333.348,397983.406,,21,"money,"
screen,html.Screen,2_1_1_1_22,2022-05-03T18:36:43.600Z,,,,,,,,,,,,,,,,,54,,,,,,,,,,,,,,550.9939999761409,,response,,,,100,,,,,,,Space,keypress(Space),,,,,,,,-- --- ---- --- ------ ----- ------- ---- -- --- ------- --<br>------- ---------- ------ -- ----- -- ----- -- ---- ------<br>the ----- --- --- ------ -------- ----- --- ------ ----- --<br>----- ----- ---------- --- --- ------ ------ ---- -- ------<br>------- --- ------ ----- --- ---- ------- -- ---- --- --<br>------- ------,398536.59999990463,398534.39999997616,397966.691,397973.5,397983.406,398550.109,,22,the
screen,html.Screen,2_1_1_1_23,2022-05-03T18:36:44.270Z,,,,,,,,,,,,,,,,,54,,,,,,,,,,,,,,655.6909999523195,,response,,,,100,,,,,,,Space,keypress(Space),,,,,,,,-- --- ---- --- ------ ----- ------- ---- -- --- ------- --<br>------- ---------- ------ -- ----- -- ----- -- ---- ------<br>--- state --- --- ------ -------- ----- --- ------ ----- --<br>----- ----- ---------- --- --- ------ ------ ---- -- ------<br>------- --- ------ ----- --- ---- ------- -- ---- --- --<br>------- ------,399207.1999999285,399205.7999999523,398533.343,398537.09999990463,398550.109,399216.552,,23,state
screen,html.Screen,2_1_1_1_24,2022-05-03T18:36:44.831Z,,,,,,,,,,,,,,,,,54,,,,,,,,,,,,,,549.0479999046074,,response,,,,100,,,,,,,Space,keypress(Space),,,,,,,,-- --- ---- --- ------ ----- ------- ---- -- --- ------- --<br>------- ---------- ------ -- ----- -- ----- -- ---- ------<br>--- ----- cut --- ------ -------- ----- --- ------ ----- --<br>----- ----- ---------- --- --- ------ ------ ---- -- ------<br>------- --- ------ ----- --- ---- ------- -- ---- --- --<br>------- ------,399767.89999997616,399765.59999990463,399200.093,399207.39999997616,399216.552,399783.287,,24,cut
screen,html.Screen,2_1_1_1_25,2022-05-03T18:36:45.445Z,,,,,,,,,,,,,,,,,54,,,,,,,,,,,,,,597.2129999999888,,response,,,,100,,,,,,,Space,keypress(Space),,,,,,,,-- --- ---- --- ------ ----- ------- ---- -- --- ------- --<br>------- ---------- ------ -- ----- -- ----- -- ---- ------<br>--- ----- --- the ------ -------- ----- --- ------ ----- --<br>----- ----- ---------- --- --- ------ ------ ---- -- ------<br>------- --- ------ ----- --- ---- ------- -- ---- --- --<br>------- ------,400382.09999990463,400380.5,399766.579,399768.39999997616,399783.287,400399.944,,25,the
screen,html.Screen,2_1_1_1_26,2022-05-03T18:36:46.093Z,,,,,,,,,,,,,,,,,54,,,,,,,,,,,,,,628.3559999522986,,response,,,,100,,,,,,,Space,keypress(Space),,,,,,,,-- --- ---- --- ------ ----- ------- ---- -- --- ------- --<br>------- ---------- ------ -- ----- -- ----- -- ---- ------<br>--- ----- --- --- bonds' -------- ----- --- ------ ----- --<br>----- ----- ---------- --- --- ------ ------ ---- -- ------<br>------- --- ------ ----- --- ---- ------- -- ---- --- --<br>------- ------,401029.5,401028.2999999523,400366.851,400382.5,400399.944,401033.159,,26,bonds'
screen,html.Screen,2_1_1_1_27,2022-05-03T18:36:46.790Z,,,,,,,,,,,,,,,,,54,,,,,,,,,,,,,,691.4409999046475,,response,,,,100,,,,,,,Space,keypress(Space),,,,,,,,-- --- ---- --- ------ ----- ------- ---- -- --- ------- --<br>------- ---------- ------ -- ----- -- ----- -- ---- ------<br>--- ----- --- --- ------ interest ----- --- ------ ----- --<br>----- ----- ---------- --- --- ------ ------ ---- -- ------<br>------- --- ------ ----- --- ---- ------- -- ---- --- --<br>------- ------,401726.7999999523,401724.59999990463,401016.595,401029.6999999285,401033.159,401733.135,,27,interest
screen,html.Screen,2_1_1_1_28,2022-05-03T18:36:47.381Z,,,,,,,,,,,,,,,,,54,,,,,,,,,,,,,,581.9649999046233,,response,,,,100,,,,,,,Space,keypress(Space),,,,,,,,-- --- ---- --- ------ ----- ------- ---- -- --- ------- --<br>------- ---------- ------ -- ----- -- ----- -- ---- ------<br>--- ----- --- --- ------ -------- rate. --- ------ ----- --<br>----- ----- ---------- --- --- ------ ------ ---- -- ------<br>------- --- ------ ----- --- ---- ------- -- ---- --- --<br>------- ------,402317.1999999285,402315.09999990463,401716.422,401726.89999997616,401733.135,402333.151,,28,rate.
screen,html.Screen,2_1_1_1_29,2022-05-03T18:36:47.982Z,,,,,,,,,,,,,,,,,54,,,,,,,,,,,,,,582.8489999999874,,response,,,,100,,,,,,,Space,keypress(Space),,,,,,,,-- --- ---- --- ------ ----- ------- ---- -- --- ------- --<br>------- ---------- ------ -- ----- -- ----- -- ---- ------<br>--- ----- --- --- ------ -------- ----- The ------ ----- --<br>----- ----- ---------- --- --- ------ ------ ---- -- ------<br>------- --- ------ ----- --- ---- ------- -- ---- --- --<br>------- ------,402918.2999999523,402916,402316.697,402317.59999990463,402333.151,402933.084,,29,The
screen,html.Screen,2_1_1_1_30,2022-05-03T18:36:48.566Z,,,,,,,,,,,,,,,,,54,,,,,,,,,,,,,,568.2159999523428,,response,,,,100,,,,,,,Space,keypress(Space),,,,,,,,-- --- ---- --- ------ ----- ------- ---- -- --- ------- --<br>------- ---------- ------ -- ----- -- ----- -- ---- ------<br>--- ----- --- --- ------ -------- ----- --- market ----- --<br>----- ----- ---------- --- --- ------ ------ ---- -- ------<br>------- --- ------ ----- --- ---- ------- -- ---- --- --<br>------- ------,403502.5,403501.2999999523,402916.699,402918.6999999285,402933.084,403516.327,,30,market
screen,html.Screen,2_1_1_1_31,2022-05-03T18:36:49.410Z,,,,,,,,,,,,,,,,,54,,,,,,,,,,,,,,828.1730000000098,,response,,,,100,,,,,,,Space,keypress(Space),,,,,,,,-- --- ---- --- ------ ----- ------- ---- -- --- ------- --<br>------- ---------- ------ -- ----- -- ----- -- ---- ------<br>--- ----- --- --- ------ -------- ----- --- ------ value --<br>----- ----- ---------- --- --- ------ ------ ---- -- ------<br>------- --- ------ ----- --- ---- ------- -- ---- --- --<br>------- ------,404346.89999997616,404344.5,403499.854,403502.7999999523,403516.327,404349.684,,31,value
screen,html.Screen,2_1_1_1_32,2022-05-03T18:36:50.145Z,,,,,,,,,,,,,,,,,54,,,,,,,,,,,,,,730.9159999046242,,response,,,,100,,,,,,,Space,keypress(Space),,,,,,,,-- --- ---- --- ------ ----- ------- ---- -- --- ------- --<br>------- ---------- ------ -- ----- -- ----- -- ---- ------<br>--- ----- --- --- ------ -------- ----- --- ------ ----- of<br>----- ----- ---------- --- --- ------ ------ ---- -- ------<br>------- --- ------ ----- --- ---- ------- -- ---- --- --<br>------- ------,405081.6999999285,405080.59999990463,404333.23,404347.1999999285,404349.684,405106.442,,32,of
screen,html.Screen,2_1_1_1_33,2022-05-03T18:36:50.880Z,,,,,,,,,,,,,,,,,54,,,,,,,,,,,,,,708.0580000000191,,response,,,,100,,,,,,,Space,keypress(Space),,,,,,,,-- --- ---- --- ------ ----- ------- ---- -- --- ------- --<br>------- ---------- ------ -- ----- -- ----- -- ---- ------<br>--- ----- --- --- ------ -------- ----- --- ------ ----- --<br>these ----- ---------- --- --- ------ ------ ---- -- ------<br>------- --- ------ ----- --- ---- ------- -- ---- --- --<br>------- ------,405816.2999999523,405814.5,405066.451,405081.89999997616,405106.442,405832.918,,33,these
screen,html.Screen,2_1_1_1_34,2022-05-03T18:36:51.700Z,,,,,,,,,,,,,,,,,54,,,,,,,,,,,,,,801.981999976153,,response,,,,100,,,,,,,Space,keypress(Space),,,,,,,,-- --- ---- --- ------ ----- ------- ---- -- --- ------- --<br>------- ---------- ------ -- ----- -- ----- -- ---- ------<br>--- ----- --- --- ------ -------- ----- --- ------ ----- --<br>----- bonds ---------- --- --- ------ ------ ---- -- ------<br>------- --- ------ ----- --- ---- ------- -- ---- --- --<br>------- ------,406637.1999999285,406634.89999997616,405816.219,405816.59999990463,405832.918,406649.511,,34,bonds
screen,html.Screen,2_1_1_1_35,2022-05-03T18:36:52.394Z,,,,,,,,,,,,,,,,,54,,,,,,,,,,,,,,680.2889999523177,,response,,,,100,,,,,,,Space,keypress(Space),,,,,,,,"-- --- ---- --- ------ ----- ------- ---- -- --- ------- --<br>------- ---------- ------ -- ----- -- ----- -- ---- ------<br>--- ----- --- --- ------ -------- ----- --- ------ ----- --<br>----- ----- plummeted, --- --- ------ ------ ---- -- ------<br>------- --- ------ ----- --- ---- ------- -- ---- --- --<br>------- ------",407330.7999999523,407329.7999999523,406633.157,406637.59999990463,406649.511,407332.835,,35,"plummeted,"
screen,html.Screen,2_1_1_1_36,2022-05-03T18:36:52.992Z,,,,,,,,,,,,,,,,,54,,,,,,,,,,,,,,592.4649999522953,,response,,,,100,,,,,,,Space,keypress(Space),,,,,,,,-- --- ---- --- ------ ----- ------- ---- -- --- ------- --<br>------- ---------- ------ -- ----- -- ----- -- ---- ------<br>--- ----- --- --- ------ -------- ----- --- ------ ----- --<br>----- ----- ---------- and --- ------ ------ ---- -- ------<br>------- --- ------ ----- --- ---- ------- -- ---- --- --<br>------- ------,407929.09999990463,407925.2999999523,407316.254,407331,407332.835,407932.829,,36,and
screen,html.Screen,2_1_1_1_37,2022-05-03T18:36:53.573Z,,,,,,,,,,,,,,,,,54,,,,,,,,,,,,,,574.9709999522893,,response,,,,100,,,,,,,Space,keypress(Space),,,,,,,,-- --- ---- --- ------ ----- ------- ---- -- --- ------- --<br>------- ---------- ------ -- ----- -- ----- -- ---- ------<br>--- ----- --- --- ------ -------- ----- --- ------ ----- --<br>----- ----- ---------- --- the ------ ------ ---- -- ------<br>------- --- ------ ----- --- ---- ------- -- ---- --- --<br>------- ------,408509.2999999523,408507.7999999523,407916.386,407929.5,407932.829,408516.066,,37,the
screen,html.Screen,2_1_1_1_38,2022-05-03T18:36:54.309Z,,,,,,,,,,,,,,,,,54,,,,,,,,,,,,,,728.9340000000084,,response,,,,100,,,,,,,Space,keypress(Space),,,,,,,,-- --- ---- --- ------ ----- ------- ---- -- --- ------- --<br>------- ---------- ------ -- ----- -- ----- -- ---- ------<br>--- ----- --- --- ------ -------- ----- --- ------ ----- --<br>----- ----- ---------- --- --- market ------ ---- -- ------<br>------- --- ------ ----- --- ---- ------- -- ---- --- --<br>------- ------,409246,409245,408499.745,408509.5,408516.066,409249.364,,38,market
screen,html.Screen,2_1_1_1_39,2022-05-03T18:36:54.952Z,,,,,,,,,,,,,,,,,54,,,,,,,,,,,,,,637.0359999761567,,response,,,,100,,,,,,,Space,keypress(Space),,,,,,,,-- --- ---- --- ------ ----- ------- ---- -- --- ------- --<br>------- ---------- ------ -- ----- -- ----- -- ---- ------<br>--- ----- --- --- ------ -------- ----- --- ------ ----- --<br>----- ----- ---------- --- --- ------ became ---- -- ------<br>------- --- ------ ----- --- ---- ------- -- ---- --- --<br>------- ------,409888.39999997616,409886.39999997616,409233.148,409246.1999999285,409249.364,409899.456,,39,became
screen,html.Screen,2_1_1_1_40,2022-05-03T18:36:55.599Z,,,,,,,,,,,,,,,,,54,,,,,,,,,,,,,,633.9439999761526,,response,,,,100,,,,,,,Space,keypress(Space),,,,,,,,-- --- ---- --- ------ ----- ------- ---- -- --- ------- --<br>------- ---------- ------ -- ----- -- ----- -- ---- ------<br>--- ----- --- --- ------ -------- ----- --- ------ ----- --<br>----- ----- ---------- --- --- ------ ------ wary -- ------<br>------- --- ------ ----- --- ---- ------- -- ---- --- --<br>------- ------,410535.59999990463,410533.39999997616,409882.694,409888.7999999523,409899.456,410549.412,,40,wary
screen,html.Screen,2_1_1_1_41,2022-05-03T18:36:56.262Z,,,,,,,,,,,,,,,,,54,,,,,,,,,,,,,,647.7879999284633,,response,,,,100,,,,,,,Space,keypress(Space),,,,,,,,-- --- ---- --- ------ ----- ------- ---- -- --- ------- --<br>------- ---------- ------ -- ----- -- ----- -- ---- ------<br>--- ----- --- --- ------ -------- ----- --- ------ ----- --<br>----- ----- ---------- --- --- ------ ------ ---- of ------<br>------- --- ------ ----- --- ---- ------- -- ---- --- --<br>------- ------,411198.2999999523,411197.1999999285,410532.77,410536,410549.412,411215.939,,41,of
screen,html.Screen,2_1_1_1_42,2022-05-03T18:36:56.942Z,,,,,,,,,,,,,,,,,54,,,,,,,,,,,,,,661.060999999987,,response,,,,100,,,,,,,Space,keypress(Space),,,,,,,,-- --- ---- --- ------ ----- ------- ---- -- --- ------- --<br>------- ---------- ------ -- ----- -- ----- -- ---- ------<br>--- ----- --- --- ------ -------- ----- --- ------ ----- --<br>----- ----- ---------- --- --- ------ ------ ---- -- French<br>------- --- ------ ----- --- ---- ------- -- ---- --- --<br>------- ------,411878.6999999285,411877,411182.724,411198.5,411215.939,411882.658,,42,French
screen,html.Screen,2_1_1_1_43,2022-05-03T18:36:57.492Z,,,,,,,,,,,,,,,,,54,,,,,,,,,,,,,,542.1419999523205,,response,,,,100,,,,,,,Space,keypress(Space),,,,,,,,-- --- ---- --- ------ ----- ------- ---- -- --- ------- --<br>------- ---------- ------ -- ----- -- ----- -- ---- ------<br>--- ----- --- --- ------ -------- ----- --- ------ ----- --<br>----- ----- ---------- --- --- ------ ------ ---- -- ------<br>credit. --- ------ ----- --- ---- ------- -- ---- --- --<br>------- ------,412428.89999997616,412424.7999999523,411865.89,411879.09999990463,411882.658,412432.639,,43,credit.
screen,html.Screen,2_1_1_1_44,2022-05-03T18:36:58.082Z,,,,,,,,,,,,,,,,,54,,,,,,,,,,,,,,583.2609999761335,,response,,,,100,,,,,,,Space,keypress(Space),,,,,,,,-- --- ---- --- ------ ----- ------- ---- -- --- ------- --<br>------- ---------- ------ -- ----- -- ----- -- ---- ------<br>--- ----- --- --- ------ -------- ----- --- ------ ----- --<br>----- ----- ---------- --- --- ------ ------ ---- -- ------<br>------- The ------ ----- --- ---- ------- -- ---- --- --<br>------- ------,413018.2999999523,413015.89999997616,412415.94,412429.5,412432.639,413032.498,,44,The
screen,html.Screen,2_1_1_1_45,2022-05-03T18:36:58.747Z,,,,,,,,,,,,,,,,,54,,,,,,,,,,,,,,648.8019999522949,,response,,,,100,,,,,,,Space,keypress(Space),,,,,,,,-- --- ---- --- ------ ----- ------- ---- -- --- ------- --<br>------- ---------- ------ -- ----- -- ----- -- ---- ------<br>--- ----- --- --- ------ -------- ----- --- ------ ----- --<br>----- ----- ---------- --- --- ------ ------ ---- -- ------<br>------- --- French ----- --- ---- ------- -- ---- --- --<br>------- ------,413683.2999999523,413681.2999999523,413016.901,413018.59999990463,413032.498,413699.185,,45,French
screen,html.Screen,2_1_1_1_46,2022-05-03T18:36:59.338Z,,,,,,,,,,,,,,,,,54,,,,,,,,,,,,,,573.5149999284768,,response,,,,100,,,,,,,Space,keypress(Space),,,,,,,,-- --- ---- --- ------ ----- ------- ---- -- --- ------- --<br>------- ---------- ------ -- ----- -- ----- -- ---- ------<br>--- ----- --- --- ------ -------- ----- --- ------ ----- --<br>----- ----- ---------- --- --- ------ ------ ---- -- ------<br>------- --- ------ state --- ---- ------- -- ---- --- --<br>------- ------,414274.6999999285,414272.6999999285,413682.507,413683.6999999285,413699.185,414282.551,,46,state
screen,html.Screen,2_1_1_1_47,2022-05-03T18:37:00.002Z,,,,,,,,,,,,,,,,,54,,,,,,,,,,,,,,654.2489999523386,,response,,,,100,,,,,,,Space,keypress(Space),,,,,,,,-- --- ---- --- ------ ----- ------- ---- -- --- ------- --<br>------- ---------- ------ -- ----- -- ----- -- ---- ------<br>--- ----- --- --- ------ -------- ----- --- ------ ----- --<br>----- ----- ---------- --- --- ------ ------ ---- -- ------<br>------- --- ------ ----- was ---- ------- -- ---- --- --<br>------- ------,414939.09999990463,414936.7999999523,414266.15,414275.09999990463,414282.551,414949.152,,47,was
screen,html.Screen,2_1_1_1_48,2022-05-03T18:37:00.620Z,,,,,,,,,,,,,,,,,54,,,,,,,,,,,,,,606.1479999523144,,response,,,,100,,,,,,,Space,keypress(Space),,,,,,,,-- --- ---- --- ------ ----- ------- ---- -- --- ------- --<br>------- ---------- ------ -- ----- -- ----- -- ---- ------<br>--- ----- --- --- ------ -------- ----- --- ------ ----- --<br>----- ----- ---------- --- --- ------ ------ ---- -- ------<br>------- --- ------ ----- --- left ------- -- ---- --- --<br>------- ------,415557,415555.2999999523,414932.797,414939.5,414949.152,415565.742,,48,left
screen,html.Screen,2_1_1_1_49,2022-05-03T18:37:01.478Z,,,,,,,,,,,,,,,,,54,,,,,,,,,,,,,,846.7579999999725,,response,,,,100,,,,,,,Space,keypress(Space),,,,,,,,-- --- ---- --- ------ ----- ------- ---- -- --- ------- --<br>------- ---------- ------ -- ----- -- ----- -- ---- ------<br>--- ----- --- --- ------ -------- ----- --- ------ ----- --<br>----- ----- ---------- --- --- ------ ------ ---- -- ------<br>------- --- ------ ----- --- ---- without -- ---- --- --<br>------- ------,416414.5,416412.5,415549.074,415557.39999997616,415565.742,416449.719,,49,without
screen,html.Screen,2_1_1_1_50,2022-05-03T18:37:02.063Z,,,,,,,,,,,,,,,,,54,,,,,,,,,,,,,,546.2810000000172,,response,,,,100,,,,,,,Space,keypress(Space),,,,,,,,-- --- ---- --- ------ ----- ------- ---- -- --- ------- --<br>------- ---------- ------ -- ----- -- ----- -- ---- ------<br>--- ----- --- --- ------ -------- ----- --- ------ ----- --<br>----- ----- ---------- --- --- ------ ------ ---- -- ------<br>------- --- ------ ----- --- ---- ------- an ---- --- --<br>------- ------,416999.5,416996,416432.451,416414.89999997616,416449.719,417015.59,,50,an
screen,html.Screen,2_1_1_1_51,2022-05-03T18:37:02.516Z,,,,,,,,,,,,,,,,,54,,,,,,,,,,,,,,436.00999990460696,,response,,,,100,,,,,,,Space,keypress(Space),,,,,,,,-- --- ---- --- ------ ----- ------- ---- -- --- ------- --<br>------- ---------- ------ -- ----- -- ----- -- ---- ------<br>--- ----- --- --- ------ -------- ----- --- ------ ----- --<br>----- ----- ---------- --- --- ------ ------ ---- -- ------<br>------- --- ------ ----- --- ---- ------- -- easy --- --<br>------- ------,417452.7999999523,417451.59999990463,416999.09,416999.89999997616,417015.59,417465.572,,51,easy
screen,html.Screen,2_1_1_1_52,2022-05-03T18:37:03.034Z,,,,,,,,,,,,,,,,,54,,,,,,,,,,,,,,502.7279999523307,,response,,,,100,,,,,,,Space,keypress(Space),,,,,,,,-- --- ---- --- ------ ----- ------- ---- -- --- ------- --<br>------- ---------- ------ -- ----- -- ----- -- ---- ------<br>--- ----- --- --- ------ -------- ----- --- ------ ----- --<br>----- ----- ---------- --- --- ------ ------ ---- -- ------<br>------- --- ------ ----- --- ---- ------- -- ---- way --<br>------- ------,417970.89999997616,417968.2999999523,417448.902,417453,417465.572,417982.417,,52,way
screen,html.Screen,2_1_1_1_53,2022-05-03T18:37:03.559Z,,,,,,,,,,,,,,,,,54,,,,,,,,,,,,,,511.38299995230045,,response,,,,100,,,,,,,Space,keypress(Space),,,,,,,,-- --- ---- --- ------ ----- ------- ---- -- --- ------- --<br>------- ---------- ------ -- ----- -- ----- -- ---- ------<br>--- ----- --- --- ------ -------- ----- --- ------ ----- --<br>----- ----- ---------- --- --- ------ ------ ---- -- ------<br>------- --- ------ ----- --- ---- ------- -- ---- --- of<br>------- ------,418495.39999997616,418493.7999999523,417965.624,417971.2999999523,417982.417,418498.936,,53,of
screen,html.Screen,2_1_1_1_54,2022-05-03T18:37:04.201Z,,,,,,,,,,,,,,,,,54,,,,,,,,,,,,,,637.7639999284875,,response,,,,100,,,,,,,Space,keypress(Space),,,,,,,,-- --- ---- --- ------ ----- ------- ---- -- --- ------- --<br>------- ---------- ------ -- ----- -- ----- -- ---- ------<br>--- ----- --- --- ------ -------- ----- --- ------ ----- --<br>----- ----- ---------- --- --- ------ ------ ---- -- ------<br>------- --- ------ ----- --- ---- ------- -- ---- --- --<br>raising ------,419137.7999999523,419136.6999999285,418482.52,418495.7999999523,418498.936,419148.789,,54,raising
screen,html.Screen,2_1_1_1_55,2022-05-03T18:37:04.792Z,,,,,,,,,,,,,,,,,54,,,,,,,,,,,,,,578.2110000000102,,response,,,,100,,,,,,,Space,keypress(Space),,,,,,,,-- --- ---- --- ------ ----- ------- ---- -- --- ------- --<br>------- ---------- ------ -- ----- -- ----- -- ---- ------<br>--- ----- --- --- ------ -------- ----- --- ------ ----- --<br>----- ----- ---------- --- --- ------ ------ ---- -- ------<br>------- --- ------ ----- --- ---- ------- -- ---- --- --<br>------- money.,419729,419727,419132.248,419138,419148.789,419751.2,,55,money.
Item 100,flow.Loop,2_1_1_1,2022-05-03T18:37:04.793Z,,,,,,,,,,,,,,,,,,,,,,,,,,,,,,,37042.77899999998,,completion,,,,,A,,,,,,,,,,,silence,,,,,419729.59999990463,419727,382667.863,382670.09999990463,382684.221,419751.2,,,
Question 1,html.Screen,2_1_1_2,2022-05-03T18:37:12.730Z,,,,,,,,,,,,,,,,,,,,,,,,,,,,true,TRUE,,7914.1999999761465,,response,,,,100,A,,,,,,TRUE,click #choice-1,,,,silence,,,,,427667.09999990463,427665.39999997616,419715.541,419730,419751.2,427681.656,,,
Question 2,html.Screen,2_1_1_3,2022-05-03T18:37:15.891Z,,,,,,,,,,,,,,,,,,,,,,,,,,,,true,FALSE,,3142.8439999999828,,response,,,,100,A,,,,,,FALSE,click #choice-2,,,,silence,,,,,430827.39999997616,430824.5,427664.999,427667.2999999523,427681.656,430831.757,,,
Item 100,flow.Sequence,2_1_1,2022-05-03T18:37:15.891Z,,,,,,,,,,,,,,,,,,,,,,,,,,,,,,,58139.716000000015,,completion,,,,,,,,,,,,,,,,,,,,,430827.89999997616,430824.5,372668.158,372673.2999999523,372684.784,430831.757,,,
End of Practice,html.Page,2_1_2,2022-05-03T18:37:22.924Z,,,,,,,,,,,,,,,,,,,,,,,,,,,,,,,7028.342999904649,,form submission,,,,,,,,,,,,,,,,,,,,,437860.7999999523,437860.09999990463,430815.147,430828.2999999523,430831.757,437864.604,,,
Practice,flow.Sequence,2_1,2022-05-03T18:37:22.925Z,,,,,,,,,,,,,,,,,,,,,,,,,,,,,,,137737.98899990466,,completion,,,,,,,,,,,,,,,,,,,,,437861.5,437860.09999990463,299938.823,300005.2999999523,300122.111,437864.604,,,
Trap_instruction,html.Page,2_2_0,2022-05-03T18:37:31.498Z,,,,,,,,,,,,,,,,,,,,,,,,,,,,,,,8569.295999976166,,form submission,,,,,,,,,,,,,,,,,,,,,446434.59999990463,446433.89999997616,437848.224,437862,437864.604,447047.299,,,
trap_trial,html.Screen,2_2_1,2022-05-03T18:37:39.204Z,,,,,,,,,,,,,,,,,,,,,,,,,,,,true,1,,7091.201000000001,,response,,,,,,,,,,,1,click #choice-1,,,,,,,,,454140.7999999523,454138.5,446430.761,446435,447047.299,454196.935,,,
end of trap trial,html.Page,2_2_2,2022-05-03T18:37:42.948Z,,,,,,,,,,,,,,,,,,,,,,,,,,,,,,,3687.2649999284768,,form submission,,,,,,,,,,,,,,,,,,,,,457885,457884.1999999285,454130.517,454141.2999999523,454196.935,457896.789,,,
Trap 1,flow.Sequence,2_2,2022-05-03T18:37:42.949Z,,,,,,,,,,,,,,,,,,,,,,,,,,,,,,,20019.595999928482,,completion,,,,,,,,,,,,,,,,,,,,,457885.59999990463,457884.1999999285,437848.224,437861.7999999523,437864.604,457896.789,,,
Standby,html.Page,2_3_0,2022-05-03T18:37:50.945Z,,,,,,,,,,,,,,,,,,,,,,,,,,,,,,,7999.660000000033,,timeout,,,,,,,,,,,,,,,,,,,,,465881.2999999523,465879.757,457880.345,457886.09999990463,457896.789,465896.449,,,
Holding screen,html.Screen,2_3_1_0_0,2022-05-03T18:37:57.944Z,,,,,,,,,,,,,,,,,,,,,,,,,,,,,,,6999.460999999952,,timeout,,,,,,,,,,,,,,,,,,,,,472880.7999999523,472879.407,465879.757,465882.09999990463,465896.449,472895.91,,,
screen,html.Screen,2_3_1_0_1_0,2022-05-03T18:37:59.091Z,,,,,,,,,,,,,,,,,2,,,,,,,,,,,,,,1129.0900000000256,,response,,,,1,A,,,,,,Space,keypress(Space),,,,silence,,,,Two ---- ------ --- ------- ---------- ------- ----------<br>--- --------- --- ----------- ------- ----- ------- ---<br>--------- ---- -- --- ---- -- --------- -- ---- -------<br>-- --------- ------ --- ----- ------ ---- --- --------- --<br>------ - ---- -- --- ----------- ------- ---- ----- -----<br>--- -------- - ------ ---- -- ----- ---- --- --- -----------<br>-- -------,474027.5,474025,472879.407,472881.5,472895.91,474029.281,,0,Two
screen,html.Screen,2_3_1_0_1_1,2022-05-03T18:37:59.712Z,,,,,,,,,,,,,,,,,2,,,,,,,,,,,,,,618.018999952299,,response,,,,1,A,,,,,,Space,keypress(Space),,,,silence,,,,--- days ------ --- ------- ---------- ------- ----------<br>--- --------- --- ----------- ------- ----- ------- ---<br>--------- ---- -- --- ---- -- --------- -- ---- -------<br>-- --------- ------ --- ----- ------ ---- --- --------- --<br>------ - ---- -- --- ----------- ------- ---- ----- -----<br>--- -------- - ------ ---- -- ----- ---- --- --- -----------<br>-- -------,474648.7999999523,474647.2999999523,474012.848,474027.7999999523,474029.281,474662.576,,1,days
screen,html.Screen,2_3_1_0_1_2,2022-05-03T18:38:00.599Z,,,,,,,,,,,,,,,,,2,,,,,,,,,,,,,,872.7239999523154,,response,,,,1,A,,,,,,Space,keypress(Space),,,,silence,,,,"--- ---- later, --- ------- ---------- ------- ----------<br>--- --------- --- ----------- ------- ----- ------- ---<br>--------- ---- -- --- ---- -- --------- -- ---- -------<br>-- --------- ------ --- ----- ------ ---- --- --------- --<br>------ - ---- -- --- ----------- ------- ---- ----- -----<br>--- -------- - ------ ---- -- ----- ---- --- --- -----------<br>-- -------",475536.1999999285,475535.2999999523,474646.107,474649.1999999285,474662.576,475545.789,,2,"later,"
screen,html.Screen,2_3_1_0_1_3,2022-05-03T18:38:01.135Z,,,,,,,,,,,,,,,,,2,,,,,,,,,,,,,,524.5109999523265,,response,,,,1,A,,,,,,Space,keypress(Space),,,,silence,,,,--- ---- ------ the ------- ---------- ------- ----------<br>--- --------- --- ----------- ------- ----- ------- ---<br>--------- ---- -- --- ---- -- --------- -- ---- -------<br>-- --------- ------ --- ----- ------ ---- --- --------- --<br>------ - ---- -- --- ----------- ------- ---- ----- -----<br>--- -------- - ------ ---- -- ----- ---- --- --- -----------<br>-- -------,476072,476070.2999999523,475529.327,475536.39999997616,475545.789,476079.126,,3,the
screen,html.Screen,2_3_1_0_1_4,2022-05-03T18:38:01.666Z,,,,,,,,,,,,,,,,,2,,,,,,,,,,,,,,521.9739999046433,,response,,,,1,A,,,,,,Space,keypress(Space),,,,silence,,,,--- ---- ------ --- British ---------- ------- ----------<br>--- --------- --- ----------- ------- ----- ------- ---<br>--------- ---- -- --- ---- -- --------- -- ---- -------<br>-- --------- ------ --- ----- ------ ---- --- --------- --<br>------ - ---- -- --- ----------- ------- ---- ----- -----<br>--- -------- - ------ ---- -- ----- ---- --- --- -----------<br>-- -------,476602.89999997616,476601.09999990463,476062.447,476072.39999997616,476079.126,476612.403,,4,British
screen,html.Screen,2_3_1_0_1_5,2022-05-03T18:38:02.385Z,,,,,,,,,,,,,,,,,2,,,,,,,,,,,,,,708.2969999284833,,response,,,,1,A,,,,,,Space,keypress(Space),,,,silence,,,,--- ---- ------ --- ------- astronomer ------- ----------<br>--- --------- --- ----------- ------- ----- ------- ---<br>--------- ---- -- --- ---- -- --------- -- ---- -------<br>-- --------- ------ --- ----- ------ ---- --- --------- --<br>------ - ---- -- --- ----------- ------- ---- ----- -----<br>--- -------- - ------ ---- -- ----- ---- --- --- -----------<br>-- -------,477321.6999999285,477320.6999999285,476595.871,476603.2999999523,476612.403,477328.971,,5,astronomer
screen,html.Screen,2_3_1_0_1_6,2022-05-03T18:38:02.981Z,,,,,,,,,,,,,,,,,2,,,,,,,,,,,,,,587.128999904613,,response,,,,1,A,,,,,,Space,keypress(Space),,,,silence,,,,--- ---- ------ --- ------- ---------- Richard ----------<br>--- --------- --- ----------- ------- ----- ------- ---<br>--------- ---- -- --- ---- -- --------- -- ---- -------<br>-- --------- ------ --- ----- ------ ---- --- --------- --<br>------ - ---- -- --- ----------- ------- ---- ----- -----<br>--- -------- - ------ ---- -- ----- ---- --- --- -----------<br>-- -------,477918.1999999285,477916.09999990463,477312.451,477322,477328.971,477929.307,,6,Richard
screen,html.Screen,2_3_1_0_1_7,2022-05-03T18:38:03.671Z,,,,,,,,,,,,,,,,,2,,,,,,,,,,,,,,677.1930000000284,,response,,,,1,A,,,,,,Space,keypress(Space),,,,silence,,,,--- ---- ------ --- ------- ---------- ------- Carrington<br>--- --------- --- ----------- ------- ----- ------- ---<br>--------- ---- -- --- ---- -- --------- -- ---- -------<br>-- --------- ------ --- ----- ------ ---- --- --------- --<br>------ - ---- -- --- ----------- ------- ---- ----- -----<br>--- -------- - ------ ---- -- ----- ---- --- --- -----------<br>-- -------,478607.5,478606.5,477912.282,477918.6999999285,477929.307,478612.291,,7,Carrington
screen,html.Screen,2_3_1_0_1_8,2022-05-03T18:38:04.271Z,,,,,,,,,,,,,,,,,2,,,,,,,,,,,,,,594.6089999761316,,response,,,,1,A,,,,,,Space,keypress(Space),,,,silence,,,,--- ---- ------ --- ------- ---------- ------- ----------<br>was --------- --- ----------- ------- ----- ------- ---<br>--------- ---- -- --- ---- -- --------- -- ---- -------<br>-- --------- ------ --- ----- ------ ---- --- --------- --<br>------ - ---- -- --- ----------- ------- ---- ----- -----<br>--- -------- - ------ ---- -- ----- ---- --- --- -----------<br>-- -------,479207.89999997616,479206.89999997616,478595.973,478607.6999999285,478612.291,479212.252,,8,was
screen,html.Screen,2_3_1_0_1_9,2022-05-03T18:38:04.854Z,,,,,,,,,,,,,,,,,2,,,,,,,,,,,,,,577.1479999761796,,response,,,,1,A,,,,,,Space,keypress(Space),,,,silence,,,,--- ---- ------ --- ------- ---------- ------- ----------<br>--- observing --- ----------- ------- ----- ------- ---<br>--------- ---- -- --- ---- -- --------- -- ---- -------<br>-- --------- ------ --- ----- ------ ---- --- --------- --<br>------ - ---- -- --- ----------- ------- ---- ----- -----<br>--- -------- - ------ ---- -- ----- ---- --- --- -----------<br>-- -------,479791.09999990463,479789.39999997616,479195.719,479208.09999990463,479212.252,479795.629,,9,observing
screen,html.Screen,2_3_1_0_1_10,2022-05-03T18:38:05.360Z,,,,,,,,,,,,,,,,,2,,,,,,,,,,,,,,499.2709999761428,,response,,,,1,A,,,,,,Space,keypress(Space),,,,silence,,,,--- ---- ------ --- ------- ---------- ------- ----------<br>--- --------- the ----------- ------- ----- ------- ---<br>--------- ---- -- --- ---- -- --------- -- ---- -------<br>-- --------- ------ --- ----- ------ ---- --- --------- --<br>------ - ---- -- --- ----------- ------- ---- ----- -----<br>--- -------- - ------ ---- -- ----- ---- --- --- -----------<br>-- -------,480296.59999990463,480294.89999997616,479778.882,479791.39999997616,479795.629,480312.232,,10,the
screen,html.Screen,2_3_1_0_1_11,2022-05-03T18:38:05.948Z,,,,,,,,,,,,,,,,,2,,,,,,,,,,,,,,571.5679999522981,,response,,,,1,A,,,,,,Space,keypress(Space),,,,silence,,,,--- ---- ------ --- ------- ---------- ------- ----------<br>--- --------- --- interesting ------- ----- ------- ---<br>--------- ---- -- --- ---- -- --------- -- ---- -------<br>-- --------- ------ --- ----- ------ ---- --- --------- --<br>------ - ---- -- --- ----------- ------- ---- ----- -----<br>--- -------- - ------ ---- -- ----- ---- --- --- -----------<br>-- -------,480884.7999999523,480883.7999999523,480295.544,480297,480312.232,480895.701,,11,interesting
screen,html.Screen,2_3_1_0_1_12,2022-05-03T18:38:06.696Z,,,,,,,,,,,,,,,,,2,,,,,,,,,,,,,,736.0989999523154,,response,,,,1,A,,,,,,Space,keypress(Space),,,,silence,,,,--- ---- ------ --- ------- ---------- ------- ----------<br>--- --------- --- ----------- sunspot ----- ------- ---<br>--------- ---- -- --- ---- -- --------- -- ---- -------<br>-- --------- ------ --- ----- ------ ---- --- --------- --<br>------ - ---- -- --- ----------- ------- ---- ----- -----<br>--- -------- - ------ ---- -- ----- ---- --- --- -----------<br>-- -------,481632.7999999523,481631.7999999523,480878.935,480885.1999999285,480895.701,481645.713,,12,sunspot
screen,html.Screen,2_3_1_0_1_13,2022-05-03T18:38:07.346Z,,,,,,,,,,,,,,,,,2,,,,,,,,,,,,,,635.7870000000112,,response,,,,1,A,,,,,,Space,keypress(Space),,,,silence,,,,--- ---- ------ --- ------- ---------- ------- ----------<br>--- --------- --- ----------- ------- group ------- ---<br>--------- ---- -- --- ---- -- --------- -- ---- -------<br>-- --------- ------ --- ----- ------ ---- --- --------- --<br>------ - ---- -- --- ----------- ------- ---- ----- -----<br>--- -------- - ------ ---- -- ----- ---- --- --- -----------<br>-- -------,482282.2999999523,482281.5,481628.944,481633,481645.713,482295.678,,13,group
screen,html.Screen,2_3_1_0_1_14,2022-05-03T18:38:07.915Z,,,,,,,,,,,,,,,,,2,,,,,,,,,,,,,,553.4219999046181,,response,,,,1,A,,,,,,Space,keypress(Space),,,,silence,,,,--- ---- ------ --- ------- ---------- ------- ----------<br>--- --------- --- ----------- ------- ----- through ---<br>--------- ---- -- --- ---- -- --------- -- ---- -------<br>-- --------- ------ --- ----- ------ ---- --- --------- --<br>------ - ---- -- --- ----------- ------- ---- ----- -----<br>--- -------- - ------ ---- -- ----- ---- --- --- -----------<br>-- -------,482851.1999999285,482849.09999990463,482279.039,482282.59999990463,482295.678,482862.025,,14,through
screen,html.Screen,2_3_1_0_1_15,2022-05-03T18:38:08.455Z,,,,,,,,,,,,,,,,,2,,,,,,,,,,,,,,528.4749999999767,,response,,,,1,A,,,,,,Space,keypress(Space),,,,silence,,,,--- ---- ------ --- ------- ---------- ------- ----------<br>--- --------- --- ----------- ------- ----- ------- his<br>--------- ---- -- --- ---- -- --------- -- ---- -------<br>-- --------- ------ --- ----- ------ ---- --- --------- --<br>------ - ---- -- --- ----------- ------- ---- ----- -----<br>--- -------- - ------ ---- -- ----- ---- --- --- -----------<br>-- -------,483391.59999990463,483390.5,482845.681,482851.59999990463,482862.025,483395.344,,15,his
screen,html.Screen,2_3_1_0_1_16,2022-05-03T18:38:09.268Z,,,,,,,,,,,,,,,,,2,,,,,,,,,,,,,,807.0559999761754,,response,,,,1,A,,,,,,Space,keypress(Space),,,,silence,,,,--- ---- ------ --- ------- ---------- ------- ----------<br>--- --------- --- ----------- ------- ----- ------- ---<br>telescope ---- -- --- ---- -- --------- -- ---- -------<br>-- --------- ------ --- ----- ------ ---- --- --------- --<br>------ - ---- -- --- ----------- ------- ---- ----- -----<br>--- -------- - ------ ---- -- ----- ---- --- --- -----------<br>-- -------,484204.5,484202.39999997616,483378.755,483391.89999997616,483395.344,484211.953,,16,telescope
screen,html.Screen,2_3_1_0_1_17,2022-05-03T18:38:09.983Z,,,,,,,,,,,,,,,,,2,,,,,,,,,,,,,,706.1469999046531,,response,,,,1,A,,,,,,Space,keypress(Space),,,,silence,,,,--- ---- ------ --- ------- ---------- ------- ----------<br>--- --------- --- ----------- ------- ----- ------- ---<br>--------- when -- --- ---- -- --------- -- ---- -------<br>-- --------- ------ --- ----- ------ ---- --- --------- --<br>------ - ---- -- --- ----------- ------- ---- ----- -----<br>--- -------- - ------ ---- -- ----- ---- --- --- -----------<br>-- -------,484920.1999999285,484918.09999990463,484195.415,484204.89999997616,484211.953,484928.624,,17,when
screen,html.Screen,2_3_1_0_1_18,2022-05-03T18:38:10.489Z,,,,,,,,,,,,,,,,,2,,,,,,,,,,,,,,496.3759999999893,,response,,,,1,A,,,,,,Space,keypress(Space),,,,silence,,,,--- ---- ------ --- ------- ---------- ------- ----------<br>--- --------- --- ----------- ------- ----- ------- ---<br>--------- ---- he --- ---- -- --------- -- ---- -------<br>-- --------- ------ --- ----- ------ ---- --- --------- --<br>------ - ---- -- --- ----------- ------- ---- ----- -----<br>--- -------- - ------ ---- -- ----- ---- --- --- -----------<br>-- -------,485425.89999997616,485425,484911.968,484920.59999990463,484928.624,485428.58,,18,he
screen,html.Screen,2_3_1_0_1_19,2022-05-03T18:38:11.033Z,,,,,,,,,,,,,,,,,2,,,,,,,,,,,,,,539.4199999999837,,response,,,,1,A,,,,,,Space,keypress(Space),,,,silence,,,,--- ---- ------ --- ------- ---------- ------- ----------<br>--- --------- --- ----------- ------- ----- ------- ---<br>--------- ---- -- saw ---- -- --------- -- ---- -------<br>-- --------- ------ --- ----- ------ ---- --- --------- --<br>------ - ---- -- --- ----------- ------- ---- ----- -----<br>--- -------- - ------ ---- -- ----- ---- --- --- -----------<br>-- -------,485969.6999999285,485968,485412.188,485426.09999990463,485428.58,485978.607,,19,saw
screen,html.Screen,2_3_1_0_1_20,2022-05-03T18:38:11.577Z,,,,,,,,,,,,,,,,,2,,,,,,,,,,,,,,532.8929999999818,,response,,,,1,A,,,,,,Space,keypress(Space),,,,silence,,,,--- ---- ------ --- ------- ---------- ------- ----------<br>--- --------- --- ----------- ------- ----- ------- ---<br>--------- ---- -- --- what -- --------- -- ---- -------<br>-- --------- ------ --- ----- ------ ---- --- --------- --<br>------ - ---- -- --- ----------- ------- ---- ----- -----<br>--- -------- - ------ ---- -- ----- ---- --- --- -----------<br>-- -------,486513.39999997616,486511.5,485961.867,485970,485978.607,486528.583,,20,what
screen,html.Screen,2_3_1_0_1_21,2022-05-03T18:38:12.118Z,,,,,,,,,,,,,,,,,2,,,,,,,,,,,,,,525.2169999523321,,response,,,,1,A,,,,,,Space,keypress(Space),,,,silence,,,,--- ---- ------ --- ------- ---------- ------- ----------<br>--- --------- --- ----------- ------- ----- ------- ---<br>--------- ---- -- --- ---- he --------- -- ---- -------<br>-- --------- ------ --- ----- ------ ---- --- --------- --<br>------ - ---- -- --- ----------- ------- ---- ----- -----<br>--- -------- - ------ ---- -- ----- ---- --- --- -----------<br>-- -------,487054.7999999523,487053.7999999523,486511.953,486513.7999999523,486528.583,487061.77,,21,he
screen,html.Screen,2_3_1_0_1_22,2022-05-03T18:38:12.654Z,,,,,,,,,,,,,,,,,2,,,,,,,,,,,,,,528.1299999761395,,response,,,,1,A,,,,,,Space,keypress(Space),,,,silence,,,,--- ---- ------ --- ------- ---------- ------- ----------<br>--- --------- --- ----------- ------- ----- ------- ---<br>--------- ---- -- --- ---- -- described -- ---- -------<br>-- --------- ------ --- ----- ------ ---- --- --------- --<br>------ - ---- -- --- ----------- ------- ---- ----- -----<br>--- -------- - ------ ---- -- ----- ---- --- --- -----------<br>-- -------,487591,487589.89999997616,487045.495,487055,487061.77,487595.113,,22,described
screen,html.Screen,2_3_1_0_1_23,2022-05-03T18:38:13.248Z,,,,,,,,,,,,,,,,,2,,,,,,,,,,,,,,587.4869999046205,,response,,,,1,A,,,,,,Space,keypress(Space),,,,silence,,,,--- ---- ------ --- ------- ---------- ------- ----------<br>--- --------- --- ----------- ------- ----- ------- ---<br>--------- ---- -- --- ---- -- --------- as ---- -------<br>-- --------- ------ --- ----- ------ ---- --- --------- --<br>------ - ---- -- --- ----------- ------- ---- ----- -----<br>--- -------- - ------ ---- -- ----- ---- --- --- -----------<br>-- -------,488184.59999990463,488182.59999990463,487578.439,487591.1999999285,487595.113,488295.063,,23,as
screen,html.Screen,2_3_1_0_1_24,2022-05-03T18:38:14.089Z,,,,,,,,,,,,,,,,,2,,,,,,,,,,,,,,729.1369999284507,,response,,,,1,A,,,,,,Space,keypress(Space),,,,silence,,,,"--- ---- ------ --- ------- ---------- ------- ----------<br>--- --------- --- ----------- ------- ----- ------- ---<br>--------- ---- -- --- ---- -- --------- -- ""two -------<br>-- --------- ------ --- ----- ------ ---- --- --------- --<br>------ - ---- -- --- ----------- ------- ---- ----- -----<br>--- -------- - ------ ---- -- ----- ---- --- --- -----------<br>-- -------",489025.1999999285,489024.1999999285,488178.446,488185.09999990463,488295.063,489028.39,,24,"""two"
screen,html.Screen,2_3_1_0_1_25,2022-05-03T18:38:14.614Z,,,,,,,,,,,,,,,,,2,,,,,,,,,,,,,,521.5099999761442,,response,,,,1,A,,,,,,Space,keypress(Space),,,,silence,,,,--- ---- ------ --- ------- ---------- ------- ----------<br>--- --------- --- ----------- ------- ----- ------- ---<br>--------- ---- -- --- ---- -- --------- -- ---- patches<br>-- --------- ------ --- ----- ------ ---- --- --------- --<br>------ - ---- -- --- ----------- ------- ---- ----- -----<br>--- -------- - ------ ---- -- ----- ---- --- --- -----------<br>-- -------,489550.89999997616,489549.89999997616,489012.004,489025.5,489028.39,489561.653,,25,patches
screen,html.Screen,2_3_1_0_1_26,2022-05-03T18:38:15.118Z,,,,,,,,,,,,,,,,,2,,,,,,,,,,,,,,491.64699995232513,,response,,,,1,A,,,,,,Space,keypress(Space),,,,silence,,,,--- ---- ------ --- ------- ---------- ------- ----------<br>--- --------- --- ----------- ------- ----- ------- ---<br>--------- ---- -- --- ---- -- --------- -- ---- -------<br>of --------- ------ --- ----- ------ ---- --- --------- --<br>------ - ---- -- --- ----------- ------- ---- ----- -----<br>--- -------- - ------ ---- -- ----- ---- --- --- -----------<br>-- -------,490054.2999999523,490053.2999999523,489545.06,489551.2999999523,489561.653,490061.622,,26,of
screen,html.Screen,2_3_1_0_1_27,2022-05-03T18:38:15.707Z,,,,,,,,,,,,,,,,,2,,,,,,,,,,,,,,580.9779999046586,,response,,,,1,A,,,,,,Space,keypress(Space),,,,silence,,,,--- ---- ------ --- ------- ---------- ------- ----------<br>--- --------- --- ----------- ------- ----- ------- ---<br>--------- ---- -- --- ---- -- --------- -- ---- -------<br>-- intensely ------ --- ----- ------ ---- --- --------- --<br>------ - ---- -- --- ----------- ------- ---- ----- -----<br>--- -------- - ------ ---- -- ----- ---- --- --- -----------<br>-- -------,490643.59999990463,490642.59999990463,490044.98,490054.59999990463,490061.622,490676.047,,27,intensely
screen,html.Screen,2_3_1_0_1_28,2022-05-03T18:38:16.227Z,,,,,,,,,,,,,,,,,2,,,,,,,,,,,,,,486.85299997613765,,response,,,,1,A,,,,,,Space,keypress(Space),,,,silence,,,,--- ---- ------ --- ------- ---------- ------- ----------<br>--- --------- --- ----------- ------- ----- ------- ---<br>--------- ---- -- --- ---- -- --------- -- ---- -------<br>-- --------- bright --- ----- ------ ---- --- --------- --<br>------ - ---- -- --- ----------- ------- ---- ----- -----<br>--- -------- - ------ ---- -- ----- ---- --- --- -----------<br>-- -------,491164.09999990463,491162.89999997616,490628.346,490643.7999999523,490676.047,491178.256,,28,bright
screen,html.Screen,2_3_1_0_1_29,2022-05-03T18:38:16.844Z,,,,,,,,,,,,,,,,,2,,,,,,,,,,,,,,600.9439999284805,,response,,,,1,A,,,,,,Space,keypress(Space),,,,silence,,,,--- ---- ------ --- ------- ---------- ------- ----------<br>--- --------- --- ----------- ------- ----- ------- ---<br>--------- ---- -- --- ---- -- --------- -- ---- -------<br>-- --------- ------ and ----- ------ ---- --- --------- --<br>------ - ---- -- --- ----------- ------- ---- ----- -----<br>--- -------- - ------ ---- -- ----- ---- --- --- -----------<br>-- -------,491781.09999990463,491779.1999999285,491161.878,491164.39999997616,491178.256,491794.937,,29,and
screen,html.Screen,2_3_1_0_1_30,2022-05-03T18:38:17.393Z,,,,,,,,,,,,,,,,,2,,,,,,,,,,,,,,532.5630000000237,,response,,,,1,A,,,,,,Space,keypress(Space),,,,silence,,,,--- ---- ------ --- ------- ---------- ------- ----------<br>--- --------- --- ----------- ------- ----- ------- ---<br>--------- ---- -- --- ---- -- --------- -- ---- -------<br>-- --------- ------ --- white ------ ---- --- --------- --<br>------ - ---- -- --- ----------- ------- ---- ----- -----<br>--- -------- - ------ ---- -- ----- ---- --- --- -----------<br>-- -------,492329.2999999523,492327.5,491778.282,491781.5,491794.937,492344.924,,30,white
screen,html.Screen,2_3_1_0_1_31,2022-05-03T18:38:17.900Z,,,,,,,,,,,,,,,,,2,,,,,,,,,,,,,,490.8759999523172,,response,,,,1,A,,,,,,Space,keypress(Space),,,,silence,,,,"--- ---- ------ --- ------- ---------- ------- ----------<br>--- --------- --- ----------- ------- ----- ------- ---<br>--------- ---- -- --- ---- -- --------- -- ---- -------<br>-- --------- ------ --- ----- light"" ---- --- --------- --<br>------ - ---- -- --- ----------- ------- ---- ----- -----<br>--- -------- - ------ ---- -- ----- ---- --- --- -----------<br>-- -------",492837,492835.7999999523,492328.477,492329.6999999285,492344.924,492844.791,,31,"light"""
screen,html.Screen,2_3_1_0_1_32,2022-05-03T18:38:18.411Z,,,,,,,,,,,,,,,,,2,,,,,,,,,,,,,,502.00899995228974,,response,,,,1,A,,,,,,Space,keypress(Space),,,,silence,,,,--- ---- ------ --- ------- ---------- ------- ----------<br>--- --------- --- ----------- ------- ----- ------- ---<br>--------- ---- -- --- ---- -- --------- -- ---- -------<br>-- --------- ------ --- ----- ------ over --- --------- --<br>------ - ---- -- --- ----------- ------- ---- ----- -----<br>--- -------- - ------ ---- -- ----- ---- --- --- -----------<br>-- -------,493347.6999999285,493346.7999999523,492828.499,492837.09999990463,492844.791,493361.531,,32,over
screen,html.Screen,2_3_1_0_1_33,2022-05-03T18:38:18.879Z,,,,,,,,,,,,,,,,,2,,,,,,,,,,,,,,452.6689999284572,,response,,,,1,A,,,,,,Space,keypress(Space),,,,silence,,,,--- ---- ------ --- ------- ---------- ------- ----------<br>--- --------- --- ----------- ------- ----- ------- ---<br>--------- ---- -- --- ---- -- --------- -- ---- -------<br>-- --------- ------ --- ----- ------ ---- the --------- --<br>------ - ---- -- --- ----------- ------- ---- ----- -----<br>--- -------- - ------ ---- -- ----- ---- --- --- -----------<br>-- -------,493815.5,493814.1999999285,493344.808,493348,493361.531,493828.102,,33,the
screen,html.Screen,2_3_1_0_1_34,2022-05-03T18:38:19.434Z,,,,,,,,,,,,,,,,,2,,,,,,,,,,,,,,538.1979999523028,,response,,,,1,A,,,,,,Space,keypress(Space),,,,silence,,,,--- ---- ------ --- ------- ---------- ------- ----------<br>--- --------- --- ----------- ------- ----- ------- ---<br>--------- ---- -- --- ---- -- --------- -- ---- -------<br>-- --------- ------ --- ----- ------ ---- --- sunspots. --<br>------ - ---- -- --- ----------- ------- ---- ----- -----<br>--- -------- - ------ ---- -- ----- ---- --- --- -----------<br>-- -------,494370.39999997616,494366.2999999523,493811.457,493815.7999999523,493828.102,494378.159,,34,sunspots.
screen,html.Screen,2_3_1_0_1_35,2022-05-03T18:38:19.999Z,,,,,,,,,,,,,,,,,2,,,,,,,,,,,,,,556.1409999523312,,response,,,,1,A,,,,,,Space,keypress(Space),,,,silence,,,,--- ---- ------ --- ------- ---------- ------- ----------<br>--- --------- --- ----------- ------- ----- ------- ---<br>--------- ---- -- --- ---- -- --------- -- ---- -------<br>-- --------- ------ --- ----- ------ ---- --- --------- He<br>------ - ---- -- --- ----------- ------- ---- ----- -----<br>--- -------- - ------ ---- -- ----- ---- --- --- -----------<br>-- -------,494935.5,494934.2999999523,494361.429,494370.7999999523,494378.159,494944.974,,35,He
screen,html.Screen,2_3_1_0_1_36,2022-05-03T18:38:20.636Z,,,,,,,,,,,,,,,,,2,,,,,,,,,,,,,,626.725999928487,,response,,,,1,A,,,,,,Space,keypress(Space),,,,silence,,,,--- ---- ------ --- ------- ---------- ------- ----------<br>--- --------- --- ----------- ------- ----- ------- ---<br>--------- ---- -- --- ---- -- --------- -- ---- -------<br>-- --------- ------ --- ----- ------ ---- --- --------- --<br>jotted - ---- -- --- ----------- ------- ---- ----- -----<br>--- -------- - ------ ---- -- ----- ---- --- --- -----------<br>-- -------,495572.6999999285,495571.6999999285,494928.66,494935.7999999523,494944.974,495578.039,,36,jotted
screen,html.Screen,2_3_1_0_1_37,2022-05-03T18:38:21.234Z,,,,,,,,,,,,,,,,,2,,,,,,,,,,,,,,590.9610000000102,,response,,,,1,A,,,,,,Space,keypress(Space),,,,silence,,,,--- ---- ------ --- ------- ---------- ------- ----------<br>--- --------- --- ----------- ------- ----- ------- ---<br>--------- ---- -- --- ---- -- --------- -- ---- -------<br>-- --------- ------ --- ----- ------ ---- --- --------- --<br>------ a ---- -- --- ----------- ------- ---- ----- -----<br>--- -------- - ------ ---- -- ----- ---- --- --- -----------<br>-- -------,496170.6999999285,496169,495561.627,495572.89999997616,495578.039,496178.032,,37,a
screen,html.Screen,2_3_1_0_1_38,2022-05-03T18:38:21.716Z,,,,,,,,,,,,,,,,,2,,,,,,,,,,,,,,473.06799990462605,,response,,,,1,A,,,,,,Space,keypress(Space),,,,silence,,,,--- ---- ------ --- ------- ---------- ------- ----------<br>--- --------- --- ----------- ------- ----- ------- ---<br>--------- ---- -- --- ---- -- --------- -- ---- -------<br>-- --------- ------ --- ----- ------ ---- --- --------- --<br>------ - note -- --- ----------- ------- ---- ----- -----<br>--- -------- - ------ ---- -- ----- ---- --- --- -----------<br>-- -------,496652.5,496651.09999990463,496161.417,496171.1999999285,496178.032,496661.284,,38,note
