sender,sender_type,sender_id,timestamp,meta,,Blues,Classical,Country,Dance,Electronic,Folk,Gospel,Hip-Hop,Jazz,Latin,Musical/Film,New-age,Pop,Prolific_id,Provo_ID,R&B,Rap,Reggae,Religious,Rock,Soul,Swing,Traditional,age,artist_name,correct,correctResponse,distraction,duration,education,ended_on,familiarity,gender,headphone_check_performance,item,list,music_frequency,offensiveness,pleasantness,position_correct,preference,response,response_action,snippet_file,song_name,song_rating,sound,stimulus_1,stimulus_2,stimulus_3,text,time_commit,time_end,time_render,time_run,time_show,time_switch,url,word,word_ID
Prolific ID,html.Form,0,2022-05-03T13:16:55.709Z,"{""labjs_version"":""20.2.2"",""labjs_build"":{""flavor"":""production"",""commit"":""a25486e0c714a0ae2ce03ff94b7bb6896854dcfa""},""location"":""https://run.pavlovia.org/mvasilev/prolific3_music_h/"",""userAgent"":""Mozilla/5.0 (Windows NT 10.0; Win64; x64) AppleWebKit/537.36 (KHTML, like Gecko) Chrome/100.0.4896.127 Safari/537.36"",""platform"":""Win32"",""language"":""en-GB"",""locale"":""en-US"",""timeZone"":""Europe/London"",""timezoneOffset"":-60,""screen_width"":1366,""screen_height"":768,""scroll_width"":1821,""scroll_height"":798,""window_innerWidth"":1821,""window_innerHeight"":846,""devicePixelRatio"":0.75}",,,,,,,,,,,,,,,5efa358d3b02ed8465b9a726,,,,,,,,,,,,,,,3673.941999904633,,form submission,,,,,,,,,,,,,,,,,,,,,16022.899999976158,16022.099999904633,12323.18,12325.099999904633,12348.158,16022.55,{},,
Introduction,html.Screen,1_0,2022-05-03T13:17:01.143Z,,,,,,,,,,,,,,,,,,,,,,,,,,,,,,,5427.950000000001,,response,,,,,,,,,,,continue,click button,,,,,,,,,21456.399999976158,21450.5,15997.572,16023.699999928474,16022.55,21452.357,,,
Volume calibration,html.Screen,1_1,2022-05-03T13:17:25.808Z,,,,,,,,,,,,,,,,,,,,,,,,,,,,,,,24661.942999952316,,response,,,,,,,,,,,continue,click button,,,,,,,,,46121.89999997616,46114.299999952316,21427.379,21456.599999904633,21452.357,46127.921,,,
Task instructions,html.Screen,1_2,2022-05-03T13:17:32.023Z,,,,,,,,,,,,,,,,,,,,,,,,,,,,,,,6206.378999952314,,response,,,,,,,,,,,continue,click button,,,,,,,,,52336.39999997616,52334.299999952316,46102.668,46122.09999990463,46127.921,52354.348,,,
Sounds,html.Screen,1_3_0_0,2022-05-03T13:17:36.281Z,,,,,,,,,,,,,,,,,,,,,,,,,,,,,,,4261.696000000004,,timeout,,,,,,,,,3,,,,,,,,O,I,S,,56594.59999990463,56591.066,52329.37,52336.699999928474,52354.348,56616.044,,,
Judgement,html.Screen,1_3_0_1,2022-05-03T13:17:37.252Z,,,,,,,,,,,,,,,,,,,,,,,,,,,,true,3,,947.3559999761565,,response,,,,,,,,,3,,3,click #choice-3,,,,,O,I,S,,57565.799999952316,57563.39999997616,56591.066,56594.799999952316,56616.044,57569.153,,,
Trial,flow.Sequence,1_3_0,2022-05-03T13:17:37.252Z,,,,,,,,,,,,,,,,,,,,,,,,,,,,,,,5209.05199997616,,completion,,,,,,,,,3,,,,,,,,O,I,S,,57566.199999928474,57563.39999997616,52329.37,52336.699999928474,52354.348,57569.153,,,
Sounds,html.Screen,1_3_1_0,2022-05-03T13:17:41.481Z,,,,,,,,,,,,,,,,,,,,,,,,,,,,,,,4249.383999999998,,timeout,,,,,,,,,2,,,,,,,,O,S,I,,61795,61793.559,57544.175,57566.299999952316,57569.153,61818.537,,,
Judgement,html.Screen,1_3_1_1,2022-05-03T13:17:42.206Z,,,,,,,,,,,,,,,,,,,,,,,,,,,,true,2,,698.4630000000034,,response,,,,,,,,,2,,2,click #choice-2,,,,,O,S,I,,62519.39999997616,62517,61793.559,61795,61818.537,62524.757,,,
Trial,flow.Sequence,1_3_1,2022-05-03T13:17:42.206Z,,,,,,,,,,,,,,,,,,,,,,,,,,,,,,,4947.847000000002,,completion,,,,,,,,,2,,,,,,,,O,S,I,,62519.699999928474,62517,57544.175,57566.299999952316,57569.153,62524.757,,,
Sounds,html.Screen,1_3_2_0,2022-05-03T13:17:46.437Z,,,,,,,,,,,,,,,,,,,,,,,,,,,,,,,4248.301000000007,,timeout,,,,,,,,,1,,,,,,,,S,O,I,,66750.89999997616,66748.08,62499.779,62520,62524.757,66773.058,,,
Judgement,html.Screen,1_3_2_1,2022-05-03T13:17:47.138Z,,,,,,,,,,,,,,,,,,,,,,,,,,,,true,1,,677.4419999999955,,response,,,,,,,,,1,,1,click #choice-1,,,,,S,O,I,,67452,67450.5,66748.08,66751,66773.058,67454.322,,,
Trial,flow.Sequence,1_3_2,2022-05-03T13:17:47.139Z,,,,,,,,,,,,,,,,,,,,,,,,,,,,,,,4925.743000000002,,completion,,,,,,,,,1,,,,,,,,S,O,I,,67452.29999995232,67450.5,62499.779,62519.89999997616,62524.757,67454.322,,,
Sounds,html.Screen,1_3_3_0,2022-05-03T13:17:51.366Z,,,,,,,,,,,,,,,,,,,,,,,,,,,,,,,4248.528999999995,,timeout,,,,,,,,,1,,,,,,,,S,I,O,,71679.5,71677.873,67429.344,67452.59999990463,67454.322,71702.851,,,
Judgement,html.Screen,1_3_3_1,2022-05-03T13:17:52.236Z,,,,,,,,,,,,,,,,,,,,,,,,,,,,false,1,,843.9489999523212,,response,,,,,,,,,1,,2,click #choice-2,,,,,S,I,O,,72548.89999997616,72546.79999995232,71677.873,71679.59999990463,71702.851,72558.862,,,
Trial,flow.Sequence,1_3_3,2022-05-03T13:17:52.236Z,,,,,,,,,,,,,,,,,,,,,,,,,,,,,,,5092.477999952316,,completion,,,,,,,,,1,,,,,,,,S,I,O,,72549.29999995232,72546.79999995232,67429.344,67452.39999997616,67454.322,72558.862,,,
Sounds,html.Screen,1_3_4_0,2022-05-03T13:17:56.470Z,,,,,,,,,,,,,,,,,,,,,,,,,,,,,,,4248.302000000011,,timeout,,,,,,,,,3,,,,,,,,I,O,S,,76783.5,76782.186,72533.884,72549.5,72558.862,76807.164,,,
Judgement,html.Screen,1_3_4_1,2022-05-03T13:17:57.332Z,,,,,,,,,,,,,,,,,,,,,,,,,,,,true,3,,836.5359999284701,,response,,,,,,,,,3,,3,click #choice-3,,,,,I,O,S,,77645.79999995232,77643.69999992847,76782.186,76783.59999990463,76807.164,77664.779,,,
Trial,flow.Sequence,1_3_4,2022-05-03T13:17:57.333Z,,,,,,,,,,,,,,,,,,,,,,,,,,,,,,,5084.837999928481,,completion,,,,,,,,,3,,,,,,,,I,O,S,,77646,77643.69999992847,72533.884,72549.39999997616,72558.862,77664.779,,,
Sounds,html.Screen,1_3_5_0,2022-05-03T13:18:01.576Z,,,,,,,,,,,,,,,,,,,,,,,,,,,,,,,4248.404999999999,,timeout,,,,,,,,,2,,,,,,,,I,S,O,,81889.09999990463,81888.206,77639.801,77646.19999992847,77664.779,81913.184,,,
Judgement,html.Screen,1_3_5_1,2022-05-03T13:18:02.243Z,,,,,,,,,,,,,,,,,,,,,,,,,,,,true,2,,641.2159999761643,,response,,,,,,,,,2,,2,click #choice-2,,,,,I,S,O,,82556.29999995232,82554.39999997616,81888.206,81889.29999995232,81913.184,82595.427,,,
Trial,flow.Sequence,1_3_5,2022-05-03T13:18:02.243Z,,,,,,,,,,,,,,,,,,,,,,,,,,,,,,,4889.620999976163,,completion,,,,,,,,,2,,,,,,,,I,S,O,,82556.69999992847,82554.39999997616,77639.801,77646.19999992847,77664.779,82595.427,,,
Task,flow.Loop,1_3,2022-05-03T13:18:02.250Z,,,,,,,,,,,,,,,,,,,,,,,,,,,,,,,30200.05199997616,,completion,,,0.8333333333333334,,,,,,,,,,,,,,,,,,82563.19999992847,82554.39999997616,52329.37,52336.59999990463,52354.348,82595.427,,,
Trap,html.Screen,1_4,2022-05-03T13:18:02.251Z,,,,,,,,,,,,,,,,,,,,,,,,,,,,,,,NaN,,skipped,,,,,,,,,,,,,,,,,,,,,82564.69999992847,82554.39999997616,,82564.5,,82595.427,,,
Thanks,html.Screen,1_5,2022-05-03T13:18:05.787Z,,,,,,,,,,,,,,,,,,,,,,,,,,,,,,,3502.972999976162,,response,,,,,,,,,,,continue,click button,,,,,,,,,86100.5,86098.39999997616,82570.449,82564.79999995232,82595.427,89989.976,,,
Headphone screening,flow.Sequence,1,2022-05-03T13:18:05.787Z,,,,,,,,,,,,,,,,,,,,,,,,,,,,,,,70075.84999997616,,completion,,,,,,,,,,,,,,,,,,,,,86100.69999992847,86098.39999997616,15997.572,16023.599999904633,16022.55,89989.976,,,
Instructions,html.Page,2_0,2022-05-03T13:18:23.617Z,,,,,,,,,,,,,,,,,,,,,,,,,,,,,,,13939.823999952321,,form submission,,,,,,,,,,,,,,,,,,,,,103930.5,103929.79999995232,89964.998,89998.39999997616,89989.976,103946.973,,,
Holding screen,html.Screen,2_1_0_0,2022-05-03T13:18:33.610Z,,,,,,,,,,,,,,,,,,,,,,,,,,,,,,,9999.555000000008,,timeout,,,,,,,,,,,,,,,,,,,,,113923.09999990463,113921.55,103921.995,103930.79999995232,103946.973,113946.528,,,
screen,html.Screen,2_1_0_1_0,2022-05-03T13:18:34.707Z,,,,,,,,,,,,,,,,,53,,,,,,,,,,,,,,1071.4719999999943,,response,,,,99,,,,,,,Space,keypress(Space),,,,,,,,When -- ----- -- ------ - ------- --- ----------<br>------------- ------ ------ ---- ---- ------- ----- -- ----<br>-------- ------- -- ---------- --- - --- ----- ----- ----<br>---- --- --- ----- --- ---- ---- ------- ----- ---- -------<br>--- --- -- ----- -- --- ---- -- --- ---- -- ------ ------<br>--- ----- -- ----,115020.5,115018,113921.55,113923.19999992847,113946.528,115034.184,,0,When
screen,html.Screen,2_1_0_1_1,2022-05-03T13:18:35.096Z,,,,,,,,,,,,,,,,,53,,,,,,,,,,,,,,374.41599990463874,,response,,,,99,,,,,,,Space,keypress(Space),,,,,,,,---- it ----- -- ------ - ------- --- ----------<br>------------- ------ ------ ---- ---- ------- ----- -- ----<br>-------- ------- -- ---------- --- - --- ----- ----- ----<br>---- --- --- ----- --- ---- ---- ------- ----- ---- -------<br>--- --- -- ----- -- --- ---- -- --- ---- -- ------ ------<br>--- ----- -- ----,115409.29999995232,115408.59999990463,115009.206,115020.69999992847,115034.184,115434.056,,1,it
screen,html.Screen,2_1_0_1_2,2022-05-03T13:18:35.490Z,,,,,,,,,,,,,,,,,53,,,,,,,,,,,,,,368.7439999523194,,response,,,,99,,,,,,,Space,keypress(Space),,,,,,,,---- -- comes -- ------ - ------- --- ----------<br>------------- ------ ------ ---- ---- ------- ----- -- ----<br>-------- ------- -- ---------- --- - --- ----- ----- ----<br>---- --- --- ----- --- ---- ---- ------- ----- ---- -------<br>--- --- -- ----- -- --- ---- -- --- ---- -- ------ ------<br>--- ----- -- ----,115803.39999997616,115802.79999995232,115409.078,115409.39999997616,115434.056,115816.142,,2,comes
screen,html.Screen,2_1_0_1_3,2022-05-03T13:18:35.786Z,,,,,,,,,,,,,,,,,53,,,,,,,,,,,,,,282.1579999523092,,response,,,,99,,,,,,,Space,keypress(Space),,,,,,,,---- -- ----- to ------ - ------- --- ----------<br>------------- ------ ------ ---- ---- ------- ----- -- ----<br>-------- ------- -- ---------- --- - --- ----- ----- ----<br>---- --- --- ----- --- ---- ---- ------- ----- ---- -------<br>--- --- -- ----- -- --- ---- -- --- ---- -- ------ ------<br>--- ----- -- ----,116099,116098.29999995232,115791.164,115803.5,115816.142,116118.48,,3,to
screen,html.Screen,2_1_0_1_4,2022-05-03T13:18:36.003Z,,,,,,,,,,,,,,,,,53,,,,,,,,,,,,,,196.7199999284785,,response,,,,99,,,,,,,Space,keypress(Space),,,,,,,,---- -- ----- -- having - ------- --- ----------<br>------------- ------ ------ ---- ---- ------- ----- -- ----<br>-------- ------- -- ---------- --- - --- ----- ----- ----<br>---- --- --- ----- --- ---- ---- ------- ----- ---- -------<br>--- --- -- ----- -- --- ---- -- --- ---- -- ------ ------<br>--- ----- -- ----,116316.59999990463,116315.19999992847,116093.502,116099,116118.48,116321.068,,4,having
screen,html.Screen,2_1_0_1_5,2022-05-03T13:18:36.337Z,,,,,,,,,,,,,,,,,53,,,,,,,,,,,,,,329.1319999284751,,response,,,,99,,,,,,,Space,keypress(Space),,,,,,,,---- -- ----- -- ------ a ------- --- ----------<br>------------- ------ ------ ---- ---- ------- ----- -- ----<br>-------- ------- -- ---------- --- - --- ----- ----- ----<br>---- --- --- ----- --- ---- ---- ------- ----- ---- -------<br>--- --- -- ----- -- --- ---- -- --- ---- -- ------ ------<br>--- ----- -- ----,116650.79999995232,116650.19999992847,116296.09,116316.69999992847,116321.068,116672.813,,5,a
screen,html.Screen,2_1_0_1_6,2022-05-03T13:18:36.810Z,,,,,,,,,,,,,,,,,53,,,,,,,,,,,,,,450.3869999284798,,response,,,,99,,,,,,,Space,keypress(Space),,,,,,,,---- -- ----- -- ------ - lasting --- ----------<br>------------- ------ ------ ---- ---- ------- ----- -- ----<br>-------- ------- -- ---------- --- - --- ----- ----- ----<br>---- --- --- ----- --- ---- ---- ------- ----- ---- -------<br>--- --- -- ----- -- --- ---- -- --- ---- -- ------ ------<br>--- ----- -- ----,117123.79999995232,117123.19999992847,116647.835,116651,116672.813,117148.79,,6,lasting
screen,html.Screen,2_1_0_1_7,2022-05-03T13:18:37.135Z,,,,,,,,,,,,,,,,,53,,,,,,,,,,,,,,299.40999992848083,,response,,,,99,,,,,,,Space,keypress(Space),,,,,,,,---- -- ----- -- ------ - ------- and ----------<br>------------- ------ ------ ---- ---- ------- ----- -- ----<br>-------- ------- -- ---------- --- - --- ----- ----- ----<br>---- --- --- ----- --- ---- ---- ------- ----- ---- -------<br>--- --- -- ----- -- --- ---- -- --- ---- -- ------ ------<br>--- ----- -- ----,117448.79999995232,117448.19999992847,117123.812,117123.79999995232,117148.79,117450.932,,7,and
screen,html.Screen,2_1_0_1_8,2022-05-03T13:18:37.540Z,,,,,,,,,,,,,,,,,53,,,,,,,,,,,,,,401.3679999523156,,response,,,,99,,,,,,,Space,keypress(Space),,,,,,,,---- -- ----- -- ------ - ------- --- fulfilling<br>------------- ------ ------ ---- ---- ------- ----- -- ----<br>-------- ------- -- ---------- --- - --- ----- ----- ----<br>---- --- --- ----- --- ---- ---- ------- ----- ---- -------<br>--- --- -- ----- -- --- ---- -- --- ---- -- ------ ------<br>--- ----- -- ----,117852.89999997616,117852.29999995232,117425.954,117449,117450.932,117855.725,,8,fulfilling
screen,html.Screen,2_1_0_1_9,2022-05-03T13:18:37.963Z,,,,,,,,,,,,,,,,,53,,,,,,,,,,,,,,420.2749999999942,,response,,,,99,,,,,,,Space,keypress(Space),,,,,,,,"---- -- ----- -- ------ - ------- --- ----------<br>relationship, ------ ------ ---- ---- ------- ----- -- ----<br>-------- ------- -- ---------- --- - --- ----- ----- ----<br>---- --- --- ----- --- ---- ---- ------- ----- ---- -------<br>--- --- -- ----- -- --- ---- -- --- ---- -- ------ ------<br>--- ----- -- ----",118276.59999990463,118276,117830.747,117853.09999990463,117855.725,118280.573,,9,"relationship,"
screen,html.Screen,2_1_0_1_10,2022-05-03T13:18:38.397Z,,,,,,,,,,,,,,,,,53,,,,,,,,,,,,,,429.0269999046286,,response,,,,99,,,,,,,Space,keypress(Space),,,,,,,,---- -- ----- -- ------ - ------- --- ----------<br>------------- common ------ ---- ---- ------- ----- -- ----<br>-------- ------- -- ---------- --- - --- ----- ----- ----<br>---- --- --- ----- --- ---- ---- ------- ----- ---- -------<br>--- --- -- ----- -- --- ---- -- --- ---- -- ------ ------<br>--- ----- -- ----,118710.09999990463,118709.59999990463,118255.595,118276.69999992847,118280.573,118733.106,,10,common
screen,html.Screen,2_1_0_1_11,2022-05-03T13:18:38.741Z,,,,,,,,,,,,,,,,,53,,,,,,,,,,,,,,321.1939999523165,,response,,,,99,,,,,,,Space,keypress(Space),,,,,,,,---- -- ----- -- ------ - ------- --- ----------<br>------------- ------ wisdom ---- ---- ------- ----- -- ----<br>-------- ------- -- ---------- --- - --- ----- ----- ----<br>---- --- --- ----- --- ---- ---- ------- ----- ---- -------<br>--- --- -- ----- -- --- ---- -- --- ---- -- ------ ------<br>--- ----- -- ----,119054.89999997616,119054.29999995232,118708.128,118710.29999995232,118733.106,119060.589,,11,wisdom
screen,html.Screen,2_1_0_1_12,2022-05-03T13:18:39.067Z,,,,,,,,,,,,,,,,,53,,,,,,,,,,,,,,318.8109999761509,,response,,,,99,,,,,,,Space,keypress(Space),,,,,,,,---- -- ----- -- ------ - ------- --- ----------<br>------------- ------ ------ says ---- ------- ----- -- ----<br>-------- ------- -- ---------- --- - --- ----- ----- ----<br>---- --- --- ----- --- ---- ---- ------- ----- ---- -------<br>--- --- -- ----- -- --- ---- -- --- ---- -- ------ ------<br>--- ----- -- ----,119380.09999990463,119379.39999997616,119035.611,119055,119060.589,119388.409,,12,says
screen,html.Screen,2_1_0_1_13,2022-05-03T13:18:39.412Z,,,,,,,,,,,,,,,,,53,,,,,,,,,,,,,,335.89099995231663,,response,,,,99,,,,,,,Space,keypress(Space),,,,,,,,---- -- ----- -- ------ - ------- --- ----------<br>------------- ------ ------ ---- that ------- ----- -- ----<br>-------- ------- -- ---------- --- - --- ----- ----- ----<br>---- --- --- ----- --- ---- ---- ------- ----- ---- -------<br>--- --- -- ----- -- --- ---- -- --- ---- -- ------ ------<br>--- ----- -- ----,119725,119724.29999995232,119363.431,119380.29999995232,119388.409,119740.354,,13,that
screen,html.Screen,2_1_0_1_14,2022-05-03T13:18:39.737Z,,,,,,,,,,,,,,,,,53,,,,,,,,,,,,,,309.0459999761515,,response,,,,99,,,,,,,Space,keypress(Space),,,,,,,,---- -- ----- -- ------ - ------- --- ----------<br>------------- ------ ------ ---- ---- feeling ----- -- ----<br>-------- ------- -- ---------- --- - --- ----- ----- ----<br>---- --- --- ----- --- ---- ---- ------- ----- ---- -------<br>--- --- -- ----- -- --- ---- -- --- ---- -- ------ ------<br>--- ----- -- ----,120050,120049.39999997616,119715.376,119725.09999990463,119740.354,120067.194,,14,feeling
screen,html.Screen,2_1_0_1_15,2022-05-03T13:18:40.121Z,,,,,,,,,,,,,,,,,53,,,,,,,,,,,,,,366.705999976155,,response,,,,99,,,,,,,Space,keypress(Space),,,,,,,,---- -- ----- -- ------ - ------- --- ----------<br>------------- ------ ------ ---- ---- ------- close -- ----<br>-------- ------- -- ---------- --- - --- ----- ----- ----<br>---- --- --- ----- --- ---- ---- ------- ----- ---- -------<br>--- --- -- ----- -- --- ---- -- --- ---- -- ------ ------<br>--- ----- -- ----,120434.5,120433.89999997616,120042.216,120050.19999992847,120067.194,120444.381,,15,close
screen,html.Screen,2_1_0_1_16,2022-05-03T13:18:40.397Z,,,,,,,,,,,,,,,,,53,,,,,,,,,,,,,,265.0189999761642,,response,,,,99,,,,,,,Space,keypress(Space),,,,,,,,---- -- ----- -- ------ - ------- --- ----------<br>------------- ------ ------ ---- ---- ------- ----- to ----<br>-------- ------- -- ---------- --- - --- ----- ----- ----<br>---- --- --- ----- --- ---- ---- ------- ----- ---- -------<br>--- --- -- ----- -- --- ---- -- --- ---- -- ------ ------<br>--- ----- -- ----,120710.09999990463,120709.39999997616,120419.403,120434.59999990463,120444.381,120721.397,,16,to
screen,html.Screen,2_1_0_1_17,2022-05-03T13:18:40.781Z,,,,,,,,,,,,,,,,,53,,,,,,,,,,,,,,372.4029999523191,,response,,,,99,,,,,,,Space,keypress(Space),,,,,,,,---- -- ----- -- ------ - ------- --- ----------<br>------------- ------ ------ ---- ---- ------- ----- -- your<br>-------- ------- -- ---------- --- - --- ----- ----- ----<br>---- --- --- ----- --- ---- ---- ------- ----- ---- -------<br>--- --- -- ----- -- --- ---- -- --- ---- -- ------ ------<br>--- ----- -- ----,121094.29999995232,121093.79999995232,120696.419,120710.19999992847,120721.397,121098.659,,17,your
screen,html.Screen,2_1_0_1_18,2022-05-03T13:18:41.145Z,,,,,,,,,,,,,,,,,53,,,,,,,,,,,,,,359.64099995231663,,response,,,,99,,,,,,,Space,keypress(Space),,,,,,,,---- -- ----- -- ------ - ------- --- ----------<br>------------- ------ ------ ---- ---- ------- ----- -- ----<br>romantic ------- -- ---------- --- - --- ----- ----- ----<br>---- --- --- ----- --- ---- ---- ------- ----- ---- -------<br>--- --- -- ----- -- --- ---- -- --- ---- -- ------ ------<br>--- ----- -- ----,121458.89999997616,121458.29999995232,121073.681,121094.5,121098.659,121475.126,,18,romantic
screen,html.Screen,2_1_0_1_19,2022-05-03T13:18:41.480Z,,,,,,,,,,,,,,,,,53,,,,,,,,,,,,,,318.17399995231244,,response,,,,99,,,,,,,Space,keypress(Space),,,,,,,,---- -- ----- -- ------ - ------- --- ----------<br>------------- ------ ------ ---- ---- ------- ----- -- ----<br>-------- partner -- ---------- --- - --- ----- ----- ----<br>---- --- --- ----- --- ---- ---- ------- ----- ---- -------<br>--- --- -- ----- -- --- ---- -- --- ---- -- ------ ------<br>--- ----- -- ----,121793.89999997616,121793.29999995232,121450.148,121459.09999990463,121475.126,121802.539,,19,partner
screen,html.Screen,2_1_0_1_20,2022-05-03T13:18:41.815Z,,,,,,,,,,,,,,,,,53,,,,,,,,,,,,,,325.6609999284701,,response,,,,99,,,,,,,Space,keypress(Space),,,,,,,,---- -- ----- -- ------ - ------- --- ----------<br>------------- ------ ------ ---- ---- ------- ----- -- ----<br>-------- ------- is ---------- --- - --- ----- ----- ----<br>---- --- --- ----- --- ---- ---- ------- ----- ---- -------<br>--- --- -- ----- -- --- ---- -- --- ---- -- ------ ------<br>--- ----- -- ----,122129,122128.19999992847,121777.561,121794,121802.539,122129.85,,20,is
screen,html.Screen,2_1_0_1_21,2022-05-03T13:18:42.239Z,,,,,,,,,,,,,,,,,53,,,,,,,,,,,,,,422.1499999999942,,response,,,,99,,,,,,,Space,keypress(Space),,,,,,,,---- -- ----- -- ------ - ------- --- ----------<br>------------- ------ ------ ---- ---- ------- ----- -- ----<br>-------- ------- -- paramount. --- - --- ----- ----- ----<br>---- --- --- ----- --- ---- ---- ------- ----- ---- -------<br>--- --- -- ----- -- --- ---- -- --- ---- -- ------ ------<br>--- ----- -- ----,122552.59999990463,122552,122104.872,122129.19999992847,122129.85,122556.715,,21,paramount.
screen,html.Screen,2_1_0_1_22,2022-05-03T13:18:42.771Z,,,,,,,,,,,,,,,,,53,,,,,,,,,,,,,,527.3849999046361,,response,,,,99,,,,,,,Space,keypress(Space),,,,,,,,---- -- ----- -- ------ - ------- --- ----------<br>------------- ------ ------ ---- ---- ------- ----- -- ----<br>-------- ------- -- ---------- But - --- ----- ----- ----<br>---- --- --- ----- --- ---- ---- ------- ----- ---- -------<br>--- --- -- ----- -- --- ---- -- --- ---- -- ------ ------<br>--- ----- -- ----,123084.79999995232,123084.09999990463,122531.737,122552.69999992847,122556.715,123108.667,,22,But
screen,html.Screen,2_1_0_1_23,2022-05-03T13:18:43.126Z,,,,,,,,,,,,,,,,,53,,,,,,,,,,,,,,330.23299997615686,,response,,,,99,,,,,,,Space,keypress(Space),,,,,,,,---- -- ----- -- ------ - ------- --- ----------<br>------------- ------ ------ ---- ---- ------- ----- -- ----<br>-------- ------- -- ---------- --- a --- ----- ----- ----<br>---- --- --- ----- --- ---- ---- ------- ----- ---- -------<br>--- --- -- ----- -- --- ---- -- --- ---- -- ------ ------<br>--- ----- -- ----,123439.39999997616,123438.89999997616,123083.689,123085,123108.667,123461.271,,23,a
screen,html.Screen,2_1_0_1_24,2022-05-03T13:18:43.382Z,,,,,,,,,,,,,,,,,53,,,,,,,,,,,,,,233.62899997616478,,response,,,,99,,,,,,,Space,keypress(Space),,,,,,,,---- -- ----- -- ------ - ------- --- ----------<br>------------- ------ ------ ---- ---- ------- ----- -- ----<br>-------- ------- -- ---------- --- - new ----- ----- ----<br>---- --- --- ----- --- ---- ---- ------- ----- ---- -------<br>--- --- -- ----- -- --- ---- -- --- ---- -- ------ ------<br>--- ----- -- ----,123695.5,123694.89999997616,123436.293,123439.59999990463,123461.271,123714.679,,24,new
screen,html.Screen,2_1_0_1_25,2022-05-03T13:18:43.668Z,,,,,,,,,,,,,,,,,53,,,,,,,,,,,,,,266.2209999761544,,response,,,,99,,,,,,,Space,keypress(Space),,,,,,,,---- -- ----- -- ------ - ------- --- ----------<br>------------- ------ ------ ---- ---- ------- ----- -- ----<br>-------- ------- -- ---------- --- - --- study ----- ----<br>---- --- --- ----- --- ---- ---- ------- ----- ---- -------<br>--- --- -- ----- -- --- ---- -- --- ---- -- ------ ------<br>--- ----- -- ----,123981.5,123980.89999997616,123689.701,123695.69999992847,123714.679,123991.87,,25,study
screen,html.Screen,2_1_0_1_26,2022-05-03T13:18:43.904Z,,,,,,,,,,,,,,,,,53,,,,,,,,,,,,,,225.42999995232094,,response,,,,99,,,,,,,Space,keypress(Space),,,,,,,,---- -- ----- -- ------ - ------- --- ----------<br>------------- ------ ------ ---- ---- ------- ----- -- ----<br>-------- ------- -- ---------- --- - --- ----- finds ----<br>---- --- --- ----- --- ---- ---- ------- ----- ---- -------<br>--- --- -- ----- -- --- ---- -- --- ---- -- ------ ------<br>--- ----- -- ----,124217.89999997616,124217.29999995232,123966.892,123981.5,123991.87,124218.381,,26,finds
screen,html.Screen,2_1_0_1_27,2022-05-03T13:18:44.407Z,,,,,,,,,,,,,,,,,53,,,,,,,,,,,,,,501.3189999284805,,response,,,,99,,,,,,,Space,keypress(Space),,,,,,,,---- -- ----- -- ------ - ------- --- ----------<br>------------- ------ ------ ---- ---- ------- ----- -- ----<br>-------- ------- -- ---------- --- - --- ----- ----- that<br>---- --- --- ----- --- ---- ---- ------- ----- ---- -------<br>--- --- -- ----- -- --- ---- -- --- ---- -- ------ ------<br>--- ----- -- ----,124720.29999995232,124719.69999992847,124193.403,124217.89999997616,124218.381,124744.724,,27,that
screen,html.Screen,2_1_0_1_28,2022-05-03T13:18:44.742Z,,,,,,,,,,,,,,,,,53,,,,,,,,,,,,,,310.3759999046306,,response,,,,99,,,,,,,Space,keypress(Space),,,,,,,,---- -- ----- -- ------ - ------- --- ----------<br>------------- ------ ------ ---- ---- ------- ----- -- ----<br>-------- ------- -- ---------- --- - --- ----- ----- ----<br>it's --- --- ----- --- ---- ---- ------- ----- ---- -------<br>--- --- -- ----- -- --- ---- -- --- ---- -- ------ ------<br>--- ----- -- ----,125055.79999995232,125055.09999990463,124719.746,124720.39999997616,124744.724,125071.257,,28,it's
screen,html.Screen,2_1_0_1_29,2022-05-03T13:18:44.988Z,,,,,,,,,,,,,,,,,53,,,,,,,,,,,,,,229.94299992847664,,response,,,,99,,,,,,,Space,keypress(Space),,,,,,,,---- -- ----- -- ------ - ------- --- ----------<br>------------- ------ ------ ---- ---- ------- ----- -- ----<br>-------- ------- -- ---------- --- - --- ----- ----- ----<br>---- not --- ----- --- ---- ---- ------- ----- ---- -------<br>--- --- -- ----- -- --- ---- -- --- ---- -- ------ ------<br>--- ----- -- ----,125301.79999995232,125301.19999992847,125046.279,125055.89999997616,125071.257,125324.523,,29,not
screen,html.Screen,2_1_0_1_30,2022-05-03T13:18:45.195Z,,,,,,,,,,,,,,,,,53,,,,,,,,,,,,,,183.67699992847338,,response,,,,99,,,,,,,Space,keypress(Space),,,,,,,,---- -- ----- -- ------ - ------- --- ----------<br>------------- ------ ------ ---- ---- ------- ----- -- ----<br>-------- ------- -- ---------- --- - --- ----- ----- ----<br>---- --- how ----- --- ---- ---- ------- ----- ---- -------<br>--- --- -- ----- -- --- ---- -- --- ---- -- ------ ------<br>--- ----- -- ----,125508.69999992847,125508.19999992847,125299.545,125301.89999997616,125324.523,125526.569,,30,how
screen,html.Screen,2_1_0_1_31,2022-05-03T13:18:45.441Z,,,,,,,,,,,,,,,,,53,,,,,,,,,,,,,,227.830999976155,,response,,,,99,,,,,,,Space,keypress(Space),,,,,,,,---- -- ----- -- ------ - ------- --- ----------<br>------------- ------ ------ ---- ---- ------- ----- -- ----<br>-------- ------- -- ---------- --- - --- ----- ----- ----<br>---- --- --- close --- ---- ---- ------- ----- ---- -------<br>--- --- -- ----- -- --- ---- -- --- ---- -- ------ ------<br>--- ----- -- ----,125755,125754.39999997616,125501.591,125508.89999997616,125526.569,125779.204,,31,close
screen,html.Screen,2_1_0_1_32,2022-05-03T13:18:45.727Z,,,,,,,,,,,,,,,,,53,,,,,,,,,,,,,,260.89599990463466,,response,,,,99,,,,,,,Space,keypress(Space),,,,,,,,---- -- ----- -- ------ - ------- --- ----------<br>------------- ------ ------ ---- ---- ------- ----- -- ----<br>-------- ------- -- ---------- --- - --- ----- ----- ----<br>---- --- --- ----- you ---- ---- ------- ----- ---- -------<br>--- --- -- ----- -- --- ---- -- --- ---- -- ------ ------<br>--- ----- -- ----,126040.59999990463,126040.09999990463,125754.226,125755,125779.204,126054.211,,32,you
screen,html.Screen,2_1_0_1_33,2022-05-03T13:18:45.964Z,,,,,,,,,,,,,,,,,53,,,,,,,,,,,,,,222.48899992847873,,response,,,,99,,,,,,,Space,keypress(Space),,,,,,,,---- -- ----- -- ------ - ------- --- ----------<br>------------- ------ ------ ---- ---- ------- ----- -- ----<br>-------- ------- -- ---------- --- - --- ----- ----- ----<br>---- --- --- ----- --- feel ---- ------- ----- ---- -------<br>--- --- -- ----- -- --- ---- -- --- ---- -- ------ ------<br>--- ----- -- ----,126277.29999995232,126276.69999992847,126029.233,126040.69999992847,126054.211,126280.742,,33,feel
screen,html.Screen,2_1_0_1_34,2022-05-03T13:18:46.239Z,,,,,,,,,,,,,,,,,53,,,,,,,,,,,,,,271.75800000000163,,response,,,,99,,,,,,,Space,keypress(Space),,,,,,,,---- -- ----- -- ------ - ------- --- ----------<br>------------- ------ ------ ---- ---- ------- ----- -- ----<br>-------- ------- -- ---------- --- - --- ----- ----- ----<br>---- --- --- ----- --- ---- that ------- ----- ---- -------<br>--- --- -- ----- -- --- ---- -- --- ---- -- ------ ------<br>--- ----- -- ----,126553.09999990463,126552.5,126255.764,126277.39999997616,126280.742,126558.763,,34,that
screen,html.Screen,2_1_0_1_35,2022-05-03T13:18:46.555Z,,,,,,,,,,,,,,,,,53,,,,,,,,,,,,,,309.2369999999937,,response,,,,99,,,,,,,Space,keypress(Space),,,,,,,,---- -- ----- -- ------ - ------- --- ----------<br>------------- ------ ------ ---- ---- ------- ----- -- ----<br>-------- ------- -- ---------- --- - --- ----- ----- ----<br>---- --- --- ----- --- ---- ---- matters ----- ---- -------<br>--- --- -- ----- -- --- ---- -- --- ---- -- ------ ------<br>--- ----- -- ----,126868.5,126868,126533.785,126553.29999995232,126558.763,126883.643,,35,matters
screen,html.Screen,2_1_0_1_36,2022-05-03T13:18:46.919Z,,,,,,,,,,,,,,,,,53,,,,,,,,,,,,,,348.75699997616175,,response,,,,99,,,,,,,Space,keypress(Space),,,,,,,,"---- -- ----- -- ------ - ------- --- ----------<br>------------- ------ ------ ---- ---- ------- ----- -- ----<br>-------- ------- -- ---------- --- - --- ----- ----- ----<br>---- --- --- ----- --- ---- ---- ------- most, ---- -------<br>--- --- -- ----- -- --- ---- -- --- ---- -- ------ ------<br>--- ----- -- ----",127233.09999990463,127232.39999997616,126858.665,126868.69999992847,126883.643,127235.254,,36,"most,"
screen,html.Screen,2_1_0_1_37,2022-05-03T13:18:47.412Z,,,,,,,,,,,,,,,,,53,,,,,,,,,,,,,,489.84599990463175,,response,,,,99,,,,,,,Space,keypress(Space),,,,,,,,---- -- ----- -- ------ - ------- --- ----------<br>------------- ------ ------ ---- ---- ------- ----- -- ----<br>-------- ------- -- ---------- --- - --- ----- ----- ----<br>---- --- --- ----- --- ---- ---- ------- ----- it's -------<br>--- --- -- ----- -- --- ---- -- --- ---- -- ------ ------<br>--- ----- -- ----,127725.89999997616,127725.09999990463,127210.276,127233.19999992847,127235.254,127737.081,,37,it's
screen,html.Screen,2_1_0_1_38,2022-05-03T13:18:47.648Z,,,,,,,,,,,,,,,,,53,,,,,,,,,,,,,,224.51899990462698,,response,,,,99,,,,,,,Space,keypress(Space),,,,,,,,---- -- ----- -- ------ - ------- --- ----------<br>------------- ------ ------ ---- ---- ------- ----- -- ----<br>-------- ------- -- ---------- --- - --- ----- ----- ----<br>---- --- --- ----- --- ---- ---- ------- ----- ---- whether<br>--- --- -- ----- -- --- ---- -- --- ---- -- ------ ------<br>--- ----- -- ----,127962.19999992847,127961.59999990463,127712.103,127726,127737.081,127964.472,,38,whether
screen,html.Screen,2_1_0_1_39,2022-05-03T13:18:47.905Z,,,,,,,,,,,,,,,,,53,,,,,,,,,,,,,,253.327999952322,,response,,,,99,,,,,,,Space,keypress(Space),,,,,,,,---- -- ----- -- ------ - ------- --- ----------<br>------------- ------ ------ ---- ---- ------- ----- -- ----<br>-------- ------- -- ---------- --- - --- ----- ----- ----<br>---- --- --- ----- --- ---- ---- ------- ----- ---- -------<br>you --- -- ----- -- --- ---- -- --- ---- -- ------ ------<br>--- ----- -- ----,128218.39999997616,128217.79999995232,127939.494,127962.29999995232,127964.472,128242.51,,39,you
screen,html.Screen,2_1_0_1_40,2022-05-03T13:18:48.180Z,,,,,,,,,,,,,,,,,53,,,,,,,,,,,,,,250.99000000000524,,response,,,,99,,,,,,,Space,keypress(Space),,,,,,,,---- -- ----- -- ------ - ------- --- ----------<br>------------- ------ ------ ---- ---- ------- ----- -- ----<br>-------- ------- -- ---------- --- - --- ----- ----- ----<br>---- --- --- ----- --- ---- ---- ------- ----- ---- -------<br>--- are -- ----- -- --- ---- -- --- ---- -- ------ ------<br>--- ----- -- ----,128494.09999990463,128493.5,128217.532,128218.5,128242.51,128495.469,,40,are
screen,html.Screen,2_1_0_1_41,2022-05-03T13:18:48.447Z,,,,,,,,,,,,,,,,,53,,,,,,,,,,,,,,264.33099995231896,,response,,,,99,,,,,,,Space,keypress(Space),,,,,,,,---- -- ----- -- ------ - ------- --- ----------<br>------------- ------ ------ ---- ---- ------- ----- -- ----<br>-------- ------- -- ---------- --- - --- ----- ----- ----<br>---- --- --- ----- --- ---- ---- ------- ----- ---- -------<br>--- --- as ----- -- --- ---- -- --- ---- -- ------ ------<br>--- ----- -- ----,128760.39999997616,128759.79999995232,128470.491,128494.29999995232,128495.469,128770.401,,41,as
screen,html.Screen,2_1_0_1_42,2022-05-03T13:18:48.722Z,,,,,,,,,,,,,,,,,53,,,,,,,,,,,,,,265.099000000002,,response,,,,99,,,,,,,Space,keypress(Space),,,,,,,,---- -- ----- -- ------ - ------- --- ----------<br>------------- ------ ------ ---- ---- ------- ----- -- ----<br>-------- ------- -- ---------- --- - --- ----- ----- ----<br>---- --- --- ----- --- ---- ---- ------- ----- ---- -------<br>--- --- -- close -- --- ---- -- --- ---- -- ------ ------<br>--- ----- -- ----,129036.09999990463,129035.5,128745.423,128760.5,128770.401,129047.133,,42,close
screen,html.Screen,2_1_0_1_43,2022-05-03T13:18:49.018Z,,,,,,,,,,,,,,,,,53,,,,,,,,,,,,,,283.96699990463094,,response,,,,99,,,,,,,Space,keypress(Space),,,,,,,,---- -- ----- -- ------ - ------- --- ----------<br>------------- ------ ------ ---- ---- ------- ----- -- ----<br>-------- ------- -- ---------- --- - --- ----- ----- ----<br>---- --- --- ----- --- ---- ---- ------- ----- ---- -------<br>--- --- -- ----- as --- ---- -- --- ---- -- ------ ------<br>--- ----- -- ----,129331.79999995232,129331.09999990463,129022.155,129036.19999992847,129047.133,129348.563,,43,as
screen,html.Screen,2_1_0_1_44,2022-05-03T13:18:49.284Z,,,,,,,,,,,,,,,,,53,,,,,,,,,,,,,,248.63699992847978,,response,,,,99,,,,,,,Space,keypress(Space),,,,,,,,---- -- ----- -- ------ - ------- --- ----------<br>------------- ------ ------ ---- ---- ------- ----- -- ----<br>-------- ------- -- ---------- --- - --- ----- ----- ----<br>---- --- --- ----- --- ---- ---- ------- ----- ---- -------<br>--- --- -- ----- -- you ---- -- --- ---- -- ------ ------<br>--- ----- -- ----,129597.79999995232,129597.19999992847,129323.585,129331.79999995232,129348.563,129600.293,,44,you
screen,html.Screen,2_1_0_1_45,2022-05-03T13:18:49.550Z,,,,,,,,,,,,,,,,,53,,,,,,,,,,,,,,262.9069999284693,,response,,,,99,,,,,,,Space,keypress(Space),,,,,,,,---- -- ----- -- ------ - ------- --- ----------<br>------------- ------ ------ ---- ---- ------- ----- -- ----<br>-------- ------- -- ---------- --- - --- ----- ----- ----<br>---- --- --- ----- --- ---- ---- ------- ----- ---- -------<br>--- --- -- ----- -- --- want -- --- ---- -- ------ ------<br>--- ----- -- ----,129863.79999995232,129863.19999992847,129575.315,129597.89999997616,129600.293,129877.148,,45,want
screen,html.Screen,2_1_0_1_46,2022-05-03T13:18:49.816Z,,,,,,,,,,,,,,,,,53,,,,,,,,,,,,,,252.05199992847338,,response,,,,99,,,,,,,Space,keypress(Space),,,,,,,,---- -- ----- -- ------ - ------- --- ----------<br>------------- ------ ------ ---- ---- ------- ----- -- ----<br>-------- ------- -- ---------- --- - --- ----- ----- ----<br>---- --- --- ----- --- ---- ---- ------- ----- ---- -------<br>--- --- -- ----- -- --- ---- to --- ---- -- ------ ------<br>--- ----- -- ----,130129.79999995232,130129.19999992847,129852.17,129863.89999997616,129877.148,130153.786,,46,to
screen,html.Screen,2_1_0_1_47,2022-05-03T13:18:50.082Z,,,,,,,,,,,,,,,,,53,,,,,,,,,,,,,,241.5139999523235,,response,,,,99,,,,,,,Space,keypress(Space),,,,,,,,"---- -- ----- -- ------ - ------- --- ----------<br>------------- ------ ------ ---- ---- ------- ----- -- ----<br>-------- ------- -- ---------- --- - --- ----- ----- ----<br>---- --- --- ----- --- ---- ---- ------- ----- ---- -------<br>--- --- -- ----- -- --- ---- -- be, ---- -- ------ ------<br>--- ----- -- ----",130395.89999997616,130395.29999995232,130128.808,130129.89999997616,130153.786,130405.293,,47,"be,"
screen,html.Screen,2_1_0_1_48,2022-05-03T13:18:50.457Z,,,,,,,,,,,,,,,,,53,,,,,,,,,,,,,,364.50699995231116,,response,,,,99,,,,,,,Space,keypress(Space),,,,,,,,---- -- ----- -- ------ - ------- --- ----------<br>------------- ------ ------ ---- ---- ------- ----- -- ----<br>-------- ------- -- ---------- --- - --- ----- ----- ----<br>---- --- --- ----- --- ---- ---- ------- ----- ---- -------<br>--- --- -- ----- -- --- ---- -- --- even -- ------ ------<br>--- ----- -- ----,130770.29999995232,130769.79999995232,130380.315,130396,130405.293,130781.863,,48,even
screen,html.Screen,2_1_0_1_49,2022-05-03T13:18:50.851Z,,,,,,,,,,,,,,,,,53,,,,,,,,,,,,,,382.236999904635,,response,,,,99,,,,,,,Space,keypress(Space),,,,,,,,---- -- ----- -- ------ - ------- --- ----------<br>------------- ------ ------ ---- ---- ------- ----- -- ----<br>-------- ------- -- ---------- --- - --- ----- ----- ----<br>---- --- --- ----- --- ---- ---- ------- ----- ---- -------<br>--- --- -- ----- -- --- ---- -- --- ---- if ------ ------<br>--- ----- -- ----,131164.79999995232,131164.09999990463,130756.885,130770.39999997616,130781.863,131183.237,,49,if
screen,html.Screen,2_1_0_1_50,2022-05-03T13:18:51.156Z,,,,,,,,,,,,,,,,,53,,,,,,,,,,,,,,286.16299997616443,,response,,,,99,,,,,,,Space,keypress(Space),,,,,,,,---- -- ----- -- ------ - ------- --- ----------<br>------------- ------ ------ ---- ---- ------- ----- -- ----<br>-------- ------- -- ---------- --- - --- ----- ----- ----<br>---- --- --- ----- --- ---- ---- ------- ----- ---- -------<br>--- --- -- ----- -- --- ---- -- --- ---- -- that's ------<br>--- ----- -- ----,131470,131469.39999997616,131158.259,131164.79999995232,131183.237,131485.57,,50,that's
screen,html.Screen,2_1_0_1_51,2022-05-03T13:18:51.455Z,,,,,,,,,,,,,,,,,53,,,,,,,,,,,,,,282.5299999046256,,response,,,,99,,,,,,,Space,keypress(Space),,,,,,,,---- -- ----- -- ------ - ------- --- ----------<br>------------- ------ ------ ---- ---- ------- ----- -- ----<br>-------- ------- -- ---------- --- - --- ----- ----- ----<br>---- --- --- ----- --- ---- ---- ------- ----- ---- -------<br>--- --- -- ----- -- --- ---- -- --- ---- -- ------ really<br>--- ----- -- ----,131768.69999992847,131768.09999990463,131460.592,131470.09999990463,131485.57,131788.083,,51,really
screen,html.Screen,2_1_0_1_52,2022-05-03T13:18:51.876Z,,,,,,,,,,,,,,,,,53,,,,,,,,,,,,,,400.716999952303,,response,,,,99,,,,,,,Space,keypress(Space),,,,,,,,---- -- ----- -- ------ - ------- --- ----------<br>------------- ------ ------ ---- ---- ------- ----- -- ----<br>-------- ------- -- ---------- --- - --- ----- ----- ----<br>---- --- --- ----- --- ---- ---- ------- ----- ---- -------<br>--- --- -- ----- -- --- ---- -- --- ---- -- ------ ------<br>not ----- -- ----,132189.39999997616,132188.79999995232,131763.105,131768.89999997616,131788.083,132214.788,,52,not
screen,html.Screen,2_1_0_1_53,2022-05-03T13:18:52.250Z,,,,,,,,,,,,,,,,,53,,,,,,,,,,,,,,348.3119999046321,,response,,,,99,,,,,,,Space,keypress(Space),,,,,,,,---- -- ----- -- ------ - ------- --- ----------<br>------------- ------ ------ ---- ---- ------- ----- -- ----<br>-------- ------- -- ---------- --- - --- ----- ----- ----<br>---- --- --- ----- --- ---- ---- ------- ----- ---- -------<br>--- --- -- ----- -- --- ---- -- --- ---- -- ------ ------<br>--- close -- ----,132563.69999992847,132563.09999990463,132189.81,132189.5,132214.788,132566.536,,53,close
screen,html.Screen,2_1_0_1_54,2022-05-03T13:18:52.644Z,,,,,,,,,,,,,,,,,53,,,,,,,,,,,,,,390.7639999523235,,response,,,,99,,,,,,,Space,keypress(Space),,,,,,,,---- -- ----- -- ------ - ------- --- ----------<br>------------- ------ ------ ---- ---- ------- ----- -- ----<br>-------- ------- -- ---------- --- - --- ----- ----- ----<br>---- --- --- ----- --- ---- ---- ------- ----- ---- -------<br>--- --- -- ----- -- --- ---- -- --- ---- -- ------ ------<br>--- ----- at ----,132957.89999997616,132957.29999995232,132541.558,132563.89999997616,132566.536,132969.099,,54,at
screen,html.Screen,2_1_0_1_55,2022-05-03T13:18:53.029Z,,,,,,,,,,,,,,,,,53,,,,,,,,,,,,,,372.50099990464514,,response,,,,99,,,,,,,Space,keypress(Space),,,,,,,,---- -- ----- -- ------ - ------- --- ----------<br>------------- ------ ------ ---- ---- ------- ----- -- ----<br>-------- ------- -- ---------- --- - --- ----- ----- ----<br>---- --- --- ----- --- ---- ---- ------- ----- ---- -------<br>--- --- -- ----- -- --- ---- -- --- ---- -- ------ ------<br>--- ----- -- all.,133342.29999995232,133341.59999990463,132944.121,132958,132969.099,133346.213,,55,all.
Item 99,flow.Loop,2_1_0_1,2022-05-03T13:18:53.029Z,,,,,,,,,,,,,,,,,,,,,,,,,,,,,,,19395.071999904627,,completion,,,,,H,,,,,,,,,,,silence,,,,,133342.5,133341.59999990463,113921.55,113923.09999990463,113946.528,133346.213,,,
Question 1,html.Screen,2_1_0_2,2022-05-03T13:18:57.142Z,,,,,,,,,,,,,,,,,,,,,,,,,,,,true,FALSE,,4107.386999904644,,response,,,,99,H,,,,,,FALSE,click #choice-2,,,,silence,,,,,137455.89999997616,137453.59999990463,133321.235,133342.69999992847,133346.213,137475.342,,,
Question 2,html.Screen,2_1_0_3,2022-05-03T13:19:06.822Z,,,,,,,,,,,,,,,,,,,,,,,,,,,,true,TRUE,,9658.457999952312,,response,,,,99,H,,,,,,TRUE,click #choice-1,,,,silence,,,,,147136.09999990463,147133.79999995232,137450.364,137456.09999990463,137475.342,147156.625,,,
Item 99,flow.Sequence,2_1_0,2022-05-03T13:19:06.823Z,,,,,,,,,,,,,,,,,,,,,,,,,,,,,,,43186.82699995232,,completion,,,,,,,,,,,,,,,,,,,,,147136.29999995232,147133.79999995232,103921.995,103930.69999992847,103946.973,147156.625,,,
Holding screen,html.Screen,2_1_1_0,2022-05-03T13:19:16.818Z,,,,,,,,,,,,,,,,,,,,,,,,,,,,,,,9998.896999999997,,timeout,,,,,,,,,,,,,,,,,,,,,157132.19999992847,157130.544,147131.647,147136.5,147156.625,157155.522,,,
screen,html.Screen,2_1_1_1_0,2022-05-03T13:19:17.596Z,,,,,,,,,,,,,,,,,54,,,,,,,,,,,,,,753.6779999284772,,response,,,,100,,,,,,,Space,keypress(Space),,,,,,,,At --- ---- --- ------ ----- ------- ---- -- --- ------- --<br>------- ---------- ------ -- ----- -- ----- -- ---- ------<br>--- ----- --- --- ------ -------- ----- --- ------ ----- --<br>----- ----- ---------- --- --- ------ ------ ---- -- ------<br>------- --- ------ ----- --- ---- ------- -- ---- --- --<br>------- ------,157910,157909.19999992847,157130.544,157132.29999995232,157155.522,157911.764,,0,At
screen,html.Screen,2_1_1_1_1,2022-05-03T13:19:17.941Z,,,,,,,,,,,,,,,,,54,,,,,,,,,,,,,,341.93599992847885,,response,,,,100,,,,,,,Space,keypress(Space),,,,,,,,-- the ---- --- ------ ----- ------- ---- -- --- ------- --<br>------- ---------- ------ -- ----- -- ----- -- ---- ------<br>--- ----- --- --- ------ -------- ----- --- ------ ----- --<br>----- ----- ---------- --- --- ------ ------ ---- -- ------<br>------- --- ------ ----- --- ---- ------- -- ---- --- --<br>------- ------,158254.19999992847,158253.69999992847,157886.786,157910.09999990463,157911.764,158268.372,,1,the
screen,html.Screen,2_1_1_1_2,2022-05-03T13:19:18.207Z,,,,,,,,,,,,,,,,,54,,,,,,,,,,,,,,251.52799997615512,,response,,,,100,,,,,,,Space,keypress(Space),,,,,,,,-- --- time --- ------ ----- ------- ---- -- --- ------- --<br>------- ---------- ------ -- ----- -- ----- -- ---- ------<br>--- ----- --- --- ------ -------- ----- --- ------ ----- --<br>----- ----- ---------- --- --- ------ ------ ---- -- ------<br>------- --- ------ ----- --- ---- ------- -- ---- --- --<br>------- ------,158520.39999997616,158519.89999997616,158243.394,158254.39999997616,158268.372,158523.276,,2,time
screen,html.Screen,2_1_1_1_3,2022-05-03T13:19:18.433Z,,,,,,,,,,,,,,,,,54,,,,,,,,,,,,,,223.22399999998743,,response,,,,100,,,,,,,Space,keypress(Space),,,,,,,,-- --- ---- the ------ ----- ------- ---- -- --- ------- --<br>------- ---------- ------ -- ----- -- ----- -- ---- ------<br>--- ----- --- --- ------ -------- ----- --- ------ ----- --<br>----- ----- ---------- --- --- ------ ------ ---- -- ------<br>------- --- ------ ----- --- ---- ------- -- ---- --- --<br>------- ------,158747.09999990463,158746.5,158498.298,158520.59999990463,158523.276,158750.547,,3,the
screen,html.Screen,2_1_1_1_4,2022-05-03T13:19:18.650Z,,,,,,,,,,,,,,,,,54,,,,,,,,,,,,,,212.7529999523249,,response,,,,100,,,,,,,Space,keypress(Space),,,,,,,,-- --- ---- --- French ----- ------- ---- -- --- ------- --<br>------- ---------- ------ -- ----- -- ----- -- ---- ------<br>--- ----- --- --- ------ -------- ----- --- ------ ----- --<br>----- ----- ---------- --- --- ------ ------ ---- -- ------<br>------- --- ------ ----- --- ---- ------- -- ---- --- --<br>------- ------,158964,158963.29999995232,158725.569,158747.19999992847,158750.547,158977.056,,4,French
screen,html.Screen,2_1_1_1_5,2022-05-03T13:19:18.936Z,,,,,,,,,,,,,,,,,54,,,,,,,,,,,,,,272.04399990462116,,response,,,,100,,,,,,,Space,keypress(Space),,,,,,,,-- --- ---- --- ------ crown ------- ---- -- --- ------- --<br>------- ---------- ------ -- ----- -- ----- -- ---- ------<br>--- ----- --- --- ------ -------- ----- --- ------ ----- --<br>----- ----- ---------- --- --- ------ ------ ---- -- ------<br>------- --- ------ ----- --- ---- ------- -- ---- --- --<br>------- ------,159249.69999992847,159249.09999990463,158952.078,158964.09999990463,158977.056,159253.356,,5,crown
screen,html.Screen,2_1_1_1_6,2022-05-03T13:19:19.064Z,,,,,,,,,,,,,,,,,54,,,,,,,,,,,,,,123.84399992847466,,response,,,,100,,,,,,,Space,keypress(Space),,,,,,,,-- --- ---- --- ------ ----- secured ---- -- --- ------- --<br>------- ---------- ------ -- ----- -- ----- -- ---- ------<br>--- ----- --- --- ------ -------- ----- --- ------ ----- --<br>----- ----- ---------- --- --- ------ ------ ---- -- ------<br>------- --- ------ ----- --- ---- ------- -- ---- --- --<br>------- ------,159377.79999995232,159377.19999992847,159228.378,159249.89999997616,159253.356,159381.495,,6,secured
screen,html.Screen,2_1_1_1_7,2022-05-03T13:19:19.518Z,,,,,,,,,,,,,,,,,54,,,,,,,,,,,,,,449.1049999046372,,response,,,,100,,,,,,,Space,keypress(Space),,,,,,,,-- --- ---- --- ------ ----- ------- much -- --- ------- --<br>------- ---------- ------ -- ----- -- ----- -- ---- ------<br>--- ----- --- --- ------ -------- ----- --- ------ ----- --<br>----- ----- ---------- --- --- ------ ------ ---- -- ------<br>------- --- ------ ----- --- ---- ------- -- ---- --- --<br>------- ------,159831.19999992847,159830.59999990463,159356.517,159377.89999997616,159381.495,159856.314,,7,much
screen,html.Screen,2_1_1_1_8,2022-05-03T13:19:19.912Z,,,,,,,,,,,,,,,,,54,,,,,,,,,,,,,,368.48599995230325,,response,,,,100,,,,,,,Space,keypress(Space),,,,,,,,-- --- ---- --- ------ ----- ------- ---- of --- ------- --<br>------- ---------- ------ -- ----- -- ----- -- ---- ------<br>--- ----- --- --- ------ -------- ----- --- ------ ----- --<br>----- ----- ---------- --- --- ------ ------ ---- -- ------<br>------- --- ------ ----- --- ---- ------- -- ---- --- --<br>------- ------,160225.39999997616,160224.79999995232,159831.336,159831.39999997616,159856.314,160231.897,,8,of
screen,html.Screen,2_1_1_1_9,2022-05-03T13:19:20.148Z,,,,,,,,,,,,,,,,,54,,,,,,,,,,,,,,229.40299995231908,,response,,,,100,,,,,,,Space,keypress(Space),,,,,,,,-- --- ---- --- ------ ----- ------- ---- -- its ------- --<br>------- ---------- ------ -- ----- -- ----- -- ---- ------<br>--- ----- --- --- ------ -------- ----- --- ------ ----- --<br>----- ----- ---------- --- --- ------ ------ ---- -- ------<br>------- --- ------ ----- --- ---- ------- -- ---- --- --<br>------- ------,160461.89999997616,160461.29999995232,160206.919,160225.5,160231.897,160484.903,,9,its
screen,html.Screen,2_1_1_1_10,2022-05-03T13:19:20.355Z,,,,,,,,,,,,,,,,,54,,,,,,,,,,,,,,183.39699995232513,,response,,,,100,,,,,,,Space,keypress(Space),,,,,,,,-- --- ---- --- ------ ----- ------- ---- -- --- revenue --<br>------- ---------- ------ -- ----- -- ----- -- ---- ------<br>--- ----- --- --- ------ -------- ----- --- ------ ----- --<br>----- ----- ---------- --- --- ------ ------ ---- -- ------<br>------- --- ------ ----- --- ---- ------- -- ---- --- --<br>------- ------,160668.89999997616,160668.29999995232,160459.925,160469.19999992847,160484.903,160687.317,,10,revenue
screen,html.Screen,2_1_1_1_11,2022-05-03T13:19:20.740Z,,,,,,,,,,,,,,,,,54,,,,,,,,,,,,,,365.3829999284644,,response,,,,100,,,,,,,Space,keypress(Space),,,,,,,,-- --- ---- --- ------ ----- ------- ---- -- --- ------- by<br>------- ---------- ------ -- ----- -- ----- -- ---- ------<br>--- ----- --- --- ------ -------- ----- --- ------ ----- --<br>----- ----- ---------- --- --- ------ ------ ---- -- ------<br>------- --- ------ ----- --- ---- ------- -- ---- --- --<br>------- ------,161053.39999997616,161052.69999992847,160662.339,160669,160687.317,161063.72,,11,by
screen,html.Screen,2_1_1_1_12,2022-05-03T13:19:21.134Z,,,,,,,,,,,,,,,,,54,,,,,,,,,,,,,,383.0799999523151,,response,,,,100,,,,,,,Space,keypress(Space),,,,,,,,-- --- ---- --- ------ ----- ------- ---- -- --- ------- --<br>issuing ---------- ------ -- ----- -- ----- -- ---- ------<br>--- ----- --- --- ------ -------- ----- --- ------ ----- --<br>----- ----- ---------- --- --- ------ ------ ---- -- ------<br>------- --- ------ ----- --- ---- ------- -- ---- --- --<br>------- ------,161447.5,161446.79999995232,161038.742,161053.5,161063.72,161464.734,,12,issuing
screen,html.Screen,2_1_1_1_13,2022-05-03T13:19:21.420Z,,,,,,,,,,,,,,,,,54,,,,,,,,,,,,,,267.9659999284777,,response,,,,100,,,,,,,Space,keypress(Space),,,,,,,,-- --- ---- --- ------ ----- ------- ---- -- --- ------- --<br>------- government ------ -- ----- -- ----- -- ---- ------<br>--- ----- --- --- ------ -------- ----- --- ------ ----- --<br>----- ----- ---------- --- --- ------ ------ ---- -- ------<br>------- --- ------ ----- --- ---- ------- -- ---- --- --<br>------- ------,161733.29999995232,161732.69999992847,161439.756,161447.59999990463,161464.734,161742.099,,13,government
screen,html.Screen,2_1_1_1_14,2022-05-03T13:19:21.735Z,,,,,,,,,,,,,,,,,54,,,,,,,,,,,,,,306.00099990464514,,response,,,,100,,,,,,,Space,keypress(Space),,,,,,,,-- --- ---- --- ------ ----- ------- ---- -- --- ------- --<br>------- ---------- bonds. -- ----- -- ----- -- ---- ------<br>--- ----- --- --- ------ -------- ----- --- ------ ----- --<br>----- ----- ---------- --- --- ------ ------ ---- -- ------<br>------- --- ------ ----- --- ---- ------- -- ---- --- --<br>------- ------,162048.69999992847,162048.09999990463,161717.121,161733.39999997616,161742.099,162069.586,,14,bonds.
screen,html.Screen,2_1_1_1_15,2022-05-03T13:19:22.277Z,,,,,,,,,,,,,,,,,54,,,,,,,,,,,,,,520.4139999999898,,response,,,,100,,,,,,,Space,keypress(Space),,,,,,,,-- --- ---- --- ------ ----- ------- ---- -- --- ------- --<br>------- ---------- ------ In ----- -- ----- -- ---- ------<br>--- ----- --- --- ------ -------- ----- --- ------ ----- --<br>----- ----- ---------- --- --- ------ ------ ---- -- ------<br>------- --- ------ ----- --- ---- ------- -- ---- --- --<br>------- ------,162590.59999990463,162590,162044.608,162048.79999995232,162069.586,162595.998,,15,In
screen,html.Screen,2_1_1_1_16,2022-05-03T13:19:22.513Z,,,,,,,,,,,,,,,,,54,,,,,,,,,,,,,,230.60199990464025,,response,,,,100,,,,,,,Space,keypress(Space),,,,,,,,"-- --- ---- --- ------ ----- ------- ---- -- --- ------- --<br>------- ---------- ------ -- 1727, -- ----- -- ---- ------<br>--- ----- --- --- ------ -------- ----- --- ------ ----- --<br>----- ----- ---------- --- --- ------ ------ ---- -- ------<br>------- --- ------ ----- --- ---- ------- -- ---- --- --<br>------- ------",162827.19999992847,162826.59999990463,162571.02,162590.79999995232,162595.998,162848.023,,16,"1727,"
screen,html.Screen,2_1_1_1_17,2022-05-03T13:19:23.824Z,,,,,,,,,,,,,,,,,54,,,,,,,,,,,,,,1289.3769999761716,,response,,,,100,,,,,,,Space,keypress(Space),,,,,,,,-- --- ---- --- ------ ----- ------- ---- -- --- ------- --<br>------- ---------- ------ -- ----- in ----- -- ---- ------<br>--- ----- --- --- ------ -------- ----- --- ------ ----- --<br>----- ----- ---------- --- --- ------ ------ ---- -- ------<br>------- --- ------ ----- --- ---- ------- -- ---- --- --<br>------- ------,164138,164137.39999997616,162823.045,162827.29999995232,162848.023,164150.531,,17,in
screen,html.Screen,2_1_1_1_18,2022-05-03T13:19:24.051Z,,,,,,,,,,,,,,,,,54,,,,,,,,,,,,,,213.26899995232816,,response,,,,100,,,,,,,Space,keypress(Space),,,,,,,,-- --- ---- --- ------ ----- ------- ---- -- --- ------- --<br>------- ---------- ------ -- ----- -- order -- ---- ------<br>--- ----- --- --- ------ -------- ----- --- ------ ----- --<br>----- ----- ---------- --- --- ------ ------ ---- -- ------<br>------- --- ------ ----- --- ---- ------- -- ---- --- --<br>------- ------,164364.39999997616,164363.79999995232,164125.553,164138.09999990463,164150.531,164377.036,,18,order
screen,html.Screen,2_1_1_1_19,2022-05-03T13:19:24.327Z,,,,,,,,,,,,,,,,,54,,,,,,,,,,,,,,262.86399997616536,,response,,,,100,,,,,,,Space,keypress(Space),,,,,,,,-- --- ---- --- ------ ----- ------- ---- -- --- ------- --<br>------- ---------- ------ -- ----- -- ----- to ---- ------<br>--- ----- --- --- ------ -------- ----- --- ------ ----- --<br>----- ----- ---------- --- --- ------ ------ ---- -- ------<br>------- --- ------ ----- --- ---- ------- -- ---- --- --<br>------- ------,164640.5,164639.89999997616,164352.058,164364.59999990463,164377.036,164660.806,,19,to
screen,html.Screen,2_1_1_1_20,2022-05-03T13:19:24.583Z,,,,,,,,,,,,,,,,,54,,,,,,,,,,,,,,235.1939999999886,,response,,,,100,,,,,,,Space,keypress(Space),,,,,,,,-- --- ---- --- ------ ----- ------- ---- -- --- ------- --<br>------- ---------- ------ -- ----- -- ----- -- save ------<br>--- ----- --- --- ------ -------- ----- --- ------ ----- --<br>----- ----- ---------- --- --- ------ ------ ---- -- ------<br>------- --- ------ ----- --- ---- ------- -- ---- --- --<br>------- ------,164896.69999992847,164896,164635.828,164640.5,164660.806,164912.114,,20,save
screen,html.Screen,2_1_1_1_21,2022-05-03T13:19:24.967Z,,,,,,,,,,,,,,,,,54,,,,,,,,,,,,,,368.48599990463117,,response,,,,100,,,,,,,Space,keypress(Space),,,,,,,,"-- --- ---- --- ------ ----- ------- ---- -- --- ------- --<br>------- ---------- ------ -- ----- -- ----- -- ---- money,<br>--- ----- --- --- ------ -------- ----- --- ------ ----- --<br>----- ----- ---------- --- --- ------ ------ ---- -- ------<br>------- --- ------ ----- --- ---- ------- -- ---- --- --<br>------- ------",165281.19999992847,165280.59999990463,164887.136,164896.79999995232,164912.114,165288.607,,21,"money,"
screen,html.Screen,2_1_1_1_22,2022-05-03T13:19:25.381Z,,,,,,,,,,,,,,,,,54,,,,,,,,,,,,,,405.9929999046435,,response,,,,100,,,,,,,Space,keypress(Space),,,,,,,,-- --- ---- --- ------ ----- ------- ---- -- --- ------- --<br>------- ---------- ------ -- ----- -- ----- -- ---- ------<br>the ----- --- --- ------ -------- ----- --- ------ ----- --<br>----- ----- ---------- --- --- ------ ------ ---- -- ------<br>------- --- ------ ----- --- ---- ------- -- ---- --- --<br>------- ------,165695.09999990463,165694.59999990463,165263.629,165281.29999995232,165288.607,165715.014,,22,the
screen,html.Screen,2_1_1_1_23,2022-05-03T13:19:25.677Z,,,,,,,,,,,,,,,,,54,,,,,,,,,,,,,,275.18599992847885,,response,,,,100,,,,,,,Space,keypress(Space),,,,,,,,-- --- ---- --- ------ ----- ------- ---- -- --- ------- --<br>------- ---------- ------ -- ----- -- ----- -- ---- ------<br>--- state --- --- ------ -------- ----- --- ------ ----- --<br>----- ----- ---------- --- --- ------ ------ ---- -- ------<br>------- --- ------ ----- --- ---- ------- -- ---- --- --<br>------- ------,165990.79999995232,165990.19999992847,165690.036,165695.29999995232,165715.014,165992.387,,23,state
screen,html.Screen,2_1_1_1_24,2022-05-03T13:19:25.963Z,,,,,,,,,,,,,,,,,54,,,,,,,,,,,,,,283.6130000000121,,response,,,,100,,,,,,,Space,keypress(Space),,,,,,,,-- --- ---- --- ------ ----- ------- ---- -- --- ------- --<br>------- ---------- ------ -- ----- -- ----- -- ---- ------<br>--- ----- cut --- ------ -------- ----- --- ------ ----- --<br>----- ----- ---------- --- --- ------ ------ ---- -- ------<br>------- --- ------ ----- --- ---- ------- -- ---- --- --<br>------- ------,166276.59999990463,166276,165967.409,165990.89999997616,165992.387,166295.066,,24,cut
screen,html.Screen,2_1_1_1_25,2022-05-03T13:19:26.249Z,,,,,,,,,,,,,,,,,54,,,,,,,,,,,,,,266.73399995232467,,response,,,,100,,,,,,,Space,keypress(Space),,,,,,,,-- --- ---- --- ------ ----- ------- ---- -- --- ------- --<br>------- ---------- ------ -- ----- -- ----- -- ---- ------<br>--- ----- --- the ------ -------- ----- --- ------ ----- --<br>----- ----- ---------- --- --- ------ ------ ---- -- ------<br>------- --- ------ ----- --- ---- ------- -- ---- --- --<br>------- ------,166562.5,166561.79999995232,166270.088,166276.79999995232,166295.066,166571.9,,25,the
screen,html.Screen,2_1_1_1_26,2022-05-03T13:19:26.535Z,,,,,,,,,,,,,,,,,54,,,,,,,,,,,,,,275.8999999523221,,response,,,,100,,,,,,,Space,keypress(Space),,,,,,,,-- --- ---- --- ------ ----- ------- ---- -- --- ------- --<br>------- ---------- ------ -- ----- -- ----- -- ---- ------<br>--- ----- --- --- bonds' -------- ----- --- ------ ----- --<br>----- ----- ---------- --- --- ------ ------ ---- -- ------<br>------- --- ------ ----- --- ---- ------- -- ---- --- --<br>------- ------,166848.39999997616,166847.79999995232,166546.922,166562.5,166571.9,166873.492,,26,bonds'
screen,html.Screen,2_1_1_1_27,2022-05-03T13:19:26.958Z,,,,,,,,,,,,,,,,,54,,,,,,,,,,,,,,397.9079999761598,,response,,,,100,,,,,,,Space,keypress(Space),,,,,,,,-- --- ---- --- ------ ----- ------- ---- -- --- ------- --<br>------- ---------- ------ -- ----- -- ----- -- ---- ------<br>--- ----- --- --- ------ interest ----- --- ------ ----- --<br>----- ----- ---------- --- --- ------ ------ ---- -- ------<br>------- --- ------ ----- --- ---- ------- -- ---- --- --<br>------- ------,167272.09999990463,167271.39999997616,166848.514,166848.5,166873.492,167276.968,,27,interest
screen,html.Screen,2_1_1_1_28,2022-05-03T13:19:27.362Z,,,,,,,,,,,,,,,,,54,,,,,,,,,,,,,,398.5320000000065,,response,,,,100,,,,,,,Space,keypress(Space),,,,,,,,-- --- ---- --- ------ ----- ------- ---- -- --- ------- --<br>------- ---------- ------ -- ----- -- ----- -- ---- ------<br>--- ----- --- --- ------ -------- rate. --- ------ ----- --<br>----- ----- ---------- --- --- ------ ------ ---- -- ------<br>------- --- ------ ----- --- ---- ------- -- ---- --- --<br>------- ------,167676.19999992847,167675.5,167251.99,167272.19999992847,167276.968,167679.29,,28,rate.
screen,html.Screen,2_1_1_1_29,2022-05-03T13:19:27.885Z,,,,,,,,,,,,,,,,,54,,,,,,,,,,,,,,518.8099999046244,,response,,,,100,,,,,,,Space,keypress(Space),,,,,,,,-- --- ---- --- ------ ----- ------- ---- -- --- ------- --<br>------- ---------- ------ -- ----- -- ----- -- ---- ------<br>--- ----- --- --- ------ -------- ----- The ------ ----- --<br>----- ----- ---------- --- --- ------ ------ ---- -- ------<br>------- --- ------ ----- --- ---- ------- -- ---- --- --<br>------- ------,168198.59999990463,168198.09999990463,167654.312,167676.19999992847,167679.29,168204.122,,29,The
screen,html.Screen,2_1_1_1_30,2022-05-03T13:19:28.181Z,,,,,,,,,,,,,,,,,54,,,,,,,,,,,,,,289.47799990462954,,response,,,,100,,,,,,,Space,keypress(Space),,,,,,,,-- --- ---- --- ------ ----- ------- ---- -- --- ------- --<br>------- ---------- ------ -- ----- -- ----- -- ---- ------<br>--- ----- --- --- ------ -------- ----- --- market ----- --<br>----- ----- ---------- --- --- ------ ------ ---- -- ------<br>------- --- ------ ----- --- ---- ------- -- ---- --- --<br>------- ------,168494.19999992847,168493.59999990463,168179.144,168198.79999995232,168204.122,168506.788,,30,market
screen,html.Screen,2_1_1_1_31,2022-05-03T13:19:28.447Z,,,,,,,,,,,,,,,,,54,,,,,,,,,,,,,,252.8119999046321,,response,,,,100,,,,,,,Space,keypress(Space),,,,,,,,-- --- ---- --- ------ ----- ------- ---- -- --- ------- --<br>------- ---------- ------ -- ----- -- ----- -- ---- ------<br>--- ----- --- --- ------ -------- ----- --- ------ value --<br>----- ----- ---------- --- --- ------ ------ ---- -- ------<br>------- --- ------ ----- --- ---- ------- -- ---- --- --<br>------- ------,168760.29999995232,168759.59999990463,168481.81,168494.39999997616,168506.788,168784.999,,31,value
screen,html.Screen,2_1_1_1_32,2022-05-03T13:19:28.772Z,,,,,,,,,,,,,,,,,54,,,,,,,,,,,,,,300.0009999999893,,response,,,,100,,,,,,,Space,keypress(Space),,,,,,,,-- --- ---- --- ------ ----- ------- ---- -- --- ------- --<br>------- ---------- ------ -- ----- -- ----- -- ---- ------<br>--- ----- --- --- ------ -------- ----- --- ------ ----- of<br>----- ----- ---------- --- --- ------ ------ ---- -- ------<br>------- --- ------ ----- --- ---- ------- -- ---- --- --<br>------- ------,169085.59999990463,169085,168760.021,168760.39999997616,168784.999,169086.801,,32,of
screen,html.Screen,2_1_1_1_33,2022-05-03T13:19:29.127Z,,,,,,,,,,,,,,,,,54,,,,,,,,,,,,,,352.99899995230953,,response,,,,100,,,,,,,Space,keypress(Space),,,,,,,,-- --- ---- --- ------ ----- ------- ---- -- --- ------- --<br>------- ---------- ------ -- ----- -- ----- -- ---- ------<br>--- ----- --- --- ------ -------- ----- --- ------ ----- --<br>these ----- ---------- --- --- ------ ------ ---- -- ------<br>------- --- ------ ----- --- ---- ------- -- ---- --- --<br>------- ------,169440.39999997616,169439.79999995232,169061.823,169085.79999995232,169086.801,169463.365,,33,these
screen,html.Screen,2_1_1_1_34,2022-05-03T13:19:29.442Z,,,,,,,,,,,,,,,,,54,,,,,,,,,,,,,,291.7349999046419,,response,,,,100,,,,,,,Space,keypress(Space),,,,,,,,-- --- ---- --- ------ ----- ------- ---- -- --- ------- --<br>------- ---------- ------ -- ----- -- ----- -- ---- ------<br>--- ----- --- --- ------ -------- ----- --- ------ ----- --<br>----- bonds ---------- --- --- ------ ------ ---- -- ------<br>------- --- ------ ----- --- ---- ------- -- ---- --- --<br>------- ------,169755.79999995232,169755.09999990463,169438.387,169440.5,169463.365,169765.355,,34,bonds
screen,html.Screen,2_1_1_1_35,2022-05-03T13:19:30.694Z,,,,,,,,,,,,,,,,,54,,,,,,,,,,,,,,1241.5449999761477,,response,,,,100,,,,,,,Space,keypress(Space),,,,,,,,"-- --- ---- --- ------ ----- ------- ---- -- --- ------- --<br>------- ---------- ------ -- ----- -- ----- -- ---- ------<br>--- ----- --- --- ------ -------- ----- --- ------ ----- --<br>----- ----- plummeted, --- --- ------ ------ ---- -- ------<br>------- --- ------ ----- --- ---- ------- -- ---- --- --<br>------- ------",171007.5,171006.89999997616,169740.377,169755.89999997616,169765.355,171016.663,,35,"plummeted,"
screen,html.Screen,2_1_1_1_36,2022-05-03T13:19:31.058Z,,,,,,,,,,,,,,,,,54,,,,,,,,,,,,,,354.83699999999953,,response,,,,100,,,,,,,Space,keypress(Space),,,,,,,,-- --- ---- --- ------ ----- ------- ---- -- --- ------- --<br>------- ---------- ------ -- ----- -- ----- -- ---- ------<br>--- ----- --- --- ------ -------- ----- --- ------ ----- --<br>----- ----- ---------- and --- ------ ------ ---- -- ------<br>------- --- ------ ----- --- ---- ------- -- ---- --- --<br>------- ------,171372.19999992847,171371.5,170991.685,171007.59999990463,171016.663,171393.401,,36,and
screen,html.Screen,2_1_1_1_37,2022-05-03T13:19:31.334Z,,,,,,,,,,,,,,,,,54,,,,,,,,,,,,,,253.99899997614557,,response,,,,100,,,,,,,Space,keypress(Space),,,,,,,,-- --- ---- --- ------ ----- ------- ---- -- --- ------- --<br>------- ---------- ------ -- ----- -- ----- -- ---- ------<br>--- ----- --- --- ------ -------- ----- --- ------ ----- --<br>----- ----- ---------- --- the ------ ------ ---- -- ------<br>------- --- ------ ----- --- ---- ------- -- ---- --- --<br>------- ------,171648,171647.39999997616,171368.423,171372.29999995232,171393.401,171654,,37,the
screen,html.Screen,2_1_1_1_38,2022-05-03T13:19:31.611Z,,,,,,,,,,,,,,,,,54,,,,,,,,,,,,,,269.7999999523163,,response,,,,100,,,,,,,Space,keypress(Space),,,,,,,,-- --- ---- --- ------ ----- ------- ---- -- --- ------- --<br>------- ---------- ------ -- ----- -- ----- -- ---- ------<br>--- ----- --- --- ------ -------- ----- --- ------ ----- --<br>----- ----- ---------- --- --- market ------ ---- -- ------<br>------- --- ------ ----- --- ---- ------- -- ---- --- --<br>------- ------,171924.39999997616,171923.79999995232,171629.022,171648.09999990463,171654,171929.023,,38,market
screen,html.Screen,2_1_1_1_39,2022-05-03T13:19:32.251Z,,,,,,,,,,,,,,,,,54,,,,,,,,,,,,,,635.0769999046461,,response,,,,100,,,,,,,Space,keypress(Space),,,,,,,,-- --- ---- --- ------ ----- ------- ---- -- --- ------- --<br>------- ---------- ------ -- ----- -- ----- -- ---- ------<br>--- ----- --- --- ------ -------- ----- --- ------ ----- --<br>----- ----- ---------- --- --- ------ became ---- -- ------<br>------- --- ------ ----- --- ---- ------- -- ---- --- --<br>------- ------,172564.69999992847,172564.09999990463,171904.045,171924.5,171929.023,172580.324,,39,became
screen,html.Screen,2_1_1_1_40,2022-05-03T13:19:32.576Z,,,,,,,,,,,,,,,,,54,,,,,,,,,,,,,,308.97599995232304,,response,,,,100,,,,,,,Space,keypress(Space),,,,,,,,-- --- ---- --- ------ ----- ------- ---- -- --- ------- --<br>------- ---------- ------ -- ----- -- ----- -- ---- ------<br>--- ----- --- --- ------ -------- ----- --- ------ ----- --<br>----- ----- ---------- --- --- ------ ------ wary -- ------<br>------- --- ------ ----- --- ---- ------- -- ---- --- --<br>------- ------,172889.89999997616,172889.29999995232,172555.346,172564.89999997616,172580.324,172906.949,,40,wary
screen,html.Screen,2_1_1_1_41,2022-05-03T13:19:32.951Z,,,,,,,,,,,,,,,,,54,,,,,,,,,,,,,,356.85099995232304,,response,,,,100,,,,,,,Space,keypress(Space),,,,,,,,-- --- ---- --- ------ ----- ------- ---- -- --- ------- --<br>------- ---------- ------ -- ----- -- ----- -- ---- ------<br>--- ----- --- --- ------ -------- ----- --- ------ ----- --<br>----- ----- ---------- --- --- ------ ------ ---- of ------<br>------- --- ------ ----- --- ---- ------- -- ---- --- --<br>------- ------,173264.39999997616,173263.79999995232,172881.971,172890,172906.949,173286.112,,41,of
screen,html.Screen,2_1_1_1_42,2022-05-03T13:19:33.315Z,,,,,,,,,,,,,,,,,54,,,,,,,,,,,,,,342.3880000000063,,response,,,,100,,,,,,,Space,keypress(Space),,,,,,,,-- --- ---- --- ------ ----- ------- ---- -- --- ------- --<br>------- ---------- ------ -- ----- -- ----- -- ---- ------<br>--- ----- --- --- ------ -------- ----- --- ------ ----- --<br>----- ----- ---------- --- --- ------ ------ ---- -- French<br>------- --- ------ ----- --- ---- ------- -- ---- --- --<br>------- ------,173629.19999992847,173628.5,173261.134,173264.59999990463,173286.112,173637.998,,42,French
screen,html.Screen,2_1_1_1_43,2022-05-03T13:19:33.739Z,,,,,,,,,,,,,,,,,54,,,,,,,,,,,,,,414.4019999761658,,response,,,,100,,,,,,,Space,keypress(Space),,,,,,,,-- --- ---- --- ------ ----- ------- ---- -- --- ------- --<br>------- ---------- ------ -- ----- -- ----- -- ---- ------<br>--- ----- --- --- ------ -------- ----- --- ------ ----- --<br>----- ----- ---------- --- --- ------ ------ ---- -- ------<br>credit. --- ------ ----- --- ---- ------- -- ---- --- --<br>------- ------,174053,174052.39999997616,173613.02,173629.29999995232,173637.998,174065.26,,43,credit.
screen,html.Screen,2_1_1_1_44,2022-05-03T13:19:34.173Z,,,,,,,,,,,,,,,,,54,,,,,,,,,,,,,,420.83999990462326,,response,,,,100,,,,,,,Space,keypress(Space),,,,,,,,-- --- ---- --- ------ ----- ------- ---- -- --- ------- --<br>------- ---------- ------ -- ----- -- ----- -- ---- ------<br>--- ----- --- --- ------ -------- ----- --- ------ ----- --<br>----- ----- ---------- --- --- ------ ------ ---- -- ------<br>------- The ------ ----- --- ---- ------- -- ---- --- --<br>------- ------,174486.69999992847,174486.09999990463,174040.282,174053.09999990463,174065.26,174492.317,,44,The
screen,html.Screen,2_1_1_1_45,2022-05-03T13:19:34.469Z,,,,,,,,,,,,,,,,,54,,,,,,,,,,,,,,289.4829999523063,,response,,,,100,,,,,,,Space,keypress(Space),,,,,,,,-- --- ---- --- ------ ----- ------- ---- -- --- ------- --<br>------- ---------- ------ -- ----- -- ----- -- ---- ------<br>--- ----- --- --- ------ -------- ----- --- ------ ----- --<br>----- ----- ---------- --- --- ------ ------ ---- -- ------<br>------- --- French ----- --- ---- ------- -- ---- --- --<br>------- ------,174782.39999997616,174781.79999995232,174467.339,174486.79999995232,174492.317,174794.998,,45,French
screen,html.Screen,2_1_1_1_46,2022-05-03T13:19:34.833Z,,,,,,,,,,,,,,,,,54,,,,,,,,,,,,,,351.5020000000077,,response,,,,100,,,,,,,Space,keypress(Space),,,,,,,,-- --- ---- --- ------ ----- ------- ---- -- --- ------- --<br>------- ---------- ------ -- ----- -- ----- -- ---- ------<br>--- ----- --- --- ------ -------- ----- --- ------ ----- --<br>----- ----- ---------- --- --- ------ ------ ---- -- ------<br>------- --- ------ state --- ---- ------- -- ---- --- --<br>------- ------,175147.09999990463,175146.5,174770.02,174782.59999990463,174794.998,175172.605,,46,state
screen,html.Screen,2_1_1_1_47,2022-05-03T13:19:35.178Z,,,,,,,,,,,,,,,,,54,,,,,,,,,,,,,,318.8949999999895,,response,,,,100,,,,,,,Space,keypress(Space),,,,,,,,-- --- ---- --- ------ ----- ------- ---- -- --- ------- --<br>------- ---------- ------ -- ----- -- ----- -- ---- ------<br>--- ----- --- --- ------ -------- ----- --- ------ ----- --<br>----- ----- ---------- --- --- ------ ------ ---- -- ------<br>------- --- ------ ----- was ---- ------- -- ---- --- --<br>------- ------,175492.09999990463,175491.5,175147.627,175147.19999992847,175172.605,175499.35,,47,was
screen,html.Screen,2_1_1_1_48,2022-05-03T13:19:35.454Z,,,,,,,,,,,,,,,,,54,,,,,,,,,,,,,,268.24999990462675,,response,,,,100,,,,,,,Space,keypress(Space),,,,,,,,-- --- ---- --- ------ ----- ------- ---- -- --- ------- --<br>------- ---------- ------ -- ----- -- ----- -- ---- ------<br>--- ----- --- --- ------ -------- ----- --- ------ ----- --<br>----- ----- ---------- --- --- ------ ------ ---- -- ------<br>------- --- ------ ----- --- left ------- -- ---- --- --<br>------- ------,175768.19999992847,175767.59999990463,175474.372,175492.29999995232,175499.35,175776.734,,48,left
screen,html.Screen,2_1_1_1_49,2022-05-03T13:19:35.819Z,,,,,,,,,,,,,,,,,54,,,,,,,,,,,,,,355.56599995231954,,response,,,,100,,,,,,,Space,keypress(Space),,,,,,,,-- --- ---- --- ------ ----- ------- ---- -- --- ------- --<br>------- ---------- ------ -- ----- -- ----- -- ---- ------<br>--- ----- --- --- ------ -------- ----- --- ------ ----- --<br>----- ----- ---------- --- --- ------ ------ ---- -- ------<br>------- --- ------ ----- --- ---- without -- ---- --- --<br>------- ------,176132.89999997616,176132.29999995232,175751.756,175768.29999995232,175776.734,176153.635,,49,without
screen,html.Screen,2_1_1_1_50,2022-05-03T13:19:36.184Z,,,,,,,,,,,,,,,,,54,,,,,,,,,,,,,,343.46499990462326,,response,,,,100,,,,,,,Space,keypress(Space),,,,,,,,-- --- ---- --- ------ ----- ------- ---- -- --- ------- --<br>------- ---------- ------ -- ----- -- ----- -- ---- ------<br>--- ----- --- --- ------ -------- ----- --- ------ ----- --<br>----- ----- ---------- --- --- ------ ------ ---- -- ------<br>------- --- ------ ----- --- ---- ------- an ---- --- --<br>------- ------,176497.59999990463,176497.09999990463,176128.657,176133,176153.635,176505.237,,50,an
screen,html.Screen,2_1_1_1_51,2022-05-03T13:19:36.489Z,,,,,,,,,,,,,,,,,54,,,,,,,,,,,,,,297.36299990463885,,response,,,,100,,,,,,,Space,keypress(Space),,,,,,,,-- --- ---- --- ------ ----- ------- ---- -- --- ------- --<br>------- ---------- ------ -- ----- -- ----- -- ---- ------<br>--- ----- --- --- ------ -------- ----- --- ------ ----- --<br>----- ----- ---------- --- --- ------ ------ ---- -- ------<br>------- --- ------ ----- --- ---- ------- -- easy --- --<br>------- ------,176803.19999992847,176802.59999990463,176480.259,176497.79999995232,176505.237,176807.56,,51,easy
screen,html.Screen,2_1_1_1_52,2022-05-03T13:19:36.788Z,,,,,,,,,,,,,,,,,54,,,,,,,,,,,,,,293.7399999523186,,response,,,,100,,,,,,,Space,keypress(Space),,,,,,,,-- --- ---- --- ------ ----- ------- ---- -- --- ------- --<br>------- ---------- ------ -- ----- -- ----- -- ---- ------<br>--- ----- --- --- ------ -------- ----- --- ------ ----- --<br>----- ----- ---------- --- --- ------ ------ ---- -- ------<br>------- --- ------ ----- --- ---- ------- -- ---- way --<br>------- ------,177101.89999997616,177101.29999995232,176782.582,176803.29999995232,176807.56,177109.715,,52,way
screen,html.Screen,2_1_1_1_53,2022-05-03T13:19:37.150Z,,,,,,,,,,,,,,,,,54,,,,,,,,,,,,,,353.0849999523198,,response,,,,100,,,,,,,Space,keypress(Space),,,,,,,,-- --- ---- --- ------ ----- ------- ---- -- --- ------- --<br>------- ---------- ------ -- ----- -- ----- -- ---- ------<br>--- ----- --- --- ------ -------- ----- --- ------ ----- --<br>----- ----- ---------- --- --- ------ ------ ---- -- ------<br>------- --- ------ ----- --- ---- ------- -- ---- --- of<br>------- ------,177463.39999997616,177462.79999995232,177084.737,177102.09999990463,177109.715,177486.372,,53,of
screen,html.Screen,2_1_1_1_54,2022-05-03T13:19:37.593Z,,,,,,,,,,,,,,,,,54,,,,,,,,,,,,,,420.127999999997,,response,,,,100,,,,,,,Space,keypress(Space),,,,,,,,-- --- ---- --- ------ ----- ------- ---- -- --- ------- --<br>------- ---------- ------ -- ----- -- ----- -- ---- ------<br>--- ----- --- --- ------ -------- ----- --- ------ ----- --<br>----- ----- ---------- --- --- ------ ------ ---- -- ------<br>------- --- ------ ----- --- ---- ------- -- ---- --- --<br>raising ------,177907,177906.5,177461.394,177463.5,177486.372,177913.173,,54,raising
screen,html.Screen,2_1_1_1_55,2022-05-03T13:19:38.215Z,,,,,,,,,,,,,,,,,54,,,,,,,,,,,,,,615.0269999284646,,response,,,,100,,,,,,,Space,keypress(Space),,,,,,,,-- --- ---- --- ------ ----- ------- ---- -- --- ------- --<br>------- ---------- ------ -- ----- -- ----- -- ---- ------<br>--- ----- --- --- ------ -------- ----- --- ------ ----- --<br>----- ----- ---------- --- --- ------ ------ ---- -- ------<br>------- --- ------ ----- --- ---- ------- -- ---- --- --<br>------- money.,178528.69999992847,178528.19999992847,177888.195,177907.19999992847,177913.173,178540.193,,55,money.
Item 100,flow.Loop,2_1_1_1,2022-05-03T13:19:38.215Z,,,,,,,,,,,,,,,,,,,,,,,,,,,,,,,21372.677999928477,,completion,,,,,H,,,,,,,,,,,silence,,,,,178528.89999997616,178528.19999992847,157130.544,157132.29999995232,157155.522,178540.193,,,
Question 1,html.Screen,2_1_1_2,2022-05-03T13:19:41.037Z,,,,,,,,,,,,,,,,,,,,,,,,,,,,true,TRUE,,2808.206999976159,,response,,,,100,H,,,,,,TRUE,click #choice-1,,,,silence,,,,,181350.79999995232,181348.39999997616,178515.215,178529.09999990463,178540.193,181361.352,,,
Question 2,html.Screen,2_1_1_3,2022-05-03T13:19:43.264Z,,,,,,,,,,,,,,,,,,,,,,,,,,,,true,FALSE,,2214.447999952303,,response,,,,100,H,,,,,,FALSE,click #choice-2,,,,silence,,,,,183577.69999992847,183575.79999995232,181336.374,181350.89999997616,181361.352,183601.111,,,
Item 100,flow.Sequence,2_1_1,2022-05-03T13:19:43.265Z,,,,,,,,,,,,,,,,,,,,,,,,,,,,,,,36419.174999952316,,completion,,,,,,,,,,,,,,,,,,,,,183578,183575.79999995232,147131.647,147136.5,147156.625,183601.111,,,
End of Practice,html.Page,2_1_2,2022-05-03T13:19:48.160Z,,,,,,,,,,,,,,,,,,,,,,,,,,,,,,,4871.788999976154,,form submission,,,,,,,,,,,,,,,,,,,,,188473.29999995232,188472.89999997616,183576.133,183578.09999990463,183601.111,188503.65,,,
Practice,flow.Sequence,2_1,2022-05-03T13:19:48.160Z,,,,,,,,,,,,,,,,,,,,,,,,,,,,,,,84525.92699997616,,completion,,,,,,,,,,,,,,,,,,,,,188473.5,188472.89999997616,103921.995,103930.59999990463,103946.973,188503.65,,,
Trap_instruction,html.Page,2_2_0,2022-05-03T13:19:52.640Z,,,,,,,,,,,,,,,,,,,,,,,,,,,,,,,4448.350000000006,,form submission,,,,,,,,,,,,,,,,,,,,,192953.39999997616,192952,188478.672,188473.59999990463,188503.65,192977.754,,,
trap_trial,html.Screen,2_2_1,2022-05-03T13:19:55.825Z,,,,,,,,,,,,,,,,,,,,,,,,,,,,true,1,,3159.3459999046463,,response,,,,,,,,,,,1,click #choice-1,,,,,,,,,196138.59999990463,196137.09999990463,192927.798,192953.69999992847,192977.754,196157.473,,,
end of trap trial,html.Page,2_2_2,2022-05-03T13:19:57.958Z,,,,,,,,,,,,,,,,,,,,,,,,,,,,,,,2113.527000000002,,form submission,,,,,,,,,,,,,,,,,,,,,198271.5,198271,196132.495,196138.89999997616,196157.473,198287.101,,,
Trap 1,flow.Sequence,2_2,2022-05-03T13:19:57.958Z,,,,,,,,,,,,,,,,,,,,,,,,,,,,,,,9767.350000000006,,completion,,,,,,,,,,,,,,,,,,,,,198271.69999992847,198271,188478.672,188473.59999990463,188503.65,198287.101,,,
Standby,html.Page,2_3_0,2022-05-03T13:20:05.946Z,,,,,,,,,,,,,,,,,,,,,,,,,,,,,,,7996.376000000018,,timeout,,,,,,,,,,,,,,,,,,,,,206259.5,206258.499,198262.123,198272,198287.101,206283.477,,,
Holding screen,html.Screen,2_3_1_0_0,2022-05-03T13:20:12.955Z,,,,,,,,,,,,,,,,,,,,,,,,,,,,,,,7008.476999999984,,timeout,,,,,,,,,,,,,,,,,,,,,213268.59999990463,213266.976,206258.499,206259.59999990463,206283.477,213291.954,,,
screen,html.Screen,2_3_1_0_1_0,2022-05-03T13:20:14.175Z,,,,,,,,,,,,,,,,,19,,,,,,,,,,,,,,1195.4459999761602,,response,,,,17,H,,,,,,Space,keypress(Space),,,,speech,,,,"Interestingly, --- -------- -------- ---------- ---- -------<br>-- ---------- -- --- ----- ------ ----- ---- --------- ----<br>------- ------ -------- -- ------ ---------- ------ ---<br>------ -- -- ---- -- ---------- -------- ------ ---- -------<br>---- --- --------- ------- ----- --------- ---- ----- --<br>------ -------- -- ------ -- ---- ------------",214488.09999990463,214487.39999997616,213266.976,213268.79999995232,213291.954,214497.822,,0,"Interestingly,"
screen,html.Screen,2_3_1_0_1_1,2022-05-03T13:20:14.559Z,,,,,,,,,,,,,,,,,19,,,,,,,,,,,,,,373.37799992848886,,response,,,,17,H,,,,,,Space,keypress(Space),,,,speech,,,,-------------- the -------- -------- ---------- ---- -------<br>-- ---------- -- --- ----- ------ ----- ---- --------- ----<br>------- ------ -------- -- ------ ---------- ------ ---<br>------ -- -- ---- -- ---------- -------- ------ ---- -------<br>---- --- --------- ------- ----- --------- ---- ----- --<br>------ -------- -- ------ -- ---- ------------,214871.89999997616,214871.19999992847,214472.844,214488.19999992847,214497.822,214879.397,,1,the
screen,html.Screen,2_3_1_0_1_2,2022-05-03T13:20:15.022Z,,,,,,,,,,,,,,,,,19,,,,,,,,,,,,,,455.00299997616094,,response,,,,17,H,,,,,,Space,keypress(Space),,,,speech,,,,-------------- --- heaviest -------- ---------- ---- -------<br>-- ---------- -- --- ----- ------ ----- ---- --------- ----<br>------- ------ -------- -- ------ ---------- ------ ---<br>------ -- -- ---- -- ---------- -------- ------ ---- -------<br>---- --- --------- ------- ----- --------- ---- ----- --<br>------ -------- -- ------ -- ---- ------------,215335,215334.39999997616,214854.419,214872,214879.397,215337.321,,2,heaviest
screen,html.Screen,2_3_1_0_1_3,2022-05-03T13:20:15.416Z,,,,,,,,,,,,,,,,,19,,,,,,,,,,,,,,391.6790000000037,,response,,,,17,H,,,,,,Space,keypress(Space),,,,speech,,,,-------------- --- -------- isotopes ---------- ---- -------<br>-- ---------- -- --- ----- ------ ----- ---- --------- ----<br>------- ------ -------- -- ------ ---------- ------ ---<br>------ -- -- ---- -- ---------- -------- ------ ---- -------<br>---- --- --------- ------- ----- --------- ---- ----- --<br>------ -------- -- ------ -- ---- ------------,215729.59999990463,215729,215312.343,215335.09999990463,215337.321,215739.525,,3,isotopes
screen,html.Screen,2_3_1_0_1_4,2022-05-03T13:20:16.146Z,,,,,,,,,,,,,,,,,19,,,,,,,,,,,,,,718.9750000000058,,response,,,,17,H,,,,,,Space,keypress(Space),,,,speech,,,,-------------- --- -------- -------- physicists ---- -------<br>-- ---------- -- --- ----- ------ ----- ---- --------- ----<br>------- ------ -------- -- ------ ---------- ------ ---<br>------ -- -- ---- -- ---------- -------- ------ ---- -------<br>---- --- --------- ------- ----- --------- ---- ----- --<br>------ -------- -- ------ -- ---- ------------,216459.19999992847,216458.5,215714.547,215729.69999992847,215739.525,216467.181,,4,physicists
screen,html.Screen,2_3_1_0_1_5,2022-05-03T13:20:16.471Z,,,,,,,,,,,,,,,,,19,,,,,,,,,,,,,,316.91899990462116,,response,,,,17,H,,,,,,Space,keypress(Space),,,,speech,,,,-------------- --- -------- -------- ---------- have -------<br>-- ---------- -- --- ----- ------ ----- ---- --------- ----<br>------- ------ -------- -- ------ ---------- ------ ---<br>------ -- -- ---- -- ---------- -------- ------ ---- -------<br>---- --- --------- ------- ----- --------- ---- ----- --<br>------ -------- -- ------ -- ---- ------------,216784.69999992847,216784.09999990463,216442.203,216459.19999992847,216467.181,216794.478,,5,have
screen,html.Screen,2_3_1_0_1_6,2022-05-03T13:20:16.994Z,,,,,,,,,,,,,,,,,19,,,,,,,,,,,,,,511.92199997615535,,response,,,,17,H,,,,,,Space,keypress(Space),,,,speech,,,,-------------- --- -------- -------- ---------- ---- managed<br>-- ---------- -- --- ----- ------ ----- ---- --------- ----<br>------- ------ -------- -- ------ ---------- ------ ---<br>------ -- -- ---- -- ---------- -------- ------ ---- -------<br>---- --- --------- ------- ----- --------- ---- ----- --<br>------ -------- -- ------ -- ---- ------------,217307.09999990463,217306.39999997616,216769.5,216784.79999995232,216794.478,217324.028,,6,managed
screen,html.Screen,2_3_1_0_1_7,2022-05-03T13:20:17.319Z,,,,,,,,,,,,,,,,,19,,,,,,,,,,,,,,307.77199995232513,,response,,,,17,H,,,,,,Space,keypress(Space),,,,speech,,,,-------------- --- -------- -------- ---------- ---- -------<br>to ---------- -- --- ----- ------ ----- ---- --------- ----<br>------- ------ -------- -- ------ ---------- ------ ---<br>------ -- -- ---- -- ---------- -------- ------ ---- -------<br>---- --- --------- ------- ----- --------- ---- ----- --<br>------ -------- -- ------ -- ---- ------------,217632.39999997616,217631.79999995232,217299.05,217307.19999992847,217324.028,217650.978,,7,to
screen,html.Screen,2_3_1_0_1_8,2022-05-03T13:20:17.921Z,,,,,,,,,,,,,,,,,19,,,,,,,,,,,,,,582.5219999999972,,response,,,,17,H,,,,,,Space,keypress(Space),,,,speech,,,,-------------- --- -------- -------- ---------- ---- -------<br>-- synthesize -- --- ----- ------ ----- ---- --------- ----<br>------- ------ -------- -- ------ ---------- ------ ---<br>------ -- -- ---- -- ---------- -------- ------ ---- -------<br>---- --- --------- ------- ----- --------- ---- ----- --<br>------ -------- -- ------ -- ---- ------------,218234.09999990463,218233.5,217626,217632.5,217650.978,218254.058,,8,synthesize
screen,html.Screen,2_3_1_0_1_9,2022-05-03T13:20:18.384Z,,,,,,,,,,,,,,,,,19,,,,,,,,,,,,,,442.94200000001,,response,,,,17,H,,,,,,Space,keypress(Space),,,,speech,,,,-------------- --- -------- -------- ---------- ---- -------<br>-- ---------- so --- ----- ------ ----- ---- --------- ----<br>------- ------ -------- -- ------ ---------- ------ ---<br>------ -- -- ---- -- ---------- -------- ------ ---- -------<br>---- --- --------- ------- ----- --------- ---- ----- --<br>------ -------- -- ------ -- ---- ------------,218697.39999997616,218697,218229.08,218234.29999995232,218254.058,218705.9,,9,so
screen,html.Screen,2_3_1_0_1_10,2022-05-03T13:20:18.660Z,,,,,,,,,,,,,,,,,19,,,,,,,,,,,,,,266.99999997616396,,response,,,,17,H,,,,,,Space,keypress(Space),,,,speech,,,,-------------- --- -------- -------- ---------- ---- -------<br>-- ---------- -- far ----- ------ ----- ---- --------- ----<br>------- ------ -------- -- ------ ---------- ------ ---<br>------ -- -- ---- -- ---------- -------- ------ ---- -------<br>---- --- --------- ------- ----- --------- ---- ----- --<br>------ -------- -- ------ -- ---- ------------,218973.5,218972.89999997616,218680.922,218697.59999990463,218705.9,218984.832,,10,far
screen,html.Screen,2_3_1_0_1_11,2022-05-03T13:20:19.074Z,,,,,,,,,,,,,,,,,19,,,,,,,,,,,,,,402.1680000000051,,response,,,,17,H,,,,,,Space,keypress(Space),,,,speech,,,,-------------- --- -------- -------- ---------- ---- -------<br>-- ---------- -- --- don't ------ ----- ---- --------- ----<br>------- ------ -------- -- ------ ---------- ------ ---<br>------ -- -- ---- -- ---------- -------- ------ ---- -------<br>---- --- --------- ------- ----- --------- ---- ----- --<br>------ -------- -- ------ -- ---- ------------,219387.69999992847,219387,218959.854,218973.59999990463,218984.832,219412.57,,11,don't
screen,html.Screen,2_3_1_0_1_12,2022-05-03T13:20:19.341Z,,,,,,,,,,,,,,,,,19,,,,,,,,,,,,,,240.82999997615116,,response,,,,17,H,,,,,,Space,keypress(Space),,,,speech,,,,-------------- --- -------- -------- ---------- ---- -------<br>-- ---------- -- --- ----- behave ----- ---- --------- ----<br>------- ------ -------- -- ------ ---------- ------ ---<br>------ -- -- ---- -- ---------- -------- ------ ---- -------<br>---- --- --------- ------- ----- --------- ---- ----- --<br>------ -------- -- ------ -- ---- ------------,219653.89999997616,219653.39999997616,219387.592,219387.69999992847,219412.57,219664.253,,12,behave
screen,html.Screen,2_3_1_0_1_13,2022-05-03T13:20:19.686Z,,,,,,,,,,,,,,,,,19,,,,,,,,,,,,,,334.14699997616117,,response,,,,17,H,,,,,,Space,keypress(Space),,,,speech,,,,-------------- --- -------- -------- ---------- ---- -------<br>-- ---------- -- --- ----- ------ quite ---- --------- ----<br>------- ------ -------- -- ------ ---------- ------ ---<br>------ -- -- ---- -- ---------- -------- ------ ---- -------<br>---- --- --------- ------- ----- --------- ---- ----- --<br>------ -------- -- ------ -- ---- ------------,219999,219998.39999997616,219639.275,219654.09999990463,219664.253,220016.837,,13,quite
screen,html.Screen,2_3_1_0_1_14,2022-05-03T13:20:19.942Z,,,,,,,,,,,,,,,,,19,,,,,,,,,,,,,,237.96299995231675,,response,,,,17,H,,,,,,Space,keypress(Space),,,,speech,,,,-------------- --- -------- -------- ---------- ---- -------<br>-- ---------- -- --- ----- ------ ----- like --------- ----<br>------- ------ -------- -- ------ ---------- ------ ---<br>------ -- -- ---- -- ---------- -------- ------ ---- -------<br>---- --- --------- ------- ----- --------- ---- ----- --<br>------ -------- -- ------ -- ---- ------------,220255.39999997616,220254.79999995232,219991.859,219999.09999990463,220016.837,220268.289,,14,like
screen,html.Screen,2_3_1_0_1_15,2022-05-03T13:20:20.317Z,,,,,,,,,,,,,,,,,19,,,,,,,,,,,,,,361.41099992848467,,response,,,,17,H,,,,,,Space,keypress(Space),,,,speech,,,,-------------- --- -------- -------- ---------- ---- -------<br>-- ---------- -- --- ----- ------ ----- ---- science's ----<br>------- ------ -------- -- ------ ---------- ------ ---<br>------ -- -- ---- -- ---------- -------- ------ ---- -------<br>---- --- --------- ------- ----- --------- ---- ----- --<br>------ -------- -- ------ -- ---- ------------,220630.19999992847,220629.69999992847,220243.311,220255.5,220268.289,220645.371,,15,science's
screen,html.Screen,2_3_1_0_1_16,2022-05-03T13:20:20.731Z,,,,,,,,,,,,,,,,,19,,,,,,,,,,,,,,398.3289999284607,,response,,,,17,H,,,,,,Space,keypress(Space),,,,speech,,,,-------------- --- -------- -------- ---------- ---- -------<br>-- ---------- -- --- ----- ------ ----- ---- --------- best<br>------- ------ -------- -- ------ ---------- ------ ---<br>------ -- -- ---- -- ---------- -------- ------ ---- -------<br>---- --- --------- ------- ----- --------- ---- ----- --<br>------ -------- -- ------ -- ---- ------------,221044.29999995232,221043.69999992847,220620.393,220630.39999997616,220645.371,221046.779,,16,best
screen,html.Screen,2_3_1_0_1_17,2022-05-03T13:20:21.244Z,,,,,,,,,,,,,,,,,19,,,,,,,,,,,,,,509.72099999999045,,response,,,,17,H,,,,,,Space,keypress(Space),,,,speech,,,,-------------- --- -------- -------- ---------- ---- -------<br>-- ---------- -- --- ----- ------ ----- ---- --------- ----<br>current ------ -------- -- ------ ---------- ------ ---<br>------ -- -- ---- -- ---------- -------- ------ ---- -------<br>---- --- --------- ------- ----- --------- ---- ----- --<br>------ -------- -- ------ -- ---- ------------,221557.09999990463,221556.5,221021.801,221044.39999997616,221046.779,221573.983,,17,current
screen,html.Screen,2_3_1_0_1_18,2022-05-03T13:20:21.599Z,,,,,,,,,,,,,,,,,19,,,,,,,,,,,,,,337.51699999999255,,response,,,,17,H,,,,,,Space,keypress(Space),,,,speech,,,,-------------- --- -------- -------- ---------- ---- -------<br>-- ---------- -- --- ----- ------ ----- ---- --------- ----<br>------- models -------- -- ------ ---------- ------ ---<br>------ -- -- ---- -- ---------- -------- ------ ---- -------<br>---- --- --------- ------- ----- --------- ---- ----- --<br>------ -------- -- ------ -- ---- ------------,221912.19999992847,221911.5,221549.005,221557.29999995232,221573.983,221926.466,,18,models
screen,html.Screen,2_3_1_0_1_19,2022-05-03T13:20:21.993Z,,,,,,,,,,,,,,,,,19,,,,,,,,,,,,,,379.43399997617234,,response,,,,17,H,,,,,,Space,keypress(Space),,,,speech,,,,"-------------- --- -------- -------- ---------- ---- -------<br>-- ---------- -- --- ----- ------ ----- ---- --------- ----<br>------- ------ predict, -- ------ ---------- ------ ---<br>------ -- -- ---- -- ---------- -------- ------ ---- -------<br>---- --- --------- ------- ----- --------- ---- ----- --<br>------ -------- -- ------ -- ---- ------------",222306.59999990463,222305.89999997616,221901.488,221912.29999995232,221926.466,222329.704,,19,"predict,"
screen,html.Screen,2_3_1_0_1_20,2022-05-03T13:20:22.467Z,,,,,,,,,,,,,,,,,19,,,,,,,,,,,,,,449.5959999523184,,response,,,,17,H,,,,,,Space,keypress(Space),,,,speech,,,,-------------- --- -------- -------- ---------- ---- -------<br>-- ---------- -- --- ----- ------ ----- ---- --------- ----<br>------- ------ -------- so ------ ---------- ------ ---<br>------ -- -- ---- -- ---------- -------- ------ ---- -------<br>---- --- --------- ------- ----- --------- ---- ----- --<br>------ -------- -- ------ -- ---- ------------,222780,222779.29999995232,222304.726,222306.69999992847,222329.704,222781.737,,20,so
screen,html.Screen,2_3_1_0_1_21,2022-05-03T13:20:22.812Z,,,,,,,,,,,,,,,,,19,,,,,,,,,,,,,,342.66299997616443,,response,,,,17,H,,,,,,Space,keypress(Space),,,,speech,,,,-------------- --- -------- -------- ---------- ---- -------<br>-- ---------- -- --- ----- ------ ----- ---- --------- ----<br>------- ------ -------- -- stable ---------- ------ ---<br>------ -- -- ---- -- ---------- -------- ------ ---- -------<br>---- --- --------- ------- ----- --------- ---- ----- --<br>------ -------- -- ------ -- ---- ------------,223125.09999990463,223124.39999997616,222756.759,222780,222781.737,223137.085,,21,stable
screen,html.Screen,2_3_1_0_1_22,2022-05-03T13:20:23.324Z,,,,,,,,,,,,,,,,,19,,,,,,,,,,,,,,500.0149999046407,,response,,,,17,H,,,,,,Space,keypress(Space),,,,speech,,,,-------------- --- -------- -------- ---------- ---- -------<br>-- ---------- -- --- ----- ------ ----- ---- --------- ----<br>------- ------ -------- -- ------ superheavy ------ ---<br>------ -- -- ---- -- ---------- -------- ------ ---- -------<br>---- --- --------- ------- ----- --------- ---- ----- --<br>------ -------- -- ------ -- ---- ------------,223637.79999995232,223637.09999990463,223112.107,223125.19999992847,223137.085,223661.827,,22,superheavy
screen,html.Screen,2_3_1_0_1_23,2022-05-03T13:20:24.183Z,,,,,,,,,,,,,,,,,19,,,,,,,,,,,,,,834.0729999761679,,response,,,,17,H,,,,,,Space,keypress(Space),,,,speech,,,,-------------- --- -------- -------- ---------- ---- -------<br>-- ---------- -- --- ----- ------ ----- ---- --------- ----<br>------- ------ -------- -- ------ ---------- nuclei ---<br>------ -- -- ---- -- ---------- -------- ------ ---- -------<br>---- --- --------- ------- ----- --------- ---- ----- --<br>------ -------- -- ------ -- ---- ------------,224496.39999997616,224495.89999997616,223636.849,223637.89999997616,223661.827,224513.504,,23,nuclei
screen,html.Screen,2_3_1_0_1_24,2022-05-03T13:20:24.666Z,,,,,,,,,,,,,,,,,19,,,,,,,,,,,,,,464.99600000001374,,response,,,,17,H,,,,,,Space,keypress(Space),,,,speech,,,,-------------- --- -------- -------- ---------- ---- -------<br>-- ---------- -- --- ----- ------ ----- ---- --------- ----<br>------- ------ -------- -- ------ ---------- ------ are<br>------ -- -- ---- -- ---------- -------- ------ ---- -------<br>---- --- --------- ------- ----- --------- ---- ----- --<br>------ -------- -- ------ -- ---- ------------,224979.19999992847,224978.5,224488.526,224496.5,224513.504,224991.646,,24,are
screen,html.Screen,2_3_1_0_1_25,2022-05-03T13:20:25.060Z,,,,,,,,,,,,,,,,,19,,,,,,,,,,,,,,380.8539999999921,,response,,,,17,H,,,,,,Space,keypress(Space),,,,speech,,,,-------------- --- -------- -------- ---------- ---- -------<br>-- ---------- -- --- ----- ------ ----- ---- --------- ----<br>------- ------ -------- -- ------ ---------- ------ ---<br>likely -- -- ---- -- ---------- -------- ------ ---- -------<br>---- --- --------- ------- ----- --------- ---- ----- --<br>------ -------- -- ------ -- ---- ------------,225373.09999990463,225372.5,224966.668,224979.29999995232,224991.646,225397.265,,25,likely
screen,html.Screen,2_3_1_0_1_26,2022-05-03T13:20:25.415Z,,,,,,,,,,,,,,,,,19,,,,,,,,,,,,,,330.8349999046186,,response,,,,17,H,,,,,,Space,keypress(Space),,,,speech,,,,-------------- --- -------- -------- ---------- ---- -------<br>-- ---------- -- --- ----- ------ ----- ---- --------- ----<br>------- ------ -------- -- ------ ---------- ------ ---<br>------ to -- ---- -- ---------- -------- ------ ---- -------<br>---- --- --------- ------- ----- --------- ---- ----- --<br>------ -------- -- ------ -- ---- ------------,225728.69999992847,225728.09999990463,225372.287,225373.29999995232,225397.265,225750.221,,26,to
screen,html.Screen,2_3_1_0_1_27,2022-05-03T13:20:25.760Z,,,,,,,,,,,,,,,,,19,,,,,,,,,,,,,,322.77900000000955,,response,,,,17,H,,,,,,Space,keypress(Space),,,,speech,,,,-------------- --- -------- -------- ---------- ---- -------<br>-- ---------- -- --- ----- ------ ----- ---- --------- ----<br>------- ------ -------- -- ------ ---------- ------ ---<br>------ -- be ---- -- ---------- -------- ------ ---- -------<br>---- --- --------- ------- ----- --------- ---- ----- --<br>------ -------- -- ------ -- ---- ------------,226073.59999990463,226073,225725.243,225728.79999995232,225750.221,226077.607,,27,be
screen,html.Screen,2_3_1_0_1_28,2022-05-03T13:20:26.125Z,,,,,,,,,,,,,,,,,19,,,,,,,,,,,,,,360.39300000001094,,response,,,,17,H,,,,,,Space,keypress(Space),,,,speech,,,,-------------- --- -------- -------- ---------- ---- -------<br>-- ---------- -- --- ----- ------ ----- ---- --------- ----<br>------- ------ -------- -- ------ ---------- ------ ---<br>------ -- -- full -- ---------- -------- ------ ---- -------<br>---- --- --------- ------- ----- --------- ---- ----- --<br>------ -------- -- ------ -- ---- ------------,226438.59999990463,226438,226052.629,226073.69999992847,226077.607,226454.782,,28,full
screen,html.Screen,2_3_1_0_1_29,2022-05-03T13:20:26.490Z,,,,,,,,,,,,,,,,,19,,,,,,,,,,,,,,347.9179999284679,,response,,,,17,H,,,,,,Space,keypress(Space),,,,speech,,,,-------------- --- -------- -------- ---------- ---- -------<br>-- ---------- -- --- ----- ------ ----- ---- --------- ----<br>------- ------ -------- -- ------ ---------- ------ ---<br>------ -- -- ---- of ---------- -------- ------ ---- -------<br>---- --- --------- ------- ----- --------- ---- ----- --<br>------ -------- -- ------ -- ---- ------------,226803.29999995232,226802.69999992847,226429.804,226438.69999992847,226454.782,226806.713,,29,of
screen,html.Screen,2_3_1_0_1_30,2022-05-03T13:20:27.092Z,,,,,,,,,,,,,,,,,19,,,,,,,,,,,,,,597.7870000000112,,response,,,,17,H,,,,,,Space,keypress(Space),,,,speech,,,,-------------- --- -------- -------- ---------- ---- -------<br>-- ---------- -- --- ----- ------ ----- ---- --------- ----<br>------- ------ -------- -- ------ ---------- ------ ---<br>------ -- -- ---- -- surprises. -------- ------ ---- -------<br>---- --- --------- ------- ----- --------- ---- ----- --<br>------ -------- -- ------ -- ---- ------------,227405.19999992847,227404.5,226781.735,226803.39999997616,226806.713,227408.784,,30,surprises.
screen,html.Screen,2_3_1_0_1_31,2022-05-03T13:20:27.585Z,,,,,,,,,,,,,,,,,19,,,,,,,,,,,,,,489.0159999523021,,response,,,,17,H,,,,,,Space,keypress(Space),,,,speech,,,,-------------- --- -------- -------- ---------- ---- -------<br>-- ---------- -- --- ----- ------ ----- ---- --------- ----<br>------- ------ -------- -- ------ ---------- ------ ---<br>------ -- -- ---- -- ---------- Chemists ------ ---- -------<br>---- --- --------- ------- ----- --------- ---- ----- --<br>------ -------- -- ------ -- ---- ------------,227898.39999997616,227897.79999995232,227383.806,227405.19999992847,227408.784,227910.757,,31,Chemists
screen,html.Screen,2_3_1_0_1_32,2022-05-03T13:20:27.979Z,,,,,,,,,,,,,,,,,19,,,,,,,,,,,,,,381.24299999998766,,response,,,,17,H,,,,,,Space,keypress(Space),,,,speech,,,,-------------- --- -------- -------- ---------- ---- -------<br>-- ---------- -- --- ----- ------ ----- ---- --------- ----<br>------- ------ -------- -- ------ ---------- ------ ---<br>------ -- -- ---- -- ---------- -------- cannot ---- -------<br>---- --- --------- ------- ----- --------- ---- ----- --<br>------ -------- -- ------ -- ---- ------------,228292.69999992847,228292,227885.779,227898.5,227910.757,228314.574,,32,cannot
screen,html.Screen,2_3_1_0_1_33,2022-05-03T13:20:28.413Z,,,,,,,,,,,,,,,,,19,,,,,,,,,,,,,,411.3259999761649,,response,,,,17,H,,,,,,Space,keypress(Space),,,,speech,,,,-------------- --- -------- -------- ---------- ---- -------<br>-- ---------- -- --- ----- ------ ----- ---- --------- ----<br>------- ------ -------- -- ------ ---------- ------ ---<br>------ -- -- ---- -- ---------- -------- ------ even -------<br>---- --- --------- ------- ----- --------- ---- ----- --<br>------ -------- -- ------ -- ---- ------------,228726.5,228725.89999997616,228289.596,228292.79999995232,228314.574,228742.63,,33,even
screen,html.Screen,2_3_1_0_1_34,2022-05-03T13:20:28.916Z,,,,,,,,,,,,,,,,,19,,,,,,,,,,,,,,486.1699999523116,,response,,,,17,H,,,,,,Space,keypress(Space),,,,speech,,,,-------------- --- -------- -------- ---------- ---- -------<br>-- ---------- -- --- ----- ------ ----- ---- --------- ----<br>------- ------ -------- -- ------ ---------- ------ ---<br>------ -- -- ---- -- ---------- -------- ------ ---- predict<br>---- --- --------- ------- ----- --------- ---- ----- --<br>------ -------- -- ------ -- ---- ------------,229229.39999997616,229228.79999995232,228717.652,228726.59999990463,228742.63,229244.981,,34,predict
screen,html.Screen,2_3_1_0_1_35,2022-05-03T13:20:29.419Z,,,,,,,,,,,,,,,,,19,,,,,,,,,,,,,,486.6189999046328,,response,,,,17,H,,,,,,Space,keypress(Space),,,,speech,,,,-------------- --- -------- -------- ---------- ---- -------<br>-- ---------- -- --- ----- ------ ----- ---- --------- ----<br>------- ------ -------- -- ------ ---------- ------ ---<br>------ -- -- ---- -- ---------- -------- ------ ---- -------<br>with --- --------- ------- ----- --------- ---- ----- --<br>------ -------- -- ------ -- ---- ------------,229732.19999992847,229731.59999990463,229220.003,229229.5,229244.981,229747.449,,35,with
screen,html.Screen,2_3_1_0_1_36,2022-05-03T13:20:29.853Z,,,,,,,,,,,,,,,,,19,,,,,,,,,,,,,,418.4509999761649,,response,,,,17,H,,,,,,Space,keypress(Space),,,,speech,,,,-------------- --- -------- -------- ---------- ---- -------<br>-- ---------- -- --- ----- ------ ----- ---- --------- ----<br>------- ------ -------- -- ------ ---------- ------ ---<br>------ -- -- ---- -- ---------- -------- ------ ---- -------<br>---- any --------- ------- ----- --------- ---- ----- --<br>------ -------- -- ------ -- ---- ------------,230166.59999990463,230165.89999997616,229722.471,229732.29999995232,229747.449,230175.552,,36,any
screen,html.Screen,2_3_1_0_1_37,2022-05-03T13:20:30.238Z,,,,,,,,,,,,,,,,,19,,,,,,,,,,,,,,374.74799995232024,,response,,,,17,H,,,,,,Space,keypress(Space),,,,speech,,,,-------------- --- -------- -------- ---------- ---- -------<br>-- ---------- -- --- ----- ------ ----- ---- --------- ----<br>------- ------ -------- -- ------ ---------- ------ ---<br>------ -- -- ---- -- ---------- -------- ------ ---- -------<br>---- --- certainty ------- ----- --------- ---- ----- --<br>------ -------- -- ------ -- ---- ------------,230551,230550.29999995232,230150.574,230166.59999990463,230175.552,230553.667,,37,certainty
screen,html.Screen,2_3_1_0_1_38,2022-05-03T13:20:30.720Z,,,,,,,,,,,,,,,,,19,,,,,,,,,,,,,,479.5329999284877,,response,,,,17,H,,,,,,Space,keypress(Space),,,,speech,,,,-------------- --- -------- -------- ---------- ---- -------<br>-- ---------- -- --- ----- ------ ----- ---- --------- ----<br>------- ------ -------- -- ------ ---------- ------ ---<br>------ -- -- ---- -- ---------- -------- ------ ---- -------<br>---- --- --------- whether ----- --------- ---- ----- --<br>------ -------- -- ------ -- ---- ------------,231033.89999997616,231033.19999992847,230528.689,230551.09999990463,230553.667,231056.08,,38,whether
screen,html.Screen,2_3_1_0_1_39,2022-05-03T13:20:31.125Z,,,,,,,,,,,,,,,,,19,,,,,,,,,,,,,,381.9200000000128,,response,,,,17,H,,,,,,Space,keypress(Space),,,,speech,,,,-------------- --- -------- -------- ---------- ---- -------<br>-- ---------- -- --- ----- ------ ----- ---- --------- ----<br>------- ------ -------- -- ------ ---------- ------ ---<br>------ -- -- ---- -- ---------- -------- ------ ---- -------<br>---- --- --------- ------- these --------- ---- ----- --<br>------ -------- -- ------ -- ---- ------------,231438.59999990463,231438,231031.102,231033.89999997616,231056.08,231458.399,,39,these
