sender,sender_type,sender_id,timestamp,meta,,Blues,Classical,Country,Dance,Electronic,Folk,Gospel,Hip-Hop,Jazz,Latin,Musical/Film,New-age,Pop,Prolific_id,Provo_ID,R&B,Rap,Reggae,Religious,Rock,Soul,Swing,Traditional,age,artist_name,correct,correctResponse,distraction,duration,education,ended_on,familiarity,gender,headphone_check_performance,item,list,music_frequency,offensiveness,pleasantness,position_correct,preference,response,response_action,snippet_file,song_name,song_rating,sound,stimulus_1,stimulus_2,stimulus_3,text,time_commit,time_end,time_render,time_run,time_show,time_switch,url,word,word_ID
Prolific ID,html.Form,0,2022-05-12T13:52:12.690Z,"{""labjs_version"":""20.2.2"",""labjs_build"":{""flavor"":""production"",""commit"":""a25486e0c714a0ae2ce03ff94b7bb6896854dcfa""},""location"":""https://run.pavlovia.org/mvasilev/prolific3_music_d/"",""userAgent"":""Mozilla/5.0 (Windows NT 10.0; Win64; x64; rv:100.0) Gecko/20100101 Firefox/100.0"",""platform"":""Win32"",""language"":""en-GB"",""locale"":""en-GB"",""timeZone"":""Europe/London"",""timezoneOffset"":-60,""screen_width"":1920,""screen_height"":1080,""scroll_width"":1920,""scroll_height"":843,""window_innerWidth"":1920,""window_innerHeight"":891,""devicePixelRatio"":1}",,,,,,,,,,,,,,,615d9f3af64c6290fcce4bdc,,,,,,,,,,,,,,,3368.88,,form submission,,,,,,,,,,,,,,,,,,,,,9775,9774,6404.94,6405,6405.12,9781.52,{},,
Introduction,html.Screen,1_0,2022-05-12T13:52:17.495Z,,,,,,,,,,,,,,,,,,,,,,,,,,,,,,,4785.48,,response,,,,,,,,,,,continue,click button,,,,,,,,,14581,14567,9771.34,9776,9781.52,14581.54,,,
Volume calibration,html.Screen,1_1,2022-05-12T13:52:25.624Z,,,,,,,,,,,,,,,,,,,,,,,,,,,,,,,8110.459999999999,,response,,,,,,,,,,,continue,click button,,,,,,,,,22709,22692,14579.14,14582,14581.54,22714.86,,,
Task instructions,html.Screen,1_2,2022-05-12T13:52:27.279Z,,,,,,,,,,,,,,,,,,,,,,,,,,,,,,,1633.1399999999994,,response,,,,,,,,,,,continue,click button,,,,,,,,,24364,24348,22708.2,22709,22714.86,24364.98,,,
Sounds,html.Screen,1_3_0_0,2022-05-12T13:52:31.515Z,,,,,,,,,,,,,,,,,,,,,,,,,,,,,,,4249.98,,timeout,,,,,,,,,3,,,,,,,,I,O,S,,28600,28598.4,24363.54,24364,24364.98,28614.96,,,
Judgement,html.Screen,1_3_0_1,2022-05-12T13:52:32.831Z,,,,,,,,,,,,,,,,,,,,,,,,,,,,true,3,,1281.0400000000009,,response,,,,,,,,,3,,3,click #choice-3,,,,,I,O,S,,29916,29896,28598.4,28601,28614.96,29931.6,,,
Trial,flow.Sequence,1_3_0,2022-05-12T13:52:32.832Z,,,,,,,,,,,,,,,,,,,,,,,,,,,,,,,5531.02,,completion,,,,,,,,,3,,,,,,,,I,O,S,,29917,29896,24363.54,24364,24364.98,29931.6,,,
Sounds,html.Screen,1_3_1_0,2022-05-12T13:52:37.081Z,,,,,,,,,,,,,,,,,,,,,,,,,,,,,,,4250.139999999999,,timeout,,,,,,,,,1,,,,,,,,S,I,O,,34167,34165.08,29915.58,29917,29931.6,34181.74,,,
Judgement,html.Screen,1_3_1_1,2022-05-12T13:52:37.791Z,,,,,,,,,,,,,,,,,,,,,,,,,,,,true,1,,681.260000000002,,response,,,,,,,,,1,,1,click #choice-1,,,,,S,I,O,,34876,34863,34165.08,34168,34181.74,34881.48,,,
Trial,flow.Sequence,1_3_1,2022-05-12T13:52:37.792Z,,,,,,,,,,,,,,,,,,,,,,,,,,,,,,,4931.4000000000015,,completion,,,,,,,,,1,,,,,,,,S,I,O,,34877,34863,29915.58,29917,29931.6,34881.48,,,
Sounds,html.Screen,1_3_2_0,2022-05-12T13:52:42.031Z,,,,,,,,,,,,,,,,,,,,,,,,,,,,,,,4250.139999999999,,timeout,,,,,,,,,1,,,,,,,,S,O,I,,39116,39114.94,34875.54,34877,34881.48,39131.62,,,
Judgement,html.Screen,1_3_2_1,2022-05-12T13:52:42.527Z,,,,,,,,,,,,,,,,,,,,,,,,,,,,true,1,,466.3799999999974,,response,,,,,,,,,1,,1,click #choice-1,,,,,S,O,I,,39612,39598,39114.94,39116,39131.62,39614.88,,,
Trial,flow.Sequence,1_3_2,2022-05-12T13:52:42.527Z,,,,,,,,,,,,,,,,,,,,,,,,,,,,,,,4716.519999999997,,completion,,,,,,,,,1,,,,,,,,S,O,I,,39612,39598,34875.54,34877,34881.48,39614.88,,,
Sounds,html.Screen,1_3_3_0,2022-05-12T13:52:46.764Z,,,,,,,,,,,,,,,,,,,,,,,,,,,,,,,4250.120000000003,,timeout,,,,,,,,,3,,,,,,,,O,I,S,,43850,43848.34,39611.32,39612,39614.88,43865,,,
Judgement,html.Screen,1_3_3_1,2022-05-12T13:52:47.400Z,,,,,,,,,,,,,,,,,,,,,,,,,,,,true,3,,609,,response,,,,,,,,,3,,3,click #choice-3,,,,,O,I,S,,44486,44474,43848.34,43850,43865,44498.38,,,
Trial,flow.Sequence,1_3_3,2022-05-12T13:52:47.401Z,,,,,,,,,,,,,,,,,,,,,,,,,,,,,,,4859.120000000003,,completion,,,,,,,,,3,,,,,,,,O,I,S,,44486,44474,39611.32,39612,39614.88,44498.38,,,
Sounds,html.Screen,1_3_4_0,2022-05-12T13:52:51.648Z,,,,,,,,,,,,,,,,,,,,,,,,,,,,,,,4249.880000000005,,timeout,,,,,,,,,2,,,,,,,,I,S,O,,48732,48731.6,44484.9,44486,44498.38,48748.26,,,
Judgement,html.Screen,1_3_4_1,2022-05-12T13:52:52.174Z,,,,,,,,,,,,,,,,,,,,,,,,,,,,true,2,,506.73999999999796,,response,,,,,,,,,2,,2,click #choice-2,,,,,I,S,O,,49259,49255,48731.6,48733,48748.26,49264.96,,,
Trial,flow.Sequence,1_3_4,2022-05-12T13:52:52.174Z,,,,,,,,,,,,,,,,,,,,,,,,,,,,,,,4756.620000000003,,completion,,,,,,,,,2,,,,,,,,I,S,O,,49259,49255,44484.9,44486,44498.38,49264.96,,,
Sounds,html.Screen,1_3_5_0,2022-05-12T13:52:56.415Z,,,,,,,,,,,,,,,,,,,,,,,,,,,,,,,4250.080000000002,,timeout,,,,,,,,,2,,,,,,,,O,S,I,,53500,53498.36,49259.06,49260,49264.96,53515.04,,,
Judgement,html.Screen,1_3_5_1,2022-05-12T13:52:56.926Z,,,,,,,,,,,,,,,,,,,,,,,,,,,,true,2,,488.9599999999991,,response,,,,,,,,,2,,2,click #choice-2,,,,,O,S,I,,54012,54004,53498.36,53500,53515.04,54014.92,,,
Trial,flow.Sequence,1_3_5,2022-05-12T13:52:56.926Z,,,,,,,,,,,,,,,,,,,,,,,,,,,,,,,4739.040000000001,,completion,,,,,,,,,2,,,,,,,,O,S,I,,54012,54004,49259.06,49260,49264.96,54014.92,,,
Task,flow.Loop,1_3,2022-05-12T13:52:56.927Z,,,,,,,,,,,,,,,,,,,,,,,,,,,,,,,29639.02,,completion,,,1,,,,,,,,,,,,,,,,,,54012,54004,24363.54,24364,24364.98,54014.92,,,
Trap,html.Screen,1_4,2022-05-12T13:52:56.929Z,,,,,,,,,,,,,,,,,,,,,,,,,,,,,,,NaN,,skipped,,,,,,,,,,,,,,,,,,,,,54014,54004,,54014,,54014.92,,,
Thanks,html.Screen,1_5,2022-05-12T13:52:59.751Z,,,,,,,,,,,,,,,,,,,,,,,,,,,,,,,2803.0800000000017,,response,,,,,,,,,,,continue,click button,,,,,,,,,56836,56818,54011.14,54014,54014.92,59748.36,,,
Headphone screening,flow.Sequence,1,2022-05-12T13:52:59.751Z,,,,,,,,,,,,,,,,,,,,,,,,,,,,,,,47036.479999999996,,completion,,,,,,,,,,,,,,,,,,,,,56836,56818,9771.34,9776,9781.52,59748.36,,,
Instructions,html.Page,2_0,2022-05-12T13:53:27.267Z,,,,,,,,,,,,,,,,,,,,,,,,,,,,,,,24602.64,,form submission,,,,,,,,,,,,,,,,,,,,,84352,84351,59735,59736,59748.36,84348.96,,,
Holding screen,html.Screen,2_1_0_0,2022-05-12T13:53:37.248Z,,,,,,,,,,,,,,,,,,,,,,,,,,,,,,,9999.399999999994,,timeout,,,,,,,,,,,,,,,,,,,,,94333,94331.7,84348.96,84352,84348.96,94348.36,,,
screen,html.Screen,2_1_0_1_0,2022-05-12T13:53:38.915Z,,,,,,,,,,,,,,,,,53,,,,,,,,,,,,,,1624.6399999999994,,response,,,,99,,,,,,,Space,keypress(Space),,,,,,,,When -- ----- -- ------ - ------- --- ----------<br>------------- ------ ------ ---- ---- ------- ----- -- ----<br>-------- ------- -- ---------- --- - --- ----- ----- ----<br>---- --- --- ----- --- ---- ---- ------- ----- ---- -------<br>--- --- -- ----- -- --- ---- -- --- ---- -- ------ ------<br>--- ----- -- ----,96000,95973,94331.7,94334,94348.36,95998.48,,0,When
screen,html.Screen,2_1_0_1_1,2022-05-12T13:53:39.346Z,,,,,,,,,,,,,,,,,53,,,,,,,,,,,,,,411.5200000000041,,response,,,,99,,,,,,,Space,keypress(Space),,,,,,,,---- it ----- -- ------ - ------- --- ----------<br>------------- ------ ------ ---- ---- ------- ----- -- ----<br>-------- ------- -- ---------- --- - --- ----- ----- ----<br>---- --- --- ----- --- ---- ---- ------- ----- ---- -------<br>--- --- -- ----- -- --- ---- -- --- ---- -- ------ ------<br>--- ----- -- ----,96431,96410,95998.48,96001,95998.48,96432.28,,1,it
screen,html.Screen,2_1_0_1_2,2022-05-12T13:53:39.810Z,,,,,,,,,,,,,,,,,53,,,,,,,,,,,,,,447.72000000000116,,response,,,,99,,,,,,,Space,keypress(Space),,,,,,,,---- -- comes -- ------ - ------- --- ----------<br>------------- ------ ------ ---- ---- ------- ----- -- ----<br>-------- ------- -- ---------- --- - --- ----- ----- ----<br>---- --- --- ----- --- ---- ---- ------- ----- ---- -------<br>--- --- -- ----- -- --- ---- -- --- ---- -- ------ ------<br>--- ----- -- ----,96895,96880,96431.74,96432,96432.28,96895.82,,2,comes
screen,html.Screen,2_1_0_1_3,2022-05-12T13:53:40.224Z,,,,,,,,,,,,,,,,,53,,,,,,,,,,,,,,406.179999999993,,response,,,,99,,,,,,,Space,keypress(Space),,,,,,,,---- -- ----- to ------ - ------- --- ----------<br>------------- ------ ------ ---- ---- ------- ----- -- ----<br>-------- ------- -- ---------- --- - --- ----- ----- ----<br>---- --- --- ----- --- ---- ---- ------- ----- ---- -------<br>--- --- -- ----- -- --- ---- -- --- ---- -- ------ ------<br>--- ----- -- ----,97309,97302,96895.32,96896,96895.82,97310.12,,3,to
screen,html.Screen,2_1_0_1_4,2022-05-12T13:53:40.657Z,,,,,,,,,,,,,,,,,53,,,,,,,,,,,,,,413.88000000000466,,response,,,,99,,,,,,,Space,keypress(Space),,,,,,,,---- -- ----- -- having - ------- --- ----------<br>------------- ------ ------ ---- ---- ------- ----- -- ----<br>-------- ------- -- ---------- --- - --- ----- ----- ----<br>---- --- --- ----- --- ---- ---- ------- ----- ---- -------<br>--- --- -- ----- -- --- ---- -- --- ---- -- ------ ------<br>--- ----- -- ----,97743,97724,97309.74,97309,97310.12,97743.7,,4,having
screen,html.Screen,2_1_0_1_5,2022-05-12T13:53:41.024Z,,,,,,,,,,,,,,,,,53,,,,,,,,,,,,,,355.3000000000029,,response,,,,99,,,,,,,Space,keypress(Space),,,,,,,,---- -- ----- -- ------ a ------- --- ----------<br>------------- ------ ------ ---- ---- ------- ----- -- ----<br>-------- ------- -- ---------- --- - --- ----- ----- ----<br>---- --- --- ----- --- ---- ---- ------- ----- ---- -------<br>--- --- -- ----- -- --- ---- -- --- ---- -- ------ ------<br>--- ----- -- ----,98109,98099,97743.16,97743,97743.7,98110.4,,5,a
screen,html.Screen,2_1_0_1_6,2022-05-12T13:53:41.458Z,,,,,,,,,,,,,,,,,53,,,,,,,,,,,,,,425.6000000000058,,response,,,,99,,,,,,,Space,keypress(Space),,,,,,,,---- -- ----- -- ------ - lasting --- ----------<br>------------- ------ ------ ---- ---- ------- ----- -- ----<br>-------- ------- -- ---------- --- - --- ----- ----- ----<br>---- --- --- ----- --- ---- ---- ------- ----- ---- -------<br>--- --- -- ----- -- --- ---- -- --- ---- -- ------ ------<br>--- ----- -- ----,98543,98536,98110.02,98110,98110.4,98543.94,,6,lasting
screen,html.Screen,2_1_0_1_7,2022-05-12T13:53:41.842Z,,,,,,,,,,,,,,,,,53,,,,,,,,,,,,,,366.0599999999977,,response,,,,99,,,,,,,Space,keypress(Space),,,,,,,,---- -- ----- -- ------ - ------- and ----------<br>------------- ------ ------ ---- ---- ------- ----- -- ----<br>-------- ------- -- ---------- --- - --- ----- ----- ----<br>---- --- --- ----- --- ---- ---- ------- ----- ---- -------<br>--- --- -- ----- -- --- ---- -- --- ---- -- ------ ------<br>--- ----- -- ----,98927,98910,98543.42,98543,98543.94,98948.62,,7,and
screen,html.Screen,2_1_0_1_8,2022-05-12T13:53:42.258Z,,,,,,,,,,,,,,,,,53,,,,,,,,,,,,,,383.38000000000466,,response,,,,99,,,,,,,Space,keypress(Space),,,,,,,,---- -- ----- -- ------ - ------- --- fulfilling<br>------------- ------ ------ ---- ---- ------- ----- -- ----<br>-------- ------- -- ---------- --- - --- ----- ----- ----<br>---- --- --- ----- --- ---- ---- ------- ----- ---- -------<br>--- --- -- ----- -- --- ---- -- --- ---- -- ------ ------<br>--- ----- -- ----,99344,99332,98931.94,98928,98948.62,99345.06,,8,fulfilling
screen,html.Screen,2_1_0_1_9,2022-05-12T13:53:42.689Z,,,,,,,,,,,,,,,,,53,,,,,,,,,,,,,,409.9400000000023,,response,,,,99,,,,,,,Space,keypress(Space),,,,,,,,"---- -- ----- -- ------ - ------- --- ----------<br>relationship, ------ ------ ---- ---- ------- ----- -- ----<br>-------- ------- -- ---------- --- - --- ----- ----- ----<br>---- --- --- ----- --- ---- ---- ------- ----- ---- -------<br>--- --- -- ----- -- --- ---- -- --- ---- -- ------ ------<br>--- ----- -- ----",99775,99755,99344.56,99345,99345.06,99775.58,,9,"relationship,"
screen,html.Screen,2_1_0_1_10,2022-05-12T13:53:43.120Z,,,,,,,,,,,,,,,,,53,,,,,,,,,,,,,,416.41999999999825,,response,,,,99,,,,,,,Space,keypress(Space),,,,,,,,---- -- ----- -- ------ - ------- --- ----------<br>------------- common ------ ---- ---- ------- ----- -- ----<br>-------- ------- -- ---------- --- - --- ----- ----- ----<br>---- --- --- ----- --- ---- ---- ------- ----- ---- -------<br>--- --- -- ----- -- --- ---- -- --- ---- -- ------ ------<br>--- ----- -- ----,100205,100192,99775.08,99775,99775.58,100205.78,,10,common
screen,html.Screen,2_1_0_1_11,2022-05-12T13:53:43.537Z,,,,,,,,,,,,,,,,,53,,,,,,,,,,,,,,407.22000000000116,,response,,,,99,,,,,,,Space,keypress(Space),,,,,,,,---- -- ----- -- ------ - ------- --- ----------<br>------------- ------ wisdom ---- ---- ------- ----- -- ----<br>-------- ------- -- ---------- --- - --- ----- ----- ----<br>---- --- --- ----- --- ---- ---- ------- ----- ---- -------<br>--- --- -- ----- -- --- ---- -- --- ---- -- ------ ------<br>--- ----- -- ----,100622,100613,100205.4,100206,100205.78,100623.32,,11,wisdom
screen,html.Screen,2_1_0_1_12,2022-05-12T13:53:43.922Z,,,,,,,,,,,,,,,,,53,,,,,,,,,,,,,,364.679999999993,,response,,,,99,,,,,,,Space,keypress(Space),,,,,,,,---- -- ----- -- ------ - ------- --- ----------<br>------------- ------ ------ says ---- ------- ----- -- ----<br>-------- ------- -- ---------- --- - --- ----- ----- ----<br>---- --- --- ----- --- ---- ---- ------- ----- ---- -------<br>--- --- -- ----- -- --- ---- -- --- ---- -- ------ ------<br>--- ----- -- ----,101007,100988,100622.82,100622,100623.32,101008.22,,12,says
screen,html.Screen,2_1_0_1_13,2022-05-12T13:53:44.322Z,,,,,,,,,,,,,,,,,53,,,,,,,,,,,,,,386.77999999999884,,response,,,,99,,,,,,,Space,keypress(Space),,,,,,,,---- -- ----- -- ------ - ------- --- ----------<br>------------- ------ ------ ---- that ------- ----- -- ----<br>-------- ------- -- ---------- --- - --- ----- ----- ----<br>---- --- --- ----- --- ---- ---- ------- ----- ---- -------<br>--- --- -- ----- -- --- ---- -- --- ---- -- ------ ------<br>--- ----- -- ----,101407,101395,101007.7,101007,101008.22,101407.96,,13,that
screen,html.Screen,2_1_0_1_14,2022-05-12T13:53:44.721Z,,,,,,,,,,,,,,,,,53,,,,,,,,,,,,,,377.0399999999936,,response,,,,99,,,,,,,Space,keypress(Space),,,,,,,,---- -- ----- -- ------ - ------- --- ----------<br>------------- ------ ------ ---- ---- feeling ----- -- ----<br>-------- ------- -- ---------- --- - --- ----- ----- ----<br>---- --- --- ----- --- ---- ---- ------- ----- ---- -------<br>--- --- -- ----- -- --- ---- -- --- ---- -- ------ ------<br>--- ----- -- ----,101807,101785,101407.46,101408,101407.96,101807.74,,14,feeling
screen,html.Screen,2_1_0_1_15,2022-05-12T13:53:45.120Z,,,,,,,,,,,,,,,,,53,,,,,,,,,,,,,,385.25999999999476,,response,,,,99,,,,,,,Space,keypress(Space),,,,,,,,---- -- ----- -- ------ - ------- --- ----------<br>------------- ------ ------ ---- ---- ------- close -- ----<br>-------- ------- -- ---------- --- - --- ----- ----- ----<br>---- --- --- ----- --- ---- ---- ------- ----- ---- -------<br>--- --- -- ----- -- --- ---- -- --- ---- -- ------ ------<br>--- ----- -- ----,102205,102193,101807.26,101807,101807.74,102206.98,,15,close
screen,html.Screen,2_1_0_1_16,2022-05-12T13:53:45.489Z,,,,,,,,,,,,,,,,,53,,,,,,,,,,,,,,344.0200000000041,,response,,,,99,,,,,,,Space,keypress(Space),,,,,,,,---- -- ----- -- ------ - ------- --- ----------<br>------------- ------ ------ ---- ---- ------- ----- to ----<br>-------- ------- -- ---------- --- - --- ----- ----- ----<br>---- --- --- ----- --- ---- ---- ------- ----- ---- -------<br>--- --- -- ----- -- --- ---- -- --- ---- -- ------ ------<br>--- ----- -- ----,102575,102551,102205.52,102205,102206.98,102575.46,,16,to
screen,html.Screen,2_1_0_1_17,2022-05-12T13:53:45.905Z,,,,,,,,,,,,,,,,,53,,,,,,,,,,,,,,397.5399999999936,,response,,,,99,,,,,,,Space,keypress(Space),,,,,,,,---- -- ----- -- ------ - ------- --- ----------<br>------------- ------ ------ ---- ---- ------- ----- -- your<br>-------- ------- -- ---------- --- - --- ----- ----- ----<br>---- --- --- ----- --- ---- ---- ------- ----- ---- -------<br>--- --- -- ----- -- --- ---- -- --- ---- -- ------ ------<br>--- ----- -- ----,102990,102973,102574.92,102575,102575.46,102990.78,,17,your
screen,html.Screen,2_1_0_1_18,2022-05-12T13:53:46.353Z,,,,,,,,,,,,,,,,,53,,,,,,,,,,,,,,436.22000000000116,,response,,,,99,,,,,,,Space,keypress(Space),,,,,,,,---- -- ----- -- ------ - ------- --- ----------<br>------------- ------ ------ ---- ---- ------- ----- -- ----<br>romantic ------- -- ---------- --- - --- ----- ----- ----<br>---- --- --- ----- --- ---- ---- ------- ----- ---- -------<br>--- --- -- ----- -- --- ---- -- --- ---- -- ------ ------<br>--- ----- -- ----,103437,103427,102990.38,102990,102990.78,103438.42,,18,romantic
screen,html.Screen,2_1_0_1_19,2022-05-12T13:53:46.754Z,,,,,,,,,,,,,,,,,53,,,,,,,,,,,,,,394.58000000000175,,response,,,,99,,,,,,,Space,keypress(Space),,,,,,,,---- -- ----- -- ------ - ------- --- ----------<br>------------- ------ ------ ---- ---- ------- ----- -- ----<br>-------- partner -- ---------- --- - --- ----- ----- ----<br>---- --- --- ----- --- ---- ---- ------- ----- ---- -------<br>--- --- -- ----- -- --- ---- -- --- ---- -- ------ ------<br>--- ----- -- ----,103839,103833,103438,103438,103438.42,103840.22,,19,partner
screen,html.Screen,2_1_0_1_20,2022-05-12T13:53:47.166Z,,,,,,,,,,,,,,,,,53,,,,,,,,,,,,,,398.77999999999884,,response,,,,99,,,,,,,Space,keypress(Space),,,,,,,,---- -- ----- -- ------ - ------- --- ----------<br>------------- ------ ------ ---- ---- ------- ----- -- ----<br>-------- ------- is ---------- --- - --- ----- ----- ----<br>---- --- --- ----- --- ---- ---- ------- ----- ---- -------<br>--- --- -- ----- -- --- ---- -- --- ---- -- ------ ------<br>--- ----- -- ----,104252,104239,103839.48,103839,103840.22,104252.26,,20,is
screen,html.Screen,2_1_0_1_21,2022-05-12T13:53:47.568Z,,,,,,,,,,,,,,,,,53,,,,,,,,,,,,,,392.74000000000524,,response,,,,99,,,,,,,Space,keypress(Space),,,,,,,,---- -- ----- -- ------ - ------- --- ----------<br>------------- ------ ------ ---- ---- ------- ----- -- ----<br>-------- ------- -- paramount. --- - --- ----- ----- ----<br>---- --- --- ----- --- ---- ---- ------- ----- ---- -------<br>--- --- -- ----- -- --- ---- -- --- ---- -- ------ ------<br>--- ----- -- ----,104653,104645,104252,104252,104252.26,104653.24,,21,paramount.
screen,html.Screen,2_1_0_1_22,2022-05-12T13:53:48.033Z,,,,,,,,,,,,,,,,,53,,,,,,,,,,,,,,445.75999999999476,,response,,,,99,,,,,,,Space,keypress(Space),,,,,,,,---- -- ----- -- ------ - ------- --- ----------<br>------------- ------ ------ ---- ---- ------- ----- -- ----<br>-------- ------- -- ---------- But - --- ----- ----- ----<br>---- --- --- ----- --- ---- ---- ------- ----- ---- -------<br>--- --- -- ----- -- --- ---- -- --- ---- -- ------ ------<br>--- ----- -- ----,105118,105099,104652.94,104653,104653.24,105119.78,,22,But
screen,html.Screen,2_1_0_1_23,2022-05-12T13:53:48.466Z,,,,,,,,,,,,,,,,,53,,,,,,,,,,,,,,416.22000000000116,,response,,,,99,,,,,,,Space,keypress(Space),,,,,,,,---- -- ----- -- ------ - ------- --- ----------<br>------------- ------ ------ ---- ---- ------- ----- -- ----<br>-------- ------- -- ---------- --- a --- ----- ----- ----<br>---- --- --- ----- --- ---- ---- ------- ----- ---- -------<br>--- --- -- ----- -- --- ---- -- --- ---- -- ------ ------<br>--- ----- -- ----,105551,105536,105119.22,105119,105119.78,105552.04,,23,a
screen,html.Screen,2_1_0_1_24,2022-05-12T13:53:48.882Z,,,,,,,,,,,,,,,,,53,,,,,,,,,,,,,,390.9600000000064,,response,,,,99,,,,,,,Space,keypress(Space),,,,,,,,---- -- ----- -- ------ - ------- --- ----------<br>------------- ------ ------ ---- ---- ------- ----- -- ----<br>-------- ------- -- ---------- --- - new ----- ----- ----<br>---- --- --- ----- --- ---- ---- ------- ----- ---- -------<br>--- --- -- ----- -- --- ---- -- --- ---- -- ------ ------<br>--- ----- -- ----,105967,105943,105551.76,105552,105552.04,105967.94,,24,new
screen,html.Screen,2_1_0_1_25,2022-05-12T13:53:49.267Z,,,,,,,,,,,,,,,,,53,,,,,,,,,,,,,,365.0599999999977,,response,,,,99,,,,,,,Space,keypress(Space),,,,,,,,---- -- ----- -- ------ - ------- --- ----------<br>------------- ------ ------ ---- ---- ------- ----- -- ----<br>-------- ------- -- ---------- --- - --- study ----- ----<br>---- --- --- ----- --- ---- ---- ------- ----- ---- -------<br>--- --- -- ----- -- --- ---- -- --- ---- -- ------ ------<br>--- ----- -- ----,106352,106333,105967.4,105967,105967.94,106353.12,,25,study
screen,html.Screen,2_1_0_1_26,2022-05-12T13:53:49.681Z,,,,,,,,,,,,,,,,,53,,,,,,,,,,,,,,400.88000000000466,,response,,,,99,,,,,,,Space,keypress(Space),,,,,,,,---- -- ----- -- ------ - ------- --- ----------<br>------------- ------ ------ ---- ---- ------- ----- -- ----<br>-------- ------- -- ---------- --- - --- ----- finds ----<br>---- --- --- ----- --- ---- ---- ------- ----- ---- -------<br>--- --- -- ----- -- --- ---- -- --- ---- -- ------ ------<br>--- ----- -- ----,106767,106754,106352.6,106353,106353.12,106767.68,,26,finds
screen,html.Screen,2_1_0_1_27,2022-05-12T13:53:50.114Z,,,,,,,,,,,,,,,,,53,,,,,,,,,,,,,,408.320000000007,,response,,,,99,,,,,,,Space,keypress(Space),,,,,,,,---- -- ----- -- ------ - ------- --- ----------<br>------------- ------ ------ ---- ---- ------- ----- -- ----<br>-------- ------- -- ---------- --- - --- ----- ----- that<br>---- --- --- ----- --- ---- ---- ------- ----- ---- -------<br>--- --- -- ----- -- --- ---- -- --- ---- -- ------ ------<br>--- ----- -- ----,107199,107176,106767.06,106767,106767.68,107200.48,,27,that
screen,html.Screen,2_1_0_1_28,2022-05-12T13:53:50.593Z,,,,,,,,,,,,,,,,,53,,,,,,,,,,,,,,459.5200000000041,,response,,,,99,,,,,,,Space,keypress(Space),,,,,,,,---- -- ----- -- ------ - ------- --- ----------<br>------------- ------ ------ ---- ---- ------- ----- -- ----<br>-------- ------- -- ---------- --- - --- ----- ----- ----<br>it's --- --- ----- --- ---- ---- ------- ----- ---- -------<br>--- --- -- ----- -- --- ---- -- --- ---- -- ------ ------<br>--- ----- -- ----,107679,107660,107199.92,107200,107200.48,107679.52,,28,it's
screen,html.Screen,2_1_0_1_29,2022-05-12T13:53:51.008Z,,,,,,,,,,,,,,,,,53,,,,,,,,,,,,,,403.4799999999959,,response,,,,99,,,,,,,Space,keypress(Space),,,,,,,,---- -- ----- -- ------ - ------- --- ----------<br>------------- ------ ------ ---- ---- ------- ----- -- ----<br>-------- ------- -- ---------- --- - --- ----- ----- ----<br>---- not --- ----- --- ---- ---- ------- ----- ---- -------<br>--- --- -- ----- -- --- ---- -- --- ---- -- ------ ------<br>--- ----- -- ----,108094,108083,107678.96,107679,107679.52,108094.32,,29,not
screen,html.Screen,2_1_0_1_30,2022-05-12T13:53:51.442Z,,,,,,,,,,,,,,,,,53,,,,,,,,,,,,,,410.679999999993,,response,,,,99,,,,,,,Space,keypress(Space),,,,,,,,---- -- ----- -- ------ - ------- --- ----------<br>------------- ------ ------ ---- ---- ------- ----- -- ----<br>-------- ------- -- ---------- --- - --- ----- ----- ----<br>---- --- how ----- --- ---- ---- ------- ----- ---- -------<br>--- --- -- ----- -- --- ---- -- --- ---- -- ------ ------<br>--- ----- -- ----,108527,108505,108093.84,108094,108094.32,108527.62,,30,how
screen,html.Screen,2_1_0_1_31,2022-05-12T13:53:51.855Z,,,,,,,,,,,,,,,,,53,,,,,,,,,,,,,,398.38000000000466,,response,,,,99,,,,,,,Space,keypress(Space),,,,,,,,---- -- ----- -- ------ - ------- --- ----------<br>------------- ------ ------ ---- ---- ------- ----- -- ----<br>-------- ------- -- ---------- --- - --- ----- ----- ----<br>---- --- --- close --- ---- ---- ------- ----- ---- -------<br>--- --- -- ----- -- --- ---- -- --- ---- -- ------ ------<br>--- ----- -- ----,108940,108926,108527.08,108527,108527.62,108940.5,,31,close
screen,html.Screen,2_1_0_1_32,2022-05-12T13:53:52.255Z,,,,,,,,,,,,,,,,,53,,,,,,,,,,,,,,392.5,,response,,,,99,,,,,,,Space,keypress(Space),,,,,,,,---- -- ----- -- ------ - ------- --- ----------<br>------------- ------ ------ ---- ---- ------- ----- -- ----<br>-------- ------- -- ---------- --- - --- ----- ----- ----<br>---- --- --- ----- you ---- ---- ------- ----- ---- -------<br>--- --- -- ----- -- --- ---- -- --- ---- -- ------ ------<br>--- ----- -- ----,109340,109333,108940.2,108940,108940.5,109340.72,,32,you
screen,html.Screen,2_1_0_1_33,2022-05-12T13:53:52.688Z,,,,,,,,,,,,,,,,,53,,,,,,,,,,,,,,414.27999999999884,,response,,,,99,,,,,,,Space,keypress(Space),,,,,,,,---- -- ----- -- ------ - ------- --- ----------<br>------------- ------ ------ ---- ---- ------- ----- -- ----<br>-------- ------- -- ---------- --- - --- ----- ----- ----<br>---- --- --- ----- --- feel ---- ------- ----- ---- -------<br>--- --- -- ----- -- --- ---- -- --- ---- -- ------ ------<br>--- ----- -- ----,109774,109755,109340.44,109341,109340.72,109774.92,,33,feel
screen,html.Screen,2_1_0_1_34,2022-05-12T13:53:53.105Z,,,,,,,,,,,,,,,,,53,,,,,,,,,,,,,,402.08000000000175,,response,,,,99,,,,,,,Space,keypress(Space),,,,,,,,---- -- ----- -- ------ - ------- --- ----------<br>------------- ------ ------ ---- ---- ------- ----- -- ----<br>-------- ------- -- ---------- --- - --- ----- ----- ----<br>---- --- --- ----- --- ---- that ------- ----- ---- -------<br>--- --- -- ----- -- --- ---- -- --- ---- -- ------ ------<br>--- ----- -- ----,110190,110177,109774.42,109775,109774.92,110193.02,,34,that
screen,html.Screen,2_1_0_1_35,2022-05-12T13:53:53.504Z,,,,,,,,,,,,,,,,,53,,,,,,,,,,,,,,388.9799999999959,,response,,,,99,,,,,,,Space,keypress(Space),,,,,,,,---- -- ----- -- ------ - ------- --- ----------<br>------------- ------ ------ ---- ---- ------- ----- -- ----<br>-------- ------- -- ---------- --- - --- ----- ----- ----<br>---- --- --- ----- --- ---- ---- matters ----- ---- -------<br>--- --- -- ----- -- --- ---- -- --- ---- -- ------ ------<br>--- ----- -- ----,110589,110582,110190.78,110190,110193.02,110589.72,,35,matters
screen,html.Screen,2_1_0_1_36,2022-05-12T13:53:53.921Z,,,,,,,,,,,,,,,,,53,,,,,,,,,,,,,,398.27999999999884,,response,,,,99,,,,,,,Space,keypress(Space),,,,,,,,"---- -- ----- -- ------ - ------- --- ----------<br>------------- ------ ------ ---- ---- ------- ----- -- ----<br>-------- ------- -- ---------- --- - --- ----- ----- ----<br>---- --- --- ----- --- ---- ---- ------- most, ---- -------<br>--- --- -- ----- -- --- ---- -- --- ---- -- ------ ------<br>--- ----- -- ----",111007,110988,110589.34,110589,110589.72,111007.88,,36,"most,"
screen,html.Screen,2_1_0_1_37,2022-05-12T13:53:54.318Z,,,,,,,,,,,,,,,,,53,,,,,,,,,,,,,,387.11999999999534,,response,,,,99,,,,,,,Space,keypress(Space),,,,,,,,---- -- ----- -- ------ - ------- --- ----------<br>------------- ------ ------ ---- ---- ------- ----- -- ----<br>-------- ------- -- ---------- --- - --- ----- ----- ----<br>---- --- --- ----- --- ---- ---- ------- ----- it's -------<br>--- --- -- ----- -- --- ---- -- --- ---- -- ------ ------<br>--- ----- -- ----,111403,111395,111007.34,111007,111007.88,111403.58,,37,it's
screen,html.Screen,2_1_0_1_38,2022-05-12T13:53:54.721Z,,,,,,,,,,,,,,,,,53,,,,,,,,,,,,,,381.41999999999825,,response,,,,99,,,,,,,Space,keypress(Space),,,,,,,,---- -- ----- -- ------ - ------- --- ----------<br>------------- ------ ------ ---- ---- ------- ----- -- ----<br>-------- ------- -- ---------- --- - --- ----- ----- ----<br>---- --- --- ----- --- ---- ---- ------- ----- ---- whether<br>--- --- -- ----- -- --- ---- -- --- ---- -- ------ ------<br>--- ----- -- ----,111806,111785,111403.46,111403,111403.58,111807.12,,38,whether
screen,html.Screen,2_1_0_1_39,2022-05-12T13:53:55.138Z,,,,,,,,,,,,,,,,,53,,,,,,,,,,,,,,399.88000000000466,,response,,,,99,,,,,,,Space,keypress(Space),,,,,,,,---- -- ----- -- ------ - ------- --- ----------<br>------------- ------ ------ ---- ---- ------- ----- -- ----<br>-------- ------- -- ---------- --- - --- ----- ----- ----<br>---- --- --- ----- --- ---- ---- ------- ----- ---- -------<br>you --- -- ----- -- --- ---- -- --- ---- -- ------ ------<br>--- ----- -- ----,112223,112207,111806.62,111807,111807.12,112224.02,,39,you
screen,html.Screen,2_1_0_1_40,2022-05-12T13:53:55.537Z,,,,,,,,,,,,,,,,,53,,,,,,,,,,,,,,389.9799999999959,,response,,,,99,,,,,,,Space,keypress(Space),,,,,,,,---- -- ----- -- ------ - ------- --- ----------<br>------------- ------ ------ ---- ---- ------- ----- -- ----<br>-------- ------- -- ---------- --- - --- ----- ----- ----<br>---- --- --- ----- --- ---- ---- ------- ----- ---- -------<br>--- are -- ----- -- --- ---- -- --- ---- -- ------ ------<br>--- ----- -- ----,112622,112614,112223.5,112224,112224.02,112623.08,,40,are
screen,html.Screen,2_1_0_1_41,2022-05-12T13:53:55.939Z,,,,,,,,,,,,,,,,,53,,,,,,,,,,,,,,381.91999999999825,,response,,,,99,,,,,,,Space,keypress(Space),,,,,,,,---- -- ----- -- ------ - ------- --- ----------<br>------------- ------ ------ ---- ---- ------- ----- -- ----<br>-------- ------- -- ---------- --- - --- ----- ----- ----<br>---- --- --- ----- --- ---- ---- ------- ----- ---- -------<br>--- --- as ----- -- --- ---- -- --- ---- -- ------ ------<br>--- ----- -- ----,113023,113005,112622.54,112623,112623.08,113024.3,,41,as
screen,html.Screen,2_1_0_1_42,2022-05-12T13:53:56.354Z,,,,,,,,,,,,,,,,,53,,,,,,,,,,,,,,386.6999999999971,,response,,,,99,,,,,,,Space,keypress(Space),,,,,,,,---- -- ----- -- ------ - ------- --- ----------<br>------------- ------ ------ ---- ---- ------- ----- -- ----<br>-------- ------- -- ---------- --- - --- ----- ----- ----<br>---- --- --- ----- --- ---- ---- ------- ----- ---- -------<br>--- --- -- close -- --- ---- -- --- ---- -- ------ ------<br>--- ----- -- ----,113439,113411,113023.88,113024,113024.3,113440.08,,42,close
screen,html.Screen,2_1_0_1_43,2022-05-12T13:53:56.755Z,,,,,,,,,,,,,,,,,53,,,,,,,,,,,,,,377.91999999999825,,response,,,,99,,,,,,,Space,keypress(Space),,,,,,,,---- -- ----- -- ------ - ------- --- ----------<br>------------- ------ ------ ---- ---- ------- ----- -- ----<br>-------- ------- -- ---------- --- - --- ----- ----- ----<br>---- --- --- ----- --- ---- ---- ------- ----- ---- -------<br>--- --- -- ----- as --- ---- -- --- ---- -- ------ ------<br>--- ----- -- ----,113840,113818,113439.58,113440,113440.08,113840.12,,43,as
screen,html.Screen,2_1_0_1_44,2022-05-12T13:53:57.151Z,,,,,,,,,,,,,,,,,53,,,,,,,,,,,,,,383.88000000000466,,response,,,,99,,,,,,,Space,keypress(Space),,,,,,,,---- -- ----- -- ------ - ------- --- ----------<br>------------- ------ ------ ---- ---- ------- ----- -- ----<br>-------- ------- -- ---------- --- - --- ----- ----- ----<br>---- --- --- ----- --- ---- ---- ------- ----- ---- -------<br>--- --- -- ----- -- you ---- -- --- ---- -- ------ ------<br>--- ----- -- ----,114236,114224,113839.74,113840,113840.12,114236.58,,44,you
screen,html.Screen,2_1_0_1_45,2022-05-12T13:53:57.554Z,,,,,,,,,,,,,,,,,53,,,,,,,,,,,,,,376.41999999999825,,response,,,,99,,,,,,,Space,keypress(Space),,,,,,,,---- -- ----- -- ------ - ------- --- ----------<br>------------- ------ ------ ---- ---- ------- ----- -- ----<br>-------- ------- -- ---------- --- - --- ----- ----- ----<br>---- --- --- ----- --- ---- ---- ------- ----- ---- -------<br>--- --- -- ----- -- --- want -- --- ---- -- ------ ------<br>--- ----- -- ----,114639,114613,114236.38,114236,114236.58,114640.44,,45,want
screen,html.Screen,2_1_0_1_46,2022-05-12T13:53:57.955Z,,,,,,,,,,,,,,,,,53,,,,,,,,,,,,,,379.5599999999977,,response,,,,99,,,,,,,Space,keypress(Space),,,,,,,,---- -- ----- -- ------ - ------- --- ----------<br>------------- ------ ------ ---- ---- ------- ----- -- ----<br>-------- ------- -- ---------- --- - --- ----- ----- ----<br>---- --- --- ----- --- ---- ---- ------- ----- ---- -------<br>--- --- -- ----- -- --- ---- to --- ---- -- ------ ------<br>--- ----- -- ----,115040,115020,114639.9,114639,114640.44,115040.56,,46,to
screen,html.Screen,2_1_0_1_47,2022-05-12T13:53:58.320Z,,,,,,,,,,,,,,,,,53,,,,,,,,,,,,,,354.4400000000023,,response,,,,99,,,,,,,Space,keypress(Space),,,,,,,,"---- -- ----- -- ------ - ------- --- ----------<br>------------- ------ ------ ---- ---- ------- ----- -- ----<br>-------- ------- -- ---------- --- - --- ----- ----- ----<br>---- --- --- ----- --- ---- ---- ------- ----- ---- -------<br>--- --- -- ----- -- --- ---- -- be, ---- -- ------ ------<br>--- ----- -- ----",115406,115395,115040.04,115040,115040.56,115407.3,,47,"be,"
screen,html.Screen,2_1_0_1_48,2022-05-12T13:53:58.754Z,,,,,,,,,,,,,,,,,53,,,,,,,,,,,,,,410.6999999999971,,response,,,,99,,,,,,,Space,keypress(Space),,,,,,,,---- -- ----- -- ------ - ------- --- ----------<br>------------- ------ ------ ---- ---- ------- ----- -- ----<br>-------- ------- -- ---------- --- - --- ----- ----- ----<br>---- --- --- ----- --- ---- ---- ------- ----- ---- -------<br>--- --- -- ----- -- --- ---- -- --- even -- ------ ------<br>--- ----- -- ----,115840,115818,115406.78,115406,115407.3,115840.36,,48,even
screen,html.Screen,2_1_0_1_49,2022-05-12T13:53:59.139Z,,,,,,,,,,,,,,,,,53,,,,,,,,,,,,,,366.6399999999994,,response,,,,99,,,,,,,Space,keypress(Space),,,,,,,,---- -- ----- -- ------ - ------- --- ----------<br>------------- ------ ------ ---- ---- ------- ----- -- ----<br>-------- ------- -- ---------- --- - --- ----- ----- ----<br>---- --- --- ----- --- ---- ---- ------- ----- ---- -------<br>--- --- -- ----- -- --- ---- -- --- ---- if ------ ------<br>--- ----- -- ----,116224,116207,115839.84,115840,115840.36,116224.86,,49,if
screen,html.Screen,2_1_0_1_50,2022-05-12T13:53:59.554Z,,,,,,,,,,,,,,,,,53,,,,,,,,,,,,,,388.1399999999994,,response,,,,99,,,,,,,Space,keypress(Space),,,,,,,,---- -- ----- -- ------ - ------- --- ----------<br>------------- ------ ------ ---- ---- ------- ----- -- ----<br>-------- ------- -- ---------- --- - --- ----- ----- ----<br>---- --- --- ----- --- ---- ---- ------- ----- ---- -------<br>--- --- -- ----- -- --- ---- -- --- ---- -- that's ------<br>--- ----- -- ----,116638,116613,116224.44,116225,116224.86,116639.48,,50,that's
screen,html.Screen,2_1_0_1_51,2022-05-12T13:53:59.969Z,,,,,,,,,,,,,,,,,53,,,,,,,,,,,,,,396.5200000000041,,response,,,,99,,,,,,,Space,keypress(Space),,,,,,,,---- -- ----- -- ------ - ------- --- ----------<br>------------- ------ ------ ---- ---- ------- ----- -- ----<br>-------- ------- -- ---------- --- - --- ----- ----- ----<br>---- --- --- ----- --- ---- ---- ------- ----- ---- -------<br>--- --- -- ----- -- --- ---- -- --- ---- -- ------ really<br>--- ----- -- ----,117054,117036,116638.94,116638,116639.48,117055.08,,51,really
screen,html.Screen,2_1_0_1_52,2022-05-12T13:54:00.400Z,,,,,,,,,,,,,,,,,53,,,,,,,,,,,,,,418.91999999999825,,response,,,,99,,,,,,,Space,keypress(Space),,,,,,,,---- -- ----- -- ------ - ------- --- ----------<br>------------- ------ ------ ---- ---- ------- ----- -- ----<br>-------- ------- -- ---------- --- - --- ----- ----- ----<br>---- --- --- ----- --- ---- ---- ------- ----- ---- -------<br>--- --- -- ----- -- --- ---- -- --- ---- -- ------ ------<br>not ----- -- ----,117484,117474,117054.58,117054,117055.08,117484.96,,52,not
screen,html.Screen,2_1_0_1_53,2022-05-12T13:54:00.788Z,,,,,,,,,,,,,,,,,53,,,,,,,,,,,,,,379.0399999999936,,response,,,,99,,,,,,,Space,keypress(Space),,,,,,,,---- -- ----- -- ------ - ------- --- ----------<br>------------- ------ ------ ---- ---- ------- ----- -- ----<br>-------- ------- -- ---------- --- - --- ----- ----- ----<br>---- --- --- ----- --- ---- ---- ------- ----- ---- -------<br>--- --- -- ----- -- --- ---- -- --- ---- -- ------ ------<br>--- close -- ----,117873,117864,117484.64,117484,117484.96,117874.32,,53,close
screen,html.Screen,2_1_0_1_54,2022-05-12T13:54:01.185Z,,,,,,,,,,,,,,,,,53,,,,,,,,,,,,,,379.679999999993,,response,,,,99,,,,,,,Space,keypress(Space),,,,,,,,---- -- ----- -- ------ - ------- --- ----------<br>------------- ------ ------ ---- ---- ------- ----- -- ----<br>-------- ------- -- ---------- --- - --- ----- ----- ----<br>---- --- --- ----- --- ---- ---- ------- ----- ---- -------<br>--- --- -- ----- -- --- ---- -- --- ---- -- ------ ------<br>--- ----- at ----,118271,118254,117873.78,117874,117874.32,118271.38,,54,at
screen,html.Screen,2_1_0_1_55,2022-05-12T13:54:05.856Z,,,,,,,,,,,,,,,,,53,,,,,,,,,,,,,,4655.619999999995,,response,,,,99,,,,,,,Space,keypress(Space),,,,,,,,---- -- ----- -- ------ - ------- --- ----------<br>------------- ------ ------ ---- ---- ------- ----- -- ----<br>-------- ------- -- ---------- --- - --- ----- ----- ----<br>---- --- --- ----- --- ---- ---- ------- ----- ---- -------<br>--- --- -- ----- -- --- ---- -- --- ---- -- ------ ------<br>--- ----- -- all.,122942,122927,118271.02,118271,118271.38,122943.9,,55,all.
Item 99,flow.Loop,2_1_0_1,2022-05-12T13:54:05.858Z,,,,,,,,,,,,,,,,,,,,,,,,,,,,,,,28578.64,,completion,,,,,D,,,,,,,,,,,silence,,,,,122943,122927,94331.7,94334,94348.36,122943.9,,,
Question 1,html.Screen,2_1_0_2,2022-05-12T13:54:10.495Z,,,,,,,,,,,,,,,,,,,,,,,,,,,,true,FALSE,,4623.100000000006,,response,,,,99,D,,,,,,FALSE,click #choice-2,,,,silence,,,,,127580,127567,122943.38,122944,122943.9,127581.88,,,
Question 2,html.Screen,2_1_0_3,2022-05-12T13:54:14.927Z,,,,,,,,,,,,,,,,,,,,,,,,,,,,true,TRUE,,4423.119999999995,,response,,,,99,D,,,,,,TRUE,click #choice-1,,,,silence,,,,,132012,132005,127579.08,127580,127581.88,132015.22,,,
Item 99,flow.Sequence,2_1_0,2022-05-12T13:54:14.927Z,,,,,,,,,,,,,,,,,,,,,,,,,,,,,,,47656.03999999999,,completion,,,,,,,,,,,,,,,,,,,,,132012,132005,84348.96,84352,84348.96,132015.22,,,
Holding screen,html.Screen,2_1_1_0,2022-05-12T13:54:24.915Z,,,,,,,,,,,,,,,,,,,,,,,,,,,,,,,10000.040000000008,,timeout,,,,,,,,,,,,,,,,,,,,,142000,141998.58,132011.42,132012,132015.22,142015.26,,,
screen,html.Screen,2_1_1_1_0,2022-05-12T13:54:25.746Z,,,,,,,,,,,,,,,,,54,,,,,,,,,,,,,,801.7399999999907,,response,,,,100,,,,,,,Space,keypress(Space),,,,,,,,At --- ---- --- ------ ----- ------- ---- -- --- ------- --<br>------- ---------- ------ -- ----- -- ----- -- ---- ------<br>--- ----- --- --- ------ -------- ----- --- ------ ----- --<br>----- ----- ---------- --- --- ------ ------ ---- -- ------<br>------- --- ------ ----- --- ---- ------- -- ---- --- --<br>------- ------,142831,142817,141998.58,142001,142015.26,142831.64,,0,At
screen,html.Screen,2_1_1_1_1,2022-05-12T13:54:26.064Z,,,,,,,,,,,,,,,,,54,,,,,,,,,,,,,,313.35999999998603,,response,,,,100,,,,,,,Space,keypress(Space),,,,,,,,-- the ---- --- ------ ----- ------- ---- -- --- ------- --<br>------- ---------- ------ -- ----- -- ----- -- ---- ------<br>--- ----- --- --- ------ -------- ----- --- ------ ----- --<br>----- ----- ---------- --- --- ------ ------ ---- -- ------<br>------- --- ------ ----- --- ---- ------- -- ---- --- --<br>------- ------,143150,143145,142831.1,142831,142831.64,143150.06,,1,the
screen,html.Screen,2_1_1_1_2,2022-05-12T13:54:26.290Z,,,,,,,,,,,,,,,,,54,,,,,,,,,,,,,,213.94000000000233,,response,,,,100,,,,,,,Space,keypress(Space),,,,,,,,-- --- time --- ------ ----- ------- ---- -- --- ------- --<br>------- ---------- ------ -- ----- -- ----- -- ---- ------<br>--- ----- --- --- ------ -------- ----- --- ------ ----- --<br>----- ----- ---------- --- --- ------ ------ ---- -- ------<br>------- --- ------ ----- --- ---- ------- -- ---- --- --<br>------- ------,143376,143364,143149.64,143150,143150.06,143376.82,,2,time
screen,html.Screen,2_1_1_1_3,2022-05-12T13:54:26.514Z,,,,,,,,,,,,,,,,,54,,,,,,,,,,,,,,205.17999999999302,,response,,,,100,,,,,,,Space,keypress(Space),,,,,,,,-- --- ---- the ------ ----- ------- ---- -- --- ------- --<br>------- ---------- ------ -- ----- -- ----- -- ---- ------<br>--- ----- --- --- ------ -------- ----- --- ------ ----- --<br>----- ----- ---------- --- --- ------ ------ ---- -- ------<br>------- --- ------ ----- --- ---- ------- -- ---- --- --<br>------- ------,143599,143582,143375.68,143376,143376.82,143599.92,,3,the
screen,html.Screen,2_1_1_1_4,2022-05-12T13:54:26.833Z,,,,,,,,,,,,,,,,,54,,,,,,,,,,,,,,295.0799999999872,,response,,,,100,,,,,,,Space,keypress(Space),,,,,,,,-- --- ---- --- French ----- ------- ---- -- --- ------- --<br>------- ---------- ------ -- ----- -- ----- -- ---- ------<br>--- ----- --- --- ------ -------- ----- --- ------ ----- --<br>----- ----- ---------- --- --- ------ ------ ---- -- ------<br>------- --- ------ ----- --- ---- ------- -- ---- --- --<br>------- ------,143918,143895,143599.42,143600,143599.92,143919.18,,4,French
screen,html.Screen,2_1_1_1_5,2022-05-12T13:54:27.247Z,,,,,,,,,,,,,,,,,54,,,,,,,,,,,,,,398.820000000007,,response,,,,100,,,,,,,Space,keypress(Space),,,,,,,,-- --- ---- --- ------ crown ------- ---- -- --- ------- --<br>------- ---------- ------ -- ----- -- ----- -- ---- ------<br>--- ----- --- --- ------ -------- ----- --- ------ ----- --<br>----- ----- ---------- --- --- ------ ------ ---- -- ------<br>------- --- ------ ----- --- ---- ------- -- ---- --- --<br>------- ------,144333,144318,143918.66,143918,143919.18,144333.18,,5,crown
screen,html.Screen,2_1_1_1_6,2022-05-12T13:54:27.648Z,,,,,,,,,,,,,,,,,54,,,,,,,,,,,,,,390.820000000007,,response,,,,100,,,,,,,Space,keypress(Space),,,,,,,,-- --- ---- --- ------ ----- secured ---- -- --- ------- --<br>------- ---------- ------ -- ----- -- ----- -- ---- ------<br>--- ----- --- --- ------ -------- ----- --- ------ ----- --<br>----- ----- ---------- --- --- ------ ------ ---- -- ------<br>------- --- ------ ----- --- ---- ------- -- ---- --- --<br>------- ------,144734,144724,144332.86,144333,144333.18,144734.9,,6,secured
screen,html.Screen,2_1_1_1_7,2022-05-12T13:54:28.002Z,,,,,,,,,,,,,,,,,54,,,,,,,,,,,,,,333.1000000000058,,response,,,,100,,,,,,,Space,keypress(Space),,,,,,,,-- --- ---- --- ------ ----- ------- much -- --- ------- --<br>------- ---------- ------ -- ----- -- ----- -- ---- ------<br>--- ----- --- --- ------ -------- ----- --- ------ ----- --<br>----- ----- ---------- --- --- ------ ------ ---- -- ------<br>------- --- ------ ----- --- ---- ------- -- ---- --- --<br>------- ------,145087,145068,144734.36,144734,144734.9,145087.84,,7,much
screen,html.Screen,2_1_1_1_8,2022-05-12T13:54:28.449Z,,,,,,,,,,,,,,,,,54,,,,,,,,,,,,,,433.1600000000035,,response,,,,100,,,,,,,Space,keypress(Space),,,,,,,,-- --- ---- --- ------ ----- ------- ---- of --- ------- --<br>------- ---------- ------ -- ----- -- ----- -- ---- ------<br>--- ----- --- --- ------ -------- ----- --- ------ ----- --<br>----- ----- ---------- --- --- ------ ------ ---- -- ------<br>------- --- ------ ----- --- ---- ------- -- ---- --- --<br>------- ------,145535,145521,145087.34,145087,145087.84,145535.54,,8,of
screen,html.Screen,2_1_1_1_9,2022-05-12T13:54:28.800Z,,,,,,,,,,,,,,,,,54,,,,,,,,,,,,,,327.45999999999185,,response,,,,100,,,,,,,Space,keypress(Space),,,,,,,,-- --- ---- --- ------ ----- ------- ---- -- its ------- --<br>------- ---------- ------ -- ----- -- ----- -- ---- ------<br>--- ----- --- --- ------ -------- ----- --- ------ ----- --<br>----- ----- ---------- --- --- ------ ------ ---- -- ------<br>------- --- ------ ----- --- ---- ------- -- ---- --- --<br>------- ------,145885,145863,145535.02,145535,145535.54,145886.64,,9,its
screen,html.Screen,2_1_1_1_10,2022-05-12T13:54:29.185Z,,,,,,,,,,,,,,,,,54,,,,,,,,,,,,,,368.35999999998603,,response,,,,100,,,,,,,Space,keypress(Space),,,,,,,,-- --- ---- --- ------ ----- ------- ---- -- --- revenue --<br>------- ---------- ------ -- ----- -- ----- -- ---- ------<br>--- ----- --- --- ------ -------- ----- --- ------ ----- --<br>----- ----- ---------- --- --- ------ ------ ---- -- ------<br>------- --- ------ ----- --- ---- ------- -- ---- --- --<br>------- ------,146270,146255,145886.06,145886,145886.64,146271.14,,10,revenue
screen,html.Screen,2_1_1_1_11,2022-05-12T13:54:29.761Z,,,,,,,,,,,,,,,,,54,,,,,,,,,,,,,,561.859999999986,,response,,,,100,,,,,,,Space,keypress(Space),,,,,,,,-- --- ---- --- ------ ----- ------- ---- -- --- ------- by<br>------- ---------- ------ -- ----- -- ----- -- ---- ------<br>--- ----- --- --- ------ -------- ----- --- ------ ----- --<br>----- ----- ---------- --- --- ------ ------ ---- -- ------<br>------- --- ------ ----- --- ---- ------- -- ---- --- --<br>------- ------,146847,146833,146270.62,146270,146271.14,146847.8,,11,by
screen,html.Screen,2_1_1_1_12,2022-05-12T13:54:30.367Z,,,,,,,,,,,,,,,,,54,,,,,,,,,,,,,,595.2000000000116,,response,,,,100,,,,,,,Space,keypress(Space),,,,,,,,-- --- ---- --- ------ ----- ------- ---- -- --- ------- --<br>issuing ---------- ------ -- ----- -- ----- -- ---- ------<br>--- ----- --- --- ------ -------- ----- --- ------ ----- --<br>----- ----- ---------- --- --- ------ ------ ---- -- ------<br>------- --- ------ ----- --- ---- ------- -- ---- --- --<br>------- ------,147453,147443,146847.28,146848,146847.8,147453.02,,12,issuing
screen,html.Screen,2_1_1_1_13,2022-05-12T13:54:30.913Z,,,,,,,,,,,,,,,,,54,,,,,,,,,,,,,,520.9800000000105,,response,,,,100,,,,,,,Space,keypress(Space),,,,,,,,-- --- ---- --- ------ ----- ------- ---- -- --- ------- --<br>------- government ------ -- ----- -- ----- -- ---- ------<br>--- ----- --- --- ------ -------- ----- --- ------ ----- --<br>----- ----- ---------- --- --- ------ ------ ---- -- ------<br>------- --- ------ ----- --- ---- ------- -- ---- --- --<br>------- ------,147998,147974,147452.76,147453,147453.02,147999.26,,13,government
screen,html.Screen,2_1_1_1_14,2022-05-12T13:54:32.593Z,,,,,,,,,,,,,,,,,54,,,,,,,,,,,,,,1661.7399999999907,,response,,,,100,,,,,,,Space,keypress(Space),,,,,,,,-- --- ---- --- ------ ----- ------- ---- -- --- ------- --<br>------- ---------- bonds. -- ----- -- ----- -- ---- ------<br>--- ----- --- --- ------ -------- ----- --- ------ ----- --<br>----- ----- ---------- --- --- ------ ------ ---- -- ------<br>------- --- ------ ----- --- ---- ------- -- ---- --- --<br>------- ------,149679,149661,147998.74,147999,147999.26,149679.82,,14,bonds.
screen,html.Screen,2_1_1_1_15,2022-05-12T13:54:32.976Z,,,,,,,,,,,,,,,,,54,,,,,,,,,,,,,,372.179999999993,,response,,,,100,,,,,,,Space,keypress(Space),,,,,,,,-- --- ---- --- ------ ----- ------- ---- -- --- ------- --<br>------- ---------- ------ In ----- -- ----- -- ---- ------<br>--- ----- --- --- ------ -------- ----- --- ------ ----- --<br>----- ----- ---------- --- --- ------ ------ ---- -- ------<br>------- --- ------ ----- --- ---- ------- -- ---- --- --<br>------- ------,150062,150052,149679.3,149679,149679.82,150062.84,,15,In
screen,html.Screen,2_1_1_1_16,2022-05-12T13:54:33.328Z,,,,,,,,,,,,,,,,,54,,,,,,,,,,,,,,332.1600000000035,,response,,,,100,,,,,,,Space,keypress(Space),,,,,,,,"-- --- ---- --- ------ ----- ------- ---- -- --- ------- --<br>------- ---------- ------ -- 1727, -- ----- -- ---- ------<br>--- ----- --- --- ------ -------- ----- --- ------ ----- --<br>----- ----- ---------- --- --- ------ ------ ---- -- ------<br>------- --- ------ ----- --- ---- ------- -- ---- --- --<br>------- ------",150413,150395,150062.34,150063,150062.84,150413.66,,16,"1727,"
screen,html.Screen,2_1_1_1_17,2022-05-12T13:54:34.178Z,,,,,,,,,,,,,,,,,54,,,,,,,,,,,,,,841.3399999999965,,response,,,,100,,,,,,,Space,keypress(Space),,,,,,,,-- --- ---- --- ------ ----- ------- ---- -- --- ------- --<br>------- ---------- ------ -- ----- in ----- -- ---- ------<br>--- ----- --- --- ------ -------- ----- --- ------ ----- --<br>----- ----- ---------- --- --- ------ ------ ---- -- ------<br>------- --- ------ ----- --- ---- ------- -- ---- --- --<br>------- ------,151263,151255,150413.28,150413,150413.66,151265.28,,17,in
screen,html.Screen,2_1_1_1_18,2022-05-12T13:54:34.574Z,,,,,,,,,,,,,,,,,54,,,,,,,,,,,,,,380.72000000000116,,response,,,,100,,,,,,,Space,keypress(Space),,,,,,,,-- --- ---- --- ------ ----- ------- ---- -- --- ------- --<br>------- ---------- ------ -- ----- -- order -- ---- ------<br>--- ----- --- --- ------ -------- ----- --- ------ ----- --<br>----- ----- ---------- --- --- ------ ------ ---- -- ------<br>------- --- ------ ----- --- ---- ------- -- ---- --- --<br>------- ------,151660,151646,151263.7,151263,151265.28,151660,,18,order
screen,html.Screen,2_1_1_1_19,2022-05-12T13:54:34.881Z,,,,,,,,,,,,,,,,,54,,,,,,,,,,,,,,298,,response,,,,100,,,,,,,Space,keypress(Space),,,,,,,,-- --- ---- --- ------ ----- ------- ---- -- --- ------- --<br>------- ---------- ------ -- ----- -- ----- to ---- ------<br>--- ----- --- --- ------ -------- ----- --- ------ ----- --<br>----- ----- ---------- --- --- ------ ------ ---- -- ------<br>------- --- ------ ----- --- ---- ------- -- ---- --- --<br>------- ------,151966,151958,151659.74,151660,151660,151967.06,,19,to
screen,html.Screen,2_1_1_1_20,2022-05-12T13:54:35.107Z,,,,,,,,,,,,,,,,,54,,,,,,,,,,,,,,208.94000000000233,,response,,,,100,,,,,,,Space,keypress(Space),,,,,,,,-- --- ---- --- ------ ----- ------- ---- -- --- ------- --<br>------- ---------- ------ -- ----- -- ----- -- save ------<br>--- ----- --- --- ------ -------- ----- --- ------ ----- --<br>----- ----- ---------- --- --- ------ ------ ---- -- ------<br>------- --- ------ ----- --- ---- ------- -- ---- --- --<br>------- ------,152192,152176,151966.52,151966,151967.06,152192.54,,20,save
screen,html.Screen,2_1_1_1_21,2022-05-12T13:54:35.489Z,,,,,,,,,,,,,,,,,54,,,,,,,,,,,,,,359.45999999999185,,response,,,,100,,,,,,,Space,keypress(Space),,,,,,,,"-- --- ---- --- ------ ----- ------- ---- -- --- ------- --<br>------- ---------- ------ -- ----- -- ----- -- ---- money,<br>--- ----- --- --- ------ -------- ----- --- ------ ----- --<br>----- ----- ---------- --- --- ------ ------ ---- -- ------<br>------- --- ------ ----- --- ---- ------- -- ---- --- --<br>------- ------",152574,152552,152192,152192,152192.54,152575.08,,21,"money,"
screen,html.Screen,2_1_1_1_22,2022-05-12T13:54:35.906Z,,,,,,,,,,,,,,,,,54,,,,,,,,,,,,,,397.9200000000128,,response,,,,100,,,,,,,Space,keypress(Space),,,,,,,,-- --- ---- --- ------ ----- ------- ---- -- --- ------- --<br>------- ---------- ------ -- ----- -- ----- -- ---- ------<br>the ----- --- --- ------ -------- ----- --- ------ ----- --<br>----- ----- ---------- --- --- ------ ------ ---- -- ------<br>------- --- ------ ----- --- ---- ------- -- ---- --- --<br>------- ------,152991,152973,152574.54,152575,152575.08,152991.5,,22,the
screen,html.Screen,2_1_1_1_23,2022-05-12T13:54:36.256Z,,,,,,,,,,,,,,,,,54,,,,,,,,,,,,,,340.5,,response,,,,100,,,,,,,Space,keypress(Space),,,,,,,,-- --- ---- --- ------ ----- ------- ---- -- --- ------- --<br>------- ---------- ------ -- ----- -- ----- -- ---- ------<br>--- state --- --- ------ -------- ----- --- ------ ----- --<br>----- ----- ---------- --- --- ------ ------ ---- -- ------<br>------- --- ------ ----- --- ---- ------- -- ---- --- --<br>------- ------,153341,153332,152991.1,152991,152991.5,153340.9,,23,state
screen,html.Screen,2_1_1_1_24,2022-05-12T13:54:36.558Z,,,,,,,,,,,,,,,,,54,,,,,,,,,,,,,,289.1000000000058,,response,,,,100,,,,,,,Space,keypress(Space),,,,,,,,-- --- ---- --- ------ ----- ------- ---- -- --- ------- --<br>------- ---------- ------ -- ----- -- ----- -- ---- ------<br>--- ----- cut --- ------ -------- ----- --- ------ ----- --<br>----- ----- ---------- --- --- ------ ------ ---- -- ------<br>------- --- ------ ----- --- ---- ------- -- ---- --- --<br>------- ------,153643,153630,153340.62,153341,153340.9,153643.26,,24,cut
screen,html.Screen,2_1_1_1_25,2022-05-12T13:54:36.862Z,,,,,,,,,,,,,,,,,54,,,,,,,,,,,,,,299.7399999999907,,response,,,,100,,,,,,,Space,keypress(Space),,,,,,,,-- --- ---- --- ------ ----- ------- ---- -- --- ------- --<br>------- ---------- ------ -- ----- -- ----- -- ---- ------<br>--- ----- --- the ------ -------- ----- --- ------ ----- --<br>----- ----- ---------- --- --- ------ ------ ---- -- ------<br>------- --- ------ ----- --- ---- ------- -- ---- --- --<br>------- ------,153946,153943,153643.08,153643,153643.26,153947.14,,25,the
screen,html.Screen,2_1_1_1_26,2022-05-12T13:54:37.198Z,,,,,,,,,,,,,,,,,54,,,,,,,,,,,,,,323.85999999998603,,response,,,,100,,,,,,,Space,keypress(Space),,,,,,,,-- --- ---- --- ------ ----- ------- ---- -- --- ------- --<br>------- ---------- ------ -- ----- -- ----- -- ---- ------<br>--- ----- --- --- bonds' -------- ----- --- ------ ----- --<br>----- ----- ---------- --- --- ------ ------ ---- -- ------<br>------- --- ------ ----- --- ---- ------- -- ---- --- --<br>------- ------,154284,154271,153947,153947,153947.14,154283.86,,26,bonds'
screen,html.Screen,2_1_1_1_27,2022-05-12T13:54:37.633Z,,,,,,,,,,,,,,,,,54,,,,,,,,,,,,,,408.14000000001397,,response,,,,100,,,,,,,Space,keypress(Space),,,,,,,,-- --- ---- --- ------ ----- ------- ---- -- --- ------- --<br>------- ---------- ------ -- ----- -- ----- -- ---- ------<br>--- ----- --- --- ------ interest ----- --- ------ ----- --<br>----- ----- ---------- --- --- ------ ------ ---- -- ------<br>------- --- ------ ----- --- ---- ------- -- ---- --- --<br>------- ------,154718,154692,154283.64,154284,154283.86,154719.2,,27,interest
screen,html.Screen,2_1_1_1_28,2022-05-12T13:54:38.015Z,,,,,,,,,,,,,,,,,54,,,,,,,,,,,,,,363.79999999998836,,response,,,,100,,,,,,,Space,keypress(Space),,,,,,,,-- --- ---- --- ------ ----- ------- ---- -- --- ------- --<br>------- ---------- ------ -- ----- -- ----- -- ---- ------<br>--- ----- --- --- ------ -------- rate. --- ------ ----- --<br>----- ----- ---------- --- --- ------ ------ ---- -- ------<br>------- --- ------ ----- --- ---- ------- -- ---- --- --<br>------- ------,155100,155083,154718.66,154718,154719.2,155100.72,,28,rate.
screen,html.Screen,2_1_1_1_29,2022-05-12T13:54:38.704Z,,,,,,,,,,,,,,,,,54,,,,,,,,,,,,,,684.2799999999988,,response,,,,100,,,,,,,Space,keypress(Space),,,,,,,,-- --- ---- --- ------ ----- ------- ---- -- --- ------- --<br>------- ---------- ------ -- ----- -- ----- -- ---- ------<br>--- ----- --- --- ------ -------- ----- The ------ ----- --<br>----- ----- ---------- --- --- ------ ------ ---- -- ------<br>------- --- ------ ----- --- ---- ------- -- ---- --- --<br>------- ------,155789,155785,155100.38,155100,155100.72,155789.76,,29,The
screen,html.Screen,2_1_1_1_30,2022-05-12T13:54:39.074Z,,,,,,,,,,,,,,,,,54,,,,,,,,,,,,,,356.2399999999907,,response,,,,100,,,,,,,Space,keypress(Space),,,,,,,,-- --- ---- --- ------ ----- ------- ---- -- --- ------- --<br>------- ---------- ------ -- ----- -- ----- -- ---- ------<br>--- ----- --- --- ------ -------- ----- --- market ----- --<br>----- ----- ---------- --- --- ------ ------ ---- -- ------<br>------- --- ------ ----- --- ---- ------- -- ---- --- --<br>------- ------,156159,156146,155789.42,155789,155789.76,156160.5,,30,market
screen,html.Screen,2_1_1_1_31,2022-05-12T13:54:39.425Z,,,,,,,,,,,,,,,,,54,,,,,,,,,,,,,,343.5,,response,,,,100,,,,,,,Space,keypress(Space),,,,,,,,-- --- ---- --- ------ ----- ------- ---- -- --- ------- --<br>------- ---------- ------ -- ----- -- ----- -- ---- ------<br>--- ----- --- --- ------ -------- ----- --- ------ value --<br>----- ----- ---------- --- --- ------ ------ ---- -- ------<br>------- --- ------ ----- --- ---- ------- -- ---- --- --<br>------- ------,156510,156504,156159.98,156160,156160.5,156511.28,,31,value
screen,html.Screen,2_1_1_1_32,2022-05-12T13:54:39.761Z,,,,,,,,,,,,,,,,,54,,,,,,,,,,,,,,320.72000000000116,,response,,,,100,,,,,,,Space,keypress(Space),,,,,,,,-- --- ---- --- ------ ----- ------- ---- -- --- ------- --<br>------- ---------- ------ -- ----- -- ----- -- ---- ------<br>--- ----- --- --- ------ -------- ----- --- ------ ----- of<br>----- ----- ---------- --- --- ------ ------ ---- -- ------<br>------- --- ------ ----- --- ---- ------- -- ---- --- --<br>------- ------,156846,156832,156510.74,156510,156511.28,156848.78,,32,of
screen,html.Screen,2_1_1_1_33,2022-05-12T13:54:40.049Z,,,,,,,,,,,,,,,,,54,,,,,,,,,,,,,,265.22000000000116,,response,,,,100,,,,,,,Space,keypress(Space),,,,,,,,-- --- ---- --- ------ ----- ------- ---- -- --- ------- --<br>------- ---------- ------ -- ----- -- ----- -- ---- ------<br>--- ----- --- --- ------ -------- ----- --- ------ ----- --<br>these ----- ---------- --- --- ------ ------ ---- -- ------<br>------- --- ------ ----- --- ---- ------- -- ---- --- --<br>------- ------,157133,157114,156846.98,156847,156848.78,157135.16,,33,these
screen,html.Screen,2_1_1_1_34,2022-05-12T13:54:40.401Z,,,,,,,,,,,,,,,,,54,,,,,,,,,,,,,,337.8399999999965,,response,,,,100,,,,,,,Space,keypress(Space),,,,,,,,-- --- ---- --- ------ ----- ------- ---- -- --- ------- --<br>------- ---------- ------ -- ----- -- ----- -- ---- ------<br>--- ----- --- --- ------ -------- ----- --- ------ ----- --<br>----- bonds ---------- --- --- ------ ------ ---- -- ------<br>------- --- ------ ----- --- ---- ------- -- ---- --- --<br>------- ------,157487,157473,157134.62,157134,157135.16,157487.46,,34,bonds
screen,html.Screen,2_1_1_1_35,2022-05-12T13:54:40.738Z,,,,,,,,,,,,,,,,,54,,,,,,,,,,,,,,313.54000000000815,,response,,,,100,,,,,,,Space,keypress(Space),,,,,,,,"-- --- ---- --- ------ ----- ------- ---- -- --- ------- --<br>------- ---------- ------ -- ----- -- ----- -- ---- ------<br>--- ----- --- --- ------ -------- ----- --- ------ ----- --<br>----- ----- plummeted, --- --- ------ ------ ---- -- ------<br>------- --- ------ ----- --- ---- ------- -- ---- --- --<br>------- ------",157823,157801,157486.96,157487,157487.46,157823.84,,35,"plummeted,"
screen,html.Screen,2_1_1_1_36,2022-05-12T13:54:41.218Z,,,,,,,,,,,,,,,,,54,,,,,,,,,,,,,,461.1600000000035,,response,,,,100,,,,,,,Space,keypress(Space),,,,,,,,-- --- ---- --- ------ ----- ------- ---- -- --- ------- --<br>------- ---------- ------ -- ----- -- ----- -- ---- ------<br>--- ----- --- --- ------ -------- ----- --- ------ ----- --<br>----- ----- ---------- and --- ------ ------ ---- -- ------<br>------- --- ------ ----- --- ---- ------- -- ---- --- --<br>------- ------,158303,158285,157823.3,157823,157823.84,158304.48,,36,and
screen,html.Screen,2_1_1_1_37,2022-05-12T13:54:41.616Z,,,,,,,,,,,,,,,,,54,,,,,,,,,,,,,,387.5199999999895,,response,,,,100,,,,,,,Space,keypress(Space),,,,,,,,-- --- ---- --- ------ ----- ------- ---- -- --- ------- --<br>------- ---------- ------ -- ----- -- ----- -- ---- ------<br>--- ----- --- --- ------ -------- ----- --- ------ ----- --<br>----- ----- ---------- --- the ------ ------ ---- -- ------<br>------- --- ------ ----- --- ---- ------- -- ---- --- --<br>------- ------,158701,158692,158303.94,158304,158304.48,158701.28,,37,the
screen,html.Screen,2_1_1_1_38,2022-05-12T13:54:42.160Z,,,,,,,,,,,,,,,,,54,,,,,,,,,,,,,,521.7200000000012,,response,,,,100,,,,,,,Space,keypress(Space),,,,,,,,-- --- ---- --- ------ ----- ------- ---- -- --- ------- --<br>------- ---------- ------ -- ----- -- ----- -- ---- ------<br>--- ----- --- --- ------ -------- ----- --- ------ ----- --<br>----- ----- ---------- --- --- market ------ ---- -- ------<br>------- --- ------ ----- --- ---- ------- -- ---- --- --<br>------- ------,159246,159223,158700.92,158701,158701.28,159246.1,,38,market
screen,html.Screen,2_1_1_1_39,2022-05-12T13:54:42.529Z,,,,,,,,,,,,,,,,,54,,,,,,,,,,,,,,351.8999999999942,,response,,,,100,,,,,,,Space,keypress(Space),,,,,,,,-- --- ---- --- ------ ----- ------- ---- -- --- ------- --<br>------- ---------- ------ -- ----- -- ----- -- ---- ------<br>--- ----- --- --- ------ -------- ----- --- ------ ----- --<br>----- ----- ---------- --- --- ------ became ---- -- ------<br>------- --- ------ ----- --- ---- ------- -- ---- --- --<br>------- ------,159614,159598,159245.6,159246,159246.1,159615.42,,39,became
screen,html.Screen,2_1_1_1_40,2022-05-12T13:54:42.945Z,,,,,,,,,,,,,,,,,54,,,,,,,,,,,,,,405.5799999999872,,response,,,,100,,,,,,,Space,keypress(Space),,,,,,,,-- --- ---- --- ------ ----- ------- ---- -- --- ------- --<br>------- ---------- ------ -- ----- -- ----- -- ---- ------<br>--- ----- --- --- ------ -------- ----- --- ------ ----- --<br>----- ----- ---------- --- --- ------ ------ wary -- ------<br>------- --- ------ ----- --- ---- ------- -- ---- --- --<br>------- ------,160031,160021,159614.58,159614,159615.42,160031.4,,40,wary
screen,html.Screen,2_1_1_1_41,2022-05-12T13:54:43.343Z,,,,,,,,,,,,,,,,,54,,,,,,,,,,,,,,378.6000000000058,,response,,,,100,,,,,,,Space,keypress(Space),,,,,,,,-- --- ---- --- ------ ----- ------- ---- -- --- ------- --<br>------- ---------- ------ -- ----- -- ----- -- ---- ------<br>--- ----- --- --- ------ -------- ----- --- ------ ----- --<br>----- ----- ---------- --- --- ------ ------ ---- of ------<br>------- --- ------ ----- --- ---- ------- -- ---- --- --<br>------- ------,160427,160410,160030.88,160031,160031.4,160428.26,,41,of
screen,html.Screen,2_1_1_1_42,2022-05-12T13:54:43.695Z,,,,,,,,,,,,,,,,,54,,,,,,,,,,,,,,342.7399999999907,,response,,,,100,,,,,,,Space,keypress(Space),,,,,,,,-- --- ---- --- ------ ----- ------- ---- -- --- ------- --<br>------- ---------- ------ -- ----- -- ----- -- ---- ------<br>--- ----- --- --- ------ -------- ----- --- ------ ----- --<br>----- ----- ---------- --- --- ------ ------ ---- -- French<br>------- --- ------ ----- --- ---- ------- -- ---- --- --<br>------- ------,160780,160771,160428.02,160428,160428.26,160780.02,,42,French
screen,html.Screen,2_1_1_1_43,2022-05-12T13:54:44.079Z,,,,,,,,,,,,,,,,,54,,,,,,,,,,,,,,365.9800000000105,,response,,,,100,,,,,,,Space,keypress(Space),,,,,,,,-- --- ---- --- ------ ----- ------- ---- -- --- ------- --<br>------- ---------- ------ -- ----- -- ----- -- ---- ------<br>--- ----- --- --- ------ -------- ----- --- ------ ----- --<br>----- ----- ---------- --- --- ------ ------ ---- -- ------<br>credit. --- ------ ----- --- ---- ------- -- ---- --- --<br>------- ------,161164,161146,160779.84,160780,160780.02,161164.5,,43,credit.
screen,html.Screen,2_1_1_1_44,2022-05-12T13:54:44.495Z,,,,,,,,,,,,,,,,,54,,,,,,,,,,,,,,402.5,,response,,,,100,,,,,,,Space,keypress(Space),,,,,,,,-- --- ---- --- ------ ----- ------- ---- -- --- ------- --<br>------- ---------- ------ -- ----- -- ----- -- ---- ------<br>--- ----- --- --- ------ -------- ----- --- ------ ----- --<br>----- ----- ---------- --- --- ------ ------ ---- -- ------<br>------- The ------ ----- --- ---- ------- -- ---- --- --<br>------- ------,161581,161567,161164.32,161164,161164.5,161580.78,,44,The
screen,html.Screen,2_1_1_1_45,2022-05-12T13:54:44.895Z,,,,,,,,,,,,,,,,,54,,,,,,,,,,,,,,393.22000000000116,,response,,,,100,,,,,,,Space,keypress(Space),,,,,,,,-- --- ---- --- ------ ----- ------- ---- -- --- ------- --<br>------- ---------- ------ -- ----- -- ----- -- ---- ------<br>--- ----- --- --- ------ -------- ----- --- ------ ----- --<br>----- ----- ---------- --- --- ------ ------ ---- -- ------<br>------- --- French ----- --- ---- ------- -- ---- --- --<br>------- ------,161980,161974,161580.54,161581,161580.78,161980.46,,45,French
screen,html.Screen,2_1_1_1_46,2022-05-12T13:54:45.248Z,,,,,,,,,,,,,,,,,54,,,,,,,,,,,,,,337.54000000000815,,response,,,,100,,,,,,,Space,keypress(Space),,,,,,,,-- --- ---- --- ------ ----- ------- ---- -- --- ------- --<br>------- ---------- ------ -- ----- -- ----- -- ---- ------<br>--- ----- --- --- ------ -------- ----- --- ------ ----- --<br>----- ----- ---------- --- --- ------ ------ ---- -- ------<br>------- --- ------ state --- ---- ------- -- ---- --- --<br>------- ------,162333,162318,161980.28,161980,161980.46,162333.56,,46,state
screen,html.Screen,2_1_1_1_47,2022-05-12T13:54:45.603Z,,,,,,,,,,,,,,,,,54,,,,,,,,,,,,,,327.4400000000023,,response,,,,100,,,,,,,Space,keypress(Space),,,,,,,,-- --- ---- --- ------ ----- ------- ---- -- --- ------- --<br>------- ---------- ------ -- ----- -- ----- -- ---- ------<br>--- ----- --- --- ------ -------- ----- --- ------ ----- --<br>----- ----- ---------- --- --- ------ ------ ---- -- ------<br>------- --- ------ ----- was ---- ------- -- ---- --- --<br>------- ------,162688,162661,162333.16,162333,162333.56,162689.16,,47,was
screen,html.Screen,2_1_1_1_48,2022-05-12T13:54:45.922Z,,,,,,,,,,,,,,,,,54,,,,,,,,,,,,,,298.8399999999965,,response,,,,100,,,,,,,Space,keypress(Space),,,,,,,,-- --- ---- --- ------ ----- ------- ---- -- --- ------- --<br>------- ---------- ------ -- ----- -- ----- -- ---- ------<br>--- ----- --- --- ------ -------- ----- --- ------ ----- --<br>----- ----- ---------- --- --- ------ ------ ---- -- ------<br>------- --- ------ ----- --- left ------- -- ---- --- --<br>------- ------,163007,162988,162688.66,162688,162689.16,163007.86,,48,left
screen,html.Screen,2_1_1_1_49,2022-05-12T13:54:46.353Z,,,,,,,,,,,,,,,,,54,,,,,,,,,,,,,,402.14000000001397,,response,,,,100,,,,,,,Space,keypress(Space),,,,,,,,-- --- ---- --- ------ ----- ------- ---- -- --- ------- --<br>------- ---------- ------ -- ----- -- ----- -- ---- ------<br>--- ----- --- --- ------ -------- ----- --- ------ ----- --<br>----- ----- ---------- --- --- ------ ------ ---- -- ------<br>------- --- ------ ----- --- ---- without -- ---- --- --<br>------- ------,163438,163410,163007.42,163007,163007.86,163438.78,,49,without
screen,html.Screen,2_1_1_1_50,2022-05-12T13:54:46.674Z,,,,,,,,,,,,,,,,,54,,,,,,,,,,,,,,299.22000000000116,,response,,,,100,,,,,,,Space,keypress(Space),,,,,,,,-- --- ---- --- ------ ----- ------- ---- -- --- ------- --<br>------- ---------- ------ -- ----- -- ----- -- ---- ------<br>--- ----- --- --- ------ -------- ----- --- ------ ----- --<br>----- ----- ---------- --- --- ------ ------ ---- -- ------<br>------- --- ------ ----- --- ---- ------- an ---- --- --<br>------- ------,163759,163738,163438.24,163438,163438.78,163759.4,,50,an
screen,html.Screen,2_1_1_1_51,2022-05-12T13:54:46.976Z,,,,,,,,,,,,,,,,,54,,,,,,,,,,,,,,292.6000000000058,,response,,,,100,,,,,,,Space,keypress(Space),,,,,,,,-- --- ---- --- ------ ----- ------- ---- -- --- ------- --<br>------- ---------- ------ -- ----- -- ----- -- ---- ------<br>--- ----- --- --- ------ -------- ----- --- ------ ----- --<br>----- ----- ---------- --- --- ------ ------ ---- -- ------<br>------- --- ------ ----- --- ---- ------- -- easy --- --<br>------- ------,164062,164052,163758.9,163759,163759.4,164062.96,,51,easy
screen,html.Screen,2_1_1_1_52,2022-05-12T13:54:47.329Z,,,,,,,,,,,,,,,,,54,,,,,,,,,,,,,,333.04000000000815,,response,,,,100,,,,,,,Space,keypress(Space),,,,,,,,-- --- ---- --- ------ ----- ------- ---- -- --- ------- --<br>------- ---------- ------ -- ----- -- ----- -- ---- ------<br>--- ----- --- --- ------ -------- ----- --- ------ ----- --<br>----- ----- ---------- --- --- ------ ------ ---- -- ------<br>------- --- ------ ----- --- ---- ------- -- ---- way --<br>------- ------,164414,164396,164062.42,164062,164062.96,164415.4,,52,way
screen,html.Screen,2_1_1_1_53,2022-05-12T13:54:47.730Z,,,,,,,,,,,,,,,,,54,,,,,,,,,,,,,,386.6000000000058,,response,,,,100,,,,,,,Space,keypress(Space),,,,,,,,-- --- ---- --- ------ ----- ------- ---- -- --- ------- --<br>------- ---------- ------ -- ----- -- ----- -- ---- ------<br>--- ----- --- --- ------ -------- ----- --- ------ ----- --<br>----- ----- ---------- --- --- ------ ------ ---- -- ------<br>------- --- ------ ----- --- ---- ------- -- ---- --- of<br>------- ------,164815,164802,164414.56,164414,164415.4,164836.36,,53,of
screen,html.Screen,2_1_1_1_54,2022-05-12T13:54:48.175Z,,,,,,,,,,,,,,,,,54,,,,,,,,,,,,,,417.64000000001397,,response,,,,100,,,,,,,Space,keypress(Space),,,,,,,,-- --- ---- --- ------ ----- ------- ---- -- --- ------- --<br>------- ---------- ------ -- ----- -- ----- -- ---- ------<br>--- ----- --- --- ------ -------- ----- --- ------ ----- --<br>----- ----- ---------- --- --- ------ ------ ---- -- ------<br>------- --- ------ ----- --- ---- ------- -- ---- --- --<br>raising ------,165260,165254,164815.66,164815,164836.36,165260.66,,54,raising
screen,html.Screen,2_1_1_1_55,2022-05-12T13:54:48.655Z,,,,,,,,,,,,,,,,,54,,,,,,,,,,,,,,463.3399999999965,,response,,,,100,,,,,,,Space,keypress(Space),,,,,,,,-- --- ---- --- ------ ----- ------- ---- -- --- ------- --<br>------- ---------- ------ -- ----- -- ----- -- ---- ------<br>--- ----- --- --- ------ -------- ----- --- ------ ----- --<br>----- ----- ---------- --- --- ------ ------ ---- -- ------<br>------- --- ------ ----- --- ---- ------- -- ---- --- --<br>------- money.,165740,165724,165260.38,165260,165260.66,165741.1,,55,money.
Item 100,flow.Loop,2_1_1_1,2022-05-12T13:54:48.655Z,,,,,,,,,,,,,,,,,,,,,,,,,,,,,,,23708.73999999999,,completion,,,,,D,,,,,,,,,,,silence,,,,,165741,165724,141998.58,142000,142015.26,165741.1,,,
Question 1,html.Screen,2_1_1_2,2022-05-12T13:54:51.135Z,,,,,,,,,,,,,,,,,,,,,,,,,,,,true,TRUE,,2466.899999999994,,response,,,,100,D,,,,,,TRUE,click #choice-1,,,,silence,,,,,168220,168208,165740.82,165741,165741.1,168231.98,,,
Question 2,html.Screen,2_1_1_3,2022-05-12T13:54:53.319Z,,,,,,,,,,,,,,,,,,,,,,,,,,,,false,FALSE,,2164.0199999999895,,response,,,,100,D,,,,,,TRUE,click #choice-1,,,,silence,,,,,170404,170396,168219.34,168220,168231.98,170415.34,,,
Item 100,flow.Sequence,2_1_1,2022-05-12T13:54:53.319Z,,,,,,,,,,,,,,,,,,,,,,,,,,,,,,,38380.78,,completion,,,,,,,,,,,,,,,,,,,,,170404,170396,132011.42,132012,132015.22,170415.34,,,
End of Practice,html.Page,2_1_2,2022-05-12T13:54:58.248Z,,,,,,,,,,,,,,,,,,,,,,,,,,,,,,,4917.6600000000035,,form submission,,,,,,,,,,,,,,,,,,,,,175333,175333,170403.92,170404,170415.34,175331.92,,,
Practice,flow.Sequence,2_1,2022-05-12T13:54:58.248Z,,,,,,,,,,,,,,,,,,,,,,,,,,,,,,,90984.04,,completion,,,,,,,,,,,,,,,,,,,,,175333,175333,84348.96,84352,84348.96,175331.92,,,
Trap_instruction,html.Page,2_2_0,2022-05-12T13:55:02.945Z,,,,,,,,,,,,,,,,,,,,,,,,,,,,,,,4698.079999999987,,form submission,,,,,,,,,,,,,,,,,,,,,180030,180030,175331.44,175334,175331.92,180032.02,,,
trap_trial,html.Screen,2_2_1,2022-05-12T13:55:05.439Z,,,,,,,,,,,,,,,,,,,,,,,,,,,,true,1,,2471.9800000000105,,response,,,,,,,,,,,1,click #choice-1,,,,,,,,,182524,182504,180028.26,180030,180032.02,182531.9,,,
end of trap trial,html.Page,2_2_2,2022-05-12T13:55:07.344Z,,,,,,,,,,,,,,,,,,,,,,,,,,,,,,,1897.1000000000058,,form submission,,,,,,,,,,,,,,,,,,,,,184429,184429,182523.28,182524,182531.9,184431.98,,,
Trap 1,flow.Sequence,2_2,2022-05-12T13:55:07.344Z,,,,,,,,,,,,,,,,,,,,,,,,,,,,,,,9097.079999999987,,completion,,,,,,,,,,,,,,,,,,,,,184429,184429,175331.44,175334,175331.92,184431.98,,,
Standby,html.Page,2_3_0,2022-05-12T13:55:15.331Z,,,,,,,,,,,,,,,,,,,,,,,,,,,,,,,7999.979999999981,,timeout,,,,,,,,,,,,,,,,,,,,,192416,192415.28,184427.78,184429,184431.98,192431.96,,,
Holding screen,html.Screen,2_3_1_0_0,2022-05-12T13:55:22.331Z,,,,,,,,,,,,,,,,,,,,,,,,,,,,,,,6999.960000000021,,timeout,,,,,,,,,,,,,,,,,,,,,199417,199415.26,192415.28,192417,192431.96,199431.92,,,
screen,html.Screen,2_3_1_0_1_0,2022-05-12T13:55:28.945Z,,,,,,,,,,,,,,,,,40,,,,,,,,,,,,,,6589.079999999987,,response,,,,9,D,,,,,,Space,keypress(Space),,,,speech,,,,Police -- ------- ---- ---- ---- - -------- ----- --- --<br>----- ----- ------ -- ---- -- --- - ---- -- - ----- -----<br>------ ---- ------ ---- - -------- ------- -- --- --------<br>-------- ----------- ---- ------ ---- ------ ---- --- ---<br>-------- --- -----,206030,206021,199415.26,199417,199431.92,206029.66,,0,Police
screen,html.Screen,2_3_1_0_1_1,2022-05-12T13:55:29.361Z,,,,,,,,,,,,,,,,,40,,,,,,,,,,,,,,396.3399999999965,,response,,,,9,D,,,,,,Space,keypress(Space),,,,speech,,,,------ in ------- ---- ---- ---- - -------- ----- --- --<br>----- ----- ------ -- ---- -- --- - ---- -- - ----- -----<br>------ ---- ------ ---- - -------- ------- -- --- --------<br>-------- ----------- ---- ------ ---- ------ ---- --- ---<br>-------- --- -----,206446,206426,206029.5,206030,206029.66,206446.9,,1,in
screen,html.Screen,2_3_1_0_1_2,2022-05-12T13:55:29.858Z,,,,,,,,,,,,,,,,,40,,,,,,,,,,,,,,479.1000000000058,,response,,,,9,D,,,,,,Space,keypress(Space),,,,speech,,,,------ -- Georgia ---- ---- ---- - -------- ----- --- --<br>----- ----- ------ -- ---- -- --- - ---- -- - ----- -----<br>------ ---- ------ ---- - -------- ------- -- --- --------<br>-------- ----------- ---- ------ ---- ------ ---- --- ---<br>-------- --- -----,206943,206926,206446.4,206446,206446.9,206943.62,,2,Georgia
screen,html.Screen,2_3_1_0_1_3,2022-05-12T13:55:30.337Z,,,,,,,,,,,,,,,,,40,,,,,,,,,,,,,,466.38000000000466,,response,,,,9,D,,,,,,Space,keypress(Space),,,,speech,,,,------ -- ------- have ---- ---- - -------- ----- --- --<br>----- ----- ------ -- ---- -- --- - ---- -- - ----- -----<br>------ ---- ------ ---- - -------- ------- -- --- --------<br>-------- ----------- ---- ------ ---- ------ ---- --- ---<br>-------- --- -----,207422,207410,206943.1,206943,206943.62,207422.14,,3,have
screen,html.Screen,2_3_1_0_1_4,2022-05-12T13:55:30.913Z,,,,,,,,,,,,,,,,,40,,,,,,,,,,,,,,550.859999999986,,response,,,,9,D,,,,,,Space,keypress(Space),,,,speech,,,,------ -- ------- ---- shut ---- - -------- ----- --- --<br>----- ----- ------ -- ---- -- --- - ---- -- - ----- -----<br>------ ---- ------ ---- - -------- ------- -- --- --------<br>-------- ----------- ---- ------ ---- ------ ---- --- ---<br>-------- --- -----,207999,207973,207421.86,207422,207422.14,208015.4,,4,shut
screen,html.Screen,2_3_1_0_1_5,2022-05-12T13:55:31.361Z,,,,,,,,,,,,,,,,,40,,,,,,,,,,,,,,410.6000000000058,,response,,,,9,D,,,,,,Space,keypress(Space),,,,speech,,,,------ -- ------- ---- ---- down - -------- ----- --- --<br>----- ----- ------ -- ---- -- --- - ---- -- - ----- -----<br>------ ---- ------ ---- - -------- ------- -- --- --------<br>-------- ----------- ---- ------ ---- ------ ---- --- ---<br>-------- --- -----,208446,208426,207998.74,207999,208015.4,208470.7,,5,down
screen,html.Screen,2_3_1_0_1_6,2022-05-12T13:55:31.839Z,,,,,,,,,,,,,,,,,40,,,,,,,,,,,,,,440.29999999998836,,response,,,,9,D,,,,,,Space,keypress(Space),,,,speech,,,,------ -- ------- ---- ---- ---- a -------- ----- --- --<br>----- ----- ------ -- ---- -- --- - ---- -- - ----- -----<br>------ ---- ------ ---- - -------- ------- -- --- --------<br>-------- ----------- ---- ------ ---- ------ ---- --- ---<br>-------- --- -----,208925,208911,208446.5,208447,208470.7,208924.96,,6,a
screen,html.Screen,2_3_1_0_1_7,2022-05-12T13:55:32.479Z,,,,,,,,,,,,,,,,,40,,,,,,,,,,,,,,626.0400000000081,,response,,,,9,D,,,,,,Space,keypress(Space),,,,speech,,,,------ -- ------- ---- ---- ---- - lemonade ----- --- --<br>----- ----- ------ -- ---- -- --- - ---- -- - ----- -----<br>------ ---- ------ ---- - -------- ------- -- --- --------<br>-------- ----------- ---- ------ ---- ------ ---- --- ---<br>-------- --- -----,209564,209551,208924.66,208925,208924.96,209564.78,,7,lemonade
screen,html.Screen,2_3_1_0_1_8,2022-05-12T13:55:33.059Z,,,,,,,,,,,,,,,,,40,,,,,,,,,,,,,,564.2200000000012,,response,,,,9,D,,,,,,Space,keypress(Space),,,,speech,,,,------ -- ------- ---- ---- ---- - -------- stand --- --<br>----- ----- ------ -- ---- -- --- - ---- -- - ----- -----<br>------ ---- ------ ---- - -------- ------- -- --- --------<br>-------- ----------- ---- ------ ---- ------ ---- --- ---<br>-------- --- -----,210144,210129,209564.54,209564,209564.78,210145.1,,8,stand
screen,html.Screen,2_3_1_0_1_9,2022-05-12T13:55:33.487Z,,,,,,,,,,,,,,,,,40,,,,,,,,,,,,,,422.8999999999942,,response,,,,9,D,,,,,,Space,keypress(Space),,,,speech,,,,------ -- ------- ---- ---- ---- - -------- ----- run --<br>----- ----- ------ -- ---- -- --- - ---- -- - ----- -----<br>------ ---- ------ ---- - -------- ------- -- --- --------<br>-------- ----------- ---- ------ ---- ------ ---- --- ---<br>-------- --- -----,210572,210568,210144.56,210145,210145.1,210572.92,,9,run
screen,html.Screen,2_3_1_0_1_10,2022-05-12T13:55:34.001Z,,,,,,,,,,,,,,,,,40,,,,,,,,,,,,,,495.0799999999872,,response,,,,9,D,,,,,,Space,keypress(Space),,,,speech,,,,------ -- ------- ---- ---- ---- - -------- ----- --- by<br>----- ----- ------ -- ---- -- --- - ---- -- - ----- -----<br>------ ---- ------ ---- - -------- ------- -- --- --------<br>-------- ----------- ---- ------ ---- ------ ---- --- ---<br>-------- --- -----,211087,211068,210572.7,210573,210572.92,211087.62,,10,by
screen,html.Screen,2_3_1_0_1_11,2022-05-12T13:55:34.559Z,,,,,,,,,,,,,,,,,40,,,,,,,,,,,,,,541.3800000000047,,response,,,,9,D,,,,,,Space,keypress(Space),,,,speech,,,,------ -- ------- ---- ---- ---- - -------- ----- --- --<br>three ----- ------ -- ---- -- --- - ---- -- - ----- -----<br>------ ---- ------ ---- - -------- ------- -- --- --------<br>-------- ----------- ---- ------ ---- ------ ---- --- ---<br>-------- --- -----,211644,211629,211087.08,211087,211087.62,211644.42,,11,three
screen,html.Screen,2_3_1_0_1_12,2022-05-12T13:55:35.154Z,,,,,,,,,,,,,,,,,40,,,,,,,,,,,,,,578.5799999999872,,response,,,,9,D,,,,,,Space,keypress(Space),,,,speech,,,,------ -- ------- ---- ---- ---- - -------- ----- --- --<br>----- girls ------ -- ---- -- --- - ---- -- - ----- -----<br>------ ---- ------ ---- - -------- ------- -- --- --------<br>-------- ----------- ---- ------ ---- ------ ---- --- ---<br>-------- --- -----,212239,212223,211644.24,211645,211644.42,212239.26,,12,girls
screen,html.Screen,2_3_1_0_1_13,2022-05-12T13:55:35.665Z,,,,,,,,,,,,,,,,,40,,,,,,,,,,,,,,499.7399999999907,,response,,,,9,D,,,,,,Space,keypress(Space),,,,speech,,,,------ -- ------- ---- ---- ---- - -------- ----- --- --<br>----- ----- trying -- ---- -- --- - ---- -- - ----- -----<br>------ ---- ------ ---- - -------- ------- -- --- --------<br>-------- ----------- ---- ------ ---- ------ ---- --- ---<br>-------- --- -----,212749,212739,212238.7,212239,212239.26,212750.18,,13,trying
screen,html.Screen,2_3_1_0_1_14,2022-05-12T13:55:36.178Z,,,,,,,,,,,,,,,,,40,,,,,,,,,,,,,,504.820000000007,,response,,,,9,D,,,,,,Space,keypress(Space),,,,speech,,,,------ -- ------- ---- ---- ---- - -------- ----- --- --<br>----- ----- ------ to ---- -- --- - ---- -- - ----- -----<br>------ ---- ------ ---- - -------- ------- -- --- --------<br>-------- ----------- ---- ------ ---- ------ ---- --- ---<br>-------- --- -----,213262,213255,212749.76,212749,212750.18,213263.12,,14,to
screen,html.Screen,2_3_1_0_1_15,2022-05-12T13:55:36.769Z,,,,,,,,,,,,,,,,,40,,,,,,,,,,,,,,568.8800000000047,,response,,,,9,D,,,,,,Space,keypress(Space),,,,speech,,,,------ -- ------- ---- ---- ---- - -------- ----- --- --<br>----- ----- ------ -- save -- --- - ---- -- - ----- -----<br>------ ---- ------ ---- - -------- ------- -- --- --------<br>-------- ----------- ---- ------ ---- ------ ---- --- ---<br>-------- --- -----,213854,213832,213262.58,213263,213263.12,213855.14,,15,save
screen,html.Screen,2_3_1_0_1_16,2022-05-12T13:55:37.232Z,,,,,,,,,,,,,,,,,40,,,,,,,,,,,,,,445.85999999998603,,response,,,,9,D,,,,,,Space,keypress(Space),,,,speech,,,,------ -- ------- ---- ---- ---- - -------- ----- --- --<br>----- ----- ------ -- ---- up --- - ---- -- - ----- -----<br>------ ---- ------ ---- - -------- ------- -- --- --------<br>-------- ----------- ---- ------ ---- ------ ---- --- ---<br>-------- --- -----,214318,214301,213854.6,213855,213855.14,214318.44,,16,up
screen,html.Screen,2_3_1_0_1_17,2022-05-12T13:55:37.633Z,,,,,,,,,,,,,,,,,40,,,,,,,,,,,,,,374.5599999999977,,response,,,,9,D,,,,,,Space,keypress(Space),,,,speech,,,,------ -- ------- ---- ---- ---- - -------- ----- --- --<br>----- ----- ------ -- ---- -- for - ---- -- - ----- -----<br>------ ---- ------ ---- - -------- ------- -- --- --------<br>-------- ----------- ---- ------ ---- ------ ---- --- ---<br>-------- --- -----,214717,214693,214318.08,214319,214318.44,214718.04,,17,for
screen,html.Screen,2_3_1_0_1_18,2022-05-12T13:55:38.113Z,,,,,,,,,,,,,,,,,40,,,,,,,,,,,,,,457.95999999999185,,response,,,,9,D,,,,,,Space,keypress(Space),,,,speech,,,,------ -- ------- ---- ---- ---- - -------- ----- --- --<br>----- ----- ------ -- ---- -- --- a ---- -- - ----- -----<br>------ ---- ------ ---- - -------- ------- -- --- --------<br>-------- ----------- ---- ------ ---- ------ ---- --- ---<br>-------- --- -----,215198,215176,214717.66,214718,214718.04,215199.68,,18,a
screen,html.Screen,2_3_1_0_1_19,2022-05-12T13:55:38.594Z,,,,,,,,,,,,,,,,,40,,,,,,,,,,,,,,460.320000000007,,response,,,,9,D,,,,,,Space,keypress(Space),,,,speech,,,,------ -- ------- ---- ---- ---- - -------- ----- --- --<br>----- ----- ------ -- ---- -- --- - trip -- - ----- -----<br>------ ---- ------ ---- - -------- ------- -- --- --------<br>-------- ----------- ---- ------ ---- ------ ---- --- ---<br>-------- --- -----,215679,215660,215198.62,215199,215199.68,215679.5,,19,trip
screen,html.Screen,2_3_1_0_1_20,2022-05-12T13:55:39.057Z,,,,,,,,,,,,,,,,,40,,,,,,,,,,,,,,450.5,,response,,,,9,D,,,,,,Space,keypress(Space),,,,speech,,,,------ -- ------- ---- ---- ---- - -------- ----- --- --<br>----- ----- ------ -- ---- -- --- - ---- to - ----- -----<br>------ ---- ------ ---- - -------- ------- -- --- --------<br>-------- ----------- ---- ------ ---- ------ ---- --- ---<br>-------- --- -----,216143,216130,215678.98,215679,215679.5,216143.16,,20,to
screen,html.Screen,2_3_1_0_1_21,2022-05-12T13:55:39.793Z,,,,,,,,,,,,,,,,,40,,,,,,,,,,,,,,719.8399999999965,,response,,,,9,D,,,,,,Space,keypress(Space),,,,speech,,,,------ -- ------- ---- ---- ---- - -------- ----- --- --<br>----- ----- ------ -- ---- -- --- - ---- -- a ----- -----<br>------ ---- ------ ---- - -------- ------- -- --- --------<br>-------- ----------- ---- ------ ---- ------ ---- --- ---<br>-------- --- -----,216878,216863,216142.64,216143,216143.16,216879.4,,21,a
screen,html.Screen,2_3_1_0_1_22,2022-05-12T13:55:40.335Z,,,,,,,,,,,,,,,,,40,,,,,,,,,,,,,,531.6000000000058,,response,,,,9,D,,,,,,Space,keypress(Space),,,,speech,,,,------ -- ------- ---- ---- ---- - -------- ----- --- --<br>----- ----- ------ -- ---- -- --- - ---- -- - water -----<br>------ ---- ------ ---- - -------- ------- -- --- --------<br>-------- ----------- ---- ------ ---- ------ ---- --- ---<br>-------- --- -----,217420,217411,216878.9,216878,216879.4,217421.02,,22,water
screen,html.Screen,2_3_1_0_1_23,2022-05-12T13:55:41.266Z,,,,,,,,,,,,,,,,,40,,,,,,,,,,,,,,910.9800000000105,,response,,,,9,D,,,,,,Space,keypress(Space),,,,speech,,,,"------ -- ------- ---- ---- ---- - -------- ----- --- --<br>----- ----- ------ -- ---- -- --- - ---- -- - ----- park,<br>------ ---- ------ ---- - -------- ------- -- --- --------<br>-------- ----------- ---- ------ ---- ------ ---- --- ---<br>-------- --- -----",218350,218332,217420.78,217421,217421.02,218351.58,,23,"park,"
screen,html.Screen,2_3_1_0_1_24,2022-05-12T13:55:41.777Z,,,,,,,,,,,,,,,,,40,,,,,,,,,,,,,,497.4200000000128,,response,,,,9,D,,,,,,Space,keypress(Space),,,,speech,,,,------ -- ------- ---- ---- ---- - -------- ----- --- --<br>----- ----- ------ -- ---- -- --- - ---- -- - ----- -----<br>saying ---- ------ ---- - -------- ------- -- --- --------<br>-------- ----------- ---- ------ ---- ------ ---- --- ---<br>-------- --- -----,218862,218849,218351,218351,218351.58,218863.54,,24,saying
screen,html.Screen,2_3_1_0_1_25,2022-05-12T13:55:42.161Z,,,,,,,,,,,,,,,,,40,,,,,,,,,,,,,,360.45999999999185,,response,,,,9,D,,,,,,Space,keypress(Space),,,,speech,,,,------ -- ------- ---- ---- ---- - -------- ----- --- --<br>----- ----- ------ -- ---- -- --- - ---- -- - ----- -----<br>------ they ------ ---- - -------- ------- -- --- --------<br>-------- ----------- ---- ------ ---- ------ ---- --- ---<br>-------- --- -----,219246,219224,218863.02,218863,218863.54,219247,,25,they
screen,html.Screen,2_3_1_0_1_26,2022-05-12T13:55:42.561Z,,,,,,,,,,,,,,,,,40,,,,,,,,,,,,,,382,,response,,,,9,D,,,,,,Space,keypress(Space),,,,speech,,,,------ -- ------- ---- ---- ---- - -------- ----- --- --<br>----- ----- ------ -- ---- -- --- - ---- -- - ----- -----<br>------ ---- didn't ---- - -------- ------- -- --- --------<br>-------- ----------- ---- ------ ---- ------ ---- --- ---<br>-------- --- -----,219646,219629,219246.48,219246,219247,219646.86,,26,didn't
screen,html.Screen,2_3_1_0_1_27,2022-05-12T13:55:42.929Z,,,,,,,,,,,,,,,,,40,,,,,,,,,,,,,,357.14000000001397,,response,,,,9,D,,,,,,Space,keypress(Space),,,,speech,,,,------ -- ------- ---- ---- ---- - -------- ----- --- --<br>----- ----- ------ -- ---- -- --- - ---- -- - ----- -----<br>------ ---- ------ have - -------- ------- -- --- --------<br>-------- ----------- ---- ------ ---- ------ ---- --- ---<br>-------- --- -----,220014,220004,219646.4,219647,219646.86,220014.78,,27,have
screen,html.Screen,2_3_1_0_1_28,2022-05-12T13:55:43.201Z,,,,,,,,,,,,,,,,,40,,,,,,,,,,,,,,256.22000000000116,,response,,,,9,D,,,,,,Space,keypress(Space),,,,speech,,,,------ -- ------- ---- ---- ---- - -------- ----- --- --<br>----- ----- ------ -- ---- -- --- - ---- -- - ----- -----<br>------ ---- ------ ---- a -------- ------- -- --- --------<br>-------- ----------- ---- ------ ---- ------ ---- --- ---<br>-------- --- -----,220286,220271,220014.24,220014,220014.78,220286.94,,28,a
screen,html.Screen,2_3_1_0_1_29,2022-05-12T13:55:43.588Z,,,,,,,,,,,,,,,,,40,,,,,,,,,,,,,,374.0599999999977,,response,,,,9,D,,,,,,Space,keypress(Space),,,,speech,,,,------ -- ------- ---- ---- ---- - -------- ----- --- --<br>----- ----- ------ -- ---- -- --- - ---- -- - ----- -----<br>------ ---- ------ ---- - business ------- -- --- --------<br>-------- ----------- ---- ------ ---- ------ ---- --- ---<br>-------- --- -----,220673,220661,220286.6,220286,220286.94,220673.86,,29,business
screen,html.Screen,2_3_1_0_1_30,2022-05-12T13:55:44.018Z,,,,,,,,,,,,,,,,,40,,,,,,,,,,,,,,408.14000000001397,,response,,,,9,D,,,,,,Space,keypress(Space),,,,speech,,,,------ -- ------- ---- ---- ---- - -------- ----- --- --<br>----- ----- ------ -- ---- -- --- - ---- -- - ----- -----<br>------ ---- ------ ---- - -------- license -- --- --------<br>-------- ----------- ---- ------ ---- ------ ---- --- ---<br>-------- --- -----,221103,221082,220673.34,220673,220673.86,221103.52,,30,license
screen,html.Screen,2_3_1_0_1_31,2022-05-12T13:55:44.434Z,,,,,,,,,,,,,,,,,40,,,,,,,,,,,,,,400.4800000000105,,response,,,,9,D,,,,,,Space,keypress(Space),,,,speech,,,,------ -- ------- ---- ---- ---- - -------- ----- --- --<br>----- ----- ------ -- ---- -- --- - ---- -- - ----- -----<br>------ ---- ------ ---- - -------- ------- or --- --------<br>-------- ----------- ---- ------ ---- ------ ---- --- ---<br>-------- --- -----,221519,221504,221102.84,221103,221103.52,221520.12,,31,or
screen,html.Screen,2_3_1_0_1_32,2022-05-12T13:55:44.800Z,,,,,,,,,,,,,,,,,40,,,,,,,,,,,,,,343.88000000000466,,response,,,,9,D,,,,,,Space,keypress(Space),,,,speech,,,,------ -- ------- ---- ---- ---- - -------- ----- --- --<br>----- ----- ------ -- ---- -- --- - ---- -- - ----- -----<br>------ ---- ------ ---- - -------- ------- -- the --------<br>-------- ----------- ---- ------ ---- ------ ---- --- ---<br>-------- --- -----,221885,221864,221519.3,221519,221520.12,221885.94,,32,the
screen,html.Screen,2_3_1_0_1_33,2022-05-12T13:55:45.328Z,,,,,,,,,,,,,,,,,40,,,,,,,,,,,,,,510.0599999999977,,response,,,,9,D,,,,,,Space,keypress(Space),,,,speech,,,,------ -- ------- ---- ---- ---- - -------- ----- --- --<br>----- ----- ------ -- ---- -- --- - ---- -- - ----- -----<br>------ ---- ------ ---- - -------- ------- -- --- required<br>-------- ----------- ---- ------ ---- ------ ---- --- ---<br>-------- --- -----,222414,222396,221885.6,221885,221885.94,222413.86,,33,required
screen,html.Screen,2_3_1_0_1_34,2022-05-12T13:55:46.433Z,,,,,,,,,,,,,,,,,40,,,,,,,,,,,,,,1090.140000000014,,response,,,,9,D,,,,,,Space,keypress(Space),,,,speech,,,,------ -- ------- ---- ---- ---- - -------- ----- --- --<br>----- ----- ------ -- ---- -- --- - ---- -- - ----- -----<br>------ ---- ------ ---- - -------- ------- -- --- --------<br>permits. ----------- ---- ------ ---- ------ ---- --- ---<br>-------- --- -----,223519,223504,222413.56,222414,222413.86,223519.02,,34,permits.
screen,html.Screen,2_3_1_0_1_35,2022-05-12T13:55:47.328Z,,,,,,,,,,,,,,,,,40,,,,,,,,,,,,,,875.9800000000105,,response,,,,9,D,,,,,,Space,keypress(Space),,,,speech,,,,------ -- ------- ---- ---- ---- - -------- ----- --- --<br>----- ----- ------ -- ---- -- --- - ---- -- - ----- -----<br>------ ---- ------ ---- - -------- ------- -- --- --------<br>-------- Morningstar ---- ------ ---- ------ ---- --- ---<br>-------- --- -----,224414,224395,223518.62,223519,223519.02,224413.8,,35,Morningstar
screen,html.Screen,2_3_1_0_1_36,2022-05-12T13:55:47.777Z,,,,,,,,,,,,,,,,,40,,,,,,,,,,,,,,435.20000000001164,,response,,,,9,D,,,,,,Space,keypress(Space),,,,speech,,,,------ -- ------- ---- ---- ---- - -------- ----- --- --<br>----- ----- ------ -- ---- -- --- - ---- -- - ----- -----<br>------ ---- ------ ---- - -------- ------- -- --- --------<br>-------- ----------- says ------ ---- ------ ---- --- ---<br>-------- --- -----,224862,224849,224413.46,224414,224413.8,224863.04,,36,says
screen,html.Screen,2_3_1_0_1_37,2022-05-12T13:55:48.321Z,,,,,,,,,,,,,,,,,40,,,,,,,,,,,,,,532.9599999999919,,response,,,,9,D,,,,,,Space,keypress(Space),,,,speech,,,,------ -- ------- ---- ---- ---- - -------- ----- --- --<br>----- ----- ------ -- ---- -- --- - ---- -- - ----- -----<br>------ ---- ------ ---- - -------- ------- -- --- --------<br>-------- ----------- ---- police ---- ------ ---- --- ---<br>-------- --- -----,225406,225396,224862.54,224862,224863.04,225408.5,,37,police
screen,html.Screen,2_3_1_0_1_38,2022-05-12T13:55:48.897Z,,,,,,,,,,,,,,,,,40,,,,,,,,,,,,,,564.5,,response,,,,9,D,,,,,,Space,keypress(Space),,,,speech,,,,------ -- ------- ---- ---- ---- - -------- ----- --- --<br>----- ----- ------ -- ---- -- --- - ---- -- - ----- -----<br>------ ---- ------ ---- - -------- ------- -- --- --------<br>-------- ----------- ---- ------ also ------ ---- --- ---<br>-------- --- -----,225981,225973,225406.44,225406,225408.5,225983.28,,38,also
screen,html.Screen,2_3_1_0_1_39,2022-05-12T13:55:49.328Z,,,,,,,,,,,,,,,,,40,,,,,,,,,,,,,,412.72000000000116,,response,,,,9,D,,,,,,Space,keypress(Space),,,,speech,,,,------ -- ------- ---- ---- ---- - -------- ----- --- --<br>----- ----- ------ -- ---- -- --- - ---- -- - ----- -----<br>------ ---- ------ ---- - -------- ------- -- --- --------<br>-------- ----------- ---- ------ ---- didn't ---- --- ---<br>-------- --- -----,226412,226396,225981.74,225981,225983.28,226412.78,,39,didn't
screen,html.Screen,2_3_1_0_1_40,2022-05-12T13:55:49.727Z,,,,,,,,,,,,,,,,,40,,,,,,,,,,,,,,388.22000000000116,,response,,,,9,D,,,,,,Space,keypress(Space),,,,speech,,,,------ -- ------- ---- ---- ---- - -------- ----- --- --<br>----- ----- ------ -- ---- -- --- - ---- -- - ----- -----<br>------ ---- ------ ---- - -------- ------- -- --- --------<br>-------- ----------- ---- ------ ---- ------ know --- ---<br>-------- --- -----,226812,226801,226412.54,226412,226412.78,226812.76,,40,know
screen,html.Screen,2_3_1_0_1_41,2022-05-12T13:55:50.239Z,,,,,,,,,,,,,,,,,40,,,,,,,,,,,,,,488.2399999999907,,response,,,,9,D,,,,,,Space,keypress(Space),,,,speech,,,,------ -- ------- ---- ---- ---- - -------- ----- --- --<br>----- ----- ------ -- ---- -- --- - ---- -- - ----- -----<br>------ ---- ------ ---- - -------- ------- -- --- --------<br>-------- ----------- ---- ------ ---- ------ ---- how ---<br>-------- --- -----,227324,227301,226812.52,226812,226812.76,227324.86,,41,how
screen,html.Screen,2_3_1_0_1_42,2022-05-12T13:55:50.847Z,,,,,,,,,,,,,,,,,40,,,,,,,,,,,,,,585.140000000014,,response,,,,9,D,,,,,,Space,keypress(Space),,,,speech,,,,------ -- ------- ---- ---- ---- - -------- ----- --- --<br>----- ----- ------ -- ---- -- --- - ---- -- - ----- -----<br>------ ---- ------ ---- - -------- ------- -- --- --------<br>-------- ----------- ---- ------ ---- ------ ---- --- the<br>-------- --- -----,227933,227910,227324.62,227325,227324.86,227932.84,,42,the
screen,html.Screen,2_3_1_0_1_43,2022-05-12T13:55:51.425Z,,,,,,,,,,,,,,,,,40,,,,,,,,,,,,,,571.1600000000035,,response,,,,9,D,,,,,,Space,keypress(Space),,,,speech,,,,------ -- ------- ---- ---- ---- - -------- ----- --- --<br>----- ----- ------ -- ---- -- --- - ---- -- - ----- -----<br>------ ---- ------ ---- - -------- ------- -- --- --------<br>-------- ----------- ---- ------ ---- ------ ---- --- ---<br>lemonade --- -----,228510,228504,227932.54,227933,227932.84,228510.74,,43,lemonade
screen,html.Screen,2_3_1_0_1_44,2022-05-12T13:55:51.824Z,,,,,,,,,,,,,,,,,40,,,,,,,,,,,,,,384.2600000000093,,response,,,,9,D,,,,,,Space,keypress(Space),,,,speech,,,,------ -- ------- ---- ---- ---- - -------- ----- --- --<br>----- ----- ------ -- ---- -- --- - ---- -- - ----- -----<br>------ ---- ------ ---- - -------- ------- -- --- --------<br>-------- ----------- ---- ------ ---- ------ ---- --- ---<br>-------- was -----,228910,228895,228510.22,228510,228510.74,228910.72,,44,was
screen,html.Screen,2_3_1_0_1_45,2022-05-12T13:55:53.121Z,,,,,,,,,,,,,,,,,40,,,,,,,,,,,,,,1281.2799999999988,,response,,,,9,D,,,,,,Space,keypress(Space),,,,speech,,,,------ -- ------- ---- ---- ---- - -------- ----- --- --<br>----- ----- ------ -- ---- -- --- - ---- -- - ----- -----<br>------ ---- ------ ---- - -------- ------- -- --- --------<br>-------- ----------- ---- ------ ---- ------ ---- --- ---<br>-------- --- made.,230206,230192,228910.2,228911,228910.72,230206.92,,45,made.
Item 9,flow.Loop,2_3_1_0_1,2022-05-12T13:55:53.121Z,,,,,,,,,,,,,,,,,,,,,,,,,,,,,,,30760.079999999987,,completion,,,,,,,,,,,,,,,,,,,,,230207,230192,199415.26,199417,199431.92,230206.92,,,
Question 1,html.Screen,2_3_1_0_2,2022-05-12T13:55:55.543Z,,,,,,,,,,,,,,,,,,,,,,,,,,,,true,FALSE,,2406.079999999987,,response,,,,9,D,,,,,,FALSE,click #choice-2,,,,speech,,,,,232628,232613,230206.6,230207,230206.92,232632.04,,,
Question 2,html.Screen,2_3_1_0_3,2022-05-12T13:55:59.519Z,,,,,,,,,,,,,,,,,,,,,,,,,,,,true,FALSE,,3950.959999999992,,response,,,,9,D,,,,,,FALSE,click #choice-2,,,,speech,,,,,236604,236583,232627.26,232628,232632.04,236615.5,,,
Item 9,flow.Sequence,2_3_1_0,2022-05-12T13:55:59.519Z,,,,,,,,,,,,,,,,,,,,,,,,,,,,,,,44151.04000000001,,completion,,,,,,,,,,,,,,,,,,,,,236605,236583,192415.28,192417,192431.96,236615.5,,,
Holding screen,html.Screen,2_3_1_1_0,2022-05-12T13:56:06.515Z,,,,,,,,,,,,,,,,,,,,,,,,,,,,,,,7000,,timeout,,,,,,,,,,,,,,,,,,,,,243600,243598.82,236603.08,236605,236615.5,243615.5,,,
screen,html.Screen,2_3_1_1_1_0,2022-05-12T13:56:10.047Z,,,,,,,,,,,,,,,,,2,,,,,,,,,,,,,,3497.5,,response,,,,1,D,,,,,,Space,keypress(Space),,,,speech,,,,Two ---- ------ --- ------- ---------- ------- ----------<br>--- --------- --- ----------- ------- ----- ------- ---<br>--------- ---- -- --- ---- -- --------- -- ---- -------<br>-- --------- ------ --- ----- ------ ---- --- --------- --<br>------ - ---- -- --- ----------- ------- ---- ----- -----<br>--- -------- - ------ ---- -- ----- ---- --- --- -----------<br>-- -------,247133,247113,243598.82,243600,243615.5,247148.8,,0,Two
screen,html.Screen,2_3_1_1_1_1,2022-05-12T13:56:10.447Z,,,,,,,,,,,,,,,,,2,,,,,,,,,,,,,,372.20000000001164,,response,,,,1,D,,,,,,Space,keypress(Space),,,,speech,,,,--- days ------ --- ------- ---------- ------- ----------<br>--- --------- --- ----------- ------- ----- ------- ---<br>--------- ---- -- --- ---- -- --------- -- ---- -------<br>-- --------- ------ --- ----- ------ ---- --- --------- --<br>------ - ---- -- --- ----------- ------- ---- ----- -----<br>--- -------- - ------ ---- -- ----- ---- --- --- -----------<br>-- -------,247532,247521,247132.26,247133,247148.8,247548.8,,1,days
screen,html.Screen,2_3_1_1_1_2,2022-05-12T13:56:10.834Z,,,,,,,,,,,,,,,,,2,,,,,,,,,,,,,,347.20000000001164,,response,,,,1,D,,,,,,Space,keypress(Space),,,,speech,,,,"--- ---- later, --- ------- ---------- ------- ----------<br>--- --------- --- ----------- ------- ----- ------- ---<br>--------- ---- -- --- ---- -- --------- -- ---- -------<br>-- --------- ------ --- ----- ------ ---- --- --------- --<br>------ - ---- -- --- ----------- ------- ---- ----- -----<br>--- -------- - ------ ---- -- ----- ---- --- --- -----------<br>-- -------",247919,247896,247532.6,247532,247548.8,247920.22,,2,"later,"
screen,html.Screen,2_3_1_1_1_3,2022-05-12T13:56:11.281Z,,,,,,,,,,,,,,,,,2,,,,,,,,,,,,,,428.77999999999884,,response,,,,1,D,,,,,,Space,keypress(Space),,,,speech,,,,--- ---- ------ the ------- ---------- ------- ----------<br>--- --------- --- ----------- ------- ----- ------- ---<br>--------- ---- -- --- ---- -- --------- -- ---- -------<br>-- --------- ------ --- ----- ------ ---- --- --------- --<br>------ - ---- -- --- ----------- ------- ---- ----- -----<br>--- -------- - ------ ---- -- ----- ---- --- --- -----------<br>-- -------,248366,248349,247919.7,247919,247920.22,248367.26,,3,the
screen,html.Screen,2_3_1_1_1_4,2022-05-12T13:56:11.808Z,,,,,,,,,,,,,,,,,2,,,,,,,,,,,,,,512.7399999999907,,response,,,,1,D,,,,,,Space,keypress(Space),,,,speech,,,,--- ---- ------ --- British ---------- ------- ----------<br>--- --------- --- ----------- ------- ----- ------- ---<br>--------- ---- -- --- ---- -- --------- -- ---- -------<br>-- --------- ------ --- ----- ------ ---- --- --------- --<br>------ - ---- -- --- ----------- ------- ---- ----- -----<br>--- -------- - ------ ---- -- ----- ---- --- --- -----------<br>-- -------,248893,248880,248366.8,248367,248367.26,248893.56,,4,British
screen,html.Screen,2_3_1_1_1_5,2022-05-12T13:56:12.290Z,,,,,,,,,,,,,,,,,2,,,,,,,,,,,,,,470.4400000000023,,response,,,,1,D,,,,,,Space,keypress(Space),,,,speech,,,,--- ---- ------ --- ------- astronomer ------- ----------<br>--- --------- --- ----------- ------- ----- ------- ---<br>--------- ---- -- --- ---- -- --------- -- ---- -------<br>-- --------- ------ --- ----- ------ ---- --- --------- --<br>------ - ---- -- --- ----------- ------- ---- ----- -----<br>--- -------- - ------ ---- -- ----- ---- --- --- -----------<br>-- -------,249375,249364,248893.2,248894,248893.56,249375.68,,5,astronomer
screen,html.Screen,2_3_1_1_1_6,2022-05-12T13:56:12.801Z,,,,,,,,,,,,,,,,,2,,,,,,,,,,,,,,488.320000000007,,response,,,,1,D,,,,,,Space,keypress(Space),,,,speech,,,,--- ---- ------ --- ------- ---------- Richard ----------<br>--- --------- --- ----------- ------- ----- ------- ---<br>--------- ---- -- --- ---- -- --------- -- ---- -------<br>-- --------- ------ --- ----- ------ ---- --- --------- --<br>------ - ---- -- --- ----------- ------- ---- ----- -----<br>--- -------- - ------ ---- -- ----- ---- --- --- -----------<br>-- -------,249886,249864,249375.24,249376,249375.68,249887.38,,6,Richard
screen,html.Screen,2_3_1_1_1_7,2022-05-12T13:56:13.249Z,,,,,,,,,,,,,,,,,2,,,,,,,,,,,,,,429.61999999999534,,response,,,,1,D,,,,,,Space,keypress(Space),,,,speech,,,,--- ---- ------ --- ------- ---------- ------- Carrington<br>--- --------- --- ----------- ------- ----- ------- ---<br>--------- ---- -- --- ---- -- --------- -- ---- -------<br>-- --------- ------ --- ----- ------ ---- --- --------- --<br>------ - ---- -- --- ----------- ------- ---- ----- -----<br>--- -------- - ------ ---- -- ----- ---- --- --- -----------<br>-- -------,250334,250317,249886.84,249886,249887.38,250335.06,,7,Carrington
screen,html.Screen,2_3_1_1_1_8,2022-05-12T13:56:13.776Z,,,,,,,,,,,,,,,,,2,,,,,,,,,,,,,,512.9400000000023,,response,,,,1,D,,,,,,Space,keypress(Space),,,,speech,,,,--- ---- ------ --- ------- ---------- ------- ----------<br>was --------- --- ----------- ------- ----- ------- ---<br>--------- ---- -- --- ---- -- --------- -- ---- -------<br>-- --------- ------ --- ----- ------ ---- --- --------- --<br>------ - ---- -- --- ----------- ------- ---- ----- -----<br>--- -------- - ------ ---- -- ----- ---- --- --- -----------<br>-- -------,250862,250848,250334.54,250335,250335.06,250862.78,,8,was
screen,html.Screen,2_3_1_1_1_9,2022-05-12T13:56:14.289Z,,,,,,,,,,,,,,,,,2,,,,,,,,,,,,,,500.22000000000116,,response,,,,1,D,,,,,,Space,keypress(Space),,,,speech,,,,--- ---- ------ --- ------- ---------- ------- ----------<br>--- observing --- ----------- ------- ----- ------- ---<br>--------- ---- -- --- ---- -- --------- -- ---- -------<br>-- --------- ------ --- ----- ------ ---- --- --------- --<br>------ - ---- -- --- ----------- ------- ---- ----- -----<br>--- -------- - ------ ---- -- ----- ---- --- --- -----------<br>-- -------,251374,251363,250862.24,250862,250862.78,251374.86,,9,observing
screen,html.Screen,2_3_1_1_1_10,2022-05-12T13:56:14.674Z,,,,,,,,,,,,,,,,,2,,,,,,,,,,,,,,363.14000000001397,,response,,,,1,D,,,,,,Space,keypress(Space),,,,speech,,,,--- ---- ------ --- ------- ---------- ------- ----------<br>--- --------- the ----------- ------- ----- ------- ---<br>--------- ---- -- --- ---- -- --------- -- ---- -------<br>-- --------- ------ --- ----- ------ ---- --- --------- --<br>------ - ---- -- --- ----------- ------- ---- ----- -----<br>--- -------- - ------ ---- -- ----- ---- --- --- -----------<br>-- -------,251760,251738,251374.34,251374,251374.86,251760.86,,10,the
