sender,sender_type,sender_id,timestamp,meta,,Blues,Classical,Country,Dance,Electronic,Folk,Gospel,Hip-Hop,Jazz,Latin,Musical/Film,New-age,Pop,Prolific_id,Provo_ID,R&B,Rap,Reggae,Religious,Rock,Soul,Swing,Traditional,age,artist_name,correct,correctResponse,distraction,duration,education,ended_on,familiarity,gender,headphone_check_performance,item,list,music_frequency,offensiveness,pleasantness,position_correct,preference,response,response_action,snippet_file,song_name,song_rating,sound,stimulus_1,stimulus_2,stimulus_3,text,time_commit,time_end,time_render,time_run,time_show,time_switch,url,word,word_ID
Prolific ID,html.Form,0,2022-05-12T16:05:07.437Z,"{""labjs_version"":""20.2.2"",""labjs_build"":{""flavor"":""production"",""commit"":""a25486e0c714a0ae2ce03ff94b7bb6896854dcfa""},""location"":""https://run.pavlovia.org/mvasilev/prolific3_music_f/"",""userAgent"":""Mozilla/5.0 (Windows NT 6.3; Win64; x64; rv:100.0) Gecko/20100101 Firefox/100.0"",""platform"":""Win32"",""language"":""en-GB"",""locale"":""en-GB"",""timeZone"":""Europe/London"",""timezoneOffset"":-60,""screen_width"":1920,""screen_height"":1080,""scroll_width"":1920,""scroll_height"":899,""window_innerWidth"":1920,""window_innerHeight"":947,""devicePixelRatio"":1}",,,,,,,,,,,,,,,5af2a03697a14300017d2ba4,,,,,,,,,,,,,,,8524.82,,form submission,,,,,,,,,,,,,,,,,,,,,26132,26132,17607.1,17607,17607.18,26132.12,{},,
Introduction,html.Screen,1_0,2022-05-12T16:05:13.937Z,,,,,,,,,,,,,,,,,,,,,,,,,,,,,,,6490.880000000001,,response,,,,,,,,,,,continue,click button,,,,,,,,,32633,32623,26130.36,26133,26132.12,32638.66,,,
Volume calibration,html.Screen,1_1,2022-05-12T16:05:47.813Z,,,,,,,,,,,,,,,,,,,,,,,,,,,,,,,33859.34,,response,,,,,,,,,,,continue,click button,,,,,,,,,66508,66498,32632.32,32633,32638.66,66522.38,,,
Task instructions,html.Screen,1_2,2022-05-12T16:05:57.285Z,,,,,,,,,,,,,,,,,,,,,,,,,,,,,,,9444.619999999995,,response,,,,,,,,,,,continue,click button,,,,,,,,,75981,75967,66508.12,66508,66522.38,75981.78,,,
Sounds,html.Screen,1_3_0_0,2022-05-12T16:06:01.528Z,,,,,,,,,,,,,,,,,,,,,,,,,,,,,,,4254.300000000003,,timeout,,,,,,,,,3,,,,,,,,O,I,S,,80223,80219.42,75980.52,75982,75981.78,80236.08,,,
Judgement,html.Screen,1_3_0_1,2022-05-12T16:06:03.065Z,,,,,,,,,,,,,,,,,,,,,,,,,,,,true,3,,1511.9199999999983,,response,,,,,,,,,3,,3,click #choice-3,,,,,O,I,S,,81761,81748,80219.42,80227,80236.08,81770.86,,,
Trial,flow.Sequence,1_3_0,2022-05-12T16:06:03.066Z,,,,,,,,,,,,,,,,,,,,,,,,,,,,,,,5766.220000000001,,completion,,,,,,,,,3,,,,,,,,O,I,S,,81762,81748,75980.52,75982,75981.78,81770.86,,,
Sounds,html.Screen,1_3_1_0,2022-05-12T16:06:07.314Z,,,,,,,,,,,,,,,,,,,,,,,,,,,,,,,4254.179999999993,,timeout,,,,,,,,,1,,,,,,,,S,I,O,,86010,86008.46,81760.68,81762,81770.86,86025.04,,,
Judgement,html.Screen,1_3_1_1,2022-05-12T16:06:08.007Z,,,,,,,,,,,,,,,,,,,,,,,,,,,,true,1,,660.9600000000064,,response,,,,,,,,,1,,1,click #choice-1,,,,,S,I,O,,86703,86686,86008.46,86011,86025.04,86709.16,,,
Trial,flow.Sequence,1_3_1,2022-05-12T16:06:08.007Z,,,,,,,,,,,,,,,,,,,,,,,,,,,,,,,4915.139999999999,,completion,,,,,,,,,1,,,,,,,,S,I,O,,86703,86686,81760.68,81762,81770.86,86709.16,,,
Sounds,html.Screen,1_3_2_0,2022-05-12T16:06:12.253Z,,,,,,,,,,,,,,,,,,,,,,,,,,,,,,,4254.259999999995,,timeout,,,,,,,,,2,,,,,,,,O,S,I,,90949,90946.74,86702.44,86704,86709.16,90963.42,,,
Judgement,html.Screen,1_3_2_1,2022-05-12T16:06:12.940Z,,,,,,,,,,,,,,,,,,,,,,,,,,,,true,2,,660.5800000000017,,response,,,,,,,,,2,,2,click #choice-2,,,,,O,S,I,,91637,91624,90946.74,90950,90963.42,91647.34,,,
Trial,flow.Sequence,1_3_2,2022-05-12T16:06:12.940Z,,,,,,,,,,,,,,,,,,,,,,,,,,,,,,,4914.8399999999965,,completion,,,,,,,,,2,,,,,,,,O,S,I,,91637,91624,86702.44,86704,86709.16,91647.34,,,
Sounds,html.Screen,1_3_3_0,2022-05-12T16:06:17.191Z,,,,,,,,,,,,,,,,,,,,,,,,,,,,,,,4254.300000000003,,timeout,,,,,,,,,1,,,,,,,,S,O,I,,95887,95884.94,91635.94,91637,91647.34,95901.64,,,
Judgement,html.Screen,1_3_3_1,2022-05-12T16:06:18.101Z,,,,,,,,,,,,,,,,,,,,,,,,,,,,true,1,,877.3600000000006,,response,,,,,,,,,1,,1,click #choice-1,,,,,S,O,I,,96797,96779,95884.94,95887,95901.64,96802.54,,,
Trial,flow.Sequence,1_3_3,2022-05-12T16:06:18.101Z,,,,,,,,,,,,,,,,,,,,,,,,,,,,,,,5131.6600000000035,,completion,,,,,,,,,1,,,,,,,,S,O,I,,96797,96779,91635.94,91637,91647.34,96802.54,,,
Sounds,html.Screen,1_3_4_0,2022-05-12T16:06:22.346Z,,,,,,,,,,,,,,,,,,,,,,,,,,,,,,,4254.220000000001,,timeout,,,,,,,,,3,,,,,,,,I,O,S,,101041,101040.08,96796.48,96798,96802.54,101056.76,,,
Judgement,html.Screen,1_3_4_1,2022-05-12T16:06:23.105Z,,,,,,,,,,,,,,,,,,,,,,,,,,,,true,3,,723.2400000000052,,response,,,,,,,,,3,,3,click #choice-3,,,,,I,O,S,,101802,101780,101040.08,101042,101056.76,101807.48,,,
Trial,flow.Sequence,1_3_4,2022-05-12T16:06:23.106Z,,,,,,,,,,,,,,,,,,,,,,,,,,,,,,,4977.460000000006,,completion,,,,,,,,,3,,,,,,,,I,O,S,,101802,101780,96796.48,96798,96802.54,101807.48,,,
Sounds,html.Screen,1_3_5_0,2022-05-12T16:06:27.351Z,,,,,,,,,,,,,,,,,,,,,,,,,,,,,,,4254.260000000009,,timeout,,,,,,,,,2,,,,,,,,I,S,O,,106046,106045.06,101800.56,101802,101807.48,106061.74,,,
Judgement,html.Screen,1_3_5_1,2022-05-12T16:06:27.999Z,,,,,,,,,,,,,,,,,,,,,,,,,,,,true,2,,623.2599999999948,,response,,,,,,,,,2,,2,click #choice-2,,,,,I,S,O,,106695,106685,106045.06,106047,106061.74,106695.68,,,
Trial,flow.Sequence,1_3_5,2022-05-12T16:06:27.999Z,,,,,,,,,,,,,,,,,,,,,,,,,,,,,,,4877.520000000004,,completion,,,,,,,,,2,,,,,,,,I,S,O,,106695,106685,101800.56,101802,101807.48,106695.68,,,
Task,flow.Loop,1_3,2022-05-12T16:06:27.999Z,,,,,,,,,,,,,,,,,,,,,,,,,,,,,,,30703.22,,completion,,,1,,,,,,,,,,,,,,,,,,106696,106685,75980.52,75982,75981.78,106695.68,,,
Trap,html.Screen,1_4,2022-05-12T16:06:28.004Z,,,,,,,,,,,,,,,,,,,,,,,,,,,,,,,NaN,,skipped,,,,,,,,,,,,,,,,,,,,,106700,106685,,106700,,106695.68,,,
Thanks,html.Screen,1_5,2022-05-12T16:06:32.467Z,,,,,,,,,,,,,,,,,,,,,,,,,,,,,,,4444.320000000007,,response,,,,,,,,,,,continue,click button,,,,,,,,,111163,111140,106694.42,106700,106695.68,115437.62,,,
Headphone screening,flow.Sequence,1,2022-05-12T16:06:32.467Z,,,,,,,,,,,,,,,,,,,,,,,,,,,,,,,85007.88,,completion,,,,,,,,,,,,,,,,,,,,,111163,111140,26130.36,26133,26132.12,115437.62,,,
Instructions,html.Page,2_0,2022-05-12T16:07:35.274Z,,,,,,,,,,,,,,,,,,,,,,,,,,,,,,,58531.380000000005,,form submission,,,,,,,,,,,,,,,,,,,,,173969,173969,115420.94,115418,115437.62,173979.3,,,
Holding screen,html.Screen,2_1_0_0,2022-05-12T16:07:45.262Z,,,,,,,,,,,,,,,,,,,,,,,,,,,,,,,9993.340000000026,,timeout,,,,,,,,,,,,,,,,,,,,,183958,183955.96,173966.02,173970,173979.3,183972.64,,,
screen,html.Screen,2_1_0_1_0,2022-05-12T16:07:46.263Z,,,,,,,,,,,,,,,,,53,,,,,,,,,,,,,,962.359999999986,,response,,,,99,,,,,,,Space,keypress(Space),,,,,,,,When -- ----- -- ------ - ------- --- ----------<br>------------- ------ ------ ---- ---- ------- ----- -- ----<br>-------- ------- -- ---------- --- - --- ----- ----- ----<br>---- --- --- ----- --- ---- ---- ------- ----- ---- -------<br>--- --- -- ----- -- --- ---- -- --- ---- -- ------ ------<br>--- ----- -- ----,184960,184935,183955.96,183960,183972.64,184960.64,,0,When
screen,html.Screen,2_1_0_1_1,2022-05-12T16:07:46.831Z,,,,,,,,,,,,,,,,,53,,,,,,,,,,,,,,554.359999999986,,response,,,,99,,,,,,,Space,keypress(Space),,,,,,,,---- it ----- -- ------ - ------- --- ----------<br>------------- ------ ------ ---- ---- ------- ----- -- ----<br>-------- ------- -- ---------- --- - --- ----- ----- ----<br>---- --- --- ----- --- ---- ---- ------- ----- ---- -------<br>--- --- -- ----- -- --- ---- -- --- ---- -- ------ ------<br>--- ----- -- ----,185527,185515,184960.32,184961,184960.64,185527.58,,1,it
screen,html.Screen,2_1_0_1_2,2022-05-12T16:07:47.358Z,,,,,,,,,,,,,,,,,53,,,,,,,,,,,,,,518.4200000000128,,response,,,,99,,,,,,,Space,keypress(Space),,,,,,,,---- -- comes -- ------ - ------- --- ----------<br>------------- ------ ------ ---- ---- ------- ----- -- ----<br>-------- ------- -- ---------- --- - --- ----- ----- ----<br>---- --- --- ----- --- ---- ---- ------- ----- ---- -------<br>--- --- -- ----- -- --- ---- -- --- ---- -- ------ ------<br>--- ----- -- ----,186054,186046,185527.3,185528,185527.58,186058.04,,2,comes
screen,html.Screen,2_1_0_1_3,2022-05-12T16:07:47.830Z,,,,,,,,,,,,,,,,,53,,,,,,,,,,,,,,456.95999999999185,,response,,,,99,,,,,,,Space,keypress(Space),,,,,,,,---- -- ----- to ------ - ------- --- ----------<br>------------- ------ ------ ---- ---- ------- ----- -- ----<br>-------- ------- -- ---------- --- - --- ----- ----- ----<br>---- --- --- ----- --- ---- ---- ------- ----- ---- -------<br>--- --- -- ----- -- --- ---- -- --- ---- -- ------ ------<br>--- ----- -- ----,186526,186515,186055.44,186055,186058.04,186527.84,,3,to
screen,html.Screen,2_1_0_1_4,2022-05-12T16:07:48.342Z,,,,,,,,,,,,,,,,,53,,,,,,,,,,,,,,486.1600000000035,,response,,,,99,,,,,,,Space,keypress(Space),,,,,,,,---- -- ----- -- having - ------- --- ----------<br>------------- ------ ------ ---- ---- ------- ----- -- ----<br>-------- ------- -- ---------- --- - --- ----- ----- ----<br>---- --- --- ----- --- ---- ---- ------- ----- ---- -------<br>--- --- -- ----- -- --- ---- -- --- ---- -- ------ ------<br>--- ----- -- ----,187038,187014,186527.54,186528,186527.84,187039.4,,4,having
screen,html.Screen,2_1_0_1_5,2022-05-12T16:07:48.742Z,,,,,,,,,,,,,,,,,53,,,,,,,,,,,,,,380.6000000000058,,response,,,,99,,,,,,,Space,keypress(Space),,,,,,,,---- -- ----- -- ------ a ------- --- ----------<br>------------- ------ ------ ---- ---- ------- ----- -- ----<br>-------- ------- -- ---------- --- - --- ----- ----- ----<br>---- --- --- ----- --- ---- ---- ------- ----- ---- -------<br>--- --- -- ----- -- --- ---- -- --- ---- -- ------ ------<br>--- ----- -- ----,187438,187420,187039.1,187039,187039.4,187439.4,,5,a
screen,html.Screen,2_1_0_1_6,2022-05-12T16:07:49.198Z,,,,,,,,,,,,,,,,,53,,,,,,,,,,,,,,434.6000000000058,,response,,,,99,,,,,,,Space,keypress(Space),,,,,,,,---- -- ----- -- ------ - lasting --- ----------<br>------------- ------ ------ ---- ---- ------- ----- -- ----<br>-------- ------- -- ---------- --- - --- ----- ----- ----<br>---- --- --- ----- --- ---- ---- ------- ----- ---- -------<br>--- --- -- ----- -- --- ---- -- --- ---- -- ------ ------<br>--- ----- -- ----,187894,187874,187439.12,187439,187439.4,187894.88,,6,lasting
screen,html.Screen,2_1_0_1_7,2022-05-12T16:07:49.766Z,,,,,,,,,,,,,,,,,53,,,,,,,,,,,,,,557.1199999999953,,response,,,,99,,,,,,,Space,keypress(Space),,,,,,,,---- -- ----- -- ------ - ------- and ----------<br>------------- ------ ------ ---- ---- ------- ----- -- ----<br>-------- ------- -- ---------- --- - --- ----- ----- ----<br>---- --- --- ----- --- ---- ---- ------- ----- ---- -------<br>--- --- -- ----- -- --- ---- -- --- ---- -- ------ ------<br>--- ----- -- ----,188462,188452,187894.58,187894,187894.88,188462.8,,7,and
screen,html.Screen,2_1_0_1_8,2022-05-12T16:07:50.463Z,,,,,,,,,,,,,,,,,53,,,,,,,,,,,,,,677.2000000000116,,response,,,,99,,,,,,,Space,keypress(Space),,,,,,,,---- -- ----- -- ------ - ------- --- fulfilling<br>------------- ------ ------ ---- ---- ------- ----- -- ----<br>-------- ------- -- ---------- --- - --- ----- ----- ----<br>---- --- --- ----- --- ---- ---- ------- ----- ---- -------<br>--- --- -- ----- -- --- ---- -- --- ---- -- ------ ------<br>--- ----- -- ----,189159,189140,188462.44,188462,188462.8,189161.1,,8,fulfilling
screen,html.Screen,2_1_0_1_9,2022-05-12T16:07:50.934Z,,,,,,,,,,,,,,,,,53,,,,,,,,,,,,,,446.8999999999942,,response,,,,99,,,,,,,Space,keypress(Space),,,,,,,,"---- -- ----- -- ------ - ------- --- ----------<br>relationship, ------ ------ ---- ---- ------- ----- -- ----<br>-------- ------- -- ---------- --- - --- ----- ----- ----<br>---- --- --- ----- --- ---- ---- ------- ----- ---- -------<br>--- --- -- ----- -- --- ---- -- --- ---- -- ------ ------<br>--- ----- -- ----",189630,189608,189152.98,189160,189161.1,189644.9,,9,"relationship,"
screen,html.Screen,2_1_0_1_10,2022-05-12T16:07:51.391Z,,,,,,,,,,,,,,,,,53,,,,,,,,,,,,,,432.1000000000058,,response,,,,99,,,,,,,Space,keypress(Space),,,,,,,,---- -- ----- -- ------ - ------- --- ----------<br>------------- common ------ ---- ---- ------- ----- -- ----<br>-------- ------- -- ---------- --- - --- ----- ----- ----<br>---- --- --- ----- --- ---- ---- ------- ----- ---- -------<br>--- --- -- ----- -- --- ---- -- --- ---- -- ------ ------<br>--- ----- -- ----,190086,190077,189628.22,189630,189644.9,190087.18,,10,common
screen,html.Screen,2_1_0_1_11,2022-05-12T16:07:51.719Z,,,,,,,,,,,,,,,,,53,,,,,,,,,,,,,,301.820000000007,,response,,,,99,,,,,,,Space,keypress(Space),,,,,,,,---- -- ----- -- ------ - ------- --- ----------<br>------------- ------ wisdom ---- ---- ------- ----- -- ----<br>-------- ------- -- ---------- --- - --- ----- ----- ----<br>---- --- --- ----- --- ---- ---- ------- ----- ---- -------<br>--- --- -- ----- -- --- ---- -- --- ---- -- ------ ------<br>--- ----- -- ----,190414,190389,190086.86,190086,190087.18,190415.44,,11,wisdom
screen,html.Screen,2_1_0_1_12,2022-05-12T16:07:52.134Z,,,,,,,,,,,,,,,,,53,,,,,,,,,,,,,,394.5599999999977,,response,,,,99,,,,,,,Space,keypress(Space),,,,,,,,---- -- ----- -- ------ - ------- --- ----------<br>------------- ------ ------ says ---- ------- ----- -- ----<br>-------- ------- -- ---------- --- - --- ----- ----- ----<br>---- --- --- ----- --- ---- ---- ------- ----- ---- -------<br>--- --- -- ----- -- --- ---- -- --- ---- -- ------ ------<br>--- ----- -- ----,190830,190810,190415.12,190415,190415.44,190830.8,,12,says
screen,html.Screen,2_1_0_1_13,2022-05-12T16:07:52.541Z,,,,,,,,,,,,,,,,,53,,,,,,,,,,,,,,387.20000000001164,,response,,,,99,,,,,,,Space,keypress(Space),,,,,,,,---- -- ----- -- ------ - ------- --- ----------<br>------------- ------ ------ ---- that ------- ----- -- ----<br>-------- ------- -- ---------- --- - --- ----- ----- ----<br>---- --- --- ----- --- ---- ---- ------- ----- ---- -------<br>--- --- -- ----- -- --- ---- -- --- ---- -- ------ ------<br>--- ----- -- ----,191238,191218,190830.52,190830,190830.8,191238.52,,13,that
screen,html.Screen,2_1_0_1_14,2022-05-12T16:07:53.078Z,,,,,,,,,,,,,,,,,53,,,,,,,,,,,,,,526.4800000000105,,response,,,,99,,,,,,,Space,keypress(Space),,,,,,,,---- -- ----- -- ------ - ------- --- ----------<br>------------- ------ ------ ---- ---- feeling ----- -- ----<br>-------- ------- -- ---------- --- - --- ----- ----- ----<br>---- --- --- ----- --- ---- ---- ------- ----- ---- -------<br>--- --- -- ----- -- --- ---- -- --- ---- -- ------ ------<br>--- ----- -- ----,191774,191765,191238.24,191238,191238.52,191775.16,,14,feeling
screen,html.Screen,2_1_0_1_15,2022-05-12T16:07:53.486Z,,,,,,,,,,,,,,,,,53,,,,,,,,,,,,,,395.8399999999965,,response,,,,99,,,,,,,Space,keypress(Space),,,,,,,,---- -- ----- -- ------ - ------- --- ----------<br>------------- ------ ------ ---- ---- ------- close -- ----<br>-------- ------- -- ---------- --- - --- ----- ----- ----<br>---- --- --- ----- --- ---- ---- ------- ----- ---- -------<br>--- --- -- ----- -- --- ---- -- --- ---- -- ------ ------<br>--- ----- -- ----,192182,192171,191774.88,191774,191775.16,192182.64,,15,close
screen,html.Screen,2_1_0_1_16,2022-05-12T16:07:53.814Z,,,,,,,,,,,,,,,,,53,,,,,,,,,,,,,,315.35999999998603,,response,,,,99,,,,,,,Space,keypress(Space),,,,,,,,---- -- ----- -- ------ - ------- --- ----------<br>------------- ------ ------ ---- ---- ------- ----- to ----<br>-------- ------- -- ---------- --- - --- ----- ----- ----<br>---- --- --- ----- --- ---- ---- ------- ----- ---- -------<br>--- --- -- ----- -- --- ---- -- --- ---- -- ------ ------<br>--- ----- -- ----,192510,192498,192182.36,192183,192182.64,192510.66,,16,to
screen,html.Screen,2_1_0_1_17,2022-05-12T16:07:54.302Z,,,,,,,,,,,,,,,,,53,,,,,,,,,,,,,,471.3399999999965,,response,,,,99,,,,,,,Space,keypress(Space),,,,,,,,---- -- ----- -- ------ - ------- --- ----------<br>------------- ------ ------ ---- ---- ------- ----- -- your<br>-------- ------- -- ---------- --- - --- ----- ----- ----<br>---- --- --- ----- --- ---- ---- ------- ----- ---- -------<br>--- --- -- ----- -- --- ---- -- --- ---- -- ------ ------<br>--- ----- -- ----,192997,192982,192510.38,192510,192510.66,192998.36,,17,your
screen,html.Screen,2_1_0_1_18,2022-05-12T16:07:54.693Z,,,,,,,,,,,,,,,,,53,,,,,,,,,,,,,,374.64000000001397,,response,,,,99,,,,,,,Space,keypress(Space),,,,,,,,---- -- ----- -- ------ - ------- --- ----------<br>------------- ------ ------ ---- ---- ------- ----- -- ----<br>romantic ------- -- ---------- --- - --- ----- ----- ----<br>---- --- --- ----- --- ---- ---- ------- ----- ---- -------<br>--- --- -- ----- -- --- ---- -- --- ---- -- ------ ------<br>--- ----- -- ----,193390,193373,192998.08,192998,192998.36,193398.5,,18,romantic
screen,html.Screen,2_1_0_1_19,2022-05-12T16:07:55.093Z,,,,,,,,,,,,,,,,,53,,,,,,,,,,,,,,381.5,,response,,,,99,,,,,,,Space,keypress(Space),,,,,,,,---- -- ----- -- ------ - ------- --- ----------<br>------------- ------ ------ ---- ---- ------- ----- -- ----<br>-------- partner -- ---------- --- - --- ----- ----- ----<br>---- --- --- ----- --- ---- ---- ------- ----- ---- -------<br>--- --- -- ----- -- --- ---- -- --- ---- -- ------ ------<br>--- ----- -- ----,193789,193780,193390.48,193390,193398.5,193789.56,,19,partner
screen,html.Screen,2_1_0_1_20,2022-05-12T16:07:55.470Z,,,,,,,,,,,,,,,,,53,,,,,,,,,,,,,,365.4400000000023,,response,,,,99,,,,,,,Space,keypress(Space),,,,,,,,---- -- ----- -- ------ - ------- --- ----------<br>------------- ------ ------ ---- ---- ------- ----- -- ----<br>-------- ------- is ---------- --- - --- ----- ----- ----<br>---- --- --- ----- --- ---- ---- ------- ----- ---- -------<br>--- --- -- ----- -- --- ---- -- --- ---- -- ------ ------<br>--- ----- -- ----,194166,194155,193789.38,193790,193789.56,194166.78,,20,is
screen,html.Screen,2_1_0_1_21,2022-05-12T16:07:55.894Z,,,,,,,,,,,,,,,,,53,,,,,,,,,,,,,,410.22000000000116,,response,,,,99,,,,,,,Space,keypress(Space),,,,,,,,---- -- ----- -- ------ - ------- --- ----------<br>------------- ------ ------ ---- ---- ------- ----- -- ----<br>-------- ------- -- paramount. --- - --- ----- ----- ----<br>---- --- --- ----- --- ---- ---- ------- ----- ---- -------<br>--- --- -- ----- -- --- ---- -- --- ---- -- ------ ------<br>--- ----- -- ----,194590,194577,194166.48,194167,194166.78,194590.66,,21,paramount.
screen,html.Screen,2_1_0_1_22,2022-05-12T16:07:56.326Z,,,,,,,,,,,,,,,,,53,,,,,,,,,,,,,,408.3399999999965,,response,,,,99,,,,,,,Space,keypress(Space),,,,,,,,---- -- ----- -- ------ - ------- --- ----------<br>------------- ------ ------ ---- ---- ------- ----- -- ----<br>-------- ------- -- ---------- But - --- ----- ----- ----<br>---- --- --- ----- --- ---- ---- ------- ----- ---- -------<br>--- --- -- ----- -- --- ---- -- --- ---- -- ------ ------<br>--- ----- -- ----,195022,194999,194590.38,194590,194590.66,195023.22,,22,But
screen,html.Screen,2_1_0_1_23,2022-05-12T16:07:56.591Z,,,,,,,,,,,,,,,,,53,,,,,,,,,,,,,,241.77999999999884,,response,,,,99,,,,,,,Space,keypress(Space),,,,,,,,---- -- ----- -- ------ - ------- --- ----------<br>------------- ------ ------ ---- ---- ------- ----- -- ----<br>-------- ------- -- ---------- --- a --- ----- ----- ----<br>---- --- --- ----- --- ---- ---- ------- ----- ---- -------<br>--- --- -- ----- -- --- ---- -- --- ---- -- ------ ------<br>--- ----- -- ----,195286,195265,195022.86,195023,195023.22,195287.1,,23,a
screen,html.Screen,2_1_0_1_24,2022-05-12T16:07:56.926Z,,,,,,,,,,,,,,,,,53,,,,,,,,,,,,,,319.8999999999942,,response,,,,99,,,,,,,Space,keypress(Space),,,,,,,,---- -- ----- -- ------ - ------- --- ----------<br>------------- ------ ------ ---- ---- ------- ----- -- ----<br>-------- ------- -- ---------- --- - new ----- ----- ----<br>---- --- --- ----- --- ---- ---- ------- ----- ---- -------<br>--- --- -- ----- -- --- ---- -- --- ---- -- ------ ------<br>--- ----- -- ----,195622,195607,195286.8,195287,195287.1,195622.54,,24,new
screen,html.Screen,2_1_0_1_25,2022-05-12T16:07:57.254Z,,,,,,,,,,,,,,,,,53,,,,,,,,,,,,,,312.45999999999185,,response,,,,99,,,,,,,Space,keypress(Space),,,,,,,,---- -- ----- -- ------ - ------- --- ----------<br>------------- ------ ------ ---- ---- ------- ----- -- ----<br>-------- ------- -- ---------- --- - --- study ----- ----<br>---- --- --- ----- --- ---- ---- ------- ----- ---- -------<br>--- --- -- ----- -- --- ---- -- --- ---- -- ------ ------<br>--- ----- -- ----,195950,195935,195622.24,195622,195622.54,195950.64,,25,study
screen,html.Screen,2_1_0_1_26,2022-05-12T16:07:57.614Z,,,,,,,,,,,,,,,,,53,,,,,,,,,,,,,,345.35999999998603,,response,,,,99,,,,,,,Space,keypress(Space),,,,,,,,---- -- ----- -- ------ - ------- --- ----------<br>------------- ------ ------ ---- ---- ------- ----- -- ----<br>-------- ------- -- ---------- --- - --- ----- finds ----<br>---- --- --- ----- --- ---- ---- ------- ----- ---- -------<br>--- --- -- ----- -- --- ---- -- --- ---- -- ------ ------<br>--- ----- -- ----,196310,196296,195950.34,195950,195950.64,196310.48,,26,finds
screen,html.Screen,2_1_0_1_27,2022-05-12T16:07:57.990Z,,,,,,,,,,,,,,,,,53,,,,,,,,,,,,,,360.5199999999895,,response,,,,99,,,,,,,Space,keypress(Space),,,,,,,,---- -- ----- -- ------ - ------- --- ----------<br>------------- ------ ------ ---- ---- ------- ----- -- ----<br>-------- ------- -- ---------- --- - --- ----- ----- that<br>---- --- --- ----- --- ---- ---- ------- ----- ---- -------<br>--- --- -- ----- -- --- ---- -- --- ---- -- ------ ------<br>--- ----- -- ----,196686,196671,196310.2,196310,196310.48,196686.58,,27,that
screen,html.Screen,2_1_0_1_28,2022-05-12T16:07:58.342Z,,,,,,,,,,,,,,,,,53,,,,,,,,,,,,,,327.4200000000128,,response,,,,99,,,,,,,Space,keypress(Space),,,,,,,,---- -- ----- -- ------ - ------- --- ----------<br>------------- ------ ------ ---- ---- ------- ----- -- ----<br>-------- ------- -- ---------- --- - --- ----- ----- ----<br>it's --- --- ----- --- ---- ---- ------- ----- ---- -------<br>--- --- -- ----- -- --- ---- -- --- ---- -- ------ ------<br>--- ----- -- ----,197038,197014,196686.3,196686,196686.58,197038.7,,28,it's
screen,html.Screen,2_1_0_1_29,2022-05-12T16:07:58.718Z,,,,,,,,,,,,,,,,,53,,,,,,,,,,,,,,350.29999999998836,,response,,,,99,,,,,,,Space,keypress(Space),,,,,,,,---- -- ----- -- ------ - ------- --- ----------<br>------------- ------ ------ ---- ---- ------- ----- -- ----<br>-------- ------- -- ---------- --- - --- ----- ----- ----<br>---- not --- ----- --- ---- ---- ------- ----- ---- -------<br>--- --- -- ----- -- --- ---- -- --- ---- -- ------ ------<br>--- ----- -- ----,197415,197389,197038.42,197038,197038.7,197414.94,,29,not
screen,html.Screen,2_1_0_1_30,2022-05-12T16:07:59.126Z,,,,,,,,,,,,,,,,,53,,,,,,,,,,,,,,395.0599999999977,,response,,,,99,,,,,,,Space,keypress(Space),,,,,,,,---- -- ----- -- ------ - ------- --- ----------<br>------------- ------ ------ ---- ---- ------- ----- -- ----<br>-------- ------- -- ---------- --- - --- ----- ----- ----<br>---- --- how ----- --- ---- ---- ------- ----- ---- -------<br>--- --- -- ----- -- --- ---- -- --- ---- -- ------ ------<br>--- ----- -- ----,197822,197810,197414.62,197415,197414.94,197822.82,,30,how
screen,html.Screen,2_1_0_1_31,2022-05-12T16:07:59.510Z,,,,,,,,,,,,,,,,,53,,,,,,,,,,,,,,363.179999999993,,response,,,,99,,,,,,,Space,keypress(Space),,,,,,,,---- -- ----- -- ------ - ------- --- ----------<br>------------- ------ ------ ---- ---- ------- ----- -- ----<br>-------- ------- -- ---------- --- - --- ----- ----- ----<br>---- --- --- close --- ---- ---- ------- ----- ---- -------<br>--- --- -- ----- -- --- ---- -- --- ---- -- ------ ------<br>--- ----- -- ----,198206,198186,197822.54,197822,197822.82,198206.72,,31,close
screen,html.Screen,2_1_0_1_32,2022-05-12T16:07:59.949Z,,,,,,,,,,,,,,,,,53,,,,,,,,,,,,,,417.27999999999884,,response,,,,99,,,,,,,Space,keypress(Space),,,,,,,,---- -- ----- -- ------ - ------- --- ----------<br>------------- ------ ------ ---- ---- ------- ----- -- ----<br>-------- ------- -- ---------- --- - --- ----- ----- ----<br>---- --- --- ----- you ---- ---- ------- ----- ---- -------<br>--- --- -- ----- -- --- ---- -- --- ---- -- ------ ------<br>--- ----- -- ----,198646,198624,198206.44,198206,198206.72,198646.58,,32,you
screen,html.Screen,2_1_0_1_33,2022-05-12T16:08:00.365Z,,,,,,,,,,,,,,,,,53,,,,,,,,,,,,,,399.4200000000128,,response,,,,99,,,,,,,Space,keypress(Space),,,,,,,,---- -- ----- -- ------ - ------- --- ----------<br>------------- ------ ------ ---- ---- ------- ----- -- ----<br>-------- ------- -- ---------- --- - --- ----- ----- ----<br>---- --- --- ----- --- feel ---- ------- ----- ---- -------<br>--- --- -- ----- -- --- ---- -- --- ---- -- ------ ------<br>--- ----- -- ----,199062,199046,198646.3,198646,198646.58,199062.48,,33,feel
screen,html.Screen,2_1_0_1_34,2022-05-12T16:08:00.862Z,,,,,,,,,,,,,,,,,53,,,,,,,,,,,,,,483.5199999999895,,response,,,,99,,,,,,,Space,keypress(Space),,,,,,,,---- -- ----- -- ------ - ------- --- ----------<br>------------- ------ ------ ---- ---- ------- ----- -- ----<br>-------- ------- -- ---------- --- - --- ----- ----- ----<br>---- --- --- ----- --- ---- that ------- ----- ---- -------<br>--- --- -- ----- -- --- ---- -- --- ---- -- ------ ------<br>--- ----- -- ----,199558,199546,199062.2,199062,199062.48,199558.48,,34,that
screen,html.Screen,2_1_0_1_35,2022-05-12T16:08:01.198Z,,,,,,,,,,,,,,,,,53,,,,,,,,,,,,,,315.5199999999895,,response,,,,99,,,,,,,Space,keypress(Space),,,,,,,,---- -- ----- -- ------ - ------- --- ----------<br>------------- ------ ------ ---- ---- ------- ----- -- ----<br>-------- ------- -- ---------- --- - --- ----- ----- ----<br>---- --- --- ----- --- ---- ---- matters ----- ---- -------<br>--- --- -- ----- -- --- ---- -- --- ---- -- ------ ------<br>--- ----- -- ----,199894,199874,199558.22,199558,199558.48,199894.68,,35,matters
screen,html.Screen,2_1_0_1_36,2022-05-12T16:08:01.622Z,,,,,,,,,,,,,,,,,53,,,,,,,,,,,,,,401.320000000007,,response,,,,99,,,,,,,Space,keypress(Space),,,,,,,,"---- -- ----- -- ------ - ------- --- ----------<br>------------- ------ ------ ---- ---- ------- ----- -- ----<br>-------- ------- -- ---------- --- - --- ----- ----- ----<br>---- --- --- ----- --- ---- ---- ------- most, ---- -------<br>--- --- -- ----- -- --- ---- -- --- ---- -- ------ ------<br>--- ----- -- ----",200317,200296,199894.38,199894,199894.68,200318.56,,36,"most,"
screen,html.Screen,2_1_0_1_37,2022-05-12T16:08:02.046Z,,,,,,,,,,,,,,,,,53,,,,,,,,,,,,,,399.4400000000023,,response,,,,99,,,,,,,Space,keypress(Space),,,,,,,,---- -- ----- -- ------ - ------- --- ----------<br>------------- ------ ------ ---- ---- ------- ----- -- ----<br>-------- ------- -- ---------- --- - --- ----- ----- ----<br>---- --- --- ----- --- ---- ---- ------- ----- it's -------<br>--- --- -- ----- -- --- ---- -- --- ---- -- ------ ------<br>--- ----- -- ----,200741,200718,200318.28,200318,200318.56,200743.04,,37,it's
screen,html.Screen,2_1_0_1_38,2022-05-12T16:08:02.349Z,,,,,,,,,,,,,,,,,53,,,,,,,,,,,,,,285.95999999999185,,response,,,,99,,,,,,,Space,keypress(Space),,,,,,,,---- -- ----- -- ------ - ------- --- ----------<br>------------- ------ ------ ---- ---- ------- ----- -- ----<br>-------- ------- -- ---------- --- - --- ----- ----- ----<br>---- --- --- ----- --- ---- ---- ------- ----- ---- whether<br>--- --- -- ----- -- --- ---- -- --- ---- -- ------ ------<br>--- ----- -- ----,201045,201029,200742.74,200742,200743.04,201046.56,,38,whether
screen,html.Screen,2_1_0_1_39,2022-05-12T16:08:02.669Z,,,,,,,,,,,,,,,,,53,,,,,,,,,,,,,,296.4400000000023,,response,,,,99,,,,,,,Space,keypress(Space),,,,,,,,---- -- ----- -- ------ - ------- --- ----------<br>------------- ------ ------ ---- ---- ------- ----- -- ----<br>-------- ------- -- ---------- --- - --- ----- ----- ----<br>---- --- --- ----- --- ---- ---- ------- ----- ---- -------<br>you --- -- ----- -- --- ---- -- --- ---- -- ------ ------<br>--- ----- -- ----,201365,201343,201046.26,201046,201046.56,201365.54,,39,you
screen,html.Screen,2_1_0_1_40,2022-05-12T16:08:02.965Z,,,,,,,,,,,,,,,,,53,,,,,,,,,,,,,,274.45999999999185,,response,,,,99,,,,,,,Space,keypress(Space),,,,,,,,---- -- ----- -- ------ - ------- --- ----------<br>------------- ------ ------ ---- ---- ------- ----- -- ----<br>-------- ------- -- ---------- --- - --- ----- ----- ----<br>---- --- --- ----- --- ---- ---- ------- ----- ---- -------<br>--- are -- ----- -- --- ---- -- --- ---- -- ------ ------<br>--- ----- -- ----,201661,201640,201365.32,201365,201365.54,201662.48,,40,are
screen,html.Screen,2_1_0_1_41,2022-05-12T16:08:03.277Z,,,,,,,,,,,,,,,,,53,,,,,,,,,,,,,,289.5199999999895,,response,,,,99,,,,,,,Space,keypress(Space),,,,,,,,---- -- ----- -- ------ - ------- --- ----------<br>------------- ------ ------ ---- ---- ------- ----- -- ----<br>-------- ------- -- ---------- --- - --- ----- ----- ----<br>---- --- --- ----- --- ---- ---- ------- ----- ---- -------<br>--- --- as ----- -- --- ---- -- --- ---- -- ------ ------<br>--- ----- -- ----,201974,201952,201662.2,201662,201662.48,201974.54,,41,as
screen,html.Screen,2_1_0_1_42,2022-05-12T16:08:03.646Z,,,,,,,,,,,,,,,,,53,,,,,,,,,,,,,,351.45999999999185,,response,,,,99,,,,,,,Space,keypress(Space),,,,,,,,---- -- ----- -- ------ - ------- --- ----------<br>------------- ------ ------ ---- ---- ------- ----- -- ----<br>-------- ------- -- ---------- --- - --- ----- ----- ----<br>---- --- --- ----- --- ---- ---- ------- ----- ---- -------<br>--- --- -- close -- --- ---- -- --- ---- -- ------ ------<br>--- ----- -- ----,202342,202326,201974.24,201974,201974.54,202342.56,,42,close
screen,html.Screen,2_1_0_1_43,2022-05-12T16:08:04.038Z,,,,,,,,,,,,,,,,,53,,,,,,,,,,,,,,375.4400000000023,,response,,,,99,,,,,,,Space,keypress(Space),,,,,,,,---- -- ----- -- ------ - ------- --- ----------<br>------------- ------ ------ ---- ---- ------- ----- -- ----<br>-------- ------- -- ---------- --- - --- ----- ----- ----<br>---- --- --- ----- --- ---- ---- ------- ----- ---- -------<br>--- --- -- ----- as --- ---- -- --- ---- -- ------ ------<br>--- ----- -- ----,202734,202718,202342.28,202342,202342.56,202734.86,,43,as
screen,html.Screen,2_1_0_1_44,2022-05-12T16:08:04.422Z,,,,,,,,,,,,,,,,,53,,,,,,,,,,,,,,358.14000000001397,,response,,,,99,,,,,,,Space,keypress(Space),,,,,,,,---- -- ----- -- ------ - ------- --- ----------<br>------------- ------ ------ ---- ---- ------- ----- -- ----<br>-------- ------- -- ---------- --- - --- ----- ----- ----<br>---- --- --- ----- --- ---- ---- ------- ----- ---- -------<br>--- --- -- ----- -- you ---- -- --- ---- -- ------ ------<br>--- ----- -- ----,203118,203093,202734.52,202735,202734.86,203118.54,,44,you
screen,html.Screen,2_1_0_1_45,2022-05-12T16:08:04.852Z,,,,,,,,,,,,,,,,,53,,,,,,,,,,,,,,411.45999999999185,,response,,,,99,,,,,,,Space,keypress(Space),,,,,,,,---- -- ----- -- ------ - ------- --- ----------<br>------------- ------ ------ ---- ---- ------- ----- -- ----<br>-------- ------- -- ---------- --- - --- ----- ----- ----<br>---- --- --- ----- --- ---- ---- ------- ----- ---- -------<br>--- --- -- ----- -- --- want -- --- ---- -- ------ ------<br>--- ----- -- ----,203549,203530,203118.24,203118,203118.54,203548.78,,45,want
screen,html.Screen,2_1_0_1_46,2022-05-12T16:08:05.198Z,,,,,,,,,,,,,,,,,53,,,,,,,,,,,,,,324.22000000000116,,response,,,,99,,,,,,,Space,keypress(Space),,,,,,,,---- -- ----- -- ------ - ------- --- ----------<br>------------- ------ ------ ---- ---- ------- ----- -- ----<br>-------- ------- -- ---------- --- - --- ----- ----- ----<br>---- --- --- ----- --- ---- ---- ------- ----- ---- -------<br>--- --- -- ----- -- --- ---- to --- ---- -- ------ ------<br>--- ----- -- ----,203894,203873,203548.64,203549,203548.78,203894.48,,46,to
screen,html.Screen,2_1_0_1_47,2022-05-12T16:08:05.565Z,,,,,,,,,,,,,,,,,53,,,,,,,,,,,,,,354.5199999999895,,response,,,,99,,,,,,,Space,keypress(Space),,,,,,,,"---- -- ----- -- ------ - ------- --- ----------<br>------------- ------ ------ ---- ---- ------- ----- -- ----<br>-------- ------- -- ---------- --- - --- ----- ----- ----<br>---- --- --- ----- --- ---- ---- ------- ----- ---- -------<br>--- --- -- ----- -- --- ---- -- be, ---- -- ------ ------<br>--- ----- -- ----",204262,204249,203894.18,203894,203894.48,204262.78,,47,"be,"
screen,html.Screen,2_1_0_1_48,2022-05-12T16:08:05.982Z,,,,,,,,,,,,,,,,,53,,,,,,,,,,,,,,392.22000000000116,,response,,,,99,,,,,,,Space,keypress(Space),,,,,,,,---- -- ----- -- ------ - ------- --- ----------<br>------------- ------ ------ ---- ---- ------- ----- -- ----<br>-------- ------- -- ---------- --- - --- ----- ----- ----<br>---- --- --- ----- --- ---- ---- ------- ----- ---- -------<br>--- --- -- ----- -- --- ---- -- --- even -- ------ ------<br>--- ----- -- ----,204678,204655,204262.5,204263,204262.78,204678.48,,48,even
screen,html.Screen,2_1_0_1_49,2022-05-12T16:08:06.246Z,,,,,,,,,,,,,,,,,53,,,,,,,,,,,,,,241.51999999998952,,response,,,,99,,,,,,,Space,keypress(Space),,,,,,,,---- -- ----- -- ------ - ------- --- ----------<br>------------- ------ ------ ---- ---- ------- ----- -- ----<br>-------- ------- -- ---------- --- - --- ----- ----- ----<br>---- --- --- ----- --- ---- ---- ------- ----- ---- -------<br>--- --- -- ----- -- --- ---- -- --- ---- if ------ ------<br>--- ----- -- ----,204942,204920,204678.2,204678,204678.48,204943.48,,49,if
screen,html.Screen,2_1_0_1_50,2022-05-12T16:08:06.526Z,,,,,,,,,,,,,,,,,53,,,,,,,,,,,,,,258.5199999999895,,response,,,,99,,,,,,,Space,keypress(Space),,,,,,,,---- -- ----- -- ------ - ------- --- ----------<br>------------- ------ ------ ---- ---- ------- ----- -- ----<br>-------- ------- -- ---------- --- - --- ----- ----- ----<br>---- --- --- ----- --- ---- ---- ------- ----- ---- -------<br>--- --- -- ----- -- --- ---- -- --- ---- -- that's ------<br>--- ----- -- ----,205221,205202,204942.06,204942,204943.48,205222.36,,50,that's
screen,html.Screen,2_1_0_1_51,2022-05-12T16:08:06.902Z,,,,,,,,,,,,,,,,,53,,,,,,,,,,,,,,354.64000000001397,,response,,,,99,,,,,,,Space,keypress(Space),,,,,,,,---- -- ----- -- ------ - ------- --- ----------<br>------------- ------ ------ ---- ---- ------- ----- -- ----<br>-------- ------- -- ---------- --- - --- ----- ----- ----<br>---- --- --- ----- --- ---- ---- ------- ----- ---- -------<br>--- --- -- ----- -- --- ---- -- --- ---- -- ------ really<br>--- ----- -- ----,205598,205577,205222.08,205222,205222.36,205598.32,,51,really
screen,html.Screen,2_1_0_1_52,2022-05-12T16:08:07.238Z,,,,,,,,,,,,,,,,,53,,,,,,,,,,,,,,321.679999999993,,response,,,,99,,,,,,,Space,keypress(Space),,,,,,,,---- -- ----- -- ------ - ------- --- ----------<br>------------- ------ ------ ---- ---- ------- ----- -- ----<br>-------- ------- -- ---------- --- - --- ----- ----- ----<br>---- --- --- ----- --- ---- ---- ------- ----- ---- -------<br>--- --- -- ----- -- --- ---- -- --- ---- -- ------ ------<br>not ----- -- ----,205934,205920,205598.06,205598,205598.32,205934.46,,52,not
screen,html.Screen,2_1_0_1_53,2022-05-12T16:08:07.557Z,,,,,,,,,,,,,,,,,53,,,,,,,,,,,,,,297.54000000000815,,response,,,,99,,,,,,,Space,keypress(Space),,,,,,,,---- -- ----- -- ------ - ------- --- ----------<br>------------- ------ ------ ---- ---- ------- ----- -- ----<br>-------- ------- -- ---------- --- - --- ----- ----- ----<br>---- --- --- ----- --- ---- ---- ------- ----- ---- -------<br>--- --- -- ----- -- --- ---- -- --- ---- -- ------ ------<br>--- close -- ----,206254,206232,205934.18,205934,205934.46,206254.78,,53,close
screen,html.Screen,2_1_0_1_54,2022-05-12T16:08:07.902Z,,,,,,,,,,,,,,,,,53,,,,,,,,,,,,,,321.22000000000116,,response,,,,99,,,,,,,Space,keypress(Space),,,,,,,,---- -- ----- -- ------ - ------- --- ----------<br>------------- ------ ------ ---- ---- ------- ----- -- ----<br>-------- ------- -- ---------- --- - --- ----- ----- ----<br>---- --- --- ----- --- ---- ---- ------- ----- ---- -------<br>--- --- -- ----- -- --- ---- -- --- ---- -- ------ ------<br>--- ----- at ----,206597,206576,206254.5,206254,206254.78,206598.44,,54,at
screen,html.Screen,2_1_0_1_55,2022-05-12T16:08:08.238Z,,,,,,,,,,,,,,,,,53,,,,,,,,,,,,,,322.5599999999977,,response,,,,99,,,,,,,Space,keypress(Space),,,,,,,,---- -- ----- -- ------ - ------- --- ----------<br>------------- ------ ------ ---- ---- ------- ----- -- ----<br>-------- ------- -- ---------- --- - --- ----- ----- ----<br>---- --- --- ----- --- ---- ---- ------- ----- ---- -------<br>--- --- -- ----- -- --- ---- -- --- ---- -- ------ ------<br>--- ----- -- all.,206933,206921,206598.16,206598,206598.44,206935.5,,55,all.
Item 99,flow.Loop,2_1_0_1,2022-05-12T16:08:08.239Z,,,,,,,,,,,,,,,,,,,,,,,,,,,,,,,22948.359999999986,,completion,,,,,F,,,,,,,,,,,silence,,,,,206935,206921,183955.96,183959,183972.64,206935.5,,,
Question 1,html.Screen,2_1_0_2,2022-05-12T16:08:13.883Z,,,,,,,,,,,,,,,,,,,,,,,,,,,,true,FALSE,,5624.5,,response,,,,99,F,,,,,,FALSE,click #choice-2,,,,silence,,,,,212578,212560,206935.22,206935,206935.5,212584.36,,,
Question 2,html.Screen,2_1_0_3,2022-05-12T16:08:17.616Z,,,,,,,,,,,,,,,,,,,,,,,,,,,,true,TRUE,,3711.640000000014,,response,,,,99,F,,,,,,TRUE,click #choice-1,,,,silence,,,,,216312,216296,212577.6,212578,212584.36,216321.4,,,
Item 99,flow.Sequence,2_1_0,2022-05-12T16:08:17.616Z,,,,,,,,,,,,,,,,,,,,,,,,,,,,,,,42316.70000000001,,completion,,,,,,,,,,,,,,,,,,,,,216313,216296,173966.02,173970,173979.3,216321.4,,,
Holding screen,html.Screen,2_1_1_0,2022-05-12T16:08:27.603Z,,,,,,,,,,,,,,,,,,,,,,,,,,,,,,,9993.300000000017,,timeout,,,,,,,,,,,,,,,,,,,,,226300,226298.02,216311.94,216313,216321.4,226314.7,,,
screen,html.Screen,2_1_1_1_0,2022-05-12T16:08:28.573Z,,,,,,,,,,,,,,,,,54,,,,,,,,,,,,,,934.2999999999884,,response,,,,100,,,,,,,Space,keypress(Space),,,,,,,,At --- ---- --- ------ ----- ------- ---- -- --- ------- --<br>------- ---------- ------ -- ----- -- ----- -- ---- ------<br>--- ----- --- --- ------ -------- ----- --- ------ ----- --<br>----- ----- ---------- --- --- ------ ------ ---- -- ------<br>------- --- ------ ----- --- ---- ------- -- ---- --- --<br>------- ------,227270,227249,226298.02,226301,226314.7,227270.54,,0,At
screen,html.Screen,2_1_1_1_1,2022-05-12T16:08:30.646Z,,,,,,,,,,,,,,,,,54,,,,,,,,,,,,,,2039.4599999999919,,response,,,,100,,,,,,,Space,keypress(Space),,,,,,,,-- the ---- --- ------ ----- ------- ---- -- --- ------- --<br>------- ---------- ------ -- ----- -- ----- -- ---- ------<br>--- ----- --- --- ------ -------- ----- --- ------ ----- --<br>----- ----- ---------- --- --- ------ ------ ---- -- ------<br>------- --- ------ ----- --- ---- ------- -- ---- --- --<br>------- ------,229341,229310,227270.26,227270,227270.54,229342.38,,1,the
screen,html.Screen,2_1_1_1_2,2022-05-12T16:08:31.206Z,,,,,,,,,,,,,,,,,54,,,,,,,,,,,,,,531.6199999999953,,response,,,,100,,,,,,,Space,keypress(Space),,,,,,,,-- --- time --- ------ ----- ------- ---- -- --- ------- --<br>------- ---------- ------ -- ----- -- ----- -- ---- ------<br>--- ----- --- --- ------ -------- ----- --- ------ ----- --<br>----- ----- ---------- --- --- ------ ------ ---- -- ------<br>------- --- ------ ----- --- ---- ------- -- ---- --- --<br>------- ------,229901,229874,229342.1,229342,229342.38,229902.28,,2,time
screen,html.Screen,2_1_1_1_3,2022-05-12T16:08:31.654Z,,,,,,,,,,,,,,,,,54,,,,,,,,,,,,,,423.72000000000116,,response,,,,100,,,,,,,Space,keypress(Space),,,,,,,,-- --- ---- the ------ ----- ------- ---- -- --- ------- --<br>------- ---------- ------ -- ----- -- ----- -- ---- ------<br>--- ----- --- --- ------ -------- ----- --- ------ ----- --<br>----- ----- ---------- --- --- ------ ------ ---- -- ------<br>------- --- ------ ----- --- ---- ------- -- ---- --- --<br>------- ------,230350,230326,229902,229902,229902.28,230352.1,,3,the
screen,html.Screen,2_1_1_1_4,2022-05-12T16:08:32.174Z,,,,,,,,,,,,,,,,,54,,,,,,,,,,,,,,490.8999999999942,,response,,,,100,,,,,,,Space,keypress(Space),,,,,,,,-- --- ---- --- French ----- ------- ---- -- --- ------- --<br>------- ---------- ------ -- ----- -- ----- -- ---- ------<br>--- ----- --- --- ------ -------- ----- --- ------ ----- --<br>----- ----- ---------- --- --- ------ ------ ---- -- ------<br>------- --- ------ ----- --- ---- ------- -- ---- --- --<br>------- ------,230870,230843,230350.28,230351,230352.1,230870.22,,4,French
screen,html.Screen,2_1_1_1_5,2022-05-12T16:08:32.653Z,,,,,,,,,,,,,,,,,54,,,,,,,,,,,,,,455.77999999999884,,response,,,,100,,,,,,,Space,keypress(Space),,,,,,,,-- --- ---- --- ------ crown ------- ---- -- --- ------- --<br>------- ---------- ------ -- ----- -- ----- -- ---- ------<br>--- ----- --- --- ------ -------- ----- --- ------ ----- --<br>----- ----- ---------- --- --- ------ ------ ---- -- ------<br>------- --- ------ ----- --- ---- ------- -- ---- --- --<br>------- ------,231350,231326,230869.94,230870,230870.22,231350.4,,5,crown
screen,html.Screen,2_1_1_1_6,2022-05-12T16:08:33.438Z,,,,,,,,,,,,,,,,,54,,,,,,,,,,,,,,757.6000000000058,,response,,,,100,,,,,,,Space,keypress(Space),,,,,,,,-- --- ---- --- ------ ----- secured ---- -- --- ------- --<br>------- ---------- ------ -- ----- -- ----- -- ---- ------<br>--- ----- --- --- ------ -------- ----- --- ------ ----- --<br>----- ----- ---------- --- --- ------ ------ ---- -- ------<br>------- --- ------ ----- --- ---- ------- -- ---- --- --<br>------- ------,232133,232108,231350.12,231350,231350.4,232134.64,,6,secured
screen,html.Screen,2_1_1_1_7,2022-05-12T16:08:33.878Z,,,,,,,,,,,,,,,,,54,,,,,,,,,,,,,,410.35999999998603,,response,,,,100,,,,,,,Space,keypress(Space),,,,,,,,-- --- ---- --- ------ ----- ------- much -- --- ------- --<br>------- ---------- ------ -- ----- -- ----- -- ---- ------<br>--- ----- --- --- ------ -------- ----- --- ------ ----- --<br>----- ----- ---------- --- --- ------ ------ ---- -- ------<br>------- --- ------ ----- --- ---- ------- -- ---- --- --<br>------- ------,232573,232545,232134.38,232134,232134.64,232574.64,,7,much
screen,html.Screen,2_1_1_1_8,2022-05-12T16:08:34.253Z,,,,,,,,,,,,,,,,,54,,,,,,,,,,,,,,346.35999999998603,,response,,,,100,,,,,,,Space,keypress(Space),,,,,,,,-- --- ---- --- ------ ----- ------- ---- of --- ------- --<br>------- ---------- ------ -- ----- -- ----- -- ---- ------<br>--- ----- --- --- ------ -------- ----- --- ------ ----- --<br>----- ----- ---------- --- --- ------ ------ ---- -- ------<br>------- --- ------ ----- --- ---- ------- -- ---- --- --<br>------- ------,232949,232921,232574.32,232574,232574.64,232950.36,,8,of
screen,html.Screen,2_1_1_1_9,2022-05-12T16:08:34.654Z,,,,,,,,,,,,,,,,,54,,,,,,,,,,,,,,376.64000000001397,,response,,,,100,,,,,,,Space,keypress(Space),,,,,,,,-- --- ---- --- ------ ----- ------- ---- -- its ------- --<br>------- ---------- ------ -- ----- -- ----- -- ---- ------<br>--- ----- --- --- ------ -------- ----- --- ------ ----- --<br>----- ----- ---------- --- --- ------ ------ ---- -- ------<br>------- --- ------ ----- --- ---- ------- -- ---- --- --<br>------- ------,233350,233327,232950.06,232950,232950.36,233350.52,,9,its
screen,html.Screen,2_1_1_1_10,2022-05-12T16:08:35.141Z,,,,,,,,,,,,,,,,,54,,,,,,,,,,,,,,459.4800000000105,,response,,,,100,,,,,,,Space,keypress(Space),,,,,,,,-- --- ---- --- ------ ----- ------- ---- -- --- revenue --<br>------- ---------- ------ -- ----- -- ----- -- ---- ------<br>--- ----- --- --- ------ -------- ----- --- ------ ----- --<br>----- ----- ---------- --- --- ------ ------ ---- -- ------<br>------- --- ------ ----- --- ---- ------- -- ---- --- --<br>------- ------,233838,233810,233350.22,233350,233350.52,233838.32,,10,revenue
screen,html.Screen,2_1_1_1_11,2022-05-12T16:08:35.693Z,,,,,,,,,,,,,,,,,54,,,,,,,,,,,,,,519.679999999993,,response,,,,100,,,,,,,Space,keypress(Space),,,,,,,,-- --- ---- --- ------ ----- ------- ---- -- --- ------- by<br>------- ---------- ------ -- ----- -- ----- -- ---- ------<br>--- ----- --- --- ------ -------- ----- --- ------ ----- --<br>----- ----- ---------- --- --- ------ ------ ---- -- ------<br>------- --- ------ ----- --- ---- ------- -- ---- --- --<br>------- ------,234389,234358,233838,233838,233838.32,234390.72,,11,by
screen,html.Screen,2_1_1_1_12,2022-05-12T16:08:36.118Z,,,,,,,,,,,,,,,,,54,,,,,,,,,,,,,,404.27999999999884,,response,,,,100,,,,,,,Space,keypress(Space),,,,,,,,-- --- ---- --- ------ ----- ------- ---- -- --- ------- --<br>issuing ---------- ------ -- ----- -- ----- -- ---- ------<br>--- ----- --- --- ------ -------- ----- --- ------ ----- --<br>----- ----- ---------- --- --- ------ ------ ---- -- ------<br>------- --- ------ ----- --- ---- ------- -- ---- --- --<br>------- ------,234813,234795,234390.42,234391,234390.72,234814.34,,12,issuing
screen,html.Screen,2_1_1_1_13,2022-05-12T16:08:36.542Z,,,,,,,,,,,,,,,,,54,,,,,,,,,,,,,,403.6600000000035,,response,,,,100,,,,,,,Space,keypress(Space),,,,,,,,-- --- ---- --- ------ ----- ------- ---- -- --- ------- --<br>------- government ------ -- ----- -- ----- -- ---- ------<br>--- ----- --- --- ------ -------- ----- --- ------ ----- --<br>----- ----- ---------- --- --- ------ ------ ---- -- ------<br>------- --- ------ ----- --- ---- ------- -- ---- --- --<br>------- ------,235238,235218,234814.06,234814,234814.34,235238.18,,13,government
screen,html.Screen,2_1_1_1_14,2022-05-12T16:08:37.013Z,,,,,,,,,,,,,,,,,54,,,,,,,,,,,,,,446.820000000007,,response,,,,100,,,,,,,Space,keypress(Space),,,,,,,,-- --- ---- --- ------ ----- ------- ---- -- --- ------- --<br>------- ---------- bonds. -- ----- -- ----- -- ---- ------<br>--- ----- --- --- ------ -------- ----- --- ------ ----- --<br>----- ----- ---------- --- --- ------ ------ ---- -- ------<br>------- --- ------ ----- --- ---- ------- -- ---- --- --<br>------- ------,235709,235685,235237.9,235238,235238.18,235710.22,,14,bonds.
screen,html.Screen,2_1_1_1_15,2022-05-12T16:08:37.478Z,,,,,,,,,,,,,,,,,54,,,,,,,,,,,,,,444.77999999999884,,response,,,,100,,,,,,,Space,keypress(Space),,,,,,,,-- --- ---- --- ------ ----- ------- ---- -- --- ------- --<br>------- ---------- ------ In ----- -- ----- -- ---- ------<br>--- ----- --- --- ------ -------- ----- --- ------ ----- --<br>----- ----- ---------- --- --- ------ ------ ---- -- ------<br>------- --- ------ ----- --- ---- ------- -- ---- --- --<br>------- ------,236174,236155,235709.92,235710,235710.22,236174.34,,15,In
screen,html.Screen,2_1_1_1_16,2022-05-12T16:08:38.118Z,,,,,,,,,,,,,,,,,54,,,,,,,,,,,,,,620.6600000000035,,response,,,,100,,,,,,,Space,keypress(Space),,,,,,,,"-- --- ---- --- ------ ----- ------- ---- -- --- ------- --<br>------- ---------- ------ -- 1727, -- ----- -- ---- ------<br>--- ----- --- --- ------ -------- ----- --- ------ ----- --<br>----- ----- ---------- --- --- ------ ------ ---- -- ------<br>------- --- ------ ----- --- ---- ------- -- ---- --- --<br>------- ------",236814,236795,236174.04,236174,236174.34,236814.54,,16,"1727,"
screen,html.Screen,2_1_1_1_17,2022-05-12T16:08:38.518Z,,,,,,,,,,,,,,,,,54,,,,,,,,,,,,,,371.45999999999185,,response,,,,100,,,,,,,Space,keypress(Space),,,,,,,,-- --- ---- --- ------ ----- ------- ---- -- --- ------- --<br>------- ---------- ------ -- ----- in ----- -- ---- ------<br>--- ----- --- --- ------ -------- ----- --- ------ ----- --<br>----- ----- ---------- --- --- ------ ------ ---- -- ------<br>------- --- ------ ----- --- ---- ------- -- ---- --- --<br>------- ------,237214,237186,236814.26,236814,236814.54,237214.36,,17,in
screen,html.Screen,2_1_1_1_18,2022-05-12T16:08:38.941Z,,,,,,,,,,,,,,,,,54,,,,,,,,,,,,,,393.64000000001397,,response,,,,100,,,,,,,Space,keypress(Space),,,,,,,,-- --- ---- --- ------ ----- ------- ---- -- --- ------- --<br>------- ---------- ------ -- ----- -- order -- ---- ------<br>--- ----- --- --- ------ -------- ----- --- ------ ----- --<br>----- ----- ---------- --- --- ------ ------ ---- -- ------<br>------- --- ------ ----- --- ---- ------- -- ---- --- --<br>------- ------,237638,237608,237214.1,237214,237214.36,237638.26,,18,order
screen,html.Screen,2_1_1_1_19,2022-05-12T16:08:39.341Z,,,,,,,,,,,,,,,,,54,,,,,,,,,,,,,,376.7399999999907,,response,,,,100,,,,,,,Space,keypress(Space),,,,,,,,-- --- ---- --- ------ ----- ------- ---- -- --- ------- --<br>------- ---------- ------ -- ----- -- ----- to ---- ------<br>--- ----- --- --- ------ -------- ----- --- ------ ----- --<br>----- ----- ---------- --- --- ------ ------ ---- -- ------<br>------- --- ------ ----- --- ---- ------- -- ---- --- --<br>------- ------,238038,238015,237637.88,237638,237638.26,238038.22,,19,to
screen,html.Screen,2_1_1_1_20,2022-05-12T16:08:39.741Z,,,,,,,,,,,,,,,,,54,,,,,,,,,,,,,,381.77999999999884,,response,,,,100,,,,,,,Space,keypress(Space),,,,,,,,-- --- ---- --- ------ ----- ------- ---- -- --- ------- --<br>------- ---------- ------ -- ----- -- ----- -- save ------<br>--- ----- --- --- ------ -------- ----- --- ------ ----- --<br>----- ----- ---------- --- --- ------ ------ ---- -- ------<br>------- --- ------ ----- --- ---- ------- -- ---- --- --<br>------- ------,238437,238420,238037.94,238038,238038.22,238438.18,,20,save
screen,html.Screen,2_1_1_1_21,2022-05-12T16:08:40.109Z,,,,,,,,,,,,,,,,,54,,,,,,,,,,,,,,340.820000000007,,response,,,,100,,,,,,,Space,keypress(Space),,,,,,,,"-- --- ---- --- ------ ----- ------- ---- -- --- ------- --<br>------- ---------- ------ -- ----- -- ----- -- ---- money,<br>--- ----- --- --- ------ -------- ----- --- ------ ----- --<br>----- ----- ---------- --- --- ------ ------ ---- -- ------<br>------- --- ------ ----- --- ---- ------- -- ---- --- --<br>------- ------",238805,238779,238437.9,238438,238438.18,238806.36,,21,"money,"
screen,html.Screen,2_1_1_1_22,2022-05-12T16:08:40.501Z,,,,,,,,,,,,,,,,,54,,,,,,,,,,,,,,364.64000000001397,,response,,,,100,,,,,,,Space,keypress(Space),,,,,,,,-- --- ---- --- ------ ----- ------- ---- -- --- ------- --<br>------- ---------- ------ -- ----- -- ----- -- ---- ------<br>the ----- --- --- ------ -------- ----- --- ------ ----- --<br>----- ----- ---------- --- --- ------ ------ ---- -- ------<br>------- --- ------ ----- --- ---- ------- -- ---- --- --<br>------- ------,239197,239171,238806.08,238806,238806.36,239198.12,,22,the
screen,html.Screen,2_1_1_1_23,2022-05-12T16:08:40.870Z,,,,,,,,,,,,,,,,,54,,,,,,,,,,,,,,347.88000000000466,,response,,,,100,,,,,,,Space,keypress(Space),,,,,,,,-- --- ---- --- ------ ----- ------- ---- -- --- ------- --<br>------- ---------- ------ -- ----- -- ----- -- ---- ------<br>--- state --- --- ------ -------- ----- --- ------ ----- --<br>----- ----- ---------- --- --- ------ ------ ---- -- ------<br>------- --- ------ ----- --- ---- ------- -- ---- --- --<br>------- ------,239566,239546,239197.84,239198,239198.12,239566.48,,23,state
screen,html.Screen,2_1_1_1_24,2022-05-12T16:08:41.262Z,,,,,,,,,,,,,,,,,54,,,,,,,,,,,,,,369.5199999999895,,response,,,,100,,,,,,,Space,keypress(Space),,,,,,,,-- --- ---- --- ------ ----- ------- ---- -- --- ------- --<br>------- ---------- ------ -- ----- -- ----- -- ---- ------<br>--- ----- cut --- ------ -------- ----- --- ------ ----- --<br>----- ----- ---------- --- --- ------ ------ ---- -- ------<br>------- --- ------ ----- --- ---- ------- -- ---- --- --<br>------- ------,239957,239936,239566.2,239566,239566.48,239958.16,,24,cut
screen,html.Screen,2_1_1_1_25,2022-05-12T16:08:41.614Z,,,,,,,,,,,,,,,,,54,,,,,,,,,,,,,,321.8399999999965,,response,,,,100,,,,,,,Space,keypress(Space),,,,,,,,-- --- ---- --- ------ ----- ------- ---- -- --- ------- --<br>------- ---------- ------ -- ----- -- ----- -- ---- ------<br>--- ----- --- the ------ -------- ----- --- ------ ----- --<br>----- ----- ---------- --- --- ------ ------ ---- -- ------<br>------- --- ------ ----- --- ---- ------- -- ---- --- --<br>------- ------,240309,240280,239957.9,239958,239958.16,240312,,25,the
screen,html.Screen,2_1_1_1_26,2022-05-12T16:08:42.006Z,,,,,,,,,,,,,,,,,54,,,,,,,,,,,,,,358,,response,,,,100,,,,,,,Space,keypress(Space),,,,,,,,-- --- ---- --- ------ ----- ------- ---- -- --- ------- --<br>------- ---------- ------ -- ----- -- ----- -- ---- ------<br>--- ----- --- --- bonds' -------- ----- --- ------ ----- --<br>----- ----- ---------- --- --- ------ ------ ---- -- ------<br>------- --- ------ ----- --- ---- ------- -- ---- --- --<br>------- ------,240701,240670,240309.98,240310,240312,240702.22,,26,bonds'
screen,html.Screen,2_1_1_1_27,2022-05-12T16:08:42.485Z,,,,,,,,,,,,,,,,,54,,,,,,,,,,,,,,451.77999999999884,,response,,,,100,,,,,,,Space,keypress(Space),,,,,,,,-- --- ---- --- ------ ----- ------- ---- -- --- ------- --<br>------- ---------- ------ -- ----- -- ----- -- ---- ------<br>--- ----- --- --- ------ interest ----- --- ------ ----- --<br>----- ----- ---------- --- --- ------ ------ ---- -- ------<br>------- --- ------ ----- --- ---- ------- -- ---- --- --<br>------- ------,241182,241154,240701.94,240702,240702.22,241182.28,,27,interest
screen,html.Screen,2_1_1_1_28,2022-05-12T16:08:42.870Z,,,,,,,,,,,,,,,,,54,,,,,,,,,,,,,,363.72000000000116,,response,,,,100,,,,,,,Space,keypress(Space),,,,,,,,-- --- ---- --- ------ ----- ------- ---- -- --- ------- --<br>------- ---------- ------ -- ----- -- ----- -- ---- ------<br>--- ----- --- --- ------ -------- rate. --- ------ ----- --<br>----- ----- ---------- --- --- ------ ------ ---- -- ------<br>------- --- ------ ----- --- ---- ------- -- ---- --- --<br>------- ------,241565,241546,241182,241182,241182.28,241566.18,,28,rate.
screen,html.Screen,2_1_1_1_29,2022-05-12T16:08:43.197Z,,,,,,,,,,,,,,,,,54,,,,,,,,,,,,,,307.820000000007,,response,,,,100,,,,,,,Space,keypress(Space),,,,,,,,-- --- ---- --- ------ ----- ------- ---- -- --- ------- --<br>------- ---------- ------ -- ----- -- ----- -- ---- ------<br>--- ----- --- --- ------ -------- ----- The ------ ----- --<br>----- ----- ---------- --- --- ------ ------ ---- -- ------<br>------- --- ------ ----- --- ---- ------- -- ---- --- --<br>------- ------,241893,241874,241565.9,241566,241566.18,241894.26,,29,The
screen,html.Screen,2_1_1_1_30,2022-05-12T16:08:43.510Z,,,,,,,,,,,,,,,,,54,,,,,,,,,,,,,,290.7399999999907,,response,,,,100,,,,,,,Space,keypress(Space),,,,,,,,-- --- ---- --- ------ ----- ------- ---- -- --- ------- --<br>------- ---------- ------ -- ----- -- ----- -- ---- ------<br>--- ----- --- --- ------ -------- ----- --- market ----- --<br>----- ----- ---------- --- --- ------ ------ ---- -- ------<br>------- --- ------ ----- --- ---- ------- -- ---- --- --<br>------- ------,242206,242185,241893.96,241893,241894.26,242206.46,,30,market
screen,html.Screen,2_1_1_1_31,2022-05-12T16:08:43.870Z,,,,,,,,,,,,,,,,,54,,,,,,,,,,,,,,339.54000000000815,,response,,,,100,,,,,,,Space,keypress(Space),,,,,,,,-- --- ---- --- ------ ----- ------- ---- -- --- ------- --<br>------- ---------- ------ -- ----- -- ----- -- ---- ------<br>--- ----- --- --- ------ -------- ----- --- ------ value --<br>----- ----- ---------- --- --- ------ ------ ---- -- ------<br>------- --- ------ ----- --- ---- ------- -- ---- --- --<br>------- ------,242565,242546,242206.16,242206,242206.46,242566.54,,31,value
screen,html.Screen,2_1_1_1_32,2022-05-12T16:08:44.213Z,,,,,,,,,,,,,,,,,54,,,,,,,,,,,,,,323.45999999999185,,response,,,,100,,,,,,,Space,keypress(Space),,,,,,,,-- --- ---- --- ------ ----- ------- ---- -- --- ------- --<br>------- ---------- ------ -- ----- -- ----- -- ---- ------<br>--- ----- --- --- ------ -------- ----- --- ------ ----- of<br>----- ----- ---------- --- --- ------ ------ ---- -- ------<br>------- --- ------ ----- --- ---- ------- -- ---- --- --<br>------- ------,242909,242890,242566.26,242566,242566.54,242910.24,,32,of
screen,html.Screen,2_1_1_1_33,2022-05-12T16:08:44.590Z,,,,,,,,,,,,,,,,,54,,,,,,,,,,,,,,369.7600000000093,,response,,,,100,,,,,,,Space,keypress(Space),,,,,,,,-- --- ---- --- ------ ----- ------- ---- -- --- ------- --<br>------- ---------- ------ -- ----- -- ----- -- ---- ------<br>--- ----- --- --- ------ -------- ----- --- ------ ----- --<br>these ----- ---------- --- --- ------ ------ ---- -- ------<br>------- --- ------ ----- --- ---- ------- -- ---- --- --<br>------- ------,243286,243280,242909.96,242909,242910.24,243286.64,,33,these
screen,html.Screen,2_1_1_1_34,2022-05-12T16:08:44.918Z,,,,,,,,,,,,,,,,,54,,,,,,,,,,,,,,321.35999999998603,,response,,,,100,,,,,,,Space,keypress(Space),,,,,,,,-- --- ---- --- ------ ----- ------- ---- -- --- ------- --<br>------- ---------- ------ -- ----- -- ----- -- ---- ------<br>--- ----- --- --- ------ -------- ----- --- ------ ----- --<br>----- bonds ---------- --- --- ------ ------ ---- -- ------<br>------- --- ------ ----- --- ---- ------- -- ---- --- --<br>------- ------,243613,243608,243286.34,243286,243286.64,243615.3,,34,bonds
screen,html.Screen,2_1_1_1_35,2022-05-12T16:08:45.316Z,,,,,,,,,,,,,,,,,54,,,,,,,,,,,,,,383.70000000001164,,response,,,,100,,,,,,,Space,keypress(Space),,,,,,,,"-- --- ---- --- ------ ----- ------- ---- -- --- ------- --<br>------- ---------- ------ -- ----- -- ----- -- ---- ------<br>--- ----- --- --- ------ -------- ----- --- ------ ----- --<br>----- ----- plummeted, --- --- ------ ------ ---- -- ------<br>------- --- ------ ----- --- ---- ------- -- ---- --- --<br>------- ------",244012,243999,243613.82,243614,243615.3,244013.02,,35,"plummeted,"
screen,html.Screen,2_1_1_1_36,2022-05-12T16:08:45.703Z,,,,,,,,,,,,,,,,,54,,,,,,,,,,,,,,375.9800000000105,,response,,,,100,,,,,,,Space,keypress(Space),,,,,,,,-- --- ---- --- ------ ----- ------- ---- -- --- ------- --<br>------- ---------- ------ -- ----- -- ----- -- ---- ------<br>--- ----- --- --- ------ -------- ----- --- ------ ----- --<br>----- ----- ---------- and --- ------ ------ ---- -- ------<br>------- --- ------ ----- --- ---- ------- -- ---- --- --<br>------- ------,244399,244389,244012.84,244012,244013.02,244399.76,,36,and
screen,html.Screen,2_1_1_1_37,2022-05-12T16:08:46.061Z,,,,,,,,,,,,,,,,,54,,,,,,,,,,,,,,349.2399999999907,,response,,,,100,,,,,,,Space,keypress(Space),,,,,,,,-- --- ---- --- ------ ----- ------- ---- -- --- ------- --<br>------- ---------- ------ -- ----- -- ----- -- ---- ------<br>--- ----- --- --- ------ -------- ----- --- ------ ----- --<br>----- ----- ---------- --- the ------ ------ ---- -- ------<br>------- --- ------ ----- --- ---- ------- -- ---- --- --<br>------- ------,244758,244749,244399.46,244399,244399.76,244758.12,,37,the
screen,html.Screen,2_1_1_1_38,2022-05-12T16:08:46.357Z,,,,,,,,,,,,,,,,,54,,,,,,,,,,,,,,287.88000000000466,,response,,,,100,,,,,,,Space,keypress(Space),,,,,,,,-- --- ---- --- ------ ----- ------- ---- -- --- ------- --<br>------- ---------- ------ -- ----- -- ----- -- ---- ------<br>--- ----- --- --- ------ -------- ----- --- ------ ----- --<br>----- ----- ---------- --- --- market ------ ---- -- ------<br>------- --- ------ ----- --- ---- ------- -- ---- --- --<br>------- ------,245053,245046,244757.84,244758,244758.12,245054.8,,38,market
screen,html.Screen,2_1_1_1_39,2022-05-12T16:08:46.734Z,,,,,,,,,,,,,,,,,54,,,,,,,,,,,,,,366.20000000001164,,response,,,,100,,,,,,,Space,keypress(Space),,,,,,,,-- --- ---- --- ------ ----- ------- ---- -- --- ------- --<br>------- ---------- ------ -- ----- -- ----- -- ---- ------<br>--- ----- --- --- ------ -------- ----- --- ------ ----- --<br>----- ----- ---------- --- --- ------ became ---- -- ------<br>------- --- ------ ----- --- ---- ------- -- ---- --- --<br>------- ------,245430,245421,245054.5,245054,245054.8,245430.22,,39,became
screen,html.Screen,2_1_1_1_40,2022-05-12T16:08:47.084Z,,,,,,,,,,,,,,,,,54,,,,,,,,,,,,,,333.77999999999884,,response,,,,100,,,,,,,Space,keypress(Space),,,,,,,,-- --- ---- --- ------ ----- ------- ---- -- --- ------- --<br>------- ---------- ------ -- ----- -- ----- -- ---- ------<br>--- ----- --- --- ------ -------- ----- --- ------ ----- --<br>----- ----- ---------- --- --- ------ ------ wary -- ------<br>------- --- ------ ----- --- ---- ------- -- ---- --- --<br>------- ------,245781,245764,245429.94,245430,245430.22,245781.34,,40,wary
screen,html.Screen,2_1_1_1_41,2022-05-12T16:08:47.446Z,,,,,,,,,,,,,,,,,54,,,,,,,,,,,,,,342.6600000000035,,response,,,,100,,,,,,,Space,keypress(Space),,,,,,,,-- --- ---- --- ------ ----- ------- ---- -- --- ------- --<br>------- ---------- ------ -- ----- -- ----- -- ---- ------<br>--- ----- --- --- ------ -------- ----- --- ------ ----- --<br>----- ----- ---------- --- --- ------ ------ ---- of ------<br>------- --- ------ ----- --- ---- ------- -- ---- --- --<br>------- ------,246142,246124,245781.14,245781,245781.34,246142.28,,41,of
screen,html.Screen,2_1_1_1_42,2022-05-12T16:08:47.821Z,,,,,,,,,,,,,,,,,54,,,,,,,,,,,,,,371.72000000000116,,response,,,,100,,,,,,,Space,keypress(Space),,,,,,,,-- --- ---- --- ------ ----- ------- ---- -- --- ------- --<br>------- ---------- ------ -- ----- -- ----- -- ---- ------<br>--- ----- --- --- ------ -------- ----- --- ------ ----- --<br>----- ----- ---------- --- --- ------ ------ ---- -- French<br>------- --- ------ ----- --- ---- ------- -- ---- --- --<br>------- ------,246517,246514,246141.98,246142,246142.28,246518.1,,42,French
screen,html.Screen,2_1_1_1_43,2022-05-12T16:08:48.181Z,,,,,,,,,,,,,,,,,54,,,,,,,,,,,,,,355.8999999999942,,response,,,,100,,,,,,,Space,keypress(Space),,,,,,,,-- --- ---- --- ------ ----- ------- ---- -- --- ------- --<br>------- ---------- ------ -- ----- -- ----- -- ---- ------<br>--- ----- --- --- ------ -------- ----- --- ------ ----- --<br>----- ----- ---------- --- --- ------ ------ ---- -- ------<br>credit. --- ------ ----- --- ---- ------- -- ---- --- --<br>------- ------,246877,246874,246517.8,246517,246518.1,246878.14,,43,credit.
screen,html.Screen,2_1_1_1_44,2022-05-12T16:08:48.493Z,,,,,,,,,,,,,,,,,54,,,,,,,,,,,,,,307.85999999998603,,response,,,,100,,,,,,,Space,keypress(Space),,,,,,,,-- --- ---- --- ------ ----- ------- ---- -- --- ------- --<br>------- ---------- ------ -- ----- -- ----- -- ---- ------<br>--- ----- --- --- ------ -------- ----- --- ------ ----- --<br>----- ----- ---------- --- --- ------ ------ ---- -- ------<br>------- The ------ ----- --- ---- ------- -- ---- --- --<br>------- ------,247190,247186,246877.86,246877,246878.14,247190.3,,44,The
screen,html.Screen,2_1_1_1_45,2022-05-12T16:08:48.710Z,,,,,,,,,,,,,,,,,54,,,,,,,,,,,,,,199.70000000001164,,response,,,,100,,,,,,,Space,keypress(Space),,,,,,,,-- --- ---- --- ------ ----- ------- ---- -- --- ------- --<br>------- ---------- ------ -- ----- -- ----- -- ---- ------<br>--- ----- --- --- ------ -------- ----- --- ------ ----- --<br>----- ----- ---------- --- --- ------ ------ ---- -- ------<br>------- --- French ----- --- ---- ------- -- ---- --- --<br>------- ------,247406,247390,247190,247190,247190.3,247406.46,,45,French
screen,html.Screen,2_1_1_1_46,2022-05-12T16:08:48.941Z,,,,,,,,,,,,,,,,,54,,,,,,,,,,,,,,216.54000000000815,,response,,,,100,,,,,,,Space,keypress(Space),,,,,,,,-- --- ---- --- ------ ----- ------- ---- -- --- ------- --<br>------- ---------- ------ -- ----- -- ----- -- ---- ------<br>--- ----- --- --- ------ -------- ----- --- ------ ----- --<br>----- ----- ---------- --- --- ------ ------ ---- -- ------<br>------- --- ------ state --- ---- ------- -- ---- --- --<br>------- ------,247638,247623,247406.18,247406,247406.46,247638.1,,46,state
screen,html.Screen,2_1_1_1_47,2022-05-12T16:08:49.342Z,,,,,,,,,,,,,,,,,54,,,,,,,,,,,,,,391.8999999999942,,response,,,,100,,,,,,,Space,keypress(Space),,,,,,,,-- --- ---- --- ------ ----- ------- ---- -- --- ------- --<br>------- ---------- ------ -- ----- -- ----- -- ---- ------<br>--- ----- --- --- ------ -------- ----- --- ------ ----- --<br>----- ----- ---------- --- --- ------ ------ ---- -- ------<br>------- --- ------ ----- was ---- ------- -- ---- --- --<br>------- ------,248037,248030,247637.82,247638,247638.1,248038,,47,was
screen,html.Screen,2_1_1_1_48,2022-05-12T16:08:49.693Z,,,,,,,,,,,,,,,,,54,,,,,,,,,,,,,,336,,response,,,,100,,,,,,,Space,keypress(Space),,,,,,,,-- --- ---- --- ------ ----- ------- ---- -- --- ------- --<br>------- ---------- ------ -- ----- -- ----- -- ---- ------<br>--- ----- --- --- ------ -------- ----- --- ------ ----- --<br>----- ----- ---------- --- --- ------ ------ ---- -- ------<br>------- --- ------ ----- --- left ------- -- ---- --- --<br>------- ------,248390,248374,248037.72,248037,248038,248390.12,,48,left
screen,html.Screen,2_1_1_1_49,2022-05-12T16:08:50.069Z,,,,,,,,,,,,,,,,,54,,,,,,,,,,,,,,357.88000000000466,,response,,,,100,,,,,,,Space,keypress(Space),,,,,,,,-- --- ---- --- ------ ----- ------- ---- -- --- ------- --<br>------- ---------- ------ -- ----- -- ----- -- ---- ------<br>--- ----- --- --- ------ -------- ----- --- ------ ----- --<br>----- ----- ---------- --- --- ------ ------ ---- -- ------<br>------- --- ------ ----- --- ---- without -- ---- --- --<br>------- ------,248765,248748,248389.84,248390,248390.12,248766.1,,49,without
screen,html.Screen,2_1_1_1_50,2022-05-12T16:08:50.421Z,,,,,,,,,,,,,,,,,54,,,,,,,,,,,,,,341.8999999999942,,response,,,,100,,,,,,,Space,keypress(Space),,,,,,,,-- --- ---- --- ------ ----- ------- ---- -- --- ------- --<br>------- ---------- ------ -- ----- -- ----- -- ---- ------<br>--- ----- --- --- ------ -------- ----- --- ------ ----- --<br>----- ----- ---------- --- --- ------ ------ ---- -- ------<br>------- --- ------ ----- --- ---- ------- an ---- --- --<br>------- ------,249117,249108,248765.82,248766,248766.1,249118.04,,50,an
screen,html.Screen,2_1_1_1_51,2022-05-12T16:08:50.749Z,,,,,,,,,,,,,,,,,54,,,,,,,,,,,,,,317.95999999999185,,response,,,,100,,,,,,,Space,keypress(Space),,,,,,,,-- --- ---- --- ------ ----- ------- ---- -- --- ------- --<br>------- ---------- ------ -- ----- -- ----- -- ---- ------<br>--- ----- --- --- ------ -------- ----- --- ------ ----- --<br>----- ----- ---------- --- --- ------ ------ ---- -- ------<br>------- --- ------ ----- --- ---- ------- -- easy --- --<br>------- ------,249445,249436,249117.76,249117,249118.04,249446.36,,51,easy
screen,html.Screen,2_1_1_1_52,2022-05-12T16:08:51.085Z,,,,,,,,,,,,,,,,,54,,,,,,,,,,,,,,318.64000000001397,,response,,,,100,,,,,,,Space,keypress(Space),,,,,,,,-- --- ---- --- ------ ----- ------- ---- -- --- ------- --<br>------- ---------- ------ -- ----- -- ----- -- ---- ------<br>--- ----- --- --- ------ -------- ----- --- ------ ----- --<br>----- ----- ---------- --- --- ------ ------ ---- -- ------<br>------- --- ------ ----- --- ---- ------- -- ---- way --<br>------- ------,249781,249765,249446.06,249446,249446.36,249782.12,,52,way
screen,html.Screen,2_1_1_1_53,2022-05-12T16:08:51.430Z,,,,,,,,,,,,,,,,,54,,,,,,,,,,,,,,325.88000000000466,,response,,,,100,,,,,,,Space,keypress(Space),,,,,,,,-- --- ---- --- ------ ----- ------- ---- -- --- ------- --<br>------- ---------- ------ -- ----- -- ----- -- ---- ------<br>--- ----- --- --- ------ -------- ----- --- ------ ----- --<br>----- ----- ---------- --- --- ------ ------ ---- -- ------<br>------- --- ------ ----- --- ---- ------- -- ---- --- of<br>------- ------,250126,250108,249781.84,249781,249782.12,250126.24,,53,of
screen,html.Screen,2_1_1_1_54,2022-05-12T16:08:51.812Z,,,,,,,,,,,,,,,,,54,,,,,,,,,,,,,,372.7600000000093,,response,,,,100,,,,,,,Space,keypress(Space),,,,,,,,-- --- ---- --- ------ ----- ------- ---- -- --- ------- --<br>------- ---------- ------ -- ----- -- ----- -- ---- ------<br>--- ----- --- --- ------ -------- ----- --- ------ ----- --<br>----- ----- ---------- --- --- ------ ------ ---- -- ------<br>------- --- ------ ----- --- ---- ------- -- ---- --- --<br>raising ------,250508,250499,250125.96,250126,250126.24,250509.1,,54,raising
screen,html.Screen,2_1_1_1_55,2022-05-12T16:08:52.341Z,,,,,,,,,,,,,,,,,54,,,,,,,,,,,,,,520.8999999999942,,response,,,,100,,,,,,,Space,keypress(Space),,,,,,,,-- --- ---- --- ------ ----- ------- ---- -- --- ------- --<br>------- ---------- ------ -- ----- -- ----- -- ---- ------<br>--- ----- --- --- ------ -------- ----- --- ------ ----- --<br>----- ----- ---------- --- --- ------ ------ ---- -- ------<br>------- --- ------ ----- --- ---- ------- -- ---- --- --<br>------- money.,251037,251030,250508.9,250509,250509.1,251038.62,,55,money.
Item 100,flow.Loop,2_1_1_1,2022-05-12T16:08:52.342Z,,,,,,,,,,,,,,,,,,,,,,,,,,,,,,,24715.29999999999,,completion,,,,,F,,,,,,,,,,,silence,,,,,251038,251030,226298.02,226300,226314.7,251038.62,,,
Question 1,html.Screen,2_1_1_2,2022-05-12T16:08:55.274Z,,,,,,,,,,,,,,,,,,,,,,,,,,,,true,TRUE,,2928.3800000000047,,response,,,,100,F,,,,,,TRUE,click #choice-1,,,,silence,,,,,253970,253967,251038.34,251038,251038.62,253975.58,,,
Question 2,html.Screen,2_1_1_3,2022-05-12T16:08:58.400Z,,,,,,,,,,,,,,,,,,,,,,,,,,,,true,FALSE,,3116.420000000013,,response,,,,100,F,,,,,,FALSE,click #choice-2,,,,silence,,,,,257096,257092,253969.84,253970,253975.58,257111.92,,,
Item 100,flow.Sequence,2_1_1,2022-05-12T16:08:58.400Z,,,,,,,,,,,,,,,,,,,,,,,,,,,,,,,40770.600000000006,,completion,,,,,,,,,,,,,,,,,,,,,257096,257092,216311.94,216313,216321.4,257111.92,,,
End of Practice,html.Page,2_1_2,2022-05-12T16:09:06.308Z,,,,,,,,,,,,,,,,,,,,,,,,,,,,,,,7892.079999999987,,form submission,,,,,,,,,,,,,,,,,,,,,265004,265004,257095.5,257096,257111.92,265003.16,,,
Practice,flow.Sequence,2_1,2022-05-12T16:09:06.308Z,,,,,,,,,,,,,,,,,,,,,,,,,,,,,,,91024.70000000001,,completion,,,,,,,,,,,,,,,,,,,,,265004,265004,173966.02,173970,173979.3,265003.16,,,
Trap_instruction,html.Page,2_2_0,2022-05-12T16:09:12.802Z,,,,,,,,,,,,,,,,,,,,,,,,,,,,,,,6494.840000000026,,form submission,,,,,,,,,,,,,,,,,,,,,271498,271498,265001.8,265004,265003.16,271509.64,,,
trap_trial,html.Screen,2_2_1,2022-05-12T16:09:15.553Z,,,,,,,,,,,,,,,,,,,,,,,,,,,,true,1,,2722.359999999986,,response,,,,,,,,,,,1,click #choice-1,,,,,,,,,274249,274232,271495.82,271498,271509.64,274262.44,,,
end of trap trial,html.Page,2_2_2,2022-05-12T16:09:18.092Z,,,,,,,,,,,,,,,,,,,,,,,,,,,,,,,2524.5599999999977,,form submission,,,,,,,,,,,,,,,,,,,,,276787,276787,274249.16,274249,274262.44,276798.22,,,
Trap 1,flow.Sequence,2_2,2022-05-12T16:09:18.092Z,,,,,,,,,,,,,,,,,,,,,,,,,,,,,,,11783.840000000026,,completion,,,,,,,,,,,,,,,,,,,,,276787,276787,265001.8,265004,265003.16,276798.22,,,
Standby,html.Page,2_3_0,2022-05-12T16:09:26.094Z,,,,,,,,,,,,,,,,,,,,,,,,,,,,,,,8008.080000000016,,timeout,,,,,,,,,,,,,,,,,,,,,284791,284789.62,276785.62,276788,276798.22,284806.3,,,
Holding screen,html.Screen,2_3_1_0_0,2022-05-12T16:09:33.102Z,,,,,,,,,,,,,,,,,,,,,,,,,,,,,,,7006.98000000004,,timeout,,,,,,,,,,,,,,,,,,,,,291797,291796.58,284789.62,284791,284806.3,291813.28,,,
screen,html.Screen,2_3_1_0_1_0,2022-05-12T16:09:34.597Z,,,,,,,,,,,,,,,,,19,,,,,,,,,,,,,,1451.719999999972,,response,,,,17,F,,,,,,Space,keypress(Space),,,,lyrical,,,,"Interestingly, --- -------- -------- ---------- ---- -------<br>-- ---------- -- --- ----- ------ ----- ---- --------- ----<br>------- ------ -------- -- ------ ---------- ------ ---<br>------ -- -- ---- -- ---------- -------- ------ ---- -------<br>---- --- --------- ------- ----- --------- ---- ----- --<br>------ -------- -- ------ -- ---- ------------",293294,293265,291796.58,291798,291813.28,293294.4,,0,"Interestingly,"
screen,html.Screen,2_3_1_0_1_1,2022-05-12T16:09:35.110Z,,,,,,,,,,,,,,,,,19,,,,,,,,,,,,,,485.5999999999767,,response,,,,17,F,,,,,,Space,keypress(Space),,,,lyrical,,,,-------------- the -------- -------- ---------- ---- -------<br>-- ---------- -- --- ----- ------ ----- ---- --------- ----<br>------- ------ -------- -- ------ ---------- ------ ---<br>------ -- -- ---- -- ---------- -------- ------ ---- -------<br>---- --- --------- ------- ----- --------- ---- ----- --<br>------ -------- -- ------ -- ---- ------------,293805,293780,293294.14,293294,293294.4,293806.14,,1,the
screen,html.Screen,2_3_1_0_1_2,2022-05-12T16:09:35.725Z,,,,,,,,,,,,,,,,,19,,,,,,,,,,,,,,597.859999999986,,response,,,,17,F,,,,,,Space,keypress(Space),,,,lyrical,,,,-------------- --- heaviest -------- ---------- ---- -------<br>-- ---------- -- --- ----- ------ ----- ---- --------- ----<br>------- ------ -------- -- ------ ---------- ------ ---<br>------ -- -- ---- -- ---------- -------- ------ ---- -------<br>---- --- --------- ------- ----- --------- ---- ----- --<br>------ -------- -- ------ -- ---- ------------,294422,294404,293805.88,293805,293806.14,294422.16,,2,heaviest
screen,html.Screen,2_3_1_0_1_3,2022-05-12T16:09:36.366Z,,,,,,,,,,,,,,,,,19,,,,,,,,,,,,,,607.8400000000256,,response,,,,17,F,,,,,,Space,keypress(Space),,,,lyrical,,,,-------------- --- -------- isotopes ---------- ---- -------<br>-- ---------- -- --- ----- ------ ----- ---- --------- ----<br>------- ------ -------- -- ------ ---------- ------ ---<br>------ -- -- ---- -- ---------- -------- ------ ---- -------<br>---- --- --------- ------- ----- --------- ---- ----- --<br>------ -------- -- ------ -- ---- ------------,295062,295030,294421.88,294422,294422.16,295062.2,,3,isotopes
screen,html.Screen,2_3_1_0_1_4,2022-05-12T16:09:36.901Z,,,,,,,,,,,,,,,,,19,,,,,,,,,,,,,,513.7999999999884,,response,,,,17,F,,,,,,Space,keypress(Space),,,,lyrical,,,,-------------- --- -------- -------- physicists ---- -------<br>-- ---------- -- --- ----- ------ ----- ---- --------- ----<br>------- ------ -------- -- ------ ---------- ------ ---<br>------ -- -- ---- -- ---------- -------- ------ ---- -------<br>---- --- --------- ------- ----- --------- ---- ----- --<br>------ -------- -- ------ -- ---- ------------,295597,295576,295061.92,295062,295062.2,295597.92,,4,physicists
screen,html.Screen,2_3_1_0_1_5,2022-05-12T16:09:37.310Z,,,,,,,,,,,,,,,,,19,,,,,,,,,,,,,,384.0800000000163,,response,,,,17,F,,,,,,Space,keypress(Space),,,,lyrical,,,,-------------- --- -------- -------- ---------- have -------<br>-- ---------- -- --- ----- ------ ----- ---- --------- ----<br>------- ------ -------- -- ------ ---------- ------ ---<br>------ -- -- ---- -- ---------- -------- ------ ---- -------<br>---- --- --------- ------- ----- --------- ---- ----- --<br>------ -------- -- ------ -- ---- ------------,296005,295982,295597.66,295597,295597.92,296006.2,,5,have
screen,html.Screen,2_3_1_0_1_6,2022-05-12T16:09:37.750Z,,,,,,,,,,,,,,,,,19,,,,,,,,,,,,,,414.79999999998836,,response,,,,17,F,,,,,,Space,keypress(Space),,,,lyrical,,,,-------------- --- -------- -------- ---------- ---- managed<br>-- ---------- -- --- ----- ------ ----- ---- --------- ----<br>------- ------ -------- -- ------ ---------- ------ ---<br>------ -- -- ---- -- ---------- -------- ------ ---- -------<br>---- --- --------- ------- ----- --------- ---- ----- --<br>------ -------- -- ------ -- ---- ------------,296445,296421,296005.9,296006,296006.2,296446.08,,6,managed
screen,html.Screen,2_3_1_0_1_7,2022-05-12T16:09:38.165Z,,,,,,,,,,,,,,,,,19,,,,,,,,,,,,,,396.9199999999837,,response,,,,17,F,,,,,,Space,keypress(Space),,,,lyrical,,,,-------------- --- -------- -------- ---------- ---- -------<br>to ---------- -- --- ----- ------ ----- ---- --------- ----<br>------- ------ -------- -- ------ ---------- ------ ---<br>------ -- -- ---- -- ---------- -------- ------ ---- -------<br>---- --- --------- ------- ----- --------- ---- ----- --<br>------ -------- -- ------ -- ---- ------------,296861,296843,296445.8,296445,296446.08,296862.22,,7,to
screen,html.Screen,2_3_1_0_1_8,2022-05-12T16:09:38.710Z,,,,,,,,,,,,,,,,,19,,,,,,,,,,,,,,511.78000000002794,,response,,,,17,F,,,,,,Space,keypress(Space),,,,lyrical,,,,-------------- --- -------- -------- ---------- ---- -------<br>-- synthesize -- --- ----- ------ ----- ---- --------- ----<br>------- ------ -------- -- ------ ---------- ------ ---<br>------ -- -- ---- -- ---------- -------- ------ ---- -------<br>---- --- --------- ------- ----- --------- ---- ----- --<br>------ -------- -- ------ -- ---- ------------,297406,297374,296861.94,296861,296862.22,297406.2,,8,synthesize
screen,html.Screen,2_3_1_0_1_9,2022-05-12T16:09:39.117Z,,,,,,,,,,,,,,,,,19,,,,,,,,,,,,,,388.79999999998836,,response,,,,17,F,,,,,,Space,keypress(Space),,,,lyrical,,,,-------------- --- -------- -------- ---------- ---- -------<br>-- ---------- so --- ----- ------ ----- ---- --------- ----<br>------- ------ -------- -- ------ ---------- ------ ---<br>------ -- -- ---- -- ---------- -------- ------ ---- -------<br>---- --- --------- ------- ----- --------- ---- ----- --<br>------ -------- -- ------ -- ---- ------------,297813,297795,297405.92,297406,297406.2,297813.94,,9,so
screen,html.Screen,2_3_1_0_1_10,2022-05-12T16:09:39.478Z,,,,,,,,,,,,,,,,,19,,,,,,,,,,,,,,341.0599999999977,,response,,,,17,F,,,,,,Space,keypress(Space),,,,lyrical,,,,-------------- --- -------- -------- ---------- ---- -------<br>-- ---------- -- far ----- ------ ----- ---- --------- ----<br>------- ------ -------- -- ------ ---------- ------ ---<br>------ -- -- ---- -- ---------- -------- ------ ---- -------<br>---- --- --------- ------- ----- --------- ---- ----- --<br>------ -------- -- ------ -- ---- ------------,298173,298155,297813.64,297814,297813.94,298174.4,,10,far
screen,html.Screen,2_3_1_0_1_11,2022-05-12T16:09:39.836Z,,,,,,,,,,,,,,,,,19,,,,,,,,,,,,,,339.5999999999767,,response,,,,17,F,,,,,,Space,keypress(Space),,,,lyrical,,,,-------------- --- -------- -------- ---------- ---- -------<br>-- ---------- -- --- don't ------ ----- ---- --------- ----<br>------- ------ -------- -- ------ ---------- ------ ---<br>------ -- -- ---- -- ---------- -------- ------ ---- -------<br>---- --- --------- ------- ----- --------- ---- ----- --<br>------ -------- -- ------ -- ---- ------------,298531,298514,298174.14,298174,298174.4,298531.64,,11,don't
screen,html.Screen,2_3_1_0_1_12,2022-05-12T16:09:40.188Z,,,,,,,,,,,,,,,,,19,,,,,,,,,,,,,,326.35999999998603,,response,,,,17,F,,,,,,Space,keypress(Space),,,,lyrical,,,,-------------- --- -------- -------- ---------- ---- -------<br>-- ---------- -- --- ----- behave ----- ---- --------- ----<br>------- ------ -------- -- ------ ---------- ------ ---<br>------ -- -- ---- -- ---------- -------- ------ ---- -------<br>---- --- --------- ------- ----- --------- ---- ----- --<br>------ -------- -- ------ -- ---- ------------,298884,298858,298531.58,298531,298531.64,298884.56,,12,behave
screen,html.Screen,2_3_1_0_1_13,2022-05-12T16:09:40.565Z,,,,,,,,,,,,,,,,,19,,,,,,,,,,,,,,348.4400000000023,,response,,,,17,F,,,,,,Space,keypress(Space),,,,lyrical,,,,-------------- --- -------- -------- ---------- ---- -------<br>-- ---------- -- --- ----- ------ quite ---- --------- ----<br>------- ------ -------- -- ------ ---------- ------ ---<br>------ -- -- ---- -- ---------- -------- ------ ---- -------<br>---- --- --------- ------- ----- --------- ---- ----- --<br>------ -------- -- ------ -- ---- ------------,299261,299233,298884.4,298884,298884.56,299261.98,,13,quite
screen,html.Screen,2_3_1_0_1_14,2022-05-12T16:09:40.902Z,,,,,,,,,,,,,,,,,19,,,,,,,,,,,,,,314.0200000000186,,response,,,,17,F,,,,,,Space,keypress(Space),,,,lyrical,,,,-------------- --- -------- -------- ---------- ---- -------<br>-- ---------- -- --- ----- ------ ----- like --------- ----<br>------- ------ -------- -- ------ ---------- ------ ---<br>------ -- -- ---- -- ---------- -------- ------ ---- -------<br>---- --- --------- ------- ----- --------- ---- ----- --<br>------ -------- -- ------ -- ---- ------------,299597,299576,299261.72,299261,299261.98,299598,,14,like
screen,html.Screen,2_3_1_0_1_15,2022-05-12T16:09:41.229Z,,,,,,,,,,,,,,,,,19,,,,,,,,,,,,,,307,,response,,,,17,F,,,,,,Space,keypress(Space),,,,lyrical,,,,-------------- --- -------- -------- ---------- ---- -------<br>-- ---------- -- --- ----- ------ ----- ---- science's ----<br>------- ------ -------- -- ------ ---------- ------ ---<br>------ -- -- ---- -- ---------- -------- ------ ---- -------<br>---- --- --------- ------- ----- --------- ---- ----- --<br>------ -------- -- ------ -- ---- ------------,299925,299905,299597.72,299597,299598,299926.22,,15,science's
screen,html.Screen,2_3_1_0_1_16,2022-05-12T16:09:41.613Z,,,,,,,,,,,,,,,,,19,,,,,,,,,,,,,,353.78000000002794,,response,,,,17,F,,,,,,Space,keypress(Space),,,,lyrical,,,,-------------- --- -------- -------- ---------- ---- -------<br>-- ---------- -- --- ----- ------ ----- ---- --------- best<br>------- ------ -------- -- ------ ---------- ------ ---<br>------ -- -- ---- -- ---------- -------- ------ ---- -------<br>---- --- --------- ------- ----- --------- ---- ----- --<br>------ -------- -- ------ -- ---- ------------,300309,300280,299925.94,299926,299926.22,300309.92,,16,best
screen,html.Screen,2_3_1_0_1_17,2022-05-12T16:09:42.093Z,,,,,,,,,,,,,,,,,19,,,,,,,,,,,,,,455.0800000000163,,response,,,,17,F,,,,,,Space,keypress(Space),,,,lyrical,,,,-------------- --- -------- -------- ---------- ---- -------<br>-- ---------- -- --- ----- ------ ----- ---- --------- ----<br>current ------ -------- -- ------ ---------- ------ ---<br>------ -- -- ---- -- ---------- -------- ------ ---- -------<br>---- --- --------- ------- ----- --------- ---- ----- --<br>------ -------- -- ------ -- ---- ------------,300790,300765,300309.64,300309,300309.92,300790.02,,17,current
screen,html.Screen,2_3_1_0_1_18,2022-05-12T16:09:42.598Z,,,,,,,,,,,,,,,,,19,,,,,,,,,,,,,,474.9799999999814,,response,,,,17,F,,,,,,Space,keypress(Space),,,,lyrical,,,,-------------- --- -------- -------- ---------- ---- -------<br>-- ---------- -- --- ----- ------ ----- ---- --------- ----<br>------- models -------- -- ------ ---------- ------ ---<br>------ -- -- ---- -- ---------- -------- ------ ---- -------<br>---- --- --------- ------- ----- --------- ---- ----- --<br>------ -------- -- ------ -- ---- ------------,301294,301265,300789.74,300790,300790.02,301294.08,,18,models
screen,html.Screen,2_3_1_0_1_19,2022-05-12T16:09:43.038Z,,,,,,,,,,,,,,,,,19,,,,,,,,,,,,,,406.9199999999837,,response,,,,17,F,,,,,,Space,keypress(Space),,,,lyrical,,,,"-------------- --- -------- -------- ---------- ---- -------<br>-- ---------- -- --- ----- ------ ----- ---- --------- ----<br>------- ------ predict, -- ------ ---------- ------ ---<br>------ -- -- ---- -- ---------- -------- ------ ---- -------<br>---- --- --------- ------- ----- --------- ---- ----- --<br>------ -------- -- ------ -- ---- ------------",301733,301701,301293.74,301294,301294.08,301734.02,,19,"predict,"
screen,html.Screen,2_3_1_0_1_20,2022-05-12T16:09:43.422Z,,,,,,,,,,,,,,,,,19,,,,,,,,,,,,,,373.9799999999814,,response,,,,17,F,,,,,,Space,keypress(Space),,,,lyrical,,,,-------------- --- -------- -------- ---------- ---- -------<br>-- ---------- -- --- ----- ------ ----- ---- --------- ----<br>------- ------ -------- so ------ ---------- ------ ---<br>------ -- -- ---- -- ---------- -------- ------ ---- -------<br>---- --- --------- ------- ----- --------- ---- ----- --<br>------ -------- -- ------ -- ---- ------------,302118,302108,301733.74,301734,301734.02,302118.1,,20,so
screen,html.Screen,2_3_1_0_1_21,2022-05-12T16:09:43.758Z,,,,,,,,,,,,,,,,,19,,,,,,,,,,,,,,317.9000000000233,,response,,,,17,F,,,,,,Space,keypress(Space),,,,lyrical,,,,-------------- --- -------- -------- ---------- ---- -------<br>-- ---------- -- --- ----- ------ ----- ---- --------- ----<br>------- ------ -------- -- stable ---------- ------ ---<br>------ -- -- ---- -- ---------- -------- ------ ---- -------<br>---- --- --------- ------- ----- --------- ---- ----- --<br>------ -------- -- ------ -- ---- ------------,302453,302436,302117.82,302118,302118.1,302454.14,,21,stable
screen,html.Screen,2_3_1_0_1_22,2022-05-12T16:09:44.221Z,,,,,,,,,,,,,,,,,19,,,,,,,,,,,,,,449.85999999998603,,response,,,,17,F,,,,,,Space,keypress(Space),,,,lyrical,,,,-------------- --- -------- -------- ---------- ---- -------<br>-- ---------- -- --- ----- ------ ----- ---- --------- ----<br>------- ------ -------- -- ------ superheavy ------ ---<br>------ -- -- ---- -- ---------- -------- ------ ---- -------<br>---- --- --------- ------- ----- --------- ---- ----- --<br>------ -------- -- ------ -- ---- ------------,302917,302904,302453.88,302453,302454.14,302917.86,,22,superheavy
screen,html.Screen,2_3_1_0_1_23,2022-05-12T16:09:44.869Z,,,,,,,,,,,,,,,,,19,,,,,,,,,,,,,,643.140000000014,,response,,,,17,F,,,,,,Space,keypress(Space),,,,lyrical,,,,-------------- --- -------- -------- ---------- ---- -------<br>-- ---------- -- --- ----- ------ ----- ---- --------- ----<br>------- ------ -------- -- ------ ---------- nuclei ---<br>------ -- -- ---- -- ---------- -------- ------ ---- -------<br>---- --- --------- ------- ----- --------- ---- ----- --<br>------ -------- -- ------ -- ---- ------------,303566,303561,302917.58,302917,302917.86,303566.16,,23,nuclei
screen,html.Screen,2_3_1_0_1_24,2022-05-12T16:09:45.302Z,,,,,,,,,,,,,,,,,19,,,,,,,,,,,,,,416.8400000000256,,response,,,,17,F,,,,,,Space,keypress(Space),,,,lyrical,,,,-------------- --- -------- -------- ---------- ---- -------<br>-- ---------- -- --- ----- ------ ----- ---- --------- ----<br>------- ------ -------- -- ------ ---------- ------ are<br>------ -- -- ---- -- ---------- -------- ------ ---- -------<br>---- --- --------- ------- ----- --------- ---- ----- --<br>------ -------- -- ------ -- ---- ------------,303997,303983,303565.88,303566,303566.16,303997.94,,24,are
screen,html.Screen,2_3_1_0_1_25,2022-05-12T16:09:45.861Z,,,,,,,,,,,,,,,,,19,,,,,,,,,,,,,,548.0599999999977,,response,,,,17,F,,,,,,Space,keypress(Space),,,,lyrical,,,,-------------- --- -------- -------- ---------- ---- -------<br>-- ---------- -- --- ----- ------ ----- ---- --------- ----<br>------- ------ -------- -- ------ ---------- ------ ---<br>likely -- -- ---- -- ---------- -------- ------ ---- -------<br>---- --- --------- ------- ----- --------- ---- ----- --<br>------ -------- -- ------ -- ---- ------------,304557,304546,303997.68,303997,303997.94,304559.26,,25,likely
screen,html.Screen,2_3_1_0_1_26,2022-05-12T16:09:46.277Z,,,,,,,,,,,,,,,,,19,,,,,,,,,,,,,,407.7399999999907,,response,,,,17,F,,,,,,Space,keypress(Space),,,,lyrical,,,,-------------- --- -------- -------- ---------- ---- -------<br>-- ---------- -- --- ----- ------ ----- ---- --------- ----<br>------- ------ -------- -- ------ ---------- ------ ---<br>------ to -- ---- -- ---------- -------- ------ ---- -------<br>---- --- --------- ------- ----- --------- ---- ----- --<br>------ -------- -- ------ -- ---- ------------,304973,304967,304557.52,304557,304559.26,304976.34,,26,to
screen,html.Screen,2_3_1_0_1_27,2022-05-12T16:09:46.693Z,,,,,,,,,,,,,,,,,19,,,,,,,,,,,,,,397.6599999999744,,response,,,,17,F,,,,,,Space,keypress(Space),,,,lyrical,,,,-------------- --- -------- -------- ---------- ---- -------<br>-- ---------- -- --- ----- ------ ----- ---- --------- ----<br>------- ------ -------- -- ------ ---------- ------ ---<br>------ -- be ---- -- ---------- -------- ------ ---- -------<br>---- --- --------- ------- ----- --------- ---- ----- --<br>------ -------- -- ------ -- ---- ------------,305390,305374,304973.64,304974,304976.34,305390.14,,27,be
screen,html.Screen,2_3_1_0_1_28,2022-05-12T16:09:47.133Z,,,,,,,,,,,,,,,,,19,,,,,,,,,,,,,,436.85999999998603,,response,,,,17,F,,,,,,Space,keypress(Space),,,,lyrical,,,,-------------- --- -------- -------- ---------- ---- -------<br>-- ---------- -- --- ----- ------ ----- ---- --------- ----<br>------- ------ -------- -- ------ ---------- ------ ---<br>------ -- -- full -- ---------- -------- ------ ---- -------<br>---- --- --------- ------- ----- --------- ---- ----- --<br>------ -------- -- ------ -- ---- ------------,305829,305827,305389.84,305390,305390.14,305829.88,,28,full
screen,html.Screen,2_3_1_0_1_29,2022-05-12T16:09:47.525Z,,,,,,,,,,,,,,,,,19,,,,,,,,,,,,,,372.11999999999534,,response,,,,17,F,,,,,,Space,keypress(Space),,,,lyrical,,,,-------------- --- -------- -------- ---------- ---- -------<br>-- ---------- -- --- ----- ------ ----- ---- --------- ----<br>------- ------ -------- -- ------ ---------- ------ ---<br>------ -- -- ---- of ---------- -------- ------ ---- -------<br>---- --- --------- ------- ----- --------- ---- ----- --<br>------ -------- -- ------ -- ---- ------------,306221,306202,305829.6,305829,305829.88,306222.02,,29,of
screen,html.Screen,2_3_1_0_1_30,2022-05-12T16:09:48.021Z,,,,,,,,,,,,,,,,,19,,,,,,,,,,,,,,479.9799999999814,,response,,,,17,F,,,,,,Space,keypress(Space),,,,lyrical,,,,-------------- --- -------- -------- ---------- ---- -------<br>-- ---------- -- --- ----- ------ ----- ---- --------- ----<br>------- ------ -------- -- ------ ---------- ------ ---<br>------ -- -- ---- -- surprises. -------- ------ ---- -------<br>---- --- --------- ------- ----- --------- ---- ----- --<br>------ -------- -- ------ -- ---- ------------,306717,306702,306221.74,306221,306222.02,306717.84,,30,surprises.
screen,html.Screen,2_3_1_0_1_31,2022-05-12T16:09:48.461Z,,,,,,,,,,,,,,,,,19,,,,,,,,,,,,,,422.1599999999744,,response,,,,17,F,,,,,,Space,keypress(Space),,,,lyrical,,,,-------------- --- -------- -------- ---------- ---- -------<br>-- ---------- -- --- ----- ------ ----- ---- --------- ----<br>------- ------ -------- -- ------ ---------- ------ ---<br>------ -- -- ---- -- ---------- Chemists ------ ---- -------<br>---- --- --------- ------- ----- --------- ---- ----- --<br>------ -------- -- ------ -- ---- ------------,307158,307140,306717.56,306717,306717.84,307158,,31,Chemists
screen,html.Screen,2_3_1_0_1_32,2022-05-12T16:09:48.813Z,,,,,,,,,,,,,,,,,19,,,,,,,,,,,,,,340,,response,,,,17,F,,,,,,Space,keypress(Space),,,,lyrical,,,,-------------- --- -------- -------- ---------- ---- -------<br>-- ---------- -- --- ----- ------ ----- ---- --------- ----<br>------- ------ -------- -- ------ ---------- ------ ---<br>------ -- -- ---- -- ---------- -------- cannot ---- -------<br>---- --- --------- ------- ----- --------- ---- ----- --<br>------ -------- -- ------ -- ---- ------------,307509,307498,307157.7,307158,307158,307509.88,,32,cannot
screen,html.Screen,2_3_1_0_1_33,2022-05-12T16:09:49.157Z,,,,,,,,,,,,,,,,,19,,,,,,,,,,,,,,332.11999999999534,,response,,,,17,F,,,,,,Space,keypress(Space),,,,lyrical,,,,-------------- --- -------- -------- ---------- ---- -------<br>-- ---------- -- --- ----- ------ ----- ---- --------- ----<br>------- ------ -------- -- ------ ---------- ------ ---<br>------ -- -- ---- -- ---------- -------- ------ even -------<br>---- --- --------- ------- ----- --------- ---- ----- --<br>------ -------- -- ------ -- ---- ------------,307853,307842,307509.6,307510,307509.88,307853.92,,33,even
screen,html.Screen,2_3_1_0_1_34,2022-05-12T16:09:50.100Z,,,,,,,,,,,,,,,,,19,,,,,,,,,,,,,,926.0800000000163,,response,,,,17,F,,,,,,Space,keypress(Space),,,,lyrical,,,,-------------- --- -------- -------- ---------- ---- -------<br>-- ---------- -- --- ----- ------ ----- ---- --------- ----<br>------- ------ -------- -- ------ ---------- ------ ---<br>------ -- -- ---- -- ---------- -------- ------ ---- predict<br>---- --- --------- ------- ----- --------- ---- ----- --<br>------ -------- -- ------ -- ---- ------------,308796,308780,307853.64,307853,307853.92,308796.8,,34,predict
screen,html.Screen,2_3_1_0_1_35,2022-05-12T16:09:51.061Z,,,,,,,,,,,,,,,,,19,,,,,,,,,,,,,,952.2000000000116,,response,,,,17,F,,,,,,Space,keypress(Space),,,,lyrical,,,,-------------- --- -------- -------- ---------- ---- -------<br>-- ---------- -- --- ----- ------ ----- ---- --------- ----<br>------- ------ -------- -- ------ ---------- ------ ---<br>------ -- -- ---- -- ---------- -------- ------ ---- -------<br>with --- --------- ------- ----- --------- ---- ----- --<br>------ -------- -- ------ -- ---- ------------,309757,309749,308796.62,308796,308796.8,309757.92,,35,with
screen,html.Screen,2_3_1_0_1_36,2022-05-12T16:09:51.709Z,,,,,,,,,,,,,,,,,19,,,,,,,,,,,,,,632.0800000000163,,response,,,,17,F,,,,,,Space,keypress(Space),,,,lyrical,,,,-------------- --- -------- -------- ---------- ---- -------<br>-- ---------- -- --- ----- ------ ----- ---- --------- ----<br>------- ------ -------- -- ------ ---------- ------ ---<br>------ -- -- ---- -- ---------- -------- ------ ---- -------<br>---- any --------- ------- ----- --------- ---- ----- --<br>------ -------- -- ------ -- ---- ------------,310406,310390,309757.64,309757,309757.92,310405.96,,36,any
screen,html.Screen,2_3_1_0_1_37,2022-05-12T16:09:52.101Z,,,,,,,,,,,,,,,,,19,,,,,,,,,,,,,,373.03999999997905,,response,,,,17,F,,,,,,Space,keypress(Space),,,,lyrical,,,,-------------- --- -------- -------- ---------- ---- -------<br>-- ---------- -- --- ----- ------ ----- ---- --------- ----<br>------- ------ -------- -- ------ ---------- ------ ---<br>------ -- -- ---- -- ---------- -------- ------ ---- -------<br>---- --- certainty ------- ----- --------- ---- ----- --<br>------ -------- -- ------ -- ---- ------------,310798,310779,310405.7,310406,310405.96,310797.84,,37,certainty
screen,html.Screen,2_3_1_0_1_38,2022-05-12T16:09:52.461Z,,,,,,,,,,,,,,,,,19,,,,,,,,,,,,,,342.1599999999744,,response,,,,17,F,,,,,,Space,keypress(Space),,,,lyrical,,,,-------------- --- -------- -------- ---------- ---- -------<br>-- ---------- -- --- ----- ------ ----- ---- --------- ----<br>------- ------ -------- -- ------ ---------- ------ ---<br>------ -- -- ---- -- ---------- -------- ------ ---- -------<br>---- --- --------- whether ----- --------- ---- ----- --<br>------ -------- -- ------ -- ---- ------------,311157,311140,310797.54,310798,310797.84,311157.86,,38,whether
screen,html.Screen,2_3_1_0_1_39,2022-05-12T16:09:52.821Z,,,,,,,,,,,,,,,,,19,,,,,,,,,,,,,,340.14000000001397,,response,,,,17,F,,,,,,Space,keypress(Space),,,,lyrical,,,,-------------- --- -------- -------- ---------- ---- -------<br>-- ---------- -- --- ----- ------ ----- ---- --------- ----<br>------- ------ -------- -- ------ ---------- ------ ---<br>------ -- -- ---- -- ---------- -------- ------ ---- -------<br>---- --- --------- ------- these --------- ---- ----- --<br>------ -------- -- ------ -- ---- ------------,311517,311498,311157.6,311157,311157.86,311517.96,,39,these
screen,html.Screen,2_3_1_0_1_40,2022-05-12T16:09:53.205Z,,,,,,,,,,,,,,,,,19,,,,,,,,,,,,,,371.03999999997905,,response,,,,17,F,,,,,,Space,keypress(Space),,,,lyrical,,,,-------------- --- -------- -------- ---------- ---- -------<br>-- ---------- -- --- ----- ------ ----- ---- --------- ----<br>------- ------ -------- -- ------ ---------- ------ ---<br>------ -- -- ---- -- ---------- -------- ------ ---- -------<br>---- --- --------- ------- ----- materials ---- ----- --<br>------ -------- -- ------ -- ---- ------------,311901,311889,311517.68,311517,311517.96,311901.9,,40,materials
screen,html.Screen,2_3_1_0_1_41,2022-05-12T16:09:53.550Z,,,,,,,,,,,,,,,,,19,,,,,,,,,,,,,,330.0999999999767,,response,,,,17,F,,,,,,Space,keypress(Space),,,,lyrical,,,,-------------- --- -------- -------- ---------- ---- -------<br>-- ---------- -- --- ----- ------ ----- ---- --------- ----<br>------- ------ -------- -- ------ ---------- ------ ---<br>------ -- -- ---- -- ---------- -------- ------ ---- -------<br>---- --- --------- ------- ----- --------- will ----- --<br>------ -------- -- ------ -- ---- ------------,312245,312232,311901.62,311901,311901.9,312246.14,,41,will
screen,html.Screen,2_3_1_0_1_42,2022-05-12T16:09:53.901Z,,,,,,,,,,,,,,,,,19,,,,,,,,,,,,,,345.85999999998603,,response,,,,17,F,,,,,,Space,keypress(Space),,,,lyrical,,,,-------------- --- -------- -------- ---------- ---- -------<br>-- ---------- -- --- ----- ------ ----- ---- --------- ----<br>------- ------ -------- -- ------ ---------- ------ ---<br>------ -- -- ---- -- ---------- -------- ------ ---- -------<br>---- --- --------- ------- ----- --------- ---- exist --<br>------ -------- -- ------ -- ---- ------------,312598,312592,312245.84,312246,312246.14,312597.84,,42,exist
screen,html.Screen,2_3_1_0_1_43,2022-05-12T16:09:54.341Z,,,,,,,,,,,,,,,,,19,,,,,,,,,,,,,,431.1599999999744,,response,,,,17,F,,,,,,Space,keypress(Space),,,,lyrical,,,,-------------- --- -------- -------- ---------- ---- -------<br>-- ---------- -- --- ----- ------ ----- ---- --------- ----<br>------- ------ -------- -- ------ ---------- ------ ---<br>------ -- -- ---- -- ---------- -------- ------ ---- -------<br>---- --- --------- ------- ----- --------- ---- ----- as<br>------ -------- -- ------ -- ---- ------------,313037,313029,312597.54,312598,312597.84,313037.82,,43,as
screen,html.Screen,2_3_1_0_1_44,2022-05-12T16:09:55.494Z,,,,,,,,,,,,,,,,,19,,,,,,,,,,,,,,1133.179999999993,,response,,,,17,F,,,,,,Space,keypress(Space),,,,lyrical,,,,"-------------- --- -------- -------- ---------- ---- -------<br>-- ---------- -- --- ----- ------ ----- ---- --------- ----<br>------- ------ -------- -- ------ ---------- ------ ---<br>------ -- -- ---- -- ---------- -------- ------ ---- -------<br>---- --- --------- ------- ----- --------- ---- ----- --<br>gases, -------- -- ------ -- ---- ------------",314190,314171,313037.54,313037,313037.82,314189.98,,44,"gases,"
screen,html.Screen,2_3_1_0_1_45,2022-05-12T16:09:55.957Z,,,,,,,,,,,,,,,,,19,,,,,,,,,,,,,,449.0200000000186,,response,,,,17,F,,,,,,Space,keypress(Space),,,,lyrical,,,,"-------------- --- -------- -------- ---------- ---- -------<br>-- ---------- -- --- ----- ------ ----- ---- --------- ----<br>------- ------ -------- -- ------ ---------- ------ ---<br>------ -- -- ---- -- ---------- -------- ------ ---- -------<br>---- --- --------- ------- ----- --------- ---- ----- --<br>------ liquids, -- ------ -- ---- ------------",314653,314639,314189.68,314190,314189.98,314654.02,,45,"liquids,"
screen,html.Screen,2_3_1_0_1_46,2022-05-12T16:09:56.380Z,,,,,,,,,,,,,,,,,19,,,,,,,,,,,,,,406.9799999999814,,response,,,,17,F,,,,,,Space,keypress(Space),,,,lyrical,,,,-------------- --- -------- -------- ---------- ---- -------<br>-- ---------- -- --- ----- ------ ----- ---- --------- ----<br>------- ------ -------- -- ------ ---------- ------ ---<br>------ -- -- ---- -- ---------- -------- ------ ---- -------<br>---- --- --------- ------- ----- --------- ---- ----- --<br>------ -------- or ------ -- ---- ------------,315076,315061,314653.74,314654,314654.02,315076.4,,46,or
screen,html.Screen,2_3_1_0_1_47,2022-05-12T16:09:56.813Z,,,,,,,,,,,,,,,,,19,,,,,,,,,,,,,,422.5999999999767,,response,,,,17,F,,,,,,Space,keypress(Space),,,,lyrical,,,,-------------- --- -------- -------- ---------- ---- -------<br>-- ---------- -- --- ----- ------ ----- ---- --------- ----<br>------- ------ -------- -- ------ ---------- ------ ---<br>------ -- -- ---- -- ---------- -------- ------ ---- -------<br>---- --- --------- ------- ----- --------- ---- ----- --<br>------ -------- -- solids -- ---- ------------,315509,315499,315076.22,315076,315076.4,315509.9,,47,solids
screen,html.Screen,2_3_1_0_1_48,2022-05-12T16:09:57.157Z,,,,,,,,,,,,,,,,,19,,,,,,,,,,,,,,332.0999999999767,,response,,,,17,F,,,,,,Space,keypress(Space),,,,lyrical,,,,-------------- --- -------- -------- ---------- ---- -------<br>-- ---------- -- --- ----- ------ ----- ---- --------- ----<br>------- ------ -------- -- ------ ---------- ------ ---<br>------ -- -- ---- -- ---------- -------- ------ ---- -------<br>---- --- --------- ------- ----- --------- ---- ----- --<br>------ -------- -- ------ at ---- ------------,315853,315842,315509.6,315509,315509.9,315854.14,,48,at
screen,html.Screen,2_3_1_0_1_49,2022-05-12T16:09:57.509Z,,,,,,,,,,,,,,,,,19,,,,,,,,,,,,,,331.85999999998603,,response,,,,17,F,,,,,,Space,keypress(Space),,,,lyrical,,,,-------------- --- -------- -------- ---------- ---- -------<br>-- ---------- -- --- ----- ------ ----- ---- --------- ----<br>------- ------ -------- -- ------ ---------- ------ ---<br>------ -- -- ---- -- ---------- -------- ------ ---- -------<br>---- --- --------- ------- ----- --------- ---- ----- --<br>------ -------- -- ------ -- room ------------,316206,316186,315853.84,315854,315854.14,316206.36,,49,room
screen,html.Screen,2_3_1_0_1_50,2022-05-12T16:09:58.085Z,,,,,,,,,,,,,,,,,19,,,,,,,,,,,,,,558.640000000014,,response,,,,17,F,,,,,,Space,keypress(Space),,,,lyrical,,,,-------------- --- -------- -------- ---------- ---- -------<br>-- ---------- -- --- ----- ------ ----- ---- --------- ----<br>------- ------ -------- -- ------ ---------- ------ ---<br>------ -- -- ---- -- ---------- -------- ------ ---- -------<br>---- --- --------- ------- ----- --------- ---- ----- --<br>------ -------- -- ------ -- ---- temperature.,316781,316765,316206.1,316206,316206.36,316782.62,,50,temperature.
