sender,sender_type,sender_id,timestamp,meta,,Blues,Classical,Country,Dance,Electronic,Folk,Gospel,Hip-Hop,Jazz,Latin,Musical/Film,New-age,Pop,Prolific_id,Provo_ID,R&B,Rap,Reggae,Religious,Rock,Soul,Swing,Traditional,age,artist_name,correct,correctResponse,distraction,duration,education,ended_on,familiarity,gender,headphone_check_performance,item,list,music_frequency,offensiveness,pleasantness,position_correct,preference,response,response_action,snippet_file,song_name,song_rating,sound,stimulus_1,stimulus_2,stimulus_3,text,time_commit,time_end,time_render,time_run,time_show,time_switch,url,word,word_ID
Prolific ID,html.Form,0,2022-04-25T21:43:07.285Z,"{""labjs_version"":""20.2.2"",""labjs_build"":{""flavor"":""production"",""commit"":""a25486e0c714a0ae2ce03ff94b7bb6896854dcfa""},""location"":""https://run.pavlovia.org/mvasilev/prolific3_music_b/"",""userAgent"":""Mozilla/5.0 (Macintosh; Intel Mac OS X 10_15_7) AppleWebKit/537.36 (KHTML, like Gecko) Chrome/100.0.4896.127 Safari/537.36"",""platform"":""MacIntel"",""language"":""en-GB"",""locale"":""en-GB"",""timeZone"":""Europe/London"",""timezoneOffset"":-60,""screen_width"":2560,""screen_height"":1440,""scroll_width"":1302,""scroll_height"":1128,""window_innerWidth"":1302,""window_innerHeight"":1176,""devicePixelRatio"":1}",,,,,,,,,,,,,,,61fa9112d42cb19beec492b5,,,,,,,,,,,,,,,2614.9359999977646,,form submission,,,,,,,,,,,,,,,,,,,,,5505.89999999851,5505.599999997765,2857.304,2870.39999999851,2890.664,5509.695,{},,
Introduction,html.Screen,1_0,2022-04-25T21:48:35.563Z,,,,,,,,,,,,,,,,,,,,,,,,,,,,,,,328290.2049999985,,response,,,,,,,,,,,continue,click button,,,,,,,,,333802.3999999985,333799.8999999985,5493.015,5506.099999997765,5509.695,333813.555,,,
Volume calibration,html.Screen,1_1,2022-04-25T21:48:39.760Z,,,,,,,,,,,,,,,,,,,,,,,,,,,,,,,4182.744999997027,,response,,,,,,,,,,,continue,click button,,,,,,,,,337999.5,337996.299999997,333796.875,333802.59999999776,333813.555,338000.235,,,
Task instructions,html.Screen,1_2,2022-04-25T21:48:41.941Z,,,,,,,,,,,,,,,,,,,,,,,,,,,,,,,2178.765000000014,,response,,,,,,,,,,,continue,click button,,,,,,,,,340180.3999999985,340179,337983.555,337999.59999999776,338000.235,340185.315,,,
Sounds,html.Screen,1_3_0_0,2022-04-25T21:48:46.185Z,,,,,,,,,,,,,,,,,,,,,,,,,,,,,,,4253.650000000023,,timeout,,,,,,,,,2,,,,,,,,O,S,I,,344425,344422.285,340168.635,340180.5,340185.315,344438.965,,,
Judgement,html.Screen,1_3_0_1,2022-04-25T21:48:46.688Z,,,,,,,,,,,,,,,,,,,,,,,,,,,,true,2,,487.83499999699416,,response,,,,,,,,,2,,2,click #choice-2,,,,,O,S,I,,344928.19999999925,344926.799999997,344422.285,344425.09999999776,344438.965,344939.365,,,
Trial,flow.Sequence,1_3_0,2022-04-25T21:48:46.688Z,,,,,,,,,,,,,,,,,,,,,,,,,,,,,,,4741.484999997017,,completion,,,,,,,,,2,,,,,,,,O,S,I,,344928.3999999985,344926.799999997,340168.635,340180.5,340185.315,344939.365,,,
Sounds,html.Screen,1_3_1_0,2022-04-25T21:48:50.938Z,,,,,,,,,,,,,,,,,,,,,,,,,,,,,,,4253.400000000023,,timeout,,,,,,,,,2,,,,,,,,I,S,O,,349178.299999997,349176.085,344922.685,344928.5,344939.365,349192.765,,,
Judgement,html.Screen,1_3_1_1,2022-04-25T21:48:51.391Z,,,,,,,,,,,,,,,,,,,,,,,,,,,,true,2,,436.934999999241,,response,,,,,,,,,2,,2,click #choice-2,,,,,I,S,O,,349631.19999999925,349629.69999999925,349176.085,349178.3999999985,349192.765,349643.125,,,
Trial,flow.Sequence,1_3_1,2022-04-25T21:48:51.391Z,,,,,,,,,,,,,,,,,,,,,,,,,,,,,,,4690.334999999264,,completion,,,,,,,,,2,,,,,,,,I,S,O,,349631.3999999985,349629.69999999925,344922.685,344928.3999999985,344939.365,349643.125,,,
Sounds,html.Screen,1_3_2_0,2022-04-25T21:48:55.641Z,,,,,,,,,,,,,,,,,,,,,,,,,,,,,,,4253.400000000023,,timeout,,,,,,,,,3,,,,,,,,O,I,S,,353881.19999999925,353879.845,349626.445,349631.5,349643.125,353896.525,,,
Judgement,html.Screen,1_3_2_1,2022-04-25T21:48:56.307Z,,,,,,,,,,,,,,,,,,,,,,,,,,,,true,3,,649.5749999977415,,response,,,,,,,,,3,,3,click #choice-3,,,,,O,I,S,,354547.3999999985,354546.09999999776,353879.845,353881.299999997,353896.525,354564.058,,,
Trial,flow.Sequence,1_3_2,2022-04-25T21:48:56.307Z,,,,,,,,,,,,,,,,,,,,,,,,,,,,,,,4902.974999997765,,completion,,,,,,,,,3,,,,,,,,O,I,S,,354547.59999999776,354546.09999999776,349626.445,349631.5,349643.125,354564.058,,,
Sounds,html.Screen,1_3_3_0,2022-04-25T21:49:00.562Z,,,,,,,,,,,,,,,,,,,,,,,,,,,,,,,4253.399999999965,,timeout,,,,,,,,,3,,,,,,,,I,O,S,,358803.09999999776,358800.778,354547.378,354547.69999999925,354564.058,358817.458,,,
Judgement,html.Screen,1_3_3_1,2022-04-25T21:49:01.471Z,,,,,,,,,,,,,,,,,,,,,,,,,,,,true,3,,892.8419999970356,,response,,,,,,,,,3,,3,click #choice-3,,,,,I,O,S,,359711.59999999776,359710.299999997,358800.778,358803.299999997,358817.458,359718.178,,,
Trial,flow.Sequence,1_3_3,2022-04-25T21:49:01.471Z,,,,,,,,,,,,,,,,,,,,,,,,,,,,,,,5146.241999997001,,completion,,,,,,,,,3,,,,,,,,I,O,S,,359711.799999997,359710.299999997,354547.378,354547.69999999925,354564.058,359718.178,,,
Sounds,html.Screen,1_3_4_0,2022-04-25T21:49:05.715Z,,,,,,,,,,,,,,,,,,,,,,,,,,,,,,,4253.399999999965,,timeout,,,,,,,,,1,,,,,,,,S,O,I,,363956.59999999776,363954.898,359701.498,359711.799999997,359718.178,363971.578,,,
Judgement,html.Screen,1_3_4_1,2022-04-25T21:49:06.736Z,,,,,,,,,,,,,,,,,,,,,,,,,,,,true,1,,1004.1219999992754,,response,,,,,,,,,1,,1,click #choice-1,,,,,S,O,I,,364977,364975.69999999925,363954.898,363956.69999999925,363971.578,364989.308,,,
Trial,flow.Sequence,1_3_4,2022-04-25T21:49:06.736Z,,,,,,,,,,,,,,,,,,,,,,,,,,,,,,,5257.5219999992405,,completion,,,,,,,,,1,,,,,,,,S,O,I,,364977,364975.69999999925,359701.498,359711.799999997,359718.178,364989.308,,,
Sounds,html.Screen,1_3_5_0,2022-04-25T21:49:10.987Z,,,,,,,,,,,,,,,,,,,,,,,,,,,,,,,4253.399999999965,,timeout,,,,,,,,,1,,,,,,,,S,I,O,,369228,369226.028,364972.628,364977.09999999776,364989.308,369242.708,,,
Judgement,html.Screen,1_3_5_1,2022-04-25T21:49:11.472Z,,,,,,,,,,,,,,,,,,,,,,,,,,,,true,1,,469.4919999992708,,response,,,,,,,,,1,,1,click #choice-1,,,,,S,I,O,,369713.5,369712.19999999925,369226.028,369228,369242.708,369743.108,,,
Trial,flow.Sequence,1_3_5,2022-04-25T21:49:11.472Z,,,,,,,,,,,,,,,,,,,,,,,,,,,,,,,4722.891999999236,,completion,,,,,,,,,1,,,,,,,,S,I,O,,369713.59999999776,369712.19999999925,364972.628,364977.09999999776,364989.308,369743.108,,,
Task,flow.Loop,1_3,2022-04-25T21:49:11.476Z,,,,,,,,,,,,,,,,,,,,,,,,,,,,,,,29526.884999999253,,completion,,,1,,,,,,,,,,,,,,,,,,369717,369712.19999999925,340168.635,340180.5,340185.315,369743.108,,,
Trap,html.Screen,1_4,2022-04-25T21:49:11.476Z,,,,,,,,,,,,,,,,,,,,,,,,,,,,,,,NaN,,skipped,,,,,,,,,,,,,,,,,,,,,369717.69999999925,369712.19999999925,,369717.59999999776,,369743.108,,,
Thanks,html.Screen,1_5,2022-04-25T21:49:15.691Z,,,,,,,,,,,,,,,,,,,,,,,,,,,,,,,4187.991999997757,,response,,,,,,,,,,,continue,click button,,,,,,,,,373932.3999999985,373931.09999999776,369726.428,369717.799999997,369743.108,386740.278,,,
Headphone screening,flow.Sequence,1,2022-04-25T21:49:15.691Z,,,,,,,,,,,,,,,,,,,,,,,,,,,,,,,368421.40499999776,,completion,,,,,,,,,,,,,,,,,,,,,373932.5,373931.09999999776,5493.015,5506.099999997765,5509.695,386740.278,,,
Instructions,html.Page,2_0,2022-04-25T21:49:56.709Z,,,,,,,,,,,,,,,,,,,,,,,,,,,,,,,28213.02199999703,,form submission,,,,,,,,,,,,,,,,,,,,,414953.3999999985,414953.299999997,386723.598,386717,386740.278,414963.837,,,
Holding screen,html.Screen,2_1_0_0,2022-04-25T21:50:06.712Z,,,,,,,,,,,,,,,,,,,,,,,,,,,,,,,10008,,timeout,,,,,,,,,,,,,,,,,,,,,424956.59999999776,424955.157,414947.157,414953.5,414963.837,424971.837,,,
screen,html.Screen,2_1_0_1_0,2022-04-25T21:50:08.603Z,,,,,,,,,,,,,,,,,53,,,,,,,,,,,,,,1870.2629999977653,,response,,,,99,,,,,,,Space,keypress(Space),,,,,,,,When -- ----- -- ------ - ------- --- ----------<br>------------- ------ ------ ---- ---- ------- ----- -- ----<br>-------- ------- -- ---------- --- - --- ----- ----- ----<br>---- --- --- ----- --- ---- ---- ------- ----- ---- -------<br>--- --- -- ----- -- --- ---- -- --- ---- -- ------ ------<br>--- ----- -- ----,426847.5,426842.09999999776,424955.157,424956.69999999925,424971.837,426856.677,,0,When
screen,html.Screen,2_1_0_1_1,2022-04-25T21:50:09.365Z,,,,,,,,,,,,,,,,,53,,,,,,,,,,,,,,750.6229999969946,,response,,,,99,,,,,,,Space,keypress(Space),,,,,,,,---- it ----- -- ------ - ------- --- ----------<br>------------- ------ ------ ---- ---- ------- ----- -- ----<br>-------- ------- -- ---------- --- - --- ----- ----- ----<br>---- --- --- ----- --- ---- ---- ------- ----- ---- -------<br>--- --- -- ----- -- --- ---- -- --- ---- -- ------ ------<br>--- ----- -- ----,427609.69999999925,427607.299999997,426839.997,426847.59999999776,426856.677,427624.222,,1,it
screen,html.Screen,2_1_0_1_2,2022-04-25T21:50:10.132Z,,,,,,,,,,,,,,,,,53,,,,,,,,,,,,,,747.9779999992461,,response,,,,99,,,,,,,Space,keypress(Space),,,,,,,,---- -- comes -- ------ - ------- --- ----------<br>------------- ------ ------ ---- ---- ------- ----- -- ----<br>-------- ------- -- ---------- --- - --- ----- ----- ----<br>---- --- --- ----- --- ---- ---- ------- ----- ---- -------<br>--- --- -- ----- -- --- ---- -- --- ---- -- ------ ------<br>--- ----- -- ----,428376.5,428372.19999999925,427607.542,427609.799999997,427624.222,428391.502,,2,comes
screen,html.Screen,2_1_0_1_3,2022-04-25T21:50:10.726Z,,,,,,,,,,,,,,,,,53,,,,,,,,,,,,,,577.0979999977862,,response,,,,99,,,,,,,Space,keypress(Space),,,,,,,,---- -- ----- to ------ - ------- --- ----------<br>------------- ------ ------ ---- ---- ------- ----- -- ----<br>-------- ------- -- ---------- --- - --- ----- ----- ----<br>---- --- --- ----- --- ---- ---- ------- ----- ---- -------<br>--- --- -- ----- -- --- ---- -- --- ---- -- ------ ------<br>--- ----- -- ----,428971,428968.59999999776,428374.822,428376.5,428391.502,428975.302,,3,to
screen,html.Screen,2_1_0_1_4,2022-04-25T21:50:11.425Z,,,,,,,,,,,,,,,,,53,,,,,,,,,,,,,,690.6979999999749,,response,,,,99,,,,,,,Space,keypress(Space),,,,,,,,---- -- ----- -- having - ------- --- ----------<br>------------- ------ ------ ---- ---- ------- ----- -- ----<br>-------- ------- -- ---------- --- - --- ----- ----- ----<br>---- --- --- ----- --- ---- ---- ------- ----- ---- -------<br>--- --- -- ----- -- --- ---- -- --- ---- -- ------ ------<br>--- ----- -- ----,429669.8999999985,429666,428958.622,428971,428975.302,429675.862,,4,having
screen,html.Screen,2_1_0_1_5,2022-04-25T21:50:12.054Z,,,,,,,,,,,,,,,,,53,,,,,,,,,,,,,,620.1379999999772,,response,,,,99,,,,,,,Space,keypress(Space),,,,,,,,---- -- ----- -- ------ a ------- --- ----------<br>------------- ------ ------ ---- ---- ------- ----- -- ----<br>-------- ------- -- ---------- --- - --- ----- ----- ----<br>---- --- --- ----- --- ---- ---- ------- ----- ---- -------<br>--- --- -- ----- -- --- ---- -- --- ---- -- ------ ------<br>--- ----- -- ----,430298.299999997,430296,429659.182,429670.09999999776,429675.862,430309.702,,5,a
screen,html.Screen,2_1_0_1_6,2022-04-25T21:50:12.798Z,,,,,,,,,,,,,,,,,53,,,,,,,,,,,,,,728.8979999977746,,response,,,,99,,,,,,,Space,keypress(Space),,,,,,,,---- -- ----- -- ------ - lasting --- ----------<br>------------- ------ ------ ---- ---- ------- ----- -- ----<br>-------- ------- -- ---------- --- - --- ----- ----- ----<br>---- --- --- ----- --- ---- ---- ------- ----- ---- -------<br>--- --- -- ----- -- --- ---- -- --- ---- -- ------ ------<br>--- ----- -- ----,431042.69999999925,431038.59999999776,430293.022,430298.3999999985,430309.702,431043.622,,6,lasting
screen,html.Screen,2_1_0_1_7,2022-04-25T21:50:13.415Z,,,,,,,,,,,,,,,,,53,,,,,,,,,,,,,,613.777999998536,,response,,,,99,,,,,,,Space,keypress(Space),,,,,,,,---- -- ----- -- ------ - ------- and ----------<br>------------- ------ ------ ---- ---- ------- ----- -- ----<br>-------- ------- -- ---------- --- - --- ----- ----- ----<br>---- --- --- ----- --- ---- ---- ------- ----- ---- -------<br>--- --- -- ----- -- --- ---- -- --- ---- -- ------ ------<br>--- ----- -- ----,431659.799999997,431657.3999999985,431026.942,431042.799999997,431043.622,431660.782,,7,and
screen,html.Screen,2_1_0_1_8,2022-04-25T21:50:14.080Z,,,,,,,,,,,,,,,,,53,,,,,,,,,,,,,,660.4179999992484,,response,,,,99,,,,,,,Space,keypress(Space),,,,,,,,---- -- ----- -- ------ - ------- --- fulfilling<br>------------- ------ ------ ---- ---- ------- ----- -- ----<br>-------- ------- -- ---------- --- - --- ----- ----- ----<br>---- --- --- ----- --- ---- ---- ------- ----- ---- -------<br>--- --- -- ----- -- --- ---- -- --- ---- -- ------ ------<br>--- ----- -- ----,432325.3999999985,432321.19999999925,431644.102,431659.799999997,431660.782,432327.982,,8,fulfilling
screen,html.Screen,2_1_0_1_9,2022-04-25T21:50:14.765Z,,,,,,,,,,,,,,,,,53,,,,,,,,,,,,,,679.5179999999818,,response,,,,99,,,,,,,Space,keypress(Space),,,,,,,,"---- -- ----- -- ------ - ------- --- ----------<br>relationship, ------ ------ ---- ---- ------- ----- -- ----<br>-------- ------- -- ---------- --- - --- ----- ----- ----<br>---- --- --- ----- --- ---- ---- ------- ----- ---- -------<br>--- --- -- ----- -- --- ---- -- --- ---- -- ------ ------<br>--- ----- -- ----",433010,433007.5,432311.302,432325.3999999985,432327.982,433011.862,,9,"relationship,"
screen,html.Screen,2_1_0_1_10,2022-04-25T21:50:15.487Z,,,,,,,,,,,,,,,,,53,,,,,,,,,,,,,,715.737999997742,,response,,,,99,,,,,,,Space,keypress(Space),,,,,,,,---- -- ----- -- ------ - ------- --- ----------<br>------------- common ------ ---- ---- ------- ----- -- ----<br>-------- ------- -- ---------- --- - --- ----- ----- ----<br>---- --- --- ----- --- ---- ---- ------- ----- ---- -------<br>--- --- -- ----- -- --- ---- -- --- ---- -- ------ ------<br>--- ----- -- ----,433731.799999997,433727.59999999776,432995.182,433010.09999999776,433011.862,433745.782,,10,common
screen,html.Screen,2_1_0_1_11,2022-04-25T21:50:16.205Z,,,,,,,,,,,,,,,,,53,,,,,,,,,,,,,,701.8179999977583,,response,,,,99,,,,,,,Space,keypress(Space),,,,,,,,---- -- ----- -- ------ - ------- --- ----------<br>------------- ------ wisdom ---- ---- ------- ----- -- ----<br>-------- ------- -- ---------- --- - --- ----- ----- ----<br>---- --- --- ----- --- ---- ---- ------- ----- ---- -------<br>--- --- -- ----- -- --- ---- -- --- ---- -- ------ ------<br>--- ----- -- ----,434450.09999999776,434447.59999999776,433729.102,433731.8999999985,433745.782,434463.022,,11,wisdom
screen,html.Screen,2_1_0_1_12,2022-04-25T21:50:16.893Z,,,,,,,,,,,,,,,,,53,,,,,,,,,,,,,,670.8779999985127,,response,,,,99,,,,,,,Space,keypress(Space),,,,,,,,---- -- ----- -- ------ - ------- --- ----------<br>------------- ------ ------ says ---- ------- ----- -- ----<br>-------- ------- -- ---------- --- - --- ----- ----- ----<br>---- --- --- ----- --- ---- ---- ------- ----- ---- -------<br>--- --- -- ----- -- --- ---- -- --- ---- -- ------ ------<br>--- ----- -- ----,435138,435133.8999999985,434446.342,434450.19999999925,434463.022,435146.902,,12,says
screen,html.Screen,2_1_0_1_13,2022-04-25T21:50:17.352Z,,,,,,,,,,,,,,,,,53,,,,,,,,,,,,,,448.2979999992531,,response,,,,99,,,,,,,Space,keypress(Space),,,,,,,,---- -- ----- -- ------ - ------- --- ----------<br>------------- ------ ------ ---- that ------- ----- -- ----<br>-------- ------- -- ---------- --- - --- ----- ----- ----<br>---- --- --- ----- --- ---- ---- ------- ----- ---- -------<br>--- --- -- ----- -- --- ---- -- --- ---- -- ------ ------<br>--- ----- -- ----,435597.59999999776,435595.19999999925,435130.222,435138.09999999776,435146.902,435613.942,,13,that
screen,html.Screen,2_1_0_1_14,2022-04-25T21:50:17.849Z,,,,,,,,,,,,,,,,,53,,,,,,,,,,,,,,476.35799999703886,,response,,,,99,,,,,,,Space,keypress(Space),,,,,,,,---- -- ----- -- ------ - ------- --- ----------<br>------------- ------ ------ ---- ---- feeling ----- -- ----<br>-------- ------- -- ---------- --- - --- ----- ----- ----<br>---- --- --- ----- --- ---- ---- ------- ----- ---- -------<br>--- --- -- ----- -- --- ---- -- --- ---- -- ------ ------<br>--- ----- -- ----,436094.299999997,436090.299999997,435597.262,435597.69999999925,435613.942,436097.914,,14,feeling
screen,html.Screen,2_1_0_1_15,2022-04-25T21:50:18.376Z,,,,,,,,,,,,,,,,,53,,,,,,,,,,,,,,521.1859999977751,,response,,,,99,,,,,,,Space,keypress(Space),,,,,,,,---- -- ----- -- ------ - ------- --- ----------<br>------------- ------ ------ ---- ---- ------- close -- ----<br>-------- ------- -- ---------- --- - --- ----- ----- ----<br>---- --- --- ----- --- ---- ---- ------- ----- ---- -------<br>--- --- -- ----- -- --- ---- -- --- ---- -- ------ ------<br>--- ----- -- ----,436621.59999999776,436619.09999999776,436081.234,436094.299999997,436097.914,436631.674,,15,close
screen,html.Screen,2_1_0_1_16,2022-04-25T21:50:18.850Z,,,,,,,,,,,,,,,,,53,,,,,,,,,,,,,,459.92599999776576,,response,,,,99,,,,,,,Space,keypress(Space),,,,,,,,---- -- ----- -- ------ - ------- --- ----------<br>------------- ------ ------ ---- ---- ------- ----- to ----<br>-------- ------- -- ---------- --- - --- ----- ----- ----<br>---- --- --- ----- --- ---- ---- ------- ----- ---- -------<br>--- --- -- ----- -- --- ---- -- --- ---- -- ------ ------<br>--- ----- -- ----,437095.59999999776,437091.59999999776,436614.994,436621.69999999925,436631.674,437098.714,,16,to
screen,html.Screen,2_1_0_1_17,2022-04-25T21:50:19.501Z,,,,,,,,,,,,,,,,,53,,,,,,,,,,,,,,645.3859999977867,,response,,,,99,,,,,,,Space,keypress(Space),,,,,,,,---- -- ----- -- ------ - ------- --- ----------<br>------------- ------ ------ ---- ---- ------- ----- -- your<br>-------- ------- -- ---------- --- - --- ----- ----- ----<br>---- --- --- ----- --- ---- ---- ------- ----- ---- -------<br>--- --- -- ----- -- --- ---- -- --- ---- -- ------ ------<br>--- ----- -- ----,437746.5,437744.09999999776,437082.034,437095.69999999925,437098.714,437749.234,,17,your
screen,html.Screen,2_1_0_1_18,2022-04-25T21:50:20.144Z,,,,,,,,,,,,,,,,,53,,,,,,,,,,,,,,636.2660000000033,,response,,,,99,,,,,,,Space,keypress(Space),,,,,,,,---- -- ----- -- ------ - ------- --- ----------<br>------------- ------ ------ ---- ---- ------- ----- -- ----<br>romantic ------- -- ---------- --- - --- ----- ----- ----<br>---- --- --- ----- --- ---- ---- ------- ----- ---- -------<br>--- --- -- ----- -- --- ---- -- --- ---- -- ------ ------<br>--- ----- -- ----,438389.3999999985,438385.5,437732.554,437746.59999999776,437749.234,438399.754,,18,romantic
screen,html.Screen,2_1_0_1_19,2022-04-25T21:50:20.638Z,,,,,,,,,,,,,,,,,53,,,,,,,,,,,,,,480.74599999998463,,response,,,,99,,,,,,,Space,keypress(Space),,,,,,,,---- -- ----- -- ------ - ------- --- ----------<br>------------- ------ ------ ---- ---- ------- ----- -- ----<br>-------- partner -- ---------- --- - --- ----- ----- ----<br>---- --- --- ----- --- ---- ---- ------- ----- ---- -------<br>--- --- -- ----- -- --- ---- -- --- ---- -- ------ ------<br>--- ----- -- ----,438883,438880.5,438383.074,438389.5,438399.754,438883.474,,19,partner
screen,html.Screen,2_1_0_1_20,2022-04-25T21:50:21.213Z,,,,,,,,,,,,,,,,,53,,,,,,,,,,,,,,570.7259999992675,,response,,,,99,,,,,,,Space,keypress(Space),,,,,,,,---- -- ----- -- ------ - ------- --- ----------<br>------------- ------ ------ ---- ---- ------- ----- -- ----<br>-------- ------- is ---------- --- - --- ----- ----- ----<br>---- --- --- ----- --- ---- ---- ------- ----- ---- -------<br>--- --- -- ----- -- --- ---- -- --- ---- -- ------ ------<br>--- ----- -- ----,439458.19999999925,439454.19999999925,438866.794,438883.09999999776,438883.474,439467.274,,20,is
screen,html.Screen,2_1_0_1_21,2022-04-25T21:50:21.774Z,,,,,,,,,,,,,,,,,53,,,,,,,,,,,,,,549.525999997044,,response,,,,99,,,,,,,Space,keypress(Space),,,,,,,,---- -- ----- -- ------ - ------- --- ----------<br>------------- ------ ------ ---- ---- ------- ----- -- ----<br>-------- ------- -- paramount. --- - --- ----- ----- ----<br>---- --- --- ----- --- ---- ---- ------- ----- ---- -------<br>--- --- -- ----- -- --- ---- -- --- ---- -- ------ ------<br>--- ----- -- ----,440019.09999999776,440016.799999997,439450.594,439458.3999999985,439467.274,440034.394,,21,paramount.
screen,html.Screen,2_1_0_1_22,2022-04-25T21:50:22.372Z,,,,,,,,,,,,,,,,,53,,,,,,,,,,,,,,578.7059999977937,,response,,,,99,,,,,,,Space,keypress(Space),,,,,,,,---- -- ----- -- ------ - ------- --- ----------<br>------------- ------ ------ ---- ---- ------- ----- -- ----<br>-------- ------- -- ---------- But - --- ----- ----- ----<br>---- --- --- ----- --- ---- ---- ------- ----- ---- -------<br>--- --- -- ----- -- --- ---- -- --- ---- -- ------ ------<br>--- ----- -- ----,440617,440613.09999999776,440017.714,440019.09999999776,440034.394,440618.194,,22,But
screen,html.Screen,2_1_0_1_23,2022-04-25T21:50:22.966Z,,,,,,,,,,,,,,,,,53,,,,,,,,,,,,,,591.1059999970021,,response,,,,99,,,,,,,Space,keypress(Space),,,,,,,,---- -- ----- -- ------ - ------- --- ----------<br>------------- ------ ------ ---- ---- ------- ----- -- ----<br>-------- ------- -- ---------- --- a --- ----- ----- ----<br>---- --- --- ----- --- ---- ---- ------- ----- ---- -------<br>--- --- -- ----- -- --- ---- -- --- ---- -- ------ ------<br>--- ----- -- ----,441211.799999997,441209.299999997,440601.514,440617.19999999925,440618.194,441218.674,,23,a
screen,html.Screen,2_1_0_1_24,2022-04-25T21:50:23.631Z,,,,,,,,,,,,,,,,,53,,,,,,,,,,,,,,654.4259999977658,,response,,,,99,,,,,,,Space,keypress(Space),,,,,,,,---- -- ----- -- ------ - ------- --- ----------<br>------------- ------ ------ ---- ---- ------- ----- -- ----<br>-------- ------- -- ---------- --- - new ----- ----- ----<br>---- --- --- ----- --- ---- ---- ------- ----- ---- -------<br>--- --- -- ----- -- --- ---- -- --- ---- -- ------ ------<br>--- ----- -- ----,441876.8999999985,441873.09999999776,441201.994,441211.8999999985,441218.674,441885.874,,24,new
screen,html.Screen,2_1_0_1_25,2022-04-25T21:50:24.125Z,,,,,,,,,,,,,,,,,53,,,,,,,,,,,,,,482.32599999924423,,response,,,,99,,,,,,,Space,keypress(Space),,,,,,,,---- -- ----- -- ------ - ------- --- ----------<br>------------- ------ ------ ---- ---- ------- ----- -- ----<br>-------- ------- -- ---------- --- - --- study ----- ----<br>---- --- --- ----- --- ---- ---- ------- ----- ---- -------<br>--- --- -- ----- -- --- ---- -- --- ---- -- ------ ------<br>--- ----- -- ----,442370.3999999985,442368.19999999925,441869.194,441877,441885.874,442386.274,,25,study
screen,html.Screen,2_1_0_1_26,2022-04-25T21:50:24.633Z,,,,,,,,,,,,,,,,,53,,,,,,,,,,,,,,488.2260000000242,,response,,,,99,,,,,,,Space,keypress(Space),,,,,,,,---- -- ----- -- ------ - ------- --- ----------<br>------------- ------ ------ ---- ---- ------- ----- -- ----<br>-------- ------- -- ---------- --- - --- ----- finds ----<br>---- --- --- ----- --- ---- ---- ------- ----- ---- -------<br>--- --- -- ----- -- --- ---- -- --- ---- -- ------ ------<br>--- ----- -- ----,442878.5,442874.5,442369.594,442370.5,442386.274,442886.674,,26,finds
screen,html.Screen,2_1_0_1_27,2022-04-25T21:50:25.126Z,,,,,,,,,,,,,,,,,53,,,,,,,,,,,,,,482.82600000000093,,response,,,,99,,,,,,,Space,keypress(Space),,,,,,,,---- -- ----- -- ------ - ------- --- ----------<br>------------- ------ ------ ---- ---- ------- ----- -- ----<br>-------- ------- -- ---------- --- - --- ----- ----- that<br>---- --- --- ----- --- ---- ---- ------- ----- ---- -------<br>--- --- -- ----- -- --- ---- -- --- ---- -- ------ ------<br>--- ----- -- ----,443371.8999999985,443369.5,442869.994,442878.5,442886.674,443387.074,,27,that
screen,html.Screen,2_1_0_1_28,2022-04-25T21:50:25.668Z,,,,,,,,,,,,,,,,,53,,,,,,,,,,,,,,522.4259999999776,,response,,,,99,,,,,,,Space,keypress(Space),,,,,,,,---- -- ----- -- ------ - ------- --- ----------<br>------------- ------ ------ ---- ---- ------- ----- -- ----<br>-------- ------- -- ---------- --- - --- ----- ----- ----<br>it's --- --- ----- --- ---- ---- ------- ----- ---- -------<br>--- --- -- ----- -- --- ---- -- --- ---- -- ------ ------<br>--- ----- -- ----,443913.69999999925,443909.5,443370.394,443372,443387.074,443920.834,,28,it's
screen,html.Screen,2_1_0_1_29,2022-04-25T21:50:26.173Z,,,,,,,,,,,,,,,,,53,,,,,,,,,,,,,,495.0659999985364,,response,,,,99,,,,,,,Space,keypress(Space),,,,,,,,---- -- ----- -- ------ - ------- --- ----------<br>------------- ------ ------ ---- ---- ------- ----- -- ----<br>-------- ------- -- ---------- --- - --- ----- ----- ----<br>---- not --- ----- --- ---- ---- ------- ----- ---- -------<br>--- --- -- ----- -- --- ---- -- --- ---- -- ------ ------<br>--- ----- -- ----,444418.09999999776,444415.8999999985,443904.154,443913.69999999925,443920.834,444421.234,,29,not
screen,html.Screen,2_1_0_1_30,2022-04-25T21:50:26.658Z,,,,,,,,,,,,,,,,,53,,,,,,,,,,,,,,478.3659999977681,,response,,,,99,,,,,,,Space,keypress(Space),,,,,,,,---- -- ----- -- ------ - ------- --- ----------<br>------------- ------ ------ ---- ---- ------- ----- -- ----<br>-------- ------- -- ---------- --- - --- ----- ----- ----<br>---- --- how ----- --- ---- ---- ------- ----- ---- -------<br>--- --- -- ----- -- --- ---- -- --- ---- -- ------ ------<br>--- ----- -- ----,444903.5,444899.59999999776,444404.554,444418.19999999925,444421.234,444904.954,,30,how
screen,html.Screen,2_1_0_1_31,2022-04-25T21:50:27.151Z,,,,,,,,,,,,,,,,,53,,,,,,,,,,,,,,489.6459999977378,,response,,,,99,,,,,,,Space,keypress(Space),,,,,,,,---- -- ----- -- ------ - ------- --- ----------<br>------------- ------ ------ ---- ---- ------- ----- -- ----<br>-------- ------- -- ---------- --- - --- ----- ----- ----<br>---- --- --- close --- ---- ---- ------- ----- ---- -------<br>--- --- -- ----- -- --- ---- -- --- ---- -- ------ ------<br>--- ----- -- ----,445397,445394.59999999776,444888.274,444903.59999999776,444904.954,445405.354,,31,close
screen,html.Screen,2_1_0_1_32,2022-04-25T21:50:27.682Z,,,,,,,,,,,,,,,,,53,,,,,,,,,,,,,,517.9459999970277,,response,,,,99,,,,,,,Space,keypress(Space),,,,,,,,---- -- ----- -- ------ - ------- --- ----------<br>------------- ------ ------ ---- ---- ------- ----- -- ----<br>-------- ------- -- ---------- --- - --- ----- ----- ----<br>---- --- --- ----- you ---- ---- ------- ----- ---- -------<br>--- --- -- ----- -- --- ---- -- --- ---- -- ------ ------<br>--- ----- -- ----,445927.299999997,445923.299999997,445388.674,445397.09999999776,445405.354,445939.114,,32,you
screen,html.Screen,2_1_0_1_33,2022-04-25T21:50:28.175Z,,,,,,,,,,,,,,,,,53,,,,,,,,,,,,,,479.2859999985085,,response,,,,99,,,,,,,Space,keypress(Space),,,,,,,,---- -- ----- -- ------ - ------- --- ----------<br>------------- ------ ------ ---- ---- ------- ----- -- ----<br>-------- ------- -- ---------- --- - --- ----- ----- ----<br>---- --- --- ----- --- feel ---- ------- ----- ---- -------<br>--- --- -- ----- -- --- ---- -- --- ---- -- ------ ------<br>--- ----- -- ----,446420.8999999985,446418.3999999985,445922.434,445927.3999999985,445939.114,446423.089,,33,feel
screen,html.Screen,2_1_0_1_34,2022-04-25T21:50:28.672Z,,,,,,,,,,,,,,,,,53,,,,,,,,,,,,,,490.31099999853177,,response,,,,99,,,,,,,Space,keypress(Space),,,,,,,,---- -- ----- -- ------ - ------- --- ----------<br>------------- ------ ------ ---- ---- ------- ----- -- ----<br>-------- ------- -- ---------- --- - --- ----- ----- ----<br>---- --- --- ----- --- ---- that ------- ----- ---- -------<br>--- --- -- ----- -- --- ---- -- --- ---- -- ------ ------<br>--- ----- -- ----,446917.299999997,446913.3999999985,446406.409,446420.8999999985,446423.089,446923.489,,34,that
screen,html.Screen,2_1_0_1_35,2022-04-25T21:50:29.345Z,,,,,,,,,,,,,,,,,53,,,,,,,,,,,,,,665.1109999977634,,response,,,,99,,,,,,,Space,keypress(Space),,,,,,,,---- -- ----- -- ------ - ------- --- ----------<br>------------- ------ ------ ---- ---- ------- ----- -- ----<br>-------- ------- -- ---------- --- - --- ----- ----- ----<br>---- --- --- ----- --- ---- ---- matters ----- ---- -------<br>--- --- -- ----- -- --- ---- -- --- ---- -- ------ ------<br>--- ----- -- ----,447591.19999999925,447588.59999999776,446906.809,446917.299999997,446923.489,447607.369,,35,matters
screen,html.Screen,2_1_0_1_36,2022-04-25T21:50:29.875Z,,,,,,,,,,,,,,,,,53,,,,,,,,,,,,,,509.8309999992489,,response,,,,99,,,,,,,Space,keypress(Space),,,,,,,,"---- -- ----- -- ------ - ------- --- ----------<br>------------- ------ ------ ---- ---- ------- ----- -- ----<br>-------- ------- -- ---------- --- - --- ----- ----- ----<br>---- --- --- ----- --- ---- ---- ------- most, ---- -------<br>--- --- -- ----- -- --- ---- -- --- ---- -- ------ ------<br>--- ----- -- ----",448121,448117.19999999925,447590.689,447591.299999997,447607.369,448124.449,,36,"most,"
screen,html.Screen,2_1_0_1_37,2022-04-25T21:50:30.492Z,,,,,,,,,,,,,,,,,53,,,,,,,,,,,,,,611.5509999999776,,response,,,,99,,,,,,,Space,keypress(Space),,,,,,,,---- -- ----- -- ------ - ------- --- ----------<br>------------- ------ ------ ---- ---- ------- ----- -- ----<br>-------- ------- -- ---------- --- - --- ----- ----- ----<br>---- --- --- ----- --- ---- ---- ------- ----- it's -------<br>--- --- -- ----- -- --- ---- -- --- ---- -- ------ ------<br>--- ----- -- ----,448738.299999997,448736,448107.769,448121.09999999776,448124.449,448741.609,,37,it's
screen,html.Screen,2_1_0_1_38,2022-04-25T21:50:31.023Z,,,,,,,,,,,,,,,,,53,,,,,,,,,,,,,,523.190999997023,,response,,,,99,,,,,,,Space,keypress(Space),,,,,,,,---- -- ----- -- ------ - ------- --- ----------<br>------------- ------ ------ ---- ---- ------- ----- -- ----<br>-------- ------- -- ---------- --- - --- ----- ----- ----<br>---- --- --- ----- --- ---- ---- ------- ----- ---- whether<br>--- --- -- ----- -- --- ---- -- --- ---- -- ------ ------<br>--- ----- -- ----,449268.799999997,449264.799999997,448724.929,448738.299999997,448741.609,449275.369,,38,whether
screen,html.Screen,2_1_0_1_39,2022-04-25T21:50:31.516Z,,,,,,,,,,,,,,,,,53,,,,,,,,,,,,,,484.53099999850383,,response,,,,99,,,,,,,Space,keypress(Space),,,,,,,,---- -- ----- -- ------ - ------- --- ----------<br>------------- ------ ------ ---- ---- ------- ----- -- ----<br>-------- ------- -- ---------- --- - --- ----- ----- ----<br>---- --- --- ----- --- ---- ---- ------- ----- ---- -------<br>you --- -- ----- -- --- ---- -- --- ---- -- ------ ------<br>--- ----- -- ----,449762.3999999985,449759.8999999985,449258.689,449268.8999999985,449275.369,449775.769,,39,you
screen,html.Screen,2_1_0_1_40,2022-04-25T21:50:31.979Z,,,,,,,,,,,,,,,,,53,,,,,,,,,,,,,,445.3309999977937,,response,,,,99,,,,,,,Space,keypress(Space),,,,,,,,---- -- ----- -- ------ - ------- --- ----------<br>------------- ------ ------ ---- ---- ------- ----- -- ----<br>-------- ------- -- ---------- --- - --- ----- ----- ----<br>---- --- --- ----- --- ---- ---- ------- ----- ---- -------<br>--- are -- ----- -- --- ---- -- --- ---- -- ------ ------<br>--- ----- -- ----,450225.299999997,450221.09999999776,449759.089,449762.3999999985,449775.769,450226.129,,40,are
screen,html.Screen,2_1_0_1_41,2022-04-25T21:50:32.562Z,,,,,,,,,,,,,,,,,53,,,,,,,,,,,,,,579.9709999977495,,response,,,,99,,,,,,,Space,keypress(Space),,,,,,,,---- -- ----- -- ------ - ------- --- ----------<br>------------- ------ ------ ---- ---- ------- ----- -- ----<br>-------- ------- -- ---------- --- - --- ----- ----- ----<br>---- --- --- ----- --- ---- ---- ------- ----- ---- -------<br>--- --- as ----- -- --- ---- -- --- ---- -- ------ ------<br>--- ----- -- ----,450808.3999999985,450806.09999999776,450209.449,450225.3999999985,450226.129,450809.929,,41,as
screen,html.Screen,2_1_0_1_42,2022-04-25T21:50:33.149Z,,,,,,,,,,,,,,,,,53,,,,,,,,,,,,,,581.370999997016,,response,,,,99,,,,,,,Space,keypress(Space),,,,,,,,---- -- ----- -- ------ - ------- --- ----------<br>------------- ------ ------ ---- ---- ------- ----- -- ----<br>-------- ------- -- ---------- --- - --- ----- ----- ----<br>---- --- --- ----- --- ---- ---- ------- ----- ---- -------<br>--- --- -- close -- --- ---- -- --- ---- -- ------ ------<br>--- ----- -- ----,451395.19999999925,451391.299999997,450793.249,450808.5,450809.929,451410.409,,42,close
screen,html.Screen,2_1_0_1_43,2022-04-25T21:50:33.699Z,,,,,,,,,,,,,,,,,53,,,,,,,,,,,,,,532.0910000000149,,response,,,,99,,,,,,,Space,keypress(Space),,,,,,,,---- -- ----- -- ------ - ------- --- ----------<br>------------- ------ ------ ---- ---- ------- ----- -- ----<br>-------- ------- -- ---------- --- - --- ----- ----- ----<br>---- --- --- ----- --- ---- ---- ------- ----- ---- -------<br>--- --- -- ----- as --- ---- -- --- ---- -- ------ ------<br>--- ----- -- ----,451945,451942.5,451393.729,451395.299999997,451410.409,451960.849,,43,as
screen,html.Screen,2_1_0_1_44,2022-04-25T21:50:34.218Z,,,,,,,,,,,,,,,,,53,,,,,,,,,,,,,,499.2509999977774,,response,,,,99,,,,,,,Space,keypress(Space),,,,,,,,---- -- ----- -- ------ - ------- --- ----------<br>------------- ------ ------ ---- ---- ------- ----- -- ----<br>-------- ------- -- ---------- --- - --- ----- ----- ----<br>---- --- --- ----- --- ---- ---- ------- ----- ---- -------<br>--- --- -- ----- -- you ---- -- --- ---- -- ------ ------<br>--- ----- -- ----,452464.19999999925,452460.09999999776,451944.169,451945,451960.849,452477.929,,44,you
screen,html.Screen,2_1_0_1_45,2022-04-25T21:50:34.768Z,,,,,,,,,,,,,,,,,53,,,,,,,,,,,,,,533.4709999985062,,response,,,,99,,,,,,,Space,keypress(Space),,,,,,,,---- -- ----- -- ------ - ------- --- ----------<br>------------- ------ ------ ---- ---- ------- ----- -- ----<br>-------- ------- -- ---------- --- - --- ----- ----- ----<br>---- --- --- ----- --- ---- ---- ------- ----- ---- -------<br>--- --- -- ----- -- --- want -- --- ---- -- ------ ------<br>--- ----- -- ----,453013.799999997,453011.3999999985,452461.249,452464.3999999985,452477.929,453028.369,,45,want
screen,html.Screen,2_1_0_1_46,2022-04-25T21:50:35.276Z,,,,,,,,,,,,,,,,,53,,,,,,,,,,,,,,489.3309999992489,,response,,,,99,,,,,,,Space,keypress(Space),,,,,,,,---- -- ----- -- ------ - ------- --- ----------<br>------------- ------ ------ ---- ---- ------- ----- -- ----<br>-------- ------- -- ---------- --- - --- ----- ----- ----<br>---- --- --- ----- --- ---- ---- ------- ----- ---- -------<br>--- --- -- ----- -- --- ---- to --- ---- -- ------ ------<br>--- ----- -- ----,453521.69999999925,453517.69999999925,453011.689,453013.8999999985,453028.369,453528.769,,46,to
screen,html.Screen,2_1_0_1_47,2022-04-25T21:50:35.802Z,,,,,,,,,,,,,,,,,53,,,,,,,,,,,,,,517.5309999970486,,response,,,,99,,,,,,,Space,keypress(Space),,,,,,,,"---- -- ----- -- ------ - ------- --- ----------<br>------------- ------ ------ ---- ---- ------- ----- -- ----<br>-------- ------- -- ---------- --- - --- ----- ----- ----<br>---- --- --- ----- --- ---- ---- ------- ----- ---- -------<br>--- --- -- ----- -- --- ---- -- be, ---- -- ------ ------<br>--- ----- -- ----",454048.59999999776,454046.299999997,453512.089,453521.69999999925,453528.769,454062.529,,47,"be,"
screen,html.Screen,2_1_0_1_48,2022-04-25T21:50:36.355Z,,,,,,,,,,,,,,,,,53,,,,,,,,,,,,,,535.1709999992745,,response,,,,99,,,,,,,Space,keypress(Space),,,,,,,,---- -- ----- -- ------ - ------- --- ----------<br>------------- ------ ------ ---- ---- ------- ----- -- ----<br>-------- ------- -- ---------- --- - --- ----- ----- ----<br>---- --- --- ----- --- ---- ---- ------- ----- ---- -------<br>--- --- -- ----- -- --- ---- -- --- even -- ------ ------<br>--- ----- -- ----,454601.59999999776,454597.69999999925,454045.849,454048.59999999776,454062.529,454612.969,,48,even
screen,html.Screen,2_1_0_1_49,2022-04-25T21:50:36.860Z,,,,,,,,,,,,,,,,,53,,,,,,,,,,,,,,490.9309999985271,,response,,,,99,,,,,,,Space,keypress(Space),,,,,,,,---- -- ----- -- ------ - ------- --- ----------<br>------------- ------ ------ ---- ---- ------- ----- -- ----<br>-------- ------- -- ---------- --- - --- ----- ----- ----<br>---- --- --- ----- --- ---- ---- ------- ----- ---- -------<br>--- --- -- ----- -- --- ---- -- --- ---- if ------ ------<br>--- ----- -- ----,455106.299999997,455103.8999999985,454596.289,454601.59999999776,454612.969,455113.369,,49,if
screen,html.Screen,2_1_0_1_50,2022-04-25T21:50:37.447Z,,,,,,,,,,,,,,,,,53,,,,,,,,,,,,,,575.630999999994,,response,,,,99,,,,,,,Space,keypress(Space),,,,,,,,---- -- ----- -- ------ - ------- --- ----------<br>------------- ------ ------ ---- ---- ------- ----- -- ----<br>-------- ------- -- ---------- --- - --- ----- ----- ----<br>---- --- --- ----- --- ---- ---- ------- ----- ---- -------<br>--- --- -- ----- -- --- ---- -- --- ---- -- that's ------<br>--- ----- -- ----,455693,455689,455096.689,455106.299999997,455113.369,455697.169,,50,that's
screen,html.Screen,2_1_0_1_51,2022-04-25T21:50:38.075Z,,,,,,,,,,,,,,,,,53,,,,,,,,,,,,,,621.9309999977704,,response,,,,99,,,,,,,Space,keypress(Space),,,,,,,,---- -- ----- -- ------ - ------- --- ----------<br>------------- ------ ------ ---- ---- ------- ----- -- ----<br>-------- ------- -- ---------- --- - --- ----- ----- ----<br>---- --- --- ----- --- ---- ---- ------- ----- ---- -------<br>--- --- -- ----- -- --- ---- -- --- ---- -- ------ really<br>--- ----- -- ----,456321.3999999985,456319.09999999776,455680.489,455693,455697.169,456331.009,,51,really
screen,html.Screen,2_1_0_1_52,2022-04-25T21:50:38.628Z,,,,,,,,,,,,,,,,,53,,,,,,,,,,,,,,539.2909999969997,,response,,,,99,,,,,,,Space,keypress(Space),,,,,,,,---- -- ----- -- ------ - ------- --- ----------<br>------------- ------ ------ ---- ---- ------- ----- -- ----<br>-------- ------- -- ---------- --- - --- ----- ----- ----<br>---- --- --- ----- --- ---- ---- ------- ----- ---- -------<br>--- --- -- ----- -- --- ---- -- --- ---- -- ------ ------<br>not ----- -- ----,456874.299999997,456870.299999997,456314.329,456321.5,456331.009,456881.705,,52,not
screen,html.Screen,2_1_0_1_53,2022-04-25T21:50:39.279Z,,,,,,,,,,,,,,,,,53,,,,,,,,,,,,,,641.1949999984936,,response,,,,99,,,,,,,Space,keypress(Space),,,,,,,,---- -- ----- -- ------ - ------- --- ----------<br>------------- ------ ------ ---- ---- ------- ----- -- ----<br>-------- ------- -- ---------- --- - --- ----- ----- ----<br>---- --- --- ----- --- ---- ---- ------- ----- ---- -------<br>--- --- -- ----- -- --- ---- -- --- ---- -- ------ ------<br>--- close -- ----,457525.19999999925,457522.8999999985,456865.025,456874.299999997,456881.705,457532.225,,53,close
screen,html.Screen,2_1_0_1_54,2022-04-25T21:50:39.922Z,,,,,,,,,,,,,,,,,53,,,,,,,,,,,,,,631.9749999992782,,response,,,,99,,,,,,,Space,keypress(Space),,,,,,,,---- -- ----- -- ------ - ------- --- ----------<br>------------- ------ ------ ---- ---- ------- ----- -- ----<br>-------- ------- -- ---------- --- - --- ----- ----- ----<br>---- --- --- ----- --- ---- ---- ------- ----- ---- -------<br>--- --- -- ----- -- --- ---- -- --- ---- -- ------ ------<br>--- ----- at ----,458168.5,458164.19999999925,457515.545,457525.299999997,457532.225,458182.745,,54,at
screen,html.Screen,2_1_0_1_55,2022-04-25T21:50:42.362Z,,,,,,,,,,,,,,,,,53,,,,,,,,,,,,,,2422.7550000000047,,response,,,,99,,,,,,,Space,keypress(Space),,,,,,,,---- -- ----- -- ------ - ------- --- ----------<br>------------- ------ ------ ---- ---- ------- ----- -- ----<br>-------- ------- -- ---------- --- - --- ----- ----- ----<br>---- --- --- ----- --- ---- ---- ------- ----- ---- -------<br>--- --- -- ----- -- --- ---- -- --- ---- -- ------ ------<br>--- ----- -- all.,460608,460605.5,458166.065,458168.59999999776,458182.745,460618.025,,55,all.
Item 99,flow.Loop,2_1_0_1,2022-04-25T21:50:42.362Z,,,,,,,,,,,,,,,,,,,,,,,,,,,,,,,35633.663,,completion,,,,,B,,,,,,,,,,,silence,,,,,460608.09999999776,460605.5,424955.157,424956.69999999925,424971.837,460618.025,,,
Question 1,html.Screen,2_1_0_2,2022-04-25T21:50:50.091Z,,,,,,,,,,,,,,,,,,,,,,,,,,,,true,FALSE,,7718.474999999977,,response,,,,99,B,,,,,,FALSE,click #choice-2,,,,silence,,,,,468337.8999999985,468336.5,460601.345,460608.19999999925,460618.025,468357.816,,,
Question 2,html.Screen,2_1_0_3,2022-04-25T21:50:56.705Z,,,,,,,,,,,,,,,,,,,,,,,,,,,,true,TRUE,,6593.583999998518,,response,,,,99,B,,,,,,TRUE,click #choice-1,,,,silence,,,,,474952.799999997,474951.3999999985,468341.136,468337.8999999985,468357.816,474963.096,,,
Item 99,flow.Sequence,2_1_0,2022-04-25T21:50:56.706Z,,,,,,,,,,,,,,,,,,,,,,,,,,,,,,,59987.56299999851,,completion,,,,,,,,,,,,,,,,,,,,,474952.799999997,474951.3999999985,414947.157,414953.5,414963.837,474963.096,,,
Holding screen,html.Screen,2_1_1_0,2022-04-25T21:51:06.708Z,,,,,,,,,,,,,,,,,,,,,,,,,,,,,,,10008.255999999994,,timeout,,,,,,,,,,,,,,,,,,,,,484956.19999999925,484954.672,474946.416,474953,474963.096,484971.352,,,
screen,html.Screen,2_1_1_1_0,2022-04-25T21:51:07.541Z,,,,,,,,,,,,,,,,,54,,,,,,,,,,,,,,813.3479999992414,,response,,,,100,,,,,,,Space,keypress(Space),,,,,,,,At --- ---- --- ------ ----- ------- ---- -- --- ------- --<br>------- ---------- ------ -- ----- -- ----- -- ---- ------<br>--- ----- --- --- ------ -------- ----- --- ------ ----- --<br>----- ----- ---------- --- --- ------ ------ ---- -- ------<br>------- --- ------ ----- --- ---- ------- -- ---- --- --<br>------- ------,485788.8999999985,485784.69999999925,484954.672,484956.299999997,484971.352,485805.352,,0,At
screen,html.Screen,2_1_1_1_1,2022-04-25T21:51:07.989Z,,,,,,,,,,,,,,,,,54,,,,,,,,,,,,,,429.44799999700626,,response,,,,100,,,,,,,Space,keypress(Space),,,,,,,,-- the ---- --- ------ ----- ------- ---- -- --- ------- --<br>------- ---------- ------ -- ----- -- ----- -- ---- ------<br>--- ----- --- --- ------ -------- ----- --- ------ ----- --<br>----- ----- ---------- --- --- ------ ------ ---- -- ------<br>------- --- ------ ----- --- ---- ------- -- ---- --- --<br>------- ------,486237.19999999925,486234.799999997,485788.672,485789,485805.352,486239.032,,1,the
screen,html.Screen,2_1_1_1_2,2022-04-25T21:51:08.497Z,,,,,,,,,,,,,,,,,54,,,,,,,,,,,,,,502.1679999992484,,response,,,,100,,,,,,,Space,keypress(Space),,,,,,,,-- --- time --- ------ ----- ------- ---- -- --- ------- --<br>------- ---------- ------ -- ----- -- ----- -- ---- ------<br>--- ----- --- --- ------ -------- ----- --- ------ ----- --<br>----- ----- ---------- --- --- ------ ------ ---- -- ------<br>------- --- ------ ----- --- ---- ------- -- ---- --- --<br>------- ------,486745.09999999776,486741.19999999925,486222.352,486237.299999997,486239.032,486756.112,,2,time
screen,html.Screen,2_1_1_1_3,2022-04-25T21:51:08.957Z,,,,,,,,,,,,,,,,,54,,,,,,,,,,,,,,446.0879999992321,,response,,,,100,,,,,,,Space,keypress(Space),,,,,,,,-- --- ---- the ------ ----- ------- ---- -- --- ------- --<br>------- ---------- ------ -- ----- -- ----- -- ---- ------<br>--- ----- --- --- ------ -------- ----- --- ------ ----- --<br>----- ----- ---------- --- --- ------ ------ ---- -- ------<br>------- --- ------ ----- --- ---- ------- -- ---- --- --<br>------- ------,487204.59999999776,487202.19999999925,486739.432,486745.09999999776,486756.112,487206.472,,3,the
screen,html.Screen,2_1_1_1_4,2022-04-25T21:51:09.611Z,,,,,,,,,,,,,,,,,54,,,,,,,,,,,,,,648.3279999970109,,response,,,,100,,,,,,,Space,keypress(Space),,,,,,,,-- --- ---- --- French ----- ------- ---- -- --- ------- --<br>------- ---------- ------ -- ----- -- ----- -- ---- ------<br>--- ----- --- --- ------ -------- ----- --- ------ ----- --<br>----- ----- ---------- --- --- ------ ------ ---- -- ------<br>------- --- ------ ----- --- ---- ------- -- ---- --- --<br>------- ------,487858.8999999985,487854.799999997,487189.792,487204.69999999925,487206.472,487873.672,,4,French
screen,html.Screen,2_1_1_1_5,2022-04-25T21:51:10.138Z,,,,,,,,,,,,,,,,,54,,,,,,,,,,,,,,510.02799999923445,,response,,,,100,,,,,,,Space,keypress(Space),,,,,,,,-- --- ---- --- ------ crown ------- ---- -- --- ------- --<br>------- ---------- ------ -- ----- -- ----- -- ---- ------<br>--- ----- --- --- ------ -------- ----- --- ------ ----- --<br>----- ----- ---------- --- --- ------ ------ ---- -- ------<br>------- --- ------ ----- --- ---- ------- -- ---- --- --<br>------- ------,488386,488383.69999999925,487856.992,487859,487873.672,488391.007,,5,crown
screen,html.Screen,2_1_1_1_6,2022-04-25T21:51:10.724Z,,,,,,,,,,,,,,,,,54,,,,,,,,,,,,,,577.4930000000168,,response,,,,100,,,,,,,Space,keypress(Space),,,,,,,,-- --- ---- --- ------ ----- secured ---- -- --- ------- --<br>------- ---------- ------ -- ----- -- ----- -- ---- ------<br>--- ----- --- --- ------ -------- ----- --- ------ ----- --<br>----- ----- ---------- --- --- ------ ------ ---- -- ------<br>------- --- ------ ----- --- ---- ------- -- ---- --- --<br>------- ------,488972.3999999985,488968.5,488374.327,488386.09999999776,488391.007,488974.807,,6,secured
screen,html.Screen,2_1_1_1_7,2022-04-25T21:51:11.342Z,,,,,,,,,,,,,,,,,54,,,,,,,,,,,,,,612.6930000000284,,response,,,,100,,,,,,,Space,keypress(Space),,,,,,,,-- --- ---- --- ------ ----- ------- much -- --- ------- --<br>------- ---------- ------ -- ----- -- ----- -- ---- ------<br>--- ----- --- --- ------ -------- ----- --- ------ ----- --<br>----- ----- ---------- --- --- ------ ------ ---- -- ------<br>------- --- ------ ----- --- ---- ------- -- ---- --- --<br>------- ------,489589.8999999985,489587.5,488958.127,488972.3999999985,488974.807,489591.967,,7,much
screen,html.Screen,2_1_1_1_8,2022-04-25T21:51:11.838Z,,,,,,,,,,,,,,,,,54,,,,,,,,,,,,,,490.4329999985057,,response,,,,100,,,,,,,Space,keypress(Space),,,,,,,,-- --- ---- --- ------ ----- ------- ---- of --- ------- --<br>------- ---------- ------ -- ----- -- ----- -- ---- ------<br>--- ----- --- --- ------ -------- ----- --- ------ ----- --<br>----- ----- ---------- --- --- ------ ------ ---- -- ------<br>------- --- ------ ----- --- ---- ------- -- ---- --- --<br>------- ------,490086.3999999985,490082.3999999985,489575.287,489590,489591.967,490092.367,,8,of
screen,html.Screen,2_1_1_1_9,2022-04-25T21:51:12.320Z,,,,,,,,,,,,,,,,,54,,,,,,,,,,,,,,473.83299999922747,,response,,,,100,,,,,,,Space,keypress(Space),,,,,,,,-- --- ---- --- ------ ----- ------- ---- -- its ------- --<br>------- ---------- ------ -- ----- -- ----- -- ---- ------<br>--- ----- --- --- ------ -------- ----- --- ------ ----- --<br>----- ----- ---------- --- --- ------ ------ ---- -- ------<br>------- --- ------ ----- --- ---- ------- -- ---- --- --<br>------- ------,490568.3999999985,490566.19999999925,490075.687,490086.5,490092.367,490576.087,,9,its
screen,html.Screen,2_1_1_1_10,2022-04-25T21:51:12.840Z,,,,,,,,,,,,,,,,,54,,,,,,,,,,,,,,507.71299999702023,,response,,,,100,,,,,,,Space,keypress(Space),,,,,,,,-- --- ---- --- ------ ----- ------- ---- -- --- revenue --<br>------- ---------- ------ -- ----- -- ----- -- ---- ------<br>--- ----- --- --- ------ -------- ----- --- ------ ----- --<br>----- ----- ---------- --- --- ------ ------ ---- -- ------<br>------- --- ------ ----- --- ---- ------- -- ---- --- --<br>------- ------,491087.8999999985,491083.799999997,490559.407,490568.3999999985,490576.087,491093.167,,10,revenue
screen,html.Screen,2_1_1_1_11,2022-04-25T21:51:13.446Z,,,,,,,,,,,,,,,,,54,,,,,,,,,,,,,,598.232999998494,,response,,,,100,,,,,,,Space,keypress(Space),,,,,,,,-- --- ---- --- ------ ----- ------- ---- -- --- ------- by<br>------- ---------- ------ -- ----- -- ----- -- ---- ------<br>--- ----- --- --- ------ -------- ----- --- ------ ----- --<br>----- ----- ---------- --- --- ------ ------ ---- -- ------<br>------- --- ------ ----- --- ---- ------- -- ---- --- --<br>------- ------,491694,491691.3999999985,491076.487,491088,491093.167,491710.327,,11,by
screen,html.Screen,2_1_1_1_12,2022-04-25T21:51:13.953Z,,,,,,,,,,,,,,,,,54,,,,,,,,,,,,,,487.1730000000098,,response,,,,100,,,,,,,Space,keypress(Space),,,,,,,,-- --- ---- --- ------ ----- ------- ---- -- --- ------- --<br>issuing ---------- ------ -- ----- -- ----- -- ---- ------<br>--- ----- --- --- ------ -------- ----- --- ------ ----- --<br>----- ----- ---------- --- --- ------ ------ ---- -- ------<br>------- --- ------ ----- --- ---- ------- -- ---- --- --<br>------- ------,492201.299999997,492197.5,491693.647,491694.09999999776,491710.327,492210.727,,12,issuing
screen,html.Screen,2_1_1_1_13,2022-04-25T21:51:14.447Z,,,,,,,,,,,,,,,,,54,,,,,,,,,,,,,,481.97299999924144,,response,,,,100,,,,,,,Space,keypress(Space),,,,,,,,-- --- ---- --- ------ ----- ------- ---- -- --- ------- --<br>------- government ------ -- ----- -- ----- -- ---- ------<br>--- ----- --- --- ------ -------- ----- --- ------ ----- --<br>----- ----- ---------- --- --- ------ ------ ---- -- ------<br>------- --- ------ ----- --- ---- ------- -- ---- --- --<br>------- ------,492695.09999999776,492692.69999999925,492194.047,492201.3999999985,492210.727,492711.127,,13,government
screen,html.Screen,2_1_1_1_14,2022-04-25T21:51:14.945Z,,,,,,,,,,,,,,,,,54,,,,,,,,,,,,,,476.6729999970412,,response,,,,100,,,,,,,Space,keypress(Space),,,,,,,,-- --- ---- --- ------ ----- ------- ---- -- --- ------- --<br>------- ---------- bonds. -- ----- -- ----- -- ---- ------<br>--- ----- --- --- ------ -------- ----- --- ------ ----- --<br>----- ----- ---------- --- --- ------ ------ ---- -- ------<br>------- --- ------ ----- --- ---- ------- -- ---- --- --<br>------- ------,493193.299999997,493187.799999997,492694.447,492695.19999999925,492711.127,493194.847,,14,bonds.
screen,html.Screen,2_1_1_1_15,2022-04-25T21:51:15.448Z,,,,,,,,,,,,,,,,,54,,,,,,,,,,,,,,499.05299999850104,,response,,,,100,,,,,,,Space,keypress(Space),,,,,,,,-- --- ---- --- ------ ----- ------- ---- -- --- ------- --<br>------- ---------- ------ In ----- -- ----- -- ---- ------<br>--- ----- --- --- ------ -------- ----- --- ------ ----- --<br>----- ----- ---------- --- --- ------ ------ ---- -- ------<br>------- --- ------ ----- --- ---- ------- -- ---- --- --<br>------- ------,493696.5,493693.8999999985,493178.167,493193.3999999985,493194.847,493711.927,,15,In
screen,html.Screen,2_1_1_1_16,2022-04-25T21:51:16.215Z,,,,,,,,,,,,,,,,,54,,,,,,,,,,,,,,747.0729999999749,,response,,,,100,,,,,,,Space,keypress(Space),,,,,,,,"-- --- ---- --- ------ ----- ------- ---- -- --- ------- --<br>------- ---------- ------ -- 1727, -- ----- -- ---- ------<br>--- ----- --- --- ------ -------- ----- --- ------ ----- --<br>----- ----- ---------- --- --- ------ ------ ---- -- ------<br>------- --- ------ ----- --- ---- ------- -- ---- --- --<br>------- ------",494463.299999997,494459,493695.247,493696.5,493711.927,494479.207,,16,"1727,"
screen,html.Screen,2_1_1_1_17,2022-04-25T21:51:17.034Z,,,,,,,,,,,,,,,,,54,,,,,,,,,,,,,,801.192999998515,,response,,,,100,,,,,,,Space,keypress(Space),,,,,,,,-- --- ---- --- ------ ----- ------- ---- -- --- ------- --<br>------- ---------- ------ -- ----- in ----- -- ---- ------<br>--- ----- --- --- ------ -------- ----- --- ------ ----- --<br>----- ----- ---------- --- --- ------ ------ ---- -- ------<br>------- --- ------ ----- --- ---- ------- -- ---- --- --<br>------- ------,495282.69999999925,495280.3999999985,494462.527,494463.3999999985,494479.207,495296.527,,17,in
screen,html.Screen,2_1_1_1_18,2022-04-25T21:51:17.812Z,,,,,,,,,,,,,,,,,54,,,,,,,,,,,,,,759.9729999999981,,response,,,,100,,,,,,,Space,keypress(Space),,,,,,,,-- --- ---- --- ------ ----- ------- ---- -- --- ------- --<br>------- ---------- ------ -- ----- -- order -- ---- ------<br>--- ----- --- --- ------ -------- ----- --- ------ ----- --<br>----- ----- ---------- --- --- ------ ------ ---- -- ------<br>------- --- ------ ----- --- ---- ------- -- ---- --- --<br>------- ------,496060.3999999985,496056.5,495279.847,495282.69999999925,495296.527,496063.807,,18,order
screen,html.Screen,2_1_1_1_19,2022-04-25T21:51:18.339Z,,,,,,,,,,,,,,,,,54,,,,,,,,,,,,,,521.4929999970482,,response,,,,100,,,,,,,Space,keypress(Space),,,,,,,,-- --- ---- --- ------ ----- ------- ---- -- --- ------- --<br>------- ---------- ------ -- ----- -- ----- to ---- ------<br>--- ----- --- --- ------ -------- ----- --- ------ ----- --<br>----- ----- ---------- --- --- ------ ------ ---- -- ------<br>------- --- ------ ----- --- ---- ------- -- ---- --- --<br>------- ------,496587.8999999985,496585.299999997,496047.127,496060.5,496063.807,496597.567,,19,to
screen,html.Screen,2_1_1_1_20,2022-04-25T21:51:18.802Z,,,,,,,,,,,,,,,,,54,,,,,,,,,,,,,,449.0329999977839,,response,,,,100,,,,,,,Space,keypress(Space),,,,,,,,-- --- ---- --- ------ ----- ------- ---- -- --- ------- --<br>------- ---------- ------ -- ----- -- ----- -- save ------<br>--- ----- --- --- ------ -------- ----- --- ------ ----- --<br>----- ----- ---------- --- --- ------ ------ ---- -- ------<br>------- --- ------ ----- --- ---- ------- -- ---- --- --<br>------- ------,497050.299999997,497046.59999999776,496580.887,496588,496597.567,497064.607,,20,save
screen,html.Screen,2_1_1_1_21,2022-04-25T21:51:19.442Z,,,,,,,,,,,,,,,,,54,,,,,,,,,,,,,,623.2929999984917,,response,,,,100,,,,,,,Space,keypress(Space),,,,,,,,"-- --- ---- --- ------ ----- ------- ---- -- --- ------- --<br>------- ---------- ------ -- ----- -- ----- -- ---- money,<br>--- ----- --- --- ------ -------- ----- --- ------ ----- --<br>----- ----- ---------- --- --- ------ ------ ---- -- ------<br>------- --- ------ ----- --- ---- ------- -- ---- --- --<br>------- ------",497690.09999999776,497687.8999999985,497047.927,497050.5,497064.607,497698.447,,21,"money,"
screen,html.Screen,2_1_1_1_22,2022-04-25T21:51:20.118Z,,,,,,,,,,,,,,,,,54,,,,,,,,,,,,,,664.5530000000144,,response,,,,100,,,,,,,Space,keypress(Space),,,,,,,,-- --- ---- --- ------ ----- ------- ---- -- --- ------- --<br>------- ---------- ------ -- ----- -- ----- -- ---- ------<br>the ----- --- --- ------ -------- ----- --- ------ ----- --<br>----- ----- ---------- --- --- ------ ------ ---- -- ------<br>------- --- ------ ----- --- ---- ------- -- ---- --- --<br>------- ------,498366.8999999985,498363,497681.767,497690.09999999776,497698.447,498382.327,,22,the
screen,html.Screen,2_1_1_1_23,2022-04-25T21:51:20.657Z,,,,,,,,,,,,,,,,,54,,,,,,,,,,,,,,520.6730000000098,,response,,,,100,,,,,,,Space,keypress(Space),,,,,,,,-- --- ---- --- ------ ----- ------- ---- -- --- ------- --<br>------- ---------- ------ -- ----- -- ----- -- ---- ------<br>--- state --- --- ------ -------- ----- --- ------ ----- --<br>----- ----- ---------- --- --- ------ ------ ---- -- ------<br>------- --- ------ ----- --- ---- ------- -- ---- --- --<br>------- ------,498905.3999999985,498903,498365.647,498367,498382.327,498916.347,,23,state
screen,html.Screen,2_1_1_1_24,2022-04-25T21:51:21.187Z,,,,,,,,,,,,,,,,,54,,,,,,,,,,,,,,515.552999998501,,response,,,,100,,,,,,,Space,keypress(Space),,,,,,,,-- --- ---- --- ------ ----- ------- ---- -- --- ------- --<br>------- ---------- ------ -- ----- -- ----- -- ---- ------<br>--- ----- cut --- ------ -------- ----- --- ------ ----- --<br>----- ----- ---------- --- --- ------ ------ ---- -- ------<br>------- --- ------ ----- --- ---- ------- -- ---- --- --<br>------- ------,499435.8999999985,499431.8999999985,498899.667,498905.3999999985,498916.347,499450.107,,24,cut
screen,html.Screen,2_1_1_1_25,2022-04-25T21:51:21.703Z,,,,,,,,,,,,,,,,,54,,,,,,,,,,,,,,499.2929999984917,,response,,,,100,,,,,,,Space,keypress(Space),,,,,,,,-- --- ---- --- ------ ----- ------- ---- -- --- ------- --<br>------- ---------- ------ -- ----- -- ----- -- ---- ------<br>--- ----- --- the ------ -------- ----- --- ------ ----- --<br>----- ----- ---------- --- --- ------ ------ ---- -- ------<br>------- --- ------ ----- --- ---- ------- -- ---- --- --<br>------- ------,499951.799999997,499949.3999999985,499433.427,499435.8999999985,499450.107,499967.187,,25,the
screen,html.Screen,2_1_1_1_26,2022-04-25T21:51:22.233Z,,,,,,,,,,,,,,,,,54,,,,,,,,,,,,,,511.0129999992787,,response,,,,100,,,,,,,Space,keypress(Space),,,,,,,,-- --- ---- --- ------ ----- ------- ---- -- --- ------- --<br>------- ---------- ------ -- ----- -- ----- -- ---- ------<br>--- ----- --- --- bonds' -------- ----- --- ------ ----- --<br>----- ----- ---------- --- --- ------ ------ ---- -- ------<br>------- --- ------ ----- --- ---- ------- -- ---- --- --<br>------- ------,500482.09999999776,500478.19999999925,499950.507,499951.8999999985,499967.187,500484.267,,26,bonds'
screen,html.Screen,2_1_1_1_27,2022-04-25T21:51:22.884Z,,,,,,,,,,,,,,,,,54,,,,,,,,,,,,,,646.4329999992624,,response,,,,100,,,,,,,Space,keypress(Space),,,,,,,,-- --- ---- --- ------ ----- ------- ---- -- --- ------- --<br>------- ---------- ------ -- ----- -- ----- -- ---- ------<br>--- ----- --- --- ------ interest ----- --- ------ ----- --<br>----- ----- ---------- --- --- ------ ------ ---- -- ------<br>------- --- ------ ----- --- ---- ------- -- ---- --- --<br>------- ------,501133.09999999776,501130.69999999925,500467.587,500482.19999999925,500484.267,501134.787,,27,interest
screen,html.Screen,2_1_1_1_28,2022-04-25T21:51:23.763Z,,,,,,,,,,,,,,,,,54,,,,,,,,,,,,,,873.5129999970086,,response,,,,100,,,,,,,Space,keypress(Space),,,,,,,,-- --- ---- --- ------ ----- ------- ---- -- --- ------- --<br>------- ---------- ------ -- ----- -- ----- -- ---- ------<br>--- ----- --- --- ------ -------- rate. --- ------ ----- --<br>----- ----- ---------- --- --- ------ ------ ---- -- ------<br>------- --- ------ ----- --- ---- ------- -- ---- --- --<br>------- ------,502012.299999997,502008.299999997,501118.107,501133.19999999925,501134.787,502018.827,,28,rate.
screen,html.Screen,2_1_1_1_29,2022-04-25T21:51:24.504Z,,,,,,,,,,,,,,,,,54,,,,,,,,,,,,,,731.9729999970295,,response,,,,100,,,,,,,Space,keypress(Space),,,,,,,,-- --- ---- --- ------ ----- ------- ---- -- --- ------- --<br>------- ---------- ------ -- ----- -- ----- -- ---- ------<br>--- ----- --- --- ------ -------- ----- The ------ ----- --<br>----- ----- ---------- --- --- ------ ------ ---- -- ------<br>------- --- ------ ----- --- ---- ------- -- ---- --- --<br>------- ------,502753.299999997,502750.799999997,502002.147,502012.3999999985,502018.827,502769.427,,29,The
screen,html.Screen,2_1_1_1_30,2022-04-25T21:51:25.203Z,,,,,,,,,,,,,,,,,54,,,,,,,,,,,,,,678.8729999969946,,response,,,,100,,,,,,,Space,keypress(Space),,,,,,,,-- --- ---- --- ------ ----- ------- ---- -- --- ------- --<br>------- ---------- ------ -- ----- -- ----- -- ---- ------<br>--- ----- --- --- ------ -------- ----- --- market ----- --<br>----- ----- ---------- --- --- ------ ------ ---- -- ------<br>------- --- ------ ----- --- ---- ------- -- ---- --- --<br>------- ------,503452.299999997,503448.299999997,502752.747,502753.299999997,502769.427,503453.307,,30,market
screen,html.Screen,2_1_1_1_31,2022-04-25T21:51:25.922Z,,,,,,,,,,,,,,,,,54,,,,,,,,,,,,,,715.0929999985383,,response,,,,100,,,,,,,Space,keypress(Space),,,,,,,,-- --- ---- --- ------ ----- ------- ---- -- --- ------- --<br>------- ---------- ------ -- ----- -- ----- -- ---- ------<br>--- ----- --- --- ------ -------- ----- --- ------ value --<br>----- ----- ---------- --- --- ------ ------ ---- -- ------<br>------- --- ------ ----- --- ---- ------- -- ---- --- --<br>------- ------,504170.799999997,504168.3999999985,503436.627,503452.299999997,503453.307,504187.227,,31,value
screen,html.Screen,2_1_1_1_32,2022-04-25T21:51:26.497Z,,,,,,,,,,,,,,,,,54,,,,,,,,,,,,,,554.9729999992414,,response,,,,100,,,,,,,Space,keypress(Space),,,,,,,,-- --- ---- --- ------ ----- ------- ---- -- --- ------- --<br>------- ---------- ------ -- ----- -- ----- -- ---- ------<br>--- ----- --- --- ------ -------- ----- --- ------ ----- of<br>----- ----- ---------- --- --- ------ ------ ---- -- ------<br>------- --- ------ ----- --- ---- ------- -- ---- --- --<br>------- ------,504746,504742.19999999925,504170.547,504170.799999997,504187.227,504754.347,,32,of
screen,html.Screen,2_1_1_1_33,2022-04-25T21:51:26.991Z,,,,,,,,,,,,,,,,,54,,,,,,,,,,,,,,482.8529999992461,,response,,,,100,,,,,,,Space,keypress(Space),,,,,,,,-- --- ---- --- ------ ----- ------- ---- -- --- ------- --<br>------- ---------- ------ -- ----- -- ----- -- ---- ------<br>--- ----- --- --- ------ -------- ----- --- ------ ----- --<br>these ----- ---------- --- --- ------ ------ ---- -- ------<br>------- --- ------ ----- --- ---- ------- -- ---- --- --<br>------- ------,505239.59999999776,505237.19999999925,504737.667,504746.19999999925,504754.347,505254.747,,33,these
screen,html.Screen,2_1_1_1_34,2022-04-25T21:51:27.577Z,,,,,,,,,,,,,,,,,54,,,,,,,,,,,,,,567.5529999970458,,response,,,,100,,,,,,,Space,keypress(Space),,,,,,,,-- --- ---- --- ------ ----- ------- ---- -- --- ------- --<br>------- ---------- ------ -- ----- -- ----- -- ---- ------<br>--- ----- --- --- ------ -------- ----- --- ------ ----- --<br>----- bonds ---------- --- --- ------ ------ ---- -- ------<br>------- --- ------ ----- --- ---- ------- -- ---- --- --<br>------- ------,505826.19999999925,505822.299999997,505238.067,505239.69999999925,505254.747,505838.547,,34,bonds
screen,html.Screen,2_1_1_1_35,2022-04-25T21:51:28.239Z,,,,,,,,,,,,,,,,,54,,,,,,,,,,,,,,647.4529999999795,,response,,,,100,,,,,,,Space,keypress(Space),,,,,,,,"-- --- ---- --- ------ ----- ------- ---- -- --- ------- --<br>------- ---------- ------ -- ----- -- ----- -- ---- ------<br>--- ----- --- --- ------ -------- ----- --- ------ ----- --<br>----- ----- plummeted, --- --- ------ ------ ---- -- ------<br>------- --- ------ ----- --- ---- ------- -- ---- --- --<br>------- ------",506488.299999997,506486,505821.867,505826.19999999925,505838.547,506489.067,,35,"plummeted,"
screen,html.Screen,2_1_1_1_36,2022-04-25T21:51:28.916Z,,,,,,,,,,,,,,,,,54,,,,,,,,,,,,,,672.0329999977839,,response,,,,100,,,,,,,Space,keypress(Space),,,,,,,,-- --- ---- --- ------ ----- ------- ---- -- --- ------- --<br>------- ---------- ------ -- ----- -- ----- -- ---- ------<br>--- ----- --- --- ------ -------- ----- --- ------ ----- --<br>----- ----- ---------- and --- ------ ------ ---- -- ------<br>------- --- ------ ----- --- ---- ------- -- ---- --- --<br>------- ------,507165.09999999776,507161.09999999776,506472.387,506488.3999999985,506489.067,507172.947,,36,and
screen,html.Screen,2_1_1_1_37,2022-04-25T21:51:29.454Z,,,,,,,,,,,,,,,,,54,,,,,,,,,,,,,,528.1529999977793,,response,,,,100,,,,,,,Space,keypress(Space),,,,,,,,-- --- ---- --- ------ ----- ------- ---- -- --- ------- --<br>------- ---------- ------ -- ----- -- ----- -- ---- ------<br>--- ----- --- --- ------ -------- ----- --- ------ ----- --<br>----- ----- ---------- --- the ------ ------ ---- -- ------<br>------- --- ------ ----- --- ---- ------- -- ---- --- --<br>------- ------,507703.5,507701.09999999776,507156.267,507165.299999997,507172.947,507706.707,,37,the
screen,html.Screen,2_1_1_1_38,2022-04-25T21:51:30.018Z,,,,,,,,,,,,,,,,,54,,,,,,,,,,,,,,556.89299999777,,response,,,,100,,,,,,,Space,keypress(Space),,,,,,,,-- --- ---- --- ------ ----- ------- ---- -- --- ------- --<br>------- ---------- ------ -- ----- -- ----- -- ---- ------<br>--- ----- --- --- ------ -------- ----- --- ------ ----- --<br>----- ----- ---------- --- --- market ------ ---- -- ------<br>------- --- ------ ----- --- ---- ------- -- ---- --- --<br>------- ------,508267.3999999985,508263.59999999776,507690.027,507703.5,507706.707,508273.827,,38,market
screen,html.Screen,2_1_1_1_39,2022-04-25T21:51:30.613Z,,,,,,,,,,,,,,,,,54,,,,,,,,,,,,,,586.1730000000098,,response,,,,100,,,,,,,Space,keypress(Space),,,,,,,,-- --- ---- --- ------ ----- ------- ---- -- --- ------- --<br>------- ---------- ------ -- ----- -- ----- -- ---- ------<br>--- ----- --- --- ------ -------- ----- --- ------ ----- --<br>----- ----- ---------- --- --- ------ became ---- -- ------<br>------- --- ------ ----- --- ---- ------- -- ---- --- --<br>------- ------,508862.299999997,508860,508257.147,508267.3999999985,508273.827,508874.307,,39,became
screen,html.Screen,2_1_1_1_40,2022-04-25T21:51:31.436Z,,,,,,,,,,,,,,,,,54,,,,,,,,,,,,,,806.9929999970482,,response,,,,100,,,,,,,Space,keypress(Space),,,,,,,,-- --- ---- --- ------ ----- ------- ---- -- --- ------- --<br>------- ---------- ------ -- ----- -- ----- -- ---- ------<br>--- ----- --- --- ------ -------- ----- --- ------ ----- --<br>----- ----- ---------- --- --- ------ ------ wary -- ------<br>------- --- ------ ----- --- ---- ------- -- ---- --- --<br>------- ------,509685.3999999985,509681.299999997,508857.627,508862.3999999985,508874.307,509691.889,,40,wary
screen,html.Screen,2_1_1_1_41,2022-04-25T21:51:31.974Z,,,,,,,,,,,,,,,,,54,,,,,,,,,,,,,,529.3109999992303,,response,,,,100,,,,,,,Space,keypress(Space),,,,,,,,-- --- ---- --- ------ ----- ------- ---- -- --- ------- --<br>------- ---------- ------ -- ----- -- ----- -- ---- ------<br>--- ----- --- --- ------ -------- ----- --- ------ ----- --<br>----- ----- ---------- --- --- ------ ------ ---- of ------<br>------- --- ------ ----- --- ---- ------- -- ---- --- --<br>------- ------,510223.3999999985,510221.19999999925,509675.209,509685.5,509691.889,510225.649,,41,of
screen,html.Screen,2_1_1_1_42,2022-04-25T21:51:32.595Z,,,,,,,,,,,,,,,,,54,,,,,,,,,,,,,,614.450999997789,,response,,,,100,,,,,,,Space,keypress(Space),,,,,,,,-- --- ---- --- ------ ----- ------- ---- -- --- ------- --<br>------- ---------- ------ -- ----- -- ----- -- ---- ------<br>--- ----- --- --- ------ -------- ----- --- ------ ----- --<br>----- ----- ---------- --- --- ------ ------ ---- -- French<br>------- --- ------ ----- --- ---- ------- -- ---- --- --<br>------- ------,510844,510840.09999999776,510208.969,510223.5,510225.649,510859.489,,42,French
screen,html.Screen,2_1_1_1_43,2022-04-25T21:51:33.178Z,,,,,,,,,,,,,,,,,54,,,,,,,,,,,,,,565.5109999999986,,response,,,,100,,,,,,,Space,keypress(Space),,,,,,,,-- --- ---- --- ------ ----- ------- ---- -- --- ------- --<br>------- ---------- ------ -- ----- -- ----- -- ---- ------<br>--- ----- --- --- ------ -------- ----- --- ------ ----- --<br>----- ----- ---------- --- --- ------ ------ ---- -- ------<br>credit. --- ------ ----- --- ---- ------- -- ---- --- --<br>------- ------,511427.3999999985,511425,510842.809,510844.09999999776,510859.489,511443.289,,43,credit.
screen,html.Screen,2_1_1_1_44,2022-04-25T21:51:33.810Z,,,,,,,,,,,,,,,,,54,,,,,,,,,,,,,,611.8109999977751,,response,,,,100,,,,,,,Space,keypress(Space),,,,,,,,-- --- ---- --- ------ ----- ------- ---- -- --- ------- --<br>------- ---------- ------ -- ----- -- ----- -- ---- ------<br>--- ----- --- --- ------ -------- ----- --- ------ ----- --<br>----- ----- ---------- --- --- ------ ------ ---- -- ------<br>------- The ------ ----- --- ---- ------- -- ---- --- --<br>------- ------,512059.3999999985,512055.09999999776,511426.609,511427.3999999985,511443.289,512060.449,,44,The
screen,html.Screen,2_1_1_1_45,2022-04-25T21:51:35.102Z,,,,,,,,,,,,,,,,,54,,,,,,,,,,,,,,1288.5509999999776,,response,,,,100,,,,,,,Space,keypress(Space),,,,,,,,-- --- ---- --- ------ ----- ------- ---- -- --- ------- --<br>------- ---------- ------ -- ----- -- ----- -- ---- ------<br>--- ----- --- --- ------ -------- ----- --- ------ ----- --<br>----- ----- ---------- --- --- ------ ------ ---- -- ------<br>------- --- French ----- --- ---- ------- -- ---- --- --<br>------- ------,513351.3999999985,513349,512043.769,512059.5,512060.449,513361.489,,45,French
screen,html.Screen,2_1_1_1_46,2022-04-25T21:51:35.891Z,,,,,,,,,,,,,,,,,54,,,,,,,,,,,,,,774.9109999985085,,response,,,,100,,,,,,,Space,keypress(Space),,,,,,,,-- --- ---- --- ------ ----- ------- ---- -- --- ------- --<br>------- ---------- ------ -- ----- -- ----- -- ---- ------<br>--- ----- --- --- ------ -------- ----- --- ------ ----- --<br>----- ----- ---------- --- --- ------ ------ ---- -- ------<br>------- --- ------ state --- ---- ------- -- ---- --- --<br>------- ------,514140.19999999925,514136.3999999985,513344.809,513351.5,513361.489,514145.449,,46,state
screen,html.Screen,2_1_1_1_47,2022-04-25T21:51:36.553Z,,,,,,,,,,,,,,,,,54,,,,,,,,,,,,,,654.8509999969974,,response,,,,100,,,,,,,Space,keypress(Space),,,,,,,,-- --- ---- --- ------ ----- ------- ---- -- --- ------- --<br>------- ---------- ------ -- ----- -- ----- -- ---- ------<br>--- ----- --- --- ------ -------- ----- --- ------ ----- --<br>----- ----- ---------- --- --- ------ ------ ---- -- ------<br>------- --- ------ ----- was ---- ------- -- ---- --- --<br>------- ------,514802.8999999985,514800.299999997,514128.769,514140.3999999985,514145.449,514812.649,,47,was
screen,html.Screen,2_1_1_1_48,2022-04-25T21:51:37.286Z,,,,,,,,,,,,,,,,,54,,,,,,,,,,,,,,718.950999997789,,response,,,,100,,,,,,,Space,keypress(Space),,,,,,,,-- --- ---- --- ------ ----- ------- ---- -- --- ------- --<br>------- ---------- ------ -- ----- -- ----- -- ---- ------<br>--- ----- --- --- ------ -------- ----- --- ------ ----- --<br>----- ----- ---------- --- --- ------ ------ ---- -- ------<br>------- --- ------ ----- --- left ------- -- ---- --- --<br>------- ------,515535.59999999776,515531.59999999776,514795.969,514803.299999997,514812.649,515546.569,,48,left
screen,html.Screen,2_1_1_1_49,2022-04-25T21:51:38.241Z,,,,,,,,,,,,,,,,,54,,,,,,,,,,,,,,941.2309999970021,,response,,,,100,,,,,,,Space,keypress(Space),,,,,,,,-- --- ---- --- ------ ----- ------- ---- -- --- ------- --<br>------- ---------- ------ -- ----- -- ----- -- ---- ------<br>--- ----- --- --- ------ -------- ----- --- ------ ----- --<br>----- ----- ---------- --- --- ------ ------ ---- -- ------<br>------- --- ------ ----- --- ---- without -- ---- --- --<br>------- ------,516490.3999999985,516487.799999997,515529.889,515535.59999999776,515546.569,516497.329,,49,without
screen,html.Screen,2_1_1_1_50,2022-04-25T21:51:38.963Z,,,,,,,,,,,,,,,,,54,,,,,,,,,,,,,,710.5709999984829,,response,,,,100,,,,,,,Space,keypress(Space),,,,,,,,-- --- ---- --- ------ ----- ------- ---- -- --- ------- --<br>------- ---------- ------ -- ----- -- ----- -- ---- ------<br>--- ----- --- --- ------ -------- ----- --- ------ ----- --<br>----- ----- ---------- --- --- ------ ------ ---- -- ------<br>------- --- ------ ----- --- ---- ------- an ---- --- --<br>------- ------,517212.299999997,517207.8999999985,516480.649,516490.3999999985,516497.329,517214.569,,50,an
screen,html.Screen,2_1_1_1_51,2022-04-25T21:51:39.681Z,,,,,,,,,,,,,,,,,54,,,,,,,,,,,,,,713.4309999999823,,response,,,,100,,,,,,,Space,keypress(Space),,,,,,,,-- --- ---- --- ------ ----- ------- ---- -- --- ------- --<br>------- ---------- ------ -- ----- -- ----- -- ---- ------<br>--- ----- --- --- ------ -------- ----- --- ------ ----- --<br>----- ----- ---------- --- --- ------ ------ ---- -- ------<br>------- --- ------ ----- --- ---- ------- -- easy --- --<br>------- ------,517930.5,517928,517197.889,517212.299999997,517214.569,517931.809,,51,easy
screen,html.Screen,2_1_1_1_52,2022-04-25T21:51:40.312Z,,,,,,,,,,,,,,,,,54,,,,,,,,,,,,,,626.1909999999916,,response,,,,100,,,,,,,Space,keypress(Space),,,,,,,,-- --- ---- --- ------ ----- ------- ---- -- --- ------- --<br>------- ---------- ------ -- ----- -- ----- -- ---- ------<br>--- ----- --- --- ------ -------- ----- --- ------ ----- --<br>----- ----- ---------- --- --- ------ ------ ---- -- ------<br>------- --- ------ ----- --- ---- ------- -- ---- way --<br>------- ------,518561.799999997,518558,517915.129,517930.59999999776,517931.809,518565.649,,52,way
screen,html.Screen,2_1_1_1_53,2022-04-25T21:51:40.952Z,,,,,,,,,,,,,,,,,54,,,,,,,,,,,,,,633.650999997044,,response,,,,100,,,,,,,Space,keypress(Space),,,,,,,,-- --- ---- --- ------ ----- ------- ---- -- --- ------- --<br>------- ---------- ------ -- ----- -- ----- -- ---- ------<br>--- ----- --- --- ------ -------- ----- --- ------ ----- --<br>----- ----- ---------- --- --- ------ ------ ---- -- ------<br>------- --- ------ ----- --- ---- ------- -- ---- --- of<br>------- ------,519201.799999997,519199.299999997,518548.969,518562,518565.649,519216.169,,53,of
screen,html.Screen,2_1_1_1_54,2022-04-25T21:51:41.617Z,,,,,,,,,,,,,,,,,54,,,,,,,,,,,,,,646.9309999977704,,response,,,,100,,,,,,,Space,keypress(Space),,,,,,,,-- --- ---- --- ------ ----- ------- ---- -- --- ------- --<br>------- ---------- ------ -- ----- -- ----- -- ---- ------<br>--- ----- --- --- ------ -------- ----- --- ------ ----- --<br>----- ----- ---------- --- --- ------ ------ ---- -- ------<br>------- --- ------ ----- --- ---- ------- -- ---- --- --<br>raising ------,519867.09999999776,519863.09999999776,519199.489,519201.8999999985,519216.169,519883.625,,54,raising
screen,html.Screen,2_1_1_1_55,2022-04-25T21:51:42.527Z,,,,,,,,,,,,,,,,,54,,,,,,,,,,,,,,890.7749999985099,,response,,,,100,,,,,,,Space,keypress(Space),,,,,,,,-- --- ---- --- ------ ----- ------- ---- -- --- ------- --<br>------- ---------- ------ -- ----- -- ----- -- ---- ------<br>--- ----- --- --- ------ -------- ----- --- ------ ----- --<br>----- ----- ---------- --- --- ------ ------ ---- -- ------<br>------- --- ------ ----- --- ---- ------- -- ---- --- --<br>------- money.,520777,520774.3999999985,519866.945,519867.19999999925,519883.625,520784.345,,55,money.
Item 100,flow.Loop,2_1_1_1,2022-04-25T21:51:42.527Z,,,,,,,,,,,,,,,,,,,,,,,,,,,,,,,35803.0479999985,,completion,,,,,B,,,,,,,,,,,silence,,,,,520777.09999999776,520774.3999999985,484954.672,484956.299999997,484971.352,520784.345,,,
Question 1,html.Screen,2_1_1_2,2022-04-25T21:51:47.556Z,,,,,,,,,,,,,,,,,,,,,,,,,,,,true,TRUE,,5020.454999997048,,response,,,,100,B,,,,,,TRUE,click #choice-1,,,,silence,,,,,525806.0999999978,525804.799999997,520767.665,520777.19999999925,520784.345,525821.705,,,
Question 2,html.Screen,2_1_1_3,2022-04-25T21:51:52.450Z,,,,,,,,,,,,,,,,,,,,,,,,,,,,false,FALSE,,4877.094999997062,,response,,,,100,B,,,,,,TRUE,click #choice-1,,,,silence,,,,,530700.0999999978,530698.799999997,525805.025,525806.1999999993,525821.705,530709.2,,,
Item 100,flow.Sequence,2_1_1,2022-04-25T21:51:52.450Z,,,,,,,,,,,,,,,,,,,,,,,,,,,,,,,55735.703999997,,completion,,,,,,,,,,,,,,,,,,,,,530700.299999997,530698.799999997,474946.416,474952.8999999985,474963.096,530709.2,,,
End of Practice,html.Page,2_1_2,2022-04-25T21:51:58.862Z,,,,,,,,,,,,,,,,,,,,,,,,,,,,,,,6403.800000000047,,form submission,,,,,,,,,,,,,,,,,,,,,537113.1999999993,537113,530692.52,530700.299999997,530709.2,537131,,,
Practice,flow.Sequence,2_1,2022-04-25T21:51:58.863Z,,,,,,,,,,,,,,,,,,,,,,,,,,,,,,,122149.163,,completion,,,,,,,,,,,,,,,,,,,,,537113.3999999985,537113,414947.157,414953.5,414963.837,537131,,,
Trap_instruction,html.Page,2_2_0,2022-04-25T21:52:06.400Z,,,,,,,,,,,,,,,,,,,,,,,,,,,,,,,7520.199999999255,,form submission,,,,,,,,,,,,,,,,,,,,,544651.5,544651.1999999993,537114.32,537113.3999999985,537131,544653.68,,,
trap_trial,html.Screen,2_2_1,2022-04-25T21:52:09.437Z,,,,,,,,,,,,,,,,,,,,,,,,,,,,true,1,,3033.5199999992037,,response,,,,,,,,,,,1,click #choice-1,,,,,,,,,547688.5999999978,547687.1999999993,544637,544651.5999999978,544653.68,547689.822,,,
end of trap trial,html.Page,2_2_2,2022-04-25T21:52:13.094Z,,,,,,,,,,,,,,,,,,,,,,,,,,,,,,,3655.477999996976,,form submission,,,,,,,,,,,,,,,,,,,,,551345.5999999978,551345.299999997,547673.142,547688.799999997,547689.822,551359.422,,,
Trap 1,flow.Sequence,2_2,2022-04-25T21:52:13.094Z,,,,,,,,,,,,,,,,,,,,,,,,,,,,,,,14214.29999999702,,completion,,,,,,,,,,,,,,,,,,,,,551345.5999999978,551345.299999997,537114.32,537113.3999999985,537131,551359.422,,,
Standby,html.Page,2_3_0,2022-04-25T21:52:21.099Z,,,,,,,,,,,,,,,,,,,,,,,,,,,,,,,8006.400000000023,,timeout,,,,,,,,,,,,,,,,,,,,,559350.8999999985,559349.142,551342.742,551345.6999999993,551359.422,559365.822,,,
Holding screen,html.Screen,2_3_1_0_0,2022-04-25T21:52:28.106Z,,,,,,,,,,,,,,,,,,,,,,,,,,,,,,,7005.975999999908,,timeout,,,,,,,,,,,,,,,,,,,,,566358.6999999993,566355.118,559349.142,559351.0999999978,559365.822,566371.798,,,
screen,html.Screen,2_3_1_0_1_0,2022-04-25T21:52:29.822Z,,,,,,,,,,,,,,,,,40,,,,,,,,,,,,,,1700.6019999985583,,response,,,,9,B,,,,,,Space,keypress(Space),,,,lyrical,,,,Police -- ------- ---- ---- ---- - -------- ----- --- --<br>----- ----- ------ -- ---- -- --- - ---- -- - ----- -----<br>------ ---- ------ ---- - -------- ------- -- --- --------<br>-------- ----------- ---- ------ ---- ------ ---- --- ---<br>-------- --- -----,568075,568072.3999999985,566355.118,566358.6999999993,566371.798,568089.838,,0,Police
screen,html.Screen,2_3_1_0_1_1,2022-04-25T21:52:30.274Z,,,,,,,,,,,,,,,,,40,,,,,,,,,,,,,,432.6620000000112,,response,,,,9,B,,,,,,Space,keypress(Space),,,,lyrical,,,,------ in ------- ---- ---- ---- - -------- ----- --- --<br>----- ----- ------ -- ---- -- --- - ---- -- - ----- -----<br>------ ---- ------ ---- - -------- ------- -- --- --------<br>-------- ----------- ---- ------ ---- ------ ---- --- ---<br>-------- --- -----,568526.5999999978,568522.5,568073.158,568075.0999999978,568089.838,568540.198,,1,in
screen,html.Screen,2_3_1_0_1_2,2022-04-25T21:52:30.779Z,,,,,,,,,,,,,,,,,40,,,,,,,,,,,,,,488.5019999992801,,response,,,,9,B,,,,,,Space,keypress(Space),,,,lyrical,,,,------ -- Georgia ---- ---- ---- - -------- ----- --- --<br>----- ----- ------ -- ---- -- --- - ---- -- - ----- -----<br>------ ---- ------ ---- - -------- ------- -- --- --------<br>-------- ----------- ---- ------ ---- ------ ---- --- ---<br>-------- --- -----,569031.299999997,569028.6999999993,568523.518,568526.5999999978,568540.198,569040.598,,2,Georgia
screen,html.Screen,2_3_1_0_1_3,2022-04-25T21:52:31.725Z,,,,,,,,,,,,,,,,,40,,,,,,,,,,,,,,933.1019999992568,,response,,,,9,B,,,,,,Space,keypress(Space),,,,lyrical,,,,------ -- ------- have ---- ---- - -------- ----- --- --<br>----- ----- ------ -- ---- -- --- - ---- -- - ----- -----<br>------ ---- ------ ---- - -------- ------- -- --- --------<br>-------- ----------- ---- ------ ---- ------ ---- --- ---<br>-------- --- -----,569977.5999999978,569973.6999999993,569023.918,569031.3999999985,569040.598,569991.358,,3,have
screen,html.Screen,2_3_1_0_1_4,2022-04-25T21:52:32.354Z,,,,,,,,,,,,,,,,,40,,,,,,,,,,,,,,612.5419999985024,,response,,,,9,B,,,,,,Space,keypress(Space),,,,lyrical,,,,------ -- ------- ---- shut ---- - -------- ----- --- --<br>----- ----- ------ -- ---- -- --- - ---- -- - ----- -----<br>------ ---- ------ ---- - -------- ------- -- --- --------<br>-------- ----------- ---- ------ ---- ------ ---- --- ---<br>-------- --- -----,570606.5999999978,570603.8999999985,569974.678,569977.5999999978,569991.358,570608.518,,4,shut
screen,html.Screen,2_3_1_0_1_5,2022-04-25T21:52:33.008Z,,,,,,,,,,,,,,,,,40,,,,,,,,,,,,,,647.7819999969797,,response,,,,9,B,,,,,,Space,keypress(Space),,,,lyrical,,,,------ -- ------- ---- ---- down - -------- ----- --- --<br>----- ----- ------ -- ---- -- --- - ---- -- - ----- -----<br>------ ---- ------ ---- - -------- ------- -- --- --------<br>-------- ----------- ---- ------ ---- ------ ---- --- ---<br>-------- --- -----,571260.1999999993,571256.299999997,570591.838,570606.5999999978,570608.518,571275.981,,5,down
screen,html.Screen,2_3_1_0_1_6,2022-04-25T21:52:33.737Z,,,,,,,,,,,,,,,,,40,,,,,,,,,,,,,,711.8189999969909,,response,,,,9,B,,,,,,Space,keypress(Space),,,,lyrical,,,,------ -- ------- ---- ---- ---- a -------- ----- --- --<br>----- ----- ------ -- ---- -- --- - ---- -- - ----- -----<br>------ ---- ------ ---- - -------- ------- -- --- --------<br>-------- ----------- ---- ------ ---- ------ ---- --- ---<br>-------- --- -----,571990.1999999993,571987.799999997,571259.301,571260.299999997,571275.981,571993.221,,6,a
screen,html.Screen,2_3_1_0_1_7,2022-04-25T21:52:34.695Z,,,,,,,,,,,,,,,,,40,,,,,,,,,,,,,,950.8789999977453,,response,,,,9,B,,,,,,Space,keypress(Space),,,,lyrical,,,,------ -- ------- ---- ---- ---- - lemonade ----- --- --<br>----- ----- ------ -- ---- -- --- - ---- -- - ----- -----<br>------ ---- ------ ---- - -------- ------- -- --- --------<br>-------- ----------- ---- ------ ---- ------ ---- --- ---<br>-------- --- -----,572948.1999999993,572944.0999999978,571976.541,571990.1999999993,571993.221,572960.661,,7,lemonade
screen,html.Screen,2_3_1_0_1_8,2022-04-25T21:52:35.369Z,,,,,,,,,,,,,,,,,40,,,,,,,,,,,,,,658.3390000000363,,response,,,,9,B,,,,,,Space,keypress(Space),,,,lyrical,,,,------ -- ------- ---- ---- ---- - -------- stand --- --<br>----- ----- ------ -- ---- -- --- - ---- -- - ----- -----<br>------ ---- ------ ---- - -------- ------- -- --- --------<br>-------- ----------- ---- ------ ---- ------ ---- --- ---<br>-------- --- -----,573621.3999999985,573619,572943.981,572948.1999999993,572960.661,573627.861,,8,stand
screen,html.Screen,2_3_1_0_1_9,2022-04-25T21:52:36.045Z,,,,,,,,,,,,,,,,,40,,,,,,,,,,,,,,666.1389999999665,,response,,,,9,B,,,,,,Space,keypress(Space),,,,lyrical,,,,------ -- ------- ---- ---- ---- - -------- ----- run --<br>----- ----- ------ -- ---- -- --- - ---- -- - ----- -----<br>------ ---- ------ ---- - -------- ------- -- --- --------<br>-------- ----------- ---- ------ ---- ------ ---- --- ---<br>-------- --- -----,574298,574294,573611.181,573621.5,573627.861,574311.741,,9,run
screen,html.Screen,2_3_1_0_1_10,2022-04-25T21:52:36.831Z,,,,,,,,,,,,,,,,,40,,,,,,,,,,,,,,769.9589999992168,,response,,,,9,B,,,,,,Space,keypress(Space),,,,lyrical,,,,------ -- ------- ---- ---- ---- - -------- ----- --- by<br>----- ----- ------ -- ---- -- --- - ---- -- - ----- -----<br>------ ---- ------ ---- - -------- ------- -- --- --------<br>-------- ----------- ---- ------ ---- ------ ---- --- ---<br>-------- --- -----,575084.1999999993,575081.6999999993,574295.061,574298,574311.741,575095.701,,10,by
screen,html.Screen,2_3_1_0_1_11,2022-04-25T21:52:37.587Z,,,,,,,,,,,,,,,,,40,,,,,,,,,,,,,,739.8989999977639,,response,,,,9,B,,,,,,Space,keypress(Space),,,,lyrical,,,,------ -- ------- ---- ---- ---- - -------- ----- --- --<br>three ----- ------ -- ---- -- --- - ---- -- - ----- -----<br>------ ---- ------ ---- - -------- ------- -- --- --------<br>-------- ----------- ---- ------ ---- ------ ---- --- ---<br>-------- --- -----,575839.5,575835.5999999978,575079.021,575084.299999997,575095.701,575846.301,,11,three
screen,html.Screen,2_3_1_0_1_12,2022-04-25T21:52:38.238Z,,,,,,,,,,,,,,,,,40,,,,,,,,,,,,,,641.7989999977872,,response,,,,9,B,,,,,,Space,keypress(Space),,,,lyrical,,,,------ -- ------- ---- ---- ---- - -------- ----- --- --<br>----- girls ------ -- ---- -- --- - ---- -- - ----- -----<br>------ ---- ------ ---- - -------- ------- -- --- --------<br>-------- ----------- ---- ------ ---- ------ ---- --- ---<br>-------- --- -----,576490.5999999978,576488.0999999978,575829.621,575839.5999999978,575846.301,576496.821,,12,girls
screen,html.Screen,2_3_1_0_1_13,2022-04-25T21:52:39.443Z,,,,,,,,,,,,,,,,,40,,,,,,,,,,,,,,1194.9789999970235,,response,,,,9,B,,,,,,Space,keypress(Space),,,,lyrical,,,,------ -- ------- ---- ---- ---- - -------- ----- --- --<br>----- ----- trying -- ---- -- --- - ---- -- - ----- -----<br>------ ---- ------ ---- - -------- ------- -- --- --------<br>-------- ----------- ---- ------ ---- ------ ---- --- ---<br>-------- --- -----,577696.0999999978,577691.799999997,576480.141,576490.6999999993,576496.821,577697.781,,13,trying
screen,html.Screen,2_3_1_0_1_14,2022-04-25T21:52:40.082Z,,,,,,,,,,,,,,,,,40,,,,,,,,,,,,,,635.3189999978058,,response,,,,9,B,,,,,,Space,keypress(Space),,,,lyrical,,,,------ -- ------- ---- ---- ---- - -------- ----- --- --<br>----- ----- ------ to ---- -- --- - ---- -- - ----- -----<br>------ ---- ------ ---- - -------- ------- -- --- --------<br>-------- ----------- ---- ------ ---- ------ ---- --- ---<br>-------- --- -----,578335.5999999978,578333.0999999978,577681.101,577696.1999999993,577697.781,578348.301,,14,to
screen,html.Screen,2_3_1_0_1_15,2022-04-25T21:52:40.658Z,,,,,,,,,,,,,,,,,40,,,,,,,,,,,,,,558.6990000000224,,response,,,,9,B,,,,,,Space,keypress(Space),,,,lyrical,,,,------ -- ------- ---- ---- ---- - -------- ----- --- --<br>----- ----- ------ -- save -- --- - ---- -- - ----- -----<br>------ ---- ------ ---- - -------- ------- -- --- --------<br>-------- ----------- ---- ------ ---- ------ ---- --- ---<br>-------- --- -----,578910.8999999985,578907,578331.621,578335.5999999978,578348.301,578915.421,,15,save
screen,html.Screen,2_3_1_0_1_16,2022-04-25T21:52:41.365Z,,,,,,,,,,,,,,,,,40,,,,,,,,,,,,,,700.278999999282,,response,,,,9,B,,,,,,Space,keypress(Space),,,,lyrical,,,,------ -- ------- ---- ---- ---- - -------- ----- --- --<br>----- ----- ------ -- ---- up --- - ---- -- - ----- -----<br>------ ---- ------ ---- - -------- ------- -- --- --------<br>-------- ----------- ---- ------ ---- ------ ---- --- ---<br>-------- --- -----,579618.0999999978,579615.6999999993,578898.741,578911,578915.421,579632.661,,16,up
screen,html.Screen,2_3_1_0_1_17,2022-04-25T21:52:41.884Z,,,,,,,,,,,,,,,,,40,,,,,,,,,,,,,,500.6389999970561,,response,,,,9,B,,,,,,Space,keypress(Space),,,,lyrical,,,,------ -- ------- ---- ---- ---- - -------- ----- --- --<br>----- ----- ------ -- ---- -- for - ---- -- - ----- -----<br>------ ---- ------ ---- - -------- ------- -- --- --------<br>-------- ----------- ---- ------ ---- ------ ---- --- ---<br>-------- --- -----,580137.1999999993,580133.299999997,579615.981,579618.0999999978,579632.661,580149.741,,17,for
screen,html.Screen,2_3_1_0_1_18,2022-04-25T21:52:42.366Z,,,,,,,,,,,,,,,,,40,,,,,,,,,,,,,,467.35899999772664,,response,,,,9,B,,,,,,Space,keypress(Space),,,,lyrical,,,,------ -- ------- ---- ---- ---- - -------- ----- --- --<br>----- ----- ------ -- ---- -- --- a ---- -- - ----- -----<br>------ ---- ------ ---- - -------- ------- -- --- --------<br>-------- ----------- ---- ------ ---- ------ ---- --- ---<br>-------- --- -----,580619.5,580617.0999999978,580133.061,580137.1999999993,580149.741,580633.461,,18,a
screen,html.Screen,2_3_1_0_1_19,2022-04-25T21:52:42.953Z,,,,,,,,,,,,,,,,,40,,,,,,,,,,,,,,568.5389999999898,,response,,,,9,B,,,,,,Space,keypress(Space),,,,lyrical,,,,------ -- ------- ---- ---- ---- - -------- ----- --- --<br>----- ----- ------ -- ---- -- --- - trip -- - ----- -----<br>------ ---- ------ ---- - -------- ------- -- --- --------<br>-------- ----------- ---- ------ ---- ------ ---- --- ---<br>-------- --- -----,581206.1999999993,581202,580616.781,580619.5999999978,580633.461,581217.513,,19,trip
screen,html.Screen,2_3_1_0_1_20,2022-04-25T21:52:43.480Z,,,,,,,,,,,,,,,,,40,,,,,,,,,,,,,,513.2869999969844,,response,,,,9,B,,,,,,Space,keypress(Space),,,,lyrical,,,,------ -- ------- ---- ---- ---- - -------- ----- --- --<br>----- ----- ------ -- ---- -- --- - ---- to - ----- -----<br>------ ---- ------ ---- - -------- ------- -- --- --------<br>-------- ----------- ---- ------ ---- ------ ---- --- ---<br>-------- --- -----,581733.0999999978,581730.799999997,581200.833,581206.1999999993,581217.513,581734.593,,20,to
screen,html.Screen,2_3_1_0_1_21,2022-04-25T21:52:44.010Z,,,,,,,,,,,,,,,,,40,,,,,,,,,,,,,,525.1069999992615,,response,,,,9,B,,,,,,Space,keypress(Space),,,,lyrical,,,,------ -- ------- ---- ---- ---- - -------- ----- --- --<br>----- ----- ------ -- ---- -- --- - ---- -- a ----- -----<br>------ ---- ------ ---- - -------- ------- -- --- --------<br>-------- ----------- ---- ------ ---- ------ ---- --- ---<br>-------- --- -----,582263.6999999993,582259.6999999993,581717.913,581733.1999999993,581734.593,582268.353,,21,a
screen,html.Screen,2_3_1_0_1_22,2022-04-25T21:52:44.605Z,,,,,,,,,,,,,,,,,40,,,,,,,,,,,,,,587.5469999985071,,response,,,,9,B,,,,,,Space,keypress(Space),,,,lyrical,,,,------ -- ------- ---- ---- ---- - -------- ----- --- --<br>----- ----- ------ -- ---- -- --- - ---- -- - water -----<br>------ ---- ------ ---- - -------- ------- -- --- --------<br>-------- ----------- ---- ------ ---- ------ ---- --- ---<br>-------- --- -----,582858.299999997,582855.8999999985,582251.673,582263.799999997,582268.353,582868.833,,22,water
screen,html.Screen,2_3_1_0_1_23,2022-04-25T21:52:45.338Z,,,,,,,,,,,,,,,,,40,,,,,,,,,,,,,,718.4669999970356,,response,,,,9,B,,,,,,Space,keypress(Space),,,,lyrical,,,,"------ -- ------- ---- ---- ---- - -------- ----- --- --<br>----- ----- ------ -- ---- -- --- - ---- -- - ----- park,<br>------ ---- ------ ---- - -------- ------- -- --- --------<br>-------- ----------- ---- ------ ---- ------ ---- --- ---<br>-------- --- -----",583591.3999999985,583587.299999997,582852.153,582858.3999999985,582868.833,583602.753,,23,"park,"
screen,html.Screen,2_3_1_0_1_24,2022-04-25T21:52:46.518Z,,,,,,,,,,,,,,,,,40,,,,,,,,,,,,,,1165.8469999977387,,response,,,,9,B,,,,,,Space,keypress(Space),,,,lyrical,,,,------ -- ------- ---- ---- ---- - -------- ----- --- --<br>----- ----- ------ -- ---- -- --- - ---- -- - ----- -----<br>saying ---- ------ ---- - -------- ------- -- --- --------<br>-------- ----------- ---- ------ ---- ------ ---- --- ---<br>-------- --- -----,584771.1999999993,584768.5999999978,583586.073,583591.3999999985,583602.753,584787.033,,24,saying
screen,html.Screen,2_3_1_0_1_25,2022-04-25T21:52:47.183Z,,,,,,,,,,,,,,,,,40,,,,,,,,,,,,,,645.2669999969658,,response,,,,9,B,,,,,,Space,keypress(Space),,,,lyrical,,,,------ -- ------- ---- ---- ---- - -------- ----- --- --<br>----- ----- ------ -- ---- -- --- - ---- -- - ----- -----<br>------ they ------ ---- - -------- ------- -- --- --------<br>-------- ----------- ---- ------ ---- ------ ---- --- ---<br>-------- --- -----,585436.1999999993,585432.299999997,584770.353,584771.1999999993,584787.033,585437.553,,25,they
screen,html.Screen,2_3_1_0_1_26,2022-04-25T21:52:47.845Z,,,,,,,,,,,,,,,,,40,,,,,,,,,,,,,,658.5469999978086,,response,,,,9,B,,,,,,Space,keypress(Space),,,,lyrical,,,,------ -- ------- ---- ---- ---- - -------- ----- --- --<br>----- ----- ------ -- ---- -- --- - ---- -- - ----- -----<br>------ ---- didn't ---- - -------- ------- -- --- --------<br>-------- ----------- ---- ------ ---- ------ ---- --- ---<br>-------- --- -----,586098.5,586096.0999999978,585420.873,585436.299999997,585437.553,586104.753,,26,didn't
screen,html.Screen,2_3_1_0_1_27,2022-04-25T21:52:48.488Z,,,,,,,,,,,,,,,,,40,,,,,,,,,,,,,,632.7469999999739,,response,,,,9,B,,,,,,Space,keypress(Space),,,,lyrical,,,,------ -- ------- ---- ---- ---- - -------- ----- --- --<br>----- ----- ------ -- ---- -- --- - ---- -- - ----- -----<br>------ ---- ------ have - -------- ------- -- --- --------<br>-------- ----------- ---- ------ ---- ------ ---- --- ---<br>-------- --- -----,586741.5,586737.5,586088.073,586098.5999999978,586104.753,586755.273,,27,have
screen,html.Screen,2_3_1_0_1_28,2022-04-25T21:52:49.229Z,,,,,,,,,,,,,,,,,40,,,,,,,,,,,,,,724.7269999999553,,response,,,,9,B,,,,,,Space,keypress(Space),,,,lyrical,,,,------ -- ------- ---- ---- ---- - -------- ----- --- --<br>----- ----- ------ -- ---- -- --- - ---- -- - ----- -----<br>------ ---- ------ ---- a -------- ------- -- --- --------<br>-------- ----------- ---- ------ ---- ------ ---- --- ---<br>-------- --- -----,587482.3999999985,587480,586738.593,586741.5999999978,586755.273,587489.193,,28,a
screen,html.Screen,2_3_1_0_1_29,2022-04-25T21:52:49.905Z,,,,,,,,,,,,,,,,,40,,,,,,,,,,,,,,665.7069999985397,,response,,,,9,B,,,,,,Space,keypress(Space),,,,lyrical,,,,------ -- ------- ---- ---- ---- - -------- ----- --- --<br>----- ----- ------ -- ---- -- --- - ---- -- - ----- -----<br>------ ---- ------ ---- - business ------- -- --- --------<br>-------- ----------- ---- ------ ---- ------ ---- --- ---<br>-------- --- -----,588159,588154.8999999985,587472.513,587482.3999999985,587489.193,588173.073,,29,business
screen,html.Screen,2_3_1_0_1_30,2022-04-25T21:52:50.737Z,,,,,,,,,,,,,,,,,40,,,,,,,,,,,,,,814.52699999779,,response,,,,9,B,,,,,,Space,keypress(Space),,,,lyrical,,,,------ -- ------- ---- ---- ---- - -------- ----- --- --<br>----- ----- ------ -- ---- -- --- - ---- -- - ----- -----<br>------ ---- ------ ---- - -------- license -- --- --------<br>-------- ----------- ---- ------ ---- ------ ---- --- ---<br>-------- --- -----,588990.3999999985,588987.5999999978,588156.393,588159.0999999978,588173.073,589007.073,,30,license
screen,html.Screen,2_3_1_0_1_31,2022-04-25T21:52:51.300Z,,,,,,,,,,,,,,,,,40,,,,,,,,,,,,,,543.02699999779,,response,,,,9,B,,,,,,Space,keypress(Space),,,,lyrical,,,,------ -- ------- ---- ---- ---- - -------- ----- --- --<br>----- ----- ------ -- ---- -- --- - ---- -- - ----- -----<br>------ ---- ------ ---- - -------- ------- or --- --------<br>-------- ----------- ---- ------ ---- ------ ---- --- ---<br>-------- --- -----,589554.0999999978,589550.0999999978,588990.393,588990.5999999978,589007.073,589557.513,,31,or
screen,html.Screen,2_3_1_0_1_32,2022-04-25T21:52:51.783Z,,,,,,,,,,,,,,,,,40,,,,,,,,,,,,,,476.4869999999646,,response,,,,9,B,,,,,,Space,keypress(Space),,,,lyrical,,,,------ -- ------- ---- ---- ---- - -------- ----- --- --<br>----- ----- ------ -- ---- -- --- - ---- -- - ----- -----<br>------ ---- ------ ---- - -------- ------- -- the --------<br>-------- ----------- ---- ------ ---- ------ ---- --- ---<br>-------- --- -----,590036.5999999978,590034,589540.833,589554.0999999978,589557.513,590041.233,,32,the
screen,html.Screen,2_3_1_0_1_33,2022-04-25T21:52:52.560Z,,,,,,,,,,,,,,,,,40,,,,,,,,,,,,,,768.9669999992475,,response,,,,9,B,,,,,,Space,keypress(Space),,,,lyrical,,,,------ -- ------- ---- ---- ---- - -------- ----- --- --<br>----- ----- ------ -- ---- -- --- - ---- -- - ----- -----<br>------ ---- ------ ---- - -------- ------- -- --- required<br>-------- ----------- ---- ------ ---- ------ ---- --- ---<br>-------- --- -----,590814.1999999993,590810.1999999993,590024.553,590036.5999999978,590041.233,590825.193,,33,required
screen,html.Screen,2_3_1_0_1_34,2022-04-25T21:52:53.245Z,,,,,,,,,,,,,,,,,40,,,,,,,,,,,,,,671.2069999985397,,response,,,,9,B,,,,,,Space,keypress(Space),,,,lyrical,,,,------ -- ------- ---- ---- ---- - -------- ----- --- --<br>----- ----- ------ -- ---- -- --- - ---- -- - ----- -----<br>------ ---- ------ ---- - -------- ------- -- --- --------<br>permits. ----------- ---- ------ ---- ------ ---- --- ---<br>-------- --- -----,591498.8999999985,591496.3999999985,590808.513,590814.1999999993,590825.193,591509.073,,34,permits.
screen,html.Screen,2_3_1_0_1_35,2022-04-25T21:52:53.933Z,,,,,,,,,,,,,,,,,40,,,,,,,,,,,,,,673.7269999970449,,response,,,,9,B,,,,,,Space,keypress(Space),,,,lyrical,,,,------ -- ------- ---- ---- ---- - -------- ----- --- --<br>----- ----- ------ -- ---- -- --- - ---- -- - ----- -----<br>------ ---- ------ ---- - -------- ------- -- --- --------<br>-------- Morningstar ---- ------ ---- ------ ---- --- ---<br>-------- --- -----,592186.799999997,592182.799999997,591492.393,591499,591509.073,592193.218,,35,Morningstar
screen,html.Screen,2_3_1_0_1_36,2022-04-25T21:52:54.471Z,,,,,,,,,,,,,,,,,40,,,,,,,,,,,,,,529.6819999985164,,response,,,,9,B,,,,,,Space,keypress(Space),,,,lyrical,,,,------ -- ------- ---- ---- ---- - -------- ----- --- --<br>----- ----- ------ -- ---- -- --- - ---- -- - ----- -----<br>------ ---- ------ ---- - -------- ------- -- --- --------<br>-------- ----------- says ------ ---- ------ ---- --- ---<br>-------- --- -----,592725.1999999993,592722.8999999985,592176.538,592186.8999999985,592193.218,592726.978,,36,says
screen,html.Screen,2_3_1_0_1_37,2022-04-25T21:52:54.867Z,,,,,,,,,,,,,,,,,40,,,,,,,,,,,,,,389.5219999999972,,response,,,,9,B,,,,,,Space,keypress(Space),,,,lyrical,,,,------ -- ------- ---- ---- ---- - -------- ----- --- --<br>----- ----- ------ -- ---- -- --- - ---- -- - ----- -----<br>------ ---- ------ ---- - -------- ------- -- --- --------<br>-------- ----------- ---- police ---- ------ ---- --- ---<br>-------- --- -----,593120.3999999985,593116.5,592710.298,592725.299999997,592726.978,593127.298,,37,police
screen,html.Screen,2_3_1_0_1_38,2022-04-25T21:52:55.371Z,,,,,,,,,,,,,,,,,40,,,,,,,,,,,,,,495.5019999970682,,response,,,,9,B,,,,,,Space,keypress(Space),,,,lyrical,,,,------ -- ------- ---- ---- ---- - -------- ----- --- --<br>----- ----- ------ -- ---- -- --- - ---- -- - ----- -----<br>------ ---- ------ ---- - -------- ------- -- --- --------<br>-------- ----------- ---- ------ also ------ ---- --- ---<br>-------- --- -----,593625.1999999993,593622.799999997,593110.618,593120.5,593127.298,593627.698,,38,also
screen,html.Screen,2_3_1_0_1_39,2022-04-25T21:52:55.902Z,,,,,,,,,,,,,,,,,40,,,,,,,,,,,,,,524.0019999992801,,response,,,,9,B,,,,,,Space,keypress(Space),,,,lyrical,,,,------ -- ------- ---- ---- ---- - -------- ----- --- --<br>----- ----- ------ -- ---- -- --- - ---- -- - ----- -----<br>------ ---- ------ ---- - -------- ------- -- --- --------<br>-------- ----------- ---- ------ ---- didn't ---- --- ---<br>-------- --- -----,594155.799999997,594151.6999999993,593611.018,593625.1999999993,593627.698,594161.458,,39,didn't
screen,html.Screen,2_3_1_0_1_40,2022-04-25T21:52:56.463Z,,,,,,,,,,,,,,,,,40,,,,,,,,,,,,,,552.7419999992708,,response,,,,9,B,,,,,,Space,keypress(Space),,,,lyrical,,,,------ -- ------- ---- ---- ---- - -------- ----- --- --<br>----- ----- ------ -- ---- -- --- - ---- -- - ----- -----<br>------ ---- ------ ---- - -------- ------- -- --- --------<br>-------- ----------- ---- ------ ---- ------ know --- ---<br>-------- --- -----,594716.799999997,594714.1999999993,594144.778,594155.8999999985,594161.458,594728.578,,40,know
screen,html.Screen,2_3_1_0_1_41,2022-04-25T21:52:56.892Z,,,,,,,,,,,,,,,,,40,,,,,,,,,,,,,,413.12199999927543,,response,,,,9,B,,,,,,Space,keypress(Space),,,,lyrical,,,,------ -- ------- ---- ---- ---- - -------- ----- --- --<br>----- ----- ------ -- ---- -- --- - ---- -- - ----- -----<br>------ ---- ------ ---- - -------- ------- -- --- --------<br>-------- ----------- ---- ------ ---- ------ ---- how ---<br>-------- --- -----,595145.8999999985,595141.6999999993,594711.898,594716.8999999985,594728.578,595162.258,,41,how
screen,html.Screen,2_3_1_0_1_42,2022-04-25T21:52:57.498Z,,,,,,,,,,,,,,,,,40,,,,,,,,,,,,,,587.1419999984792,,response,,,,9,B,,,,,,Space,keypress(Space),,,,lyrical,,,,------ -- ------- ---- ---- ---- - -------- ----- --- --<br>----- ----- ------ -- ---- -- --- - ---- -- - ----- -----<br>------ ---- ------ ---- - -------- ------- -- --- --------<br>-------- ----------- ---- ------ ---- ------ ---- --- the<br>-------- --- -----,595751.8999999985,595749.3999999985,595145.578,595146,595162.258,595762.738,,42,the
screen,html.Screen,2_3_1_0_1_43,2022-04-25T21:52:58.084Z,,,,,,,,,,,,,,,,,40,,,,,,,,,,,,,,571.6619999984978,,response,,,,9,B,,,,,,Space,keypress(Space),,,,lyrical,,,,------ -- ------- ---- ---- ---- - -------- ----- --- --<br>----- ----- ------ -- ---- -- --- - ---- -- - ----- -----<br>------ ---- ------ ---- - -------- ------- -- --- --------<br>-------- ----------- ---- ------ ---- ------ ---- --- ---<br>lemonade --- -----,596338.299999997,596334.3999999985,595746.058,595752,595762.738,596346.538,,43,lemonade
screen,html.Screen,2_3_1_0_1_44,2022-04-25T21:52:58.893Z,,,,,,,,,,,,,,,,,40,,,,,,,,,,,,,,797.7619999970775,,response,,,,9,B,,,,,,Space,keypress(Space),,,,lyrical,,,,------ -- ------- ---- ---- ---- - -------- ----- --- --<br>----- ----- ------ -- ---- -- --- - ---- -- - ----- -----<br>------ ---- ------ ---- - -------- ------- -- --- --------<br>-------- ----------- ---- ------ ---- ------ ---- --- ---<br>-------- was -----,597146.8999999985,597144.299999997,596329.858,596338.299999997,596346.538,597163.858,,44,was
screen,html.Screen,2_3_1_0_1_45,2022-04-25T21:52:59.603Z,,,,,,,,,,,,,,,,,40,,,,,,,,,,,,,,689.3419999992475,,response,,,,9,B,,,,,,Space,keypress(Space),,,,lyrical,,,,------ -- ------- ---- ---- ---- - -------- ----- --- --<br>----- ----- ------ -- ---- -- --- - ---- -- - ----- -----<br>------ ---- ------ ---- - -------- ------- -- --- --------<br>-------- ----------- ---- ------ ---- ------ ---- --- ---<br>-------- --- made.,597857.0999999978,597853.1999999993,597147.178,597146.8999999985,597163.858,597864.418,,45,made.
Item 9,flow.Loop,2_3_1_0_1,2022-04-25T21:52:59.603Z,,,,,,,,,,,,,,,,,,,,,,,,,,,,,,,31481.401999999303,,completion,,,,,,,,,,,,,,,,,,,,,597857.299999997,597853.1999999993,566355.118,566358.6999999993,566371.798,597864.418,,,
Question 1,html.Screen,2_3_1_0_2,2022-04-25T21:53:03.044Z,,,,,,,,,,,,,,,,,,,,,,,,,,,,true,FALSE,,3432.582000000053,,response,,,,9,B,,,,,,FALSE,click #choice-2,,,,lyrical,,,,,601298.1999999993,601297,597847.738,597857.299999997,597864.418,601317.178,,,
Question 2,html.Screen,2_3_1_0_3,2022-04-25T21:53:10.221Z,,,,,,,,,,,,,,,,,,,,,,,,,,,,false,FALSE,,7157.822000000044,,response,,,,9,B,,,,,,TRUE,click #choice-1,,,,lyrical,,,,,608476.1999999993,608475,601300.498,601298.299999997,601317.178,608506.508,,,
Item 9,flow.Sequence,2_3_1_0,2022-04-25T21:53:10.221Z,,,,,,,,,,,,,,,,,,,,,,,,,,,,,,,49109.177999999956,,completion,,,,,,,,,,,,,,,,,,,,,608476.1999999993,608475,559349.142,559351.0999999978,559365.822,608506.508,,,
