sender,sender_type,sender_id,timestamp,meta,,Blues,Classical,Country,Dance,Electronic,Folk,Gospel,Hip-Hop,Jazz,Latin,Musical/Film,New-age,Pop,Prolific_id,Provo_ID,R&B,Rap,Reggae,Religious,Rock,Soul,Swing,Traditional,age,artist_name,correct,correctResponse,distraction,duration,education,ended_on,familiarity,gender,headphone_check_performance,item,list,music_frequency,offensiveness,pleasantness,position_correct,preference,response,response_action,snippet_file,song_name,song_rating,sound,stimulus_1,stimulus_2,stimulus_3,text,time_commit,time_end,time_render,time_run,time_show,time_switch,url,word,word_ID
Prolific ID,html.Form,0,2022-05-02T11:16:03.453Z,"{""labjs_version"":""20.2.2"",""labjs_build"":{""flavor"":""production"",""commit"":""a25486e0c714a0ae2ce03ff94b7bb6896854dcfa""},""location"":""https://run.pavlovia.org/mvasilev/prolific3_music_e/"",""userAgent"":""Mozilla/5.0 (Windows NT 10.0; Win64; x64) AppleWebKit/537.36 (KHTML, like Gecko) Chrome/100.0.4896.127 Safari/537.36"",""platform"":""Win32"",""language"":""en-US"",""locale"":""en-GB"",""timeZone"":""Europe/London"",""timezoneOffset"":-60,""screen_width"":1366,""screen_height"":768,""scroll_width"":1707,""scroll_height"":786,""window_innerWidth"":1707,""window_innerHeight"":833,""devicePixelRatio"":0.800000011920929}",,,,,,,,,,,,,,,5d68c8aa40524c00189e8ac2,,,,,,,,,,,,,,,21731.721000095367,,form submission,,,,,,,,,,,,,,,,,,,,,35955.800000071526,35954.90000009537,14173.193,14172,14223.179,35976.836,{},,
Introduction,html.Screen,1_0,2022-05-02T11:16:08.891Z,,,,,,,,,,,,,,,,,,,,,,,,,,,,,,,5415.663999999997,,response,,,,,,,,,,,continue,click button,,,,,,,,,41393.60000002384,41392.5,35943.512,35956.40000009537,35976.836,41399.493,,,
Volume calibration,html.Screen,1_1,2022-05-02T11:16:25.235Z,,,,,,,,,,,,,,,,,,,,,,,,,,,,,,,16337.006999999998,,response,,,,,,,,,,,continue,click button,,,,,,,,,57737.60000002384,57736.5,41382.831,41393.800000071526,41399.493,57739.23,,,
Task instructions,html.Screen,1_2,2022-05-02T11:16:27.563Z,,,,,,,,,,,,,,,,,,,,,,,,,,,,,,,2325.1700000953642,,response,,,,,,,,,,,continue,click button,,,,,,,,,60065.300000071526,60064.40000009537,57722.568,57737.800000071526,57739.23,60079.424,,,
Sounds,html.Screen,1_3_0_0,2022-05-02T11:16:31.821Z,,,,,,,,,,,,,,,,,,,,,,,,,,,,,,,4255.6500000000015,,timeout,,,,,,,,,3,,,,,,,,I,O,S,,64323.40000009537,64318.412,60062.762,60065.60000002384,60079.424,64335.074,,,
Judgement,html.Screen,1_3_0_1,2022-05-02T11:16:32.459Z,,,,,,,,,,,,,,,,,,,,,,,,,,,,true,3,,625.5260000238413,,response,,,,,,,,,3,,3,click #choice-3,,,,,I,O,S,,64961.800000071526,64960.60000002384,64318.412,64323.700000047684,64335.074,64965.135,,,
Trial,flow.Sequence,1_3_0,2022-05-02T11:16:32.460Z,,,,,,,,,,,,,,,,,,,,,,,,,,,,,,,4881.176000023843,,completion,,,,,,,,,3,,,,,,,,I,O,S,,64962.10000002384,64960.60000002384,60062.762,60065.5,60079.424,64965.135,,,
Sounds,html.Screen,1_3_1_0,2022-05-02T11:16:36.696Z,,,,,,,,,,,,,,,,,,,,,,,,,,,,,,,4248.106999999996,,timeout,,,,,,,,,2,,,,,,,,O,S,I,,69198.5,69196.58,64948.473,64962.300000071526,64965.135,69213.242,,,
Judgement,html.Screen,1_3_1_1,2022-05-02T11:16:37.155Z,,,,,,,,,,,,,,,,,,,,,,,,,,,,true,2,,443.15800009536906,,response,,,,,,,,,2,,2,click #choice-2,,,,,O,S,I,,69657.40000009537,69656.40000009537,69196.58,69198.70000004768,69213.242,69658.962,,,
Trial,flow.Sequence,1_3_1,2022-05-02T11:16:37.155Z,,,,,,,,,,,,,,,,,,,,,,,,,,,,,,,4691.265000095365,,completion,,,,,,,,,2,,,,,,,,O,S,I,,69657.80000007153,69656.40000009537,64948.473,64962.200000047684,64965.135,69658.962,,,
Sounds,html.Screen,1_3_2_0,2022-05-02T11:16:41.392Z,,,,,,,,,,,,,,,,,,,,,,,,,,,,,,,4250.437999999995,,timeout,,,,,,,,,1,,,,,,,,S,I,O,,73894.30000007153,73892.738,69642.3,69658,69658.962,73909.4,,,
Judgement,html.Screen,1_3_2_1,2022-05-02T11:16:41.739Z,,,,,,,,,,,,,,,,,,,,,,,,,,,,true,1,,331.00000009537325,,response,,,,,,,,,1,,1,click #choice-1,,,,,S,I,O,,74241.40000009537,74240.40000009537,73892.738,73894.5,73909.4,74251.985,,,
Trial,flow.Sequence,1_3_2,2022-05-02T11:16:41.739Z,,,,,,,,,,,,,,,,,,,,,,,,,,,,,,,4581.438000095368,,completion,,,,,,,,,1,,,,,,,,S,I,O,,74241.60000002384,74240.40000009537,69642.3,69658,69658.962,74251.985,,,
Sounds,html.Screen,1_3_3_0,2022-05-02T11:16:45.991Z,,,,,,,,,,,,,,,,,,,,,,,,,,,,,,,4256.745999999999,,timeout,,,,,,,,,1,,,,,,,,S,O,I,,78493.70000004768,78492.069,74235.323,74241.80000007153,74251.985,78508.731,,,
Judgement,html.Screen,1_3_3_1,2022-05-02T11:16:47.123Z,,,,,,,,,,,,,,,,,,,,,,,,,,,,true,1,,1115.6690000953677,,response,,,,,,,,,1,,1,click #choice-1,,,,,S,O,I,,79625.40000009537,79624.40000009537,78492.069,78494,78508.731,79641.601,,,
Trial,flow.Sequence,1_3_3,2022-05-02T11:16:47.123Z,,,,,,,,,,,,,,,,,,,,,,,,,,,,,,,5372.415000095367,,completion,,,,,,,,,1,,,,,,,,S,O,I,,79625.5,79624.40000009537,74235.323,74241.70000004768,74251.985,79641.601,,,
Sounds,html.Screen,1_3_4_0,2022-05-02T11:16:51.373Z,,,,,,,,,,,,,,,,,,,,,,,,,,,,,,,4248.176000000007,,timeout,,,,,,,,,2,,,,,,,,I,S,O,,83875.10000002384,83873.115,79624.939,79625.80000007153,79641.601,83889.777,,,
Judgement,html.Screen,1_3_4_1,2022-05-02T11:16:52.091Z,,,,,,,,,,,,,,,,,,,,,,,,,,,,true,2,,702.5230000715237,,response,,,,,,,,,2,,2,click #choice-2,,,,,I,S,O,,84594,84592.30000007153,83873.115,83875.30000007153,83889.777,84599.996,,,
Trial,flow.Sequence,1_3_4,2022-05-02T11:16:52.092Z,,,,,,,,,,,,,,,,,,,,,,,,,,,,,,,4950.6990000715305,,completion,,,,,,,,,2,,,,,,,,I,S,O,,84594.20000004768,84592.30000007153,79624.939,79625.70000004768,79641.601,84599.996,,,
Sounds,html.Screen,1_3_5_0,2022-05-02T11:16:56.330Z,,,,,,,,,,,,,,,,,,,,,,,,,,,,,,,4246.909,,timeout,,,,,,,,,3,,,,,,,,O,I,S,,88832.20000004768,88830.243,84583.334,84594.30000007153,84599.996,88846.905,,,
Judgement,html.Screen,1_3_5_1,2022-05-02T11:16:56.812Z,,,,,,,,,,,,,,,,,,,,,,,,,,,,true,3,,465.7950000476849,,response,,,,,,,,,3,,3,click #choice-3,,,,,O,I,S,,89314.10000002384,89312.70000004768,88830.243,88832.60000002384,88846.905,89326.307,,,
Trial,flow.Sequence,1_3_5,2022-05-02T11:16:56.812Z,,,,,,,,,,,,,,,,,,,,,,,,,,,,,,,4712.7040000476845,,completion,,,,,,,,,3,,,,,,,,O,I,S,,89314.40000009537,89312.70000004768,84583.334,84594.30000007153,84599.996,89326.307,,,
Task,flow.Loop,1_3,2022-05-02T11:16:56.823Z,,,,,,,,,,,,,,,,,,,,,,,,,,,,,,,29233.276000047685,,completion,,,1,,,,,,,,,,,,,,,,,,89325,89312.70000004768,60062.762,60065.5,60079.424,89326.307,,,
Trap,html.Screen,1_4,2022-05-02T11:16:56.826Z,,,,,,,,,,,,,,,,,,,,,,,,,,,,,,,NaN,,skipped,,,,,,,,,,,,,,,,,,,,,89328.20000004768,89312.70000004768,,89328,,89326.307,,,
Thanks,html.Screen,1_5,2022-05-02T11:16:59.595Z,,,,,,,,,,,,,,,,,,,,,,,,,,,,,,,2769.793000023841,,response,,,,,,,,,,,continue,click button,,,,,,,,,92097,92096.10000002384,89309.645,89328.40000009537,89326.307,94901.026,,,
Headphone screening,flow.Sequence,1,2022-05-02T11:16:59.595Z,,,,,,,,,,,,,,,,,,,,,,,,,,,,,,,56119.26400002384,,completion,,,,,,,,,,,,,,,,,,,,,92097.20000004768,92096.10000002384,35943.512,35956.40000009537,35976.836,94901.026,,,
Instructions,html.Page,2_0,2022-05-02T11:17:11.524Z,,,,,,,,,,,,,,,,,,,,,,,,,,,,,,,9125.274000071528,,form submission,,,,,,,,,,,,,,,,,,,,,104026.60000002384,104026.30000007153,94867.702,94880.20000004768,94901.026,104041.009,,,
Holding screen,html.Screen,2_1_0_0,2022-05-02T11:17:21.523Z,,,,,,,,,,,,,,,,,,,,,,,,,,,,,,,10014.981999999989,,timeout,,,,,,,,,,,,,,,,,,,,,114025.30000007153,114022.667,104024.347,104026.80000007153,104041.009,114055.991,,,
screen,html.Screen,2_1_0_1_0,2022-05-02T11:17:22.781Z,,,,,,,,,,,,,,,,,53,,,,,,,,,,,,,,1224.7090000476892,,response,,,,99,,,,,,,Space,keypress(Space),,,,,,,,When -- ----- -- ------ - ------- --- ----------<br>------------- ------ ------ ---- ---- ------- ----- -- ----<br>-------- ------- -- ---------- --- - --- ----- ----- ----<br>---- --- --- ----- --- ---- ---- ------- ----- ---- -------<br>--- --- -- ----- -- --- ---- -- --- ---- -- ------ ------<br>--- ----- -- ----,115283.10000002384,115280.70000004768,114022.667,114025.80000007153,114055.991,115284.058,,0,When
screen,html.Screen,2_1_0_1_1,2022-05-02T11:17:23.171Z,,,,,,,,,,,,,,,,,53,,,,,,,,,,,,,,388.3420000953629,,response,,,,99,,,,,,,Space,keypress(Space),,,,,,,,---- it ----- -- ------ - ------- --- ----------<br>------------- ------ ------ ---- ---- ------- ----- -- ----<br>-------- ------- -- ---------- --- - --- ----- ----- ----<br>---- --- --- ----- --- ---- ---- ------- ----- ---- -------<br>--- --- -- ----- -- --- ---- -- --- ---- -- ------ ------<br>--- ----- -- ----,115673.30000007153,115672.40000009537,115267.396,115283.40000009537,115284.058,115678.142,,1,it
screen,html.Screen,2_1_0_1_2,2022-05-02T11:17:23.532Z,,,,,,,,,,,,,,,,,53,,,,,,,,,,,,,,354.6580000715185,,response,,,,99,,,,,,,Space,keypress(Space),,,,,,,,---- -- comes -- ------ - ------- --- ----------<br>------------- ------ ------ ---- ---- ------- ----- -- ----<br>-------- ------- -- ---------- --- - --- ----- ----- ----<br>---- --- --- ----- --- ---- ---- ------- ----- ---- -------<br>--- --- -- ----- -- --- ---- -- --- ---- -- ------ ------<br>--- ----- -- ----,116034,116032.80000007153,115661.48,115673.5,115678.142,116042.827,,2,comes
screen,html.Screen,2_1_0_1_3,2022-05-02T11:17:23.892Z,,,,,,,,,,,,,,,,,53,,,,,,,,,,,,,,349.87300004767894,,response,,,,99,,,,,,,Space,keypress(Space),,,,,,,,---- -- ----- to ------ - ------- --- ----------<br>------------- ------ ------ ---- ---- ------- ----- -- ----<br>-------- ------- -- ---------- --- - --- ----- ----- ----<br>---- --- --- ----- --- ---- ---- ------- ----- ---- -------<br>--- --- -- ----- -- --- ---- -- --- ---- -- ------ ------<br>--- ----- -- ----,116395,116392.70000004768,116026.165,116034.30000007153,116042.827,116407.665,,3,to
screen,html.Screen,2_1_0_1_4,2022-05-02T11:17:24.139Z,,,,,,,,,,,,,,,,,53,,,,,,,,,,,,,,232.53500004769012,,response,,,,99,,,,,,,Space,keypress(Space),,,,,,,,---- -- ----- -- having - ------- --- ----------<br>------------- ------ ------ ---- ---- ------- ----- -- ----<br>-------- ------- -- ---------- --- - --- ----- ----- ----<br>---- --- --- ----- --- ---- ---- ------- ----- ---- -------<br>--- --- -- ----- -- --- ---- -- --- ---- -- ------ ------<br>--- ----- -- ----,116641.20000004768,116640.20000004768,116391.003,116395.30000007153,116407.665,116655.892,,4,having
screen,html.Screen,2_1_0_1_5,2022-05-02T11:17:24.532Z,,,,,,,,,,,,,,,,,53,,,,,,,,,,,,,,376.9080000715185,,response,,,,99,,,,,,,Space,keypress(Space),,,,,,,,---- -- ----- -- ------ a ------- --- ----------<br>------------- ------ ------ ---- ---- ------- ----- -- ----<br>-------- ------- -- ---------- --- - --- ----- ----- ----<br>---- --- --- ----- --- ---- ---- ------- ----- ---- -------<br>--- --- -- ----- -- --- ---- -- --- ---- -- ------ ------<br>--- ----- -- ----,117034,117032.80000007153,116639.23,116641.40000009537,116655.892,117038.001,,5,a
screen,html.Screen,2_1_0_1_6,2022-05-02T11:17:24.827Z,,,,,,,,,,,,,,,,,53,,,,,,,,,,,,,,290.3990000953636,,response,,,,99,,,,,,,Space,keypress(Space),,,,,,,,---- -- ----- -- ------ - lasting --- ----------<br>------------- ------ ------ ---- ---- ------- ----- -- ----<br>-------- ------- -- ---------- --- - --- ----- ----- ----<br>---- --- --- ----- --- ---- ---- ------- ----- ---- -------<br>--- --- -- ----- -- --- ---- -- --- ---- -- ------ ------<br>--- ----- -- ----,117329.20000004768,117328.40000009537,117021.339,117034.30000007153,117038.001,117336.018,,6,lasting
screen,html.Screen,2_1_0_1_7,2022-05-02T11:17:25.243Z,,,,,,,,,,,,,,,,,53,,,,,,,,,,,,,,408.7820000715292,,response,,,,99,,,,,,,Space,keypress(Space),,,,,,,,---- -- ----- -- ------ - ------- and ----------<br>------------- ------ ------ ---- ---- ------- ----- -- ----<br>-------- ------- -- ---------- --- - --- ----- ----- ----<br>---- --- --- ----- --- ---- ---- ------- ----- ---- -------<br>--- --- -- ----- -- --- ---- -- --- ---- -- ------ ------<br>--- ----- -- ----,117746,117744.80000007153,117319.356,117329.40000009537,117336.018,117751.245,,7,and
screen,html.Screen,2_1_0_1_8,2022-05-02T11:17:25.716Z,,,,,,,,,,,,,,,,,53,,,,,,,,,,,,,,465.4550000476884,,response,,,,99,,,,,,,Space,keypress(Space),,,,,,,,---- -- ----- -- ------ - ------- --- fulfilling<br>------------- ------ ------ ---- ---- ------- ----- -- ----<br>-------- ------- -- ---------- --- - --- ----- ----- ----<br>---- --- --- ----- --- ---- ---- ------- ----- ---- -------<br>--- --- -- ----- -- --- ---- -- --- ---- -- ------ ------<br>--- ----- -- ----,118218.80000007153,118216.70000004768,117734.583,117746.20000004768,117751.245,118232.42,,8,fulfilling
screen,html.Screen,2_1_0_1_9,2022-05-02T11:17:26.163Z,,,,,,,,,,,,,,,,,53,,,,,,,,,,,,,,432.28000004768546,,response,,,,99,,,,,,,Space,keypress(Space),,,,,,,,"---- -- ----- -- ------ - ------- --- ----------<br>relationship, ------ ------ ---- ---- ------- ----- -- ----<br>-------- ------- -- ---------- --- - --- ----- ----- ----<br>---- --- --- ----- --- ---- ---- ------- ----- ---- -------<br>--- --- -- ----- -- --- ---- -- --- ---- -- ------ ------<br>--- ----- -- ----",118665.80000007153,118664.70000004768,118215.758,118219.30000007153,118232.42,118679.97,,9,"relationship,"
screen,html.Screen,2_1_0_1_10,2022-05-02T11:17:26.602Z,,,,,,,,,,,,,,,,,53,,,,,,,,,,,,,,424.23000004768255,,response,,,,99,,,,,,,Space,keypress(Space),,,,,,,,---- -- ----- -- ------ - ------- --- ----------<br>------------- common ------ ---- ---- ------- ----- -- ----<br>-------- ------- -- ---------- --- - --- ----- ----- ----<br>---- --- --- ----- --- ---- ---- ------- ----- ---- -------<br>--- --- -- ----- -- --- ---- -- --- ---- -- ------ ------<br>--- ----- -- ----,119104.80000007153,119104.20000004768,118663.308,118666.10000002384,118679.97,119111.185,,10,common
screen,html.Screen,2_1_0_1_11,2022-05-02T11:17:26.931Z,,,,,,,,,,,,,,,,,53,,,,,,,,,,,,,,321.4150000238442,,response,,,,99,,,,,,,Space,keypress(Space),,,,,,,,---- -- ----- -- ------ - ------- --- ----------<br>------------- ------ wisdom ---- ---- ------- ----- -- ----<br>-------- ------- -- ---------- --- - --- ----- ----- ----<br>---- --- --- ----- --- ---- ---- ------- ----- ---- -------<br>--- --- -- ----- -- --- ---- -- --- ---- -- ------ ------<br>--- ----- -- ----,119433.80000007153,119432.60000002384,119094.523,119105,119111.185,119442.332,,11,wisdom
screen,html.Screen,2_1_0_1_12,2022-05-02T11:17:27.226Z,,,,,,,,,,,,,,,,,53,,,,,,,,,,,,,,285.86800004768884,,response,,,,99,,,,,,,Space,keypress(Space),,,,,,,,---- -- ----- -- ------ - ------- --- ----------<br>------------- ------ ------ says ---- ------- ----- -- ----<br>-------- ------- -- ---------- --- - --- ----- ----- ----<br>---- --- --- ----- --- ---- ---- ------- ----- ---- -------<br>--- --- -- ----- -- --- ---- -- --- ---- -- ------ ------<br>--- ----- -- ----,119728.90000009537,119728.20000004768,119425.67,119434.10000002384,119442.332,119740.622,,12,says
screen,html.Screen,2_1_0_1_13,2022-05-02T11:17:27.675Z,,,,,,,,,,,,,,,,,53,,,,,,,,,,,,,,435.67800007152255,,response,,,,99,,,,,,,Space,keypress(Space),,,,,,,,---- -- ----- -- ------ - ------- --- ----------<br>------------- ------ ------ ---- that ------- ----- -- ----<br>-------- ------- -- ---------- --- - --- ----- ----- ----<br>---- --- --- ----- --- ---- ---- ------- ----- ---- -------<br>--- --- -- ----- -- --- ---- -- --- ---- -- ------ ------<br>--- ----- -- ----,120177.10000002384,120176.30000007153,119723.96,119729,119740.622,120189.227,,13,that
screen,html.Screen,2_1_0_1_14,2022-05-02T11:17:27.971Z,,,,,,,,,,,,,,,,,53,,,,,,,,,,,,,,283.47300004768476,,response,,,,99,,,,,,,Space,keypress(Space),,,,,,,,---- -- ----- -- ------ - ------- --- ----------<br>------------- ------ ------ ---- ---- feeling ----- -- ----<br>-------- ------- -- ---------- --- - --- ----- ----- ----<br>---- --- --- ----- --- ---- ---- ------- ----- ---- -------<br>--- --- -- ----- -- --- ---- -- --- ---- -- ------ ------<br>--- ----- -- ----,120473.90000009537,120472.70000004768,120172.565,120177.30000007153,120189.227,120486.988,,14,feeling
screen,html.Screen,2_1_0_1_15,2022-05-02T11:17:28.292Z,,,,,,,,,,,,,,,,,53,,,,,,,,,,,,,,305.71200004768616,,response,,,,99,,,,,,,Space,keypress(Space),,,,,,,,---- -- ----- -- ------ - ------- --- ----------<br>------------- ------ ------ ---- ---- ------- close -- ----<br>-------- ------- -- ---------- --- - --- ----- ----- ----<br>---- --- --- ----- --- ---- ---- ------- ----- ---- -------<br>--- --- -- ----- -- --- ---- -- --- ---- -- ------ ------<br>--- ----- -- ----,120794,120792.70000004768,120470.326,120474.30000007153,120486.988,120802.126,,15,close
screen,html.Screen,2_1_0_1_16,2022-05-02T11:17:28.571Z,,,,,,,,,,,,,,,,,53,,,,,,,,,,,,,,270.37399999999616,,response,,,,99,,,,,,,Space,keypress(Space),,,,,,,,---- -- ----- -- ------ - ------- --- ----------<br>------------- ------ ------ ---- ---- ------- ----- to ----<br>-------- ------- -- ---------- --- - --- ----- ----- ----<br>---- --- --- ----- --- ---- ---- ------- ----- ---- -------<br>--- --- -- ----- -- --- ---- -- --- ---- -- ------ ------<br>--- ----- -- ----,121073.80000007153,121072.5,120785.464,120794.30000007153,120802.126,121083.803,,16,to
screen,html.Screen,2_1_0_1_17,2022-05-02T11:17:28.811Z,,,,,,,,,,,,,,,,,53,,,,,,,,,,,,,,228.89700004768383,,response,,,,99,,,,,,,Space,keypress(Space),,,,,,,,---- -- ----- -- ------ - ------- --- ----------<br>------------- ------ ------ ---- ---- ------- ----- -- your<br>-------- ------- -- ---------- --- - --- ----- ----- ----<br>---- --- --- ----- --- ---- ---- ------- ----- ---- -------<br>--- --- -- ----- -- --- ---- -- --- ---- -- ------ ------<br>--- ----- -- ----,121314,121312.70000004768,121067.141,121074.10000002384,121083.803,121315.721,,17,your
screen,html.Screen,2_1_0_1_18,2022-05-02T11:17:29.219Z,,,,,,,,,,,,,,,,,53,,,,,,,,,,,,,,404.9790000476787,,response,,,,99,,,,,,,Space,keypress(Space),,,,,,,,---- -- ----- -- ------ - ------- --- ----------<br>------------- ------ ------ ---- ---- ------- ----- -- ----<br>romantic ------- -- ---------- --- - --- ----- ----- ----<br>---- --- --- ----- --- ---- ---- ------- ----- ---- -------<br>--- --- -- ----- -- --- ---- -- --- ---- -- ------ ------<br>--- ----- -- ----,121721.90000009537,121720.70000004768,121299.059,121314.20000004768,121315.721,121731.246,,18,romantic
screen,html.Screen,2_1_0_1_19,2022-05-02T11:17:29.450Z,,,,,,,,,,,,,,,,,53,,,,,,,,,,,,,,220.85400002384267,,response,,,,99,,,,,,,Space,keypress(Space),,,,,,,,---- -- ----- -- ------ - ------- --- ----------<br>------------- ------ ------ ---- ---- ------- ----- -- ----<br>-------- partner -- ---------- --- - --- ----- ----- ----<br>---- --- --- ----- --- ---- ---- ------- ----- ---- -------<br>--- --- -- ----- -- --- ---- -- --- ---- -- ------ ------<br>--- ----- -- ----,121952.80000007153,121952.10000002384,121714.584,121722.20000004768,121731.246,121962.484,,19,partner
screen,html.Screen,2_1_0_1_20,2022-05-02T11:17:29.786Z,,,,,,,,,,,,,,,,,53,,,,,,,,,,,,,,325.4160000953707,,response,,,,99,,,,,,,Space,keypress(Space),,,,,,,,---- -- ----- -- ------ - ------- --- ----------<br>------------- ------ ------ ---- ---- ------- ----- -- ----<br>-------- ------- is ---------- --- - --- ----- ----- ----<br>---- --- --- ----- --- ---- ---- ------- ----- ---- -------<br>--- --- -- ----- -- --- ---- -- --- ---- -- ------ ------<br>--- ----- -- ----,122288.60000002384,122287.90000009537,121945.822,121952.90000009537,121962.484,122294.7,,20,is
screen,html.Screen,2_1_0_1_21,2022-05-02T11:17:30.106Z,,,,,,,,,,,,,,,,,53,,,,,,,,,,,,,,313.40000002384477,,response,,,,99,,,,,,,Space,keypress(Space),,,,,,,,---- -- ----- -- ------ - ------- --- ----------<br>------------- ------ ------ ---- ---- ------- ----- -- ----<br>-------- ------- -- paramount. --- - --- ----- ----- ----<br>---- --- --- ----- --- ---- ---- ------- ----- ---- -------<br>--- --- -- ----- -- --- ---- -- --- ---- -- ------ ------<br>--- ----- -- ----,122608.80000007153,122608.10000002384,122278.038,122288.70000004768,122294.7,122609.637,,21,paramount.
screen,html.Screen,2_1_0_1_22,2022-05-02T11:17:30.403Z,,,,,,,,,,,,,,,,,53,,,,,,,,,,,,,,295.16300007152313,,response,,,,99,,,,,,,Space,keypress(Space),,,,,,,,---- -- ----- -- ------ - ------- --- ----------<br>------------- ------ ------ ---- ---- ------- ----- -- ----<br>-------- ------- -- ---------- But - --- ----- ----- ----<br>---- --- --- ----- --- ---- ---- ------- ----- ---- -------<br>--- --- -- ----- -- --- ---- -- --- ---- -- ------ ------<br>--- ----- -- ----,122905.90000009537,122904.80000007153,122592.975,122608.90000009537,122609.637,122908.1,,22,But
screen,html.Screen,2_1_0_1_23,2022-05-02T11:17:30.691Z,,,,,,,,,,,,,,,,,53,,,,,,,,,,,,,,284.50000002383604,,response,,,,99,,,,,,,Space,keypress(Space),,,,,,,,---- -- ----- -- ------ - ------- --- ----------<br>------------- ------ ------ ---- ---- ------- ----- -- ----<br>-------- ------- -- ---------- --- a --- ----- ----- ----<br>---- --- --- ----- --- ---- ---- ------- ----- ---- -------<br>--- --- -- ----- -- --- ---- -- --- ---- -- ------ ------<br>--- ----- -- ----,123193.80000007153,123192.60000002384,122891.438,122906.20000004768,122908.1,123206.623,,23,a
screen,html.Screen,2_1_0_1_24,2022-05-02T11:17:30.996Z,,,,,,,,,,,,,,,,,53,,,,,,,,,,,,,,290.07700004767685,,response,,,,99,,,,,,,Space,keypress(Space),,,,,,,,---- -- ----- -- ------ - ------- --- ----------<br>------------- ------ ------ ---- ---- ------- ----- -- ----<br>-------- ------- -- ---------- --- - new ----- ----- ----<br>---- --- --- ----- --- ---- ---- ------- ----- ---- -------<br>--- --- -- ----- -- --- ---- -- --- ---- -- ------ ------<br>--- ----- -- ----,123498.10000002384,123496.70000004768,123189.961,123194.10000002384,123206.623,123505.137,,24,new
screen,html.Screen,2_1_0_1_25,2022-05-02T11:17:31.284Z,,,,,,,,,,,,,,,,,53,,,,,,,,,,,,,,279.56300004768127,,response,,,,99,,,,,,,Space,keypress(Space),,,,,,,,---- -- ----- -- ------ - ------- --- ----------<br>------------- ------ ------ ---- ---- ------- ----- -- ----<br>-------- ------- -- ---------- --- - --- study ----- ----<br>---- --- --- ----- --- ---- ---- ------- ----- ---- -------<br>--- --- -- ----- -- --- ---- -- --- ---- -- ------ ------<br>--- ----- -- ----,123786.30000007153,123784.70000004768,123488.475,123498.5,123505.137,123803.632,,25,study
screen,html.Screen,2_1_0_1_26,2022-05-02T11:17:31.532Z,,,,,,,,,,,,,,,,,53,,,,,,,,,,,,,,229.16800007152779,,response,,,,99,,,,,,,Space,keypress(Space),,,,,,,,---- -- ----- -- ------ - ------- --- ----------<br>------------- ------ ------ ---- ---- ------- ----- -- ----<br>-------- ------- -- ---------- --- - --- ----- finds ----<br>---- --- --- ----- --- ---- ---- ------- ----- ---- -------<br>--- --- -- ----- -- --- ---- -- --- ---- -- ------ ------<br>--- ----- -- ----,124034.10000002384,124032.80000007153,123786.97,123786.90000009537,123803.632,124035.556,,26,finds
screen,html.Screen,2_1_0_1_27,2022-05-02T11:17:31.749Z,,,,,,,,,,,,,,,,,53,,,,,,,,,,,,,,213.24400007152872,,response,,,,99,,,,,,,Space,keypress(Space),,,,,,,,---- -- ----- -- ------ - ------- --- ----------<br>------------- ------ ------ ---- ---- ------- ----- -- ----<br>-------- ------- -- ---------- --- - --- ----- ----- that<br>---- --- --- ----- --- ---- ---- ------- ----- ---- -------<br>--- --- -- ----- -- --- ---- -- --- ---- -- ------ ------<br>--- ----- -- ----,124251.70000004768,124248.80000007153,124018.894,124034.40000009537,124035.556,124267.651,,27,that
screen,html.Screen,2_1_0_1_28,2022-05-02T11:17:32.236Z,,,,,,,,,,,,,,,,,53,,,,,,,,,,,,,,469.44900002384384,,response,,,,99,,,,,,,Space,keypress(Space),,,,,,,,---- -- ----- -- ------ - ------- --- ----------<br>------------- ------ ------ ---- ---- ------- ----- -- ----<br>-------- ------- -- ---------- --- - --- ----- ----- ----<br>it's --- --- ----- --- ---- ---- ------- ----- ---- -------<br>--- --- -- ----- -- --- ---- -- --- ---- -- ------ ------<br>--- ----- -- ----,124738.30000007153,124737.10000002384,124250.989,124251.90000009537,124267.651,124749.824,,28,it's
screen,html.Screen,2_1_0_1_29,2022-05-02T11:17:32.506Z,,,,,,,,,,,,,,,,,53,,,,,,,,,,,,,,258.17600000000675,,response,,,,99,,,,,,,Space,keypress(Space),,,,,,,,---- -- ----- -- ------ - ------- --- ----------<br>------------- ------ ------ ---- ---- ------- ----- -- ----<br>-------- ------- -- ---------- --- - --- ----- ----- ----<br>---- not --- ----- --- ---- ---- ------- ----- ---- -------<br>--- --- -- ----- -- --- ---- -- --- ---- -- ------ ------<br>--- ----- -- ----,125008.5,125008,124733.162,124738.60000002384,124749.824,125014.086,,29,not
screen,html.Screen,2_1_0_1_30,2022-05-02T11:17:32.795Z,,,,,,,,,,,,,,,,,53,,,,,,,,,,,,,,282.4140000000043,,response,,,,99,,,,,,,Space,keypress(Space),,,,,,,,---- -- ----- -- ------ - ------- --- ----------<br>------------- ------ ------ ---- ---- ------- ----- -- ----<br>-------- ------- -- ---------- --- - --- ----- ----- ----<br>---- --- how ----- --- ---- ---- ------- ----- ---- -------<br>--- --- -- ----- -- --- ---- -- --- ---- -- ------ ------<br>--- ----- -- ----,125297.20000004768,125296.5,124997.424,125008.70000004768,125014.086,125312.645,,30,how
screen,html.Screen,2_1_0_1_31,2022-05-02T11:17:33.090Z,,,,,,,,,,,,,,,,,53,,,,,,,,,,,,,,279.55500004767964,,response,,,,99,,,,,,,Space,keypress(Space),,,,,,,,---- -- ----- -- ------ - ------- --- ----------<br>------------- ------ ------ ---- ---- ------- ----- -- ----<br>-------- ------- -- ---------- --- - --- ----- ----- ----<br>---- --- --- close --- ---- ---- ------- ----- ---- -------<br>--- --- -- ----- -- --- ---- -- --- ---- -- ------ ------<br>--- ----- -- ----,125593,125592.20000004768,125295.983,125297.60000002384,125312.645,125594.567,,31,close
screen,html.Screen,2_1_0_1_32,2022-05-02T11:17:33.330Z,,,,,,,,,,,,,,,,,53,,,,,,,,,,,,,,237.5330000238464,,response,,,,99,,,,,,,Space,keypress(Space),,,,,,,,---- -- ----- -- ------ - ------- --- ----------<br>------------- ------ ------ ---- ---- ------- ----- -- ----<br>-------- ------- -- ---------- --- - --- ----- ----- ----<br>---- --- --- ----- you ---- ---- ------- ----- ---- -------<br>--- --- -- ----- -- --- ---- -- --- ---- -- ------ ------<br>--- ----- -- ----,125832.70000004768,125832.10000002384,125577.905,125593.10000002384,125594.567,125843.151,,32,you
screen,html.Screen,2_1_0_1_33,2022-05-02T11:17:33.619Z,,,,,,,,,,,,,,,,,53,,,,,,,,,,,,,,277.5490000476857,,response,,,,99,,,,,,,Space,keypress(Space),,,,,,,,---- -- ----- -- ------ - ------- --- ----------<br>------------- ------ ------ ---- ---- ------- ----- -- ----<br>-------- ------- -- ---------- --- - --- ----- ----- ----<br>---- --- --- ----- --- feel ---- ------- ----- ---- -------<br>--- --- -- ----- -- --- ---- -- --- ---- -- ------ ------<br>--- ----- -- ----,126122,126120.70000004768,125826.489,125832.90000009537,125843.151,126125.279,,33,feel
screen,html.Screen,2_1_0_1_34,2022-05-02T11:17:33.858Z,,,,,,,,,,,,,,,,,53,,,,,,,,,,,,,,235.02100007153058,,response,,,,99,,,,,,,Space,keypress(Space),,,,,,,,---- -- ----- -- ------ - ------- --- ----------<br>------------- ------ ------ ---- ---- ------- ----- -- ----<br>-------- ------- -- ---------- --- - --- ----- ----- ----<br>---- --- --- ----- --- ---- that ------- ----- ---- -------<br>--- --- -- ----- -- --- ---- -- --- ---- -- ------ ------<br>--- ----- -- ----,126360.90000009537,126360.30000007153,126108.617,126122.30000007153,126125.279,126373.751,,34,that
screen,html.Screen,2_1_0_1_35,2022-05-02T11:17:34.139Z,,,,,,,,,,,,,,,,,53,,,,,,,,,,,,,,266.6490000953636,,response,,,,99,,,,,,,Space,keypress(Space),,,,,,,,---- -- ----- -- ------ - ------- --- ----------<br>------------- ------ ------ ---- ---- ------- ----- -- ----<br>-------- ------- -- ---------- --- - --- ----- ----- ----<br>---- --- --- ----- --- ---- ---- matters ----- ---- -------<br>--- --- -- ----- -- --- ---- -- --- ---- -- ------ ------<br>--- ----- -- ----,126641.30000007153,126640.40000009537,126357.089,126361,126373.751,126655.937,,35,matters
screen,html.Screen,2_1_0_1_36,2022-05-02T11:17:34.468Z,,,,,,,,,,,,,,,,,53,,,,,,,,,,,,,,312.76300004767836,,response,,,,99,,,,,,,Space,keypress(Space),,,,,,,,"---- -- ----- -- ------ - ------- --- ----------<br>------------- ------ ------ ---- ---- ------- ----- -- ----<br>-------- ------- -- ---------- --- - --- ----- ----- ----<br>---- --- --- ----- --- ---- ---- ------- most, ---- -------<br>--- --- -- ----- -- --- ---- -- --- ---- -- ------ ------<br>--- ----- -- ----",126970.20000004768,126968.70000004768,126639.275,126641.5,126655.937,126987.814,,36,"most,"
screen,html.Screen,2_1_0_1_37,2022-05-02T11:17:34.730Z,,,,,,,,,,,,,,,,,53,,,,,,,,,,,,,,244.28600002384337,,response,,,,99,,,,,,,Space,keypress(Space),,,,,,,,---- -- ----- -- ------ - ------- --- ----------<br>------------- ------ ------ ---- ---- ------- ----- -- ----<br>-------- ------- -- ---------- --- - --- ----- ----- ----<br>---- --- --- ----- --- ---- ---- ------- ----- it's -------<br>--- --- -- ----- -- --- ---- -- --- ---- -- ------ ------<br>--- ----- -- ----,127232.90000009537,127232.10000002384,126971.152,126970.5,126987.814,127236.251,,37,it's
screen,html.Screen,2_1_0_1_38,2022-05-02T11:17:35.026Z,,,,,,,,,,,,,,,,,53,,,,,,,,,,,,,,291.74899999999616,,response,,,,99,,,,,,,Space,keypress(Space),,,,,,,,---- -- ----- -- ------ - ------- --- ----------<br>------------- ------ ------ ---- ---- ------- ----- -- ----<br>-------- ------- -- ---------- --- - --- ----- ----- ----<br>---- --- --- ----- --- ---- ---- ------- ----- ---- whether<br>--- --- -- ----- -- --- ---- -- --- ---- -- ------ ------<br>--- ----- -- ----,127528.70000004768,127528,127219.589,127233.20000004768,127236.251,127534.828,,38,whether
screen,html.Screen,2_1_0_1_39,2022-05-02T11:17:35.348Z,,,,,,,,,,,,,,,,,53,,,,,,,,,,,,,,313.87200004768965,,response,,,,99,,,,,,,Space,keypress(Space),,,,,,,,---- -- ----- -- ------ - ------- --- ----------<br>------------- ------ ------ ---- ---- ------- ----- -- ----<br>-------- ------- -- ---------- --- - --- ----- ----- ----<br>---- --- --- ----- --- ---- ---- ------- ----- ---- -------<br>you --- -- ----- -- --- ---- -- --- ---- -- ------ ------<br>--- ----- -- ----,127850.30000007153,127848.70000004768,127518.166,127528.90000009537,127534.828,127866.664,,39,you
screen,html.Screen,2_1_0_1_40,2022-05-02T11:17:35.626Z,,,,,,,,,,,,,,,,,53,,,,,,,,,,,,,,261.2360000953631,,response,,,,99,,,,,,,Space,keypress(Space),,,,,,,,---- -- ----- -- ------ - ------- --- ----------<br>------------- ------ ------ ---- ---- ------- ----- -- ----<br>-------- ------- -- ---------- --- - --- ----- ----- ----<br>---- --- --- ----- --- ---- ---- ------- ----- ---- -------<br>--- are -- ----- -- --- ---- -- --- ---- -- ------ ------<br>--- ----- -- ----,128128.60000002384,128127.90000009537,127850.002,127850.60000002384,127866.664,128131.83,,40,are
screen,html.Screen,2_1_0_1_41,2022-05-02T11:17:35.890Z,,,,,,,,,,,,,,,,,53,,,,,,,,,,,,,,260.16999999999825,,response,,,,99,,,,,,,Space,keypress(Space),,,,,,,,---- -- ----- -- ------ - ------- --- ----------<br>------------- ------ ------ ---- ---- ------- ----- -- ----<br>-------- ------- -- ---------- --- - --- ----- ----- ----<br>---- --- --- ----- --- ---- ---- ------- ----- ---- -------<br>--- --- as ----- -- --- ---- -- --- ---- -- ------ ------<br>--- ----- -- ----,128392.70000004768,128392,128115.168,128128.80000007153,128131.83,128397.02,,41,as
screen,html.Screen,2_1_0_1_42,2022-05-02T11:17:36.162Z,,,,,,,,,,,,,,,,,53,,,,,,,,,,,,,,267.0800000238378,,response,,,,99,,,,,,,Space,keypress(Space),,,,,,,,---- -- ----- -- ------ - ------- --- ----------<br>------------- ------ ------ ---- ---- ------- ----- -- ----<br>-------- ------- -- ---------- --- - --- ----- ----- ----<br>---- --- --- ----- --- ---- ---- ------- ----- ---- -------<br>--- --- -- close -- --- ---- -- --- ---- -- ------ ------<br>--- ----- -- ----,128664.90000009537,128664.10000002384,128380.358,128392.90000009537,128397.02,128679.003,,42,close
screen,html.Screen,2_1_0_1_43,2022-05-02T11:17:36.411Z,,,,,,,,,,,,,,,,,53,,,,,,,,,,,,,,233.59700002384488,,response,,,,99,,,,,,,Space,keypress(Space),,,,,,,,---- -- ----- -- ------ - ------- --- ----------<br>------------- ------ ------ ---- ---- ------- ----- -- ----<br>-------- ------- -- ---------- --- - --- ----- ----- ----<br>---- --- --- ----- --- ---- ---- ------- ----- ---- -------<br>--- --- -- ----- as --- ---- -- --- ---- -- ------ ------<br>--- ----- -- ----,128913.90000009537,128912.60000002384,128662.341,128665,128679.003,128927.698,,43,as
screen,html.Screen,2_1_0_1_44,2022-05-02T11:17:36.744Z,,,,,,,,,,,,,,,,,53,,,,,,,,,,,,,,312.7020000953635,,response,,,,99,,,,,,,Space,keypress(Space),,,,,,,,---- -- ----- -- ------ - ------- --- ----------<br>------------- ------ ------ ---- ---- ------- ----- -- ----<br>-------- ------- -- ---------- --- - --- ----- ----- ----<br>---- --- --- ----- --- ---- ---- ------- ----- ---- -------<br>--- --- -- ----- -- you ---- -- --- ---- -- ------ ------<br>--- ----- -- ----,129246.90000009537,129240.40000009537,128911.036,128914.10000002384,128927.698,129259.743,,44,you
screen,html.Screen,2_1_0_1_45,2022-05-02T11:17:37.019Z,,,,,,,,,,,,,,,,,53,,,,,,,,,,,,,,260.85700002383965,,response,,,,99,,,,,,,Space,keypress(Space),,,,,,,,---- -- ----- -- ------ - ------- --- ----------<br>------------- ------ ------ ---- ---- ------- ----- -- ----<br>-------- ------- -- ---------- --- - --- ----- ----- ----<br>---- --- --- ----- --- ---- ---- ------- ----- ---- -------<br>--- --- -- ----- -- --- want -- --- ---- -- ------ ------<br>--- ----- -- ----,129521.90000009537,129520.60000002384,129243.081,129247.60000002384,129259.743,129524.695,,45,want
screen,html.Screen,2_1_0_1_46,2022-05-02T11:17:37.308Z,,,,,,,,,,,,,,,,,53,,,,,,,,,,,,,,283.9050000238349,,response,,,,99,,,,,,,Space,keypress(Space),,,,,,,,---- -- ----- -- ------ - ------- --- ----------<br>------------- ------ ------ ---- ---- ------- ----- -- ----<br>-------- ------- -- ---------- --- - --- ----- ----- ----<br>---- --- --- ----- --- ---- ---- ------- ----- ---- -------<br>--- --- -- ----- -- --- ---- to --- ---- -- ------ ------<br>--- ----- -- ----,129810.5,129808.60000002384,129508.033,129522.20000004768,129524.695,129823.359,,46,to
screen,html.Screen,2_1_0_1_47,2022-05-02T11:17:37.604Z,,,,,,,,,,,,,,,,,53,,,,,,,,,,,,,,281.341000047687,,response,,,,99,,,,,,,Space,keypress(Space),,,,,,,,"---- -- ----- -- ------ - ------- --- ----------<br>------------- ------ ------ ---- ---- ------- ----- -- ----<br>-------- ------- -- ---------- --- - --- ----- ----- ----<br>---- --- --- ----- --- ---- ---- ------- ----- ---- -------<br>--- --- -- ----- -- --- ---- -- be, ---- -- ------ ------<br>--- ----- -- ----",130106.20000004768,130104.70000004768,129806.697,129811,129823.359,130122.058,,47,"be,"
screen,html.Screen,2_1_0_1_48,2022-05-02T11:17:37.899Z,,,,,,,,,,,,,,,,,53,,,,,,,,,,,,,,278.24200007152103,,response,,,,99,,,,,,,Space,keypress(Space),,,,,,,,---- -- ----- -- ------ - ------- --- ----------<br>------------- ------ ------ ---- ---- ------- ----- -- ----<br>-------- ------- -- ---------- --- - --- ----- ----- ----<br>---- --- --- ----- --- ---- ---- ------- ----- ---- -------<br>--- --- -- ----- -- --- ---- -- --- even -- ------ ------<br>--- ----- -- ----,130401.5,130400.30000007153,130105.396,130106.80000007153,130122.058,130403.827,,48,even
screen,html.Screen,2_1_0_1_49,2022-05-02T11:17:38.156Z,,,,,,,,,,,,,,,,,53,,,,,,,,,,,,,,252.87300004767894,,response,,,,99,,,,,,,Space,keypress(Space),,,,,,,,---- -- ----- -- ------ - ------- --- ----------<br>------------- ------ ------ ---- ---- ------- ----- -- ----<br>-------- ------- -- ---------- --- - --- ----- ----- ----<br>---- --- --- ----- --- ---- ---- ------- ----- ---- -------<br>--- --- -- ----- -- --- ---- -- --- ---- if ------ ------<br>--- ----- -- ----,130658.90000009537,130656.70000004768,130387.165,130401.80000007153,130403.827,130668.993,,49,if
screen,html.Screen,2_1_0_1_50,2022-05-02T11:17:38.484Z,,,,,,,,,,,,,,,,,53,,,,,,,,,,,,,,315.60700002383965,,response,,,,99,,,,,,,Space,keypress(Space),,,,,,,,---- -- ----- -- ------ - ------- --- ----------<br>------------- ------ ------ ---- ---- ------- ----- -- ----<br>-------- ------- -- ---------- --- - --- ----- ----- ----<br>---- --- --- ----- --- ---- ---- ------- ----- ---- -------<br>--- --- -- ----- -- --- ---- -- --- ---- -- that's ------<br>--- ----- -- ----,130986.10000002384,130984.60000002384,130652.331,130659.20000004768,130668.993,131001.041,,50,that's
screen,html.Screen,2_1_0_1_51,2022-05-02T11:17:38.778Z,,,,,,,,,,,,,,,,,53,,,,,,,,,,,,,,278.95900000000256,,response,,,,99,,,,,,,Space,keypress(Space),,,,,,,,---- -- ----- -- ------ - ------- --- ----------<br>------------- ------ ------ ---- ---- ------- ----- -- ----<br>-------- ------- -- ---------- --- - --- ----- ----- ----<br>---- --- --- ----- --- ---- ---- ------- ----- ---- -------<br>--- --- -- ----- -- --- ---- -- --- ---- -- ------ really<br>--- ----- -- ----,131280.60000002384,131280,130984.379,130986.5,131001.041,131282.761,,51,really
screen,html.Screen,2_1_0_1_52,2022-05-02T11:17:39.140Z,,,,,,,,,,,,,,,,,53,,,,,,,,,,,,,,357.83900002384325,,response,,,,99,,,,,,,Space,keypress(Space),,,,,,,,---- -- ----- -- ------ - ------- --- ----------<br>------------- ------ ------ ---- ---- ------- ----- -- ----<br>-------- ------- -- ---------- --- - --- ----- ----- ----<br>---- --- --- ----- --- ---- ---- ------- ----- ---- -------<br>--- --- -- ----- -- --- ---- -- --- ---- -- ------ ------<br>not ----- -- ----,131642.10000002384,131640.60000002384,131266.099,131280.70000004768,131282.761,131647.837,,52,not
screen,html.Screen,2_1_0_1_53,2022-05-02T11:17:39.418Z,,,,,,,,,,,,,,,,,53,,,,,,,,,,,,,,272.0630000953679,,response,,,,99,,,,,,,Space,keypress(Space),,,,,,,,---- -- ----- -- ------ - ------- --- ----------<br>------------- ------ ------ ---- ---- ------- ----- -- ----<br>-------- ------- -- ---------- --- - --- ----- ----- ----<br>---- --- --- ----- --- ---- ---- ------- ----- ---- -------<br>--- --- -- ----- -- --- ---- -- --- ---- -- ------ ------<br>--- close -- ----,131920.70000004768,131919.90000009537,131631.175,131642.5,131647.837,131929.433,,53,close
screen,html.Screen,2_1_0_1_54,2022-05-02T11:17:39.860Z,,,,,,,,,,,,,,,,,53,,,,,,,,,,,,,,431.2670000476937,,response,,,,99,,,,,,,Space,keypress(Space),,,,,,,,---- -- ----- -- ------ - ------- --- ----------<br>------------- ------ ------ ---- ---- ------- ----- -- ----<br>-------- ------- -- ---------- --- - --- ----- ----- ----<br>---- --- --- ----- --- ---- ---- ------- ----- ---- -------<br>--- --- -- ----- -- --- ---- -- --- ---- -- ------ ------<br>--- ----- at ----,132362.20000004768,132360.70000004768,131912.771,131920.80000007153,131929.433,132377.981,,54,at
screen,html.Screen,2_1_0_1_55,2022-05-02T11:17:40.427Z,,,,,,,,,,,,,,,,,53,,,,,,,,,,,,,,550.6190000238421,,response,,,,99,,,,,,,Space,keypress(Space),,,,,,,,---- -- ----- -- ------ - ------- --- ----------<br>------------- ------ ------ ---- ---- ------- ----- -- ----<br>-------- ------- -- ---------- --- - --- ----- ----- ----<br>---- --- --- ----- --- ---- ---- ------- ----- ---- -------<br>--- --- -- ----- -- --- ---- -- --- ---- -- ------ ------<br>--- ----- -- all.,132929.90000009537,132928.60000002384,132361.319,132362.40000009537,132377.981,132942.454,,55,all.
Item 99,flow.Loop,2_1_0_1,2022-05-02T11:17:40.428Z,,,,,,,,,,,,,,,,,,,,,,,,,,,,,,,18872.609000023847,,completion,,,,,E,,,,,,,,,,,silence,,,,,132930.30000007153,132928.60000002384,114022.667,114025.70000004768,114055.991,132942.454,,,
Question 1,html.Screen,2_1_0_2,2022-05-02T11:17:44.219Z,,,,,,,,,,,,,,,,,,,,,,,,,,,,true,FALSE,,3777.646000023844,,response,,,,99,E,,,,,,FALSE,click #choice-2,,,,silence,,,,,136721.10000002384,136720.10000002384,132925.792,132930.70000004768,132942.454,136724.453,,,
Question 2,html.Screen,2_1_0_3,2022-05-02T11:17:48.618Z,,,,,,,,,,,,,,,,,,,,,,,,,,,,true,TRUE,,4395.647000023833,,response,,,,99,E,,,,,,TRUE,click #choice-1,,,,silence,,,,,141121.10000002384,141120.10000002384,136707.791,136721.40000009537,136724.453,141133.898,,,
Item 99,flow.Sequence,2_1_0,2022-05-02T11:17:48.619Z,,,,,,,,,,,,,,,,,,,,,,,,,,,,,,,37079.09100002384,,completion,,,,,,,,,,,,,,,,,,,,,141121.20000004768,141120.10000002384,104024.347,104026.80000007153,104041.009,141133.898,,,
Holding screen,html.Screen,2_1_1_0,2022-05-02T11:17:58.619Z,,,,,,,,,,,,,,,,,,,,,,,,,,,,,,,10002.697000000015,,timeout,,,,,,,,,,,,,,,,,,,,,151121.60000002384,151119.933,141117.236,141121.30000007153,141133.898,151136.595,,,
screen,html.Screen,2_1_1_1_0,2022-05-02T11:17:59.356Z,,,,,,,,,,,,,,,,,54,,,,,,,,,,,,,,720.8050000953663,,response,,,,100,,,,,,,Space,keypress(Space),,,,,,,,At --- ---- --- ------ ----- ------- ---- -- --- ------- --<br>------- ---------- ------ -- ----- -- ----- -- ---- ------<br>--- ----- --- --- ------ -------- ----- --- ------ ----- --<br>----- ----- ---------- --- --- ------ ------ ---- -- ------<br>------- --- ------ ----- --- ---- ------- -- ---- --- --<br>------- ------,151858.80000007153,151857.40000009537,151119.933,151121.90000009537,151136.595,151864.838,,0,At
screen,html.Screen,2_1_1_1_1,2022-05-02T11:17:59.692Z,,,,,,,,,,,,,,,,,54,,,,,,,,,,,,,,327.5620000953786,,response,,,,100,,,,,,,Space,keypress(Space),,,,,,,,-- the ---- --- ------ ----- ------- ---- -- --- ------- --<br>------- ---------- ------ -- ----- -- ----- -- ---- ------<br>--- ----- --- --- ------ -------- ----- --- ------ ----- --<br>----- ----- ---------- --- --- ------ ------ ---- -- ------<br>------- --- ------ ----- --- ---- ------- -- ---- --- --<br>------- ------,152194.20000004768,152192.40000009537,151848.176,151859,151864.838,152211.251,,1,the
screen,html.Screen,2_1_1_1_2,2022-05-02T11:17:59.939Z,,,,,,,,,,,,,,,,,54,,,,,,,,,,,,,,229.2490000000107,,response,,,,100,,,,,,,Space,keypress(Space),,,,,,,,-- --- time --- ------ ----- ------- ---- -- --- ------- --<br>------- ---------- ------ -- ----- -- ----- -- ---- ------<br>--- ----- --- --- ------ -------- ----- --- ------ ----- --<br>----- ----- ---------- --- --- ------ ------ ---- -- ------<br>------- --- ------ ----- --- ---- ------- -- ---- --- --<br>------- ------,152441.90000009537,152440.5,152194.589,152194.5,152211.251,152459.64,,2,time
screen,html.Screen,2_1_1_1_3,2022-05-02T11:18:00.178Z,,,,,,,,,,,,,,,,,54,,,,,,,,,,,,,,220.4600000238279,,response,,,,100,,,,,,,Space,keypress(Space),,,,,,,,-- --- ---- the ------ ----- ------- ---- -- --- ------- --<br>------- ---------- ------ -- ----- -- ----- -- ---- ------<br>--- ----- --- --- ------ -------- ----- --- ------ ----- --<br>----- ----- ---------- --- --- ------ ------ ---- -- ------<br>------- --- ------ ----- --- ---- ------- -- ---- --- --<br>------- ------,152680.80000007153,152680.10000002384,152442.978,152442.30000007153,152459.64,152691.716,,3,the
screen,html.Screen,2_1_1_1_4,2022-05-02T11:18:00.499Z,,,,,,,,,,,,,,,,,54,,,,,,,,,,,,,,308.88400002385606,,response,,,,100,,,,,,,Space,keypress(Space),,,,,,,,-- --- ---- --- French ----- ------- ---- -- --- ------- --<br>------- ---------- ------ -- ----- -- ----- -- ---- ------<br>--- ----- --- --- ------ -------- ----- --- ------ ----- --<br>----- ----- ---------- --- --- ------ ------ ---- -- ------<br>------- --- ------ ----- --- ---- ------- -- ---- --- --<br>------- ------,153001.80000007153,153000.60000002384,152675.054,152681,152691.716,153007.245,,4,French
screen,html.Screen,2_1_1_1_5,2022-05-02T11:18:00.778Z,,,,,,,,,,,,,,,,,54,,,,,,,,,,,,,,272.75500000000466,,response,,,,100,,,,,,,Space,keypress(Space),,,,,,,,-- --- ---- --- ------ crown ------- ---- -- --- ------- --<br>------- ---------- ------ -- ----- -- ----- -- ---- ------<br>--- ----- --- --- ------ -------- ----- --- ------ ----- --<br>----- ----- ---------- --- --- ------ ------ ---- -- ------<br>------- --- ------ ----- --- ---- ------- -- ---- --- --<br>------- ------,153280.80000007153,153280,152990.583,153002.30000007153,153007.245,153288.935,,5,crown
screen,html.Screen,2_1_1_1_6,2022-05-02T11:18:01.053Z,,,,,,,,,,,,,,,,,54,,,,,,,,,,,,,,263.5650000000023,,response,,,,100,,,,,,,Space,keypress(Space),,,,,,,,-- --- ---- --- ------ ----- secured ---- -- --- ------- --<br>------- ---------- ------ -- ----- -- ----- -- ---- ------<br>--- ----- --- --- ------ -------- ----- --- ------ ----- --<br>----- ----- ---------- --- --- ------ ------ ---- -- ------<br>------- --- ------ ----- --- ---- ------- -- ---- --- --<br>------- ------,153555.40000009537,153552.5,153272.273,153281,153288.935,153570.847,,6,secured
screen,html.Screen,2_1_1_1_7,2022-05-02T11:18:01.723Z,,,,,,,,,,,,,,,,,54,,,,,,,,,,,,,,653.1529999999912,,response,,,,100,,,,,,,Space,keypress(Space),,,,,,,,-- --- ---- --- ------ ----- ------- much -- --- ------- --<br>------- ---------- ------ -- ----- -- ----- -- ---- ------<br>--- ----- --- --- ------ -------- ----- --- ------ ----- --<br>----- ----- ---------- --- --- ------ ------ ---- -- ------<br>------- --- ------ ----- --- ---- ------- -- ---- --- --<br>------- ------,154225.40000009537,154224,153554.185,153555.80000007153,153570.847,154236.086,,7,much
screen,html.Screen,2_1_1_1_8,2022-05-02T11:18:02.122Z,,,,,,,,,,,,,,,,,54,,,,,,,,,,,,,,387.8140000953572,,response,,,,100,,,,,,,Space,keypress(Space),,,,,,,,-- --- ---- --- ------ ----- ------- ---- of --- ------- --<br>------- ---------- ------ -- ----- -- ----- -- ---- ------<br>--- ----- --- --- ------ -------- ----- --- ------ ----- --<br>----- ----- ---------- --- --- ------ ------ ---- -- ------<br>------- --- ------ ----- --- ---- ------- -- ---- --- --<br>------- ------,154624.5,154623.90000009537,154219.424,154225.60000002384,154236.086,154632.659,,8,of
screen,html.Screen,2_1_1_1_9,2022-05-02T11:18:02.531Z,,,,,,,,,,,,,,,,,54,,,,,,,,,,,,,,399.74100009535323,,response,,,,100,,,,,,,Space,keypress(Space),,,,,,,,-- --- ---- --- ------ ----- ------- ---- -- its ------- --<br>------- ---------- ------ -- ----- -- ----- -- ---- ------<br>--- ----- --- --- ------ -------- ----- --- ------ ----- --<br>----- ----- ---------- --- --- ------ ------ ---- -- ------<br>------- --- ------ ----- --- ---- ------- -- ---- --- --<br>------- ------,155034,155032.40000009537,154615.997,154624.70000004768,154632.659,155047.442,,9,its
screen,html.Screen,2_1_1_1_10,2022-05-02T11:18:02.842Z,,,,,,,,,,,,,,,,,54,,,,,,,,,,,,,,296.55799999999,,response,,,,100,,,,,,,Space,keypress(Space),,,,,,,,-- --- ---- --- ------ ----- ------- ---- -- --- revenue --<br>------- ---------- ------ -- ----- -- ----- -- ---- ------<br>--- ----- --- --- ------ -------- ----- --- ------ ----- --<br>----- ----- ---------- --- --- ------ ------ ---- -- ------<br>------- --- ------ ----- --- ---- ------- -- ---- --- --<br>------- ------,155344.70000004768,155344,155030.78,155034.20000004768,155047.442,155345.397,,10,revenue
screen,html.Screen,2_1_1_1_11,2022-05-02T11:18:03.203Z,,,,,,,,,,,,,,,,,54,,,,,,,,,,,,,,359.1030000000028,,response,,,,100,,,,,,,Space,keypress(Space),,,,,,,,-- --- ---- --- ------ ----- ------- ---- -- --- ------- by<br>------- ---------- ------ -- ----- -- ----- -- ---- ------<br>--- ----- --- --- ------ -------- ----- --- ------ ----- --<br>----- ----- ---------- --- --- ------ ------ ---- -- ------<br>------- --- ------ ----- --- ---- ------- -- ---- --- --<br>------- ------,155705.80000007153,155704.5,155328.735,155344.80000007153,155345.397,155710.501,,11,by
screen,html.Screen,2_1_1_1_12,2022-05-02T11:18:03.635Z,,,,,,,,,,,,,,,,,54,,,,,,,,,,,,,,425.9990000000107,,response,,,,100,,,,,,,Space,keypress(Space),,,,,,,,-- --- ---- --- ------ ----- ------- ---- -- --- ------- --<br>issuing ---------- ------ -- ----- -- ----- -- ---- ------<br>--- ----- --- --- ------ -------- ----- --- ------ ----- --<br>----- ----- ---------- --- --- ------ ------ ---- -- ------<br>------- --- ------ ----- --- ---- ------- -- ---- --- --<br>------- ------,156137.80000007153,156136.5,155693.839,155706.10000002384,155710.501,156141.956,,12,issuing
screen,html.Screen,2_1_1_1_13,2022-05-02T11:18:03.914Z,,,,,,,,,,,,,,,,,54,,,,,,,,,,,,,,274.0439999999944,,response,,,,100,,,,,,,Space,keypress(Space),,,,,,,,-- --- ---- --- ------ ----- ------- ---- -- --- ------- --<br>------- government ------ -- ----- -- ----- -- ---- ------<br>--- ----- --- --- ------ -------- ----- --- ------ ----- --<br>----- ----- ---------- --- --- ------ ------ ---- -- ------<br>------- --- ------ ----- --- ---- ------- -- ---- --- --<br>------- ------,156416.70000004768,156416,156125.294,156138.20000004768,156141.956,156423.191,,13,government
screen,html.Screen,2_1_1_1_14,2022-05-02T11:18:04.258Z,,,,,,,,,,,,,,,,,54,,,,,,,,,,,,,,336.7090000953758,,response,,,,100,,,,,,,Space,keypress(Space),,,,,,,,-- --- ---- --- ------ ----- ------- ---- -- --- ------- --<br>------- ---------- bonds. -- ----- -- ----- -- ---- ------<br>--- ----- --- --- ------ -------- ----- --- ------ ----- --<br>----- ----- ---------- --- --- ------ ------ ---- -- ------<br>------- --- ------ ----- --- ---- ------- -- ---- --- --<br>------- ------,156760.5,156759.90000009537,156406.529,156416.80000007153,156423.191,156771.774,,14,bonds.
screen,html.Screen,2_1_1_1_15,2022-05-02T11:18:04.603Z,,,,,,,,,,,,,,,,,54,,,,,,,,,,,,,,332.62600009536254,,response,,,,100,,,,,,,Space,keypress(Space),,,,,,,,-- --- ---- --- ------ ----- ------- ---- -- --- ------- --<br>------- ---------- ------ In ----- -- ----- -- ---- ------<br>--- ----- --- --- ------ -------- ----- --- ------ ----- --<br>----- ----- ---------- --- --- ------ ------ ---- -- ------<br>------- --- ------ ----- --- ---- ------- -- ---- --- --<br>------- ------,157105.80000007153,157104.40000009537,156755.112,156760.60000002384,156771.774,157120.175,,15,In
screen,html.Screen,2_1_1_1_16,2022-05-02T11:18:04.978Z,,,,,,,,,,,,,,,,,54,,,,,,,,,,,,,,359.82500000001164,,response,,,,100,,,,,,,Space,keypress(Space),,,,,,,,"-- --- ---- --- ------ ----- ------- ---- -- --- ------- --<br>------- ---------- ------ -- 1727, -- ----- -- ---- ------<br>--- ----- --- --- ------ -------- ----- --- ------ ----- --<br>----- ----- ---------- --- --- ------ ------ ---- -- ------<br>------- --- ------ ----- --- ---- ------- -- ---- --- --<br>------- ------",157480.60000002384,157480,157103.513,157106,157120.175,157485.008,,16,"1727,"
screen,html.Screen,2_1_1_1_17,2022-05-02T11:18:05.387Z,,,,,,,,,,,,,,,,,54,,,,,,,,,,,,,,403.5920000238402,,response,,,,100,,,,,,,Space,keypress(Space),,,,,,,,-- --- ---- --- ------ ----- ------- ---- -- --- ------- --<br>------- ---------- ------ -- ----- in ----- -- ---- ------<br>--- ----- --- --- ------ -------- ----- --- ------ ----- --<br>----- ----- ---------- --- --- ------ ------ ---- -- ------<br>------- --- ------ ----- --- ---- ------- -- ---- --- --<br>------- ------,157889.90000009537,157888.60000002384,157468.346,157480.80000007153,157485.008,157899.696,,17,in
screen,html.Screen,2_1_1_1_18,2022-05-02T11:18:05.786Z,,,,,,,,,,,,,,,,,54,,,,,,,,,,,,,,388.3040000000037,,response,,,,100,,,,,,,Space,keypress(Space),,,,,,,,-- --- ---- --- ------ ----- ------- ---- -- --- ------- --<br>------- ---------- ------ -- ----- -- order -- ---- ------<br>--- ----- --- --- ------ -------- ----- --- ------ ----- --<br>----- ----- ---------- --- --- ------ ------ ---- -- ------<br>------- --- ------ ----- --- ---- ------- -- ---- --- --<br>------- ------,158288.70000004768,158288,157883.034,157890.20000004768,157899.696,158297.674,,18,order
screen,html.Screen,2_1_1_1_19,2022-05-02T11:18:06.228Z,,,,,,,,,,,,,,,,,54,,,,,,,,,,,,,,431.02600004768465,,response,,,,100,,,,,,,Space,keypress(Space),,,,,,,,-- --- ---- --- ------ ----- ------- ---- -- --- ------- --<br>------- ---------- ------ -- ----- -- ----- to ---- ------<br>--- ----- --- --- ------ -------- ----- --- ------ ----- --<br>----- ----- ---------- --- --- ------ ------ ---- -- ------<br>------- --- ------ ----- --- ---- ------- -- ---- --- --<br>------- ------,158730.20000004768,158728.70000004768,158281.012,158288.80000007153,158297.674,158745.706,,19,to
screen,html.Screen,2_1_1_1_20,2022-05-02T11:18:06.692Z,,,,,,,,,,,,,,,,,54,,,,,,,,,,,,,,446.7939999999944,,response,,,,100,,,,,,,Space,keypress(Space),,,,,,,,-- --- ---- --- ------ ----- ------- ---- -- --- ------- --<br>------- ---------- ------ -- ----- -- ----- -- save ------<br>--- ----- --- --- ------ -------- ----- --- ------ ----- --<br>----- ----- ---------- --- --- ------ ------ ---- -- ------<br>------- --- ------ ----- --- ---- ------- -- ---- --- --<br>------- ------,159194.10000002384,159192.5,158729.044,158730.60000002384,158745.706,159210.149,,20,save
screen,html.Screen,2_1_1_1_21,2022-05-02T11:18:07.090Z,,,,,,,,,,,,,,,,,54,,,,,,,,,,,,,,381.8509999999951,,response,,,,100,,,,,,,Space,keypress(Space),,,,,,,,"-- --- ---- --- ------ ----- ------- ---- -- --- ------- --<br>------- ---------- ------ -- ----- -- ----- -- ---- money,<br>--- ----- --- --- ------ -------- ----- --- ------ ----- --<br>----- ----- ---------- --- --- ------ ------ ---- -- ------<br>------- --- ------ ----- --- ---- ------- -- ---- --- --<br>------- ------",159592.70000004768,159592,159193.487,159194.5,159210.149,159607.768,,21,"money,"
screen,html.Screen,2_1_1_1_22,2022-05-02T11:18:07.580Z,,,,,,,,,,,,,,,,,54,,,,,,,,,,,,,,472.73199999998906,,response,,,,100,,,,,,,Space,keypress(Space),,,,,,,,-- --- ---- --- ------ ----- ------- ---- -- --- ------- --<br>------- ---------- ------ -- ----- -- ----- -- ---- ------<br>the ----- --- --- ------ -------- ----- --- ------ ----- --<br>----- ----- ---------- --- --- ------ ------ ---- -- ------<br>------- --- ------ ----- --- ---- ------- -- ---- --- --<br>------- ------,160082.30000007153,160080.5,159591.106,159592.80000007153,159607.768,160089.128,,22,the
screen,html.Screen,2_1_1_1_23,2022-05-02T11:18:07.930Z,,,,,,,,,,,,,,,,,54,,,,,,,,,,,,,,342.6720000715286,,response,,,,100,,,,,,,Space,keypress(Space),,,,,,,,-- --- ---- --- ------ ----- ------- ---- -- --- ------- --<br>------- ---------- ------ -- ----- -- ----- -- ---- ------<br>--- state --- --- ------ -------- ----- --- ------ ----- --<br>----- ----- ---------- --- --- ------ ------ ---- -- ------<br>------- --- ------ ----- --- ---- ------- -- ---- --- --<br>------- ------,160432.5,160431.80000007153,160072.466,160082.80000007153,160089.128,160436.732,,23,state
screen,html.Screen,2_1_1_1_24,2022-05-02T11:18:08.275Z,,,,,,,,,,,,,,,,,54,,,,,,,,,,,,,,339.8680000238528,,response,,,,100,,,,,,,Space,keypress(Space),,,,,,,,-- --- ---- --- ------ ----- ------- ---- -- --- ------- --<br>------- ---------- ------ -- ----- -- ----- -- ---- ------<br>--- ----- cut --- ------ -------- ----- --- ------ ----- --<br>----- ----- ---------- --- --- ------ ------ ---- -- ------<br>------- --- ------ ----- --- ---- ------- -- ---- --- --<br>------- ------,160777.90000009537,160776.60000002384,160420.07,160432.70000004768,160436.732,160784.946,,24,cut
screen,html.Screen,2_1_1_1_25,2022-05-02T11:18:08.595Z,,,,,,,,,,,,,,,,,54,,,,,,,,,,,,,,311.6540000238456,,response,,,,100,,,,,,,Space,keypress(Space),,,,,,,,-- --- ---- --- ------ ----- ------- ---- -- --- ------- --<br>------- ---------- ------ -- ----- -- ----- -- ---- ------<br>--- ----- --- the ------ -------- ----- --- ------ ----- --<br>----- ----- ---------- --- --- ------ ------ ---- -- ------<br>------- --- ------ ----- --- ---- ------- -- ---- --- --<br>------- ------,161097.80000007153,161096.60000002384,160768.284,160778.10000002384,160784.946,161099.881,,25,the
screen,html.Screen,2_1_1_1_26,2022-05-02T11:18:08.980Z,,,,,,,,,,,,,,,,,54,,,,,,,,,,,,,,380.7190000238479,,response,,,,100,,,,,,,Space,keypress(Space),,,,,,,,-- --- ---- --- ------ ----- ------- ---- -- --- ------- --<br>------- ---------- ------ -- ----- -- ----- -- ---- ------<br>--- ----- --- --- bonds' -------- ----- --- ------ ----- --<br>----- ----- ---------- --- --- ------ ------ ---- -- ------<br>------- --- ------ ----- --- ---- ------- -- ---- --- --<br>------- ------,161482.30000007153,161480.60000002384,161083.219,161098.10000002384,161099.881,161498.289,,26,bonds'
screen,html.Screen,2_1_1_1_27,2022-05-02T11:18:09.524Z,,,,,,,,,,,,,,,,,54,,,,,,,,,,,,,,527.0110000715358,,response,,,,100,,,,,,,Space,keypress(Space),,,,,,,,-- --- ---- --- ------ ----- ------- ---- -- --- ------- --<br>------- ---------- ------ -- ----- -- ----- -- ---- ------<br>--- ----- --- --- ------ interest ----- --- ------ ----- --<br>----- ----- ---------- --- --- ------ ------ ---- -- ------<br>------- --- ------ ----- --- ---- ------- -- ---- --- --<br>------- ------,162026.70000004768,162025.30000007153,161481.627,161482.60000002384,161498.289,162029.593,,27,interest
screen,html.Screen,2_1_1_1_28,2022-05-02T11:18:10.171Z,,,,,,,,,,,,,,,,,54,,,,,,,,,,,,,,642.9070000000065,,response,,,,100,,,,,,,Space,keypress(Space),,,,,,,,-- --- ---- --- ------ ----- ------- ---- -- --- ------- --<br>------- ---------- ------ -- ----- -- ----- -- ---- ------<br>--- ----- --- --- ------ -------- rate. --- ------ ----- --<br>----- ----- ---------- --- --- ------ ------ ---- -- ------<br>------- --- ------ ----- --- ---- ------- -- ---- --- --<br>------- ------,162673.90000009537,162672.5,162012.931,162028.30000007153,162029.593,162676.858,,28,rate.
screen,html.Screen,2_1_1_1_29,2022-05-02T11:18:10.666Z,,,,,,,,,,,,,,,,,54,,,,,,,,,,,,,,491.04200009536,,response,,,,100,,,,,,,Space,keypress(Space),,,,,,,,-- --- ---- --- ------ ----- ------- ---- -- --- ------- --<br>------- ---------- ------ -- ----- -- ----- -- ---- ------<br>--- ----- --- --- ------ -------- ----- The ------ ----- --<br>----- ----- ---------- --- --- ------ ------ ---- -- ------<br>------- --- ------ ----- --- ---- ------- -- ---- --- --<br>------- ------,163168.60000002384,163167.90000009537,162660.196,162674.10000002384,162676.858,163173.649,,29,The
screen,html.Screen,2_1_1_1_30,2022-05-02T11:18:11.411Z,,,,,,,,,,,,,,,,,54,,,,,,,,,,,,,,738.8509999999951,,response,,,,100,,,,,,,Space,keypress(Space),,,,,,,,-- --- ---- --- ------ ----- ------- ---- -- --- ------- --<br>------- ---------- ------ -- ----- -- ----- -- ---- ------<br>--- ----- --- --- ------ -------- ----- --- market ----- --<br>----- ----- ---------- --- --- ------ ------ ---- -- ------<br>------- --- ------ ----- --- ---- ------- -- ---- --- --<br>------- ------,163913.80000007153,163912.5,163156.987,163168.60000002384,163173.649,163921.114,,30,market
screen,html.Screen,2_1_1_1_31,2022-05-02T11:18:12.354Z,,,,,,,,,,,,,,,,,54,,,,,,,,,,,,,,934.8859999999986,,response,,,,100,,,,,,,Space,keypress(Space),,,,,,,,-- --- ---- --- ------ ----- ------- ---- -- --- ------- --<br>------- ---------- ------ -- ----- -- ----- -- ---- ------<br>--- ----- --- --- ------ -------- ----- --- ------ value --<br>----- ----- ---------- --- --- ------ ------ ---- -- ------<br>------- --- ------ ----- --- ---- ------- -- ---- --- --<br>------- ------,164856.80000007153,164856,163904.452,163914,163921.114,164867.308,,31,value
screen,html.Screen,2_1_1_1_32,2022-05-02T11:18:12.719Z,,,,,,,,,,,,,,,,,54,,,,,,,,,,,,,,350.69200000001,,response,,,,100,,,,,,,Space,keypress(Space),,,,,,,,-- --- ---- --- ------ ----- ------- ---- -- --- ------- --<br>------- ---------- ------ -- ----- -- ----- -- ---- ------<br>--- ----- --- --- ------ -------- ----- --- ------ ----- of<br>----- ----- ---------- --- --- ------ ------ ---- -- ------<br>------- --- ------ ----- --- ---- ------- -- ---- --- --<br>------- ------,165221.60000002384,165218,164850.646,164856.90000009537,164867.308,165229.449,,32,of
screen,html.Screen,2_1_1_1_33,2022-05-02T11:18:12.924Z,,,,,,,,,,,,,,,,,54,,,,,,,,,,,,,,194.95100009537418,,response,,,,100,,,,,,,Space,keypress(Space),,,,,,,,-- --- ---- --- ------ ----- ------- ---- -- --- ------- --<br>------- ---------- ------ -- ----- -- ----- -- ---- ------<br>--- ----- --- --- ------ -------- ----- --- ------ ----- --<br>these ----- ---------- --- --- ------ ------ ---- -- ------<br>------- --- ------ ----- --- ---- ------- -- ---- --- --<br>------- ------,165426.30000007153,165424.40000009537,165212.787,165222,165229.449,165444.207,,33,these
screen,html.Screen,2_1_1_1_34,2022-05-02T11:18:13.210Z,,,,,,,,,,,,,,,,,54,,,,,,,,,,,,,,267.69300009537255,,response,,,,100,,,,,,,Space,keypress(Space),,,,,,,,-- --- ---- --- ------ ----- ------- ---- -- --- ------- --<br>------- ---------- ------ -- ----- -- ----- -- ---- ------<br>--- ----- --- --- ------ -------- ----- --- ------ ----- --<br>----- bonds ---------- --- --- ------ ------ ---- -- ------<br>------- --- ------ ----- --- ---- ------- -- ---- --- --<br>------- ------,165713,165711.90000009537,165427.545,165426.70000004768,165444.207,165726.562,,34,bonds
screen,html.Screen,2_1_1_1_35,2022-05-02T11:18:13.602Z,,,,,,,,,,,,,,,,,54,,,,,,,,,,,,,,377.2380000715202,,response,,,,100,,,,,,,Space,keypress(Space),,,,,,,,"-- --- ---- --- ------ ----- ------- ---- -- --- ------- --<br>------- ---------- ------ -- ----- -- ----- -- ---- ------<br>--- ----- --- --- ------ -------- ----- --- ------ ----- --<br>----- ----- plummeted, --- --- ------ ------ ---- -- ------<br>------- --- ------ ----- --- ---- ------- -- ---- --- --<br>------- ------",166104.70000004768,166103.80000007153,165709.9,165713.20000004768,165726.562,166108.44,,35,"plummeted,"
screen,html.Screen,2_1_1_1_36,2022-05-02T11:18:14.098Z,,,,,,,,,,,,,,,,,54,,,,,,,,,,,,,,491.4600000953651,,response,,,,100,,,,,,,Space,keypress(Space),,,,,,,,-- --- ---- --- ------ ----- ------- ---- -- --- ------- --<br>------- ---------- ------ -- ----- -- ----- -- ---- ------<br>--- ----- --- --- ------ -------- ----- --- ------ ----- --<br>----- ----- ---------- and --- ------ ------ ---- -- ------<br>------- --- ------ ----- --- ---- ------- -- ---- --- --<br>------- ------,166600.5,166599.90000009537,166091.778,166104.90000009537,166108.44,166606.381,,36,and
screen,html.Screen,2_1_1_1_37,2022-05-02T11:18:14.410Z,,,,,,,,,,,,,,,,,54,,,,,,,,,,,,,,305.4190000715316,,response,,,,100,,,,,,,Space,keypress(Space),,,,,,,,-- --- ---- --- ------ ----- ------- ---- -- --- ------- --<br>------- ---------- ------ -- ----- -- ----- -- ---- ------<br>--- ----- --- --- ------ -------- ----- --- ------ ----- --<br>----- ----- ---------- --- the ------ ------ ---- -- ------<br>------- --- ------ ----- --- ---- ------- -- ---- --- --<br>------- ------,166912.5,166911.80000007153,166589.719,166600.80000007153,166606.381,166920.6,,37,the
screen,html.Screen,2_1_1_1_38,2022-05-02T11:18:14.707Z,,,,,,,,,,,,,,,,,54,,,,,,,,,,,,,,287.3000000953616,,response,,,,100,,,,,,,Space,keypress(Space),,,,,,,,-- --- ---- --- ------ ----- ------- ---- -- --- ------- --<br>------- ---------- ------ -- ----- -- ----- -- ---- ------<br>--- ----- --- --- ------ -------- ----- --- ------ ----- --<br>----- ----- ---------- --- --- market ------ ---- -- ------<br>------- --- ------ ----- --- ---- ------- -- ---- --- --<br>------- ------,167209.20000004768,167207.90000009537,166903.938,166912.70000004768,166920.6,167219.096,,38,market
screen,html.Screen,2_1_1_1_39,2022-05-02T11:18:15.074Z,,,,,,,,,,,,,,,,,54,,,,,,,,,,,,,,356.90400000000955,,response,,,,100,,,,,,,Space,keypress(Space),,,,,,,,-- --- ---- --- ------ ----- ------- ---- -- --- ------- --<br>------- ---------- ------ -- ----- -- ----- -- ---- ------<br>--- ----- --- --- ------ -------- ----- --- ------ ----- --<br>----- ----- ---------- --- --- ------ became ---- -- ------<br>------- --- ------ ----- --- ---- ------- -- ---- --- --<br>------- ------,167576.60000002384,167576,167202.434,167209.5,167219.096,167584.166,,39,became
screen,html.Screen,2_1_1_1_40,2022-05-02T11:18:15.411Z,,,,,,,,,,,,,,,,,54,,,,,,,,,,,,,,328.23400009537,,response,,,,100,,,,,,,Space,keypress(Space),,,,,,,,-- --- ---- --- ------ ----- ------- ---- -- --- ------- --<br>------- ---------- ------ -- ----- -- ----- -- ---- ------<br>--- ----- --- --- ------ -------- ----- --- ------ ----- --<br>----- ----- ---------- --- --- ------ ------ wary -- ------<br>------- --- ------ ----- --- ---- ------- -- ---- --- --<br>------- ------,167914,167912.40000009537,167567.504,167576.70000004768,167584.166,167915.784,,40,wary
screen,html.Screen,2_1_1_1_41,2022-05-02T11:18:15.691Z,,,,,,,,,,,,,,,,,54,,,,,,,,,,,,,,276.81600002382766,,response,,,,100,,,,,,,Space,keypress(Space),,,,,,,,-- --- ---- --- ------ ----- ------- ---- -- --- ------- --<br>------- ---------- ------ -- ----- -- ----- -- ---- ------<br>--- ----- --- --- ------ -------- ----- --- ------ ----- --<br>----- ----- ---------- --- --- ------ ------ ---- of ------<br>------- --- ------ ----- --- ---- ------- -- ---- --- --<br>------- ------,168193.90000009537,168192.60000002384,167899.122,167914.40000009537,167915.784,168197.416,,41,of
screen,html.Screen,2_1_1_1_42,2022-05-02T11:18:15.915Z,,,,,,,,,,,,,,,,,54,,,,,,,,,,,,,,219.08400000000256,,response,,,,100,,,,,,,Space,keypress(Space),,,,,,,,-- --- ---- --- ------ ----- ------- ---- -- --- ------- --<br>------- ---------- ------ -- ----- -- ----- -- ---- ------<br>--- ----- --- --- ------ -------- ----- --- ------ ----- --<br>----- ----- ---------- --- --- ------ ------ ---- -- French<br>------- --- ------ ----- --- ---- ------- -- ---- --- --<br>------- ------,168418.10000002384,168416.5,168180.754,168194.40000009537,168197.416,168429.406,,42,French
screen,html.Screen,2_1_1_1_43,2022-05-02T11:18:16.138Z,,,,,,,,,,,,,,,,,54,,,,,,,,,,,,,,210.4940000953793,,response,,,,100,,,,,,,Space,keypress(Space),,,,,,,,-- --- ---- --- ------ ----- ------- ---- -- --- ------- --<br>------- ---------- ------ -- ----- -- ----- -- ---- ------<br>--- ----- --- --- ------ -------- ----- --- ------ ----- --<br>----- ----- ---------- --- --- ------ ------ ---- -- ------<br>credit. --- ------ ----- --- ---- ------- -- ---- --- --<br>------- ------,168640.5,168639.90000009537,168412.744,168418.30000007153,168429.406,168644.955,,43,credit.
screen,html.Screen,2_1_1_1_44,2022-05-02T11:18:16.364Z,,,,,,,,,,,,,,,,,54,,,,,,,,,,,,,,219.5450000000128,,response,,,,100,,,,,,,Space,keypress(Space),,,,,,,,-- --- ---- --- ------ ----- ------- ---- -- --- ------- --<br>------- ---------- ------ -- ----- -- ----- -- ---- ------<br>--- ----- --- --- ------ -------- ----- --- ------ ----- --<br>----- ----- ---------- --- --- ------ ------ ---- -- ------<br>------- The ------ ----- --- ---- ------- -- ---- --- --<br>------- ------,168866.5,168864.5,168628.293,168640.60000002384,168644.955,168877.13,,44,The
screen,html.Screen,2_1_1_1_45,2022-05-02T11:18:16.658Z,,,,,,,,,,,,,,,,,54,,,,,,,,,,,,,,282.6700000715209,,response,,,,100,,,,,,,Space,keypress(Space),,,,,,,,-- --- ---- --- ------ ----- ------- ---- -- --- ------- --<br>------- ---------- ------ -- ----- -- ----- -- ---- ------<br>--- ----- --- --- ------ -------- ----- --- ------ ----- --<br>----- ----- ---------- --- --- ------ ------ ---- -- ------<br>------- --- French ----- --- ---- ------- -- ---- --- --<br>------- ------,169160.40000009537,169159.80000007153,168860.468,168866.80000007153,168877.13,169175.953,,45,French
screen,html.Screen,2_1_1_1_46,2022-05-02T11:18:16.890Z,,,,,,,,,,,,,,,,,54,,,,,,,,,,,,,,215.84700007151696,,response,,,,100,,,,,,,Space,keypress(Space),,,,,,,,-- --- ---- --- ------ ----- ------- ---- -- --- ------- --<br>------- ---------- ------ -- ----- -- ----- -- ---- ------<br>--- ----- --- --- ------ -------- ----- --- ------ ----- --<br>----- ----- ---------- --- --- ------ ------ ---- -- ------<br>------- --- ------ state --- ---- ------- -- ---- --- --<br>------- ------,169392.5,169391.80000007153,169159.291,169160.5,169175.953,169407.814,,46,state
screen,html.Screen,2_1_1_1_47,2022-05-02T11:18:17.155Z,,,,,,,,,,,,,,,,,54,,,,,,,,,,,,,,248.5860000953544,,response,,,,100,,,,,,,Space,keypress(Space),,,,,,,,-- --- ---- --- ------ ----- ------- ---- -- --- ------- --<br>------- ---------- ------ -- ----- -- ----- -- ---- ------<br>--- ----- --- --- ------ -------- ----- --- ------ ----- --<br>----- ----- ---------- --- --- ------ ------ ---- -- ------<br>------- --- ------ ----- was ---- ------- -- ---- --- --<br>------- ------,169657.70000004768,169656.40000009537,169391.152,169392.70000004768,169407.814,169673.351,,47,was
screen,html.Screen,2_1_1_1_48,2022-05-02T11:18:17.444Z,,,,,,,,,,,,,,,,,54,,,,,,,,,,,,,,271.0490000953723,,response,,,,100,,,,,,,Space,keypress(Space),,,,,,,,-- --- ---- --- ------ ----- ------- ---- -- --- ------- --<br>------- ---------- ------ -- ----- -- ----- -- ---- ------<br>--- ----- --- --- ------ -------- ----- --- ------ ----- --<br>----- ----- ---------- --- --- ------ ------ ---- -- ------<br>------- --- ------ ----- --- left ------- -- ---- --- --<br>------- ------,169946.60000002384,169944.40000009537,169656.689,169658,169673.351,169955.52,,48,left
screen,html.Screen,2_1_1_1_49,2022-05-02T11:18:17.722Z,,,,,,,,,,,,,,,,,54,,,,,,,,,,,,,,268.28000007153605,,response,,,,100,,,,,,,Space,keypress(Space),,,,,,,,-- --- ---- --- ------ ----- ------- ---- -- --- ------- --<br>------- ---------- ------ -- ----- -- ----- -- ---- ------<br>--- ----- --- --- ------ -------- ----- --- ------ ----- --<br>----- ----- ---------- --- --- ------ ------ ---- -- ------<br>------- --- ------ ----- --- ---- without -- ---- --- --<br>------- ------,170224.70000004768,170223.80000007153,169938.858,169946.90000009537,169955.52,170237.216,,49,without
screen,html.Screen,2_1_1_1_50,2022-05-02T11:18:17.994Z,,,,,,,,,,,,,,,,,54,,,,,,,,,,,,,,258.4840000476979,,response,,,,100,,,,,,,Space,keypress(Space),,,,,,,,-- --- ---- --- ------ ----- ------- ---- -- --- ------- --<br>------- ---------- ------ -- ----- -- ----- -- ---- ------<br>--- ----- --- --- ------ -------- ----- --- ------ ----- --<br>----- ----- ---------- --- --- ------ ------ ---- -- ------<br>------- --- ------ ----- --- ---- ------- an ---- --- --<br>------- ------,170496.40000009537,170495.70000004768,170220.554,170224.90000009537,170237.216,170502.473,,50,an
screen,html.Screen,2_1_1_1_51,2022-05-02T11:18:18.290Z,,,,,,,,,,,,,,,,,54,,,,,,,,,,,,,,289.32700007152744,,response,,,,100,,,,,,,Space,keypress(Space),,,,,,,,-- --- ---- --- ------ ----- ------- ---- -- --- ------- --<br>------- ---------- ------ -- ----- -- ----- -- ---- ------<br>--- ----- --- --- ------ -------- ----- --- ------ ----- --<br>----- ----- ---------- --- --- ------ ------ ---- -- ------<br>------- --- ------ ----- --- ---- ------- -- easy --- --<br>------- ------,170792.5,170791.80000007153,170485.811,170496.60000002384,170502.473,170801.136,,51,easy
screen,html.Screen,2_1_1_1_52,2022-05-02T11:18:18.539Z,,,,,,,,,,,,,,,,,54,,,,,,,,,,,,,,239.3640000000014,,response,,,,100,,,,,,,Space,keypress(Space),,,,,,,,-- --- ---- --- ------ ----- ------- ---- -- --- ------- --<br>------- ---------- ------ -- ----- -- ----- -- ---- ------<br>--- ----- --- --- ------ -------- ----- --- ------ ----- --<br>----- ----- ---------- --- --- ------ ------ ---- -- ------<br>------- --- ------ ----- --- ---- ------- -- ---- way --<br>------- ------,171041.60000002384,171040.5,170784.474,170792.70000004768,170801.136,171049.64,,52,way
screen,html.Screen,2_1_1_1_53,2022-05-02T11:18:18.770Z,,,,,,,,,,,,,,,,,54,,,,,,,,,,,,,,222.26000009535346,,response,,,,100,,,,,,,Space,keypress(Space),,,,,,,,-- --- ---- --- ------ ----- ------- ---- -- --- ------- --<br>------- ---------- ------ -- ----- -- ----- -- ---- ------<br>--- ----- --- --- ------ -------- ----- --- ------ ----- --<br>----- ----- ---------- --- --- ------ ------ ---- -- ------<br>------- --- ------ ----- --- ---- ------- -- ---- --- of<br>------- ------,171272.60000002384,171271.90000009537,171032.978,171041.80000007153,171049.64,171281.711,,53,of
screen,html.Screen,2_1_1_1_54,2022-05-02T11:18:19.131Z,,,,,,,,,,,,,,,,,54,,,,,,,,,,,,,,350.58900007151533,,response,,,,100,,,,,,,Space,keypress(Space),,,,,,,,-- --- ---- --- ------ ----- ------- ---- -- --- ------- --<br>------- ---------- ------ -- ----- -- ----- -- ---- ------<br>--- ----- --- --- ------ -------- ----- --- ------ ----- --<br>----- ----- ---------- --- --- ------ ------ ---- -- ------<br>------- --- ------ ----- --- ---- ------- -- ---- --- --<br>raising ------,171633.60000002384,171632.30000007153,171265.049,171272.80000007153,171281.711,171647.251,,54,raising
screen,html.Screen,2_1_1_1_55,2022-05-02T11:18:19.564Z,,,,,,,,,,,,,,,,,54,,,,,,,,,,,,,,418.0490000715363,,response,,,,100,,,,,,,Space,keypress(Space),,,,,,,,-- --- ---- --- ------ ----- ------- ---- -- --- ------- --<br>------- ---------- ------ -- ----- -- ----- -- ---- ------<br>--- ----- --- --- ------ -------- ----- --- ------ ----- --<br>----- ----- ---------- --- --- ------ ------ ---- -- ------<br>------- --- ------ ----- --- ---- ------- -- ---- --- --<br>------- money.,172066.70000004768,172065.30000007153,171630.589,171633.90000009537,171647.251,172078.697,,55,money.
Item 100,flow.Loop,2_1_1_1,2022-05-02T11:18:19.565Z,,,,,,,,,,,,,,,,,,,,,,,,,,,,,,,20928.705000071524,,completion,,,,,E,,,,,,,,,,,silence,,,,,172067.30000007153,172065.30000007153,151119.933,151121.80000007153,151136.595,172078.697,,,
Question 1,html.Screen,2_1_1_2,2022-05-02T11:18:23.386Z,,,,,,,,,,,,,,,,,,,,,,,,,,,,true,TRUE,,3809.10300007154,,response,,,,100,E,,,,,,TRUE,click #choice-1,,,,silence,,,,,175888.70000004768,175887.80000007153,172062.035,172067.70000004768,172078.697,175894.744,,,
Question 2,html.Screen,2_1_1_3,2022-05-02T11:18:25.979Z,,,,,,,,,,,,,,,,,,,,,,,,,,,,true,FALSE,,2584.9560000476777,,response,,,,100,E,,,,,,FALSE,click #choice-2,,,,silence,,,,,178481.20000004768,178479.70000004768,175878.082,175888.90000009537,175894.744,178480.682,,,
Item 100,flow.Sequence,2_1_1,2022-05-02T11:18:25.979Z,,,,,,,,,,,,,,,,,,,,,,,,,,,,,,,37345.8020000477,,completion,,,,,,,,,,,,,,,,,,,,,178481.5,178479.70000004768,141117.236,141121.30000007153,141133.898,178480.682,,,
End of Practice,html.Page,2_1_2,2022-05-02T11:18:28.802Z,,,,,,,,,,,,,,,,,,,,,,,,,,,,,,,2823.8179999999993,,form submission,,,,,,,,,,,,,,,,,,,,,181304.70000004768,181304.5,178464.02,178481.80000007153,178480.682,181314.483,,,
Practice,flow.Sequence,2_1,2022-05-02T11:18:28.802Z,,,,,,,,,,,,,,,,,,,,,,,,,,,,,,,77263.491,,completion,,,,,,,,,,,,,,,,,,,,,181304.90000009537,181304.5,104024.347,104026.70000004768,104041.009,181314.483,,,
Trap_instruction,html.Page,2_2_0,2022-05-02T11:18:29.898Z,,,,,,,,,,,,,,,,,,,,,,,,,,,,,,,1086.3170000715181,,form submission,,,,,,,,,,,,,,,,,,,,,182401.10000002384,182400.80000007153,181297.821,181305,181314.483,182413.357,,,
trap_trial,html.Screen,2_2_1,2022-05-02T11:18:32.450Z,,,,,,,,,,,,,,,,,,,,,,,,,,,,true,1,,2538.4430000715365,,response,,,,,,,,,,,1,click #choice-1,,,,,,,,,184953,184951.80000007153,182396.695,182401.20000004768,182413.357,184956.235,,,
end of trap trial,html.Page,2_2_2,2022-05-02T11:18:33.731Z,,,,,,,,,,,,,,,,,,,,,,,,,,,,,,,1276.9650000476977,,form submission,,,,,,,,,,,,,,,,,,,,,186233.40000009537,186233.20000004768,184939.573,184953.20000004768,184956.235,186256.444,,,
Trap 1,flow.Sequence,2_2,2022-05-02T11:18:33.731Z,,,,,,,,,,,,,,,,,,,,,,,,,,,,,,,4918.717000047676,,completion,,,,,,,,,,,,,,,,,,,,,186233.60000002384,186233.20000004768,181297.821,181305,181314.483,186256.444,,,
Standby,html.Page,2_3_0,2022-05-02T11:18:41.737Z,,,,,,,,,,,,,,,,,,,,,,,,,,,,,,,7996.823000000004,,timeout,,,,,,,,,,,,,,,,,,,,,194239.5,194236.605,186239.782,186233.70000004768,186256.444,194253.267,,,
Holding screen,html.Screen,2_3_1_0_0,2022-05-02T11:18:48.733Z,,,,,,,,,,,,,,,,,,,,,,,,,,,,,,,6998.445000000007,,timeout,,,,,,,,,,,,,,,,,,,,,201236,201235.05,194236.605,194239.70000004768,194253.267,201251.712,,,
screen,html.Screen,2_3_1_0_1_0,2022-05-02T11:18:49.986Z,,,,,,,,,,,,,,,,,2,,,,,,,,,,,,,,1236.3880000238423,,response,,,,1,E,,,,,,Space,keypress(Space),,,,silence,,,,Two ---- ------ --- ------- ---------- ------- ----------<br>--- --------- --- ----------- ------- ----- ------- ---<br>--------- ---- -- --- ---- -- --------- -- ---- -------<br>-- --------- ------ --- ----- ------ ---- --- --------- --<br>------ - ---- -- --- ----------- ------- ---- ----- -----<br>--- -------- - ------ ---- -- ----- ---- --- --- -----------<br>-- -------,202488.80000007153,202488.10000002384,201235.05,201236.10000002384,201251.712,202496.612,,0,Two
screen,html.Screen,2_3_1_0_1_1,2022-05-02T11:18:50.379Z,,,,,,,,,,,,,,,,,2,,,,,,,,,,,,,,383.7880000953737,,response,,,,1,E,,,,,,Space,keypress(Space),,,,silence,,,,--- days ------ --- ------- ---------- ------- ----------<br>--- --------- --- ----------- ------- ----- ------- ---<br>--------- ---- -- --- ---- -- --------- -- ---- -------<br>-- --------- ------ --- ----- ------ ---- --- --------- --<br>------ - ---- -- --- ----------- ------- ---- ----- -----<br>--- -------- - ------ ---- -- ----- ---- --- --- -----------<br>-- -------,202881.60000002384,202880.40000009537,202479.95,202489,202496.612,202890.526,,1,days
screen,html.Screen,2_3_1_0_1_2,2022-05-02T11:18:50.785Z,,,,,,,,,,,,,,,,,2,,,,,,,,,,,,,,396.9739999999874,,response,,,,1,E,,,,,,Space,keypress(Space),,,,silence,,,,"--- ---- later, --- ------- ---------- ------- ----------<br>--- --------- --- ----------- ------- ----- ------- ---<br>--------- ---- -- --- ---- -- --------- -- ---- -------<br>-- --------- ------ --- ----- ------ ---- --- --------- --<br>------ - ---- -- --- ----------- ------- ---- ----- -----<br>--- -------- - ------ ---- -- ----- ---- --- --- -----------<br>-- -------",203288.20000004768,203287.5,202873.864,202881.80000007153,202890.526,203305.216,,2,"later,"
screen,html.Screen,2_3_1_0_1_3,2022-05-02T11:18:51.219Z,,,,,,,,,,,,,,,,,2,,,,,,,,,,,,,,414.9840000476979,,response,,,,1,E,,,,,,Space,keypress(Space),,,,silence,,,,--- ---- ------ the ------- ---------- ------- ----------<br>--- --------- --- ----------- ------- ----- ------- ---<br>--------- ---- -- --- ---- -- --------- -- ---- -------<br>-- --------- ------ --- ----- ------ ---- --- --------- --<br>------ - ---- -- --- ----------- ------- ---- ----- -----<br>--- -------- - ------ ---- -- ----- ---- --- --- -----------<br>-- -------,203721.70000004768,203720.20000004768,203288.554,203288.30000007153,203305.216,203736.487,,3,the
screen,html.Screen,2_3_1_0_1_4,2022-05-02T11:18:51.483Z,,,,,,,,,,,,,,,,,2,,,,,,,,,,,,,,247.91300009537372,,response,,,,1,E,,,,,,Space,keypress(Space),,,,silence,,,,--- ---- ------ --- British ---------- ------- ----------<br>--- --------- --- ----------- ------- ----- ------- ---<br>--------- ---- -- --- ---- -- --------- -- ---- -------<br>-- --------- ------ --- ----- ------ ---- --- --------- --<br>------ - ---- -- --- ----------- ------- ---- ----- -----<br>--- -------- - ------ ---- -- ----- ---- --- --- -----------<br>-- -------,203985.60000002384,203984.40000009537,203719.825,203722.30000007153,203736.487,204001.075,,4,British
screen,html.Screen,2_3_1_0_1_5,2022-05-02T11:18:51.769Z,,,,,,,,,,,,,,,,,2,,,,,,,,,,,,,,270.5250000238302,,response,,,,1,E,,,,,,Space,keypress(Space),,,,silence,,,,--- ---- ------ --- ------- astronomer ------- ----------<br>--- --------- --- ----------- ------- ----- ------- ---<br>--------- ---- -- --- ---- -- --------- -- ---- -------<br>-- --------- ------ --- ----- ------ ---- --- --------- --<br>------ - ---- -- --- ----------- ------- ---- ----- -----<br>--- -------- - ------ ---- -- ----- ---- --- --- -----------<br>-- -------,204272.30000007153,204271.60000002384,203984.413,203986.10000002384,204001.075,204283.044,,5,astronomer
screen,html.Screen,2_3_1_0_1_6,2022-05-02T11:18:52.131Z,,,,,,,,,,,,,,,,,2,,,,,,,,,,,,,,349.1560000476893,,response,,,,1,E,,,,,,Space,keypress(Space),,,,silence,,,,--- ---- ------ --- ------- ---------- Richard ----------<br>--- --------- --- ----------- ------- ----- ------- ---<br>--------- ---- -- --- ---- -- --------- -- ---- -------<br>-- --------- ------ --- ----- ------ ---- --- --------- --<br>------ - ---- -- --- ----------- ------- ---- ----- -----<br>--- -------- - ------ ---- -- ----- ---- --- --- -----------<br>-- -------,204633.60000002384,204632.20000004768,204266.382,204272.30000007153,204283.044,204648.257,,6,Richard
screen,html.Screen,2_3_1_0_1_7,2022-05-02T11:18:52.547Z,,,,,,,,,,,,,,,,,2,,,,,,,,,,,,,,399.9430000476714,,response,,,,1,E,,,,,,Space,keypress(Space),,,,silence,,,,--- ---- ------ --- ------- ---------- ------- Carrington<br>--- --------- --- ----------- ------- ----- ------- ---<br>--------- ---- -- --- ---- -- --------- -- ---- -------<br>-- --------- ------ --- ----- ------ ---- --- --------- --<br>------ - ---- -- --- ----------- ------- ---- ----- -----<br>--- -------- - ------ ---- -- ----- ---- --- --- -----------<br>-- -------,205049.5,205048.20000004768,204631.595,204634,204648.257,205063.11,,7,Carrington
screen,html.Screen,2_3_1_0_1_8,2022-05-02T11:18:53.219Z,,,,,,,,,,,,,,,,,2,,,,,,,,,,,,,,657.390000000014,,response,,,,1,E,,,,,,Space,keypress(Space),,,,silence,,,,--- ---- ------ --- ------- ---------- ------- ----------<br>was --------- --- ----------- ------- ----- ------- ---<br>--------- ---- -- --- ---- -- --------- -- ---- -------<br>-- --------- ------ --- ----- ------ ---- --- --------- --<br>------ - ---- -- --- ----------- ------- ---- ----- -----<br>--- -------- - ------ ---- -- ----- ---- --- --- -----------<br>-- -------,205722.10000002384,205720.5,205046.448,205049.90000009537,205063.11,205727.636,,8,was
screen,html.Screen,2_3_1_0_1_9,2022-05-02T11:18:53.710Z,,,,,,,,,,,,,,,,,2,,,,,,,,,,,,,,481.76400009536883,,response,,,,1,E,,,,,,Space,keypress(Space),,,,silence,,,,--- ---- ------ --- ------- ---------- ------- ----------<br>--- observing --- ----------- ------- ----- ------- ---<br>--------- ---- -- --- ---- -- --------- -- ---- -------<br>-- --------- ------ --- ----- ------ ---- --- --------- --<br>------ - ---- -- --- ----------- ------- ---- ----- -----<br>--- -------- - ------ ---- -- ----- ---- --- --- -----------<br>-- -------,206212.60000002384,206209.40000009537,205710.974,205722.30000007153,205727.636,206224.283,,9,observing
screen,html.Screen,2_3_1_0_1_10,2022-05-02T11:18:54.114Z,,,,,,,,,,,,,,,,,2,,,,,,,,,,,,,,391.9170000476879,,response,,,,1,E,,,,,,Space,keypress(Space),,,,silence,,,,--- ---- ------ --- ------- ---------- ------- ----------<br>--- --------- the ----------- ------- ----- ------- ---<br>--------- ---- -- --- ---- -- --------- -- ---- -------<br>-- --------- ------ --- ----- ------ ---- --- --------- --<br>------ - ---- -- --- ----------- ------- ---- ----- -----<br>--- -------- - ------ ---- -- ----- ---- --- --- -----------<br>-- -------,206617.30000007153,206616.20000004768,206207.621,206213.30000007153,206224.283,206621.777,,10,the
screen,html.Screen,2_3_1_0_1_11,2022-05-02T11:18:54.913Z,,,,,,,,,,,,,,,,,2,,,,,,,,,,,,,,793.7229999999981,,response,,,,1,E,,,,,,Space,keypress(Space),,,,silence,,,,--- ---- ------ --- ------- ---------- ------- ----------<br>--- --------- --- interesting ------- ----- ------- ---<br>--------- ---- -- --- ---- -- --------- -- ---- -------<br>-- --------- ------ --- ----- ------ ---- --- --------- --<br>------ - ---- -- --- ----------- ------- ---- ----- -----<br>--- -------- - ------ ---- -- ----- ---- --- --- -----------<br>-- -------,207416.20000004768,207415.5,206605.115,206617.60000002384,206621.777,207419.715,,11,interesting
screen,html.Screen,2_3_1_0_1_12,2022-05-02T11:18:55.363Z,,,,,,,,,,,,,,,,,2,,,,,,,,,,,,,,444.58500007152907,,response,,,,1,E,,,,,,Space,keypress(Space),,,,silence,,,,--- ---- ------ --- ------- ---------- ------- ----------<br>--- --------- --- ----------- sunspot ----- ------- ---<br>--------- ---- -- --- ---- -- --------- -- ---- -------<br>-- --------- ------ --- ----- ------ ---- --- --------- --<br>------ - ---- -- --- ----------- ------- ---- ----- -----<br>--- -------- - ------ ---- -- ----- ---- --- --- -----------<br>-- -------,207865.80000007153,207864.30000007153,207403.053,207416.30000007153,207419.715,207882.519,,12,sunspot
screen,html.Screen,2_3_1_0_1_13,2022-05-02T11:18:55.817Z,,,,,,,,,,,,,,,,,2,,,,,,,,,,,,,,437.0810000238416,,response,,,,1,E,,,,,,Space,keypress(Space),,,,silence,,,,--- ---- ------ --- ------- ---------- ------- ----------<br>--- --------- --- ----------- ------- group ------- ---<br>--------- ---- -- --- ---- -- --------- -- ---- -------<br>-- --------- ------ --- ----- ------ ---- --- --------- --<br>------ - ---- -- --- ----------- ------- ---- ----- -----<br>--- -------- - ------ ---- -- ----- ---- --- --- -----------<br>-- -------,208320.30000007153,208319.60000002384,207865.857,207866,207882.519,208330.191,,13,group
screen,html.Screen,2_3_1_0_1_14,2022-05-02T11:18:56.195Z,,,,,,,,,,,,,,,,,2,,,,,,,,,,,,,,366.5090000476921,,response,,,,1,E,,,,,,Space,keypress(Space),,,,silence,,,,--- ---- ------ --- ------- ---------- ------- ----------<br>--- --------- --- ----------- ------- ----- through ---<br>--------- ---- -- --- ---- -- --------- -- ---- -------<br>-- --------- ------ --- ----- ------ ---- --- --------- --<br>------ - ---- -- --- ----------- ------- ---- ----- -----<br>--- -------- - ------ ---- -- ----- ---- --- --- -----------<br>-- -------,208698.20000004768,208696.70000004768,208313.529,208320.40000009537,208330.191,208711.37,,14,through
screen,html.Screen,2_3_1_0_1_15,2022-05-02T11:18:56.730Z,,,,,,,,,,,,,,,,,2,,,,,,,,,,,,,,520.4300000715302,,response,,,,1,E,,,,,,Space,keypress(Space),,,,silence,,,,--- ---- ------ --- ------- ---------- ------- ----------<br>--- --------- --- ----------- ------- ----- ------- his<br>--------- ---- -- --- ---- -- --------- -- ---- -------<br>-- --------- ------ --- ----- ------ ---- --- --------- --<br>------ - ---- -- --- ----------- ------- ---- ----- -----<br>--- -------- - ------ ---- -- ----- ---- --- --- -----------<br>-- -------,209232.40000009537,209231.80000007153,208694.708,208698.70000004768,208711.37,209242.746,,15,his
screen,html.Screen,2_3_1_0_1_16,2022-05-02T11:18:57.210Z,,,,,,,,,,,,,,,,,2,,,,,,,,,,,,,,469.05400007151184,,response,,,,1,E,,,,,,Space,keypress(Space),,,,silence,,,,--- ---- ------ --- ------- ---------- ------- ----------<br>--- --------- --- ----------- ------- ----- ------- ---<br>telescope ---- -- --- ---- -- --------- -- ---- -------<br>-- --------- ------ --- ----- ------ ---- --- --------- --<br>------ - ---- -- --- ----------- ------- ---- ----- -----<br>--- -------- - ------ ---- -- ----- ---- --- --- -----------<br>-- -------,209712.5,209711.80000007153,209226.084,209232.60000002384,209242.746,209723.398,,16,telescope
screen,html.Screen,2_3_1_0_1_17,2022-05-02T11:18:57.563Z,,,,,,,,,,,,,,,,,2,,,,,,,,,,,,,,340.8020000476972,,response,,,,1,E,,,,,,Space,keypress(Space),,,,silence,,,,--- ---- ------ --- ------- ---------- ------- ----------<br>--- --------- --- ----------- ------- ----- ------- ---<br>--------- when -- --- ---- -- --------- -- ---- -------<br>-- --------- ------ --- ----- ------ ---- --- --------- --<br>------ - ---- -- --- ----------- ------- ---- ----- -----<br>--- -------- - ------ ---- -- ----- ---- --- --- -----------<br>-- -------,210065.40000009537,210064.20000004768,209706.736,209712.60000002384,209723.398,210071.013,,17,when
screen,html.Screen,2_3_1_0_1_18,2022-05-02T11:18:57.810Z,,,,,,,,,,,,,,,,,2,,,,,,,,,,,,,,240.88700009536115,,response,,,,1,E,,,,,,Space,keypress(Space),,,,silence,,,,--- ---- ------ --- ------- ---------- ------- ----------<br>--- --------- --- ----------- ------- ----- ------- ---<br>--------- ---- he --- ---- -- --------- -- ---- -------<br>-- --------- ------ --- ----- ------ ---- --- --------- --<br>------ - ---- -- --- ----------- ------- ---- ----- -----<br>--- -------- - ------ ---- -- ----- ---- --- --- -----------<br>-- -------,210312.70000004768,210311.90000009537,210054.351,210065.70000004768,210071.013,210319.176,,18,he
screen,html.Screen,2_3_1_0_1_19,2022-05-02T11:18:58.139Z,,,,,,,,,,,,,,,,,2,,,,,,,,,,,,,,321.6240000715188,,response,,,,1,E,,,,,,Space,keypress(Space),,,,silence,,,,--- ---- ------ --- ------- ---------- ------- ----------<br>--- --------- --- ----------- ------- ----- ------- ---<br>--------- ---- -- saw ---- -- --------- -- ---- -------<br>-- --------- ------ --- ----- ------ ---- --- --------- --<br>------ - ---- -- --- ----------- ------- ---- ----- -----<br>--- -------- - ------ ---- -- ----- ---- --- --- -----------<br>-- -------,210641.90000009537,210640.80000007153,210302.514,210312.90000009537,210319.176,210651.386,,19,saw
screen,html.Screen,2_3_1_0_1_20,2022-05-02T11:18:58.378Z,,,,,,,,,,,,,,,,,2,,,,,,,,,,,,,,228.41400007152697,,response,,,,1,E,,,,,,Space,keypress(Space),,,,silence,,,,--- ---- ------ --- ------- ---------- ------- ----------<br>--- --------- --- ----------- ------- ----- ------- ---<br>--------- ---- -- --- what -- --------- -- ---- -------<br>-- --------- ------ --- ----- ------ ---- --- --------- --<br>------ - ---- -- --- ----------- ------- ---- ----- -----<br>--- -------- - ------ ---- -- ----- ---- --- --- -----------<br>-- -------,210880.60000002384,210879.80000007153,210634.724,210642.20000004768,210651.386,210882.984,,20,what
screen,html.Screen,2_3_1_0_1_21,2022-05-02T11:18:58.666Z,,,,,,,,,,,,,,,,,2,,,,,,,,,,,,,,284.81600007152883,,response,,,,1,E,,,,,,Space,keypress(Space),,,,silence,,,,--- ---- ------ --- ------- ---------- ------- ----------<br>--- --------- --- ----------- ------- ----- ------- ---<br>--------- ---- -- --- ---- he --------- -- ---- -------<br>-- --------- ------ --- ----- ------ ---- --- --------- --<br>------ - ---- -- --- ----------- ------- ---- ----- -----<br>--- -------- - ------ ---- -- ----- ---- --- --- -----------<br>-- -------,211169.20000004768,211167.80000007153,210866.322,210880.80000007153,210882.984,211181.835,,21,he
screen,html.Screen,2_3_1_0_1_22,2022-05-02T11:18:59.098Z,,,,,,,,,,,,,,,,,2,,,,,,,,,,,,,,417.86500004769186,,response,,,,1,E,,,,,,Space,keypress(Space),,,,silence,,,,--- ---- ------ --- ------- ---------- ------- ----------<br>--- --------- --- ----------- ------- ----- ------- ---<br>--------- ---- -- --- ---- -- described -- ---- -------<br>-- --------- ------ --- ----- ------ ---- --- --------- --<br>------ - ---- -- --- ----------- ------- ---- ----- -----<br>--- -------- - ------ ---- -- ----- ---- --- --- -----------<br>-- -------,211600.5,211599.70000004768,211165.173,211169.40000009537,211181.835,211613.667,,22,described
screen,html.Screen,2_3_1_0_1_23,2022-05-02T11:18:59.523Z,,,,,,,,,,,,,,,,,2,,,,,,,,,,,,,,410.63300007153885,,response,,,,1,E,,,,,,Space,keypress(Space),,,,silence,,,,--- ---- ------ --- ------- ---------- ------- ----------<br>--- --------- --- ----------- ------- ----- ------- ---<br>--------- ---- -- --- ---- -- --------- as ---- -------<br>-- --------- ------ --- ----- ------ ---- --- --------- --<br>------ - ---- -- --- ----------- ------- ---- ----- -----<br>--- -------- - ------ ---- -- ----- ---- --- --- -----------<br>-- -------,212025.5,212024.30000007153,211597.005,211600.70000004768,211613.667,212028.199,,23,as
screen,html.Screen,2_3_1_0_1_24,2022-05-02T11:18:59.777Z,,,,,,,,,,,,,,,,,2,,,,,,,,,,,,,,251.30100000000675,,response,,,,1,E,,,,,,Space,keypress(Space),,,,silence,,,,"--- ---- ------ --- ------- ---------- ------- ----------<br>--- --------- --- ----------- ------- ----- ------- ---<br>--------- ---- -- --- ---- -- --------- -- ""two -------<br>-- --------- ------ --- ----- ------ ---- --- --------- --<br>------ - ---- -- --- ----------- ------- ---- ----- -----<br>--- -------- - ------ ---- -- ----- ---- --- --- -----------<br>-- -------",212280.20000004768,212279.5,212011.537,212025.70000004768,212028.199,212292.767,,24,"""two"
screen,html.Screen,2_3_1_0_1_25,2022-05-02T11:19:00.098Z,,,,,,,,,,,,,,,,,2,,,,,,,,,,,,,,307.1330000953749,,response,,,,1,E,,,,,,Space,keypress(Space),,,,silence,,,,--- ---- ------ --- ------- ---------- ------- ----------<br>--- --------- --- ----------- ------- ----- ------- ---<br>--------- ---- -- --- ---- -- --------- -- ---- patches<br>-- --------- ------ --- ----- ------ ---- --- --------- --<br>------ - ---- -- --- ----------- ------- ---- ----- -----<br>--- -------- - ------ ---- -- ----- ---- --- --- -----------<br>-- -------,212600.5,212599.90000009537,212276.105,212280.30000007153,212292.767,212608.093,,25,patches
screen,html.Screen,2_3_1_0_1_26,2022-05-02T11:19:00.387Z,,,,,,,,,,,,,,,,,2,,,,,,,,,,,,,,280.10700004769024,,response,,,,1,E,,,,,,Space,keypress(Space),,,,silence,,,,--- ---- ------ --- ------- ---------- ------- ----------<br>--- --------- --- ----------- ------- ----- ------- ---<br>--------- ---- -- --- ---- -- --------- -- ---- -------<br>of --------- ------ --- ----- ------ ---- --- --------- --<br>------ - ---- -- --- ----------- ------- ---- ----- -----<br>--- -------- - ------ ---- -- ----- ---- --- --- -----------<br>-- -------,212889.90000009537,212888.20000004768,212591.431,212600.60000002384,212608.093,212906.516,,26,of
screen,html.Screen,2_3_1_0_1_27,2022-05-02T11:19:00.618Z,,,,,,,,,,,,,,,,,2,,,,,,,,,,,,,,213.18400004768046,,response,,,,1,E,,,,,,Space,keypress(Space),,,,silence,,,,--- ---- ------ --- ------- ---------- ------- ----------<br>--- --------- --- ----------- ------- ----- ------- ---<br>--------- ---- -- --- ---- -- --------- -- ---- -------<br>-- intensely ------ --- ----- ------ ---- --- --------- --<br>------ - ---- -- --- ----------- ------- ---- ----- -----<br>--- -------- - ------ ---- -- ----- ---- --- --- -----------<br>-- -------,213121.30000007153,213119.70000004768,212889.854,212890.10000002384,212906.516,213138.379,,27,intensely
screen,html.Screen,2_3_1_0_1_28,2022-05-02T11:19:00.811Z,,,,,,,,,,,,,,,,,2,,,,,,,,,,,,,,173.7210000238556,,response,,,,1,E,,,,,,Space,keypress(Space),,,,silence,,,,--- ---- ------ --- ------- ---------- ------- ----------<br>--- --------- --- ----------- ------- ----- ------- ---<br>--------- ---- -- --- ---- -- --------- -- ---- -------<br>-- --------- bright --- ----- ------ ---- --- --------- --<br>------ - ---- -- --- ----------- ------- ---- ----- -----<br>--- -------- - ------ ---- -- ----- ---- --- --- -----------<br>-- -------,213313.40000009537,213312.10000002384,213121.717,213121.5,213138.379,213320.631,,28,bright
screen,html.Screen,2_3_1_0_1_29,2022-05-02T11:19:01.139Z,,,,,,,,,,,,,,,,,2,,,,,,,,,,,,,,319.6690000715316,,response,,,,1,E,,,,,,Space,keypress(Space),,,,silence,,,,--- ---- ------ --- ------- ---------- ------- ----------<br>--- --------- --- ----------- ------- ----- ------- ---<br>--------- ---- -- --- ---- -- --------- -- ---- -------<br>-- --------- ------ and ----- ------ ---- --- --------- --<br>------ - ---- -- --- ----------- ------- ---- ----- -----<br>--- -------- - ------ ---- -- ----- ---- --- --- -----------<br>-- -------,213641.80000007153,213640.30000007153,213303.969,213313.60000002384,213320.631,213652.913,,29,and
screen,html.Screen,2_3_1_0_1_30,2022-05-02T11:19:01.387Z,,,,,,,,,,,,,,,,,2,,,,,,,,,,,,,,235.3870000715251,,response,,,,1,E,,,,,,Space,keypress(Space),,,,silence,,,,--- ---- ------ --- ------- ---------- ------- ----------<br>--- --------- --- ----------- ------- ----- ------- ---<br>--------- ---- -- --- ---- -- --------- -- ---- -------<br>-- --------- ------ --- white ------ ---- --- --------- --<br>------ - ---- -- --- ----------- ------- ---- ----- -----<br>--- -------- - ------ ---- -- ----- ---- --- --- -----------<br>-- -------,213889.30000007153,213888.30000007153,213636.251,213642.20000004768,213652.913,213901.21,,30,white
screen,html.Screen,2_3_1_0_1_31,2022-05-02T11:19:01.603Z,,,,,,,,,,,,,,,,,2,,,,,,,,,,,,,,202.89000002385,,response,,,,1,E,,,,,,Space,keypress(Space),,,,silence,,,,"--- ---- ------ --- ------- ---------- ------- ----------<br>--- --------- --- ----------- ------- ----- ------- ---<br>--------- ---- -- --- ---- -- --------- -- ---- -------<br>-- --------- ------ --- ----- light"" ---- --- --------- --<br>------ - ---- -- --- ----------- ------- ---- ----- -----<br>--- -------- - ------ ---- -- ----- ---- --- --- -----------<br>-- -------",214105.60000002384,214104.10000002384,213884.548,213889.60000002384,213901.21,214116.706,,31,"light"""
screen,html.Screen,2_3_1_0_1_32,2022-05-02T11:19:01.834Z,,,,,,,,,,,,,,,,,2,,,,,,,,,,,,,,219.19400009536184,,response,,,,1,E,,,,,,Space,keypress(Space),,,,silence,,,,--- ---- ------ --- ------- ---------- ------- ----------<br>--- --------- --- ----------- ------- ----- ------- ---<br>--------- ---- -- --- ---- -- --------- -- ---- -------<br>-- --------- ------ --- ----- ------ over --- --------- --<br>------ - ---- -- --- ----------- ------- ---- ----- -----<br>--- -------- - ------ ---- -- ----- ---- --- --- -----------<br>-- -------,214336.70000004768,214335.90000009537,214100.044,214105.80000007153,214116.706,214349.109,,32,over
screen,html.Screen,2_3_1_0_1_33,2022-05-02T11:19:02.194Z,,,,,,,,,,,,,,,,,2,,,,,,,,,,,,,,346.9910000238451,,response,,,,1,E,,,,,,Space,keypress(Space),,,,silence,,,,--- ---- ------ --- ------- ---------- ------- ----------<br>--- --------- --- ----------- ------- ----- ------- ---<br>--------- ---- -- --- ---- -- --------- -- ---- -------<br>-- --------- ------ --- ----- ------ ---- the --------- --<br>------ - ---- -- --- ----------- ------- ---- ----- -----<br>--- -------- - ------ ---- -- ----- ---- --- --- -----------<br>-- -------,214697.20000004768,214696.10000002384,214332.447,214336.90000009537,214349.109,214714.455,,33,the
screen,html.Screen,2_3_1_0_1_34,2022-05-02T11:19:02.411Z,,,,,,,,,,,,,,,,,2,,,,,,,,,,,,,,197.64500002385466,,response,,,,1,E,,,,,,Space,keypress(Space),,,,silence,,,,--- ---- ------ --- ------- ---------- ------- ----------<br>--- --------- --- ----------- ------- ----- ------- ---<br>--------- ---- -- --- ---- -- --------- -- ---- -------<br>-- --------- ------ --- ----- ------ ---- --- sunspots. --<br>------ - ---- -- --- ----------- ------- ---- ----- -----<br>--- -------- - ------ ---- -- ----- ---- --- --- -----------<br>-- -------,214913.60000002384,214912.10000002384,214697.793,214697.40000009537,214714.455,214929.371,,34,sunspots.
screen,html.Screen,2_3_1_0_1_35,2022-05-02T11:19:02.667Z,,,,,,,,,,,,,,,,,2,,,,,,,,,,,,,,238.82900004766998,,response,,,,1,E,,,,,,Space,keypress(Space),,,,silence,,,,--- ---- ------ --- ------- ---------- ------- ----------<br>--- --------- --- ----------- ------- ----- ------- ---<br>--------- ---- -- --- ---- -- --------- -- ---- -------<br>-- --------- ------ --- ----- ------ ---- --- --------- He<br>------ - ---- -- --- ----------- ------- ---- ----- -----<br>--- -------- - ------ ---- -- ----- ---- --- --- -----------<br>-- -------,215169.40000009537,215168.20000004768,214912.709,214914,214929.371,215178.301,,35,He
screen,html.Screen,2_3_1_0_1_36,2022-05-02T11:19:03.065Z,,,,,,,,,,,,,,,,,2,,,,,,,,,,,,,,389.19899999999325,,response,,,,1,E,,,,,,Space,keypress(Space),,,,silence,,,,--- ---- ------ --- ------- ---------- ------- ----------<br>--- --------- --- ----------- ------- ----- ------- ---<br>--------- ---- -- --- ---- -- --------- -- ---- -------<br>-- --------- ------ --- ----- ------ ---- --- --------- --<br>jotted - ---- -- --- ----------- ------- ---- ----- -----<br>--- -------- - ------ ---- -- ----- ---- --- --- -----------<br>-- -------,215568.10000002384,215567.5,215161.639,215169.70000004768,215178.301,215576.92,,36,jotted
screen,html.Screen,2_3_1_0_1_37,2022-05-02T11:19:03.378Z,,,,,,,,,,,,,,,,,2,,,,,,,,,,,,,,303.18000002382905,,response,,,,1,E,,,,,,Space,keypress(Space),,,,silence,,,,--- ---- ------ --- ------- ---------- ------- ----------<br>--- --------- --- ----------- ------- ----- ------- ---<br>--------- ---- -- --- ---- -- --------- -- ---- -------<br>-- --------- ------ --- ----- ------ ---- --- --------- --<br>------ a ---- -- --- ----------- ------- ---- ----- -----<br>--- -------- - ------ ---- -- ----- ---- --- --- -----------<br>-- -------,215881.40000009537,215880.10000002384,215560.258,215568.20000004768,215576.92,215891.666,,37,a
