sender,sender_type,sender_id,timestamp,meta,,Blues,Classical,Country,Dance,Electronic,Folk,Gospel,Hip-Hop,Jazz,Latin,Musical/Film,New-age,Pop,Prolific_id,Provo_ID,R&B,Rap,Reggae,Religious,Rock,Soul,Swing,Traditional,age,artist_name,correct,correctResponse,distraction,duration,education,ended_on,familiarity,gender,headphone_check_performance,item,list,music_frequency,offensiveness,pleasantness,position_correct,preference,response,response_action,snippet_file,song_name,song_rating,sound,stimulus_1,stimulus_2,stimulus_3,text,time_commit,time_end,time_render,time_run,time_show,time_switch,url,word,word_ID
Prolific ID,html.Form,0,2022-05-02T10:15:49.080Z,"{""labjs_version"":""20.2.2"",""labjs_build"":{""flavor"":""production"",""commit"":""a25486e0c714a0ae2ce03ff94b7bb6896854dcfa""},""location"":""https://run.pavlovia.org/mvasilev/prolific3_music_e/"",""userAgent"":""Mozilla/5.0 (Windows NT 10.0; Win64; x64) AppleWebKit/537.36 (KHTML, like Gecko) Chrome/100.0.4896.127 Safari/537.36"",""platform"":""Win32"",""language"":""en-GB"",""locale"":""en-GB"",""timeZone"":""Europe/London"",""timezoneOffset"":-60,""screen_width"":1366,""screen_height"":768,""scroll_width"":1366,""scroll_height"":577,""window_innerWidth"":1366,""window_innerHeight"":625,""devicePixelRatio"":1}",,,,,,,,,,,,,,,59664cebaf78da0001a22b4a,,,,,,,,,,,,,,,5115.35000003576,,form submission,,,,,,,,,,,,,,,,,,,,,46784.10000002384,46781.40000003576,41131.737,41134,41666.05,47116.172,{},,
Introduction,html.Screen,1_0,2022-05-02T10:15:55.566Z,,,,,,,,,,,,,,,,,,,,,,,,,,,,,,,6144.728000035764,,response,,,,,,,,,,,continue,click button,,,,,,,,,53270,53260.90000003576,46733.207,46785.60000002384,47116.172,53383.083,,,
Volume calibration,html.Screen,1_1,2022-05-02T10:16:22.460Z,,,,,,,,,,,,,,,,,,,,,,,,,,,,,,,26766.317000035764,,response,,,,,,,,,,,continue,click button,,,,,,,,,80164.60000002384,80149.40000003576,53250.103,53270.80000001192,53383.083,80184.364,,,
Task instructions,html.Screen,1_2,2022-05-02T10:16:31.200Z,,,,,,,,,,,,,,,,,,,,,,,,,,,,,,,8718.036000035761,,response,,,,,,,,,,,continue,click button,,,,,,,,,88904.69999998808,88902.40000003576,80150.736,80165.10000002384,80184.364,88917.732,,,
Sounds,html.Screen,1_3_0_0,2022-05-02T10:16:35.460Z,,,,,,,,,,,,,,,,,,,,,,,,,,,,,,,4266.781999999992,,timeout,,,,,,,,,1,,,,,,,,S,O,I,,93164.40000003576,93151.382,88901.128,88905.40000003576,88917.732,93184.514,,,
Judgement,html.Screen,1_3_0_1,2022-05-02T10:16:36.696Z,,,,,,,,,,,,,,,,,,,,,,,,,,,,true,1,,1212.9860000000044,,response,,,,,,,,,1,,1,click #choice-1,,,,,S,O,I,,94400.30000001192,94397.5,93151.382,93164.80000001192,93184.514,94401.503,,,
Trial,flow.Sequence,1_3_0,2022-05-02T10:16:36.697Z,,,,,,,,,,,,,,,,,,,,,,,,,,,,,,,5479.767999999996,,completion,,,,,,,,,1,,,,,,,,S,O,I,,94402.19999998808,94397.5,88901.128,88905.30000001192,88917.732,94401.503,,,
Sounds,html.Screen,1_3_1_0,2022-05-02T10:16:40.932Z,,,,,,,,,,,,,,,,,,,,,,,,,,,,,,,4249.983000000007,,timeout,,,,,,,,,2,,,,,,,,O,S,I,,98637.19999998808,98634.748,94384.56,94403.69999998808,94401.503,98651.486,,,
Judgement,html.Screen,1_3_1_1,2022-05-02T10:16:41.721Z,,,,,,,,,,,,,,,,,,,,,,,,,,,,true,2,,771.1140000238374,,response,,,,,,,,,2,,2,click #choice-2,,,,,O,S,I,,99426.10000002384,99422.60000002384,98634.748,98637.69999998808,98651.486,99451.516,,,
Trial,flow.Sequence,1_3_1,2022-05-02T10:16:41.753Z,,,,,,,,,,,,,,,,,,,,,,,,,,,,,,,5021.097000023845,,completion,,,,,,,,,2,,,,,,,,O,S,I,,99457.5,99422.60000002384,94384.56,94402.69999998808,94401.503,99451.516,,,
Sounds,html.Screen,1_3_2_0,2022-05-02T10:16:45.982Z,,,,,,,,,,,,,,,,,,,,,,,,,,,,,,,4250.073000000004,,timeout,,,,,,,,,1,,,,,,,,S,I,O,,103687.19999998808,103685.032,99418.281,99458.40000003576,99451.516,103701.589,,,
Judgement,html.Screen,1_3_2_1,2022-05-02T10:16:49.139Z,,,,,,,,,,,,,,,,,,,,,,,,,,,,true,1,,3139.3110000357556,,response,,,,,,,,,1,,1,click #choice-1,,,,,S,I,O,,106844,106840.90000003576,103685.032,103687.69999998808,103701.589,106851.722,,,
Trial,flow.Sequence,1_3_2,2022-05-02T10:16:49.140Z,,,,,,,,,,,,,,,,,,,,,,,,,,,,,,,7389.3840000357595,,completion,,,,,,,,,1,,,,,,,,S,I,O,,106845,106840.90000003576,99418.281,99458.10000002384,99451.516,106851.722,,,
Sounds,html.Screen,1_3_3_0,2022-05-02T10:16:53.383Z,,,,,,,,,,,,,,,,,,,,,,,,,,,,,,,4250.169000000009,,timeout,,,,,,,,,3,,,,,,,,O,I,S,,111087.69999998808,111085.205,106835.119,106845.60000002384,106851.722,111101.891,,,
Judgement,html.Screen,1_3_3_1,2022-05-02T10:16:54.424Z,,,,,,,,,,,,,,,,,,,,,,,,,,,,true,3,,1023.3089999880758,,response,,,,,,,,,3,,3,click #choice-3,,,,,O,I,S,,112128.40000003576,112125.19999998808,111085.205,111088.19999998808,111101.891,112135.217,,,
Trial,flow.Sequence,1_3_3,2022-05-02T10:16:54.424Z,,,,,,,,,,,,,,,,,,,,,,,,,,,,,,,5273.477999988085,,completion,,,,,,,,,3,,,,,,,,O,I,S,,112129.19999998808,112125.19999998808,106835.119,106845.5,106851.722,112135.217,,,
Sounds,html.Screen,1_3_4_0,2022-05-02T10:16:58.667Z,,,,,,,,,,,,,,,,,,,,,,,,,,,,,,,4250.206999999995,,timeout,,,,,,,,,3,,,,,,,,I,O,S,,116371.69999998808,116368.708,112118.572,112129.60000002384,112135.217,116385.424,,,
Judgement,html.Screen,1_3_4_1,2022-05-02T10:16:59.535Z,,,,,,,,,,,,,,,,,,,,,,,,,,,,true,3,,851.5760000000009,,response,,,,,,,,,3,,3,click #choice-3,,,,,I,O,S,,117239.60000002384,117237,116368.708,116372.60000002384,116385.424,117252.156,,,
Trial,flow.Sequence,1_3_4,2022-05-02T10:16:59.536Z,,,,,,,,,,,,,,,,,,,,,,,,,,,,,,,5101.782999999996,,completion,,,,,,,,,3,,,,,,,,I,O,S,,117240.30000001192,117237,112118.572,112129.60000002384,112135.217,117252.156,,,
Sounds,html.Screen,1_3_5_0,2022-05-02T10:17:03.783Z,,,,,,,,,,,,,,,,,,,,,,,,,,,,,,,4250.501999999993,,timeout,,,,,,,,,2,,,,,,,,I,S,O,,121487.69999998808,121485.567,117235.565,117240.90000003576,117252.156,121502.658,,,
Judgement,html.Screen,1_3_5_1,2022-05-02T10:17:04.637Z,,,,,,,,,,,,,,,,,,,,,,,,,,,,true,2,,836.0419999880833,,response,,,,,,,,,2,,2,click #choice-2,,,,,I,S,O,,122341.90000003576,122338.69999998808,121485.567,121488.10000002384,121502.658,122418.924,,,
Trial,flow.Sequence,1_3_5,2022-05-02T10:17:04.638Z,,,,,,,,,,,,,,,,,,,,,,,,,,,,,,,5086.543999988076,,completion,,,,,,,,,2,,,,,,,,I,S,O,,122342.69999998808,122338.69999998808,117235.565,117240.60000002384,117252.156,122418.924,,,
Task,flow.Loop,1_3,2022-05-02T10:17:04.657Z,,,,,,,,,,,,,,,,,,,,,,,,,,,,,,,33420.967999988075,,completion,,,1,,,,,,,,,,,,,,,,,,122362,122338.69999998808,88901.128,88905.19999998808,88917.732,122418.924,,,
Trap,html.Screen,1_4,2022-05-02T10:17:04.702Z,,,,,,,,,,,,,,,,,,,,,,,,,,,,,,,NaN,,skipped,,,,,,,,,,,,,,,,,,,,,122406.30000001192,122338.69999998808,,122405.69999998808,,122418.924,,,
Thanks,html.Screen,1_5,2022-05-02T10:17:08.922Z,,,,,,,,,,,,,,,,,,,,,,,,,,,,,,,4204.77599998808,,response,,,,,,,,,,,continue,click button,,,,,,,,,126626.30000001192,126623.69999998808,122335.583,122406.69999998808,122418.924,131719.256,,,
Headphone screening,flow.Sequence,1,2022-05-02T10:17:08.922Z,,,,,,,,,,,,,,,,,,,,,,,,,,,,,,,79507.52799998809,,completion,,,,,,,,,,,,,,,,,,,,,126626.90000003576,126623.69999998808,46733.207,46785.40000003576,47116.172,131719.256,,,
Instructions,html.Page,2_0,2022-05-02T10:17:31.340Z,,,,,,,,,,,,,,,,,,,,,,,,,,,,,,,17324.244000000006,,form submission,,,,,,,,,,,,,,,,,,,,,149044.80000001192,149043.5,131569.487,131693.60000002384,131719.256,149053.266,,,
Holding screen,html.Screen,2_1_0_0,2022-05-02T10:17:41.335Z,,,,,,,,,,,,,,,,,,,,,,,,,,,,,,,10250.438999999984,,timeout,,,,,,,,,,,,,,,,,,,,,159039.80000001192,159037.134,148986.622,149045.60000002384,149053.266,159303.705,,,
screen,html.Screen,2_1_0_1_0,2022-05-02T10:17:42.481Z,,,,,,,,,,,,,,,,,53,,,,,,,,,,,,,,862.2950000000128,,response,,,,99,,,,,,,Space,keypress(Space),,,,,,,,When -- ----- -- ------ - ------- --- ----------<br>------------- ------ ------ ---- ---- ------- ----- -- ----<br>-------- ------- -- ---------- --- - --- ----- ----- ----<br>---- --- --- ----- --- ---- ---- ------- ----- ---- -------<br>--- --- -- ----- -- --- ---- -- --- ---- -- ------ ------<br>--- ----- -- ----,160186.10000002384,160166,159037.134,159041.5,159303.705,160203.758,,0,When
screen,html.Screen,2_1_0_1_1,2022-05-02T10:17:42.934Z,,,,,,,,,,,,,,,,,53,,,,,,,,,,,,,,431.74199999999837,,response,,,,99,,,,,,,Space,keypress(Space),,,,,,,,---- it ----- -- ------ - ------- --- ----------<br>------------- ------ ------ ---- ---- ------- ----- -- ----<br>-------- ------- -- ---------- --- - --- ----- ----- ----<br>---- --- --- ----- --- ---- ---- ------- ----- ---- -------<br>--- --- -- ----- -- --- ---- -- --- ---- -- ------ ------<br>--- ----- -- ----,160638.80000001192,160635.5,160186.902,160187.5,160203.758,160653.831,,1,it
screen,html.Screen,2_1_0_1_2,2022-05-02T10:17:43.349Z,,,,,,,,,,,,,,,,,53,,,,,,,,,,,,,,396.8689999880735,,response,,,,99,,,,,,,Space,keypress(Space),,,,,,,,---- -- comes -- ------ - ------- --- ----------<br>------------- ------ ------ ---- ---- ------- ----- -- ----<br>-------- ------- -- ---------- --- - --- ----- ----- ----<br>---- --- --- ----- --- ---- ---- ------- ----- ---- -------<br>--- --- -- ----- -- --- ---- -- --- ---- -- ------ ------<br>--- ----- -- ----,161053.80000001192,161050.69999998808,160636.951,160640,160653.831,161070.648,,2,comes
screen,html.Screen,2_1_0_1_3,2022-05-02T10:17:43.698Z,,,,,,,,,,,,,,,,,53,,,,,,,,,,,,,,329.65200001193443,,response,,,,99,,,,,,,Space,keypress(Space),,,,,,,,---- -- ----- to ------ - ------- --- ----------<br>------------- ------ ------ ---- ---- ------- ----- -- ----<br>-------- ------- -- ---------- --- - --- ----- ----- ----<br>---- --- --- ----- --- ---- ---- ------- ----- ---- -------<br>--- --- -- ----- -- --- ---- -- --- ---- -- ------ ------<br>--- ----- -- ----,161403.30000001192,161400.30000001192,161053.659,161054.90000003576,161070.648,161420.561,,3,to
screen,html.Screen,2_1_0_1_4,2022-05-02T10:17:44.083Z,,,,,,,,,,,,,,,,,53,,,,,,,,,,,,,,364.1389999880921,,response,,,,99,,,,,,,Space,keypress(Space),,,,,,,,---- -- ----- -- having - ------- --- ----------<br>------------- ------ ------ ---- ---- ------- ----- -- ----<br>-------- ------- -- ---------- --- - --- ----- ----- ----<br>---- --- --- ----- --- ---- ---- ------- ----- ---- -------<br>--- --- -- ----- -- --- ---- -- --- ---- -- ------ ------<br>--- ----- -- ----,161787.90000003576,161784.69999998808,161403.808,161404.40000003576,161420.561,161803.886,,4,having
screen,html.Screen,2_1_0_1_5,2022-05-02T10:17:44.398Z,,,,,,,,,,,,,,,,,53,,,,,,,,,,,,,,290.81399998808047,,response,,,,99,,,,,,,Space,keypress(Space),,,,,,,,---- -- ----- -- ------ a ------- --- ----------<br>------------- ------ ------ ---- ---- ------- ----- -- ----<br>-------- ------- -- ---------- --- - --- ----- ----- ----<br>---- --- --- ----- --- ---- ---- ------- ----- ---- -------<br>--- --- -- ----- -- --- ---- -- --- ---- -- ------ ------<br>--- ----- -- ----,162103.19999998808,162094.69999998808,161787.288,161789,161803.886,162120.72,,5,a
screen,html.Screen,2_1_0_1_6,2022-05-02T10:17:44.809Z,,,,,,,,,,,,,,,,,53,,,,,,,,,,,,,,390.27999999999884,,response,,,,99,,,,,,,Space,keypress(Space),,,,,,,,---- -- ----- -- ------ - lasting --- ----------<br>------------- ------ ------ ---- ---- ------- ----- -- ----<br>-------- ------- -- ---------- --- - --- ----- ----- ----<br>---- --- --- ----- --- ---- ---- ------- ----- ---- -------<br>--- --- -- ----- -- --- ---- -- --- ---- -- ------ ------<br>--- ----- -- ----,162514,162511,162104.022,162104.40000003576,162120.72,162520.583,,6,lasting
screen,html.Screen,2_1_0_1_7,2022-05-02T10:17:45.127Z,,,,,,,,,,,,,,,,,53,,,,,,,,,,,,,,308.6169999880658,,response,,,,99,,,,,,,Space,keypress(Space),,,,,,,,---- -- ----- -- ------ - ------- and ----------<br>------------- ------ ------ ---- ---- ------- ----- -- ----<br>-------- ------- -- ---------- --- - --- ----- ----- ----<br>---- --- --- ----- --- ---- ---- ------- ----- ---- -------<br>--- --- -- ----- -- --- ---- -- --- ---- -- ------ ------<br>--- ----- -- ----,162832.10000002384,162829.19999998808,162503.969,162515,162520.583,162864.321,,7,and
screen,html.Screen,2_1_0_1_8,2022-05-02T10:17:45.552Z,,,,,,,,,,,,,,,,,53,,,,,,,,,,,,,,389.2790000238456,,response,,,,99,,,,,,,Space,keypress(Space),,,,,,,,---- -- ----- -- ------ - ------- --- fulfilling<br>------------- ------ ------ ---- ---- ------- ----- -- ----<br>-------- ------- -- ---------- --- - --- ----- ----- ----<br>---- --- --- ----- --- ---- ---- ------- ----- ---- -------<br>--- --- -- ----- -- --- ---- -- --- ---- -- ------ ------<br>--- ----- -- ----,163257.40000003576,163253.60000002384,162820.73,162833.5,162864.321,163270.682,,8,fulfilling
screen,html.Screen,2_1_0_1_9,2022-05-02T10:17:45.923Z,,,,,,,,,,,,,,,,,53,,,,,,,,,,,,,,352.91800002384116,,response,,,,99,,,,,,,Space,keypress(Space),,,,,,,,"---- -- ----- -- ------ - ------- --- ----------<br>relationship, ------ ------ ---- ---- ------- ----- -- ----<br>-------- ------- -- ---------- --- - --- ----- ----- ----<br>---- --- --- ----- --- ---- ---- ------- ----- ---- -------<br>--- --- -- ----- -- --- ---- -- --- ---- -- ------ ------<br>--- ----- -- ----",163627.60000002384,163623.60000002384,163254.294,163258.5,163270.682,163637.444,,9,"relationship,"
screen,html.Screen,2_1_0_1_10,2022-05-02T10:17:46.287Z,,,,,,,,,,,,,,,,,53,,,,,,,,,,,,,,349.65600002385327,,response,,,,99,,,,,,,Space,keypress(Space),,,,,,,,---- -- ----- -- ------ - ------- --- ----------<br>------------- common ------ ---- ---- ------- ----- -- ----<br>-------- ------- -- ---------- --- - --- ----- ----- ----<br>---- --- --- ----- --- ---- ---- ------- ----- ---- -------<br>--- --- -- ----- -- --- ---- -- --- ---- -- ------ ------<br>--- ----- -- ----,163991.80000001192,163987.10000002384,163620.631,163628.69999998808,163637.444,164004.135,,10,common
screen,html.Screen,2_1_0_1_11,2022-05-02T10:17:46.633Z,,,,,,,,,,,,,,,,,53,,,,,,,,,,,,,,330.56499998806976,,response,,,,99,,,,,,,Space,keypress(Space),,,,,,,,---- -- ----- -- ------ - ------- --- ----------<br>------------- ------ wisdom ---- ---- ------- ----- -- ----<br>-------- ------- -- ---------- --- - --- ----- ----- ----<br>---- --- --- ----- --- ---- ---- ------- ----- ---- -------<br>--- --- -- ----- -- --- ---- -- --- ---- -- ------ ------<br>--- ----- -- ----,164338,164334.69999998808,163987.359,163992.90000003576,164004.135,164354.149,,11,wisdom
screen,html.Screen,2_1_0_1_12,2022-05-02T10:17:46.955Z,,,,,,,,,,,,,,,,,53,,,,,,,,,,,,,,301.95100002383697,,response,,,,99,,,,,,,Space,keypress(Space),,,,,,,,---- -- ----- -- ------ - ------- --- ----------<br>------------- ------ ------ says ---- ------- ----- -- ----<br>-------- ------- -- ---------- --- - --- ----- ----- ----<br>---- --- --- ----- --- ---- ---- ------- ----- ---- -------<br>--- --- -- ----- -- --- ---- -- --- ---- -- ------ ------<br>--- ----- -- ----,164659.5,164656.10000002384,164337.533,164339,164354.149,164670.671,,12,says
screen,html.Screen,2_1_0_1_13,2022-05-02T10:17:47.353Z,,,,,,,,,,,,,,,,,53,,,,,,,,,,,,,,383.8289999999979,,response,,,,99,,,,,,,Space,keypress(Space),,,,,,,,---- -- ----- -- ------ - ------- --- ----------<br>------------- ------ ------ ---- that ------- ----- -- ----<br>-------- ------- -- ---------- --- - --- ----- ----- ----<br>---- --- --- ----- --- ---- ---- ------- ----- ---- -------<br>--- --- -- ----- -- --- ---- -- --- ---- -- ------ ------<br>--- ----- -- ----,165057.80000001192,165054.5,164653.949,164660.40000003576,164670.671,165070.741,,13,that
screen,html.Screen,2_1_0_1_14,2022-05-02T10:17:47.636Z,,,,,,,,,,,,,,,,,53,,,,,,,,,,,,,,266.2589999999909,,response,,,,99,,,,,,,Space,keypress(Space),,,,,,,,---- -- ----- -- ------ - ------- --- ----------<br>------------- ------ ------ ---- ---- feeling ----- -- ----<br>-------- ------- -- ---------- --- - --- ----- ----- ----<br>---- --- --- ----- --- ---- ---- ------- ----- ---- -------<br>--- --- -- ----- -- --- ---- -- --- ---- -- ------ ------<br>--- ----- -- ----,165340.80000001192,165337,165053.987,165058.90000003576,165070.741,165354.206,,14,feeling
screen,html.Screen,2_1_0_1_15,2022-05-02T10:17:48.001Z,,,,,,,,,,,,,,,,,53,,,,,,,,,,,,,,347.4939999880735,,response,,,,99,,,,,,,Space,keypress(Space),,,,,,,,---- -- ----- -- ------ - ------- --- ----------<br>------------- ------ ------ ---- ---- ------- close -- ----<br>-------- ------- -- ---------- --- - --- ----- ----- ----<br>---- --- --- ----- --- ---- ---- ------- ----- ---- -------<br>--- --- -- ----- -- --- ---- -- --- ---- -- ------ ------<br>--- ----- -- ----,165706,165701.69999998808,165337.373,165341.80000001192,165354.206,165720.693,,15,close
screen,html.Screen,2_1_0_1_16,2022-05-02T10:17:48.330Z,,,,,,,,,,,,,,,,,53,,,,,,,,,,,,,,310.8070000000007,,response,,,,99,,,,,,,Space,keypress(Space),,,,,,,,---- -- ----- -- ------ - ------- --- ----------<br>------------- ------ ------ ---- ---- ------- ----- to ----<br>-------- ------- -- ---------- --- - --- ----- ----- ----<br>---- --- --- ----- --- ---- ---- ------- ----- ---- -------<br>--- --- -- ----- -- --- ---- -- --- ---- -- ------ ------<br>--- ----- -- ----,166035.10000002384,166031.5,165704.067,165707.19999998808,165720.693,166054.193,,16,to
screen,html.Screen,2_1_0_1_17,2022-05-02T10:17:48.682Z,,,,,,,,,,,,,,,,,53,,,,,,,,,,,,,,329.2070000357635,,response,,,,99,,,,,,,Space,keypress(Space),,,,,,,,---- -- ----- -- ------ - ------- --- ----------<br>------------- ------ ------ ---- ---- ------- ----- -- your<br>-------- ------- -- ---------- --- - --- ----- ----- ----<br>---- --- --- ----- --- ---- ---- ------- ----- ---- -------<br>--- --- -- ----- -- --- ---- -- --- ---- -- ------ ------<br>--- ----- -- ----,166386.60000002384,166383.40000003576,166037.606,166036.10000002384,166054.193,166403.955,,17,your
screen,html.Screen,2_1_0_1_18,2022-05-02T10:17:49.005Z,,,,,,,,,,,,,,,,,53,,,,,,,,,,,,,,301.4450000357756,,response,,,,99,,,,,,,Space,keypress(Space),,,,,,,,---- -- ----- -- ------ - ------- --- ----------<br>------------- ------ ------ ---- ---- ------- ----- -- ----<br>romantic ------- -- ---------- --- - --- ----- ----- ----<br>---- --- --- ----- --- ---- ---- ------- ----- ---- -------<br>--- --- -- ----- -- --- ---- -- --- ---- -- ------ ------<br>--- ----- -- ----,166709.90000003576,166705.40000003576,166387.351,166387.69999998808,166403.955,166720.804,,18,romantic
screen,html.Screen,2_1_0_1_19,2022-05-02T10:17:49.332Z,,,,,,,,,,,,,,,,,53,,,,,,,,,,,,,,312.6959999999963,,response,,,,99,,,,,,,Space,keypress(Space),,,,,,,,---- -- ----- -- ------ - ------- --- ----------<br>------------- ------ ------ ---- ---- ------- ----- -- ----<br>-------- partner -- ---------- --- - --- ----- ----- ----<br>---- --- --- ----- --- ---- ---- ------- ----- ---- -------<br>--- --- -- ----- -- --- ---- -- --- ---- -- ------ ------<br>--- ----- -- ----,167036.90000003576,167033.5,166703.93,166711,166720.804,167054.272,,19,partner
screen,html.Screen,2_1_0_1_20,2022-05-02T10:17:49.646Z,,,,,,,,,,,,,,,,,53,,,,,,,,,,,,,,293.42799998808187,,response,,,,99,,,,,,,Space,keypress(Space),,,,,,,,---- -- ----- -- ------ - ------- --- ----------<br>------------- ------ ------ ---- ---- ------- ----- -- ----<br>-------- ------- is ---------- --- - --- ----- ----- ----<br>---- --- --- ----- --- ---- ---- ------- ----- ---- -------<br>--- --- -- ----- -- --- ---- -- --- ---- -- ------ ------<br>--- ----- -- ----,167350.90000003576,167347.69999998808,167037.445,167037.90000003576,167054.272,167370.778,,20,is
screen,html.Screen,2_1_0_1_21,2022-05-02T10:17:49.939Z,,,,,,,,,,,,,,,,,53,,,,,,,,,,,,,,269.9219999880879,,response,,,,99,,,,,,,Space,keypress(Space),,,,,,,,---- -- ----- -- ------ - ------- --- ----------<br>------------- ------ ------ ---- ---- ------- ----- -- ----<br>-------- ------- -- paramount. --- - --- ----- ----- ----<br>---- --- --- ----- --- ---- ---- ------- ----- ---- -------<br>--- --- -- ----- -- --- ---- -- --- ---- -- ------ ------<br>--- ----- -- ----,167644,167640.69999998808,167354.191,167351.90000003576,167370.778,167654.131,,21,paramount.
screen,html.Screen,2_1_0_1_22,2022-05-02T10:17:50.286Z,,,,,,,,,,,,,,,,,53,,,,,,,,,,,,,,333.669000011927,,response,,,,99,,,,,,,Space,keypress(Space),,,,,,,,---- -- ----- -- ------ - ------- --- ----------<br>------------- ------ ------ ---- ---- ------- ----- -- ----<br>-------- ------- -- ---------- But - --- ----- ----- ----<br>---- --- --- ----- --- ---- ---- ------- ----- ---- -------<br>--- --- -- ----- -- --- ---- -- --- ---- -- ------ ------<br>--- ----- -- ----,167991.19999998808,167987.80000001192,167637.436,167645,167654.131,168004.145,,22,But
screen,html.Screen,2_1_0_1_23,2022-05-02T10:17:50.611Z,,,,,,,,,,,,,,,,,53,,,,,,,,,,,,,,309.55499998808955,,response,,,,99,,,,,,,Space,keypress(Space),,,,,,,,---- -- ----- -- ------ - ------- --- ----------<br>------------- ------ ------ ---- ---- ------- ----- -- ----<br>-------- ------- -- ---------- --- a --- ----- ----- ----<br>---- --- --- ----- --- ---- ---- ------- ----- ---- -------<br>--- --- -- ----- -- --- ---- -- --- ---- -- ------ ------<br>--- ----- -- ----,168315.90000003576,168313.69999998808,167987.488,167992.19999998808,168004.145,168320.647,,23,a
screen,html.Screen,2_1_0_1_24,2022-05-02T10:17:50.942Z,,,,,,,,,,,,,,,,,53,,,,,,,,,,,,,,322.3530000000028,,response,,,,99,,,,,,,Space,keypress(Space),,,,,,,,---- -- ----- -- ------ - ------- --- ----------<br>------------- ------ ------ ---- ---- ------- ----- -- ----<br>-------- ------- -- ---------- --- - new ----- ----- ----<br>---- --- --- ----- --- ---- ---- ------- ----- ---- -------<br>--- --- -- ----- -- --- ---- -- --- ---- -- ------ ------<br>--- ----- -- ----,168646.80000001192,168643,168303.99,168316.5,168320.647,168654.042,,24,new
screen,html.Screen,2_1_0_1_25,2022-05-02T10:17:51.261Z,,,,,,,,,,,,,,,,,53,,,,,,,,,,,,,,308.15799998809234,,response,,,,99,,,,,,,Space,keypress(Space),,,,,,,,---- -- ----- -- ------ - ------- --- ----------<br>------------- ------ ------ ---- ---- ------- ----- -- ----<br>-------- ------- -- ---------- --- - --- study ----- ----<br>---- --- --- ----- --- ---- ---- ------- ----- ---- -------<br>--- --- -- ----- -- --- ---- -- --- ---- -- ------ ------<br>--- ----- -- ----,168966.19999998808,168962.19999998808,168637.262,168647.80000001192,168654.042,169004.02,,25,study
screen,html.Screen,2_1_0_1_26,2022-05-02T10:17:51.591Z,,,,,,,,,,,,,,,,,53,,,,,,,,,,,,,,289.67999998808955,,response,,,,99,,,,,,,Space,keypress(Space),,,,,,,,---- -- ----- -- ------ - ------- --- ----------<br>------------- ------ ------ ---- ---- ------- ----- -- ----<br>-------- ------- -- ---------- --- - --- ----- finds ----<br>---- --- --- ----- --- ---- ---- ------- ----- ---- -------<br>--- --- -- ----- -- --- ---- -- --- ---- -- ------ ------<br>--- ----- -- ----,169296.30000001192,169293.69999998808,168987.436,168967.30000001192,169004.02,169304.139,,26,finds
screen,html.Screen,2_1_0_1_27,2022-05-02T10:17:51.951Z,,,,,,,,,,,,,,,,,53,,,,,,,,,,,,,,347.9610000238463,,response,,,,99,,,,,,,Space,keypress(Space),,,,,,,,---- -- ----- -- ------ - ------- --- ----------<br>------------- ------ ------ ---- ---- ------- ----- -- ----<br>-------- ------- -- ---------- --- - --- ----- ----- that<br>---- --- --- ----- --- ---- ---- ------- ----- ---- -------<br>--- --- -- ----- -- --- ---- -- --- ---- -- ------ ------<br>--- ----- -- ----,169655.69999998808,169652.10000002384,169287.414,169297,169304.139,169671.016,,27,that
screen,html.Screen,2_1_0_1_28,2022-05-02T10:17:52.282Z,,,,,,,,,,,,,,,,,53,,,,,,,,,,,,,,312.78400001191767,,response,,,,99,,,,,,,Space,keypress(Space),,,,,,,,---- -- ----- -- ------ - ------- --- ----------<br>------------- ------ ------ ---- ---- ------- ----- -- ----<br>-------- ------- -- ---------- --- - --- ----- ----- ----<br>it's --- --- ----- --- ---- ---- ------- ----- ---- -------<br>--- --- -- ----- -- --- ---- -- --- ---- -- ------ ------<br>--- ----- -- ----,169987,169983.80000001192,169653.985,169656.80000001192,169671.016,170004.36,,28,it's
screen,html.Screen,2_1_0_1_29,2022-05-02T10:17:52.610Z,,,,,,,,,,,,,,,,,53,,,,,,,,,,,,,,307.04000003577676,,response,,,,99,,,,,,,Space,keypress(Space),,,,,,,,---- -- ----- -- ------ - ------- --- ----------<br>------------- ------ ------ ---- ---- ------- ----- -- ----<br>-------- ------- -- ---------- --- - --- ----- ----- ----<br>---- not --- ----- --- ---- ---- ------- ----- ---- -------<br>--- --- -- ----- -- --- ---- -- --- ---- -- ------ ------<br>--- ----- -- ----,170314.69999998808,170311.40000003576,169987.602,169988.10000002384,170004.36,170320.89,,29,not
screen,html.Screen,2_1_0_1_30,2022-05-02T10:17:52.947Z,,,,,,,,,,,,,,,,,53,,,,,,,,,,,,,,326.2100000238279,,response,,,,99,,,,,,,Space,keypress(Space),,,,,,,,---- -- ----- -- ------ - ------- --- ----------<br>------------- ------ ------ ---- ---- ------- ----- -- ----<br>-------- ------- -- ---------- --- - --- ----- ----- ----<br>---- --- how ----- --- ---- ---- ------- ----- ---- -------<br>--- --- -- ----- -- --- ---- -- --- ---- -- ------ ------<br>--- ----- -- ----,170652.30000001192,170647.10000002384,170304.294,170315.60000002384,170320.89,170670.911,,30,how
screen,html.Screen,2_1_0_1_31,2022-05-02T10:17:53.285Z,,,,,,,,,,,,,,,,,53,,,,,,,,,,,,,,312.38900001192815,,response,,,,99,,,,,,,Space,keypress(Space),,,,,,,,---- -- ----- -- ------ - ------- --- ----------<br>------------- ------ ------ ---- ---- ------- ----- -- ----<br>-------- ------- -- ---------- --- - --- ----- ----- ----<br>---- --- --- close --- ---- ---- ------- ----- ---- -------<br>--- --- -- ----- -- --- ---- -- --- ---- -- ------ ------<br>--- ----- -- ----,170989.80000001192,170983.30000001192,170654.089,170653.30000001192,170670.911,171004.285,,31,close
screen,html.Screen,2_1_0_1_32,2022-05-02T10:17:53.597Z,,,,,,,,,,,,,,,,,53,,,,,,,,,,,,,,294.1150000357593,,response,,,,99,,,,,,,Space,keypress(Space),,,,,,,,---- -- ----- -- ------ - ------- --- ----------<br>------------- ------ ------ ---- ---- ------- ----- -- ----<br>-------- ------- -- ---------- --- - --- ----- ----- ----<br>---- --- --- ----- you ---- ---- ------- ----- ---- -------<br>--- --- -- ----- -- --- ---- -- --- ---- -- ------ ------<br>--- ----- -- ----,171302,171298.40000003576,170987.466,170991,171004.285,171320.963,,32,you
screen,html.Screen,2_1_0_1_33,2022-05-02T10:17:53.928Z,,,,,,,,,,,,,,,,,53,,,,,,,,,,,,,,307.3370000119321,,response,,,,99,,,,,,,Space,keypress(Space),,,,,,,,---- -- ----- -- ------ - ------- --- ----------<br>------------- ------ ------ ---- ---- ------- ----- -- ----<br>-------- ------- -- ---------- --- - --- ----- ----- ----<br>---- --- --- ----- --- feel ---- ------- ----- ---- -------<br>--- --- -- ----- -- --- ---- -- --- ---- -- ------ ------<br>--- ----- -- ----,171632.5,171628.30000001192,171304.089,171303.5,171320.963,171637.488,,33,feel
screen,html.Screen,2_1_0_1_34,2022-05-02T10:17:54.244Z,,,,,,,,,,,,,,,,,53,,,,,,,,,,,,,,308.11200002382975,,response,,,,99,,,,,,,Space,keypress(Space),,,,,,,,---- -- ----- -- ------ - ------- --- ----------<br>------------- ------ ------ ---- ---- ------- ----- -- ----<br>-------- ------- -- ---------- --- - --- ----- ----- ----<br>---- --- --- ----- --- ---- that ------- ----- ---- -------<br>--- --- -- ----- -- --- ---- -- --- ---- -- ------ ------<br>--- ----- -- ----,171948.80000001192,171945.60000002384,171620.884,171633.5,171637.488,171954.206,,34,that
screen,html.Screen,2_1_0_1_35,2022-05-02T10:17:54.550Z,,,,,,,,,,,,,,,,,53,,,,,,,,,,,,,,297.09400001191534,,response,,,,99,,,,,,,Space,keypress(Space),,,,,,,,---- -- ----- -- ------ - ------- --- ----------<br>------------- ------ ------ ---- ---- ------- ----- -- ----<br>-------- ------- -- ---------- --- - --- ----- ----- ----<br>---- --- --- ----- --- ---- ---- matters ----- ---- -------<br>--- --- -- ----- -- --- ---- -- --- ---- -- ------ ------<br>--- ----- -- ----,172254.60000002384,172251.30000001192,171937.495,171949.90000003576,171954.206,172270.951,,35,matters
screen,html.Screen,2_1_0_1_36,2022-05-02T10:17:54.881Z,,,,,,,,,,,,,,,,,53,,,,,,,,,,,,,,312.34900001192,,response,,,,99,,,,,,,Space,keypress(Space),,,,,,,,"---- -- ----- -- ------ - ------- --- ----------<br>------------- ------ ------ ---- ---- ------- ----- -- ----<br>-------- ------- -- ---------- --- - --- ----- ----- ----<br>---- --- --- ----- --- ---- ---- ------- most, ---- -------<br>--- --- -- ----- -- --- ---- -- --- ---- -- ------ ------<br>--- ----- -- ----",172585.5,172583.30000001192,172254.109,172255.60000002384,172270.951,172619.209,,36,"most,"
screen,html.Screen,2_1_0_1_37,2022-05-02T10:17:55.230Z,,,,,,,,,,,,,,,,,53,,,,,,,,,,,,,,311.29099999999744,,response,,,,99,,,,,,,Space,keypress(Space),,,,,,,,---- -- ----- -- ------ - ------- --- ----------<br>------------- ------ ------ ---- ---- ------- ----- -- ----<br>-------- ------- -- ---------- --- - --- ----- ----- ----<br>---- --- --- ----- --- ---- ---- ------- ----- it's -------<br>--- --- -- ----- -- --- ---- -- --- ---- -- ------ ------<br>--- ----- -- ----,172934.69999998808,172930.5,172570.887,172586,172619.209,172970.878,,37,it's
screen,html.Screen,2_1_0_1_38,2022-05-02T10:17:55.619Z,,,,,,,,,,,,,,,,,53,,,,,,,,,,,,,,349.42200001192396,,response,,,,99,,,,,,,Space,keypress(Space),,,,,,,,---- -- ----- -- ------ - ------- --- ----------<br>------------- ------ ------ ---- ---- ------- ----- -- ----<br>-------- ------- -- ---------- --- - --- ----- ----- ----<br>---- --- --- ----- --- ---- ---- ------- ----- ---- whether<br>--- --- -- ----- -- --- ---- -- --- ---- -- ------ ------<br>--- ----- -- ----,173323.40000003576,173320.30000001192,172954.337,172935.80000001192,172970.878,173337.657,,38,whether
screen,html.Screen,2_1_0_1_39,2022-05-02T10:17:55.975Z,,,,,,,,,,,,,,,,,53,,,,,,,,,,,,,,338.6430000119144,,response,,,,99,,,,,,,Space,keypress(Space),,,,,,,,---- -- ----- -- ------ - ------- --- ----------<br>------------- ------ ------ ---- ---- ------- ----- -- ----<br>-------- ------- -- ---------- --- - --- ----- ----- ----<br>---- --- --- ----- --- ---- ---- ------- ----- ---- -------<br>you --- -- ----- -- --- ---- -- --- ---- -- ------ ------<br>--- ----- -- ----,173679.80000001192,173676.30000001192,173320.872,173324.5,173337.657,173687.684,,39,you
screen,html.Screen,2_1_0_1_40,2022-05-02T10:17:56.297Z,,,,,,,,,,,,,,,,,53,,,,,,,,,,,,,,310.7160000357544,,response,,,,99,,,,,,,Space,keypress(Space),,,,,,,,---- -- ----- -- ------ - ------- --- ----------<br>------------- ------ ------ ---- ---- ------- ----- -- ----<br>-------- ------- -- ---------- --- - --- ----- ----- ----<br>---- --- --- ----- --- ---- ---- ------- ----- ---- -------<br>--- are -- ----- -- --- ---- -- --- ---- -- ------ ------<br>--- ----- -- ----,174001.60000002384,173998.40000003576,173671.139,173680.80000001192,173687.684,174037.524,,40,are
screen,html.Screen,2_1_0_1_41,2022-05-02T10:17:56.607Z,,,,,,,,,,,,,,,,,53,,,,,,,,,,,,,,271.3760000357579,,response,,,,99,,,,,,,Space,keypress(Space),,,,,,,,---- -- ----- -- ------ - ------- --- ----------<br>------------- ------ ------ ---- ---- ------- ----- -- ----<br>-------- ------- -- ---------- --- - --- ----- ----- ----<br>---- --- --- ----- --- ---- ---- ------- ----- ---- -------<br>--- --- as ----- -- --- ---- -- --- ---- -- ------ ------<br>--- ----- -- ----,174312.30000001192,174308.90000003576,174021.431,174002.5,174037.524,174321.111,,41,as
screen,html.Screen,2_1_0_1_42,2022-05-02T10:17:56.934Z,,,,,,,,,,,,,,,,,53,,,,,,,,,,,,,,314.3889999999956,,response,,,,99,,,,,,,Space,keypress(Space),,,,,,,,---- -- ----- -- ------ - ------- --- ----------<br>------------- ------ ------ ---- ---- ------- ----- -- ----<br>-------- ------- -- ---------- --- - --- ----- ----- ----<br>---- --- --- ----- --- ---- ---- ------- ----- ---- -------<br>--- --- -- close -- --- ---- -- --- ---- -- ------ ------<br>--- ----- -- ----,174638.69999998808,174635.5,174304.449,174313.30000001192,174321.111,174654.444,,42,close
screen,html.Screen,2_1_0_1_43,2022-05-02T10:17:57.261Z,,,,,,,,,,,,,,,,,53,,,,,,,,,,,,,,307.85600001193234,,response,,,,99,,,,,,,Space,keypress(Space),,,,,,,,---- -- ----- -- ------ - ------- --- ----------<br>------------- ------ ------ ---- ---- ------- ----- -- ----<br>-------- ------- -- ---------- --- - --- ----- ----- ----<br>---- --- --- ----- --- ---- ---- ------- ----- ---- -------<br>--- --- -- ----- as --- ---- -- --- ---- -- ------ ------<br>--- ----- -- ----,174965.5,174962.30000001192,174637.604,174640,174654.444,174971.003,,43,as
screen,html.Screen,2_1_0_1_44,2022-05-02T10:17:57.558Z,,,,,,,,,,,,,,,,,53,,,,,,,,,,,,,,288.79700001192396,,response,,,,99,,,,,,,Space,keypress(Space),,,,,,,,---- -- ----- -- ------ - ------- --- ----------<br>------------- ------ ------ ---- ---- ------- ----- -- ----<br>-------- ------- -- ---------- --- - --- ----- ----- ----<br>---- --- --- ----- --- ---- ---- ------- ----- ---- -------<br>--- --- -- ----- -- you ---- -- --- ---- -- ------ ------<br>--- ----- -- ----,175263,175259.80000001192,174954.743,174966.69999998808,174971.003,175271.21,,44,you
screen,html.Screen,2_1_0_1_45,2022-05-02T10:17:57.876Z,,,,,,,,,,,,,,,,,53,,,,,,,,,,,,,,305.79000000000815,,response,,,,99,,,,,,,Space,keypress(Space),,,,,,,,---- -- ----- -- ------ - ------- --- ----------<br>------------- ------ ------ ---- ---- ------- ----- -- ----<br>-------- ------- -- ---------- --- - --- ----- ----- ----<br>---- --- --- ----- --- ---- ---- ------- ----- ---- -------<br>--- --- -- ----- -- --- want -- --- ---- -- ------ ------<br>--- ----- -- ----,175580.69999998808,175577,175254.363,175263.90000003576,175271.21,175587.721,,45,want
screen,html.Screen,2_1_0_1_46,2022-05-02T10:17:58.195Z,,,,,,,,,,,,,,,,,53,,,,,,,,,,,,,,308.9789999880886,,response,,,,99,,,,,,,Space,keypress(Space),,,,,,,,---- -- ----- -- ------ - ------- --- ----------<br>------------- ------ ------ ---- ---- ------- ----- -- ----<br>-------- ------- -- ---------- --- - --- ----- ----- ----<br>---- --- --- ----- --- ---- ---- ------- ----- ---- -------<br>--- --- -- ----- -- --- ---- to --- ---- -- ------ ------<br>--- ----- -- ----,175900.40000003576,175896.69999998808,175571.036,175581.80000001192,175587.721,175904.356,,46,to
screen,html.Screen,2_1_0_1_47,2022-05-02T10:17:58.525Z,,,,,,,,,,,,,,,,,53,,,,,,,,,,,,,,322.044000035763,,response,,,,99,,,,,,,Space,keypress(Space),,,,,,,,"---- -- ----- -- ------ - ------- --- ----------<br>------------- ------ ------ ---- ---- ------- ----- -- ----<br>-------- ------- -- ---------- --- - --- ----- ----- ----<br>---- --- --- ----- --- ---- ---- ------- ----- ---- -------<br>--- --- -- ----- -- --- ---- -- be, ---- -- ------ ------<br>--- ----- -- ----",176229.90000003576,176226.40000003576,175887.828,175901.40000003576,175904.356,176237.823,,47,"be,"
screen,html.Screen,2_1_0_1_48,2022-05-02T10:17:58.808Z,,,,,,,,,,,,,,,,,53,,,,,,,,,,,,,,273.7770000238379,,response,,,,99,,,,,,,Space,keypress(Space),,,,,,,,---- -- ----- -- ------ - ------- --- ----------<br>------------- ------ ------ ---- ---- ------- ----- -- ----<br>-------- ------- -- ---------- --- - --- ----- ----- ----<br>---- --- --- ----- --- ---- ---- ------- ----- ---- -------<br>--- --- -- ----- -- --- ---- -- --- even -- ------ ------<br>--- ----- -- ----,176513,176511.60000002384,176221.246,176230.90000003576,176237.823,176521.046,,48,even
screen,html.Screen,2_1_0_1_49,2022-05-02T10:17:59.165Z,,,,,,,,,,,,,,,,,53,,,,,,,,,,,,,,346.05400002383976,,response,,,,99,,,,,,,Space,keypress(Space),,,,,,,,---- -- ----- -- ------ - ------- --- ----------<br>------------- ------ ------ ---- ---- ------- ----- -- ----<br>-------- ------- -- ---------- --- - --- ----- ----- ----<br>---- --- --- ----- --- ---- ---- ------- ----- ---- -------<br>--- --- -- ----- -- --- ---- -- --- ---- if ------ ------<br>--- ----- -- ----,176870.40000003576,176867.10000002384,176504.468,176513.19999998808,176521.046,176887.841,,49,if
screen,html.Screen,2_1_0_1_50,2022-05-02T10:17:59.484Z,,,,,,,,,,,,,,,,,53,,,,,,,,,,,,,,297.3589999880933,,response,,,,99,,,,,,,Space,keypress(Space),,,,,,,,---- -- ----- -- ------ - ------- --- ----------<br>------------- ------ ------ ---- ---- ------- ----- -- ----<br>-------- ------- -- ---------- --- - --- ----- ----- ----<br>---- --- --- ----- --- ---- ---- ------- ----- ---- -------<br>--- --- -- ----- -- --- ---- -- --- ---- -- that's ------<br>--- ----- -- ----,177188.40000003576,177185.19999998808,176870.915,176871.40000003576,176887.841,177204.439,,50,that's
screen,html.Screen,2_1_0_1_51,2022-05-02T10:17:59.829Z,,,,,,,,,,,,,,,,,53,,,,,,,,,,,,,,325.6610000238288,,response,,,,99,,,,,,,Space,keypress(Space),,,,,,,,---- -- ----- -- ------ - ------- --- ----------<br>------------- ------ ------ ---- ---- ------- ----- -- ----<br>-------- ------- -- ---------- --- - --- ----- ----- ----<br>---- --- --- ----- --- ---- ---- ------- ----- ---- -------<br>--- --- -- ----- -- --- ---- -- --- ---- -- ------ really<br>--- ----- -- ----,177533.40000003576,177530.10000002384,177187.834,177189.5,177204.439,177537.858,,51,really
screen,html.Screen,2_1_0_1_52,2022-05-02T10:18:00.165Z,,,,,,,,,,,,,,,,,53,,,,,,,,,,,,,,329.04200003575534,,response,,,,99,,,,,,,Space,keypress(Space),,,,,,,,---- -- ----- -- ------ - ------- --- ----------<br>------------- ------ ------ ---- ---- ------- ----- -- ----<br>-------- ------- -- ---------- --- - --- ----- ----- ----<br>---- --- --- ----- --- ---- ---- ------- ----- ---- -------<br>--- --- -- ----- -- --- ---- -- --- ---- -- ------ ------<br>not ----- -- ----,177870.10000002384,177866.90000003576,177521.002,177534.40000003576,177537.858,177887.717,,52,not
screen,html.Screen,2_1_0_1_53,2022-05-02T10:18:00.503Z,,,,,,,,,,,,,,,,,53,,,,,,,,,,,,,,317.08300001191674,,response,,,,99,,,,,,,Space,keypress(Space),,,,,,,,---- -- ----- -- ------ - ------- --- ----------<br>------------- ------ ------ ---- ---- ------- ----- -- ----<br>-------- ------- -- ---------- --- - --- ----- ----- ----<br>---- --- --- ----- --- ---- ---- ------- ----- ---- -------<br>--- --- -- ----- -- --- ---- -- --- ---- -- ------ ------<br>--- close -- ----,178208.10000002384,178204.80000001192,177871.164,177871.19999998808,177887.717,178221.316,,53,close
screen,html.Screen,2_1_0_1_54,2022-05-02T10:18:00.860Z,,,,,,,,,,,,,,,,,53,,,,,,,,,,,,,,340.38399998808745,,response,,,,99,,,,,,,Space,keypress(Space),,,,,,,,---- -- ----- -- ------ - ------- --- ----------<br>------------- ------ ------ ---- ---- ------- ----- -- ----<br>-------- ------- -- ---------- --- - --- ----- ----- ----<br>---- --- --- ----- --- ---- ---- ------- ----- ---- -------<br>--- --- -- ----- -- --- ---- -- --- ---- -- ------ ------<br>--- ----- at ----,178565,178561.69999998808,178204.594,178209.10000002384,178221.316,178571.345,,54,at
screen,html.Screen,2_1_0_1_55,2022-05-02T10:18:01.458Z,,,,,,,,,,,,,,,,,53,,,,,,,,,,,,,,587.9550000119198,,response,,,,99,,,,,,,Space,keypress(Space),,,,,,,,---- -- ----- -- ------ - ------- --- ----------<br>------------- ------ ------ ---- ---- ------- ----- -- ----<br>-------- ------- -- ---------- --- - --- ----- ----- ----<br>---- --- --- ----- --- ---- ---- ------- ----- ---- -------<br>--- --- -- ----- -- --- ---- -- --- ---- -- ------ ------<br>--- ----- -- all.,179162.5,179159.30000001192,178554.587,178566,178571.345,179204.436,,55,all.
Item 99,flow.Loop,2_1_0_1,2022-05-02T10:18:01.460Z,,,,,,,,,,,,,,,,,,,,,,,,,,,,,,,19855.595000011934,,completion,,,,,E,,,,,,,,,,,silence,,,,,179164.69999998808,179159.30000001192,159037.134,159041,159303.705,179204.436,,,
Question 1,html.Screen,2_1_0_2,2022-05-02T10:18:07.886Z,,,,,,,,,,,,,,,,,,,,,,,,,,,,true,FALSE,,6383.664000023855,,response,,,,99,E,,,,,,FALSE,click #choice-2,,,,silence,,,,,185590.80000001192,185588.10000002384,179154.632,179165.90000003576,179204.436,185604.818,,,
Question 2,html.Screen,2_1_0_3,2022-05-02T10:18:13.636Z,,,,,,,,,,,,,,,,,,,,,,,,,,,,true,TRUE,,5732.482000011922,,response,,,,99,E,,,,,,TRUE,click #choice-1,,,,silence,,,,,191340.40000003576,191337.30000001192,185588.057,185591.30000001192,185604.818,191354.801,,,
Item 99,flow.Sequence,2_1_0,2022-05-02T10:18:13.636Z,,,,,,,,,,,,,,,,,,,,,,,,,,,,,,,42284.03400001192,,completion,,,,,,,,,,,,,,,,,,,,,191341.10000002384,191337.30000001192,148986.622,149045.40000003576,149053.266,191354.801,,,
Holding screen,html.Screen,2_1_1_0,2022-05-02T10:18:23.636Z,,,,,,,,,,,,,,,,,,,,,,,,,,,,,,,10000.443999999989,,timeout,,,,,,,,,,,,,,,,,,,,,201341.30000001192,201338.751,191338.463,191342.10000002384,191354.801,201355.245,,,
screen,html.Screen,2_1_1_1_0,2022-05-02T10:18:24.284Z,,,,,,,,,,,,,,,,,54,,,,,,,,,,,,,,629.9549999880837,,response,,,,100,,,,,,,Space,keypress(Space),,,,,,,,At --- ---- --- ------ ----- ------- ---- -- --- ------- --<br>------- ---------- ------ -- ----- -- ----- -- ---- ------<br>--- ----- --- --- ------ -------- ----- --- ------ ----- --<br>----- ----- ---------- --- --- ------ ------ ---- -- ------<br>------- --- ------ ----- --- ---- ------- -- ---- --- --<br>------- ------,201989.40000003576,201985.19999998808,201338.751,201342.69999998808,201355.245,201988.713,,0,At
screen,html.Screen,2_1_1_1_1,2022-05-02T10:18:24.616Z,,,,,,,,,,,,,,,,,54,,,,,,,,,,,,,,329.5870000119321,,response,,,,100,,,,,,,Space,keypress(Space),,,,,,,,-- the ---- --- ------ ----- ------- ---- -- --- ------- --<br>------- ---------- ------ -- ----- -- ----- -- ---- ------<br>--- ----- --- --- ------ -------- ----- --- ------ ----- --<br>----- ----- ---------- --- --- ------ ------ ---- -- ------<br>------- --- ------ ----- --- ---- ------- -- ---- --- --<br>------- ------,202321.19999998808,202318.30000001192,201971.835,201990.5,201988.713,202338.705,,1,the
screen,html.Screen,2_1_1_1_2,2022-05-02T10:18:24.873Z,,,,,,,,,,,,,,,,,54,,,,,,,,,,,,,,236.1950000357756,,response,,,,100,,,,,,,Space,keypress(Space),,,,,,,,-- --- time --- ------ ----- ------- ---- -- --- ------- --<br>------- ---------- ------ -- ----- -- ----- -- ---- ------<br>--- ----- --- --- ------ -------- ----- --- ------ ----- --<br>----- ----- ---------- --- --- ------ ------ ---- -- ------<br>------- --- ------ ----- --- ---- ------- -- ---- --- --<br>------- ------,202577.90000003576,202574.90000003576,202321.829,202322.30000001192,202338.705,202588.797,,2,time
screen,html.Screen,2_1_1_1_3,2022-05-02T10:18:25.157Z,,,,,,,,,,,,,,,,,54,,,,,,,,,,,,,,270.50300001192954,,response,,,,100,,,,,,,Space,keypress(Space),,,,,,,,-- --- ---- the ------ ----- ------- ---- -- --- ------- --<br>------- ---------- ------ -- ----- -- ----- -- ---- ------<br>--- ----- --- --- ------ -------- ----- --- ------ ----- --<br>----- ----- ---------- --- --- ------ ------ ---- -- ------<br>------- --- ------ ----- --- ---- ------- -- ---- --- --<br>------- ------,202862.10000002384,202859.30000001192,202572.133,202578.90000003576,202588.797,202872.11,,3,the
screen,html.Screen,2_1_1_1_4,2022-05-02T10:18:25.388Z,,,,,,,,,,,,,,,,,54,,,,,,,,,,,,,,217.08999998809304,,response,,,,100,,,,,,,Space,keypress(Space),,,,,,,,-- --- ---- --- French ----- ------- ---- -- --- ------- --<br>------- ---------- ------ -- ----- -- ----- -- ---- ------<br>--- ----- --- --- ------ -------- ----- --- ------ ----- --<br>----- ----- ---------- --- --- ------ ------ ---- -- ------<br>------- --- ------ ----- --- ---- ------- -- ---- --- --<br>------- ------,203092.40000003576,203089.19999998808,202855.434,202863.19999998808,202872.11,203105.4,,4,French
screen,html.Screen,2_1_1_1_5,2022-05-02T10:18:25.685Z,,,,,,,,,,,,,,,,,54,,,,,,,,,,,,,,281.90000001192675,,response,,,,100,,,,,,,Space,keypress(Space),,,,,,,,-- --- ---- --- ------ crown ------- ---- -- --- ------- --<br>------- ---------- ------ -- ----- -- ----- -- ---- ------<br>--- ----- --- --- ------ -------- ----- --- ------ ----- --<br>----- ----- ---------- --- --- ------ ------ ---- -- ------<br>------- --- ------ ----- --- ---- ------- -- ---- --- --<br>------- ------,203390.30000001192,203387.30000001192,203088.651,203093.40000003576,203105.4,203405.307,,5,crown
screen,html.Screen,2_1_1_1_6,2022-05-02T10:18:26.132Z,,,,,,,,,,,,,,,,,54,,,,,,,,,,,,,,428.5930000357621,,response,,,,100,,,,,,,Space,keypress(Space),,,,,,,,-- --- ---- --- ------ ----- secured ---- -- --- ------- --<br>------- ---------- ------ -- ----- -- ----- -- ---- ------<br>--- ----- --- --- ------ -------- ----- --- ------ ----- --<br>----- ----- ---------- --- --- ------ ------ ---- -- ------<br>------- --- ------ ----- --- ---- ------- -- ---- --- --<br>------- ------,203836.80000001192,203833.90000003576,203388.703,203391.30000001192,203405.307,203855.481,,6,secured
screen,html.Screen,2_1_1_1_7,2022-05-02T10:18:26.475Z,,,,,,,,,,,,,,,,,54,,,,,,,,,,,,,,320.419000035763,,response,,,,100,,,,,,,Space,keypress(Space),,,,,,,,-- --- ---- --- ------ ----- ------- much -- --- ------- --<br>------- ---------- ------ -- ----- -- ----- -- ---- ------<br>--- ----- --- --- ------ -------- ----- --- ------ ----- --<br>----- ----- ---------- --- --- ------ ------ ---- -- ------<br>------- --- ------ ----- --- ---- ------- -- ---- --- --<br>------- ------,204179.80000001192,204175.90000003576,203838.549,203838.10000002384,203855.481,204188.77,,7,much
screen,html.Screen,2_1_1_1_8,2022-05-02T10:18:26.796Z,,,,,,,,,,,,,,,,,54,,,,,,,,,,,,,,308.83000002385234,,response,,,,100,,,,,,,Space,keypress(Space),,,,,,,,-- --- ---- --- ------ ----- ------- ---- of --- ------- --<br>------- ---------- ------ -- ----- -- ----- -- ---- ------<br>--- ----- --- --- ------ -------- ----- --- ------ ----- --<br>----- ----- ---------- --- --- ------ ------ ---- -- ------<br>------- --- ------ ----- --- ---- ------- -- ---- --- --<br>------- ------,204500.90000003576,204497.60000002384,204172.089,204180.80000001192,204188.77,204522.073,,8,of
screen,html.Screen,2_1_1_1_9,2022-05-02T10:18:27.092Z,,,,,,,,,,,,,,,,,54,,,,,,,,,,,,,,273.32700003575883,,response,,,,100,,,,,,,Space,keypress(Space),,,,,,,,-- --- ---- --- ------ ----- ------- ---- -- its ------- --<br>------- ---------- ------ -- ----- -- ----- -- ---- ------<br>--- ----- --- --- ------ -------- ----- --- ------ ----- --<br>----- ----- ---------- --- --- ------ ------ ---- -- ------<br>------- --- ------ ----- --- ---- ------- -- ---- --- --<br>------- ------,204796.80000001192,204795.40000003576,204505.44,204506.19999998808,204522.073,204805.285,,9,its
screen,html.Screen,2_1_1_1_10,2022-05-02T10:18:27.440Z,,,,,,,,,,,,,,,,,54,,,,,,,,,,,,,,335.1150000357593,,response,,,,100,,,,,,,Space,keypress(Space),,,,,,,,-- --- ---- --- ------ ----- ------- ---- -- --- revenue --<br>------- ---------- ------ -- ----- -- ----- -- ---- ------<br>--- ----- --- --- ------ -------- ----- --- ------ ----- --<br>----- ----- ---------- --- --- ------ ------ ---- -- ------<br>------- --- ------ ----- --- ---- ------- -- ---- --- --<br>------- ------,205144.5,205140.40000003576,204788.776,204797.19999998808,204805.285,205155.391,,10,revenue
screen,html.Screen,2_1_1_1_11,2022-05-02T10:18:27.763Z,,,,,,,,,,,,,,,,,54,,,,,,,,,,,,,,309.3089999880758,,response,,,,100,,,,,,,Space,keypress(Space),,,,,,,,-- --- ---- --- ------ ----- ------- ---- -- --- ------- by<br>------- ---------- ------ -- ----- -- ----- -- ---- ------<br>--- ----- --- --- ------ -------- ----- --- ------ ----- --<br>----- ----- ---------- --- --- ------ ------ ---- -- ------<br>------- --- ------ ----- --- ---- ------- -- ---- --- --<br>------- ------,205467.80000001192,205464.69999998808,205138.597,205145.60000002384,205155.391,205472.166,,11,by
screen,html.Screen,2_1_1_1_12,2022-05-02T10:18:28.083Z,,,,,,,,,,,,,,,,,54,,,,,,,,,,,,,,312.83400000000256,,response,,,,100,,,,,,,Space,keypress(Space),,,,,,,,-- --- ---- --- ------ ----- ------- ---- -- --- ------- --<br>issuing ---------- ------ -- ----- -- ----- -- ---- ------<br>--- ----- --- --- ------ -------- ----- --- ------ ----- --<br>----- ----- ---------- --- --- ------ ------ ---- -- ------<br>------- --- ------ ----- --- ---- ------- -- ---- --- --<br>------- ------,205788,205785,205455.286,205469,205472.166,205805.463,,12,issuing
screen,html.Screen,2_1_1_1_13,2022-05-02T10:18:28.335Z,,,,,,,,,,,,,,,,,54,,,,,,,,,,,,,,230.3370000119321,,response,,,,100,,,,,,,Space,keypress(Space),,,,,,,,-- --- ---- --- ------ ----- ------- ---- -- --- ------- --<br>------- government ------ -- ----- -- ----- -- ---- ------<br>--- ----- --- --- ------ -------- ----- --- ------ ----- --<br>----- ----- ---------- --- --- ------ ------ ---- -- ------<br>------- --- ------ ----- --- ---- ------- -- ---- --- --<br>------- ------,206039.5,206035.80000001192,205788.795,205789,205805.463,206072.123,,13,government
screen,html.Screen,2_1_1_1_14,2022-05-02T10:18:28.607Z,,,,,,,,,,,,,,,,,54,,,,,,,,,,,,,,234.77700003577047,,response,,,,100,,,,,,,Space,keypress(Space),,,,,,,,-- --- ---- --- ------ ----- ------- ---- -- --- ------- --<br>------- ---------- bonds. -- ----- -- ----- -- ---- ------<br>--- ----- --- --- ------ -------- ----- --- ------ ----- --<br>----- ----- ---------- --- --- ------ ------ ---- -- ------<br>------- --- ------ ----- --- ---- ------- -- ---- --- --<br>------- ------,206312.30000001192,206306.90000003576,206038.854,206040.60000002384,206072.123,206322.378,,14,bonds.
screen,html.Screen,2_1_1_1_15,2022-05-02T10:18:28.972Z,,,,,,,,,,,,,,,,,54,,,,,,,,,,,,,,351.3219999880821,,response,,,,100,,,,,,,Space,keypress(Space),,,,,,,,-- --- ---- --- ------ ----- ------- ---- -- --- ------- --<br>------- ---------- ------ In ----- -- ----- -- ---- ------<br>--- ----- --- --- ------ -------- ----- --- ------ ----- --<br>----- ----- ---------- --- --- ------ ------ ---- -- ------<br>------- --- ------ ----- --- ---- ------- -- ---- --- --<br>------- ------,206676.69999998808,206673.69999998808,206305.514,206313.40000003576,206322.378,206688.903,,15,In
screen,html.Screen,2_1_1_1_16,2022-05-02T10:18:29.439Z,,,,,,,,,,,,,,,,,54,,,,,,,,,,,,,,451.59700000000885,,response,,,,100,,,,,,,Space,keypress(Space),,,,,,,,"-- --- ---- --- ------ ----- ------- ---- -- --- ------- --<br>------- ---------- ------ -- 1727, -- ----- -- ---- ------<br>--- ----- --- --- ------ -------- ----- --- ------ ----- --<br>----- ----- ---------- --- --- ------ ------ ---- -- ------<br>------- --- ------ ----- --- ---- ------- -- ---- --- --<br>------- ------",207143.90000003576,207140.5,206672.457,206677.69999998808,206688.903,207155.438,,16,"1727,"
screen,html.Screen,2_1_1_1_17,2022-05-02T10:18:30.043Z,,,,,,,,,,,,,,,,,54,,,,,,,,,,,,,,588.6620000238472,,response,,,,100,,,,,,,Space,keypress(Space),,,,,,,,-- --- ---- --- ------ ----- ------- ---- -- --- ------- --<br>------- ---------- ------ -- ----- in ----- -- ---- ------<br>--- ----- --- --- ------ -------- ----- --- ------ ----- --<br>----- ----- ---------- --- --- ------ ------ ---- -- ------<br>------- --- ------ ----- --- ---- ------- -- ---- --- --<br>------- ------,207747.60000002384,207744.10000002384,207138.685,207144.90000003576,207155.438,207755.618,,17,in
screen,html.Screen,2_1_1_1_18,2022-05-02T10:18:30.351Z,,,,,,,,,,,,,,,,,54,,,,,,,,,,,,,,296.68200001193327,,response,,,,100,,,,,,,Space,keypress(Space),,,,,,,,-- --- ---- --- ------ ----- ------- ---- -- --- ------- --<br>------- ---------- ------ -- ----- -- order -- ---- ------<br>--- ----- --- --- ------ -------- ----- --- ------ ----- --<br>----- ----- ---------- --- --- ------ ------ ---- -- ------<br>------- --- ------ ----- --- ---- ------- -- ---- --- --<br>------- ------,208055.60000002384,208052.30000001192,207738.843,207748.60000002384,207755.618,208072.317,,18,order
screen,html.Screen,2_1_1_1_19,2022-05-02T10:18:30.608Z,,,,,,,,,,,,,,,,,54,,,,,,,,,,,,,,237.08300003575278,,response,,,,100,,,,,,,Space,keypress(Space),,,,,,,,-- --- ---- --- ------ ----- ------- ---- -- --- ------- --<br>------- ---------- ------ -- ----- -- ----- to ---- ------<br>--- ----- --- --- ------ -------- ----- --- ------ ----- --<br>----- ----- ---------- --- --- ------ ------ ---- -- ------<br>------- --- ------ ----- --- ---- ------- -- ---- --- --<br>------- ------,208312.80000001192,208309.40000003576,208055.415,208056.69999998808,208072.317,208322.137,,19,to
screen,html.Screen,2_1_1_1_20,2022-05-02T10:18:30.900Z,,,,,,,,,,,,,,,,,54,,,,,,,,,,,,,,279.16300001193304,,response,,,,100,,,,,,,Space,keypress(Space),,,,,,,,-- --- ---- --- ------ ----- ------- ---- -- --- ------- --<br>------- ---------- ------ -- ----- -- ----- -- save ------<br>--- ----- --- --- ------ -------- ----- --- ------ ----- --<br>----- ----- ---------- --- --- ------ ------ ---- -- ------<br>------- --- ------ ----- --- ---- ------- -- ---- --- --<br>------- ------,208604.40000003576,208601.30000001192,208305.567,208313.80000001192,208322.137,208622.262,,20,save
screen,html.Screen,2_1_1_1_21,2022-05-02T10:18:31.162Z,,,,,,,,,,,,,,,,,54,,,,,,,,,,,,,,240.6380000357749,,response,,,,100,,,,,,,Space,keypress(Space),,,,,,,,"-- --- ---- --- ------ ----- ------- ---- -- --- ------- --<br>------- ---------- ------ -- ----- -- ----- -- ---- money,<br>--- ----- --- --- ------ -------- ----- --- ------ ----- --<br>----- ----- ---------- --- --- ------ ------ ---- -- ------<br>------- --- ------ ----- --- ---- ------- -- ---- --- --<br>------- ------",208866.69999998808,208862.90000003576,208605.49,208605.40000003576,208622.262,208872.489,,21,"money,"
screen,html.Screen,2_1_1_1_22,2022-05-02T10:18:31.443Z,,,,,,,,,,,,,,,,,54,,,,,,,,,,,,,,272.7109999880777,,response,,,,100,,,,,,,Space,keypress(Space),,,,,,,,-- --- ---- --- ------ ----- ------- ---- -- --- ------- --<br>------- ---------- ------ -- ----- -- ----- -- ---- ------<br>the ----- --- --- ------ -------- ----- --- ------ ----- --<br>----- ----- ---------- --- --- ------ ------ ---- -- ------<br>------- --- ------ ----- --- ---- ------- -- ---- --- --<br>------- ------,209148.30000001192,209145.19999998808,208855.616,208868,208872.489,209155.69,,22,the
screen,html.Screen,2_1_1_1_23,2022-05-02T10:18:31.713Z,,,,,,,,,,,,,,,,,54,,,,,,,,,,,,,,259.1100000119186,,response,,,,100,,,,,,,Space,keypress(Space),,,,,,,,-- --- ---- --- ------ ----- ------- ---- -- --- ------- --<br>------- ---------- ------ -- ----- -- ----- -- ---- ------<br>--- state --- --- ------ -------- ----- --- ------ ----- --<br>----- ----- ---------- --- --- ------ ------ ---- -- ------<br>------- --- ------ ----- --- ---- ------- -- ---- --- --<br>------- ------,209418,209414.80000001192,209138.855,209149.19999998808,209155.69,209422.315,,23,state
screen,html.Screen,2_1_1_1_24,2022-05-02T10:18:32.006Z,,,,,,,,,,,,,,,,,54,,,,,,,,,,,,,,283.08500003576046,,response,,,,100,,,,,,,Space,keypress(Space),,,,,,,,-- --- ---- --- ------ ----- ------- ---- -- --- ------- --<br>------- ---------- ------ -- ----- -- ----- -- ---- ------<br>--- ----- cut --- ------ -------- ----- --- ------ ----- --<br>----- ----- ---------- --- --- ------ ------ ---- -- ------<br>------- --- ------ ----- --- ---- ------- -- ---- --- --<br>------- ------,209710.5,209705.40000003576,209405.621,209419,209422.315,209722.437,,24,cut
screen,html.Screen,2_1_1_1_25,2022-05-02T10:18:32.267Z,,,,,,,,,,,,,,,,,54,,,,,,,,,,,,,,245.56299999999464,,response,,,,100,,,,,,,Space,keypress(Space),,,,,,,,-- --- ---- --- ------ ----- ------- ---- -- --- ------- --<br>------- ---------- ------ -- ----- -- ----- -- ---- ------<br>--- ----- --- the ------ -------- ----- --- ------ ----- --<br>----- ----- ---------- --- --- ------ ------ ---- -- ------<br>------- --- ------ ----- --- ---- ------- -- ---- --- --<br>------- ------,209971.90000003576,209968,209705.521,209711.60000002384,209722.437,209988.895,,25,the
screen,html.Screen,2_1_1_1_26,2022-05-02T10:18:32.545Z,,,,,,,,,,,,,,,,,54,,,,,,,,,,,,,,258.30499998808955,,response,,,,100,,,,,,,Space,keypress(Space),,,,,,,,-- --- ---- --- ------ ----- ------- ---- -- --- ------- --<br>------- ---------- ------ -- ----- -- ----- -- ---- ------<br>--- ----- --- --- bonds' -------- ----- --- ------ ----- --<br>----- ----- ---------- --- --- ------ ------ ---- -- ------<br>------- --- ------ ----- --- ---- ------- -- ---- --- --<br>------- ------,210250.19999998808,210247.19999998808,209972.199,209972.90000003576,209988.895,210255.648,,26,bonds'
screen,html.Screen,2_1_1_1_27,2022-05-02T10:18:32.859Z,,,,,,,,,,,,,,,,,54,,,,,,,,,,,,,,305.3520000000135,,response,,,,100,,,,,,,Space,keypress(Space),,,,,,,,-- --- ---- --- ------ ----- ------- ---- -- --- ------- --<br>------- ---------- ------ -- ----- -- ----- -- ---- ------<br>--- ----- --- --- ------ interest ----- --- ------ ----- --<br>----- ----- ---------- --- --- ------ ------ ---- -- ------<br>------- --- ------ ----- --- ---- ------- -- ---- --- --<br>------- ------,210564.19999998808,210561,210238.825,210251.30000001192,210255.648,210572.471,,27,interest
screen,html.Screen,2_1_1_1_28,2022-05-02T10:18:33.190Z,,,,,,,,,,,,,,,,,54,,,,,,,,,,,,,,319.3290000119305,,response,,,,100,,,,,,,Space,keypress(Space),,,,,,,,-- --- ---- --- ------ ----- ------- ---- -- --- ------- --<br>------- ---------- ------ -- ----- -- ----- -- ---- ------<br>--- ----- --- --- ------ -------- rate. --- ------ ----- --<br>----- ----- ---------- --- --- ------ ------ ---- -- ------<br>------- --- ------ ----- --- ---- ------- -- ---- --- --<br>------- ------,210894.90000003576,210891.80000001192,210555.809,210565.30000001192,210572.471,210905.856,,28,rate.
screen,html.Screen,2_1_1_1_29,2022-05-02T10:18:33.547Z,,,,,,,,,,,,,,,,,54,,,,,,,,,,,,,,342.64400000000023,,response,,,,100,,,,,,,Space,keypress(Space),,,,,,,,-- --- ---- --- ------ ----- ------- ---- -- --- ------- --<br>------- ---------- ------ -- ----- -- ----- -- ---- ------<br>--- ----- --- --- ------ -------- ----- The ------ ----- --<br>----- ----- ---------- --- --- ------ ------ ---- -- ------<br>------- --- ------ ----- --- ---- ------- -- ---- --- --<br>------- ------,211251.69999998808,211248.5,210889.114,210896,210905.856,211255.752,,29,The
screen,html.Screen,2_1_1_1_30,2022-05-02T10:18:33.853Z,,,,,,,,,,,,,,,,,54,,,,,,,,,,,,,,299.6480000357551,,response,,,,100,,,,,,,Space,keypress(Space),,,,,,,,-- --- ---- --- ------ ----- ------- ---- -- --- ------- --<br>------- ---------- ------ -- ----- -- ----- -- ---- ------<br>--- ----- --- --- ------ -------- ----- --- market ----- --<br>----- ----- ---------- --- --- ------ ------ ---- -- ------<br>------- --- ------ ----- --- ---- ------- -- ---- --- --<br>------- ------,211557.60000002384,211555.40000003576,211238.817,211252.69999998808,211255.752,211572.367,,30,market
screen,html.Screen,2_1_1_1_31,2022-05-02T10:18:34.154Z,,,,,,,,,,,,,,,,,54,,,,,,,,,,,,,,282.8329999880807,,response,,,,100,,,,,,,Space,keypress(Space),,,,,,,,-- --- ---- --- ------ ----- ------- ---- -- --- ------- --<br>------- ---------- ------ -- ----- -- ----- -- ---- ------<br>--- ----- --- --- ------ -------- ----- --- ------ value --<br>----- ----- ---------- --- --- ------ ------ ---- -- ------<br>------- --- ------ ----- --- ---- ------- -- ---- --- --<br>------- ------,211859.19999998808,211855.19999998808,211555.624,211557.90000003576,211572.367,211872.3,,31,value
screen,html.Screen,2_1_1_1_32,2022-05-02T10:18:34.484Z,,,,,,,,,,,,,,,,,54,,,,,,,,,,,,,,312.70000000001164,,response,,,,100,,,,,,,Space,keypress(Space),,,,,,,,-- --- ---- --- ------ ----- ------- ---- -- --- ------- --<br>------- ---------- ------ -- ----- -- ----- -- ---- ------<br>--- ----- --- --- ------ -------- ----- --- ------ ----- of<br>----- ----- ---------- --- --- ------ ------ ---- -- ------<br>------- --- ------ ----- --- ---- ------- -- ---- --- --<br>------- ------,212188.60000002384,212185,211855.744,211860.19999998808,211872.3,212205.642,,32,of
screen,html.Screen,2_1_1_1_33,2022-05-02T10:18:34.781Z,,,,,,,,,,,,,,,,,54,,,,,,,,,,,,,,276.4580000238493,,response,,,,100,,,,,,,Space,keypress(Space),,,,,,,,-- --- ---- --- ------ ----- ------- ---- -- --- ------- --<br>------- ---------- ------ -- ----- -- ----- -- ---- ------<br>--- ----- --- --- ------ -------- ----- --- ------ ----- --<br>these ----- ---------- --- --- ------ ------ ---- -- ------<br>------- --- ------ ----- --- ---- ------- -- ---- --- --<br>------- ------,212485.5,212482.10000002384,212188.952,212189.60000002384,212205.642,212508.581,,33,these
screen,html.Screen,2_1_1_1_34,2022-05-02T10:18:35.133Z,,,,,,,,,,,,,,,,,54,,,,,,,,,,,,,,326.01900002383627,,response,,,,100,,,,,,,Space,keypress(Space),,,,,,,,-- --- ---- --- ------ ----- ------- ---- -- --- ------- --<br>------- ---------- ------ -- ----- -- ----- -- ---- ------<br>--- ----- --- --- ------ -------- ----- --- ------ ----- --<br>----- bonds ---------- --- --- ------ ------ ---- -- ------<br>------- --- ------ ----- --- ---- ------- -- ---- --- --<br>------- ------,212838.30000001192,212834.60000002384,212472.389,212486.69999998808,212508.581,212855.85,,34,bonds
screen,html.Screen,2_1_1_1_35,2022-05-02T10:18:35.408Z,,,,,,,,,,,,,,,,,54,,,,,,,,,,,,,,254.25000002383604,,response,,,,100,,,,,,,Space,keypress(Space),,,,,,,,"-- --- ---- --- ------ ----- ------- ---- -- --- ------- --<br>------- ---------- ------ -- ----- -- ----- -- ---- ------<br>--- ----- --- --- ------ -------- ----- --- ------ ----- --<br>----- ----- plummeted, --- --- ------ ------ ---- -- ------<br>------- --- ------ ----- --- ---- ------- -- ---- --- --<br>------- ------",213113.10000002384,213110.10000002384,212839.145,212839.69999998808,212855.85,213122.62,,35,"plummeted,"
screen,html.Screen,2_1_1_1_36,2022-05-02T10:18:35.716Z,,,,,,,,,,,,,,,,,54,,,,,,,,,,,,,,295.5799999880837,,response,,,,100,,,,,,,Space,keypress(Space),,,,,,,,-- --- ---- --- ------ ----- ------- ---- -- --- ------- --<br>------- ---------- ------ -- ----- -- ----- -- ---- ------<br>--- ----- --- --- ------ -------- ----- --- ------ ----- --<br>----- ----- ---------- and --- ------ ------ ---- -- ------<br>------- --- ------ ----- --- ---- ------- -- ---- --- --<br>------- ------,213421,213418.19999998808,213105.669,213114.10000002384,213122.62,213439.033,,36,and
screen,html.Screen,2_1_1_1_37,2022-05-02T10:18:36.028Z,,,,,,,,,,,,,,,,,54,,,,,,,,,,,,,,291.06700002384605,,response,,,,100,,,,,,,Space,keypress(Space),,,,,,,,-- --- ---- --- ------ ----- ------- ---- -- --- ------- --<br>------- ---------- ------ -- ----- -- ----- -- ---- ------<br>--- ----- --- --- ------ -------- ----- --- ------ ----- --<br>----- ----- ---------- --- the ------ ------ ---- -- ------<br>------- --- ------ ----- --- ---- ------- -- ---- --- --<br>------- ------,213732.5,213730.10000002384,213422.504,213422,213439.033,213739.097,,37,the
screen,html.Screen,2_1_1_1_38,2022-05-02T10:18:36.339Z,,,,,,,,,,,,,,,,,54,,,,,,,,,,,,,,301.6029999880702,,response,,,,100,,,,,,,Space,keypress(Space),,,,,,,,-- --- ---- --- ------ ----- ------- ---- -- --- ------- --<br>------- ---------- ------ -- ----- -- ----- -- ---- ------<br>--- ----- --- --- ------ -------- ----- --- ------ ----- --<br>----- ----- ---------- --- --- market ------ ---- -- ------<br>------- --- ------ ----- --- ---- ------- -- ---- --- --<br>------- ------,214044.10000002384,214040.69999998808,213722.556,213733.60000002384,213739.097,214055.852,,38,market
screen,html.Screen,2_1_1_1_39,2022-05-02T10:18:36.656Z,,,,,,,,,,,,,,,,,54,,,,,,,,,,,,,,301.74800002382835,,response,,,,100,,,,,,,Space,keypress(Space),,,,,,,,-- --- ---- --- ------ ----- ------- ---- -- --- ------- --<br>------- ---------- ------ -- ----- -- ----- -- ---- ------<br>--- ----- --- --- ------ -------- ----- --- ------ ----- --<br>----- ----- ---------- --- --- ------ became ---- -- ------<br>------- --- ------ ----- --- ---- ------- -- ---- --- --<br>------- ------,214360.69999998808,214357.60000002384,214038.938,214045,214055.852,214372.661,,39,became
screen,html.Screen,2_1_1_1_40,2022-05-02T10:18:36.964Z,,,,,,,,,,,,,,,,,54,,,,,,,,,,,,,,292.3390000000072,,response,,,,100,,,,,,,Space,keypress(Space),,,,,,,,-- --- ---- --- ------ ----- ------- ---- -- --- ------- --<br>------- ---------- ------ -- ----- -- ----- -- ---- ------<br>--- ----- --- --- ------ -------- ----- --- ------ ----- --<br>----- ----- ---------- --- --- ------ ------ wary -- ------<br>------- --- ------ ----- --- ---- ------- -- ---- --- --<br>------- ------,214668.40000003576,214665,214355.991,214362.30000001192,214372.661,214703.287,,40,wary
screen,html.Screen,2_1_1_1_41,2022-05-02T10:18:37.301Z,,,,,,,,,,,,,,,,,54,,,,,,,,,,,,,,299.1130000357516,,response,,,,100,,,,,,,Space,keypress(Space),,,,,,,,-- --- ---- --- ------ ----- ------- ---- -- --- ------- --<br>------- ---------- ------ -- ----- -- ----- -- ---- ------<br>--- ----- --- --- ------ -------- ----- --- ------ ----- --<br>----- ----- ---------- --- --- ------ ------ ---- of ------<br>------- --- ------ ----- --- ---- ------- -- ---- --- --<br>------- ------,215006.19999998808,215002.40000003576,214655.795,214669.5,214703.287,215022.517,,41,of
screen,html.Screen,2_1_1_1_42,2022-05-02T10:18:37.637Z,,,,,,,,,,,,,,,,,54,,,,,,,,,,,,,,314.98300000000745,,response,,,,100,,,,,,,Space,keypress(Space),,,,,,,,-- --- ---- --- ------ ----- ------- ---- -- --- ------- --<br>------- ---------- ------ -- ----- -- ----- -- ---- ------<br>--- ----- --- --- ------ -------- ----- --- ------ ----- --<br>----- ----- ---------- --- --- ------ ------ ---- -- French<br>------- --- ------ ----- --- ---- ------- -- ---- --- --<br>------- ------,215341.40000003576,215337.5,215005.716,215007.30000001192,215022.517,215356.014,,42,French
screen,html.Screen,2_1_1_1_43,2022-05-02T10:18:38.021Z,,,,,,,,,,,,,,,,,54,,,,,,,,,,,,,,366.4860000000044,,response,,,,100,,,,,,,Space,keypress(Space),,,,,,,,-- --- ---- --- ------ ----- ------- ---- -- --- ------- --<br>------- ---------- ------ -- ----- -- ----- -- ---- ------<br>--- ----- --- --- ------ -------- ----- --- ------ ----- --<br>----- ----- ---------- --- --- ------ ------ ---- -- ------<br>credit. --- ------ ----- --- ---- ------- -- ---- --- --<br>------- ------,215726.30000001192,215722.5,215339.049,215342.5,215356.014,215739.046,,43,credit.
screen,html.Screen,2_1_1_1_44,2022-05-02T10:18:38.450Z,,,,,,,,,,,,,,,,,54,,,,,,,,,,,,,,412.25400001191883,,response,,,,100,,,,,,,Space,keypress(Space),,,,,,,,-- --- ---- --- ------ ----- ------- ---- -- --- ------- --<br>------- ---------- ------ -- ----- -- ----- -- ---- ------<br>--- ----- --- --- ------ -------- ----- --- ------ ----- --<br>----- ----- ---------- --- --- ------ ------ ---- -- ------<br>------- The ------ ----- --- ---- ------- -- ---- --- --<br>------- ------,216155.10000002384,216151.30000001192,215722.488,215727.30000001192,215739.046,216172.572,,44,The
screen,html.Screen,2_1_1_1_45,2022-05-02T10:18:38.785Z,,,,,,,,,,,,,,,,,54,,,,,,,,,,,,,,314.0280000238563,,response,,,,100,,,,,,,Space,keypress(Space),,,,,,,,-- --- ---- --- ------ ----- ------- ---- -- --- ------- --<br>------- ---------- ------ -- ----- -- ----- -- ---- ------<br>--- ----- --- --- ------ -------- ----- --- ------ ----- --<br>----- ----- ---------- --- --- ------ ------ ---- -- ------<br>------- --- French ----- --- ---- ------- -- ---- --- --<br>------- ------,216490.19999998808,216486.60000002384,216155.822,216156.10000002384,216172.572,216505.939,,45,French
screen,html.Screen,2_1_1_1_46,2022-05-02T10:18:39.139Z,,,,,,,,,,,,,,,,,54,,,,,,,,,,,,,,334.46100003574975,,response,,,,100,,,,,,,Space,keypress(Space),,,,,,,,-- --- ---- --- ------ ----- ------- ---- -- --- ------- --<br>------- ---------- ------ -- ----- -- ----- -- ---- ------<br>--- ----- --- --- ------ -------- ----- --- ------ ----- --<br>----- ----- ---------- --- --- ------ ------ ---- -- ------<br>------- --- ------ state --- ---- ------- -- ---- --- --<br>------- ------,216843.80000001192,216840.40000003576,216489.343,216491.19999998808,216505.939,216855.825,,46,state
screen,html.Screen,2_1_1_1_47,2022-05-02T10:18:39.462Z,,,,,,,,,,,,,,,,,54,,,,,,,,,,,,,,307.2750000238302,,response,,,,100,,,,,,,Space,keypress(Space),,,,,,,,-- --- ---- --- ------ ----- ------- ---- -- --- ------- --<br>------- ---------- ------ -- ----- -- ----- -- ---- ------<br>--- ----- --- --- ------ -------- ----- --- ------ ----- --<br>----- ----- ---------- --- --- ------ ------ ---- -- ------<br>------- --- ------ ----- was ---- ------- -- ---- --- --<br>------- ------,217166.40000003576,217163.10000002384,216839.253,216844.80000001192,216855.825,217172.578,,47,was
screen,html.Screen,2_1_1_1_48,2022-05-02T10:18:39.753Z,,,,,,,,,,,,,,,,,54,,,,,,,,,,,,,,282.02200002383324,,response,,,,100,,,,,,,Space,keypress(Space),,,,,,,,-- --- ---- --- ------ ----- ------- ---- -- --- ------- --<br>------- ---------- ------ -- ----- -- ----- -- ---- ------<br>--- ----- --- --- ------ -------- ----- --- ------ ----- --<br>----- ----- ---------- --- --- ------ ------ ---- -- ------<br>------- --- ------ ----- --- left ------- -- ---- --- --<br>------- ------,217458,217454.60000002384,217155.738,217167.5,217172.578,217472.5,,48,left
screen,html.Screen,2_1_1_1_49,2022-05-02T10:18:40.083Z,,,,,,,,,,,,,,,,,54,,,,,,,,,,,,,,312.4000000357628,,response,,,,100,,,,,,,Space,keypress(Space),,,,,,,,-- --- ---- --- ------ ----- ------- ---- -- --- ------- --<br>------- ---------- ------ -- ----- -- ----- -- ---- ------<br>--- ----- --- --- ------ -------- ----- --- ------ ----- --<br>----- ----- ---------- --- --- ------ ------ ---- -- ------<br>------- --- ------ ----- --- ---- without -- ---- --- --<br>------- ------,217788.19999998808,217784.90000003576,217456.029,217459,217472.5,217806,,49,without
screen,html.Screen,2_1_1_1_50,2022-05-02T10:18:40.399Z,,,,,,,,,,,,,,,,,54,,,,,,,,,,,,,,296,,response,,,,100,,,,,,,Space,keypress(Space),,,,,,,,-- --- ---- --- ------ ----- ------- ---- -- --- ------- --<br>------- ---------- ------ -- ----- -- ----- -- ---- ------<br>--- ----- --- --- ------ -------- ----- --- ------ ----- --<br>----- ----- ---------- --- --- ------ ------ ---- -- ------<br>------- --- ------ ----- --- ---- ------- an ---- --- --<br>------- ------,218103.5,218102,217789.251,217789.19999998808,217806,218105.742,,50,an
screen,html.Screen,2_1_1_1_51,2022-05-02T10:18:40.689Z,,,,,,,,,,,,,,,,,54,,,,,,,,,,,,,,285.1580000357644,,response,,,,100,,,,,,,Space,keypress(Space),,,,,,,,-- --- ---- --- ------ ----- ------- ---- -- --- ------- --<br>------- ---------- ------ -- ----- -- ----- -- ---- ------<br>--- ----- --- --- ------ -------- ----- --- ------ ----- --<br>----- ----- ---------- --- --- ------ ------ ---- -- ------<br>------- --- ------ ----- --- ---- ------- -- easy --- --<br>------- ------,218394.19999998808,218390.90000003576,218089.201,218103.90000003576,218105.742,218405.873,,51,easy
screen,html.Screen,2_1_1_1_52,2022-05-02T10:18:41.051Z,,,,,,,,,,,,,,,,,54,,,,,,,,,,,,,,346.52700003577047,,response,,,,100,,,,,,,Space,keypress(Space),,,,,,,,-- --- ---- --- ------ ----- ------- ---- -- --- ------- --<br>------- ---------- ------ -- ----- -- ----- -- ---- ------<br>--- ----- --- --- ------ -------- ----- --- ------ ----- --<br>----- ----- ---------- --- --- ------ ------ ---- -- ------<br>------- --- ------ ----- --- ---- ------- -- ---- way --<br>------- ------,218756,218752.40000003576,218389.064,218395.19999998808,218405.873,218772.71,,52,way
screen,html.Screen,2_1_1_1_53,2022-05-02T10:18:41.377Z,,,,,,,,,,,,,,,,,54,,,,,,,,,,,,,,305.0900000119291,,response,,,,100,,,,,,,Space,keypress(Space),,,,,,,,-- --- ---- --- ------ ----- ------- ---- -- --- ------- --<br>------- ---------- ------ -- ----- -- ----- -- ---- ------<br>--- ----- --- --- ------ -------- ----- --- ------ ----- --<br>----- ----- ---------- --- --- ------ ------ ---- -- ------<br>------- --- ------ ----- --- ---- ------- -- ---- --- of<br>------- ------,219081.5,219077.80000001192,218755.852,218757.10000002384,218772.71,219089.165,,53,of
screen,html.Screen,2_1_1_1_54,2022-05-02T10:18:41.744Z,,,,,,,,,,,,,,,,,54,,,,,,,,,,,,,,355.9350000238337,,response,,,,100,,,,,,,Space,keypress(Space),,,,,,,,-- --- ---- --- ------ ----- ------- ---- -- --- ------- --<br>------- ---------- ------ -- ----- -- ----- -- ---- ------<br>--- ----- --- --- ------ -------- ----- --- ------ ----- --<br>----- ----- ---------- --- --- ------ ------ ---- -- ------<br>------- --- ------ ----- --- ---- ------- -- ---- --- --<br>raising ------,219449.30000001192,219445.10000002384,219072.543,219082.60000002384,219089.165,219455.885,,54,raising
screen,html.Screen,2_1_1_1_55,2022-05-02T10:18:42.527Z,,,,,,,,,,,,,,,,,54,,,,,,,,,,,,,,774.0150000357535,,response,,,,100,,,,,,,Space,keypress(Space),,,,,,,,-- --- ---- --- ------ ----- ------- ---- -- --- ------- --<br>------- ---------- ------ -- ----- -- ----- -- ---- ------<br>--- ----- --- --- ------ -------- ----- --- ------ ----- --<br>----- ----- ---------- --- --- ------ ------ ---- -- ------<br>------- --- ------ ----- --- ---- ------- -- ---- --- --<br>------- money.,220231.69999998808,220229.90000003576,219439.274,219450.30000001192,219455.885,220239.33,,55,money.
Item 100,flow.Loop,2_1_1_1,2022-05-02T10:18:42.528Z,,,,,,,,,,,,,,,,,,,,,,,,,,,,,,,18874.655000035767,,completion,,,,,E,,,,,,,,,,,silence,,,,,220232.5,220229.90000003576,201338.751,201342.19999998808,201355.245,220239.33,,,
Question 1,html.Screen,2_1_1_2,2022-05-02T10:18:45.527Z,,,,,,,,,,,,,,,,,,,,,,,,,,,,true,TRUE,,2990.4700000119337,,response,,,,100,E,,,,,,TRUE,click #choice-1,,,,silence,,,,,223231.60000002384,223229.80000001192,220222.545,220232.90000003576,220239.33,223239.275,,,
Question 2,html.Screen,2_1_1_3,2022-05-02T10:18:48.346Z,,,,,,,,,,,,,,,,,,,,,,,,,,,,true,FALSE,,2809.0250000119267,,response,,,,100,E,,,,,,FALSE,click #choice-2,,,,silence,,,,,226051,226048.30000001192,223222.606,223231.80000001192,223239.275,226056.321,,,
Item 100,flow.Sequence,2_1_1,2022-05-02T10:18:48.347Z,,,,,,,,,,,,,,,,,,,,,,,,,,,,,,,34693.499000011914,,completion,,,,,,,,,,,,,,,,,,,,,226051.60000002384,226048.30000001192,191338.463,191341.90000003576,191354.801,226056.321,,,
End of Practice,html.Page,2_1_2,2022-05-02T10:18:52.779Z,,,,,,,,,,,,,,,,,,,,,,,,,,,,,,,4426.878999988083,,form submission,,,,,,,,,,,,,,,,,,,,,230484.10000002384,230483.19999998808,226039.595,226052,226056.321,230489.574,,,
Practice,flow.Sequence,2_1,2022-05-02T10:18:52.780Z,,,,,,,,,,,,,,,,,,,,,,,,,,,,,,,81429.93399998808,,completion,,,,,,,,,,,,,,,,,,,,,230484.80000001192,230483.19999998808,148986.622,149045.19999998808,149053.266,230489.574,,,
Trap_instruction,html.Page,2_2_0,2022-05-02T10:18:57.202Z,,,,,,,,,,,,,,,,,,,,,,,,,,,,,,,4416.125999988086,,form submission,,,,,,,,,,,,,,,,,,,,,234906.69999998808,234905.69999998808,230473.096,230485.19999998808,230489.574,235173.043,,,
trap_trial,html.Screen,2_2_1,2022-05-02T10:19:01.575Z,,,,,,,,,,,,,,,,,,,,,,,,,,,,true,1,,4103.357000035758,,response,,,,,,,,,,,1,click #choice-1,,,,,,,,,239279.40000003576,239276.40000003576,234889.808,234907.40000003576,235173.043,239306.559,,,
end of trap trial,html.Page,2_2_2,2022-05-02T10:19:03.613Z,,,,,,,,,,,,,,,,,,,,,,,,,,,,,,,2010.1409999880707,,form submission,,,,,,,,,,,,,,,,,,,,,241317.60000002384,241316.69999998808,239273.213,239279.80000001192,239306.559,241323.308,,,
Trap 1,flow.Sequence,2_2,2022-05-02T10:19:03.613Z,,,,,,,,,,,,,,,,,,,,,,,,,,,,,,,10827.125999988086,,completion,,,,,,,,,,,,,,,,,,,,,241318.19999998808,241316.69999998808,230473.096,230485,230489.574,241323.308,,,
Standby,html.Page,2_3_0,2022-05-02T10:19:11.604Z,,,,,,,,,,,,,,,,,,,,,,,,,,,,,,,8000.282999999996,,timeout,,,,,,,,,,,,,,,,,,,,,249308.80000001192,249306.898,241306.653,241318.69999998808,241323.308,249323.591,,,
Holding screen,html.Screen,2_3_1_0_0,2022-05-02T10:19:18.606Z,,,,,,,,,,,,,,,,,,,,,,,,,,,,,,,7000.4100000000035,,timeout,,,,,,,,,,,,,,,,,,,,,256310.10000002384,256307.265,249306.898,249309.5,249323.591,256324.001,,,
screen,html.Screen,2_3_1_0_1_0,2022-05-02T10:19:19.274Z,,,,,,,,,,,,,,,,,2,,,,,,,,,,,,,,649.8990000357735,,response,,,,1,E,,,,,,Space,keypress(Space),,,,silence,,,,Two ---- ------ --- ------- ---------- ------- ----------<br>--- --------- --- ----------- ------- ----- ------- ---<br>--------- ---- -- --- ---- -- --------- -- ---- -------<br>-- --------- ------ --- ----- ------ ---- --- --------- --<br>------ - ---- -- --- ----------- ------- ---- ----- -----<br>--- -------- - ------ ---- -- ----- ---- --- --- -----------<br>-- -------,256978.19999998808,256973.90000003576,256307.265,256311.80000001192,256324.001,256990.746,,0,Two
screen,html.Screen,2_3_1_0_1_1,2022-05-02T10:19:19.716Z,,,,,,,,,,,,,,,,,2,,,,,,,,,,,,,,426.5540000119072,,response,,,,1,E,,,,,,Space,keypress(Space),,,,silence,,,,--- days ------ --- ------- ---------- ------- ----------<br>--- --------- --- ----------- ------- ----- ------- ---<br>--------- ---- -- --- ---- -- --------- -- ---- -------<br>-- --------- ------ --- ----- ------ ---- --- --------- --<br>------ - ---- -- --- ----------- ------- ---- ----- -----<br>--- -------- - ------ ---- -- ----- ---- --- --- -----------<br>-- -------,257420.40000003576,257417.30000001192,256973.934,256979.30000001192,256990.746,257440.614,,1,days
screen,html.Screen,2_3_1_0_1_2,2022-05-02T10:19:20.022Z,,,,,,,,,,,,,,,,,2,,,,,,,,,,,,,,282.8859999999986,,response,,,,1,E,,,,,,Space,keypress(Space),,,,silence,,,,"--- ---- later, --- ------- ---------- ------- ----------<br>--- --------- --- ----------- ------- ----- ------- ---<br>--------- ---- -- --- ---- -- --------- -- ---- -------<br>-- --------- ------ --- ----- ------ ---- --- --------- --<br>------ - ---- -- --- ----------- ------- ---- ----- -----<br>--- -------- - ------ ---- -- ----- ---- --- --- -----------<br>-- -------",257726.5,257723.5,257407.581,257421.40000003576,257440.614,257740.926,,2,"later,"
screen,html.Screen,2_3_1_0_1_3,2022-05-02T10:19:20.424Z,,,,,,,,,,,,,,,,,2,,,,,,,,,,,,,,384.57399999999325,,response,,,,1,E,,,,,,Space,keypress(Space),,,,silence,,,,--- ---- ------ the ------- ---------- ------- ----------<br>--- --------- --- ----------- ------- ----- ------- ---<br>--------- ---- -- --- ---- -- --------- -- ---- -------<br>-- --------- ------ --- ----- ------ ---- --- --------- --<br>------ - ---- -- --- ----------- ------- ---- ----- -----<br>--- -------- - ------ ---- -- ----- ---- --- --- -----------<br>-- -------,258128.60000002384,258125.5,257723.92,257727.5,257740.926,258140.896,,3,the
screen,html.Screen,2_3_1_0_1_4,2022-05-02T10:19:20.745Z,,,,,,,,,,,,,,,,,2,,,,,,,,,,,,,,304.80399998807115,,response,,,,1,E,,,,,,Space,keypress(Space),,,,silence,,,,--- ---- ------ --- British ---------- ------- ----------<br>--- --------- --- ----------- ------- ----- ------- ---<br>--------- ---- -- --- ---- -- --------- -- ---- -------<br>-- --------- ------ --- ----- ------ ---- --- --------- --<br>------ - ---- -- --- ----------- ------- ---- ----- -----<br>--- -------- - ------ ---- -- ----- ---- --- --- -----------<br>-- -------,258449,258445.69999998808,258124.041,258129.60000002384,258140.896,258457.331,,4,British
screen,html.Screen,2_3_1_0_1_5,2022-05-02T10:19:21.080Z,,,,,,,,,,,,,,,,,2,,,,,,,,,,,,,,323.76900002383627,,response,,,,1,E,,,,,,Space,keypress(Space),,,,silence,,,,--- ---- ------ --- ------- astronomer ------- ----------<br>--- --------- --- ----------- ------- ----- ------- ---<br>--------- ---- -- --- ---- -- --------- -- ---- -------<br>-- --------- ------ --- ----- ------ ---- --- --------- --<br>------ - ---- -- --- ----------- ------- ---- ----- -----<br>--- -------- - ------ ---- -- ----- ---- --- --- -----------<br>-- -------,258784.19999998808,258781.10000002384,258440.692,258450,258457.331,258790.905,,5,astronomer
screen,html.Screen,2_3_1_0_1_6,2022-05-02T10:19:21.680Z,,,,,,,,,,,,,,,,,2,,,,,,,,,,,,,,590.3950000119221,,response,,,,1,E,,,,,,Space,keypress(Space),,,,silence,,,,--- ---- ------ --- ------- ---------- Richard ----------<br>--- --------- --- ----------- ------- ----- ------- ---<br>--------- ---- -- --- ---- -- --------- -- ---- -------<br>-- --------- ------ --- ----- ------ ---- --- --------- --<br>------ - ---- -- --- ----------- ------- ---- ----- -----<br>--- -------- - ------ ---- -- ----- ---- --- --- -----------<br>-- -------,259384.40000003576,259381.30000001192,258773.983,258785.30000001192,258790.905,259390.839,,6,Richard
screen,html.Screen,2_3_1_0_1_7,2022-05-02T10:19:22.285Z,,,,,,,,,,,,,,,,,2,,,,,,,,,,,,,,595.5610000357556,,response,,,,1,E,,,,,,Space,keypress(Space),,,,silence,,,,--- ---- ------ --- ------- ---------- ------- Carrington<br>--- --------- --- ----------- ------- ----- ------- ---<br>--------- ---- -- --- ---- -- --------- -- ---- -------<br>-- --------- ------ --- ----- ------ ---- --- --------- --<br>------ - ---- -- --- ----------- ------- ---- ----- -----<br>--- -------- - ------ ---- -- ----- ---- --- --- -----------<br>-- -------,259989.40000003576,259986.40000003576,259373.935,259385.5,259390.839,260007.553,,7,Carrington
screen,html.Screen,2_3_1_0_1_8,2022-05-02T10:19:22.725Z,,,,,,,,,,,,,,,,,2,,,,,,,,,,,,,,419.14699998806464,,response,,,,1,E,,,,,,Space,keypress(Space),,,,silence,,,,--- ---- ------ --- ------- ---------- ------- ----------<br>was --------- --- ----------- ------- ----- ------- ---<br>--------- ---- -- --- ---- -- --------- -- ---- -------<br>-- --------- ------ --- ----- ------ ---- --- --------- --<br>------ - ---- -- --- ----------- ------- ---- ----- -----<br>--- -------- - ------ ---- -- ----- ---- --- --- -----------<br>-- -------,260429.90000003576,260426.69999998808,259990.713,259990.40000003576,260007.553,260440.901,,8,was
screen,html.Screen,2_3_1_0_1_9,2022-05-02T10:19:23.138Z,,,,,,,,,,,,,,,,,2,,,,,,,,,,,,,,397.89900001190836,,response,,,,1,E,,,,,,Space,keypress(Space),,,,silence,,,,--- ---- ------ --- ------- ---------- ------- ----------<br>--- observing --- ----------- ------- ----- ------- ---<br>--------- ---- -- --- ---- -- --------- -- ---- -------<br>-- --------- ------ --- ----- ------ ---- --- --------- --<br>------ - ---- -- --- ----------- ------- ---- ----- -----<br>--- -------- - ------ ---- -- ----- ---- --- --- -----------<br>-- -------,260842,260838.80000001192,260424.408,260431,260440.901,260857.428,,9,observing
screen,html.Screen,2_3_1_0_1_10,2022-05-02T10:19:23.576Z,,,,,,,,,,,,,,,,,2,,,,,,,,,,,,,,419.6720000238274,,response,,,,1,E,,,,,,Space,keypress(Space),,,,silence,,,,--- ---- ------ --- ------- ---------- ------- ----------<br>--- --------- the ----------- ------- ----- ------- ---<br>--------- ---- -- --- ---- -- --------- -- ---- -------<br>-- --------- ------ --- ----- ------ ---- --- --------- --<br>------ - ---- -- --- ----------- ------- ---- ----- -----<br>--- -------- - ------ ---- -- ----- ---- --- --- -----------<br>-- -------,261280.69999998808,261277.10000002384,260841.117,260843,260857.428,261290.961,,10,the
screen,html.Screen,2_3_1_0_1_11,2022-05-02T10:19:24.001Z,,,,,,,,,,,,,,,,,2,,,,,,,,,,,,,,410.2389999880688,,response,,,,1,E,,,,,,Space,keypress(Space),,,,silence,,,,--- ---- ------ --- ------- ---------- ------- ----------<br>--- --------- --- interesting ------- ----- ------- ---<br>--------- ---- -- --- ---- -- --------- -- ---- -------<br>-- --------- ------ --- ----- ------ ---- --- --------- --<br>------ - ---- -- --- ----------- ------- ---- ----- -----<br>--- -------- - ------ ---- -- ----- ---- --- --- -----------<br>-- -------,261705.5,261701.19999998808,261274.175,261281.80000001192,261290.961,261724.196,,11,interesting
screen,html.Screen,2_3_1_0_1_12,2022-05-02T10:19:24.455Z,,,,,,,,,,,,,,,,,2,,,,,,,,,,,,,,431.7040000357665,,response,,,,1,E,,,,,,Space,keypress(Space),,,,silence,,,,--- ---- ------ --- ------- ---------- ------- ----------<br>--- --------- --- ----------- sunspot ----- ------- ---<br>--------- ---- -- --- ---- -- --------- -- ---- -------<br>-- --------- ------ --- ----- ------ ---- --- --------- --<br>------ - ---- -- --- ----------- ------- ---- ----- -----<br>--- -------- - ------ ---- -- ----- ---- --- --- -----------<br>-- -------,262159.1999999881,262155.90000003576,261707.454,261706.60000002384,261724.196,262174.266,,12,sunspot
screen,html.Screen,2_3_1_0_1_13,2022-05-02T10:19:24.902Z,,,,,,,,,,,,,,,,,2,,,,,,,,,,,,,,429.23399999999674,,response,,,,1,E,,,,,,Space,keypress(Space),,,,silence,,,,--- ---- ------ --- ------- ---------- ------- ----------<br>--- --------- --- ----------- ------- group ------- ---<br>--------- ---- -- --- ---- -- --------- -- ---- -------<br>-- --------- ------ --- ----- ------ ---- --- --------- --<br>------ - ---- -- --- ----------- ------- ---- ----- -----<br>--- -------- - ------ ---- -- ----- ---- --- --- -----------<br>-- -------,262606.90000003576,262603.5,262157.352,262160.1999999881,262174.266,262624.257,,13,group
screen,html.Screen,2_3_1_0_1_14,2022-05-02T10:19:25.333Z,,,,,,,,,,,,,,,,,2,,,,,,,,,,,,,,410.14300003577955,,response,,,,1,E,,,,,,Space,keypress(Space),,,,silence,,,,--- ---- ------ --- ------- ---------- ------- ----------<br>--- --------- --- ----------- ------- ----- through ---<br>--------- ---- -- --- ---- -- --------- -- ---- -------<br>-- --------- ------ --- ----- ------ ---- --- --------- --<br>------ - ---- -- --- ----------- ------- ---- ----- -----<br>--- -------- - ------ ---- -- ----- ---- --- --- -----------<br>-- -------,263037.90000003576,263034.40000003576,262607.539,262608,262624.257,263057.747,,14,through
screen,html.Screen,2_3_1_0_1_15,2022-05-02T10:19:25.758Z,,,,,,,,,,,,,,,,,2,,,,,,,,,,,,,,401.053000011947,,response,,,,1,E,,,,,,Space,keypress(Space),,,,silence,,,,--- ---- ------ --- ------- ---------- ------- ----------<br>--- --------- --- ----------- ------- ----- ------- his<br>--------- ---- -- --- ---- -- --------- -- ---- -------<br>-- --------- ------ --- ----- ------ ---- --- --------- --<br>------ - ---- -- --- ----------- ------- ---- ----- -----<br>--- -------- - ------ ---- -- ----- ---- --- --- -----------<br>-- -------,263462.40000003576,263458.8000000119,263040.909,263039,263057.747,263474.332,,15,his
screen,html.Screen,2_3_1_0_1_16,2022-05-02T10:19:26.147Z,,,,,,,,,,,,,,,,,2,,,,,,,,,,,,,,373.96800001192605,,response,,,,1,E,,,,,,Space,keypress(Space),,,,silence,,,,--- ---- ------ --- ------- ---------- ------- ----------<br>--- --------- --- ----------- ------- ----- ------- ---<br>telescope ---- -- --- ---- -- --------- -- ---- -------<br>-- --------- ------ --- ----- ------ ---- --- --------- --<br>------ - ---- -- --- ----------- ------- ---- ----- -----<br>--- -------- - ------ ---- -- ----- ---- --- --- -----------<br>-- -------,263851.60000002384,263848.3000000119,263457.78,263463.5,263474.332,263857.623,,16,telescope
screen,html.Screen,2_3_1_0_1_17,2022-05-02T10:19:26.619Z,,,,,,,,,,,,,,,,,2,,,,,,,,,,,,,,463.1770000118995,,response,,,,1,E,,,,,,Space,keypress(Space),,,,silence,,,,--- ---- ------ --- ------- ---------- ------- ----------<br>--- --------- --- ----------- ------- ----- ------- ---<br>--------- when -- --- ---- -- --------- -- ---- -------<br>-- --------- ------ --- ----- ------ ---- --- --------- --<br>------ - ---- -- --- ----------- ------- ---- ----- -----<br>--- -------- - ------ ---- -- ----- ---- --- --- -----------<br>-- -------,264323.90000003576,264320.8000000119,263841.012,263852.60000002384,263857.623,264340.908,,17,when
screen,html.Screen,2_3_1_0_1_18,2022-05-02T10:19:27.047Z,,,,,,,,,,,,,,,,,2,,,,,,,,,,,,,,406.3920000119251,,response,,,,1,E,,,,,,Space,keypress(Space),,,,silence,,,,--- ---- ------ --- ------- ---------- ------- ----------<br>--- --------- --- ----------- ------- ----- ------- ---<br>--------- ---- he --- ---- -- --------- -- ---- -------<br>-- --------- ------ --- ----- ------ ---- --- --------- --<br>------ - ---- -- --- ----------- ------- ---- ----- -----<br>--- -------- - ------ ---- -- ----- ---- --- --- -----------<br>-- -------,264751,264747.3000000119,264324.206,264324.90000003576,264340.908,264757.743,,18,he
screen,html.Screen,2_3_1_0_1_19,2022-05-02T10:19:27.476Z,,,,,,,,,,,,,,,,,2,,,,,,,,,,,,,,418.9569999880623,,response,,,,1,E,,,,,,Space,keypress(Space),,,,silence,,,,--- ---- ------ --- ------- ---------- ------- ----------<br>--- --------- --- ----------- ------- ----- ------- ---<br>--------- ---- -- saw ---- -- --------- -- ---- -------<br>-- --------- ------ --- ----- ------ ---- --- --------- --<br>------ - ---- -- --- ----------- ------- ---- ----- -----<br>--- -------- - ------ ---- -- ----- ---- --- --- -----------<br>-- -------,265180.3000000119,265176.6999999881,264740.876,264752,264757.743,265191.069,,19,saw
screen,html.Screen,2_3_1_0_1_20,2022-05-02T10:19:27.908Z,,,,,,,,,,,,,,,,,2,,,,,,,,,,,,,,418.23100001190323,,response,,,,1,E,,,,,,Space,keypress(Space),,,,silence,,,,--- ---- ------ --- ------- ---------- ------- ----------<br>--- --------- --- ----------- ------- ----- ------- ---<br>--------- ---- -- --- what -- --------- -- ---- -------<br>-- --------- ------ --- ----- ------ ---- --- --------- --<br>------ - ---- -- --- ----------- ------- ---- ----- -----<br>--- -------- - ------ ---- -- ----- ---- --- --- -----------<br>-- -------,265612.5,265609.3000000119,265174.207,265181.1999999881,265191.069,265624.278,,20,what
screen,html.Screen,2_3_1_0_1_21,2022-05-02T10:19:28.320Z,,,,,,,,,,,,,,,,,2,,,,,,,,,,,,,,397.3220000238507,,response,,,,1,E,,,,,,Space,keypress(Space),,,,silence,,,,--- ---- ------ --- ------- ---------- ------- ----------<br>--- --------- --- ----------- ------- ----- ------- ---<br>--------- ---- -- --- ---- he --------- -- ---- -------<br>-- --------- ------ --- ----- ------ ---- --- --------- --<br>------ - ---- -- --- ----------- ------- ---- ----- -----<br>--- -------- - ------ ---- -- ----- ---- --- --- -----------<br>-- -------,266024.90000003576,266021.60000002384,265607.613,265613.6999999881,265624.278,266041.093,,21,he
screen,html.Screen,2_3_1_0_1_22,2022-05-02T10:19:28.795Z,,,,,,,,,,,,,,,,,2,,,,,,,,,,,,,,454.8070000357693,,response,,,,1,E,,,,,,Space,keypress(Space),,,,silence,,,,--- ---- ------ --- ------- ---------- ------- ----------<br>--- --------- --- ----------- ------- ----- ------- ---<br>--------- ---- -- --- ---- -- described -- ---- -------<br>-- --------- ------ --- ----- ------ ---- --- --------- --<br>------ - ---- -- --- ----------- ------- ---- ----- -----<br>--- -------- - ------ ---- -- ----- ---- --- --- -----------<br>-- -------,266499.1999999881,266495.90000003576,266024.277,266025.90000003576,266041.093,266507.883,,22,described
screen,html.Screen,2_3_1_0_1_23,2022-05-02T10:19:29.180Z,,,,,,,,,,,,,,,,,2,,,,,,,,,,,,,,374.31699998810655,,response,,,,1,E,,,,,,Space,keypress(Space),,,,silence,,,,--- ---- ------ --- ------- ---------- ------- ----------<br>--- --------- --- ----------- ------- ----- ------- ---<br>--------- ---- -- --- ---- -- --------- as ---- -------<br>-- --------- ------ --- ----- ------ ---- --- --------- --<br>------ - ---- -- --- ----------- ------- ---- ----- -----<br>--- -------- - ------ ---- -- ----- ---- --- --- -----------<br>-- -------,266884.8000000119,266882.1999999881,266490.963,266500.1999999881,266507.883,266907.74,,23,as
screen,html.Screen,2_3_1_0_1_24,2022-05-02T10:19:29.574Z,,,,,,,,,,,,,,,,,2,,,,,,,,,,,,,,367.4599999880884,,response,,,,1,E,,,,,,Space,keypress(Space),,,,silence,,,,"--- ---- ------ --- ------- ---------- ------- ----------<br>--- --------- --- ----------- ------- ----- ------- ---<br>--------- ---- -- --- ---- -- --------- -- ""two -------<br>-- --------- ------ --- ----- ------ ---- --- --------- --<br>------ - ---- -- --- ----------- ------- ---- ----- -----<br>--- -------- - ------ ---- -- ----- ---- --- --- -----------<br>-- -------",267278.40000003576,267275.1999999881,266874.555,266885.6999999881,266907.74,267291.159,,24,"""two"
screen,html.Screen,2_3_1_0_1_25,2022-05-02T10:19:30.135Z,,,,,,,,,,,,,,,,,2,,,,,,,,,,,,,,544.7410000357777,,response,,,,1,E,,,,,,Space,keypress(Space),,,,silence,,,,--- ---- ------ --- ------- ---------- ------- ----------<br>--- --------- --- ----------- ------- ----- ------- ---<br>--------- ---- -- --- ---- -- --------- -- ---- patches<br>-- --------- ------ --- ----- ------ ---- --- --------- --<br>------ - ---- -- --- ----------- ------- ---- ----- -----<br>--- -------- - ------ ---- -- ----- ---- --- --- -----------<br>-- -------,267839,267835.90000003576,267274.213,267279.40000003576,267291.159,267857.73,,25,patches
screen,html.Screen,2_3_1_0_1_26,2022-05-02T10:19:30.547Z,,,,,,,,,,,,,,,,,2,,,,,,,,,,,,,,390.7700000000186,,response,,,,1,E,,,,,,Space,keypress(Space),,,,silence,,,,--- ---- ------ --- ------- ---------- ------- ----------<br>--- --------- --- ----------- ------- ----- ------- ---<br>--------- ---- -- --- ---- -- --------- -- ---- -------<br>of --------- ------ --- ----- ------ ---- --- --------- --<br>------ - ---- -- --- ----------- ------- ---- ----- -----<br>--- -------- - ------ ---- -- ----- ---- --- --- -----------<br>-- -------,268251.6999999881,268248.5,267841.059,267840.10000002384,267857.73,268257.849,,26,of
screen,html.Screen,2_3_1_0_1_27,2022-05-02T10:19:30.962Z,,,,,,,,,,,,,,,,,2,,,,,,,,,,,,,,405.1510000000126,,response,,,,1,E,,,,,,Space,keypress(Space),,,,silence,,,,--- ---- ------ --- ------- ---------- ------- ----------<br>--- --------- --- ----------- ------- ----- ------- ---<br>--------- ---- -- --- ---- -- --------- -- ---- -------<br>-- intensely ------ --- ----- ------ ---- --- --------- --<br>------ - ---- -- --- ----------- ------- ---- ----- -----<br>--- -------- - ------ ---- -- ----- ---- --- --- -----------<br>-- -------,268666.3000000119,268663,268241.008,268252.6999999881,268257.849,268674.528,,27,intensely
screen,html.Screen,2_3_1_0_1_28,2022-05-02T10:19:31.363Z,,,,,,,,,,,,,,,,,2,,,,,,,,,,,,,,389.7720000119298,,response,,,,1,E,,,,,,Space,keypress(Space),,,,silence,,,,--- ---- ------ --- ------- ---------- ------- ----------<br>--- --------- --- ----------- ------- ----- ------- ---<br>--------- ---- -- --- ---- -- --------- -- ---- -------<br>-- --------- bright --- ----- ------ ---- --- --------- --<br>------ - ---- -- --- ----------- ------- ---- ----- -----<br>--- -------- - ------ ---- -- ----- ---- --- --- -----------<br>-- -------,269067.60000002384,269064.3000000119,268657.955,268667.1999999881,268674.528,269074.666,,28,bright
screen,html.Screen,2_3_1_0_1_29,2022-05-02T10:19:31.750Z,,,,,,,,,,,,,,,,,2,,,,,,,,,,,,,,376.33399999997346,,response,,,,1,E,,,,,,Space,keypress(Space),,,,silence,,,,--- ---- ------ --- ------- ---------- ------- ----------<br>--- --------- --- ----------- ------- ----- ------- ---<br>--------- ---- -- --- ---- -- --------- -- ---- -------<br>-- --------- ------ and ----- ------ ---- --- --------- --<br>------ - ---- -- --- ----------- ------- ---- ----- -----<br>--- -------- - ------ ---- -- ----- ---- --- --- -----------<br>-- -------,269454.3000000119,269451,269057.648,269068.60000002384,269074.666,269491.081,,29,and
screen,html.Screen,2_3_1_0_1_30,2022-05-02T10:19:32.132Z,,,,,,,,,,,,,,,,,2,,,,,,,,,,,,,,342.21900001191534,,response,,,,1,E,,,,,,Space,keypress(Space),,,,silence,,,,--- ---- ------ --- ------- ---------- ------- ----------<br>--- --------- --- ----------- ------- ----- ------- ---<br>--------- ---- -- --- ---- -- --------- -- ---- -------<br>-- --------- ------ --- white ------ ---- --- --------- --<br>------ - ---- -- --- ----------- ------- ---- ----- -----<br>--- -------- - ------ ---- -- ----- ---- --- --- -----------<br>-- -------,269836.8000000119,269833.3000000119,269474.753,269455.3000000119,269491.081,269869.454,,30,white
screen,html.Screen,2_3_1_0_1_31,2022-05-02T10:19:32.484Z,,,,,,,,,,,,,,,,,2,,,,,,,,,,,,,,315.64600002381485,,response,,,,1,E,,,,,,Space,keypress(Space),,,,silence,,,,"--- ---- ------ --- ------- ---------- ------- ----------<br>--- --------- --- ----------- ------- ----- ------- ---<br>--------- ---- -- --- ---- -- --------- -- ---- -------<br>-- --------- ------ --- ----- light"" ---- --- --------- --<br>------ - ---- -- --- ----------- ------- ---- ----- -----<br>--- -------- - ------ ---- -- ----- ---- --- --- -----------<br>-- -------",270188.40000003576,270185.10000002384,269824.405,269837.90000003576,269869.454,270207.882,,31,"light"""
screen,html.Screen,2_3_1_0_1_32,2022-05-02T10:19:32.899Z,,,,,,,,,,,,,,,,,2,,,,,,,,,,,,,,392.2180000238586,,response,,,,1,E,,,,,,Space,keypress(Space),,,,silence,,,,--- ---- ------ --- ------- ---------- ------- ----------<br>--- --------- --- ----------- ------- ----- ------- ---<br>--------- ---- -- --- ---- -- --------- -- ---- -------<br>-- --------- ------ --- ----- ------ over --- --------- --<br>------ - ---- -- --- ----------- ------- ---- ----- -----<br>--- -------- - ------ ---- -- ----- ---- --- --- -----------<br>-- -------,270603.6999999881,270600.10000002384,270191.257,270189.40000003576,270207.882,270638.805,,32,over
screen,html.Screen,2_3_1_0_1_33,2022-05-02T10:19:33.288Z,,,,,,,,,,,,,,,,,2,,,,,,,,,,,,,,349.79500002384884,,response,,,,1,E,,,,,,Space,keypress(Space),,,,silence,,,,--- ---- ------ --- ------- ---------- ------- ----------<br>--- --------- --- ----------- ------- ----- ------- ---<br>--------- ---- -- --- ---- -- --------- -- ---- -------<br>-- --------- ------ --- ----- ------ ---- the --------- --<br>------ - ---- -- --- ----------- ------- ---- ----- -----<br>--- -------- - ------ ---- -- ----- ---- --- --- -----------<br>-- -------,270992.10000002384,270988.60000002384,270591.079,270604.8000000119,270638.805,271007.833,,33,the
screen,html.Screen,2_3_1_0_1_34,2022-05-02T10:19:33.655Z,,,,,,,,,,,,,,,,,2,,,,,,,,,,,,,,347.8669999880949,,response,,,,1,E,,,,,,Space,keypress(Space),,,,silence,,,,--- ---- ------ --- ------- ---------- ------- ----------<br>--- --------- --- ----------- ------- ----- ------- ---<br>--------- ---- -- --- ---- -- --------- -- ---- -------<br>-- --------- ------ --- ----- ------ ---- --- sunspots. --<br>------ - ---- -- --- ----------- ------- ---- ----- -----<br>--- -------- - ------ ---- -- ----- ---- --- --- -----------<br>-- -------,271359.1999999881,271355.6999999881,270991.241,270993.10000002384,271007.833,271374.565,,34,sunspots.
screen,html.Screen,2_3_1_0_1_35,2022-05-02T10:19:34.134Z,,,,,,,,,,,,,,,,,2,,,,,,,,,,,,,,460.7350000119186,,response,,,,1,E,,,,,,Space,keypress(Space),,,,silence,,,,--- ---- ------ --- ------- ---------- ------- ----------<br>--- --------- --- ----------- ------- ----- ------- ---<br>--------- ---- -- --- ---- -- --------- -- ---- -------<br>-- --------- ------ --- ----- ------ ---- --- --------- He<br>------ - ---- -- --- ----------- ------- ---- ----- -----<br>--- -------- - ------ ---- -- ----- ---- --- --- -----------<br>-- -------,271838.5,271835.3000000119,271357.986,271360.3000000119,271374.565,271857.976,,35,He
screen,html.Screen,2_3_1_0_1_36,2022-05-02T10:19:34.524Z,,,,,,,,,,,,,,,,,2,,,,,,,,,,,,,,366.8240000118967,,response,,,,1,E,,,,,,Space,keypress(Space),,,,silence,,,,--- ---- ------ --- ------- ---------- ------- ----------<br>--- --------- --- ----------- ------- ----- ------- ---<br>--------- ---- -- --- ---- -- --------- -- ---- -------<br>-- --------- ------ --- ----- ------ ---- --- --------- --<br>jotted - ---- -- --- ----------- ------- ---- ----- -----<br>--- -------- - ------ ---- -- ----- ---- --- --- -----------<br>-- -------,272228.40000003576,272224.8000000119,271841.027,271839.60000002384,271857.976,272241.459,,36,jotted
screen,html.Screen,2_3_1_0_1_37,2022-05-02T10:19:34.949Z,,,,,,,,,,,,,,,,,2,,,,,,,,,,,,,,408.8410000119475,,response,,,,1,E,,,,,,Space,keypress(Space),,,,silence,,,,--- ---- ------ --- ------- ---------- ------- ----------<br>--- --------- --- ----------- ------- ----- ------- ---<br>--------- ---- -- --- ---- -- --------- -- ---- -------<br>-- --------- ------ --- ----- ------ ---- --- --------- --<br>------ a ---- -- --- ----------- ------- ---- ----- -----<br>--- -------- - ------ ---- -- ----- ---- --- --- -----------<br>-- -------,272653.90000003576,272650.3000000119,272224.463,272229.5,272241.459,272682.594,,37,a
