sender,sender_type,sender_id,timestamp,meta,,Blues,Classical,Country,Dance,Electronic,Folk,Gospel,Hip-Hop,Jazz,Latin,Musical/Film,New-age,Pop,Prolific_id,Provo_ID,R&B,Rap,Reggae,Religious,Rock,Soul,Swing,Traditional,age,artist_name,correct,correctResponse,distraction,duration,education,ended_on,familiarity,gender,headphone_check_performance,item,list,music_frequency,offensiveness,pleasantness,position_correct,preference,response,response_action,snippet_file,song_name,song_rating,sound,stimulus_1,stimulus_2,stimulus_3,text,time_commit,time_end,time_render,time_run,time_show,time_switch,url,word,word_ID
Prolific ID,html.Form,0,2022-04-28T09:43:37.789Z,"{""labjs_version"":""20.2.2"",""labjs_build"":{""flavor"":""production"",""commit"":""a25486e0c714a0ae2ce03ff94b7bb6896854dcfa""},""location"":""https://run.pavlovia.org/mvasilev/prolific3_music_d/"",""userAgent"":""Mozilla/5.0 (Windows NT 10.0; Win64; x64) AppleWebKit/537.36 (KHTML, like Gecko) Chrome/100.0.4896.127 Safari/537.36 Edg/100.0.1185.50"",""platform"":""Win32"",""language"":""en-GB"",""locale"":""en-GB"",""timeZone"":""Europe/London"",""timezoneOffset"":-60,""screen_width"":1366,""screen_height"":768,""scroll_width"":1366,""scroll_height"":609,""window_innerWidth"":1366,""window_innerHeight"":657,""devicePixelRatio"":1}",,,,,,,,,,,,,,,5f075086646b9a32a8238dba,,,,,,,,,,,,,,,5496.992000095368,,form submission,,,,,,,,,,,,,,,,,,,,,28984.700000047684,28983.400000095367,23403.123,23405.400000095367,23486.408,29002.789,{},,
Introduction,html.Screen,1_0,2022-04-28T09:43:41.507Z,,,,,,,,,,,,,,,,,,,,,,,,,,,,,,,3696.2109999999993,,response,,,,,,,,,,,continue,click button,,,,,,,,,32702.400000095367,32699,28969.48,28987.900000095367,29002.789,32702.615,,,
Volume calibration,html.Screen,1_1,2022-04-28T09:44:08.563Z,,,,,,,,,,,,,,,,,,,,,,,,,,,,,,,27044.885,,response,,,,,,,,,,,continue,click button,,,,,,,,,59758.700000047684,59747.5,32685.94,32702.600000023842,32702.615,59768.017,,,
Task instructions,html.Screen,1_2,2022-04-28T09:44:16.546Z,,,,,,,,,,,,,,,,,,,,,,,,,,,,,,,7971.583000023842,,response,,,,,,,,,,,continue,click button,,,,,,,,,67741.80000007153,67739.60000002384,59734.993,59759.10000002384,59768.017,67750.999,,,
Sounds,html.Screen,1_3_0_0,2022-04-28T09:44:20.797Z,,,,,,,,,,,,,,,,,,,,,,,,,,,,,,,4249.851999999999,,timeout,,,,,,,,,3,,,,,,,,I,O,S,,71993,71984.417,67734.592,67742.30000007153,67750.999,72000.851,,,
Judgement,html.Screen,1_3_0_1,2022-04-28T09:44:22.603Z,,,,,,,,,,,,,,,,,,,,,,,,,,,,true,3,,1794.7490000238467,,response,,,,,,,,,3,,3,click #choice-3,,,,,I,O,S,,73798.30000007153,73795.60000002384,71984.417,71993.5,72000.851,73800.941,,,
Trial,flow.Sequence,1_3_0,2022-04-28T09:44:22.604Z,,,,,,,,,,,,,,,,,,,,,,,,,,,,,,,6044.601000023846,,completion,,,,,,,,,3,,,,,,,,I,O,S,,73799.30000007153,73795.60000002384,67734.592,67742.20000004768,67750.999,73800.941,,,
Sounds,html.Screen,1_3_1_0,2022-04-28T09:44:26.840Z,,,,,,,,,,,,,,,,,,,,,,,,,,,,,,,4249.497999999992,,timeout,,,,,,,,,2,,,,,,,,I,S,O,,78036,78033.885,73784.304,73800.20000004768,73800.941,78050.439,,,
Judgement,html.Screen,1_3_1_1,2022-04-28T09:44:27.443Z,,,,,,,,,,,,,,,,,,,,,,,,,,,,true,2,,585.1610000238434,,response,,,,,,,,,2,,2,click #choice-2,,,,,I,S,O,,78639,78635.60000002384,78033.885,78036.70000004768,78050.439,78651.481,,,
Trial,flow.Sequence,1_3_1,2022-04-28T09:44:27.444Z,,,,,,,,,,,,,,,,,,,,,,,,,,,,,,,4834.659000023836,,completion,,,,,,,,,2,,,,,,,,I,S,O,,78639.70000004768,78635.60000002384,73784.304,73799.5,73800.941,78651.481,,,
Sounds,html.Screen,1_3_2_0,2022-04-28T09:44:31.690Z,,,,,,,,,,,,,,,,,,,,,,,,,,,,,,,4248.8080000000045,,timeout,,,,,,,,,3,,,,,,,,O,I,S,,82885.80000007153,82883.877,78633.853,78640.10000002384,78651.481,82900.289,,,
Judgement,html.Screen,1_3_2_1,2022-04-28T09:44:34.241Z,,,,,,,,,,,,,,,,,,,,,,,,,,,,true,3,,2534.611000095363,,response,,,,,,,,,3,,3,click #choice-3,,,,,O,I,S,,85436.70000004768,85434.90000009537,82883.877,82886.5,82900.289,85450.411,,,
Trial,flow.Sequence,1_3_2,2022-04-28T09:44:34.241Z,,,,,,,,,,,,,,,,,,,,,,,,,,,,,,,6783.419000095368,,completion,,,,,,,,,3,,,,,,,,O,I,S,,85437,85434.90000009537,78633.853,78640,78651.481,85450.411,,,
Sounds,html.Screen,1_3_3_0,2022-04-28T09:44:38.490Z,,,,,,,,,,,,,,,,,,,,,,,,,,,,,,,4249.520000000004,,timeout,,,,,,,,,1,,,,,,,,S,I,O,,89685.40000009537,89683.357,85433.871,85437.20000004768,85450.411,89699.931,,,
Judgement,html.Screen,1_3_3_1,2022-04-28T09:44:40.210Z,,,,,,,,,,,,,,,,,,,,,,,,,,,,true,1,,1703.3690000715287,,response,,,,,,,,,1,,1,click #choice-1,,,,,S,I,O,,91405.5,91403.30000007153,89683.357,89685.80000007153,89699.931,91417.166,,,
Trial,flow.Sequence,1_3_3,2022-04-28T09:44:40.210Z,,,,,,,,,,,,,,,,,,,,,,,,,,,,,,,5952.889000071533,,completion,,,,,,,,,1,,,,,,,,S,I,O,,91406.10000002384,91403.30000007153,85433.871,85437.10000002384,85450.411,91417.166,,,
Sounds,html.Screen,1_3_4_0,2022-04-28T09:44:44.456Z,,,,,,,,,,,,,,,,,,,,,,,,,,,,,,,4250.334000000003,,timeout,,,,,,,,,2,,,,,,,,O,S,I,,95652,95649.959,91400.156,91406.30000007153,91417.166,95667.5,,,
Judgement,html.Screen,1_3_4_1,2022-04-28T09:44:45.042Z,,,,,,,,,,,,,,,,,,,,,,,,,,,,true,2,,567.9000000953674,,response,,,,,,,,,2,,2,click #choice-2,,,,,O,S,I,,96237.80000007153,96235.40000009537,95649.959,95652.30000007153,95667.5,96249.875,,,
Trial,flow.Sequence,1_3_4,2022-04-28T09:44:45.043Z,,,,,,,,,,,,,,,,,,,,,,,,,,,,,,,4818.23400009537,,completion,,,,,,,,,2,,,,,,,,O,S,I,,96238.20000004768,96235.40000009537,91400.156,91406.20000004768,91417.166,96249.875,,,
Sounds,html.Screen,1_3_5_0,2022-04-28T09:44:49.289Z,,,,,,,,,,,,,,,,,,,,,,,,,,,,,,,4249.550000000003,,timeout,,,,,,,,,1,,,,,,,,S,O,I,,100484.90000009537,100483.066,96233.313,96238.60000002384,96249.875,100499.425,,,
Judgement,html.Screen,1_3_5_1,2022-04-28T09:44:49.940Z,,,,,,,,,,,,,,,,,,,,,,,,,,,,true,1,,632.0749999999971,,response,,,,,,,,,1,,1,click #choice-1,,,,,S,O,I,,101135.10000002384,101131.5,100483.066,100485.30000007153,100499.425,101149.427,,,
Trial,flow.Sequence,1_3_5,2022-04-28T09:44:49.940Z,,,,,,,,,,,,,,,,,,,,,,,,,,,,,,,4881.625,,completion,,,,,,,,,1,,,,,,,,S,O,I,,101135.70000004768,101131.5,96233.313,96238.5,96249.875,101149.427,,,
Task,flow.Loop,1_3,2022-04-28T09:44:49.953Z,,,,,,,,,,,,,,,,,,,,,,,,,,,,,,,33380.501000000004,,completion,,,1,,,,,,,,,,,,,,,,,,101148.40000009537,101131.5,67734.592,67742.10000002384,67750.999,101149.427,,,
Trap,html.Screen,1_4,2022-04-28T09:44:49.957Z,,,,,,,,,,,,,,,,,,,,,,,,,,,,,,,NaN,,skipped,,,,,,,,,,,,,,,,,,,,,101152.60000002384,101131.5,,101152.40000009537,,101149.427,,,
Thanks,html.Screen,1_5,2022-04-28T09:44:53.714Z,,,,,,,,,,,,,,,,,,,,,,,,,,,,,,,3757.9730000953714,,response,,,,,,,,,,,continue,click button,,,,,,,,,104910,104907.40000009537,101132.963,101152.80000007153,101149.427,108051.199,,,
Headphone screening,flow.Sequence,1,2022-04-28T09:44:53.715Z,,,,,,,,,,,,,,,,,,,,,,,,,,,,,,,75904.61100009536,,completion,,,,,,,,,,,,,,,,,,,,,104910.40000009537,104907.40000009537,28969.48,28986,29002.789,108051.199,,,
Instructions,html.Page,2_0,2022-04-28T09:45:16.193Z,,,,,,,,,,,,,,,,,,,,,,,,,,,,,,,19337.40100002385,,form submission,,,,,,,,,,,,,,,,,,,,,127389,127388.60000002384,107999.071,108024.30000007153,108051.199,127398.155,,,
Holding screen,html.Screen,2_1_0_0,2022-04-28T09:45:26.187Z,,,,,,,,,,,,,,,,,,,,,,,,,,,,,,,10032.867999999988,,timeout,,,,,,,,,,,,,,,,,,,,,137382.80000007153,137381.302,127381.429,127389.20000004768,127398.155,137431.023,,,
screen,html.Screen,2_1_0_1_0,2022-04-28T09:45:27.549Z,,,,,,,,,,,,,,,,,53,,,,,,,,,,,,,,1305.5770000238554,,response,,,,99,,,,,,,Space,keypress(Space),,,,,,,,When -- ----- -- ------ - ------- --- ----------<br>------------- ------ ------ ---- ---- ------- ----- -- ----<br>-------- ------- -- ---------- --- - --- ----- ----- ----<br>---- --- --- ----- --- ---- ---- ------- ----- ---- -------<br>--- --- -- ----- -- --- ---- -- --- ---- -- ------ ------<br>--- ----- -- ----,138744.40000009537,138736.60000002384,137381.302,137383.5,137431.023,138747.616,,0,When
screen,html.Screen,2_1_0_1_1,2022-04-28T09:45:28.056Z,,,,,,,,,,,,,,,,,53,,,,,,,,,,,,,,501.9840000238328,,response,,,,99,,,,,,,Space,keypress(Space),,,,,,,,---- it ----- -- ------ - ------- --- ----------<br>------------- ------ ------ ---- ---- ------- ----- -- ----<br>-------- ------- -- ---------- --- - --- ----- ----- ----<br>---- --- --- ----- --- ---- ---- ------- ----- ---- -------<br>--- --- -- ----- -- --- ---- -- --- ---- -- ------ ------<br>--- ----- -- ----,139251.90000009537,139249.60000002384,138731.208,138745,138747.616,139264.503,,1,it
screen,html.Screen,2_1_0_1_2,2022-04-28T09:45:28.517Z,,,,,,,,,,,,,,,,,53,,,,,,,,,,,,,,446.497000000003,,response,,,,99,,,,,,,Space,keypress(Space),,,,,,,,---- -- comes -- ------ - ------- --- ----------<br>------------- ------ ------ ---- ---- ------- ----- -- ----<br>-------- ------- -- ---------- --- - --- ----- ----- ----<br>---- --- --- ----- --- ---- ---- ------- ----- ---- -------<br>--- --- -- ----- -- --- ---- -- --- ---- -- ------ ------<br>--- ----- -- ----,139713,139711,139247.878,139252.20000004768,139264.503,139731.295,,2,comes
screen,html.Screen,2_1_0_1_3,2022-04-28T09:45:28.880Z,,,,,,,,,,,,,,,,,53,,,,,,,,,,,,,,343.00500007151277,,response,,,,99,,,,,,,Space,keypress(Space),,,,,,,,---- -- ----- to ------ - ------- --- ----------<br>------------- ------ ------ ---- ---- ------- ----- -- ----<br>-------- ------- -- ---------- --- - --- ----- ----- ----<br>---- --- --- ----- --- ---- ---- ------- ----- ---- -------<br>--- --- -- ----- -- --- ---- -- --- ---- -- ------ ------<br>--- ----- -- ----,140076.30000007153,140074.30000007153,139714.267,139713.40000009537,139731.295,140080.912,,3,to
screen,html.Screen,2_1_0_1_4,2022-04-28T09:45:29.286Z,,,,,,,,,,,,,,,,,53,,,,,,,,,,,,,,398.8880000715144,,response,,,,99,,,,,,,Space,keypress(Space),,,,,,,,---- -- ----- -- having - ------- --- ----------<br>------------- ------ ------ ---- ---- ------- ----- -- ----<br>-------- ------- -- ---------- --- - --- ----- ----- ----<br>---- --- --- ----- --- ---- ---- ------- ----- ---- -------<br>--- --- -- ----- -- --- ---- -- --- ---- -- ------ ------<br>--- ----- -- ----,140481.70000004768,140479.80000007153,140064.449,140076.70000004768,140080.912,140497.857,,4,having
screen,html.Screen,2_1_0_1_5,2022-04-28T09:45:29.625Z,,,,,,,,,,,,,,,,,53,,,,,,,,,,,,,,321.2430000238528,,response,,,,99,,,,,,,Space,keypress(Space),,,,,,,,---- -- ----- -- ------ a ------- --- ----------<br>------------- ------ ------ ---- ---- ------- ----- -- ----<br>-------- ------- -- ---------- --- - --- ----- ----- ----<br>---- --- --- ----- --- ---- ---- ------- ----- ---- -------<br>--- --- -- ----- -- --- ---- -- --- ---- -- ------ ------<br>--- ----- -- ----,140821.10000002384,140819.10000002384,140481.096,140482.10000002384,140497.857,140830.936,,5,a
screen,html.Screen,2_1_0_1_6,2022-04-28T09:45:30.014Z,,,,,,,,,,,,,,,,,53,,,,,,,,,,,,,,376.96400009538047,,response,,,,99,,,,,,,Space,keypress(Space),,,,,,,,---- -- ----- -- ------ - lasting --- ----------<br>------------- ------ ------ ---- ---- ------- ----- -- ----<br>-------- ------- -- ---------- --- - --- ----- ----- ----<br>---- --- --- ----- --- ---- ---- ------- ----- ---- -------<br>--- --- -- ----- -- --- ---- -- --- ---- -- ------ ------<br>--- ----- -- ----,141209.80000007153,141207.90000009537,140814.428,140821.40000009537,140830.936,141214.199,,6,lasting
screen,html.Screen,2_1_0_1_7,2022-04-28T09:45:30.385Z,,,,,,,,,,,,,,,,,53,,,,,,,,,,,,,,364.80100000000675,,response,,,,99,,,,,,,Space,keypress(Space),,,,,,,,---- -- ----- -- ------ - ------- and ----------<br>------------- ------ ------ ---- ---- ------- ----- -- ----<br>-------- ------- -- ---------- --- - --- ----- ----- ----<br>---- --- --- ----- --- ---- ---- ------- ----- ---- -------<br>--- --- -- ----- -- --- ---- -- --- ---- -- ------ ------<br>--- ----- -- ----,141581,141579,141197.778,141210.30000007153,141214.199,141598.22,,7,and
screen,html.Screen,2_1_0_1_8,2022-04-28T09:45:31.004Z,,,,,,,,,,,,,,,,,53,,,,,,,,,,,,,,599.8800000238407,,response,,,,99,,,,,,,Space,keypress(Space),,,,,,,,---- -- ----- -- ------ - ------- --- fulfilling<br>------------- ------ ------ ---- ---- ------- ----- -- ----<br>-------- ------- -- ---------- --- - --- ----- ----- ----<br>---- --- --- ----- --- ---- ---- ------- ----- ---- -------<br>--- --- -- ----- -- --- ---- -- --- ---- -- ------ ------<br>--- ----- -- ----,142200.10000002384,142198.10000002384,141581.168,141581.30000007153,141598.22,142214.223,,8,fulfilling
screen,html.Screen,2_1_0_1_9,2022-04-28T09:45:31.697Z,,,,,,,,,,,,,,,,,53,,,,,,,,,,,,,,676.4770000476856,,response,,,,99,,,,,,,Space,keypress(Space),,,,,,,,"---- -- ----- -- ------ - ------- --- ----------<br>relationship, ------ ------ ---- ---- ------- ----- -- ----<br>-------- ------- -- ---------- --- - --- ----- ----- ----<br>---- --- --- ----- --- ---- ---- ------- ----- ---- -------<br>--- --- -- ----- -- --- ---- -- --- ---- -- ------ ------<br>--- ----- -- ----",142892.70000004768,142890.70000004768,142197.705,142200.5,142214.223,142897.448,,9,"relationship,"
screen,html.Screen,2_1_0_1_10,2022-04-28T09:45:32.338Z,,,,,,,,,,,,,,,,,53,,,,,,,,,,,,,,633.7520000476798,,response,,,,99,,,,,,,Space,keypress(Space),,,,,,,,---- -- ----- -- ------ - ------- --- ----------<br>------------- common ------ ---- ---- ------- ----- -- ----<br>-------- ------- -- ---------- --- - --- ----- ----- ----<br>---- --- --- ----- --- ---- ---- ------- ----- ---- -------<br>--- --- -- ----- -- --- ---- -- --- ---- -- ------ ------<br>--- ----- -- ----,143534.20000004768,143531.20000004768,142880.759,142893.10000002384,142897.448,143547.589,,10,common
screen,html.Screen,2_1_0_1_11,2022-04-28T09:45:32.749Z,,,,,,,,,,,,,,,,,53,,,,,,,,,,,,,,394.8110000953602,,response,,,,99,,,,,,,Space,keypress(Space),,,,,,,,---- -- ----- -- ------ - ------- --- ----------<br>------------- ------ wisdom ---- ---- ------- ----- -- ----<br>-------- ------- -- ---------- --- - --- ----- ----- ----<br>---- --- --- ----- --- ---- ---- ------- ----- ---- -------<br>--- --- -- ----- -- --- ---- -- --- ---- -- ------ ------<br>--- ----- -- ----,143945,143942.40000009537,143530.98,143534.60000002384,143547.589,143973.362,,11,wisdom
screen,html.Screen,2_1_0_1_12,2022-04-28T09:45:33.083Z,,,,,,,,,,,,,,,,,53,,,,,,,,,,,,,,304.1380000000063,,response,,,,99,,,,,,,Space,keypress(Space),,,,,,,,---- -- ----- -- ------ - ------- --- ----------<br>------------- ------ ------ says ---- ------- ----- -- ----<br>-------- ------- -- ---------- --- - --- ----- ----- ----<br>---- --- --- ----- --- ---- ---- ------- ----- ---- -------<br>--- --- -- ----- -- --- ---- -- --- ---- -- ------ ------<br>--- ----- -- ----,144279.40000009537,144277.5,143930.765,143945.40000009537,143973.362,144297.526,,12,says
screen,html.Screen,2_1_0_1_13,2022-04-28T09:45:33.435Z,,,,,,,,,,,,,,,,,53,,,,,,,,,,,,,,331.0740000238293,,response,,,,99,,,,,,,Space,keypress(Space),,,,,,,,---- -- ----- -- ------ - ------- --- ----------<br>------------- ------ ------ ---- that ------- ----- -- ----<br>-------- ------- -- ---------- --- - --- ----- ----- ----<br>---- --- --- ----- --- ---- ---- ------- ----- ---- -------<br>--- --- -- ----- -- --- ---- -- --- ---- -- ------ ------<br>--- ----- -- ----,144630.5,144628.60000002384,144280.738,144282.10000002384,144297.526,144647.843,,13,that
screen,html.Screen,2_1_0_1_14,2022-04-28T09:45:33.757Z,,,,,,,,,,,,,,,,,53,,,,,,,,,,,,,,303.05700009537395,,response,,,,99,,,,,,,Space,keypress(Space),,,,,,,,---- -- ----- -- ------ - ------- --- ----------<br>------------- ------ ------ ---- ---- feeling ----- -- ----<br>-------- ------- -- ---------- --- - --- ----- ----- ----<br>---- --- --- ----- --- ---- ---- ------- ----- ---- -------<br>--- --- -- ----- -- --- ---- -- --- ---- -- ------ ------<br>--- ----- -- ----,144953,144950.90000009537,144630.943,144630.90000009537,144647.843,144964.127,,14,feeling
screen,html.Screen,2_1_0_1_15,2022-04-28T09:45:34.103Z,,,,,,,,,,,,,,,,,53,,,,,,,,,,,,,,333.1730000715179,,response,,,,99,,,,,,,Space,keypress(Space),,,,,,,,---- -- ----- -- ------ - ------- --- ----------<br>------------- ------ ------ ---- ---- ------- close -- ----<br>-------- ------- -- ---------- --- - --- ----- ----- ----<br>---- --- --- ----- --- ---- ---- ------- ----- ---- -------<br>--- --- -- ----- -- --- ---- -- --- ---- -- ------ ------<br>--- ----- -- ----,145299.20000004768,145297.30000007153,144947.664,144953.30000007153,144964.127,145314.343,,15,close
screen,html.Screen,2_1_0_1_16,2022-04-28T09:45:34.407Z,,,,,,,,,,,,,,,,,53,,,,,,,,,,,,,,286.4570000715321,,response,,,,99,,,,,,,Space,keypress(Space),,,,,,,,---- -- ----- -- ------ - ------- --- ----------<br>------------- ------ ------ ---- ---- ------- ----- to ----<br>-------- ------- -- ---------- --- - --- ----- ----- ----<br>---- --- --- ----- --- ---- ---- ------- ----- ---- -------<br>--- --- -- ----- -- --- ---- -- --- ---- -- ------ ------<br>--- ----- -- ----,145602.70000004768,145600.80000007153,145297.579,145299.60000002384,145314.343,145613.996,,16,to
screen,html.Screen,2_1_0_1_17,2022-04-28T09:45:34.763Z,,,,,,,,,,,,,,,,,53,,,,,,,,,,,,,,342.80400007151184,,response,,,,99,,,,,,,Space,keypress(Space),,,,,,,,---- -- ----- -- ------ - ------- --- ----------<br>------------- ------ ------ ---- ---- ------- ----- -- your<br>-------- ------- -- ---------- --- - --- ----- ----- ----<br>---- --- --- ----- --- ---- ---- ------- ----- ---- -------<br>--- --- -- ----- -- --- ---- -- --- ---- -- ------ ------<br>--- ----- -- ----,145958.80000007153,145956.80000007153,145597.576,145603.10000002384,145613.996,145963.981,,17,your
screen,html.Screen,2_1_0_1_18,2022-04-28T09:45:35.198Z,,,,,,,,,,,,,,,,,53,,,,,,,,,,,,,,428.41900009536766,,response,,,,99,,,,,,,Space,keypress(Space),,,,,,,,---- -- ----- -- ------ - ------- --- ----------<br>------------- ------ ------ ---- ---- ------- ----- -- ----<br>romantic ------- -- ---------- --- - --- ----- ----- ----<br>---- --- --- ----- --- ---- ---- ------- ----- ---- -------<br>--- --- -- ----- -- --- ---- -- --- ---- -- ------ ------<br>--- ----- -- ----,146394.30000007153,146392.40000009537,145947.543,145959.20000004768,145963.981,146397.271,,18,romantic
screen,html.Screen,2_1_0_1_19,2022-04-28T09:45:35.588Z,,,,,,,,,,,,,,,,,53,,,,,,,,,,,,,,385.02900007151766,,response,,,,99,,,,,,,Space,keypress(Space),,,,,,,,---- -- ----- -- ------ - ------- --- ----------<br>------------- ------ ------ ---- ---- ------- ----- -- ----<br>-------- partner -- ---------- --- - --- ----- ----- ----<br>---- --- --- ----- --- ---- ---- ------- ----- ---- -------<br>--- --- -- ----- -- --- ---- -- --- ---- -- ------ ------<br>--- ----- -- ----,146784.20000004768,146782.30000007153,146380.618,146394.70000004768,146397.271,146797.612,,19,partner
screen,html.Screen,2_1_0_1_20,2022-04-28T09:45:35.992Z,,,,,,,,,,,,,,,,,53,,,,,,,,,,,,,,389.3880000000063,,response,,,,99,,,,,,,Space,keypress(Space),,,,,,,,---- -- ----- -- ------ - ------- --- ----------<br>------------- ------ ------ ---- ---- ------- ----- -- ----<br>-------- ------- is ---------- --- - --- ----- ----- ----<br>---- --- --- ----- --- ---- ---- ------- ----- ---- -------<br>--- --- -- ----- -- --- ---- -- --- ---- -- ------ ------<br>--- ----- -- ----,147187.90000009537,147187,146780.795,146784.60000002384,146797.612,147197.192,,20,is
screen,html.Screen,2_1_0_1_21,2022-04-28T09:45:36.326Z,,,,,,,,,,,,,,,,,53,,,,,,,,,,,,,,322.5080000476737,,response,,,,99,,,,,,,Space,keypress(Space),,,,,,,,---- -- ----- -- ------ - ------- --- ----------<br>------------- ------ ------ ---- ---- ------- ----- -- ----<br>-------- ------- -- paramount. --- - --- ----- ----- ----<br>---- --- --- ----- --- ---- ---- ------- ----- ---- -------<br>--- --- -- ----- -- --- ---- -- --- ---- -- ------ ------<br>--- ----- -- ----,147521.60000002384,147519.70000004768,147180.828,147188.10000002384,147197.192,147530.947,,21,paramount.
screen,html.Screen,2_1_0_1_22,2022-04-28T09:45:36.726Z,,,,,,,,,,,,,,,,,53,,,,,,,,,,,,,,389.25300004769815,,response,,,,99,,,,,,,Space,keypress(Space),,,,,,,,---- -- ----- -- ------ - ------- --- ----------<br>------------- ------ ------ ---- ---- ------- ----- -- ----<br>-------- ------- -- ---------- But - --- ----- ----- ----<br>---- --- --- ----- --- ---- ---- ------- ----- ---- -------<br>--- --- -- ----- -- --- ---- -- --- ---- -- ------ ------<br>--- ----- -- ----,147922.20000004768,147920.20000004768,147513.866,147521.90000009537,147530.947,147930.534,,22,But
screen,html.Screen,2_1_0_1_23,2022-04-28T09:45:37.070Z,,,,,,,,,,,,,,,,,53,,,,,,,,,,,,,,333.56600002382766,,response,,,,99,,,,,,,Space,keypress(Space),,,,,,,,---- -- ----- -- ------ - ------- --- ----------<br>------------- ------ ------ ---- ---- ------- ----- -- ----<br>-------- ------- -- ---------- --- a --- ----- ----- ----<br>---- --- --- ----- --- ---- ---- ------- ----- ---- -------<br>--- --- -- ----- -- --- ---- -- --- ---- -- ------ ------<br>--- ----- -- ----,148266,148264.10000002384,147914.242,147922.5,147930.534,148280.945,,23,a
screen,html.Screen,2_1_0_1_24,2022-04-28T09:45:37.403Z,,,,,,,,,,,,,,,,,53,,,,,,,,,,,,,,316.25500004767673,,response,,,,99,,,,,,,Space,keypress(Space),,,,,,,,---- -- ----- -- ------ - ------- --- ----------<br>------------- ------ ------ ---- ---- ------- ----- -- ----<br>-------- ------- -- ---------- --- - new ----- ----- ----<br>---- --- --- ----- --- ---- ---- ------- ----- ---- -------<br>--- --- -- ----- -- --- ---- -- --- ---- -- ------ ------<br>--- ----- -- ----,148599.30000007153,148597.20000004768,148264.099,148266.40000009537,148280.945,148614.22,,24,new
screen,html.Screen,2_1_0_1_25,2022-04-28T09:45:37.753Z,,,,,,,,,,,,,,,,,53,,,,,,,,,,,,,,332.8800000238407,,response,,,,99,,,,,,,Space,keypress(Space),,,,,,,,---- -- ----- -- ------ - ------- --- ----------<br>------------- ------ ------ ---- ---- ------- ----- -- ----<br>-------- ------- -- ---------- --- - --- study ----- ----<br>---- --- --- ----- --- ---- ---- ------- ----- ---- -------<br>--- --- -- ----- -- --- ---- -- --- ---- -- ------ ------<br>--- ----- -- ----,148949.5,148947.10000002384,148597.428,148599.70000004768,148614.22,148963.942,,25,study
screen,html.Screen,2_1_0_1_26,2022-04-28T09:45:38.087Z,,,,,,,,,,,,,,,,,53,,,,,,,,,,,,,,317.4580000953574,,response,,,,99,,,,,,,Space,keypress(Space),,,,,,,,---- -- ----- -- ------ - ------- --- ----------<br>------------- ------ ------ ---- ---- ------- ----- -- ----<br>-------- ------- -- ---------- --- - --- ----- finds ----<br>---- --- --- ----- --- ---- ---- ------- ----- ---- -------<br>--- --- -- ----- -- --- ---- -- --- ---- -- ------ ------<br>--- ----- -- ----,149283.40000009537,149281.40000009537,148947.414,148949.80000007153,148963.942,149297.328,,26,finds
screen,html.Screen,2_1_0_1_27,2022-04-28T09:45:38.446Z,,,,,,,,,,,,,,,,,53,,,,,,,,,,,,,,342.6719999999914,,response,,,,99,,,,,,,Space,keypress(Space),,,,,,,,---- -- ----- -- ------ - ------- --- ----------<br>------------- ------ ------ ---- ---- ------- ----- -- ----<br>-------- ------- -- ---------- --- - --- ----- ----- that<br>---- --- --- ----- --- ---- ---- ------- ----- ---- -------<br>--- --- -- ----- -- --- ---- -- --- ---- -- ------ ------<br>--- ----- -- ----,149642.10000002384,149640,149280.75,149283.80000007153,149297.328,149647.131,,27,that
screen,html.Screen,2_1_0_1_28,2022-04-28T09:45:38.818Z,,,,,,,,,,,,,,,,,53,,,,,,,,,,,,,,365.06900004768977,,response,,,,99,,,,,,,Space,keypress(Space),,,,,,,,---- -- ----- -- ------ - ------- --- ----------<br>------------- ------ ------ ---- ---- ------- ----- -- ----<br>-------- ------- -- ---------- --- - --- ----- ----- ----<br>it's --- --- ----- --- ---- ---- ------- ----- ---- -------<br>--- --- -- ----- -- --- ---- -- --- ---- -- ------ ------<br>--- ----- -- ----,150014,150012.20000004768,149630.75,149642.30000007153,149647.131,150030.793,,28,it's
screen,html.Screen,2_1_0_1_29,2022-04-28T09:45:39.140Z,,,,,,,,,,,,,,,,,53,,,,,,,,,,,,,,303.30700002383674,,response,,,,99,,,,,,,Space,keypress(Space),,,,,,,,---- -- ----- -- ------ - ------- --- ----------<br>------------- ------ ------ ---- ---- ------- ----- -- ----<br>-------- ------- -- ---------- --- - --- ----- ----- ----<br>---- not --- ----- --- ---- ---- ------- ----- ---- -------<br>--- --- -- ----- -- --- ---- -- --- ---- -- ------ ------<br>--- ----- -- ----,150336,150334.10000002384,150014.049,150014.40000009537,150030.793,150347.136,,29,not
screen,html.Screen,2_1_0_1_30,2022-04-28T09:45:39.486Z,,,,,,,,,,,,,,,,,53,,,,,,,,,,,,,,333.26400009536883,,response,,,,99,,,,,,,Space,keypress(Space),,,,,,,,---- -- ----- -- ------ - ------- --- ----------<br>------------- ------ ------ ---- ---- ------- ----- -- ----<br>-------- ------- -- ---------- --- - --- ----- ----- ----<br>---- --- how ----- --- ---- ---- ------- ----- ---- -------<br>--- --- -- ----- -- --- ---- -- --- ---- -- ------ ------<br>--- ----- -- ----,150682.20000004768,150680.40000009537,150330.738,150336.30000007153,150347.136,150697.446,,30,how
screen,html.Screen,2_1_0_1_31,2022-04-28T09:45:39.818Z,,,,,,,,,,,,,,,,,53,,,,,,,,,,,,,,314.1540000238456,,response,,,,99,,,,,,,Space,keypress(Space),,,,,,,,---- -- ----- -- ------ - ------- --- ----------<br>------------- ------ ------ ---- ---- ------- ----- -- ----<br>-------- ------- -- ---------- --- - --- ----- ----- ----<br>---- --- --- close --- ---- ---- ------- ----- ---- -------<br>--- --- -- ----- -- --- ---- -- --- ---- -- ------ ------<br>--- ----- -- ----,151013.5,151011.60000002384,150680.656,150682.60000002384,150697.446,151030.746,,31,close
screen,html.Screen,2_1_0_1_32,2022-04-28T09:45:40.184Z,,,,,,,,,,,,,,,,,53,,,,,,,,,,,,,,347.6540000953537,,response,,,,99,,,,,,,Space,keypress(Space),,,,,,,,---- -- ----- -- ------ - ------- --- ----------<br>------------- ------ ------ ---- ---- ------- ----- -- ----<br>-------- ------- -- ---------- --- - --- ----- ----- ----<br>---- --- --- ----- you ---- ---- ------- ----- ---- -------<br>--- --- -- ----- -- --- ---- -- --- ---- -- ------ ------<br>--- ----- -- ----,151380.40000009537,151378.40000009537,151013.942,151013.90000009537,151030.746,151397.43,,32,you
screen,html.Screen,2_1_0_1_33,2022-04-28T09:45:40.505Z,,,,,,,,,,,,,,,,,53,,,,,,,,,,,,,,301.9700000953744,,response,,,,99,,,,,,,Space,keypress(Space),,,,,,,,---- -- ----- -- ------ - ------- --- ----------<br>------------- ------ ------ ---- ---- ------- ----- -- ----<br>-------- ------- -- ---------- --- - --- ----- ----- ----<br>---- --- --- ----- --- feel ---- ------- ----- ---- -------<br>--- --- -- ----- -- --- ---- -- --- ---- -- ------ ------<br>--- ----- -- ----,151701,151699.40000009537,151380.581,151380.70000004768,151397.43,151713.999,,33,feel
screen,html.Screen,2_1_0_1_34,2022-04-28T09:45:40.851Z,,,,,,,,,,,,,,,,,53,,,,,,,,,,,,,,331.0009999999893,,response,,,,99,,,,,,,Space,keypress(Space),,,,,,,,---- -- ----- -- ------ - ------- --- ----------<br>------------- ------ ------ ---- ---- ------- ----- -- ----<br>-------- ------- -- ---------- --- - --- ----- ----- ----<br>---- --- --- ----- --- ---- that ------- ----- ---- -------<br>--- --- -- ----- -- --- ---- -- --- ---- -- ------ ------<br>--- ----- -- ----,152047.40000009537,152045,151697.056,151701.10000002384,151713.999,152064.056,,34,that
screen,html.Screen,2_1_0_1_35,2022-04-28T09:45:41.186Z,,,,,,,,,,,,,,,,,53,,,,,,,,,,,,,,315.6440000476723,,response,,,,99,,,,,,,Space,keypress(Space),,,,,,,,---- -- ----- -- ------ - ------- --- ----------<br>------------- ------ ------ ---- ---- ------- ----- -- ----<br>-------- ------- -- ---------- --- - --- ----- ----- ----<br>---- --- --- ----- --- ---- ---- matters ----- ---- -------<br>--- --- -- ----- -- --- ---- -- --- ---- -- ------ ------<br>--- ----- -- ----,152381.80000007153,152379.70000004768,152047.03,152047.80000007153,152064.056,152397.149,,35,matters
screen,html.Screen,2_1_0_1_36,2022-04-28T09:45:41.560Z,,,,,,,,,,,,,,,,,53,,,,,,,,,,,,,,357.1510000715207,,response,,,,99,,,,,,,Space,keypress(Space),,,,,,,,"---- -- ----- -- ------ - ------- --- ----------<br>------------- ------ ------ ---- ---- ------- ----- -- ----<br>-------- ------- -- ---------- --- - --- ----- ----- ----<br>---- --- --- ----- --- ---- ---- ------- most, ---- -------<br>--- --- -- ----- -- --- ---- -- --- ---- -- ------ ------<br>--- ----- -- ----",152756.20000004768,152754.30000007153,152380.344,152382.20000004768,152397.149,152764.223,,36,"most,"
screen,html.Screen,2_1_0_1_37,2022-04-28T09:45:41.890Z,,,,,,,,,,,,,,,,,53,,,,,,,,,,,,,,319.6770000953693,,response,,,,99,,,,,,,Space,keypress(Space),,,,,,,,---- -- ----- -- ------ - ------- --- ----------<br>------------- ------ ------ ---- ---- ------- ----- -- ----<br>-------- ------- -- ---------- --- - --- ----- ----- ----<br>---- --- --- ----- --- ---- ---- ------- ----- it's -------<br>--- --- -- ----- -- --- ---- -- --- ---- -- ------ ------<br>--- ----- -- ----,153085.80000007153,153083.90000009537,152747.186,152756.60000002384,152764.223,153097.187,,37,it's
screen,html.Screen,2_1_0_1_38,2022-04-28T09:45:42.303Z,,,,,,,,,,,,,,,,,53,,,,,,,,,,,,,,399.31299999999464,,response,,,,99,,,,,,,Space,keypress(Space),,,,,,,,---- -- ----- -- ------ - ------- --- ----------<br>------------- ------ ------ ---- ---- ------- ----- -- ----<br>-------- ------- -- ---------- --- - --- ----- ----- ----<br>---- --- --- ----- --- ---- ---- ------- ----- ---- whether<br>--- --- -- ----- -- --- ---- -- --- ---- -- ------ ------<br>--- ----- -- ----,153498.60000002384,153496.5,153080.541,153086.10000002384,153097.187,153513.753,,38,whether
screen,html.Screen,2_1_0_1_39,2022-04-28T09:45:42.689Z,,,,,,,,,,,,,,,,,53,,,,,,,,,,,,,,369.14700009537046,,response,,,,99,,,,,,,Space,keypress(Space),,,,,,,,---- -- ----- -- ------ - ------- --- ----------<br>------------- ------ ------ ---- ---- ------- ----- -- ----<br>-------- ------- -- ---------- --- - --- ----- ----- ----<br>---- --- --- ----- --- ---- ---- ------- ----- ---- -------<br>you --- -- ----- -- --- ---- -- --- ---- -- ------ ------<br>--- ----- -- ----,153884.90000009537,153882.90000009537,153497.063,153498.90000009537,153513.753,153896.955,,39,you
screen,html.Screen,2_1_0_1_40,2022-04-28T09:45:43.088Z,,,,,,,,,,,,,,,,,53,,,,,,,,,,,,,,385.2450000476965,,response,,,,99,,,,,,,Space,keypress(Space),,,,,,,,---- -- ----- -- ------ - ------- --- ----------<br>------------- ------ ------ ---- ---- ------- ----- -- ----<br>-------- ------- -- ---------- --- - --- ----- ----- ----<br>---- --- --- ----- --- ---- ---- ------- ----- ---- -------<br>--- are -- ----- -- --- ---- -- --- ---- -- ------ ------<br>--- ----- -- ----,154284,154282.20000004768,153880.508,153885.20000004768,153896.955,154296.904,,40,are
screen,html.Screen,2_1_0_1_41,2022-04-28T09:45:43.455Z,,,,,,,,,,,,,,,,,53,,,,,,,,,,,,,,352.09599999999045,,response,,,,99,,,,,,,Space,keypress(Space),,,,,,,,---- -- ----- -- ------ - ------- --- ----------<br>------------- ------ ------ ---- ---- ------- ----- -- ----<br>-------- ------- -- ---------- --- - --- ----- ----- ----<br>---- --- --- ----- --- ---- ---- ------- ----- ---- -------<br>--- --- as ----- -- --- ---- -- --- ---- -- ------ ------<br>--- ----- -- ----,154651,154649,154280.485,154284.5,154296.904,154663.595,,41,as
screen,html.Screen,2_1_0_1_42,2022-04-28T09:45:43.872Z,,,,,,,,,,,,,,,,,53,,,,,,,,,,,,,,402.40499999999884,,response,,,,99,,,,,,,Space,keypress(Space),,,,,,,,---- -- ----- -- ------ - ------- --- ----------<br>------------- ------ ------ ---- ---- ------- ----- -- ----<br>-------- ------- -- ---------- --- - --- ----- ----- ----<br>---- --- --- ----- --- ---- ---- ------- ----- ---- -------<br>--- --- -- close -- --- ---- -- --- ---- -- ------ ------<br>--- ----- -- ----,155067.80000007153,155066,154646.901,154651.30000007153,154663.595,155080.432,,42,close
screen,html.Screen,2_1_0_1_43,2022-04-28T09:45:44.233Z,,,,,,,,,,,,,,,,,53,,,,,,,,,,,,,,346.3680000715249,,response,,,,99,,,,,,,Space,keypress(Space),,,,,,,,---- -- ----- -- ------ - ------- --- ----------<br>------------- ------ ------ ---- ---- ------- ----- -- ----<br>-------- ------- -- ---------- --- - --- ----- ----- ----<br>---- --- --- ----- --- ---- ---- ------- ----- ---- -------<br>--- --- -- ----- as --- ---- -- --- ---- -- ------ ------<br>--- ----- -- ----,155428.90000009537,155426.80000007153,155063.563,155068.10000002384,155080.432,155463.757,,43,as
screen,html.Screen,2_1_0_1_44,2022-04-28T09:45:44.595Z,,,,,,,,,,,,,,,,,53,,,,,,,,,,,,,,325.6430000953551,,response,,,,99,,,,,,,Space,keypress(Space),,,,,,,,---- -- ----- -- ------ - ------- --- ----------<br>------------- ------ ------ ---- ---- ------- ----- -- ----<br>-------- ------- -- ---------- --- - --- ----- ----- ----<br>---- --- --- ----- --- ---- ---- ------- ----- ---- -------<br>--- --- -- ----- -- you ---- -- --- ---- -- ------ ------<br>--- ----- -- ----,155791.30000007153,155789.40000009537,155446.909,155429.20000004768,155463.757,155796.844,,44,you
screen,html.Screen,2_1_0_1_45,2022-04-28T09:45:44.968Z,,,,,,,,,,,,,,,,,53,,,,,,,,,,,,,,365.1559999999881,,response,,,,99,,,,,,,Space,keypress(Space),,,,,,,,---- -- ----- -- ------ - ------- --- ----------<br>------------- ------ ------ ---- ---- ------- ----- -- ----<br>-------- ------- -- ---------- --- - --- ----- ----- ----<br>---- --- --- ----- --- ---- ---- ------- ----- ---- -------<br>--- --- -- ----- -- --- want -- --- ---- -- ------ ------<br>--- ----- -- ----,156164,156162,155780.206,155791.70000004768,155796.844,156180.191,,45,want
screen,html.Screen,2_1_0_1_46,2022-04-28T09:45:45.304Z,,,,,,,,,,,,,,,,,53,,,,,,,,,,,,,,318.10900007153396,,response,,,,99,,,,,,,Space,keypress(Space),,,,,,,,---- -- ----- -- ------ - ------- --- ----------<br>------------- ------ ------ ---- ---- ------- ----- -- ----<br>-------- ------- -- ---------- --- - --- ----- ----- ----<br>---- --- --- ----- --- ---- ---- ------- ----- ---- -------<br>--- --- -- ----- -- --- ---- to --- ---- -- ------ ------<br>--- ----- -- ----,156500.30000007153,156498.30000007153,156163.725,156164.40000009537,156180.191,156513.531,,46,to
screen,html.Screen,2_1_0_1_47,2022-04-28T09:45:45.675Z,,,,,,,,,,,,,,,,,53,,,,,,,,,,,,,,355.26900007153745,,response,,,,99,,,,,,,Space,keypress(Space),,,,,,,,"---- -- ----- -- ------ - ------- --- ----------<br>------------- ------ ------ ---- ---- ------- ----- -- ----<br>-------- ------- -- ---------- --- - --- ----- ----- ----<br>---- --- --- ----- --- ---- ---- ------- ----- ---- -------<br>--- --- -- ----- -- --- ---- -- be, ---- -- ------ ------<br>--- ----- -- ----",156870.80000007153,156868.80000007153,156497.047,156500.60000002384,156513.531,156880.126,,47,"be,"
screen,html.Screen,2_1_0_1_48,2022-04-28T09:45:46.076Z,,,,,,,,,,,,,,,,,53,,,,,,,,,,,,,,389.5740000476944,,response,,,,99,,,,,,,Space,keypress(Space),,,,,,,,---- -- ----- -- ------ - ------- --- ----------<br>------------- ------ ------ ---- ---- ------- ----- -- ----<br>-------- ------- -- ---------- --- - --- ----- ----- ----<br>---- --- --- ----- --- ---- ---- ------- ----- ---- -------<br>--- --- -- ----- -- --- ---- -- --- even -- ------ ------<br>--- ----- -- ----,157271.60000002384,157269.70000004768,156863.479,156871,156880.126,157280.075,,48,even
screen,html.Screen,2_1_0_1_49,2022-04-28T09:45:46.401Z,,,,,,,,,,,,,,,,,53,,,,,,,,,,,,,,315.3250000953558,,response,,,,99,,,,,,,Space,keypress(Space),,,,,,,,---- -- ----- -- ------ - ------- --- ----------<br>------------- ------ ------ ---- ---- ------- ----- -- ----<br>-------- ------- -- ---------- --- - --- ----- ----- ----<br>---- --- --- ----- --- ---- ---- ------- ----- ---- -------<br>--- --- -- ----- -- --- ---- -- --- ---- if ------ ------<br>--- ----- -- ----,157597.40000009537,157595.40000009537,157263.559,157271.90000009537,157280.075,157613.788,,49,if
screen,html.Screen,2_1_0_1_50,2022-04-28T09:45:46.758Z,,,,,,,,,,,,,,,,,53,,,,,,,,,,,,,,338.8120000238414,,response,,,,99,,,,,,,Space,keypress(Space),,,,,,,,---- -- ----- -- ------ - ------- --- ----------<br>------------- ------ ------ ---- ---- ------- ----- -- ----<br>-------- ------- -- ---------- --- - --- ----- ----- ----<br>---- --- --- ----- --- ---- ---- ------- ----- ---- -------<br>--- --- -- ----- -- --- ---- -- --- ---- -- that's ------<br>--- ----- -- ----,157954.40000009537,157952.60000002384,157596.788,157597.70000004768,157613.788,157964.147,,50,that's
screen,html.Screen,2_1_0_1_51,2022-04-28T09:45:47.137Z,,,,,,,,,,,,,,,,,53,,,,,,,,,,,,,,366.95300002384465,,response,,,,99,,,,,,,Space,keypress(Space),,,,,,,,---- -- ----- -- ------ - ------- --- ----------<br>------------- ------ ------ ---- ---- ------- ----- -- ----<br>-------- ------- -- ---------- --- - --- ----- ----- ----<br>---- --- --- ----- --- ---- ---- ------- ----- ---- -------<br>--- --- -- ----- -- --- ---- -- --- ---- -- ------ really<br>--- ----- -- ----,158333,158331.10000002384,157946.776,157954.80000007153,157964.147,158346.875,,51,really
screen,html.Screen,2_1_0_1_52,2022-04-28T09:45:47.509Z,,,,,,,,,,,,,,,,,53,,,,,,,,,,,,,,355.8250000476837,,response,,,,99,,,,,,,Space,keypress(Space),,,,,,,,---- -- ----- -- ------ - ------- --- ----------<br>------------- ------ ------ ---- ---- ------- ----- -- ----<br>-------- ------- -- ---------- --- - --- ----- ----- ----<br>---- --- --- ----- --- ---- ---- ------- ----- ---- -------<br>--- --- -- ----- -- --- ---- -- --- ---- -- ------ ------<br>not ----- -- ----,158704.60000002384,158702.70000004768,158330.109,158333.40000009537,158346.875,158713.357,,52,not
screen,html.Screen,2_1_0_1_53,2022-04-28T09:45:47.870Z,,,,,,,,,,,,,,,,,53,,,,,,,,,,,,,,350.14300000001094,,response,,,,99,,,,,,,Space,keypress(Space),,,,,,,,---- -- ----- -- ------ - ------- --- ----------<br>------------- ------ ------ ---- ---- ------- ----- -- ----<br>-------- ------- -- ---------- --- - --- ----- ----- ----<br>---- --- --- ----- --- ---- ---- ------- ----- ---- -------<br>--- --- -- ----- -- --- ---- -- --- ---- -- ------ ------<br>--- close -- ----,159065.70000004768,159063.5,158696.975,158705,158713.357,159080.167,,53,close
screen,html.Screen,2_1_0_1_54,2022-04-28T09:45:48.220Z,,,,,,,,,,,,,,,,,53,,,,,,,,,,,,,,333.33300000001327,,response,,,,99,,,,,,,Space,keypress(Space),,,,,,,,---- -- ----- -- ------ - ------- --- ----------<br>------------- ------ ------ ---- ---- ------- ----- -- ----<br>-------- ------- -- ---------- --- - --- ----- ----- ----<br>---- --- --- ----- --- ---- ---- ------- ----- ---- -------<br>--- --- -- ----- -- --- ---- -- --- ---- -- ------ ------<br>--- ----- at ----,159415.40000009537,159413.5,159063.385,159066.10000002384,159080.167,159430.406,,54,at
screen,html.Screen,2_1_0_1_55,2022-04-28T09:45:48.578Z,,,,,,,,,,,,,,,,,53,,,,,,,,,,,,,,340.7940000476956,,response,,,,99,,,,,,,Space,keypress(Space),,,,,,,,---- -- ----- -- ------ - ------- --- ----------<br>------------- ------ ------ ---- ---- ------- ----- -- ----<br>-------- ------- -- ---------- --- - --- ----- ----- ----<br>---- --- --- ----- --- ---- ---- ------- ----- ---- -------<br>--- --- -- ----- -- --- ---- -- --- ---- -- ------ ------<br>--- ----- -- all.,159773.70000004768,159771.20000004768,159413.577,159415.90000009537,159430.406,159796.651,,55,all.
Item 99,flow.Loop,2_1_0_1,2022-04-28T09:45:48.578Z,,,,,,,,,,,,,,,,,,,,,,,,,,,,,,,22340.177000047697,,completion,,,,,D,,,,,,,,,,,silence,,,,,159774.40000009537,159771.20000004768,137381.302,137383.20000004768,137431.023,159796.651,,,
Question 1,html.Screen,2_1_0_2,2022-04-28T09:45:51.522Z,,,,,,,,,,,,,,,,,,,,,,,,,,,,true,FALSE,,2918.8489999999874,,response,,,,99,D,,,,,,FALSE,click #choice-2,,,,silence,,,,,162717.60000002384,162715.5,159763.56,159774.80000007153,159796.651,162730.274,,,
Question 2,html.Screen,2_1_0_3,2022-04-28T09:45:55.378Z,,,,,,,,,,,,,,,,,,,,,,,,,,,,true,TRUE,,3841.225999999995,,response,,,,99,D,,,,,,TRUE,click #choice-1,,,,silence,,,,,166573.60000002384,166571.5,162713.223,162718,162730.274,166579.669,,,
Item 99,flow.Sequence,2_1_0,2022-04-28T09:45:55.378Z,,,,,,,,,,,,,,,,,,,,,,,,,,,,,,,39173.345,,completion,,,,,,,,,,,,,,,,,,,,,166574.10000002384,166571.5,127381.429,127389.20000004768,127398.155,166579.669,,,
Holding screen,html.Screen,2_1_1_0,2022-04-28T09:46:05.368Z,,,,,,,,,,,,,,,,,,,,,,,,,,,,,,,10000.089000000007,,timeout,,,,,,,,,,,,,,,,,,,,,176564.10000002384,176562.577,166563.252,166574.40000009537,166579.669,176579.758,,,
screen,html.Screen,2_1_1_1_0,2022-04-28T09:46:06.146Z,,,,,,,,,,,,,,,,,54,,,,,,,,,,,,,,758.542000071524,,response,,,,100,,,,,,,Space,keypress(Space),,,,,,,,At --- ---- --- ------ ----- ------- ---- -- --- ------- --<br>------- ---------- ------ -- ----- -- ----- -- ---- ------<br>--- ----- --- --- ------ -------- ----- --- ------ ----- --<br>----- ----- ---------- --- --- ------ ------ ---- -- ------<br>------- --- ------ ----- --- ---- ------- -- ---- --- --<br>------- ------,177341.60000002384,177338.30000007153,176562.577,176564.70000004768,176579.758,177345.811,,0,At
screen,html.Screen,2_1_1_1_1,2022-04-28T09:46:06.506Z,,,,,,,,,,,,,,,,,54,,,,,,,,,,,,,,354.4890000715386,,response,,,,100,,,,,,,Space,keypress(Space),,,,,,,,-- the ---- --- ------ ----- ------- ---- -- --- ------- --<br>------- ---------- ------ -- ----- -- ----- -- ---- ------<br>--- ----- --- --- ------ -------- ----- --- ------ ----- --<br>----- ----- ---------- --- --- ------ ------ ---- -- ------<br>------- --- ------ ----- --- ---- ------- -- ---- --- --<br>------- ------,177702.20000004768,177700.30000007153,177329.558,177342,177345.811,177712.551,,1,the
screen,html.Screen,2_1_1_1_2,2022-04-28T09:46:06.857Z,,,,,,,,,,,,,,,,,54,,,,,,,,,,,,,,338.5490000238351,,response,,,,100,,,,,,,Space,keypress(Space),,,,,,,,-- --- time --- ------ ----- ------- ---- -- --- ------- --<br>------- ---------- ------ -- ----- -- ----- -- ---- ------<br>--- ----- --- --- ------ -------- ----- --- ------ ----- --<br>----- ----- ---------- --- --- ------ ------ ---- -- ------<br>------- --- ------ ----- --- ---- ------- -- ---- --- --<br>------- ------,178053.40000009537,178051.10000002384,177696.006,177702.5,177712.551,178062.454,,2,time
screen,html.Screen,2_1_1_1_3,2022-04-28T09:46:07.165Z,,,,,,,,,,,,,,,,,54,,,,,,,,,,,,,,295.9460000953695,,response,,,,100,,,,,,,Space,keypress(Space),,,,,,,,-- --- ---- the ------ ----- ------- ---- -- --- ------- --<br>------- ---------- ------ -- ----- -- ----- -- ---- ------<br>--- ----- --- --- ------ -------- ----- --- ------ ----- --<br>----- ----- ---------- --- --- ------ ------ ---- -- ------<br>------- --- ------ ----- --- ---- ------- -- ---- --- --<br>------- ------,178360.40000009537,178358.40000009537,178045.761,178053.80000007153,178062.454,178390.245,,3,the
screen,html.Screen,2_1_1_1_4,2022-04-28T09:46:07.496Z,,,,,,,,,,,,,,,,,54,,,,,,,,,,,,,,300.4550000476884,,response,,,,100,,,,,,,Space,keypress(Space),,,,,,,,-- --- ---- --- French ----- ------- ---- -- --- ------- --<br>------- ---------- ------ -- ----- -- ----- -- ---- ------<br>--- ----- --- --- ------ -------- ----- --- ------ ----- --<br>----- ----- ---------- --- --- ------ ------ ---- -- ------<br>------- --- ------ ----- --- ---- ------- -- ---- --- --<br>------- ------,178691.70000004768,178690.70000004768,178345.785,178360.80000007153,178390.245,178695.694,,4,French
screen,html.Screen,2_1_1_1_5,2022-04-28T09:46:07.847Z,,,,,,,,,,,,,,,,,54,,,,,,,,,,,,,,345.70600009537884,,response,,,,100,,,,,,,Space,keypress(Space),,,,,,,,-- --- ---- --- ------ crown ------- ---- -- --- ------- --<br>------- ---------- ------ -- ----- -- ----- -- ---- ------<br>--- ----- --- --- ------ -------- ----- --- ------ ----- --<br>----- ----- ---------- --- --- ------ ------ ---- -- ------<br>------- --- ------ ----- --- ---- ------- -- ---- --- --<br>------- ------,179043.20000004768,179041.40000009537,178679.386,178691.80000007153,178695.694,179045.696,,5,crown
screen,html.Screen,2_1_1_1_6,2022-04-28T09:46:08.235Z,,,,,,,,,,,,,,,,,54,,,,,,,,,,,,,,383.50400004768744,,response,,,,100,,,,,,,Space,keypress(Space),,,,,,,,-- --- ---- --- ------ ----- secured ---- -- --- ------- --<br>------- ---------- ------ -- ----- -- ----- -- ---- ------<br>--- ----- --- --- ------ -------- ----- --- ------ ----- --<br>----- ----- ---------- --- --- ------ ------ ---- -- ------<br>------- --- ------ ----- --- ---- ------- -- ---- --- --<br>------- ------,179431,179429.20000004768,179029.007,179043.60000002384,179045.696,179445.86,,6,secured
screen,html.Screen,2_1_1_1_7,2022-04-28T09:46:08.607Z,,,,,,,,,,,,,,,,,54,,,,,,,,,,,,,,354.8400000476977,,response,,,,100,,,,,,,Space,keypress(Space),,,,,,,,-- --- ---- --- ------ ----- ------- much -- --- ------- --<br>------- ---------- ------ -- ----- -- ----- -- ---- ------<br>--- ----- --- --- ------ -------- ----- --- ------ ----- --<br>----- ----- ---------- --- --- ------ ------ ---- -- ------<br>------- --- ------ ----- --- ---- ------- -- ---- --- --<br>------- ------,179802.5,179800.70000004768,179429.321,179431.40000009537,179445.86,179812.389,,7,much
screen,html.Screen,2_1_1_1_8,2022-04-28T09:46:08.940Z,,,,,,,,,,,,,,,,,54,,,,,,,,,,,,,,320.51100009537186,,response,,,,100,,,,,,,Space,keypress(Space),,,,,,,,-- --- ---- --- ------ ----- ------- ---- of --- ------- --<br>------- ---------- ------ -- ----- -- ----- -- ---- ------<br>--- ----- --- --- ------ -------- ----- --- ------ ----- --<br>----- ----- ---------- --- --- ------ ------ ---- -- ------<br>------- --- ------ ----- --- ---- ------- -- ---- --- --<br>------- ------,180135.5,180132.90000009537,179795.68,179802.90000009537,179812.389,180145.767,,8,of
screen,html.Screen,2_1_1_1_9,2022-04-28T09:46:09.256Z,,,,,,,,,,,,,,,,,54,,,,,,,,,,,,,,304.1330000953749,,response,,,,100,,,,,,,Space,keypress(Space),,,,,,,,-- --- ---- --- ------ ----- ------- ---- -- its ------- --<br>------- ---------- ------ -- ----- -- ----- -- ---- ------<br>--- ----- --- --- ------ -------- ----- --- ------ ----- --<br>----- ----- ---------- --- --- ------ ------ ---- -- ------<br>------- --- ------ ----- --- ---- ------- -- ---- --- --<br>------- ------,180451.90000009537,180449.90000009537,180129.01,180135.80000007153,180145.767,180462.388,,9,its
screen,html.Screen,2_1_1_1_10,2022-04-28T09:46:09.610Z,,,,,,,,,,,,,,,,,54,,,,,,,,,,,,,,341.31200004767743,,response,,,,100,,,,,,,Space,keypress(Space),,,,,,,,-- --- ---- --- ------ ----- ------- ---- -- --- revenue --<br>------- ---------- ------ -- ----- -- ----- -- ---- ------<br>--- ----- --- --- ------ -------- ----- --- ------ ----- --<br>----- ----- ---------- --- --- ------ ------ ---- -- ------<br>------- --- ------ ----- --- ---- ------- -- ---- --- --<br>------- ------,180805.60000002384,180803.70000004768,180445.918,180452.20000004768,180462.388,180812.314,,10,revenue
screen,html.Screen,2_1_1_1_11,2022-04-28T09:46:09.985Z,,,,,,,,,,,,,,,,,54,,,,,,,,,,,,,,366.0860000953544,,response,,,,100,,,,,,,Space,keypress(Space),,,,,,,,-- --- ---- --- ------ ----- ------- ---- -- --- ------- by<br>------- ---------- ------ -- ----- -- ----- -- ---- ------<br>--- ----- --- --- ------ -------- ----- --- ------ ----- --<br>----- ----- ---------- --- --- ------ ------ ---- -- ------<br>------- --- ------ ----- --- ---- ------- -- ---- --- --<br>------- ------,181180.30000007153,181178.40000009537,180795.907,180805.90000009537,180812.314,181195.977,,11,by
screen,html.Screen,2_1_1_1_12,2022-04-28T09:46:10.324Z,,,,,,,,,,,,,,,,,54,,,,,,,,,,,,,,321.62300002382835,,response,,,,100,,,,,,,Space,keypress(Space),,,,,,,,-- --- ---- --- ------ ----- ------- ---- -- --- ------- --<br>issuing ---------- ------ -- ----- -- ----- -- ---- ------<br>--- ----- --- --- ------ -------- ----- --- ------ ----- --<br>----- ----- ---------- --- --- ------ ------ ---- -- ------<br>------- --- ------ ----- --- ---- ------- -- ---- --- --<br>------- ------,181519.60000002384,181517.60000002384,181179.313,181180.90000009537,181195.977,181528.965,,12,issuing
screen,html.Screen,2_1_1_1_13,2022-04-28T09:46:10.706Z,,,,,,,,,,,,,,,,,54,,,,,,,,,,,,,,371.2350000476872,,response,,,,100,,,,,,,Space,keypress(Space),,,,,,,,-- --- ---- --- ------ ----- ------- ---- -- --- ------- --<br>------- government ------ -- ----- -- ----- -- ---- ------<br>--- ----- --- --- ------ -------- ----- --- ------ ----- --<br>----- ----- ---------- --- --- ------ ------ ---- -- ------<br>------- --- ------ ----- --- ---- ------- -- ---- --- --<br>------- ------,181902.10000002384,181900.20000004768,181512.572,181520,181528.965,181912.293,,13,government
screen,html.Screen,2_1_1_1_14,2022-04-28T09:46:11.053Z,,,,,,,,,,,,,,,,,54,,,,,,,,,,,,,,334.30700002383674,,response,,,,100,,,,,,,Space,keypress(Space),,,,,,,,-- --- ---- --- ------ ----- ------- ---- -- --- ------- --<br>------- ---------- bonds. -- ----- -- ----- -- ---- ------<br>--- ----- --- --- ------ -------- ----- --- ------ ----- --<br>----- ----- ---------- --- --- ------ ------ ---- -- ------<br>------- --- ------ ----- --- ---- ------- -- ---- --- --<br>------- ------,182248.70000004768,182246.60000002384,181895.611,181902.5,181912.293,182262.38,,14,bonds.
screen,html.Screen,2_1_1_1_15,2022-04-28T09:46:11.435Z,,,,,,,,,,,,,,,,,54,,,,,,,,,,,,,,367.5200000953628,,response,,,,100,,,,,,,Space,keypress(Space),,,,,,,,-- --- ---- --- ------ ----- ------- ---- -- --- ------- --<br>------- ---------- ------ In ----- -- ----- -- ---- ------<br>--- ----- --- --- ------ -------- ----- --- ------ ----- --<br>----- ----- ---------- --- --- ------ ------ ---- -- ------<br>------- --- ------ ----- --- ---- ------- -- ---- --- --<br>------- ------,182630.70000004768,182629.90000009537,182245.806,182248.90000009537,182262.38,182645.538,,15,In
screen,html.Screen,2_1_1_1_16,2022-04-28T09:46:11.742Z,,,,,,,,,,,,,,,,,54,,,,,,,,,,,,,,290.46199999999953,,response,,,,100,,,,,,,Space,keypress(Space),,,,,,,,"-- --- ---- --- ------ ----- ------- ---- -- --- ------- --<br>------- ---------- ------ -- 1727, -- ----- -- ---- ------<br>--- ----- --- --- ------ -------- ----- --- ------ ----- --<br>----- ----- ---------- --- --- ------ ------ ---- -- ------<br>------- --- ------ ----- --- ---- ------- -- ---- --- --<br>------- ------",182938,182936,182629.153,182630.90000009537,182645.538,182946.367,,16,"1727,"
screen,html.Screen,2_1_1_1_17,2022-04-28T09:46:13.132Z,,,,,,,,,,,,,,,,,54,,,,,,,,,,,,,,1379.1330000000016,,response,,,,100,,,,,,,Space,keypress(Space),,,,,,,,-- --- ---- --- ------ ----- ------- ---- -- --- ------- --<br>------- ---------- ------ -- ----- in ----- -- ---- ------<br>--- ----- --- --- ------ -------- ----- --- ------ ----- --<br>----- ----- ---------- --- --- ------ ------ ---- -- ------<br>------- --- ------ ----- --- ---- ------- -- ---- --- --<br>------- ------,184327.60000002384,184325.5,182928.858,182938.40000009537,182946.367,184345.645,,17,in
screen,html.Screen,2_1_1_1_18,2022-04-28T09:46:13.514Z,,,,,,,,,,,,,,,,,54,,,,,,,,,,,,,,361.2550000953779,,response,,,,100,,,,,,,Space,keypress(Space),,,,,,,,-- --- ---- --- ------ ----- ------- ---- -- --- ------- --<br>------- ---------- ------ -- ----- -- order -- ---- ------<br>--- ----- --- --- ------ -------- ----- --- ------ ----- --<br>----- ----- ---------- --- --- ------ ------ ---- -- ------<br>------- --- ------ ----- --- ---- ------- -- ---- --- --<br>------- ------,184709.30000007153,184706.90000009537,184329.017,184328,184345.645,184712.1,,18,order
screen,html.Screen,2_1_1_1_19,2022-04-28T09:46:14.286Z,,,,,,,,,,,,,,,,,54,,,,,,,,,,,,,,766.8999999999942,,response,,,,100,,,,,,,Space,keypress(Space),,,,,,,,-- --- ---- --- ------ ----- ------- ---- -- --- ------- --<br>------- ---------- ------ -- ----- -- ----- to ---- ------<br>--- ----- --- --- ------ -------- ----- --- ------ ----- --<br>----- ----- ---------- --- --- ------ ------ ---- -- ------<br>------- --- ------ ----- --- ---- ------- -- ---- --- --<br>------- ------,185481.10000002384,185479,184695.84,184709.60000002384,184712.1,185495.803,,19,to
screen,html.Screen,2_1_1_1_20,2022-04-28T09:46:14.655Z,,,,,,,,,,,,,,,,,54,,,,,,,,,,,,,,352.49700007151114,,response,,,,100,,,,,,,Space,keypress(Space),,,,,,,,-- --- ---- --- ------ ----- ------- ---- -- --- ------- --<br>------- ---------- ------ -- ----- -- ----- -- save ------<br>--- ----- --- --- ------ -------- ----- --- ------ ----- --<br>----- ----- ---------- --- --- ------ ------ ---- -- ------<br>------- --- ------ ----- --- ---- ------- -- ---- --- --<br>------- ------,185850.20000004768,185848.30000007153,185478.788,185481.5,185495.803,185862.254,,20,save
screen,html.Screen,2_1_1_1_21,2022-04-28T09:46:15.008Z,,,,,,,,,,,,,,,,,54,,,,,,,,,,,,,,339.94600004769745,,response,,,,100,,,,,,,Space,keypress(Space),,,,,,,,"-- --- ---- --- ------ ----- ------- ---- -- --- ------- --<br>------- ---------- ------ -- ----- -- ----- -- ---- money,<br>--- ----- --- --- ------ -------- ----- --- ------ ----- --<br>----- ----- ---------- --- --- ------ ------ ---- -- ------<br>------- --- ------ ----- --- ---- ------- -- ---- --- --<br>------- ------",186203.90000009537,186202.20000004768,185845.543,185850.5,185862.254,186212.296,,21,"money,"
screen,html.Screen,2_1_1_1_22,2022-04-28T09:46:15.384Z,,,,,,,,,,,,,,,,,54,,,,,,,,,,,,,,365.9040000476816,,response,,,,100,,,,,,,Space,keypress(Space),,,,,,,,-- --- ---- --- ------ ----- ------- ---- -- --- ------- --<br>------- ---------- ------ -- ----- -- ----- -- ---- ------<br>the ----- --- --- ------ -------- ----- --- ------ ----- --<br>----- ----- ---------- --- --- ------ ------ ---- -- ------<br>------- --- ------ ----- --- ---- ------- -- ---- --- --<br>------- ------,186579.90000009537,186578.20000004768,186195.627,186204.30000007153,186212.296,186595.756,,22,the
screen,html.Screen,2_1_1_1_23,2022-04-28T09:46:15.689Z,,,,,,,,,,,,,,,,,54,,,,,,,,,,,,,,286.94400004768977,,response,,,,100,,,,,,,Space,keypress(Space),,,,,,,,-- --- ---- --- ------ ----- ------- ---- -- --- ------- --<br>------- ---------- ------ -- ----- -- ----- -- ---- ------<br>--- state --- --- ------ -------- ----- --- ------ ----- --<br>----- ----- ---------- --- --- ------ ------ ---- -- ------<br>------- --- ------ ----- --- ---- ------- -- ---- --- --<br>------- ------,186884.60000002384,186882.70000004768,186578.76,186580.30000007153,186595.756,186895.373,,23,state
screen,html.Screen,2_1_1_1_24,2022-04-28T09:46:16.014Z,,,,,,,,,,,,,,,,,54,,,,,,,,,,,,,,311.92700007153326,,response,,,,100,,,,,,,Space,keypress(Space),,,,,,,,-- --- ---- --- ------ ----- ------- ---- -- --- ------- --<br>------- ---------- ------ -- ----- -- ----- -- ---- ------<br>--- ----- cut --- ------ -------- ----- --- ------ ----- --<br>----- ----- ---------- --- --- ------ ------ ---- -- ------<br>------- --- ------ ----- --- ---- ------- -- ---- --- --<br>------- ------,187209.40000009537,187207.30000007153,186878.711,186885,186895.373,187212.018,,24,cut
screen,html.Screen,2_1_1_1_25,2022-04-28T09:46:16.348Z,,,,,,,,,,,,,,,,,54,,,,,,,,,,,,,,328.8820000953565,,response,,,,100,,,,,,,Space,keypress(Space),,,,,,,,-- --- ---- --- ------ ----- ------- ---- -- --- ------- --<br>------- ---------- ------ -- ----- -- ----- -- ---- ------<br>--- ----- --- the ------ -------- ----- --- ------ ----- --<br>----- ----- ---------- --- --- ------ ------ ---- -- ------<br>------- --- ------ ----- --- ---- ------- -- ---- --- --<br>------- ------,187543,187540.90000009537,187195.389,187209.70000004768,187212.018,187564.237,,25,the
screen,html.Screen,2_1_1_1_26,2022-04-28T09:46:16.682Z,,,,,,,,,,,,,,,,,54,,,,,,,,,,,,,,311.2630000000063,,response,,,,100,,,,,,,Space,keypress(Space),,,,,,,,-- --- ---- --- ------ ----- ------- ---- -- --- ------- --<br>------- ---------- ------ -- ----- -- ----- -- ---- ------<br>--- ----- --- --- bonds' -------- ----- --- ------ ----- --<br>----- ----- ---------- --- --- ------ ------ ---- -- ------<br>------- --- ------ ----- --- ---- ------- -- ---- --- --<br>------- ------,187877.5,187875.5,187528.818,187543.5,187564.237,187895.698,,26,bonds'
screen,html.Screen,2_1_1_1_27,2022-04-28T09:46:17.011Z,,,,,,,,,,,,,,,,,54,,,,,,,,,,,,,,308.7020000953635,,response,,,,100,,,,,,,Space,keypress(Space),,,,,,,,-- --- ---- --- ------ ----- ------- ---- -- --- ------- --<br>------- ---------- ------ -- ----- -- ----- -- ---- ------<br>--- ----- --- --- ------ interest ----- --- ------ ----- --<br>----- ----- ---------- --- --- ------ ------ ---- -- ------<br>------- --- ------ ----- --- ---- ------- -- ---- --- --<br>------- ------,188206.5,188204.40000009537,187878.808,187877.80000007153,187895.698,188211.979,,27,interest
screen,html.Screen,2_1_1_1_28,2022-04-28T09:46:17.361Z,,,,,,,,,,,,,,,,,54,,,,,,,,,,,,,,343.5210000000079,,response,,,,100,,,,,,,Space,keypress(Space),,,,,,,,-- --- ---- --- ------ ----- ------- ---- -- --- ------- --<br>------- ---------- ------ -- ----- -- ----- -- ---- ------<br>--- ----- --- --- ------ -------- rate. --- ------ ----- --<br>----- ----- ---------- --- --- ------ ------ ---- -- ------<br>------- --- ------ ----- --- ---- ------- -- ---- --- --<br>------- ------,188556.40000009537,188555.5,188195.495,188206.80000007153,188211.979,188561.9,,28,rate.
screen,html.Screen,2_1_1_1_29,2022-04-28T09:46:17.770Z,,,,,,,,,,,,,,,,,54,,,,,,,,,,,,,,402.1000000000058,,response,,,,100,,,,,,,Space,keypress(Space),,,,,,,,-- --- ---- --- ------ ----- ------- ---- -- --- ------- --<br>------- ---------- ------ -- ----- -- ----- -- ---- ------<br>--- ----- --- --- ------ -------- ----- The ------ ----- --<br>----- ----- ---------- --- --- ------ ------ ---- -- ------<br>------- --- ------ ----- --- ---- ------- -- ---- --- --<br>------- ------,188965.90000009537,188964,188545.527,188556.60000002384,188561.9,188978.555,,29,The
screen,html.Screen,2_1_1_1_30,2022-04-28T09:46:18.107Z,,,,,,,,,,,,,,,,,54,,,,,,,,,,,,,,321.8450000953744,,response,,,,100,,,,,,,Space,keypress(Space),,,,,,,,-- --- ---- --- ------ ----- ------- ---- -- --- ------- --<br>------- ---------- ------ -- ----- -- ----- -- ---- ------<br>--- ----- --- --- ------ -------- ----- --- market ----- --<br>----- ----- ---------- --- --- ------ ------ ---- -- ------<br>------- --- ------ ----- --- ---- ------- -- ---- --- --<br>------- ------,189302.40000009537,189300.40000009537,188962.215,188966.30000007153,188978.555,189311.924,,30,market
screen,html.Screen,2_1_1_1_31,2022-04-28T09:46:18.451Z,,,,,,,,,,,,,,,,,54,,,,,,,,,,,,,,332.47600009536836,,response,,,,100,,,,,,,Space,keypress(Space),,,,,,,,-- --- ---- --- ------ ----- ------- ---- -- --- ------- --<br>------- ---------- ------ -- ----- -- ----- -- ---- ------<br>--- ----- --- --- ------ -------- ----- --- ------ value --<br>----- ----- ---------- --- --- ------ ------ ---- -- ------<br>------- --- ------ ----- --- ---- ------- -- ---- --- --<br>------- ------,189646.70000004768,189644.40000009537,189295.569,189302.70000004768,189311.924,189662.063,,31,value
screen,html.Screen,2_1_1_1_32,2022-04-28T09:46:18.804Z,,,,,,,,,,,,,,,,,54,,,,,,,,,,,,,,335.23700007153093,,response,,,,100,,,,,,,Space,keypress(Space),,,,,,,,-- --- ---- --- ------ ----- ------- ---- -- --- ------- --<br>------- ---------- ------ -- ----- -- ----- -- ---- ------<br>--- ----- --- --- ------ -------- ----- --- ------ ----- of<br>----- ----- ---------- --- --- ------ ------ ---- -- ------<br>------- --- ------ ----- --- ---- ------- -- ---- --- --<br>------- ------,189999.20000004768,189997.30000007153,189645.485,189647,189662.063,190012.179,,32,of
screen,html.Screen,2_1_1_1_33,2022-04-28T09:46:19.116Z,,,,,,,,,,,,,,,,,54,,,,,,,,,,,,,,297.8209999999963,,response,,,,100,,,,,,,Space,keypress(Space),,,,,,,,-- --- ---- --- ------ ----- ------- ---- -- --- ------- --<br>------- ---------- ------ -- ----- -- ----- -- ---- ------<br>--- ----- --- --- ------ -------- ----- --- ------ ----- --<br>these ----- ---------- --- --- ------ ------ ---- -- ------<br>------- --- ------ ----- --- ---- ------- -- ---- --- --<br>------- ------,190312,190310,189995.261,189999.60000002384,190012.179,190328.885,,33,these
screen,html.Screen,2_1_1_1_34,2022-04-28T09:46:19.441Z,,,,,,,,,,,,,,,,,54,,,,,,,,,,,,,,307.1149999999907,,response,,,,100,,,,,,,Space,keypress(Space),,,,,,,,-- --- ---- --- ------ ----- ------- ---- -- --- ------- --<br>------- ---------- ------ -- ----- -- ----- -- ---- ------<br>--- ----- --- --- ------ -------- ----- --- ------ ----- --<br>----- bonds ---------- --- --- ------ ------ ---- -- ------<br>------- --- ------ ----- --- ---- ------- -- ---- --- --<br>------- ------,190637,190636,190312.134,190312.40000009537,190328.885,190645.134,,34,bonds
screen,html.Screen,2_1_1_1_35,2022-04-28T09:46:19.794Z,,,,,,,,,,,,,,,,,54,,,,,,,,,,,,,,340.0660000476928,,response,,,,100,,,,,,,Space,keypress(Space),,,,,,,,"-- --- ---- --- ------ ----- ------- ---- -- --- ------- --<br>------- ---------- ------ -- ----- -- ----- -- ---- ------<br>--- ----- --- --- ------ -------- ----- --- ------ ----- --<br>----- ----- plummeted, --- --- ------ ------ ---- -- ------<br>------- --- ------ ----- --- ---- ------- -- ---- --- --<br>------- ------",190989.40000009537,190985.20000004768,190628.525,190637.10000002384,190645.134,190995.179,,35,"plummeted,"
screen,html.Screen,2_1_1_1_36,2022-04-28T09:46:20.174Z,,,,,,,,,,,,,,,,,54,,,,,,,,,,,,,,372.3209999999963,,response,,,,100,,,,,,,Space,keypress(Space),,,,,,,,-- --- ---- --- ------ ----- ------- ---- -- --- ------- --<br>------- ---------- ------ -- ----- -- ----- -- ---- ------<br>--- ----- --- --- ------ -------- ----- --- ------ ----- --<br>----- ----- ---------- and --- ------ ------ ---- -- ------<br>------- --- ------ ----- --- ---- ------- -- ---- --- --<br>------- ------,191369.5,191367.5,190978.425,190989.80000007153,190995.179,191378.473,,36,and
screen,html.Screen,2_1_1_1_37,2022-04-28T09:46:20.488Z,,,,,,,,,,,,,,,,,54,,,,,,,,,,,,,,303.02700000000186,,response,,,,100,,,,,,,Space,keypress(Space),,,,,,,,-- --- ---- --- ------ ----- ------- ---- -- --- ------- --<br>------- ---------- ------ -- ----- -- ----- -- ---- ------<br>--- ----- --- --- ------ -------- ----- --- ------ ----- --<br>----- ----- ---------- --- the ------ ------ ---- -- ------<br>------- --- ------ ----- --- ---- ------- -- ---- --- --<br>------- ------,191683.5,191681.5,191361.913,191369.80000007153,191378.473,191695.099,,37,the
screen,html.Screen,2_1_1_1_38,2022-04-28T09:46:20.793Z,,,,,,,,,,,,,,,,,54,,,,,,,,,,,,,,291.00100002385443,,response,,,,100,,,,,,,Space,keypress(Space),,,,,,,,-- --- ---- --- ------ ----- ------- ---- -- --- ------- --<br>------- ---------- ------ -- ----- -- ----- -- ---- ------<br>--- ----- --- --- ------ -------- ----- --- ------ ----- --<br>----- ----- ---------- --- --- market ------ ---- -- ------<br>------- --- ------ ----- --- ---- ------- -- ---- --- --<br>------- ------,191988,191986.10000002384,191678.718,191683.80000007153,191695.099,191995.114,,38,market
screen,html.Screen,2_1_1_1_39,2022-04-28T09:46:21.101Z,,,,,,,,,,,,,,,,,54,,,,,,,,,,,,,,299.78600009536603,,response,,,,100,,,,,,,Space,keypress(Space),,,,,,,,-- --- ---- --- ------ ----- ------- ---- -- --- ------- --<br>------- ---------- ------ -- ----- -- ----- -- ---- ------<br>--- ----- --- --- ------ -------- ----- --- ------ ----- --<br>----- ----- ---------- --- --- ------ became ---- -- ------<br>------- --- ------ ----- --- ---- ------- -- ---- --- --<br>------- ------,192296.80000007153,192294.90000009537,191978.502,191988.30000007153,191995.114,192311.96,,39,became
screen,html.Screen,2_1_1_1_40,2022-04-28T09:46:21.432Z,,,,,,,,,,,,,,,,,54,,,,,,,,,,,,,,313.8400000715337,,response,,,,100,,,,,,,Space,keypress(Space),,,,,,,,-- --- ---- --- ------ ----- ------- ---- -- --- ------- --<br>------- ---------- ------ -- ----- -- ----- -- ---- ------<br>--- ----- --- --- ------ -------- ----- --- ------ ----- --<br>----- ----- ---------- --- --- ------ ------ wary -- ------<br>------- --- ------ ----- --- ---- ------- -- ---- --- --<br>------- ------,192627.70000004768,192625.80000007153,192295.149,192297.30000007153,192311.96,192645.49,,40,wary
screen,html.Screen,2_1_1_1_41,2022-04-28T09:46:21.757Z,,,,,,,,,,,,,,,,,54,,,,,,,,,,,,,,304.91000009537674,,response,,,,100,,,,,,,Space,keypress(Space),,,,,,,,-- --- ---- --- ------ ----- ------- ---- -- --- ------- --<br>------- ---------- ------ -- ----- -- ----- -- ---- ------<br>--- ----- --- --- ------ -------- ----- --- ------ ----- --<br>----- ----- ---------- --- --- ------ ------ ---- of ------<br>------- --- ------ ----- --- ---- ------- -- ---- --- --<br>------- ------,192952.30000007153,192950.40000009537,192628.48,192628.10000002384,192645.49,192961.755,,41,of
screen,html.Screen,2_1_1_1_42,2022-04-28T09:46:22.090Z,,,,,,,,,,,,,,,,,54,,,,,,,,,,,,,,321.6450000953628,,response,,,,100,,,,,,,Space,keypress(Space),,,,,,,,-- --- ---- --- ------ ----- ------- ---- -- --- ------- --<br>------- ---------- ------ -- ----- -- ----- -- ---- ------<br>--- ----- --- --- ------ -------- ----- --- ------ ----- --<br>----- ----- ---------- --- --- ------ ------ ---- -- French<br>------- --- ------ ----- --- ---- ------- -- ---- --- --<br>------- ------,193285.30000007153,193283.40000009537,192945.333,192952.70000004768,192961.755,193295.069,,42,French
screen,html.Screen,2_1_1_1_43,2022-04-28T09:46:22.457Z,,,,,,,,,,,,,,,,,54,,,,,,,,,,,,,,355.6310000476951,,response,,,,100,,,,,,,Space,keypress(Space),,,,,,,,-- --- ---- --- ------ ----- ------- ---- -- --- ------- --<br>------- ---------- ------ -- ----- -- ----- -- ---- ------<br>--- ----- --- --- ------ -------- ----- --- ------ ----- --<br>----- ----- ---------- --- --- ------ ------ ---- -- ------<br>credit. --- ------ ----- --- ---- ------- -- ---- --- --<br>------- ------,193652.60000002384,193650.70000004768,193278.467,193285.60000002384,193295.069,193661.694,,43,credit.
screen,html.Screen,2_1_1_1_44,2022-04-28T09:46:22.869Z,,,,,,,,,,,,,,,,,54,,,,,,,,,,,,,,401.20600009537884,,response,,,,100,,,,,,,Space,keypress(Space),,,,,,,,-- --- ---- --- ------ ----- ------- ---- -- --- ------- --<br>------- ---------- ------ -- ----- -- ----- -- ---- ------<br>--- ----- --- --- ------ -------- ----- --- ------ ----- --<br>----- ----- ---------- --- --- ------ ------ ---- -- ------<br>------- The ------ ----- --- ---- ------- -- ---- --- --<br>------- ------,194064.80000007153,194062.90000009537,193645.086,193653,193661.694,194078.343,,44,The
screen,html.Screen,2_1_1_1_45,2022-04-28T09:46:23.179Z,,,,,,,,,,,,,,,,,54,,,,,,,,,,,,,,294.35700004769024,,response,,,,100,,,,,,,Space,keypress(Space),,,,,,,,-- --- ---- --- ------ ----- ------- ---- -- --- ------- --<br>------- ---------- ------ -- ----- -- ----- -- ---- ------<br>--- ----- --- --- ------ -------- ----- --- ------ ----- --<br>----- ----- ---------- --- --- ------ ------ ---- -- ------<br>------- --- French ----- --- ---- ------- -- ---- --- --<br>------- ------,194374.70000004768,194372.70000004768,194061.941,194065.30000007153,194078.343,194378.34,,45,French
screen,html.Screen,2_1_1_1_46,2022-04-28T09:46:23.515Z,,,,,,,,,,,,,,,,,54,,,,,,,,,,,,,,330.0600000953709,,response,,,,100,,,,,,,Space,keypress(Space),,,,,,,,-- --- ---- --- ------ ----- ------- ---- -- --- ------- --<br>------- ---------- ------ -- ----- -- ----- -- ---- ------<br>--- ----- --- --- ------ -------- ----- --- ------ ----- --<br>----- ----- ---------- --- --- ------ ------ ---- -- ------<br>------- --- ------ state --- ---- ------- -- ---- --- --<br>------- ------,194710.30000007153,194708.40000009537,194361.8,194375,194378.34,194745.198,,46,state
screen,html.Screen,2_1_1_1_47,2022-04-28T09:46:23.909Z,,,,,,,,,,,,,,,,,54,,,,,,,,,,,,,,357.4020000238379,,response,,,,100,,,,,,,Space,keypress(Space),,,,,,,,-- --- ---- --- ------ ----- ------- ---- -- --- ------- --<br>------- ---------- ------ -- ----- -- ----- -- ---- ------<br>--- ----- --- --- ------ -------- ----- --- ------ ----- --<br>----- ----- ---------- --- --- ------ ------ ---- -- ------<br>------- --- ------ ----- was ---- ------- -- ---- --- --<br>------- ------,195104.5,195102.60000002384,194728.342,194710.70000004768,194745.198,195111.734,,47,was
screen,html.Screen,2_1_1_1_48,2022-04-28T09:46:24.250Z,,,,,,,,,,,,,,,,,54,,,,,,,,,,,,,,331.56600007152883,,response,,,,100,,,,,,,Space,keypress(Space),,,,,,,,-- --- ---- --- ------ ----- ------- ---- -- --- ------- --<br>------- ---------- ------ -- ----- -- ----- -- ---- ------<br>--- ----- --- --- ------ -------- ----- --- ------ ----- --<br>----- ----- ---------- --- --- ------ ------ ---- -- ------<br>------- --- ------ ----- --- left ------- -- ---- --- --<br>------- ------,195445.20000004768,195443.30000007153,195095.061,195105,195111.734,195461.827,,48,left
screen,html.Screen,2_1_1_1_49,2022-04-28T09:46:24.575Z,,,,,,,,,,,,,,,,,54,,,,,,,,,,,,,,306.8730000476935,,response,,,,100,,,,,,,Space,keypress(Space),,,,,,,,-- --- ---- --- ------ ----- ------- ---- -- --- ------- --<br>------- ---------- ------ -- ----- -- ----- -- ---- ------<br>--- ----- --- --- ------ -------- ----- --- ------ ----- --<br>----- ----- ---------- --- --- ------ ------ ---- -- ------<br>------- --- ------ ----- --- ---- without -- ---- --- --<br>------- ------,195770.70000004768,195768.70000004768,195444.98,195445.70000004768,195461.827,195778.859,,49,without
screen,html.Screen,2_1_1_1_50,2022-04-28T09:46:24.964Z,,,,,,,,,,,,,,,,,54,,,,,,,,,,,,,,378.341000047687,,response,,,,100,,,,,,,Space,keypress(Space),,,,,,,,-- --- ---- --- ------ ----- ------- ---- -- --- ------- --<br>------- ---------- ------ -- ----- -- ----- -- ---- ------<br>--- ----- --- --- ------ -------- ----- --- ------ ----- --<br>----- ----- ---------- --- --- ------ ------ ---- -- ------<br>------- --- ------ ----- --- ---- ------- an ---- --- --<br>------- ------,196159.20000004768,196157.20000004768,195761.773,195771.10000002384,195778.859,196180.605,,50,an
screen,html.Screen,2_1_1_1_51,2022-04-28T09:46:25.351Z,,,,,,,,,,,,,,,,,54,,,,,,,,,,,,,,363.9950000238314,,response,,,,100,,,,,,,Space,keypress(Space),,,,,,,,-- --- ---- --- ------ ----- ------- ---- -- --- ------- --<br>------- ---------- ------ -- ----- -- ----- -- ---- ------<br>--- ----- --- --- ------ -------- ----- --- ------ ----- --<br>----- ----- ---------- --- --- ------ ------ ---- -- ------<br>------- --- ------ ----- --- ---- ------- -- easy --- --<br>------- ------,196546.5,196544.60000002384,196145.188,196159.5,196180.605,196561.713,,51,easy
screen,html.Screen,2_1_1_1_52,2022-04-28T09:46:25.746Z,,,,,,,,,,,,,,,,,54,,,,,,,,,,,,,,378.08700007153675,,response,,,,100,,,,,,,Space,keypress(Space),,,,,,,,-- --- ---- --- ------ ----- ------- ---- -- --- ------- --<br>------- ---------- ------ -- ----- -- ----- -- ---- ------<br>--- ----- --- --- ------ -------- ----- --- ------ ----- --<br>----- ----- ---------- --- --- ------ ------ ---- -- ------<br>------- --- ------ ----- --- ---- ------- -- ---- way --<br>------- ------,196941.70000004768,196939.80000007153,196545.007,196546.80000007153,196561.713,196944.875,,52,way
screen,html.Screen,2_1_1_1_53,2022-04-28T09:46:26.138Z,,,,,,,,,,,,,,,,,54,,,,,,,,,,,,,,386.625,,response,,,,100,,,,,,,Space,keypress(Space),,,,,,,,-- --- ---- --- ------ ----- ------- ---- -- --- ------- --<br>------- ---------- ------ -- ----- -- ----- -- ---- ------<br>--- ----- --- --- ------ -------- ----- --- ------ ----- --<br>----- ----- ---------- --- --- ------ ------ ---- -- ------<br>------- --- ------ ----- --- ---- ------- -- ---- --- of<br>------- ------,197333.5,197331.5,196928.209,196942.10000002384,196944.875,197344.935,,53,of
screen,html.Screen,2_1_1_1_54,2022-04-28T09:46:26.562Z,,,,,,,,,,,,,,,,,54,,,,,,,,,,,,,,410.46500009536976,,response,,,,100,,,,,,,Space,keypress(Space),,,,,,,,-- --- ---- --- ------ ----- ------- ---- -- --- ------- --<br>------- ---------- ------ -- ----- -- ----- -- ---- ------<br>--- ----- --- --- ------ -------- ----- --- ------ ----- --<br>----- ----- ---------- --- --- ------ ------ ---- -- ------<br>------- --- ------ ----- --- ---- ------- -- ---- --- --<br>raising ------,197757.60000002384,197755.40000009537,197328.246,197333.90000009537,197344.935,197761.521,,54,raising
screen,html.Screen,2_1_1_1_55,2022-04-28T09:46:26.976Z,,,,,,,,,,,,,,,,,54,,,,,,,,,,,,,,408.27900007151766,,response,,,,100,,,,,,,Space,keypress(Space),,,,,,,,-- --- ---- --- ------ ----- ------- ---- -- --- ------- --<br>------- ---------- ------ -- ----- -- ----- -- ---- ------<br>--- ----- --- --- ------ -------- ----- --- ------ ----- --<br>----- ----- ---------- --- --- ------ ------ ---- -- ------<br>------- --- ------ ----- --- ---- ------- -- ---- --- --<br>------- money.,198171.60000002384,198169.80000007153,197744.858,197757.90000009537,197761.521,198178.166,,55,money.
Item 100,flow.Loop,2_1_1_1,2022-04-28T09:46:26.977Z,,,,,,,,,,,,,,,,,,,,,,,,,,,,,,,21590.042000071524,,completion,,,,,D,,,,,,,,,,,silence,,,,,198172.10000002384,198169.80000007153,176562.577,176564.5,176579.758,198178.166,,,
Question 1,html.Screen,2_1_1_2,2022-04-28T09:46:29.882Z,,,,,,,,,,,,,,,,,,,,,,,,,,,,true,TRUE,,2897.23400009537,,response,,,,100,D,,,,,,TRUE,click #choice-1,,,,silence,,,,,201077.60000002384,201075.40000009537,198161.714,198172.5,198178.166,201078.003,,,
Question 2,html.Screen,2_1_1_3,2022-04-28T09:46:34.685Z,,,,,,,,,,,,,,,,,,,,,,,,,,,,false,FALSE,,4797.097000023845,,response,,,,100,D,,,,,,TRUE,click #choice-1,,,,silence,,,,,205880.20000004768,205875.10000002384,201061.429,201079,201078.003,205877.758,,,
Item 100,flow.Sequence,2_1_1,2022-04-28T09:46:34.685Z,,,,,,,,,,,,,,,,,,,,,,,,,,,,,,,39295.43100002385,,completion,,,,,,,,,,,,,,,,,,,,,205880.70000004768,205875.10000002384,166563.252,166574.30000007153,166579.669,205877.758,,,
End of Practice,html.Page,2_1_2,2022-04-28T09:46:39.500Z,,,,,,,,,,,,,,,,,,,,,,,,,,,,,,,4816.241999999998,,form submission,,,,,,,,,,,,,,,,,,,,,210695.70000004768,210694,205861.277,205881,205877.758,210694.219,,,
Practice,flow.Sequence,2_1,2022-04-28T09:46:39.501Z,,,,,,,,,,,,,,,,,,,,,,,,,,,,,,,83295.845,,completion,,,,,,,,,,,,,,,,,,,,,210696.30000007153,210694,127381.429,127389.20000004768,127398.155,210694.219,,,
Trap_instruction,html.Page,2_2_0,2022-04-28T09:46:41.491Z,,,,,,,,,,,,,,,,,,,,,,,,,,,,,,,1991.4810000476718,,form submission,,,,,,,,,,,,,,,,,,,,,212686.30000007153,212685.70000004768,210677.748,210696.5,210694.219,212744.121,,,
trap_trial,html.Screen,2_2_1,2022-04-28T09:46:46.442Z,,,,,,,,,,,,,,,,,,,,,,,,,,,,true,1,,4891.279000095354,,response,,,,,,,,,,,1,click #choice-1,,,,,,,,,217638,217635.40000009537,212677.5,212686.60000002384,212744.121,217643.917,,,
end of trap trial,html.Page,2_2_2,2022-04-28T09:46:48.452Z,,,,,,,,,,,,,,,,,,,,,,,,,,,,,,,2002.5830000000133,,form submission,,,,,,,,,,,,,,,,,,,,,219647.10000002384,219646.5,217627.526,217638.30000007153,217643.917,219660.767,,,
Trap 1,flow.Sequence,2_2,2022-04-28T09:46:48.452Z,,,,,,,,,,,,,,,,,,,,,,,,,,,,,,,8952.280999999988,,completion,,,,,,,,,,,,,,,,,,,,,219647.5,219646.5,210677.748,210696.40000009537,210694.219,219660.767,,,
Standby,html.Page,2_3_0,2022-04-28T09:46:56.449Z,,,,,,,,,,,,,,,,,,,,,,,,,,,,,,,7999.330000000016,,timeout,,,,,,,,,,,,,,,,,,,,,227644.30000007153,227643.441,219644.11,219647.80000007153,219660.767,227660.097,,,
Holding screen,html.Screen,2_3_1_0_0,2022-04-28T09:47:03.449Z,,,,,,,,,,,,,,,,,,,,,,,,,,,,,,,6999.649000000005,,timeout,,,,,,,,,,,,,,,,,,,,,234644.90000009537,234643.392,227643.441,227644.60000002384,227660.097,234659.746,,,
screen,html.Screen,2_3_1_0_1_0,2022-04-28T09:47:06.615Z,,,,,,,,,,,,,,,,,51,,,,,,,,,,,,,,3147.2539999999863,,response,,,,13,D,,,,,,Space,keypress(Space),,,,speech,,,,American -------- --- --- ---- --- --- ------ -- --------<br>---- --------- --- ------- ------------ ---------- ---------<br>--- ---------- ------- ---------- ------- -- -------- ----<br>---- --- ------ ----- ------ -- ---- --- ----- -- - -------<br>-------- -- --- --- -- ----- ----------- ----- -----------<br>---- --- ---------- --- ---- --- -- ----------,237810.60000002384,237807,234643.392,234645.5,234659.746,237809.594,,0,American
screen,html.Screen,2_3_1_0_1_1,2022-04-28T09:47:07.085Z,,,,,,,,,,,,,,,,,51,,,,,,,,,,,,,,468.60600004767184,,response,,,,13,D,,,,,,Space,keypress(Space),,,,speech,,,,-------- industry --- --- ---- --- --- ------ -- --------<br>---- --------- --- ------- ------------ ---------- ---------<br>--- ---------- ------- ---------- ------- -- -------- ----<br>---- --- ------ ----- ------ -- ---- --- ----- -- - -------<br>-------- -- --- --- -- ----- ----------- ----- -----------<br>---- --- ---------- --- ---- --- -- ----------,238280.20000004768,238278.20000004768,237793.034,237811.10000002384,237809.594,238292.899,,1,industry
screen,html.Screen,2_3_1_0_1_2,2022-04-28T09:47:07.501Z,,,,,,,,,,,,,,,,,51,,,,,,,,,,,,,,401.20100002383697,,response,,,,13,D,,,,,,Space,keypress(Space),,,,speech,,,,-------- -------- may --- ---- --- --- ------ -- --------<br>---- --------- --- ------- ------------ ---------- ---------<br>--- ---------- ------- ---------- ------- -- -------- ----<br>---- --- ------ ----- ------ -- ---- --- ----- -- - -------<br>-------- -- --- --- -- ----- ----------- ----- -----------<br>---- --- ---------- --- ---- --- -- ----------,238696.80000007153,238694.10000002384,238276.353,238280.60000002384,238292.899,238709.605,,2,may
screen,html.Screen,2_3_1_0_1_3,2022-04-28T09:47:07.906Z,,,,,,,,,,,,,,,,,51,,,,,,,,,,,,,,390.4950000238314,,response,,,,13,D,,,,,,Space,keypress(Space),,,,speech,,,,-------- -------- --- not ---- --- --- ------ -- --------<br>---- --------- --- ------- ------------ ---------- ---------<br>--- ---------- ------- ---------- ------- -- -------- ----<br>---- --- ------ ----- ------ -- ---- --- ----- -- - -------<br>-------- -- --- --- -- ----- ----------- ----- -----------<br>---- --- ---------- --- ---- --- -- ----------,239101,239100.10000002384,238693.117,238697.20000004768,238709.605,239109.512,,3,not
screen,html.Screen,2_3_1_0_1_4,2022-04-28T09:47:08.304Z,,,,,,,,,,,,,,,,,51,,,,,,,,,,,,,,387.9880000000121,,response,,,,13,D,,,,,,Space,keypress(Space),,,,speech,,,,-------- -------- --- --- know --- --- ------ -- --------<br>---- --------- --- ------- ------------ ---------- ---------<br>--- ---------- ------- ---------- ------- -- -------- ----<br>---- --- ------ ----- ------ -- ---- --- ----- -- - -------<br>-------- -- --- --- -- ----- ----------- ----- -----------<br>---- --- ---------- --- ---- --- -- ----------,239499.40000009537,239497.5,239093.239,239101.20000004768,239109.512,239509.521,,4,know
screen,html.Screen,2_3_1_0_1_5,2022-04-28T09:47:08.688Z,,,,,,,,,,,,,,,,,51,,,,,,,,,,,,,,371.77900007151766,,response,,,,13,D,,,,,,Space,keypress(Space),,,,speech,,,,"-------- -------- --- --- ---- it, --- ------ -- --------<br>---- --------- --- ------- ------------ ---------- ---------<br>--- ---------- ------- ---------- ------- -- -------- ----<br>---- --- ------ ----- ------ -- ---- --- ----- -- - -------<br>-------- -- --- --- -- ----- ----------- ----- -----------<br>---- --- ---------- --- ---- --- -- ----------",239883.30000007153,239881.30000007153,239492.827,239499.90000009537,239509.521,239892.861,,5,"it,"
screen,html.Screen,2_3_1_0_1_6,2022-04-28T09:47:09.028Z,,,,,,,,,,,,,,,,,51,,,,,,,,,,,,,,328.539000095363,,response,,,,13,D,,,,,,Space,keypress(Space),,,,speech,,,,-------- -------- --- --- ---- --- but ------ -- --------<br>---- --------- --- ------- ------------ ---------- ---------<br>--- ---------- ------- ---------- ------- -- -------- ----<br>---- --- ------ ----- ------ -- ---- --- ----- -- - -------<br>-------- -- --- --- -- ----- ----------- ----- -----------<br>---- --- ---------- --- ---- --- -- ----------,240223.40000009537,240221.40000009537,239876.127,239883.80000007153,239892.861,240226.133,,6,but
screen,html.Screen,2_3_1_0_1_7,2022-04-28T09:47:09.369Z,,,,,,,,,,,,,,,,,51,,,,,,,,,,,,,,335.9670000238402,,response,,,,13,D,,,,,,Space,keypress(Space),,,,speech,,,,-------- -------- --- --- ---- --- --- debate -- --------<br>---- --------- --- ------- ------------ ---------- ---------<br>--- ---------- ------- ---------- ------- -- -------- ----<br>---- --- ------ ----- ------ -- ---- --- ----- -- - -------<br>-------- -- --- --- -- ----- ----------- ----- -----------<br>---- --- ---------- --- ---- --- -- ----------,240564,240562.10000002384,240209.597,240223.70000004768,240226.133,240576.683,,7,debate
screen,html.Screen,2_3_1_0_1_8,2022-04-28T09:47:09.704Z,,,,,,,,,,,,,,,,,51,,,,,,,,,,,,,,320.6170000715356,,response,,,,13,D,,,,,,Space,keypress(Space),,,,speech,,,,-------- -------- --- --- ---- --- --- ------ in --------<br>---- --------- --- ------- ------------ ---------- ---------<br>--- ---------- ------- ---------- ------- -- -------- ----<br>---- --- ------ ----- ------ -- ---- --- ----- -- - -------<br>-------- -- --- --- -- ----- ----------- ----- -----------<br>---- --- ---------- --- ---- --- -- ----------,240899.30000007153,240897.30000007153,240559.524,240564.40000009537,240576.683,240909.485,,8,in
screen,html.Screen,2_3_1_0_1_9,2022-04-28T09:47:10.084Z,,,,,,,,,,,,,,,,,51,,,,,,,,,,,,,,367.9150000953814,,response,,,,13,D,,,,,,Space,keypress(Space),,,,speech,,,,-------- -------- --- --- ---- --- --- ------ -- Congress<br>---- --------- --- ------- ------------ ---------- ---------<br>--- ---------- ------- ---------- ------- -- -------- ----<br>---- --- ------ ----- ------ -- ---- --- ----- -- - -------<br>-------- -- --- --- -- ----- ----------- ----- -----------<br>---- --- ---------- --- ---- --- -- ----------,241279.20000004768,241277.40000009537,240893.059,240899.70000004768,240909.485,241293.195,,9,Congress
screen,html.Screen,2_3_1_0_1_10,2022-04-28T09:47:10.590Z,,,,,,,,,,,,,,,,,51,,,,,,,,,,,,,,490.1050000715186,,response,,,,13,D,,,,,,Space,keypress(Space),,,,speech,,,,-------- -------- --- --- ---- --- --- ------ -- --------<br>over --------- --- ------- ------------ ---------- ---------<br>--- ---------- ------- ---------- ------- -- -------- ----<br>---- --- ------ ----- ------ -- ---- --- ----- -- - -------<br>-------- -- --- --- -- ----- ----------- ----- -----------<br>---- --- ---------- --- ---- --- -- ----------,241785.40000009537,241783.30000007153,241276.374,241279.5,241293.195,241793.153,,10,over
screen,html.Screen,2_3_1_0_1_11,2022-04-28T09:47:11.043Z,,,,,,,,,,,,,,,,,51,,,,,,,,,,,,,,441.4470000238507,,response,,,,13,D,,,,,,Space,keypress(Space),,,,speech,,,,-------- -------- --- --- ---- --- --- ------ -- --------<br>---- reforming --- ------- ------------ ---------- ---------<br>--- ---------- ------- ---------- ------- -- -------- ----<br>---- --- ------ ----- ------ -- ---- --- ----- -- - -------<br>-------- -- --- --- -- ----- ----------- ----- -----------<br>---- --- ---------- --- ---- --- -- ----------,242238.40000009537,242234.60000002384,241777.051,241786,241793.153,242242.747,,11,reforming
screen,html.Screen,2_3_1_0_1_12,2022-04-28T09:47:11.437Z,,,,,,,,,,,,,,,,,51,,,,,,,,,,,,,,387.55300007152255,,response,,,,13,D,,,,,,Space,keypress(Space),,,,speech,,,,-------- -------- --- --- ---- --- --- ------ -- --------<br>---- --------- the ------- ------------ ---------- ---------<br>--- ---------- ------- ---------- ------- -- -------- ----<br>---- --- ------ ----- ------ -- ---- --- ----- -- - -------<br>-------- -- --- --- -- ----- ----------- ----- -----------<br>---- --- ---------- --- ---- --- -- ----------,242632.70000004768,242630.30000007153,242226.267,242238.80000007153,242242.747,242642.829,,12,the
screen,html.Screen,2_3_1_0_1_13,2022-04-28T09:47:11.841Z,,,,,,,,,,,,,,,,,51,,,,,,,,,,,,,,391.77100002384395,,response,,,,13,D,,,,,,Space,keypress(Space),,,,speech,,,,-------- -------- --- --- ---- --- --- ------ -- --------<br>---- --------- --- federal ------------ ---------- ---------<br>--- ---------- ------- ---------- ------- -- -------- ----<br>---- --- ------ ----- ------ -- ---- --- ----- -- - -------<br>-------- -- --- --- -- ----- ----------- ----- -----------<br>---- --- ---------- --- ---- --- -- ----------,243036.80000007153,243034.60000002384,242626.104,242633,242642.829,243042.717,,13,federal
screen,html.Screen,2_3_1_0_1_14,2022-04-28T09:47:12.231Z,,,,,,,,,,,,,,,,,51,,,,,,,,,,,,,,381.5830000715214,,response,,,,13,D,,,,,,Space,keypress(Space),,,,speech,,,,-------- -------- --- --- ---- --- --- ------ -- --------<br>---- --------- --- ------- government's ---------- ---------<br>--- ---------- ------- ---------- ------- -- -------- ----<br>---- --- ------ ----- ------ -- ---- --- ----- -- - -------<br>-------- -- --- --- -- ----- ----------- ----- -----------<br>---- --- ---------- --- ---- --- -- ----------,243426.30000007153,243424.30000007153,243026.031,243037.10000002384,243042.717,243442.954,,14,government's
screen,html.Screen,2_3_1_0_1_15,2022-04-28T09:47:12.638Z,,,,,,,,,,,,,,,,,51,,,,,,,,,,,,,,388.64600002384395,,response,,,,13,D,,,,,,Space,keypress(Space),,,,speech,,,,-------- -------- --- --- ---- --- --- ------ -- --------<br>---- --------- --- ------- ------------ regulatory ---------<br>--- ---------- ------- ---------- ------- -- -------- ----<br>---- --- ------ ----- ------ -- ---- --- ----- -- - -------<br>-------- -- --- --- -- ----- ----------- ----- -----------<br>---- --- ---------- --- ---- --- -- ----------,243833.70000004768,243831.60000002384,243426.615,243426.80000007153,243442.954,243842.662,,15,regulatory
screen,html.Screen,2_3_1_0_1_16,2022-04-28T09:47:13.014Z,,,,,,,,,,,,,,,,,51,,,,,,,,,,,,,,364.6380000715144,,response,,,,13,D,,,,,,Space,keypress(Space),,,,speech,,,,-------- -------- --- --- ---- --- --- ------ -- --------<br>---- --------- --- ------- ------------ ---------- apparatus<br>--- ---------- ------- ---------- ------- -- -------- ----<br>---- --- ------ ----- ------ -- ---- --- ----- -- - -------<br>-------- -- --- --- -- ----- ----------- ----- -----------<br>---- --- ---------- --- ---- --- -- ----------,244209.30000007153,244207.30000007153,243826.169,243834.10000002384,243842.662,244226.714,,16,apparatus
screen,html.Screen,2_3_1_0_1_17,2022-04-28T09:47:13.434Z,,,,,,,,,,,,,,,,,51,,,,,,,,,,,,,,400.7859999999928,,response,,,,13,D,,,,,,Space,keypress(Space),,,,speech,,,,-------- -------- --- --- ---- --- --- ------ -- --------<br>---- --------- --- ------- ------------ ---------- ---------<br>may ---------- ------- ---------- ------- -- -------- ----<br>---- --- ------ ----- ------ -- ---- --- ----- -- - -------<br>-------- -- --- --- -- ----- ----------- ----- -----------<br>---- --- ---------- --- ---- --- -- ----------,244629.30000007153,244627.5,244209.349,244209.70000004768,244226.714,244642.701,,17,may
screen,html.Screen,2_3_1_0_1_18,2022-04-28T09:47:13.827Z,,,,,,,,,,,,,,,,,51,,,,,,,,,,,,,,377.79899999999907,,response,,,,13,D,,,,,,Space,keypress(Space),,,,speech,,,,-------- -------- --- --- ---- --- --- ------ -- --------<br>---- --------- --- ------- ------------ ---------- ---------<br>--- profoundly ------- ---------- ------- -- -------- ----<br>---- --- ------ ----- ------ -- ---- --- ----- -- - -------<br>-------- -- --- --- -- ----- ----------- ----- -----------<br>---- --- ---------- --- ---- --- -- ----------,245022.40000009537,245020.5,244626.126,244629.70000004768,244642.701,245025.936,,18,profoundly
screen,html.Screen,2_3_1_0_1_19,2022-04-28T09:47:14.226Z,,,,,,,,,,,,,,,,,51,,,,,,,,,,,,,,393.06400000001304,,response,,,,13,D,,,,,,Space,keypress(Space),,,,speech,,,,-------- -------- --- --- ---- --- --- ------ -- --------<br>---- --------- --- ------- ------------ ---------- ---------<br>--- ---------- improve ---------- ------- -- -------- ----<br>---- --- ------ ----- ------ -- ---- --- ----- -- - -------<br>-------- -- --- --- -- ----- ----------- ----- -----------<br>---- --- ---------- --- ---- --- -- ----------,245421,245419,245009.307,245022.90000009537,245025.936,245425.944,,19,improve
screen,html.Screen,2_3_1_0_1_20,2022-04-28T09:47:14.613Z,,,,,,,,,,,,,,,,,51,,,,,,,,,,,,,,379.356000071537,,response,,,,13,D,,,,,,Space,keypress(Space),,,,speech,,,,-------- -------- --- --- ---- --- --- ------ -- --------<br>---- --------- --- ------- ------------ ---------- ---------<br>--- ---------- ------- companies' ------- -- -------- ----<br>---- --- ------ ----- ------ -- ---- --- ----- -- - -------<br>-------- -- --- --- -- ----- ----------- ----- -----------<br>---- --- ---------- --- ---- --- -- ----------,245808,245805.30000007153,245409.551,245421.40000009537,245425.944,245842.802,,20,companies'
screen,html.Screen,2_3_1_0_1_21,2022-04-28T09:47:15.002Z,,,,,,,,,,,,,,,,,51,,,,,,,,,,,,,,352.69800000000396,,response,,,,13,D,,,,,,Space,keypress(Space),,,,speech,,,,-------- -------- --- --- ---- --- --- ------ -- --------<br>---- --------- --- ------- ------------ ---------- ---------<br>--- ---------- ------- ---------- ability -- -------- ----<br>---- --- ------ ----- ------ -- ---- --- ----- -- - -------<br>-------- -- --- --- -- ----- ----------- ----- -----------<br>---- --- ---------- --- ---- --- -- ----------,246197.5,246195.5,245826.254,245808.30000007153,245842.802,246209.295,,21,ability
screen,html.Screen,2_3_1_0_1_22,2022-04-28T09:47:15.373Z,,,,,,,,,,,,,,,,,51,,,,,,,,,,,,,,356.80500002382905,,response,,,,13,D,,,,,,Space,keypress(Space),,,,speech,,,,-------- -------- --- --- ---- --- --- ------ -- --------<br>---- --------- --- ------- ------------ ---------- ---------<br>--- ---------- ------- ---------- ------- to -------- ----<br>---- --- ------ ----- ------ -- ---- --- ----- -- - -------<br>-------- -- --- --- -- ----- ----------- ----- -----------<br>---- --- ---------- --- ---- --- -- ----------,246568.30000007153,246566.10000002384,246192.812,246197.90000009537,246209.295,246575.881,,22,to
screen,html.Screen,2_3_1_0_1_23,2022-04-28T09:47:15.710Z,,,,,,,,,,,,,,,,,51,,,,,,,,,,,,,,327.4190000715316,,response,,,,13,D,,,,,,Space,keypress(Space),,,,speech,,,,-------- -------- --- --- ---- --- --- ------ -- --------<br>---- --------- --- ------- ------------ ---------- ---------<br>--- ---------- ------- ---------- ------- -- survive. ----<br>---- --- ------ ----- ------ -- ---- --- ----- -- - -------<br>-------- -- --- --- -- ----- ----------- ----- -----------<br>---- --- ---------- --- ---- --- -- ----------,246905.20000004768,246903.30000007153,246559.248,246568.70000004768,246575.881,246909.202,,23,survive.
screen,html.Screen,2_3_1_0_1_24,2022-04-28T09:47:16.143Z,,,,,,,,,,,,,,,,,51,,,,,,,,,,,,,,427.4980000476935,,response,,,,13,D,,,,,,Space,keypress(Space),,,,speech,,,,-------- -------- --- --- ---- --- --- ------ -- --------<br>---- --------- --- ------- ------------ ---------- ---------<br>--- ---------- ------- ---------- ------- -- -------- This<br>---- --- ------ ----- ------ -- ---- --- ----- -- - -------<br>-------- -- --- --- -- ----- ----------- ----- -----------<br>---- --- ---------- --- ---- --- -- ----------,247338.5,247336.70000004768,246892.813,246905.60000002384,246909.202,247342.507,,24,This
screen,html.Screen,2_3_1_0_1_25,2022-04-28T09:47:16.498Z,,,,,,,,,,,,,,,,,51,,,,,,,,,,,,,,349.1930000476714,,response,,,,13,D,,,,,,Space,keypress(Space),,,,speech,,,,-------- -------- --- --- ---- --- --- ------ -- --------<br>---- --------- --- ------- ------------ ---------- ---------<br>--- ---------- ------- ---------- ------- -- -------- ----<br>week --- ------ ----- ------ -- ---- --- ----- -- - -------<br>-------- -- --- --- -- ----- ----------- ----- -----------<br>---- --- ---------- --- ---- --- -- ----------,247693.70000004768,247691.70000004768,247325.934,247338.90000009537,247342.507,247709.533,,25,week
screen,html.Screen,2_3_1_0_1_26,2022-04-28T09:47:16.865Z,,,,,,,,,,,,,,,,,51,,,,,,,,,,,,,,348.4670000000042,,response,,,,13,D,,,,,,Space,keypress(Space),,,,speech,,,,-------- -------- --- --- ---- --- --- ------ -- --------<br>---- --------- --- ------- ------------ ---------- ---------<br>--- ---------- ------- ---------- ------- -- -------- ----<br>---- the ------ ----- ------ -- ---- --- ----- -- - -------<br>-------- -- --- --- -- ----- ----------- ----- -----------<br>---- --- ---------- --- ---- --- -- ----------,248060.70000004768,248058,247692.495,247694,247709.533,248075.782,,26,the
screen,html.Screen,2_3_1_0_1_27,2022-04-28T09:47:17.186Z,,,,,,,,,,,,,,,,,51,,,,,,,,,,,,,,302.7179999999935,,response,,,,13,D,,,,,,Space,keypress(Space),,,,speech,,,,-------- -------- --- --- ---- --- --- ------ -- --------<br>---- --------- --- ------- ------------ ---------- ---------<br>--- ---------- ------- ---------- ------- -- -------- ----<br>---- --- Senate ----- ------ -- ---- --- ----- -- - -------<br>-------- -- --- --- -- ----- ----------- ----- -----------<br>---- --- ---------- --- ---- --- -- ----------,248381,248378.5,248059.145,248061.10000002384,248075.782,248392.52,,27,Senate
screen,html.Screen,2_3_1_0_1_28,2022-04-28T09:47:17.588Z,,,,,,,,,,,,,,,,,51,,,,,,,,,,,,,,389.08000002385234,,response,,,,13,D,,,,,,Space,keypress(Space),,,,speech,,,,-------- -------- --- --- ---- --- --- ------ -- --------<br>---- --------- --- ------- ------------ ---------- ---------<br>--- ---------- ------- ---------- ------- -- -------- ----<br>---- --- ------ seems ------ -- ---- --- ----- -- - -------<br>-------- -- --- --- -- ----- ----------- ----- -----------<br>---- --- ---------- --- ---- --- -- ----------,248783.5,248781.60000002384,248375.882,248381.40000009537,248392.52,248792.617,,28,seems
screen,html.Screen,2_3_1_0_1_29,2022-04-28T09:47:17.908Z,,,,,,,,,,,,,,,,,51,,,,,,,,,,,,,,308.1830000715272,,response,,,,13,D,,,,,,Space,keypress(Space),,,,speech,,,,-------- -------- --- --- ---- --- --- ------ -- --------<br>---- --------- --- ------- ------------ ---------- ---------<br>--- ---------- ------- ---------- ------- -- -------- ----<br>---- --- ------ ----- poised -- ---- --- ----- -- - -------<br>-------- -- --- --- -- ----- ----------- ----- -----------<br>---- --- ---------- --- ---- --- -- ----------,249103,249100.80000007153,248775.772,248783.80000007153,248792.617,249109.078,,29,poised
screen,html.Screen,2_3_1_0_1_30,2022-04-28T09:47:18.269Z,,,,,,,,,,,,,,,,,51,,,,,,,,,,,,,,353.4219999999914,,response,,,,13,D,,,,,,Space,keypress(Space),,,,speech,,,,-------- -------- --- --- ---- --- --- ------ -- --------<br>---- --------- --- ------- ------------ ---------- ---------<br>--- ---------- ------- ---------- ------- -- -------- ----<br>---- --- ------ ----- ------ to ---- --- ----- -- - -------<br>-------- -- --- --- -- ----- ----------- ----- -----------<br>---- --- ---------- --- ---- --- -- ----------,249464.5,249462.5,249092.547,249103.40000009537,249109.078,249475.746,,30,to
screen,html.Screen,2_3_1_0_1_31,2022-04-28T09:47:18.612Z,,,,,,,,,,,,,,,,,51,,,,,,,,,,,,,,329.45400004767,,response,,,,13,D,,,,,,Space,keypress(Space),,,,speech,,,,-------- -------- --- --- ---- --- --- ------ -- --------<br>---- --------- --- ------- ------------ ---------- ---------<br>--- ---------- ------- ---------- ------- -- -------- ----<br>---- --- ------ ----- ------ -- join --- ----- -- - -------<br>-------- -- --- --- -- ----- ----------- ----- -----------<br>---- --- ---------- --- ---- --- -- ----------,249807.60000002384,249805.20000004768,249459.174,249464.80000007153,249475.746,249825.944,,31,join
screen,html.Screen,2_3_1_0_1_32,2022-04-28T09:47:18.938Z,,,,,,,,,,,,,,,,,51,,,,,,,,,,,,,,306.45600009537884,,response,,,,13,D,,,,,,Space,keypress(Space),,,,speech,,,,-------- -------- --- --- ---- --- --- ------ -- --------<br>---- --------- --- ------- ------------ ---------- ---------<br>--- ---------- ------- ---------- ------- -- -------- ----<br>---- --- ------ ----- ------ -- ---- the ----- -- - -------<br>-------- -- --- --- -- ----- ----------- ----- -----------<br>---- --- ---------- --- ---- --- -- ----------,250133.30000007153,250132.40000009537,249792.566,249808.10000002384,249825.944,250142.731,,32,the
screen,html.Screen,2_3_1_0_1_33,2022-04-28T09:47:19.284Z,,,,,,,,,,,,,,,,,51,,,,,,,,,,,,,,335.26900000000023,,response,,,,13,D,,,,,,Space,keypress(Space),,,,speech,,,,-------- -------- --- --- ---- --- --- ------ -- --------<br>---- --------- --- ------- ------------ ---------- ---------<br>--- ---------- ------- ---------- ------- -- -------- ----<br>---- --- ------ ----- ------ -- ---- --- House -- - -------<br>-------- -- --- --- -- ----- ----------- ----- -----------<br>---- --- ---------- --- ---- --- -- ----------,250479.80000007153,250478,250125.958,250133.40000009537,250142.731,250492.406,,33,House
screen,html.Screen,2_3_1_0_1_34,2022-04-28T09:47:19.616Z,,,,,,,,,,,,,,,,,51,,,,,,,,,,,,,,316.5940000000119,,response,,,,13,D,,,,,,Space,keypress(Space),,,,speech,,,,-------- -------- --- --- ---- --- --- ------ -- --------<br>---- --------- --- ------- ------------ ---------- ---------<br>--- ---------- ------- ---------- ------- -- -------- ----<br>---- --- ------ ----- ------ -- ---- --- ----- in - -------<br>-------- -- --- --- -- ----- ----------- ----- -----------<br>---- --- ---------- --- ---- --- -- ----------,250810.90000009537,250809,250475.902,250480.20000004768,250492.406,250825.837,,34,in
screen,html.Screen,2_3_1_0_1_35,2022-04-28T09:47:19.930Z,,,,,,,,,,,,,,,,,51,,,,,,,,,,,,,,297.2630000238423,,response,,,,13,D,,,,,,Space,keypress(Space),,,,speech,,,,-------- -------- --- --- ---- --- --- ------ -- --------<br>---- --------- --- ------- ------------ ---------- ---------<br>--- ---------- ------- ---------- ------- -- -------- ----<br>---- --- ------ ----- ------ -- ---- --- ----- -- a -------<br>-------- -- --- --- -- ----- ----------- ----- -----------<br>---- --- ---------- --- ---- --- -- ----------,251125.5,251123.10000002384,250809.405,250811.30000007153,250825.837,251142.708,,35,a
screen,html.Screen,2_3_1_0_1_36,2022-04-28T09:47:20.276Z,,,,,,,,,,,,,,,,,51,,,,,,,,,,,,,,326.5920000715123,,response,,,,13,D,,,,,,Space,keypress(Space),,,,speech,,,,-------- -------- --- --- ---- --- --- ------ -- --------<br>---- --------- --- ------- ------------ ---------- ---------<br>--- ---------- ------- ---------- ------- -- -------- ----<br>---- --- ------ ----- ------ -- ---- --- ----- -- - massive<br>-------- -- --- --- -- ----- ----------- ----- -----------<br>---- --- ---------- --- ---- --- -- ----------,251471.70000004768,251469.30000007153,251125.913,251125.90000009537,251142.708,251476.291,,36,massive
screen,html.Screen,2_3_1_0_1_37,2022-04-28T09:47:20.615Z,,,,,,,,,,,,,,,,,51,,,,,,,,,,,,,,331.10900009537,,response,,,,13,D,,,,,,Space,keypress(Space),,,,speech,,,,-------- -------- --- --- ---- --- --- ------ -- --------<br>---- --------- --- ------- ------------ ---------- ---------<br>--- ---------- ------- ---------- ------- -- -------- ----<br>---- --- ------ ----- ------ -- ---- --- ----- -- - -------<br>overhaul -- --- --- -- ----- ----------- ----- -----------<br>---- --- ---------- --- ---- --- -- ----------,251809.90000009537,251807.40000009537,251459.206,251472.10000002384,251476.291,251826.094,,37,overhaul
screen,html.Screen,2_3_1_0_1_38,2022-04-28T09:47:20.970Z,,,,,,,,,,,,,,,,,51,,,,,,,,,,,,,,336.9059999999881,,response,,,,13,D,,,,,,Space,keypress(Space),,,,speech,,,,-------- -------- --- --- ---- --- --- ------ -- --------<br>---- --------- --- ------- ------------ ---------- ---------<br>--- ---------- ------- ---------- ------- -- -------- ----<br>---- --- ------ ----- ------ -- ---- --- ----- -- - -------<br>-------- of --- --- -- ----- ----------- ----- -----------<br>---- --- ---------- --- ---- --- -- ----------,252165.10000002384,252163,251808.946,251810.30000007153,251826.094,252176.488,,38,of
screen,html.Screen,2_3_1_0_1_39,2022-04-28T09:47:21.260Z,,,,,,,,,,,,,,,,,51,,,,,,,,,,,,,,277.31200007151347,,response,,,,13,D,,,,,,Space,keypress(Space),,,,speech,,,,-------- -------- --- --- ---- --- --- ------ -- --------<br>---- --------- --- ------- ------------ ---------- ---------<br>--- ---------- ------- ---------- ------- -- -------- ----<br>---- --- ------ ----- ------ -- ---- --- ----- -- - -------<br>-------- -- the --- -- ----- ----------- ----- -----------<br>---- --- ---------- --- ---- --- -- ----------,252455.70000004768,252453.80000007153,252158.982,252165.5,252176.488,252458.92,,39,the
