sender,sender_type,sender_id,timestamp,meta,,Blues,Classical,Country,Dance,Electronic,Folk,Gospel,Hip-Hop,Jazz,Latin,Musical/Film,New-age,Pop,Prolific_id,Provo_ID,R&B,Rap,Reggae,Religious,Rock,Soul,Swing,Traditional,age,artist_name,correct,correctResponse,distraction,duration,education,ended_on,familiarity,gender,headphone_check_performance,item,list,music_frequency,offensiveness,pleasantness,position_correct,preference,response,response_action,snippet_file,song_name,song_rating,sound,stimulus_1,stimulus_2,stimulus_3,text,time_commit,time_end,time_render,time_run,time_show,time_switch,url,word,word_ID
Prolific ID,html.Form,0,2022-04-25T17:11:31.064Z,"{""labjs_version"":""20.2.2"",""labjs_build"":{""flavor"":""production"",""commit"":""a25486e0c714a0ae2ce03ff94b7bb6896854dcfa""},""location"":""https://run.pavlovia.org/mvasilev/prolific3_music_b/"",""userAgent"":""Mozilla/5.0 (Windows NT 10.0; Win64; x64) AppleWebKit/537.36 (KHTML, like Gecko) Chrome/100.0.4896.127 Safari/537.36"",""platform"":""Win32"",""language"":""en-GB"",""locale"":""en-GB"",""timeZone"":""Europe/London"",""timezoneOffset"":-60,""screen_width"":1920,""screen_height"":1080,""scroll_width"":1920,""scroll_height"":927,""window_innerWidth"":1920,""window_innerHeight"":975,""devicePixelRatio"":1}",,,,,,,,,,,,,,,603f581f15614a0e86a13823,,,,,,,,,,,,,,,42698.207,,form submission,,,,,,,,,,,,,,,,,,,,,92445.09999990463,92444.5,39895.839,35989.39999985695,49746.293,92779.498,{},,
Introduction,html.Screen,1_0,2022-04-25T17:11:37.634Z,,,,,,,,,,,,,,,,,,,,,,,,,,,,,,,6233.701999809258,,response,,,,,,,,,,,continue,click button,,,,,,,,,99014.79999995232,99013.19999980927,92395.948,92445.69999980927,92779.498,99096.1,,,
Volume calibration,html.Screen,1_1,2022-04-25T17:12:39.520Z,,,,,,,,,,,,,,,,,,,,,,,,,,,,,,,61796.59999980926,,response,,,,,,,,,,,continue,click button,,,,,,,,,160895.69999980927,160892.69999980927,99012.809,99014.89999985695,99096.1,160895.442,,,
Task instructions,html.Screen,1_2,2022-04-25T17:12:48.853Z,,,,,,,,,,,,,,,,,,,,,,,,,,,,,,,9333.157999904623,,response,,,,,,,,,,,continue,click button,,,,,,,,,170229.29999995232,170228.59999990463,160878.77,160896,160895.442,170245.339,,,
Sounds,html.Screen,1_3_0_0,2022-04-25T17:12:53.115Z,,,,,,,,,,,,,,,,,,,,,,,,,,,,,,,4250.011999999988,,timeout,,,,,,,,,3,,,,,,,,O,I,S,,174490.59999990463,174478.626,170228.687,170229.39999985695,170245.339,174495.351,,,
Judgement,html.Screen,1_3_0_1,2022-04-25T17:12:54.550Z,,,,,,,,,,,,,,,,,,,,,,,,,,,,true,3,,1429.34899980927,,response,,,,,,,,,3,,3,click #choice-3,,,,,O,I,S,,175925.59999990463,175924.69999980927,174478.626,174490.69999980927,174495.351,175928.646,,,
Trial,flow.Sequence,1_3_0,2022-04-25T17:12:54.550Z,,,,,,,,,,,,,,,,,,,,,,,,,,,,,,,5679.360999809258,,completion,,,,,,,,,3,,,,,,,,O,I,S,,175925.89999985695,175924.69999980927,170228.687,170229.39999985695,170245.339,175928.646,,,
Sounds,html.Screen,1_3_1_0,2022-04-25T17:12:58.787Z,,,,,,,,,,,,,,,,,,,,,,,,,,,,,,,4250.0869999999995,,timeout,,,,,,,,,3,,,,,,,,I,O,S,,180163.39999985695,180162.153,175911.977,175926,175928.646,180178.733,,,
Judgement,html.Screen,1_3_1_1,2022-04-25T17:12:59.454Z,,,,,,,,,,,,,,,,,,,,,,,,,,,,true,3,,649.9669998092577,,response,,,,,,,,,3,,3,click #choice-3,,,,,I,O,S,,180829.5,180828.69999980927,180162.153,180163.69999980927,180178.733,180845.265,,,
Trial,flow.Sequence,1_3_1,2022-04-25T17:12:59.454Z,,,,,,,,,,,,,,,,,,,,,,,,,,,,,,,4900.053999809257,,completion,,,,,,,,,3,,,,,,,,I,O,S,,180830.29999995232,180828.69999980927,175911.977,175925.89999985695,175928.646,180845.265,,,
Sounds,html.Screen,1_3_2_0,2022-04-25T17:13:03.703Z,,,,,,,,,,,,,,,,,,,,,,,,,,,,,,,4249.981,,timeout,,,,,,,,,2,,,,,,,,I,S,O,,185079.29999995232,185078.585,180828.604,180830.29999995232,180845.265,185095.246,,,
Judgement,html.Screen,1_3_2_1,2022-04-25T17:13:04.102Z,,,,,,,,,,,,,,,,,,,,,,,,,,,,true,2,,381.4539998092514,,response,,,,,,,,,2,,2,click #choice-2,,,,,I,S,O,,185477.5,185476.69999980927,185078.585,185079.39999985695,185095.246,185478.574,,,
Trial,flow.Sequence,1_3_2,2022-04-25T17:13:04.102Z,,,,,,,,,,,,,,,,,,,,,,,,,,,,,,,4631.434999809251,,completion,,,,,,,,,2,,,,,,,,I,S,O,,185477.69999980927,185476.69999980927,180828.604,180830.29999995232,180845.265,185478.574,,,
Sounds,html.Screen,1_3_3_0,2022-04-25T17:13:08.337Z,,,,,,,,,,,,,,,,,,,,,,,,,,,,,,,4250.270000000019,,timeout,,,,,,,,,2,,,,,,,,O,S,I,,189713.09999990463,189711.942,185461.922,185477.89999985695,185478.574,189728.844,,,
Judgement,html.Screen,1_3_3_1,2022-04-25T17:13:08.757Z,,,,,,,,,,,,,,,,,,,,,,,,,,,,true,2,,403.7559999046207,,response,,,,,,,,,2,,2,click #choice-2,,,,,O,S,I,,190133.29999995232,190132.59999990463,189711.942,189713.39999985695,189728.844,190145.193,,,
Trial,flow.Sequence,1_3_3,2022-04-25T17:13:08.758Z,,,,,,,,,,,,,,,,,,,,,,,,,,,,,,,4654.025999904639,,completion,,,,,,,,,2,,,,,,,,O,S,I,,190133.5,190132.59999990463,185461.922,185477.89999985695,185478.574,190145.193,,,
Sounds,html.Screen,1_3_4_0,2022-04-25T17:13:13.004Z,,,,,,,,,,,,,,,,,,,,,,,,,,,,,,,4250.094000000012,,timeout,,,,,,,,,1,,,,,,,,S,I,O,,194379.5,194378.661,190128.512,190133.5,190145.193,194395.287,,,
Judgement,html.Screen,1_3_4_1,2022-04-25T17:13:13.509Z,,,,,,,,,,,,,,,,,,,,,,,,,,,,true,1,,489.3129999046214,,response,,,,,,,,,1,,1,click #choice-1,,,,,S,I,O,,194885.39999985695,194884.59999990463,194378.661,194379.79999995232,194395.287,194895.158,,,
Trial,flow.Sequence,1_3_4,2022-04-25T17:13:13.510Z,,,,,,,,,,,,,,,,,,,,,,,,,,,,,,,4739.406999904633,,completion,,,,,,,,,1,,,,,,,,S,I,O,,194885.59999990463,194884.59999990463,190128.512,190133.5,190145.193,194895.158,,,
Sounds,html.Screen,1_3_5_0,2022-04-25T17:13:17.753Z,,,,,,,,,,,,,,,,,,,,,,,,,,,,,,,4249.964000000007,,timeout,,,,,,,,,1,,,,,,,,S,O,I,,199128.89999985695,199128.459,194878.462,194885.59999990463,194895.158,199145.122,,,
Judgement,html.Screen,1_3_5_1,2022-04-25T17:13:18.510Z,,,,,,,,,,,,,,,,,,,,,,,,,,,,true,1,,739.5779998092621,,response,,,,,,,,,1,,1,click #choice-1,,,,,S,O,I,,199885.5,199884.69999980927,199128.459,199129,199145.122,199945.118,,,
Trial,flow.Sequence,1_3_5,2022-04-25T17:13:18.510Z,,,,,,,,,,,,,,,,,,,,,,,,,,,,,,,4989.541999809269,,completion,,,,,,,,,1,,,,,,,,S,O,I,,199885.59999990463,199884.69999980927,194878.462,194885.59999990463,194895.158,199945.118,,,
Task,flow.Loop,1_3,2022-04-25T17:13:18.513Z,,,,,,,,,,,,,,,,,,,,,,,,,,,,,,,29639.360999809258,,completion,,,1,,,,,,,,,,,,,,,,,,199889.09999990463,199884.69999980927,170228.687,170229.29999995232,170245.339,199945.118,,,
Trap,html.Screen,1_4,2022-04-25T17:13:18.569Z,,,,,,,,,,,,,,,,,,,,,,,,,,,,,,,NaN,,skipped,,,,,,,,,,,,,,,,,,,,,199944.69999980927,199884.69999980927,,199944.5,,199945.118,,,
Thanks,html.Screen,1_5,2022-04-25T17:13:23.317Z,,,,,,,,,,,,,,,,,,,,,,,,,,,,,,,4747.481999904645,,response,,,,,,,,,,,continue,click button,,,,,,,,,204693.29999995232,204692.59999990463,199878.658,199944.79999995232,199945.118,210811.698,,,
Headphone screening,flow.Sequence,1,2022-04-25T17:13:23.317Z,,,,,,,,,,,,,,,,,,,,,,,,,,,,,,,111913.10199990463,,completion,,,,,,,,,,,,,,,,,,,,,204693.39999985695,204692.59999990463,92395.948,92445.69999980927,92779.498,210811.698,,,
Instructions,html.Page,2_0,2022-04-25T17:13:51.513Z,,,,,,,,,,,,,,,,,,,,,,,,,,,,,,,22077.40199990463,,form submission,,,,,,,,,,,,,,,,,,,,,232889.29999995232,232889.09999990463,210544.99,210798.5,210811.698,232944.943,,,
Holding screen,html.Screen,2_1_0_0,2022-04-25T17:14:01.570Z,,,,,,,,,,,,,,,,,,,,,,,,,,,,,,,10249.882000000012,,timeout,,,,,,,,,,,,,,,,,,,,,242945.89999985695,242928.217,232861.529,232889.5,232944.943,243194.825,,,
screen,html.Screen,2_1_0_1_0,2022-04-25T17:14:03.816Z,,,,,,,,,,,,,,,,,53,,,,,,,,,,,,,,1985.9749999523046,,response,,,,99,,,,,,,Space,keypress(Space),,,,,,,,When -- ----- -- ------ - ------- --- ----------<br>------------- ------ ------ ---- ---- ------- ----- -- ----<br>-------- ------- -- ---------- --- - --- ----- ----- ----<br>---- --- --- ----- --- ---- ---- ------- ----- ---- -------<br>--- --- -- ----- -- --- ---- -- --- ---- -- ------ ------<br>--- ----- -- ----,245192.09999990463,245180.79999995232,242928.217,242946.19999980927,243194.825,245194.794,,0,When
screen,html.Screen,2_1_0_1_1,2022-04-25T17:14:04.341Z,,,,,,,,,,,,,,,,,53,,,,,,,,,,,,,,521.9059998092707,,response,,,,99,,,,,,,Space,keypress(Space),,,,,,,,---- it ----- -- ------ - ------- --- ----------<br>------------- ------ ------ ---- ---- ------- ----- -- ----<br>-------- ------- -- ---------- --- - --- ----- ----- ----<br>---- --- --- ----- --- ---- ---- ------- ----- ---- -------<br>--- --- -- ----- -- --- ---- -- --- ---- -- ------ ------<br>--- ----- -- ----,245717.09999990463,245716.69999980927,245178.024,245192.09999990463,245194.794,245728.097,,1,it
screen,html.Screen,2_1_0_1_2,2022-04-25T17:14:04.821Z,,,,,,,,,,,,,,,,,53,,,,,,,,,,,,,,468.6029998092563,,response,,,,99,,,,,,,Space,keypress(Space),,,,,,,,---- -- comes -- ------ - ------- --- ----------<br>------------- ------ ------ ---- ---- ------- ----- -- ----<br>-------- ------- -- ---------- --- - --- ----- ----- ----<br>---- --- --- ----- --- ---- ---- ------- ----- ---- -------<br>--- --- -- ----- -- --- ---- -- --- ---- -- ------ ------<br>--- ----- -- ----,246197.09999990463,246196.69999980927,245711.392,245717.19999980927,245728.097,246211.423,,2,comes
screen,html.Screen,2_1_0_1_3,2022-04-25T17:14:05.269Z,,,,,,,,,,,,,,,,,53,,,,,,,,,,,,,,433.1769999046228,,response,,,,99,,,,,,,Space,keypress(Space),,,,,,,,---- -- ----- to ------ - ------- --- ----------<br>------------- ------ ------ ---- ---- ------- ----- -- ----<br>-------- ------- -- ---------- --- - --- ----- ----- ----<br>---- --- --- ----- --- ---- ---- ------- ----- ---- -------<br>--- --- -- ----- -- --- ---- -- --- ---- -- ------ ------<br>--- ----- -- ----,246645.19999980927,246644.59999990463,246194.739,246197.19999980927,246211.423,246661.424,,3,to
screen,html.Screen,2_1_0_1_4,2022-04-25T17:14:05.813Z,,,,,,,,,,,,,,,,,53,,,,,,,,,,,,,,527.1759999046335,,response,,,,99,,,,,,,Space,keypress(Space),,,,,,,,---- -- ----- -- having - ------- --- ----------<br>------------- ------ ------ ---- ---- ------- ----- -- ----<br>-------- ------- -- ---------- --- - --- ----- ----- ----<br>---- --- --- ----- --- ---- ---- ------- ----- ---- -------<br>--- --- -- ----- -- --- ---- -- --- ---- -- ------ ------<br>--- ----- -- ----,247189,247188.59999990463,246644.719,246645.19999980927,246661.424,247194.715,,4,having
screen,html.Screen,2_1_0_1_5,2022-04-25T17:14:06.239Z,,,,,,,,,,,,,,,,,53,,,,,,,,,,,,,,418.7850000000035,,response,,,,99,,,,,,,Space,keypress(Space),,,,,,,,---- -- ----- -- ------ a ------- --- ----------<br>------------- ------ ------ ---- ---- ------- ----- -- ----<br>-------- ------- -- ---------- --- - --- ----- ----- ----<br>---- --- --- ----- --- ---- ---- ------- ----- ---- -------<br>--- --- -- ----- -- --- ---- -- --- ---- -- ------ ------<br>--- ----- -- ----,247614.5,247613.5,247178.057,247189.09999990463,247194.715,247628.163,,5,a
screen,html.Screen,2_1_0_1_6,2022-04-25T17:14:06.829Z,,,,,,,,,,,,,,,,,53,,,,,,,,,,,,,,576.2369998569484,,response,,,,99,,,,,,,Space,keypress(Space),,,,,,,,---- -- ----- -- ------ - lasting --- ----------<br>------------- ------ ------ ---- ---- ------- ----- -- ----<br>-------- ------- -- ---------- --- - --- ----- ----- ----<br>---- --- --- ----- --- ---- ---- ------- ----- ---- -------<br>--- --- -- ----- -- --- ---- -- --- ---- -- ------ ------<br>--- ----- -- ----,248204.79999995232,248204.39999985695,247611.351,247614.79999995232,247628.163,248211.371,,6,lasting
screen,html.Screen,2_1_0_1_7,2022-04-25T17:14:07.445Z,,,,,,,,,,,,,,,,,53,,,,,,,,,,,,,,609.0289998569351,,response,,,,99,,,,,,,Space,keypress(Space),,,,,,,,---- -- ----- -- ------ - ------- and ----------<br>------------- ------ ------ ---- ---- ------- ----- -- ----<br>-------- ------- -- ---------- --- - --- ----- ----- ----<br>---- --- --- ----- --- ---- ---- ------- ----- ---- -------<br>--- --- -- ----- -- --- ---- -- --- ---- -- ------ ------<br>--- ----- -- ----,248820.79999995232,248820.39999985695,248194.782,248205,248211.371,248828.126,,7,and
screen,html.Screen,2_1_0_1_8,2022-04-25T17:14:08.133Z,,,,,,,,,,,,,,,,,53,,,,,,,,,,,,,,680.2739998569596,,response,,,,99,,,,,,,Space,keypress(Space),,,,,,,,---- -- ----- -- ------ - ------- --- fulfilling<br>------------- ------ ------ ---- ---- ------- ----- -- ----<br>-------- ------- -- ---------- --- - --- ----- ----- ----<br>---- --- --- ----- --- ---- ---- ------- ----- ---- -------<br>--- --- -- ----- -- --- ---- -- --- ---- -- ------ ------<br>--- ----- -- ----,249508.79999995232,249508.39999985695,248811.355,248820.89999985695,248828.126,249511.39,,8,fulfilling
screen,html.Screen,2_1_0_1_9,2022-04-25T17:14:08.949Z,,,,,,,,,,,,,,,,,53,,,,,,,,,,,,,,813.2099999046186,,response,,,,99,,,,,,,Space,keypress(Space),,,,,,,,"---- -- ----- -- ------ - ------- --- ----------<br>relationship, ------ ------ ---- ---- ------- ----- -- ----<br>-------- ------- -- ---------- --- - --- ----- ----- ----<br>---- --- --- ----- --- ---- ---- ------- ----- ---- -------<br>--- --- -- ----- -- --- ---- -- --- ---- -- ------ ------<br>--- ----- -- ----",250325.09999990463,250324.59999990463,249494.909,249508.89999985695,249511.39,250328.012,,9,"relationship,"
screen,html.Screen,2_1_0_1_10,2022-04-25T17:14:09.524Z,,,,,,,,,,,,,,,,,53,,,,,,,,,,,,,,572.387999856961,,response,,,,99,,,,,,,Space,keypress(Space),,,,,,,,---- -- ----- -- ------ - ------- --- ----------<br>------------- common ------ ---- ---- ------- ----- -- ----<br>-------- ------- -- ---------- --- - --- ----- ----- ----<br>---- --- --- ----- --- ---- ---- ------- ----- ---- -------<br>--- --- -- ----- -- --- ---- -- --- ---- -- ------ ------<br>--- ----- -- ----,250900.89999985695,250900.39999985695,250311.31,250325.19999980927,250328.012,250911.363,,10,common
screen,html.Screen,2_1_0_1_11,2022-04-25T17:14:10.053Z,,,,,,,,,,,,,,,,,53,,,,,,,,,,,,,,517.1369999999879,,response,,,,99,,,,,,,Space,keypress(Space),,,,,,,,---- -- ----- -- ------ - ------- --- ----------<br>------------- ------ wisdom ---- ---- ------- ----- -- ----<br>-------- ------- -- ---------- --- - --- ----- ----- ----<br>---- --- --- ----- --- ---- ---- ------- ----- ---- -------<br>--- --- -- ----- -- --- ---- -- --- ---- -- ------ ------<br>--- ----- -- ----,251429,251428.5,250894.677,250900.89999985695,250911.363,251444.716,,11,wisdom
screen,html.Screen,2_1_0_1_12,2022-04-25T17:14:10.772Z,,,,,,,,,,,,,,,,,53,,,,,,,,,,,,,,703.5839999523305,,response,,,,99,,,,,,,Space,keypress(Space),,,,,,,,---- -- ----- -- ------ - ------- --- ----------<br>------------- ------ ------ says ---- ------- ----- -- ----<br>-------- ------- -- ---------- --- - --- ----- ----- ----<br>---- --- --- ----- --- ---- ---- ------- ----- ---- -------<br>--- --- -- ----- -- --- ---- -- --- ---- -- ------ ------<br>--- ----- -- ----,252148.69999980927,252148.29999995232,251427.977,251429.09999990463,251444.716,252161.592,,12,says
screen,html.Screen,2_1_0_1_13,2022-04-25T17:14:11.196Z,,,,,,,,,,,,,,,,,53,,,,,,,,,,,,,,410.80799985694466,,response,,,,99,,,,,,,Space,keypress(Space),,,,,,,,---- -- ----- -- ------ - ------- --- ----------<br>------------- ------ ------ ---- that ------- ----- -- ----<br>-------- ------- -- ---------- --- - --- ----- ----- ----<br>---- --- --- ----- --- ---- ---- ------- ----- ---- -------<br>--- --- -- ----- -- --- ---- -- --- ---- -- ------ ------<br>--- ----- -- ----,252572.79999995232,252572.39999985695,252144.66,252148.79999995232,252161.592,252578.012,,13,that
screen,html.Screen,2_1_0_1_14,2022-04-25T17:14:11.820Z,,,,,,,,,,,,,,,,,53,,,,,,,,,,,,,,618.387999856961,,response,,,,99,,,,,,,Space,keypress(Space),,,,,,,,---- -- ----- -- ------ - ------- --- ----------<br>------------- ------ ------ ---- ---- feeling ----- -- ----<br>-------- ------- -- ---------- --- - --- ----- ----- ----<br>---- --- --- ----- --- ---- ---- ------- ----- ---- -------<br>--- --- -- ----- -- --- ---- -- --- ---- -- ------ ------<br>--- ----- -- ----,253196.79999995232,253196.39999985695,252561.572,252573,252578.012,253211.329,,14,feeling
screen,html.Screen,2_1_0_1_15,2022-04-25T17:14:12.390Z,,,,,,,,,,,,,,,,,53,,,,,,,,,,,,,,554.070999856951,,response,,,,99,,,,,,,Space,keypress(Space),,,,,,,,---- -- ----- -- ------ - ------- --- ----------<br>------------- ------ ------ ---- ---- ------- close -- ----<br>-------- ------- -- ---------- --- - --- ----- ----- ----<br>---- --- --- ----- --- ---- ---- ------- ----- ---- -------<br>--- --- -- ----- -- --- ---- -- --- ---- -- ------ ------<br>--- ----- -- ----,253766.29999995232,253765.39999985695,253194.625,253196.89999985695,253211.329,253778.173,,15,close
screen,html.Screen,2_1_0_1_16,2022-04-25T17:14:12.758Z,,,,,,,,,,,,,,,,,53,,,,,,,,,,,,,,355.1269999523065,,response,,,,99,,,,,,,Space,keypress(Space),,,,,,,,---- -- ----- -- ------ - ------- --- ----------<br>------------- ------ ------ ---- ---- ------- ----- to ----<br>-------- ------- -- ---------- --- - --- ----- ----- ----<br>---- --- --- ----- --- ---- ---- ------- ----- ---- -------<br>--- --- -- ----- -- --- ---- -- --- ---- -- ------ ------<br>--- ----- -- ----,254134.29999995232,254133.29999995232,253761.332,253766.59999990463,253778.173,254144.695,,16,to
screen,html.Screen,2_1_0_1_17,2022-04-25T17:14:13.364Z,,,,,,,,,,,,,,,,,53,,,,,,,,,,,,,,595.6049999523093,,response,,,,99,,,,,,,Space,keypress(Space),,,,,,,,---- -- ----- -- ------ - ------- --- ----------<br>------------- ------ ------ ---- ---- ------- ----- -- your<br>-------- ------- -- ---------- --- - --- ----- ----- ----<br>---- --- --- ----- --- ---- ---- ------- ----- ---- -------<br>--- --- -- ----- -- --- ---- -- --- ---- -- ------ ------<br>--- ----- -- ----,254740.89999985695,254740.29999995232,254128.104,254134.5,254144.695,254744.64,,17,your
screen,html.Screen,2_1_0_1_18,2022-04-25T17:14:14.068Z,,,,,,,,,,,,,,,,,53,,,,,,,,,,,,,,699.7599998569349,,response,,,,99,,,,,,,Space,keypress(Space),,,,,,,,---- -- ----- -- ------ - ------- --- ----------<br>------------- ------ ------ ---- ---- ------- ----- -- ----<br>romantic ------- -- ---------- --- - --- ----- ----- ----<br>---- --- --- ----- --- ---- ---- ------- ----- ---- -------<br>--- --- -- ----- -- --- ---- -- --- ---- -- ------ ------<br>--- ----- -- ----,255444.89999985695,255444.39999985695,254727.969,254741,254744.64,255461.401,,18,romantic
screen,html.Screen,2_1_0_1_19,2022-04-25T17:14:14.812Z,,,,,,,,,,,,,,,,,53,,,,,,,,,,,,,,726.8989999523037,,response,,,,99,,,,,,,Space,keypress(Space),,,,,,,,---- -- ----- -- ------ - ------- --- ----------<br>------------- ------ ------ ---- ---- ------- ----- -- ----<br>-------- partner -- ---------- --- - --- ----- ----- ----<br>---- --- --- ----- --- ---- ---- ------- ----- ---- -------<br>--- --- -- ----- -- --- ---- -- --- ---- -- ------ ------<br>--- ----- -- ----,256188.69999980927,256188.29999995232,255444.617,255445,255461.401,256194.624,,19,partner
screen,html.Screen,2_1_0_1_20,2022-04-25T17:14:15.213Z,,,,,,,,,,,,,,,,,53,,,,,,,,,,,,,,394.1759999523056,,response,,,,99,,,,,,,Space,keypress(Space),,,,,,,,---- -- ----- -- ------ - ------- --- ----------<br>------------- ------ ------ ---- ---- ------- ----- -- ----<br>-------- ------- is ---------- --- - --- ----- ----- ----<br>---- --- --- ----- --- ---- ---- ------- ----- ---- -------<br>--- --- -- ----- -- --- ---- -- --- ---- -- ------ ------<br>--- ----- -- ----,256589.39999985695,256588.79999995232,256177.936,256188.89999985695,256194.624,256594.726,,20,is
screen,html.Screen,2_1_0_1_21,2022-04-25T17:14:15.884Z,,,,,,,,,,,,,,,,,53,,,,,,,,,,,,,,665.5739999523212,,response,,,,99,,,,,,,Space,keypress(Space),,,,,,,,---- -- ----- -- ------ - ------- --- ----------<br>------------- ------ ------ ---- ---- ------- ----- -- ----<br>-------- ------- -- paramount. --- - --- ----- ----- ----<br>---- --- --- ----- --- ---- ---- ------- ----- ---- -------<br>--- --- -- ----- -- --- ---- -- --- ---- -- ------ ------<br>--- ----- -- ----,257260.69999980927,257260.29999995232,256577.939,256589.69999980927,256594.726,257286.958,,21,paramount.
screen,html.Screen,2_1_0_1_22,2022-04-25T17:14:16.548Z,,,,,,,,,,,,,,,,,53,,,,,,,,,,,,,,637.4419998569356,,response,,,,99,,,,,,,Space,keypress(Space),,,,,,,,---- -- ----- -- ------ - ------- --- ----------<br>------------- ------ ------ ---- ---- ------- ----- -- ----<br>-------- ------- -- ---------- But - --- ----- ----- ----<br>---- --- --- ----- --- ---- ---- ------- ----- ---- -------<br>--- --- -- ----- -- --- ---- -- --- ---- -- ------ ------<br>--- ----- -- ----,257924.89999985695,257924.39999985695,257244.62,257260.69999980927,257286.958,257994.632,,22,But
screen,html.Screen,2_1_0_1_23,2022-04-25T17:14:16.964Z,,,,,,,,,,,,,,,,,53,,,,,,,,,,,,,,345.7679998569365,,response,,,,99,,,,,,,Space,keypress(Space),,,,,,,,---- -- ----- -- ------ - ------- --- ----------<br>------------- ------ ------ ---- ---- ------- ----- -- ----<br>-------- ------- -- ---------- --- a --- ----- ----- ----<br>---- --- --- ----- --- ---- ---- ------- ----- ---- -------<br>--- --- -- ----- -- --- ---- -- --- ---- -- ------ ------<br>--- ----- -- ----,258340.79999995232,258340.39999985695,257911.269,257924.89999985695,257994.632,258344.639,,23,a
screen,html.Screen,2_1_0_1_24,2022-04-25T17:14:17.324Z,,,,,,,,,,,,,,,,,53,,,,,,,,,,,,,,355.7609998569533,,response,,,,99,,,,,,,Space,keypress(Space),,,,,,,,---- -- ----- -- ------ - ------- --- ----------<br>------------- ------ ------ ---- ---- ------- ----- -- ----<br>-------- ------- -- ---------- --- - new ----- ----- ----<br>---- --- --- ----- --- ---- ---- ------- ----- ---- -------<br>--- --- -- ----- -- --- ---- -- --- ---- -- ------ ------<br>--- ----- -- ----,258700.59999990463,258700.39999985695,258328.068,258341,258344.639,258711.294,,24,new
screen,html.Screen,2_1_0_1_25,2022-04-25T17:14:17.596Z,,,,,,,,,,,,,,,,,53,,,,,,,,,,,,,,261.0059999523219,,response,,,,99,,,,,,,Space,keypress(Space),,,,,,,,---- -- ----- -- ------ - ------- --- ----------<br>------------- ------ ------ ---- ---- ------- ----- -- ----<br>-------- ------- -- ---------- --- - --- study ----- ----<br>---- --- --- ----- --- ---- ---- ------- ----- ---- -------<br>--- --- -- ----- -- --- ---- -- --- ---- -- ------ ------<br>--- ----- -- ----,258972.79999995232,258972.29999995232,258694.595,258700.79999995232,258711.294,258977.989,,25,study
screen,html.Screen,2_1_0_1_26,2022-04-25T17:14:17.949Z,,,,,,,,,,,,,,,,,53,,,,,,,,,,,,,,346.61099990463117,,response,,,,99,,,,,,,Space,keypress(Space),,,,,,,,---- -- ----- -- ------ - ------- --- ----------<br>------------- ------ ------ ---- ---- ------- ----- -- ----<br>-------- ------- -- ---------- --- - --- ----- finds ----<br>---- --- --- ----- --- ---- ---- ------- ----- ---- -------<br>--- --- -- ----- -- --- ---- -- --- ---- -- ------ ------<br>--- ----- -- ----,259325.29999995232,259324.59999990463,258961.291,258973.19999980927,258977.989,259327.96,,26,finds
screen,html.Screen,2_1_0_1_27,2022-04-25T17:14:18.437Z,,,,,,,,,,,,,,,,,53,,,,,,,,,,,,,,484.54000000000815,,response,,,,99,,,,,,,Space,keypress(Space),,,,,,,,---- -- ----- -- ------ - ------- --- ----------<br>------------- ------ ------ ---- ---- ------- ----- -- ----<br>-------- ------- -- ---------- --- - --- ----- ----- that<br>---- --- --- ----- --- ---- ---- ------- ----- ---- -------<br>--- --- -- ----- -- --- ---- -- --- ---- -- ------ ------<br>--- ----- -- ----,259812.89999985695,259812.5,259311.298,259325.29999995232,259327.96,259827.982,,27,that
screen,html.Screen,2_1_0_1_28,2022-04-25T17:14:18.732Z,,,,,,,,,,,,,,,,,53,,,,,,,,,,,,,,280.4179998569598,,response,,,,99,,,,,,,Space,keypress(Space),,,,,,,,---- -- ----- -- ------ - ------- --- ----------<br>------------- ------ ------ ---- ---- ------- ----- -- ----<br>-------- ------- -- ---------- --- - --- ----- ----- ----<br>it's --- --- ----- --- ---- ---- ------- ----- ---- -------<br>--- --- -- ----- -- --- ---- -- --- ---- -- ------ ------<br>--- ----- -- ----,260108.79999995232,260108.39999985695,259811.277,259813.09999990463,259827.982,260111.256,,28,it's
screen,html.Screen,2_1_0_1_29,2022-04-25T17:14:19.189Z,,,,,,,,,,,,,,,,,53,,,,,,,,,,,,,,453.24400000000605,,response,,,,99,,,,,,,Space,keypress(Space),,,,,,,,---- -- ----- -- ------ - ------- --- ----------<br>------------- ------ ------ ---- ---- ------- ----- -- ----<br>-------- ------- -- ---------- --- - --- ----- ----- ----<br>---- not --- ----- --- ---- ---- ------- ----- ---- -------<br>--- --- -- ----- -- --- ---- -- --- ---- -- ------ ------<br>--- ----- -- ----,260564.89999985695,260564.5,260094.596,260108.89999985695,260111.256,260577.955,,29,not
screen,html.Screen,2_1_0_1_30,2022-04-25T17:14:19.845Z,,,,,,,,,,,,,,,,,53,,,,,,,,,,,,,,642.6449999046454,,response,,,,99,,,,,,,Space,keypress(Space),,,,,,,,---- -- ----- -- ------ - ------- --- ----------<br>------------- ------ ------ ---- ---- ------- ----- -- ----<br>-------- ------- -- ---------- --- - --- ----- ----- ----<br>---- --- how ----- --- ---- ---- ------- ----- ---- -------<br>--- --- -- ----- -- --- ---- -- --- ---- -- ------ ------<br>--- ----- -- ----,261221.19999980927,261220.59999990463,260561.275,260565,260577.955,261227.987,,30,how
screen,html.Screen,2_1_0_1_31,2022-04-25T17:14:20.110Z,,,,,,,,,,,,,,,,,53,,,,,,,,,,,,,,257.41299985695514,,response,,,,99,,,,,,,Space,keypress(Space),,,,,,,,---- -- ----- -- ------ - ------- --- ----------<br>------------- ------ ------ ---- ---- ------- ----- -- ----<br>-------- ------- -- ---------- --- - --- ----- ----- ----<br>---- --- --- close --- ---- ---- ------- ----- ---- -------<br>--- --- -- ----- -- --- ---- -- --- ---- -- ------ ------<br>--- ----- -- ----,261486.29999995232,261485.39999985695,261211.257,261221.29999995232,261227.987,261494.862,,31,close
screen,html.Screen,2_1_0_1_32,2022-04-25T17:14:21.212Z,,,,,,,,,,,,,,,,,53,,,,,,,,,,,,,,1093.4379999523226,,response,,,,99,,,,,,,Space,keypress(Space),,,,,,,,---- -- ----- -- ------ - ------- --- ----------<br>------------- ------ ------ ---- ---- ------- ----- -- ----<br>-------- ------- -- ---------- --- - --- ----- ----- ----<br>---- --- --- ----- you ---- ---- ------- ----- ---- -------<br>--- --- -- ----- -- --- ---- -- --- ---- -- ------ ------<br>--- ----- -- ----,262588.7999999523,262588.2999999523,261477.922,261486.59999990463,261494.862,262594.601,,32,you
screen,html.Screen,2_1_0_1_33,2022-04-25T17:14:21.478Z,,,,,,,,,,,,,,,,,53,,,,,,,,,,,,,,258.69899995229207,,response,,,,99,,,,,,,Space,keypress(Space),,,,,,,,---- -- ----- -- ------ - ------- --- ----------<br>------------- ------ ------ ---- ---- ------- ----- -- ----<br>-------- ------- -- ---------- --- - --- ----- ----- ----<br>---- --- --- ----- --- feel ---- ------- ----- ---- -------<br>--- --- -- ----- -- --- ---- -- --- ---- -- ------ ------<br>--- ----- -- ----,262854.39999985695,262853.2999999523,262578.102,262588.89999985695,262594.601,262878.147,,33,feel
screen,html.Screen,2_1_0_1_34,2022-04-25T17:14:21.844Z,,,,,,,,,,,,,,,,,53,,,,,,,,,,,,,,342.1529999523191,,response,,,,99,,,,,,,Space,keypress(Space),,,,,,,,---- -- ----- -- ------ - ------- --- ----------<br>------------- ------ ------ ---- ---- ------- ----- -- ----<br>-------- ------- -- ---------- --- - --- ----- ----- ----<br>---- --- --- ----- --- ---- that ------- ----- ---- -------<br>--- --- -- ----- -- --- ---- -- --- ---- -- ------ ------<br>--- ----- -- ----,263220.69999980927,263220.2999999523,262861.269,262870.59999990463,262878.147,263227.975,,34,that
screen,html.Screen,2_1_0_1_35,2022-04-25T17:14:22.197Z,,,,,,,,,,,,,,,,,53,,,,,,,,,,,,,,344.62499990465585,,response,,,,99,,,,,,,Space,keypress(Space),,,,,,,,---- -- ----- -- ------ - ------- --- ----------<br>------------- ------ ------ ---- ---- ------- ----- -- ----<br>-------- ------- -- ---------- --- - --- ----- ----- ----<br>---- --- --- ----- --- ---- ---- matters ----- ---- -------<br>--- --- -- ----- -- --- ---- -- --- ---- -- ------ ------<br>--- ----- -- ----,263573.2999999523,263572.59999990463,263211.483,263220.7999999523,263227.975,263577.923,,35,matters
screen,html.Screen,2_1_0_1_36,2022-04-25T17:14:22.621Z,,,,,,,,,,,,,,,,,53,,,,,,,,,,,,,,418.6769999046228,,response,,,,99,,,,,,,Space,keypress(Space),,,,,,,,"---- -- ----- -- ------ - ------- --- ----------<br>------------- ------ ------ ---- ---- ------- ----- -- ----<br>-------- ------- -- ---------- --- - --- ----- ----- ----<br>---- --- --- ----- --- ---- ---- ------- most, ---- -------<br>--- --- -- ----- -- --- ---- -- --- ---- -- ------ ------<br>--- ----- -- ----",263997.09999990463,263996.59999990463,263561.407,263573.39999985695,263577.923,264011.283,,36,"most,"
screen,html.Screen,2_1_0_1_37,2022-04-25T17:14:23.150Z,,,,,,,,,,,,,,,,,53,,,,,,,,,,,,,,514.0169999523205,,response,,,,99,,,,,,,Space,keypress(Space),,,,,,,,---- -- ----- -- ------ - ------- --- ----------<br>------------- ------ ------ ---- ---- ------- ----- -- ----<br>-------- ------- -- ---------- --- - --- ----- ----- ----<br>---- --- --- ----- --- ---- ---- ------- ----- it's -------<br>--- --- -- ----- -- --- ---- -- --- ---- -- ------ ------<br>--- ----- -- ----,264526.2999999523,264525.2999999523,263994.635,263997.19999980927,264011.283,264547.739,,37,it's
screen,html.Screen,2_1_0_1_38,2022-04-25T17:14:23.558Z,,,,,,,,,,,,,,,,,53,,,,,,,,,,,,,,385.5609999523149,,response,,,,99,,,,,,,Space,keypress(Space),,,,,,,,---- -- ----- -- ------ - ------- --- ----------<br>------------- ------ ------ ---- ---- ------- ----- -- ----<br>-------- ------- -- ---------- --- - --- ----- ----- ----<br>---- --- --- ----- --- ---- ---- ------- ----- ---- whether<br>--- --- -- ----- -- --- ---- -- --- ---- -- ------ ------<br>--- ----- -- ----,264934.2999999523,264933.2999999523,264511.246,264526.59999990463,264547.739,264944.723,,38,whether
screen,html.Screen,2_1_0_1_39,2022-04-25T17:14:23.925Z,,,,,,,,,,,,,,,,,53,,,,,,,,,,,,,,355.77700000000186,,response,,,,99,,,,,,,Space,keypress(Space),,,,,,,,---- -- ----- -- ------ - ------- --- ----------<br>------------- ------ ------ ---- ---- ------- ----- -- ----<br>-------- ------- -- ---------- --- - --- ----- ----- ----<br>---- --- --- ----- --- ---- ---- ------- ----- ---- -------<br>you --- -- ----- -- --- ---- -- --- ---- -- ------ ------<br>--- ----- -- ----,265301.09999990463,265300.5,264928.156,264934.59999990463,264944.723,265311.296,,39,you
screen,html.Screen,2_1_0_1_40,2022-04-25T17:14:24.277Z,,,,,,,,,,,,,,,,,53,,,,,,,,,,,,,,341.5039999523433,,response,,,,99,,,,,,,Space,keypress(Space),,,,,,,,---- -- ----- -- ------ - ------- --- ----------<br>------------- ------ ------ ---- ---- ------- ----- -- ----<br>-------- ------- -- ---------- --- - --- ----- ----- ----<br>---- --- --- ----- --- ---- ---- ------- ----- ---- -------<br>--- are -- ----- -- --- ---- -- --- ---- -- ------ ------<br>--- ----- -- ----,265653.2999999523,265652.7999999523,265294.635,265301.09999990463,265311.296,265661.25,,40,are
screen,html.Screen,2_1_0_1_41,2022-04-25T17:14:24.653Z,,,,,,,,,,,,,,,,,53,,,,,,,,,,,,,,367.64999985694885,,response,,,,99,,,,,,,Space,keypress(Space),,,,,,,,---- -- ----- -- ------ - ------- --- ----------<br>------------- ------ ------ ---- ---- ------- ----- -- ----<br>-------- ------- -- ---------- --- - --- ----- ----- ----<br>---- --- --- ----- --- ---- ---- ------- ----- ---- -------<br>--- --- as ----- -- --- ---- -- --- ---- -- ------ ------<br>--- ----- -- ----,266029.59999990463,266028.89999985695,265644.585,265653.5,265661.25,266044.64,,41,as
screen,html.Screen,2_1_0_1_42,2022-04-25T17:14:25.253Z,,,,,,,,,,,,,,,,,53,,,,,,,,,,,,,,583.9599999046186,,response,,,,99,,,,,,,Space,keypress(Space),,,,,,,,---- -- ----- -- ------ - ------- --- ----------<br>------------- ------ ------ ---- ---- ------- ----- -- ----<br>-------- ------- -- ---------- --- - --- ----- ----- ----<br>---- --- --- ----- --- ---- ---- ------- ----- ---- -------<br>--- --- -- close -- --- ---- -- --- ---- -- ------ ------<br>--- ----- -- ----,266629.09999990463,266628.59999990463,266027.947,266029.69999980927,266044.64,266644.605,,42,close
screen,html.Screen,2_1_0_1_43,2022-04-25T17:14:25.797Z,,,,,,,,,,,,,,,,,53,,,,,,,,,,,,,,527.9949999046512,,response,,,,99,,,,,,,Space,keypress(Space),,,,,,,,---- -- ----- -- ------ - ------- --- ----------<br>------------- ------ ------ ---- ---- ------- ----- -- ----<br>-------- ------- -- ---------- --- - --- ----- ----- ----<br>---- --- --- ----- --- ---- ---- ------- ----- ---- -------<br>--- --- -- ----- as --- ---- -- --- ---- -- ------ ------<br>--- ----- -- ----,267173.09999990463,267172.59999990463,266627.902,266629.09999990463,266644.605,267177.943,,43,as
screen,html.Screen,2_1_0_1_44,2022-04-25T17:14:26.132Z,,,,,,,,,,,,,,,,,53,,,,,,,,,,,,,,330.45699985692045,,response,,,,99,,,,,,,Space,keypress(Space),,,,,,,,---- -- ----- -- ------ - ------- --- ----------<br>------------- ------ ------ ---- ---- ------- ----- -- ----<br>-------- ------- -- ---------- --- - --- ----- ----- ----<br>---- --- --- ----- --- ---- ---- ------- ----- ---- -------<br>--- --- -- ----- -- you ---- -- --- ---- -- ------ ------<br>--- ----- -- ----,267508.89999985695,267508.39999985695,267161.298,267173.19999980927,267177.943,267511.265,,44,you
screen,html.Screen,2_1_0_1_45,2022-04-25T17:14:26.500Z,,,,,,,,,,,,,,,,,53,,,,,,,,,,,,,,365.1349998569349,,response,,,,99,,,,,,,Space,keypress(Space),,,,,,,,---- -- ----- -- ------ - ------- --- ----------<br>------------- ------ ------ ---- ---- ------- ----- -- ----<br>-------- ------- -- ---------- --- - --- ----- ----- ----<br>---- --- --- ----- --- ---- ---- ------- ----- ---- -------<br>--- --- -- ----- -- --- want -- --- ---- -- ------ ------<br>--- ----- -- ----,267876.69999980927,267876.39999985695,267494.54,267509,267511.265,267905.657,,45,want
screen,html.Screen,2_1_0_1_46,2022-04-25T17:14:26.918Z,,,,,,,,,,,,,,,,,53,,,,,,,,,,,,,,387.64299995230976,,response,,,,99,,,,,,,Space,keypress(Space),,,,,,,,---- -- ----- -- ------ - ------- --- ----------<br>------------- ------ ------ ---- ---- ------- ----- -- ----<br>-------- ------- -- ---------- --- - --- ----- ----- ----<br>---- --- --- ----- --- ---- ---- ------- ----- ---- -------<br>--- --- -- ----- -- --- ---- to --- ---- -- ------ ------<br>--- ----- -- ----,268294.39999985695,268293.2999999523,267861.331,267876.7999999523,267905.657,268311.374,,46,to
screen,html.Screen,2_1_0_1_47,2022-04-25T17:14:27.309Z,,,,,,,,,,,,,,,,,53,,,,,,,,,,,,,,373.1259999999893,,response,,,,99,,,,,,,Space,keypress(Space),,,,,,,,"---- -- ----- -- ------ - ------- --- ----------<br>------------- ------ ------ ---- ---- ------- ----- -- ----<br>-------- ------- -- ---------- --- - --- ----- ----- ----<br>---- --- --- ----- --- ---- ---- ------- ----- ---- -------<br>--- --- -- ----- -- --- ---- -- be, ---- -- ------ ------<br>--- ----- -- ----",268685,268684.5,268294.611,268294.69999980927,268311.374,268694.556,,47,"be,"
screen,html.Screen,2_1_0_1_48,2022-04-25T17:14:27.813Z,,,,,,,,,,,,,,,,,53,,,,,,,,,,,,,,493.9440000000177,,response,,,,99,,,,,,,Space,keypress(Space),,,,,,,,---- -- ----- -- ------ - ------- --- ----------<br>------------- ------ ------ ---- ---- ------- ----- -- ----<br>-------- ------- -- ---------- --- - --- ----- ----- ----<br>---- --- --- ----- --- ---- ---- ------- ----- ---- -------<br>--- --- -- ----- -- --- ---- -- --- even -- ------ ------<br>--- ----- -- ----,269188.89999985695,269188.5,268677.904,268685.09999990463,268694.556,269194.572,,48,even
screen,html.Screen,2_1_0_1_49,2022-04-25T17:14:28.206Z,,,,,,,,,,,,,,,,,53,,,,,,,,,,,,,,386.527999904647,,response,,,,99,,,,,,,Space,keypress(Space),,,,,,,,---- -- ----- -- ------ - ------- --- ----------<br>------------- ------ ------ ---- ---- ------- ----- -- ----<br>-------- ------- -- ---------- --- - --- ----- ----- ----<br>---- --- --- ----- --- ---- ---- ------- ----- ---- -------<br>--- --- -- ----- -- --- ---- -- --- ---- if ------ ------<br>--- ----- -- ----,269582.09999990463,269581.09999990463,269177.907,269189,269194.572,269594.689,,49,if
screen,html.Screen,2_1_0_1_50,2022-04-25T17:14:28.637Z,,,,,,,,,,,,,,,,,53,,,,,,,,,,,,,,417.7109998569358,,response,,,,99,,,,,,,Space,keypress(Space),,,,,,,,---- -- ----- -- ------ - ------- --- ----------<br>------------- ------ ------ ---- ---- ------- ----- -- ----<br>-------- ------- -- ---------- --- - --- ----- ----- ----<br>---- --- --- ----- --- ---- ---- ------- ----- ---- -------<br>--- --- -- ----- -- --- ---- -- --- ---- -- that's ------<br>--- ----- -- ----,270012.89999985695,270012.39999985695,269577.889,269582.39999985695,269594.689,270027.882,,50,that's
screen,html.Screen,2_1_0_1_51,2022-04-25T17:14:29.112Z,,,,,,,,,,,,,,,,,53,,,,,,,,,,,,,,432.61800000001676,,response,,,,99,,,,,,,Space,keypress(Space),,,,,,,,---- -- ----- -- ------ - ------- --- ----------<br>------------- ------ ------ ---- ---- ------- ----- -- ----<br>-------- ------- -- ---------- --- - --- ----- ----- ----<br>---- --- --- ----- --- ---- ---- ------- ----- ---- -------<br>--- --- -- ----- -- --- ---- -- --- ---- -- ------ really<br>--- ----- -- ----,270488.69999980927,270460.5,270011.267,270013,270027.882,270494.536,,51,really
screen,html.Screen,2_1_0_1_52,2022-04-25T17:14:29.556Z,,,,,,,,,,,,,,,,,53,,,,,,,,,,,,,,437.66399980924325,,response,,,,99,,,,,,,Space,keypress(Space),,,,,,,,---- -- ----- -- ------ - ------- --- ----------<br>------------- ------ ------ ---- ---- ------- ----- -- ----<br>-------- ------- -- ---------- --- - --- ----- ----- ----<br>---- --- --- ----- --- ---- ---- ------- ----- ---- -------<br>--- --- -- ----- -- --- ---- -- --- ---- -- ------ ------<br>not ----- -- ----,270932.69999980927,270932.19999980927,270477.864,270488.7999999523,270494.536,270944.519,,52,not
screen,html.Screen,2_1_0_1_53,2022-04-25T17:14:30.036Z,,,,,,,,,,,,,,,,,53,,,,,,,,,,,,,,467.680999809294,,response,,,,99,,,,,,,Space,keypress(Space),,,,,,,,---- -- ----- -- ------ - ------- --- ----------<br>------------- ------ ------ ---- ---- ------- ----- -- ----<br>-------- ------- -- ---------- --- - --- ----- ----- ----<br>---- --- --- ----- --- ---- ---- ------- ----- ---- -------<br>--- --- -- ----- -- --- ---- -- --- ---- -- ------ ------<br>--- close -- ----,271412.59999990463,271412.19999980927,270927.875,270932.69999980927,270944.519,271427.848,,53,close
screen,html.Screen,2_1_0_1_54,2022-04-25T17:14:30.412Z,,,,,,,,,,,,,,,,,53,,,,,,,,,,,,,,360.351999809267,,response,,,,99,,,,,,,Space,keypress(Space),,,,,,,,---- -- ----- -- ------ - ------- --- ----------<br>------------- ------ ------ ---- ---- ------- ----- -- ----<br>-------- ------- -- ---------- --- - --- ----- ----- ----<br>---- --- --- ----- --- ---- ---- ------- ----- ---- -------<br>--- --- -- ----- -- --- ---- -- --- ---- -- ------ ------<br>--- ----- at ----,271788.7999999523,271788.19999980927,271411.188,271412.59999990463,271427.848,271794.52,,54,at
screen,html.Screen,2_1_0_1_55,2022-04-25T17:14:31.246Z,,,,,,,,,,,,,,,,,53,,,,,,,,,,,,,,826.7799999522977,,response,,,,99,,,,,,,Space,keypress(Space),,,,,,,,---- -- ----- -- ------ - ------- --- ----------<br>------------- ------ ------ ---- ---- ------- ----- -- ----<br>-------- ------- -- ---------- --- - --- ----- ----- ----<br>---- --- --- ----- --- ---- ---- ------- ----- ---- -------<br>--- --- -- ----- -- --- ---- -- --- ---- -- ------ ------<br>--- ----- -- all.,272622.5,272621.2999999523,271777.851,271788.89999985695,271794.52,273144.54,,55,all.
Item 99,flow.Loop,2_1_0_1,2022-04-25T17:14:31.247Z,,,,,,,,,,,,,,,,,,,,,,,,,,,,,,,29426.474999952305,,completion,,,,,B,,,,,,,,,,,silence,,,,,272623.39999985695,272621.2999999523,242928.217,242946.09999990463,243194.825,273144.54,,,
Question 1,html.Screen,2_1_0_2,2022-04-25T17:14:42.668Z,,,,,,,,,,,,,,,,,,,,,,,,,,,,true,FALSE,,10899.559999904654,,response,,,,99,B,,,,,,FALSE,click #choice-2,,,,silence,,,,,284044.89999985695,284044.09999990463,273127.773,272623.59999990463,273144.54,284061.063,,,
Question 2,html.Screen,2_1_0_3,2022-04-25T17:14:48.612Z,,,,,,,,,,,,,,,,,,,,,,,,,,,,true,TRUE,,5926.936999999976,,response,,,,99,B,,,,,,TRUE,click #choice-1,,,,silence,,,,,289988.59999990463,289988,284044.454,284045,284061.063,289994.371,,,
Item 99,flow.Sequence,2_1_0,2022-04-25T17:14:48.612Z,,,,,,,,,,,,,,,,,,,,,,,,,,,,,,,57043.057,,completion,,,,,,,,,,,,,,,,,,,,,289988.7999999523,289988,232861.529,232889.5,232944.943,289994.371,,,
Holding screen,html.Screen,2_1_1_0,2022-04-25T17:14:58.602Z,,,,,,,,,,,,,,,,,,,,,,,,,,,,,,,9999.966000000015,,timeout,,,,,,,,,,,,,,,,,,,,,299978,299977.637,289977.847,289988.7999999523,289994.371,299994.337,,,
screen,html.Screen,2_1_1_1_0,2022-04-25T17:15:00.388Z,,,,,,,,,,,,,,,,,54,,,,,,,,,,,,,,1770.0629998569493,,response,,,,100,,,,,,,Space,keypress(Space),,,,,,,,At --- ---- --- ------ ----- ------- ---- -- --- ------- --<br>------- ---------- ------ -- ----- -- ----- -- ---- ------<br>--- ----- --- --- ------ -------- ----- --- ------ ----- --<br>----- ----- ---------- --- --- ------ ------ ---- -- ------<br>------- --- ------ ----- --- ---- ------- -- ---- --- --<br>------- ------,301764.89999985695,301764.39999985695,299977.637,299978,299994.337,301777.623,,0,At
screen,html.Screen,2_1_1_1_1,2022-04-25T17:15:00.780Z,,,,,,,,,,,,,,,,,54,,,,,,,,,,,,,,378.5769998092437,,response,,,,100,,,,,,,Space,keypress(Space),,,,,,,,-- the ---- --- ------ ----- ------- ---- -- --- ------- --<br>------- ---------- ------ -- ----- -- ----- -- ---- ------<br>--- ----- --- --- ------ -------- ----- --- ------ ----- --<br>----- ----- ---------- --- --- ------ ------ ---- -- ------<br>------- --- ------ ----- --- ---- ------- -- ---- --- --<br>------- ------,302156.69999980927,302156.19999980927,301760.898,301764.89999985695,301777.623,302160.906,,1,the
screen,html.Screen,2_1_1_1_2,2022-04-25T17:15:01.108Z,,,,,,,,,,,,,,,,,54,,,,,,,,,,,,,,323.39399995229905,,response,,,,100,,,,,,,Space,keypress(Space),,,,,,,,-- --- time --- ------ ----- ------- ---- -- --- ------- --<br>------- ---------- ------ -- ----- -- ----- -- ---- ------<br>--- ----- --- --- ------ -------- ----- --- ------ ----- --<br>----- ----- ---------- --- --- ------ ------ ---- -- ------<br>------- --- ------ ----- --- ---- ------- -- ---- --- --<br>------- ------,302484.7999999523,302484.2999999523,302144.27,302156.69999980927,302160.906,302494.332,,2,time
screen,html.Screen,2_1_1_1_3,2022-04-25T17:15:01.596Z,,,,,,,,,,,,,,,,,54,,,,,,,,,,,,,,477.86799980927026,,response,,,,100,,,,,,,Space,keypress(Space),,,,,,,,-- --- ---- the ------ ----- ------- ---- -- --- ------- --<br>------- ---------- ------ -- ----- -- ----- -- ---- ------<br>--- ----- --- --- ------ -------- ----- --- ------ ----- --<br>----- ----- ---------- --- --- ------ ------ ---- -- ------<br>------- --- ------ ----- --- ---- ------- -- ---- --- --<br>------- ------,302972.5,302972.19999980927,302477.634,302484.89999985695,302494.332,302977.582,,3,the
screen,html.Screen,2_1_1_1_4,2022-04-25T17:15:02.180Z,,,,,,,,,,,,,,,,,54,,,,,,,,,,,,,,578.4180000000051,,response,,,,100,,,,,,,Space,keypress(Space),,,,,,,,-- --- ---- --- French ----- ------- ---- -- --- ------- --<br>------- ---------- ------ -- ----- -- ----- -- ---- ------<br>--- ----- --- --- ------ -------- ----- --- ------ ----- --<br>----- ----- ---------- --- --- ------ ------ ---- -- ------<br>------- --- ------ ----- --- ---- ------- -- ---- --- --<br>------- ------,303556.39999985695,303556,302960.945,302972.59999990463,302977.582,303560.935,,4,French
screen,html.Screen,2_1_1_1_5,2022-04-25T17:15:02.652Z,,,,,,,,,,,,,,,,,54,,,,,,,,,,,,,,467.26499980926747,,response,,,,100,,,,,,,Space,keypress(Space),,,,,,,,-- --- ---- --- ------ crown ------- ---- -- --- ------- --<br>------- ---------- ------ -- ----- -- ----- -- ---- ------<br>--- ----- --- --- ------ -------- ----- --- ------ ----- --<br>----- ----- ---------- --- --- ------ ------ ---- -- ------<br>------- --- ------ ----- --- ---- ------- -- ---- --- --<br>------- ------,304028.5,304028.19999980927,303544.262,303556.5,303560.935,304044.251,,5,crown
screen,html.Screen,2_1_1_1_6,2022-04-25T17:15:03.236Z,,,,,,,,,,,,,,,,,54,,,,,,,,,,,,,,567.8489999046433,,response,,,,100,,,,,,,Space,keypress(Space),,,,,,,,-- --- ---- --- ------ ----- secured ---- -- --- ------- --<br>------- ---------- ------ -- ----- -- ----- -- ---- ------<br>--- ----- --- --- ------ -------- ----- --- ------ ----- --<br>----- ----- ---------- --- --- ------ ------ ---- -- ------<br>------- --- ------ ----- --- ---- ------- -- ---- --- --<br>------- ------,304612.5,304612.09999990463,304027.595,304028.59999990463,304044.251,304627.59,,6,secured
screen,html.Screen,2_1_1_1_7,2022-04-25T17:15:03.670Z,,,,,,,,,,,,,,,,,54,,,,,,,,,,,,,,417.6099998092395,,response,,,,100,,,,,,,Space,keypress(Space),,,,,,,,-- --- ---- --- ------ ----- ------- much -- --- ------- --<br>------- ---------- ------ -- ----- -- ----- -- ---- ------<br>--- ----- --- --- ------ -------- ----- --- ------ ----- --<br>----- ----- ---------- --- --- ------ ------ ---- -- ------<br>------- --- ------ ----- --- ---- ------- -- ---- --- --<br>------- ------,305046.2999999523,305045.19999980927,304610.892,304612.59999990463,304627.59,305061.17,,7,much
screen,html.Screen,2_1_1_1_8,2022-04-25T17:15:04.326Z,,,,,,,,,,,,,,,,,54,,,,,,,,,,,,,,639.8300000000163,,response,,,,100,,,,,,,Space,keypress(Space),,,,,,,,-- --- ---- --- ------ ----- ------- ---- of --- ------- --<br>------- ---------- ------ -- ----- -- ----- -- ---- ------<br>--- ----- --- --- ------ -------- ----- --- ------ ----- --<br>----- ----- ---------- --- --- ------ ------ ---- -- ------<br>------- --- ------ ----- --- ---- ------- -- ---- --- --<br>------- ------,305702.2999999523,305701,305044.236,305046.5,305061.17,305711.157,,8,of
screen,html.Screen,2_1_1_1_9,2022-04-25T17:15:04.820Z,,,,,,,,,,,,,,,,,54,,,,,,,,,,,,,,485.0429998092586,,response,,,,100,,,,,,,Space,keypress(Space),,,,,,,,-- --- ---- --- ------ ----- ------- ---- -- its ------- --<br>------- ---------- ------ -- ----- -- ----- -- ---- ------<br>--- ----- --- --- ------ -------- ----- --- ------ ----- --<br>----- ----- ---------- --- --- ------ ------ ---- -- ------<br>------- --- ------ ----- --- ---- ------- -- ---- --- --<br>------- ------,306196.69999980927,306196.19999980927,305694.423,305702.5,305711.157,306210.922,,9,its
screen,html.Screen,2_1_1_1_10,2022-04-25T17:15:05.820Z,,,,,,,,,,,,,,,,,54,,,,,,,,,,,,,,985.3779999522958,,response,,,,100,,,,,,,Space,keypress(Space),,,,,,,,-- --- ---- --- ------ ----- ------- ---- -- --- revenue --<br>------- ---------- ------ -- ----- -- ----- -- ---- ------<br>--- ----- --- --- ------ -------- ----- --- ------ ----- --<br>----- ----- ---------- --- --- ------ ------ ---- -- ------<br>------- --- ------ ----- --- ---- ------- -- ---- --- --<br>------- ------,307196.69999980927,307196.2999999523,306194.473,306196.69999980927,306210.922,307210.89,,10,revenue
screen,html.Screen,2_1_1_1_11,2022-04-25T17:15:06.676Z,,,,,,,,,,,,,,,,,54,,,,,,,,,,,,,,841.3099998092512,,response,,,,100,,,,,,,Space,keypress(Space),,,,,,,,-- --- ---- --- ------ ----- ------- ---- -- --- ------- by<br>------- ---------- ------ -- ----- -- ----- -- ---- ------<br>--- ----- --- --- ------ -------- ----- --- ------ ----- --<br>----- ----- ---------- --- --- ------ ------ ---- -- ------<br>------- --- ------ ----- --- ---- ------- -- ---- --- --<br>------- ------,308052.59999990463,308052.19999980927,307194.203,307196.69999980927,307210.89,308060.883,,11,by
screen,html.Screen,2_1_1_1_12,2022-04-25T17:15:07.022Z,,,,,,,,,,,,,,,,,54,,,,,,,,,,,,,,336.3169998092926,,response,,,,100,,,,,,,Space,keypress(Space),,,,,,,,-- --- ---- --- ------ ----- ------- ---- -- --- ------- --<br>issuing ---------- ------ -- ----- -- ----- -- ---- ------<br>--- ----- --- --- ------ -------- ----- --- ------ ----- --<br>----- ----- ---------- --- --- ------ ------ ---- -- ------<br>------- --- ------ ----- --- ---- ------- -- ---- --- --<br>------- ------,308398.2999999523,308397.19999980927,308044.219,308052.69999980927,308060.883,308411.131,,12,issuing
screen,html.Screen,2_1_1_1_13,2022-04-25T17:15:07.476Z,,,,,,,,,,,,,,,,,54,,,,,,,,,,,,,,440.9689999046386,,response,,,,100,,,,,,,Space,keypress(Space),,,,,,,,-- --- ---- --- ------ ----- ------- ---- -- --- ------- --<br>------- government ------ -- ----- -- ----- -- ---- ------<br>--- ----- --- --- ------ -------- ----- --- ------ ----- --<br>----- ----- ---------- --- --- ------ ------ ---- -- ------<br>------- --- ------ ----- --- ---- ------- -- ---- --- --<br>------- ------,308852.59999990463,308852.09999990463,308394.193,308398.5,308411.131,308860.901,,13,government
screen,html.Screen,2_1_1_1_14,2022-04-25T17:15:08.124Z,,,,,,,,,,,,,,,,,54,,,,,,,,,,,,,,639.3989999523037,,response,,,,100,,,,,,,Space,keypress(Space),,,,,,,,-- --- ---- --- ------ ----- ------- ---- -- --- ------- --<br>------- ---------- bonds. -- ----- -- ----- -- ---- ------<br>--- ----- --- --- ------ -------- ----- --- ------ ----- --<br>----- ----- ---------- --- --- ------ ------ ---- -- ------<br>------- --- ------ ----- --- ---- ------- -- ---- --- --<br>------- ------,309500.69999980927,309500.2999999523,308844.394,308852.69999980927,308860.901,309510.893,,14,bonds.
screen,html.Screen,2_1_1_1_15,2022-04-25T17:15:08.508Z,,,,,,,,,,,,,,,,,54,,,,,,,,,,,,,,373.20699990465073,,response,,,,100,,,,,,,Space,keypress(Space),,,,,,,,-- --- ---- --- ------ ----- ------- ---- -- --- ------- --<br>------- ---------- ------ In ----- -- ----- -- ---- ------<br>--- ----- --- --- ------ -------- ----- --- ------ ----- --<br>----- ----- ---------- --- --- ------ ------ ---- -- ------<br>------- --- ------ ----- --- ---- ------- -- ---- --- --<br>------- ------,309884.5,309884.09999990463,309494.177,309500.7999999523,309510.893,309894.218,,15,In
screen,html.Screen,2_1_1_1_16,2022-04-25T17:15:08.750Z,,,,,,,,,,,,,,,,,54,,,,,,,,,,,,,,230.8819999046391,,response,,,,100,,,,,,,Space,keypress(Space),,,,,,,,"-- --- ---- --- ------ ----- ------- ---- -- --- ------- --<br>------- ---------- ------ -- 1727, -- ----- -- ---- ------<br>--- ----- --- --- ------ -------- ----- --- ------ ----- --<br>----- ----- ---------- --- --- ------ ------ ---- -- ------<br>------- --- ------ ----- --- ---- ------- -- ---- --- --<br>------- ------",310126.09999990463,310125.09999990463,309877.547,309884.5,309894.218,310147.541,,16,"1727,"
screen,html.Screen,2_1_1_1_17,2022-04-25T17:15:11.820Z,,,,,,,,,,,,,,,,,54,,,,,,,,,,,,,,3048.8589998569223,,response,,,,100,,,,,,,Space,keypress(Space),,,,,,,,-- --- ---- --- ------ ----- ------- ---- -- --- ------- --<br>------- ---------- ------ -- ----- in ----- -- ---- ------<br>--- ----- --- --- ------ -------- ----- --- ------ ----- --<br>----- ----- ---------- --- --- ------ ------ ---- -- ------<br>------- --- ------ ----- --- ---- ------- -- ---- --- --<br>------- ------,313196.89999985695,313196.39999985695,310111.099,310126.39999985695,310147.541,313210.862,,17,in
screen,html.Screen,2_1_1_1_18,2022-04-25T17:15:12.220Z,,,,,,,,,,,,,,,,,54,,,,,,,,,,,,,,385.3379998092423,,response,,,,100,,,,,,,Space,keypress(Space),,,,,,,,-- --- ---- --- ------ ----- ------- ---- -- --- ------- --<br>------- ---------- ------ -- ----- -- order -- ---- ------<br>--- ----- --- --- ------ -------- ----- --- ------ ----- --<br>----- ----- ---------- --- --- ------ ------ ---- -- ------<br>------- --- ------ ----- --- ---- ------- -- ---- --- --<br>------- ------,313596.59999990463,313596.19999980927,313194.319,313197,313210.862,313611.1,,18,order
screen,html.Screen,2_1_1_1_19,2022-04-25T17:15:12.684Z,,,,,,,,,,,,,,,,,54,,,,,,,,,,,,,,449.19999995233957,,response,,,,100,,,,,,,Space,keypress(Space),,,,,,,,-- --- ---- --- ------ ----- ------- ---- -- --- ------- --<br>------- ---------- ------ -- ----- -- ----- to ---- ------<br>--- ----- --- --- ------ -------- ----- --- ------ ----- --<br>----- ----- ---------- --- --- ------ ------ ---- -- ------<br>------- --- ------ ----- --- ---- ------- -- ---- --- --<br>------- ------,314060.7999999523,314060.2999999523,313594.185,313596.69999980927,313611.1,314077.55,,19,to
screen,html.Screen,2_1_1_1_20,2022-04-25T17:15:13.261Z,,,,,,,,,,,,,,,,,54,,,,,,,,,,,,,,559.2499999523279,,response,,,,100,,,,,,,Space,keypress(Space),,,,,,,,-- --- ---- --- ------ ----- ------- ---- -- --- ------- --<br>------- ---------- ------ -- ----- -- ----- -- save ------<br>--- ----- --- --- ------ -------- ----- --- ------ ----- --<br>----- ----- ---------- --- --- ------ ------ ---- -- ------<br>------- --- ------ ----- --- ---- ------- -- ---- --- --<br>------- ------,314638,314636.7999999523,314061.02,314060.7999999523,314077.55,314644.27,,20,save
screen,html.Screen,2_1_1_1_21,2022-04-25T17:15:14.244Z,,,,,,,,,,,,,,,,,54,,,,,,,,,,,,,,976.0299999522977,,response,,,,100,,,,,,,Space,keypress(Space),,,,,,,,"-- --- ---- --- ------ ----- ------- ---- -- --- ------- --<br>------- ---------- ------ -- ----- -- ----- -- ---- money,<br>--- ----- --- --- ------ -------- ----- --- ------ ----- --<br>----- ----- ---------- --- --- ------ ------ ---- -- ------<br>------- --- ------ ----- --- ---- ------- -- ---- --- --<br>------- ------",315620.69999980927,315620.2999999523,314627.483,314638.2999999523,314644.27,315627.533,,21,"money,"
screen,html.Screen,2_1_1_1_22,2022-04-25T17:15:14.638Z,,,,,,,,,,,,,,,,,54,,,,,,,,,,,,,,385.4670000000042,,response,,,,100,,,,,,,Space,keypress(Space),,,,,,,,-- --- ---- --- ------ ----- ------- ---- -- --- ------- --<br>------- ---------- ------ -- ----- -- ----- -- ---- ------<br>the ----- --- --- ------ -------- ----- --- ------ ----- --<br>----- ----- ---------- --- --- ------ ------ ---- -- ------<br>------- --- ------ ----- --- ---- ------- -- ---- --- --<br>------- ------,316014,316013,315611.031,315620.7999999523,315627.533,316027.747,,22,the
screen,html.Screen,2_1_1_1_23,2022-04-25T17:15:16.076Z,,,,,,,,,,,,,,,,,54,,,,,,,,,,,,,,1424.5529999523424,,response,,,,100,,,,,,,Space,keypress(Space),,,,,,,,-- --- ---- --- ------ ----- ------- ---- -- --- ------- --<br>------- ---------- ------ -- ----- -- ----- -- ---- ------<br>--- state --- --- ------ -------- ----- --- ------ ----- --<br>----- ----- ---------- --- --- ------ ------ ---- -- ------<br>------- --- ------ ----- --- ---- ------- -- ---- --- --<br>------- ------,317452.7999999523,317452.2999999523,316010.878,316014.2999999523,316027.747,317460.854,,23,state
screen,html.Screen,2_1_1_1_24,2022-04-25T17:15:16.572Z,,,,,,,,,,,,,,,,,54,,,,,,,,,,,,,,487.4459999523242,,response,,,,100,,,,,,,Space,keypress(Space),,,,,,,,-- --- ---- --- ------ ----- ------- ---- -- --- ------- --<br>------- ---------- ------ -- ----- -- ----- -- ---- ------<br>--- ----- cut --- ------ -------- ----- --- ------ ----- --<br>----- ----- ---------- --- --- ------ ------ ---- -- ------<br>------- --- ------ ----- --- ---- ------- -- ---- --- --<br>------- ------,317948.69999980927,317948.2999999523,317444.335,317453,317460.854,317960.801,,24,cut
screen,html.Screen,2_1_1_1_25,2022-04-25T17:15:16.892Z,,,,,,,,,,,,,,,,,54,,,,,,,,,,,,,,307.3989998092875,,response,,,,100,,,,,,,Space,keypress(Space),,,,,,,,-- --- ---- --- ------ ----- ------- ---- -- --- ------- --<br>------- ---------- ------ -- ----- -- ----- -- ---- ------<br>--- ----- --- the ------ -------- ----- --- ------ ----- --<br>----- ----- ---------- --- --- ------ ------ ---- -- ------<br>------- --- ------ ----- --- ---- ------- -- ---- --- --<br>------- ------,318268.59999990463,318268.19999980927,317944.123,317948.7999999523,317960.801,318277.512,,25,the
screen,html.Screen,2_1_1_1_26,2022-04-25T17:15:17.268Z,,,,,,,,,,,,,,,,,54,,,,,,,,,,,,,,366.7879999523284,,response,,,,100,,,,,,,Space,keypress(Space),,,,,,,,-- --- ---- --- ------ ----- ------- ---- -- --- ------- --<br>------- ---------- ------ -- ----- -- ----- -- ---- ------<br>--- ----- --- --- bonds' -------- ----- --- ------ ----- --<br>----- ----- ---------- --- --- ------ ------ ---- -- ------<br>------- --- ------ ----- --- ---- ------- -- ---- --- --<br>------- ------,318644.69999980927,318644.2999999523,318260.811,318268.69999980927,318277.512,318660.809,,26,bonds'
screen,html.Screen,2_1_1_1_27,2022-04-25T17:15:17.814Z,,,,,,,,,,,,,,,,,54,,,,,,,,,,,,,,528.3909998092568,,response,,,,100,,,,,,,Space,keypress(Space),,,,,,,,-- --- ---- --- ------ ----- ------- ---- -- --- ------- --<br>------- ---------- ------ -- ----- -- ----- -- ---- ------<br>--- ----- --- --- ------ interest ----- --- ------ ----- --<br>----- ----- ---------- --- --- ------ ------ ---- -- ------<br>------- --- ------ ----- --- ---- ------- -- ---- --- --<br>------- ------,319190.09999990463,319189.19999980927,318644.122,318644.89999985695,318660.809,319194.268,,27,interest
screen,html.Screen,2_1_1_1_28,2022-04-25T17:15:18.237Z,,,,,,,,,,,,,,,,,54,,,,,,,,,,,,,,418.73200000001816,,response,,,,100,,,,,,,Space,keypress(Space),,,,,,,,-- --- ---- --- ------ ----- ------- ---- -- --- ------- --<br>------- ---------- ------ -- ----- -- ----- -- ---- ------<br>--- ----- --- --- ------ -------- rate. --- ------ ----- --<br>----- ----- ---------- --- --- ------ ------ ---- -- ------<br>------- --- ------ ----- --- ---- ------- -- ---- --- --<br>------- ------,319614,319613,319177.455,319190.2999999523,319194.268,319627.71,,28,rate.
screen,html.Screen,2_1_1_1_29,2022-04-25T17:15:18.764Z,,,,,,,,,,,,,,,,,54,,,,,,,,,,,,,,512.4899998092442,,response,,,,100,,,,,,,Space,keypress(Space),,,,,,,,-- --- ---- --- ------ ----- ------- ---- -- --- ------- --<br>------- ---------- ------ -- ----- -- ----- -- ---- ------<br>--- ----- --- --- ------ -------- ----- The ------ ----- --<br>----- ----- ---------- --- --- ------ ------ ---- -- ------<br>------- --- ------ ----- --- ---- ------- -- ---- --- --<br>------- ------,320140.59999990463,320140.19999980927,319611.037,319615.59999990463,319627.71,320144.159,,29,The
screen,html.Screen,2_1_1_1_30,2022-04-25T17:15:19.164Z,,,,,,,,,,,,,,,,,54,,,,,,,,,,,,,,396.04099980928004,,response,,,,100,,,,,,,Space,keypress(Space),,,,,,,,-- --- ---- --- ------ ----- ------- ---- -- --- ------- --<br>------- ---------- ------ -- ----- -- ----- -- ---- ------<br>--- ----- --- --- ------ -------- ----- --- market ----- --<br>----- ----- ---------- --- --- ------ ------ ---- -- ------<br>------- --- ------ ----- --- ---- ------- -- ---- --- --<br>------- ------,320540.69999980927,320540.19999980927,320127.663,320140.69999980927,320144.159,320544.141,,30,market
screen,html.Screen,2_1_1_1_31,2022-04-25T17:15:19.652Z,,,,,,,,,,,,,,,,,54,,,,,,,,,,,,,,483.9589999046293,,response,,,,100,,,,,,,Space,keypress(Space),,,,,,,,-- --- ---- --- ------ ----- ------- ---- -- --- ------- --<br>------- ---------- ------ -- ----- -- ----- -- ---- ------<br>--- ----- --- --- ------ -------- ----- --- ------ value --<br>----- ----- ---------- --- --- ------ ------ ---- -- ------<br>------- --- ------ ----- --- ---- ------- -- ---- --- --<br>------- ------,321028.5,321028.09999990463,320527.46,320540.7999999523,320544.141,321044.151,,31,value
screen,html.Screen,2_1_1_1_32,2022-04-25T17:15:19.988Z,,,,,,,,,,,,,,,,,54,,,,,,,,,,,,,,319.94899990462,,response,,,,100,,,,,,,Space,keypress(Space),,,,,,,,-- --- ---- --- ------ ----- ------- ---- -- --- ------- --<br>------- ---------- ------ -- ----- -- ----- -- ---- ------<br>--- ----- --- --- ------ -------- ----- --- ------ ----- of<br>----- ----- ---------- --- --- ------ ------ ---- -- ------<br>------- --- ------ ----- --- ---- ------- -- ---- --- --<br>------- ------,321364.2999999523,321364.09999990463,321027.488,321028.5,321044.151,321377.47,,32,of
screen,html.Screen,2_1_1_1_33,2022-04-25T17:15:20.284Z,,,,,,,,,,,,,,,,,54,,,,,,,,,,,,,,282.6299999046605,,response,,,,100,,,,,,,Space,keypress(Space),,,,,,,,-- --- ---- --- ------ ----- ------- ---- -- --- ------- --<br>------- ---------- ------ -- ----- -- ----- -- ---- ------<br>--- ----- --- --- ------ -------- ----- --- ------ ----- --<br>these ----- ---------- --- --- ------ ------ ---- -- ------<br>------- --- ------ ----- --- ---- ------- -- ---- --- --<br>------- ------,321660.59999990463,321660.09999990463,321360.993,321364.39999985695,321377.47,321694.162,,33,these
screen,html.Screen,2_1_1_1_34,2022-04-25T17:15:20.732Z,,,,,,,,,,,,,,,,,54,,,,,,,,,,,,,,414.2379998569377,,response,,,,100,,,,,,,Space,keypress(Space),,,,,,,,-- --- ---- --- ------ ----- ------- ---- -- --- ------- --<br>------- ---------- ------ -- ----- -- ----- -- ---- ------<br>--- ----- --- --- ------ -------- ----- --- ------ ----- --<br>----- bonds ---------- --- --- ------ ------ ---- -- ------<br>------- --- ------ ----- --- ---- ------- -- ---- --- --<br>------- ------,322108.7999999523,322108.39999985695,321677.484,321660.59999990463,321694.162,322110.81,,34,bonds
screen,html.Screen,2_1_1_1_35,2022-04-25T17:15:21.452Z,,,,,,,,,,,,,,,,,54,,,,,,,,,,,,,,717.3899998092675,,response,,,,100,,,,,,,Space,keypress(Space),,,,,,,,"-- --- ---- --- ------ ----- ------- ---- -- --- ------- --<br>------- ---------- ------ -- ----- -- ----- -- ---- ------<br>--- ----- --- --- ------ -------- ----- --- ------ ----- --<br>----- ----- plummeted, --- --- ------ ------ ---- -- ------<br>------- --- ------ ----- --- ---- ------- -- ---- --- --<br>------- ------",322828.5,322828.19999980927,322094.121,322109,322110.81,322844.123,,35,"plummeted,"
screen,html.Screen,2_1_1_1_36,2022-04-25T17:15:22.012Z,,,,,,,,,,,,,,,,,54,,,,,,,,,,,,,,544.1769999522949,,response,,,,100,,,,,,,Space,keypress(Space),,,,,,,,-- --- ---- --- ------ ----- ------- ---- -- --- ------- --<br>------- ---------- ------ -- ----- -- ----- -- ---- ------<br>--- ----- --- --- ------ -------- ----- --- ------ ----- --<br>----- ----- ---------- and --- ------ ------ ---- -- ------<br>------- --- ------ ----- --- ---- ------- -- ---- --- --<br>------- ------,323388.7999999523,323388.2999999523,322827.437,322828.59999990463,322844.123,323394.118,,36,and
screen,html.Screen,2_1_1_1_37,2022-04-25T17:15:22.572Z,,,,,,,,,,,,,,,,,54,,,,,,,,,,,,,,553.9819999046158,,response,,,,100,,,,,,,Space,keypress(Space),,,,,,,,-- --- ---- --- ------ ----- ------- ---- -- --- ------- --<br>------- ---------- ------ -- ----- -- ----- -- ---- ------<br>--- ----- --- --- ------ -------- ----- --- ------ ----- --<br>----- ----- ---------- --- the ------ ------ ---- -- ------<br>------- --- ------ ----- --- ---- ------- -- ---- --- --<br>------- ------,323948.5,323948.09999990463,323377.518,323388.7999999523,323394.118,323960.772,,37,the
screen,html.Screen,2_1_1_1_38,2022-04-25T17:15:23.276Z,,,,,,,,,,,,,,,,,54,,,,,,,,,,,,,,691.4279998092679,,response,,,,100,,,,,,,Space,keypress(Space),,,,,,,,-- --- ---- --- ------ ----- ------- ---- -- --- ------- --<br>------- ---------- ------ -- ----- -- ----- -- ---- ------<br>--- ----- --- --- ------ -------- ----- --- ------ ----- --<br>----- ----- ---------- --- --- market ------ ---- -- ------<br>------- --- ------ ----- --- ---- ------- -- ---- --- --<br>------- ------,324652.59999990463,324652.19999980927,323944.091,323948.5,323960.772,324660.863,,38,market
screen,html.Screen,2_1_1_1_39,2022-04-25T17:15:23.916Z,,,,,,,,,,,,,,,,,54,,,,,,,,,,,,,,631.336999809253,,response,,,,100,,,,,,,Space,keypress(Space),,,,,,,,-- --- ---- --- ------ ----- ------- ---- -- --- ------- --<br>------- ---------- ------ -- ----- -- ----- -- ---- ------<br>--- ----- --- --- ------ -------- ----- --- ------ ----- --<br>----- ----- ---------- --- --- ------ became ---- -- ------<br>------- --- ------ ----- --- ---- ------- -- ---- --- --<br>------- ------,325292.69999980927,325292.19999980927,324644.053,324652.59999990463,324660.863,325294.128,,39,became
screen,html.Screen,2_1_1_1_40,2022-04-25T17:15:24.540Z,,,,,,,,,,,,,,,,,54,,,,,,,,,,,,,,621.8719999999739,,response,,,,100,,,,,,,Space,keypress(Space),,,,,,,,-- --- ---- --- ------ ----- ------- ---- -- --- ------- --<br>------- ---------- ------ -- ----- -- ----- -- ---- ------<br>--- ----- --- --- ------ -------- ----- --- ------ ----- --<br>----- ----- ---------- --- --- ------ ------ wary -- ------<br>------- --- ------ ----- --- ---- ------- -- ---- --- --<br>------- ------,325916.2999999523,325916,325277.519,325292.69999980927,325294.128,325927.454,,40,wary
screen,html.Screen,2_1_1_1_41,2022-04-25T17:15:24.940Z,,,,,,,,,,,,,,,,,54,,,,,,,,,,,,,,388.64599990460556,,response,,,,100,,,,,,,Space,keypress(Space),,,,,,,,-- --- ---- --- ------ ----- ------- ---- -- --- ------- --<br>------- ---------- ------ -- ----- -- ----- -- ---- ------<br>--- ----- --- --- ------ -------- ----- --- ------ ----- --<br>----- ----- ---------- --- --- ------ ------ ---- of ------<br>------- --- ------ ----- --- ---- ------- -- ---- --- --<br>------- ------,326316.69999980927,326316.09999990463,325910.75,325916.5,325927.454,326327.439,,41,of
screen,html.Screen,2_1_1_1_42,2022-04-25T17:15:25.518Z,,,,,,,,,,,,,,,,,54,,,,,,,,,,,,,,565.560999999987,,response,,,,100,,,,,,,Space,keypress(Space),,,,,,,,-- --- ---- --- ------ ----- ------- ---- -- --- ------- --<br>------- ---------- ------ -- ----- -- ----- -- ---- ------<br>--- ----- --- --- ------ -------- ----- --- ------ ----- --<br>----- ----- ---------- --- --- ------ ------ ---- -- French<br>------- --- ------ ----- --- ---- ------- -- ---- --- --<br>------- ------,326894.39999985695,326893,326310.875,326316.69999980927,326327.439,326910.894,,42,French
screen,html.Screen,2_1_1_1_43,2022-04-25T17:15:25.853Z,,,,,,,,,,,,,,,,,54,,,,,,,,,,,,,,317.805999809294,,response,,,,100,,,,,,,Space,keypress(Space),,,,,,,,-- --- ---- --- ------ ----- ------- ---- -- --- ------- --<br>------- ---------- ------ -- ----- -- ----- -- ---- ------<br>--- ----- --- --- ------ -------- ----- --- ------ ----- --<br>----- ----- ---------- --- --- ------ ------ ---- -- ------<br>credit. --- ------ ----- --- ---- ------- -- ---- --- --<br>------- ------,327229.7999999523,327228.69999980927,326894.082,326894.69999980927,326910.894,327244.323,,43,credit.
screen,html.Screen,2_1_1_1_44,2022-04-25T17:15:26.572Z,,,,,,,,,,,,,,,,,54,,,,,,,,,,,,,,703.6770000000251,,response,,,,100,,,,,,,Space,keypress(Space),,,,,,,,-- --- ---- --- ------ ----- ------- ---- -- --- ------- --<br>------- ---------- ------ -- ----- -- ----- -- ---- ------<br>--- ----- --- --- ------ -------- ----- --- ------ ----- --<br>----- ----- ---------- --- --- ------ ------ ---- -- ------<br>------- The ------ ----- --- ---- ------- -- ---- --- --<br>------- ------,327948.5,327948,327227.584,327230.09999990463,327244.323,327960.741,,44,The
screen,html.Screen,2_1_1_1_45,2022-04-25T17:15:26.916Z,,,,,,,,,,,,,,,,,54,,,,,,,,,,,,,,331.25900000002,,response,,,,100,,,,,,,Space,keypress(Space),,,,,,,,-- --- ---- --- ------ ----- ------- ---- -- --- ------- --<br>------- ---------- ------ -- ----- -- ----- -- ---- ------<br>--- ----- --- --- ------ -------- ----- --- ------ ----- --<br>----- ----- ---------- --- --- ------ ------ ---- -- ------<br>------- --- French ----- --- ---- ------- -- ---- --- --<br>------- ------,328292.5,328292,327944.278,327948.59999990463,327960.741,328294.083,,45,French
screen,html.Screen,2_1_1_1_46,2022-04-25T17:15:27.438Z,,,,,,,,,,,,,,,,,54,,,,,,,,,,,,,,519.0169999046484,,response,,,,100,,,,,,,Space,keypress(Space),,,,,,,,-- --- ---- --- ------ ----- ------- ---- -- --- ------- --<br>------- ---------- ------ -- ----- -- ----- -- ---- ------<br>--- ----- --- --- ------ -------- ----- --- ------ ----- --<br>----- ----- ---------- --- --- ------ ------ ---- -- ------<br>------- --- ------ state --- ---- ------- -- ---- --- --<br>------- ------,328814.09999990463,328813.09999990463,328277.405,328292.5,328294.083,328827.641,,46,state
screen,html.Screen,2_1_1_1_47,2022-04-25T17:15:27.885Z,,,,,,,,,,,,,,,,,54,,,,,,,,,,,,,,433.4589999046293,,response,,,,100,,,,,,,Space,keypress(Space),,,,,,,,-- --- ---- --- ------ ----- ------- ---- -- --- ------- --<br>------- ---------- ------ -- ----- -- ----- -- ---- ------<br>--- ----- --- --- ------ -------- ----- --- ------ ----- --<br>----- ----- ---------- --- --- ------ ------ ---- -- ------<br>------- --- ------ ----- was ---- ------- -- ---- --- --<br>------- ------,329262.09999990463,329261.09999990463,328810.7,328814.39999985695,328827.641,329277.638,,47,was
screen,html.Screen,2_1_1_1_48,2022-04-25T17:15:28.316Z,,,,,,,,,,,,,,,,,54,,,,,,,,,,,,,,414.3620000000228,,response,,,,100,,,,,,,Space,keypress(Space),,,,,,,,-- --- ---- --- ------ ----- ------- ---- -- --- ------- --<br>------- ---------- ------ -- ----- -- ----- -- ---- ------<br>--- ----- --- --- ------ -------- ----- --- ------ ----- --<br>----- ----- ---------- --- --- ------ ------ ---- -- ------<br>------- --- ------ ----- --- left ------- -- ---- --- --<br>------- ------,329692.39999985695,329692,329260.905,329262.19999980927,329277.638,329694.08,,48,left
screen,html.Screen,2_1_1_1_49,2022-04-25T17:15:28.988Z,,,,,,,,,,,,,,,,,54,,,,,,,,,,,,,,670.0199999046163,,response,,,,100,,,,,,,Space,keypress(Space),,,,,,,,-- --- ---- --- ------ ----- ------- ---- -- --- ------- --<br>------- ---------- ------ -- ----- -- ----- -- ---- ------<br>--- ----- --- --- ------ -------- ----- --- ------ ----- --<br>----- ----- ---------- --- --- ------ ------ ---- -- ------<br>------- --- ------ ----- --- ---- without -- ---- --- --<br>------- ------,330364.5,330364.09999990463,329677.604,329692.5,329694.08,330377.501,,49,without
screen,html.Screen,2_1_1_1_50,2022-04-25T17:15:29.414Z,,,,,,,,,,,,,,,,,54,,,,,,,,,,,,,,411.5989999046433,,response,,,,100,,,,,,,Space,keypress(Space),,,,,,,,-- --- ---- --- ------ ----- ------- ---- -- --- ------- --<br>------- ---------- ------ -- ----- -- ----- -- ---- ------<br>--- ----- --- --- ------ -------- ----- --- ------ ----- --<br>----- ----- ---------- --- --- ------ ------ ---- -- ------<br>------- --- ------ ----- --- ---- ------- an ---- --- --<br>------- ------,330790,330789.09999990463,330360.718,330364.5,330377.501,330794.163,,50,an
screen,html.Screen,2_1_1_1_51,2022-04-25T17:15:29.868Z,,,,,,,,,,,,,,,,,54,,,,,,,,,,,,,,450.1369999523158,,response,,,,100,,,,,,,Space,keypress(Space),,,,,,,,-- --- ---- --- ------ ----- ------- ---- -- --- ------- --<br>------- ---------- ------ -- ----- -- ----- -- ---- ------<br>--- ----- --- --- ------ -------- ----- --- ------ ----- --<br>----- ----- ---------- --- --- ------ ------ ---- -- ------<br>------- --- ------ ----- --- ---- ------- -- easy --- --<br>------- ------,331244.69999980927,331244.2999999523,330777.554,330790.2999999523,330794.163,331260.728,,51,easy
screen,html.Screen,2_1_1_1_52,2022-04-25T17:15:30.396Z,,,,,,,,,,,,,,,,,54,,,,,,,,,,,,,,511.2719999999972,,response,,,,100,,,,,,,Space,keypress(Space),,,,,,,,-- --- ---- --- ------ ----- ------- ---- -- --- ------- --<br>------- ---------- ------ -- ----- -- ----- -- ---- ------<br>--- ----- --- --- ------ -------- ----- --- ------ ----- --<br>----- ----- ---------- --- --- ------ ------ ---- -- ------<br>------- --- ------ ----- --- ---- ------- -- ---- way --<br>------- ------,331772.39999985695,331772,331244.24,331244.69999980927,331260.728,331777.377,,52,way
screen,html.Screen,2_1_1_1_53,2022-04-25T17:15:30.789Z,,,,,,,,,,,,,,,,,54,,,,,,,,,,,,,,387.722999904654,,response,,,,100,,,,,,,Space,keypress(Space),,,,,,,,-- --- ---- --- ------ ----- ------- ---- -- --- ------- --<br>------- ---------- ------ -- ----- -- ----- -- ---- ------<br>--- ----- --- --- ------ -------- ----- --- ------ ----- --<br>----- ----- ---------- --- --- ------ ------ ---- -- ------<br>------- --- ------ ----- --- ---- ------- -- ---- --- of<br>------- ------,332166.09999990463,332165.09999990463,331760.672,331772.5,331777.377,332177.558,,53,of
screen,html.Screen,2_1_1_1_54,2022-04-25T17:15:31.260Z,,,,,,,,,,,,,,,,,54,,,,,,,,,,,,,,458.5419999046135,,response,,,,100,,,,,,,Space,keypress(Space),,,,,,,,-- --- ---- --- ------ ----- ------- ---- -- --- ------- --<br>------- ---------- ------ -- ----- -- ----- -- ---- ------<br>--- ----- --- --- ------ -------- ----- --- ------ ----- --<br>----- ----- ---------- --- --- ------ ------ ---- -- ------<br>------- --- ------ ----- --- ---- ------- -- ---- --- --<br>raising ------,332636.5,332636.09999990463,332160.681,332166.2999999523,332177.558,332644.039,,54,raising
screen,html.Screen,2_1_1_1_55,2022-04-25T17:15:31.980Z,,,,,,,,,,,,,,,,,54,,,,,,,,,,,,,,711.8609998569591,,response,,,,100,,,,,,,Space,keypress(Space),,,,,,,,-- --- ---- --- ------ ----- ------- ---- -- --- ------- --<br>------- ---------- ------ -- ----- -- ----- -- ---- ------<br>--- ----- --- --- ------ -------- ----- --- ------ ----- --<br>----- ----- ---------- --- --- ------ ------ ---- -- ------<br>------- --- ------ ----- --- ---- ------- -- ---- --- --<br>------- money.,333356.39999985695,333355.89999985695,332627.527,332636.69999980927,332644.039,333360.699,,55,money.
Item 100,flow.Loop,2_1_1_1,2022-04-25T17:15:31.980Z,,,,,,,,,,,,,,,,,,,,,,,,,,,,,,,33361.56299985695,,completion,,,,,B,,,,,,,,,,,silence,,,,,333356.59999990463,333355.89999985695,299977.637,299978,299994.337,333360.699,,,
Question 1,html.Screen,2_1_1_2,2022-04-25T17:15:35.140Z,,,,,,,,,,,,,,,,,,,,,,,,,,,,true,TRUE,,3155.3009999999776,,response,,,,100,B,,,,,,TRUE,click #choice-1,,,,silence,,,,,336516.5,336516,333344.005,333356.59999990463,333360.699,336527.343,,,
Question 2,html.Screen,2_1_1_3,2022-04-25T17:15:38.204Z,,,,,,,,,,,,,,,,,,,,,,,,,,,,true,FALSE,,3052.756999904639,,response,,,,100,B,,,,,,FALSE,click #choice-2,,,,silence,,,,,339580.69999980927,339580.09999990463,336510.755,336516.5,336527.343,339594.078,,,
Item 100,flow.Sequence,2_1_1,2022-04-25T17:15:38.204Z,,,,,,,,,,,,,,,,,,,,,,,,,,,,,,,49585.72899990465,,completion,,,,,,,,,,,,,,,,,,,,,339580.69999980927,339580.09999990463,289977.847,289988.7999999523,289994.371,339594.078,,,
End of Practice,html.Page,2_1_2,2022-04-25T17:15:43.740Z,,,,,,,,,,,,,,,,,,,,,,,,,,,,,,,5522.621999809286,,form submission,,,,,,,,,,,,,,,,,,,,,345116.89999985695,345116.69999980927,339577.318,339580.7999999523,339594.078,345127.307,,,
Practice,flow.Sequence,2_1,2022-04-25T17:15:43.740Z,,,,,,,,,,,,,,,,,,,,,,,,,,,,,,,112171.75699980927,,completion,,,,,,,,,,,,,,,,,,,,,345117,345116.69999980927,232861.529,232889.39999985695,232944.943,345127.307,,,
Trap_instruction,html.Page,2_2_0,2022-04-25T17:15:49.588Z,,,,,,,,,,,,,,,,,,,,,,,,,,,,,,,5837.292999904661,,form submission,,,,,,,,,,,,,,,,,,,,,350964.7999999523,350964.59999990463,345110.782,345117,345127.307,351177.308,,,
trap_trial,html.Screen,2_2_1,2022-04-25T17:15:53.660Z,,,,,,,,,,,,,,,,,,,,,,,,,,,,true,1,,3858.491999952297,,response,,,,,,,,,,,1,click #choice-1,,,,,,,,,355036.39999985695,355035.7999999523,350960.537,350964.89999985695,351177.308,355043.824,,,
end of trap trial,html.Page,2_2_2,2022-04-25T17:15:55.708Z,,,,,,,,,,,,,,,,,,,,,,,,,,,,,,,2040.7759999046102,,form submission,,,,,,,,,,,,,,,,,,,,,357084.69999980927,357084.59999990463,355027.183,355036.39999985695,355043.824,357143.938,,,
Trap 1,flow.Sequence,2_2,2022-04-25T17:15:55.708Z,,,,,,,,,,,,,,,,,,,,,,,,,,,,,,,11957.292999904661,,completion,,,,,,,,,,,,,,,,,,,,,357084.7999999523,357084.59999990463,345110.782,345117,345127.307,357143.938,,,
Standby,html.Page,2_3_0,2022-04-25T17:16:03.751Z,,,,,,,,,,,,,,,,,,,,,,,,,,,,,,,7999.846999999951,,timeout,,,,,,,,,,,,,,,,,,,,,365127.5,365127.096,357077.378,357085,357143.938,365143.785,,,
Holding screen,html.Screen,2_3_1_0_0,2022-04-25T17:16:10.751Z,,,,,,,,,,,,,,,,,,,,,,,,,,,,,,,6999.9310000000405,,timeout,,,,,,,,,,,,,,,,,,,,,372127.5,372127.086,365127.096,365127.59999990463,365143.785,372143.716,,,
screen,html.Screen,2_3_1_0_1_0,2022-04-25T17:16:11.500Z,,,,,,,,,,,,,,,,,19,,,,,,,,,,,,,,732.4839998092502,,response,,,,17,B,,,,,,Space,keypress(Space),,,,lyrical,,,,"Interestingly, --- -------- -------- ---------- ---- -------<br>-- ---------- -- --- ----- ------ ----- ---- --------- ----<br>------- ------ -------- -- ------ ---------- ------ ---<br>------ -- -- ---- -- ---------- -------- ------ ---- -------<br>---- --- --------- ------- ----- --------- ---- ----- --<br>------ -------- -- ------ -- ---- ------------",372876.59999990463,372876.19999980927,372127.086,372127.59999990463,372143.716,372894.69,,0,"Interestingly,"
screen,html.Screen,2_3_1_0_1_1,2022-04-25T17:16:11.944Z,,,,,,,,,,,,,,,,,19,,,,,,,,,,,,,,429.2099998569465,,response,,,,17,B,,,,,,Space,keypress(Space),,,,lyrical,,,,-------------- the -------- -------- ---------- ---- -------<br>-- ---------- -- --- ----- ------ ----- ---- --------- ----<br>------- ------ -------- -- ------ ---------- ------ ---<br>------ -- -- ---- -- ---------- -------- ------ ---- -------<br>---- --- --------- ------- ----- --------- ---- ----- --<br>------ -------- -- ------ -- ---- ------------,373324.39999985695,373323.89999985695,372860.365,372876.69999980927,372894.69,373327.036,,1,the
screen,html.Screen,2_3_1_0_1_2,2022-04-25T17:16:12.561Z,,,,,,,,,,,,,,,,,19,,,,,,,,,,,,,,613.7639999522944,,response,,,,17,B,,,,,,Space,keypress(Space),,,,lyrical,,,,-------------- --- heaviest -------- ---------- ---- -------<br>-- ---------- -- --- ----- ------ ----- ---- --------- ----<br>------- ------ -------- -- ------ ---------- ------ ---<br>------ -- -- ---- -- ---------- -------- ------ ---- -------<br>---- --- --------- ------- ----- --------- ---- ----- --<br>------ -------- -- ------ -- ---- ------------,373941.7999999523,373940.7999999523,373310.34,373324.39999985695,373327.036,373943.842,,2,heaviest
screen,html.Screen,2_3_1_0_1_3,2022-04-25T17:16:13.624Z,,,,,,,,,,,,,,,,,19,,,,,,,,,,,,,,1060.357999809261,,response,,,,17,B,,,,,,Space,keypress(Space),,,,lyrical,,,,-------------- --- -------- isotopes ---------- ---- -------<br>-- ---------- -- --- ----- ------ ----- ---- --------- ----<br>------- ------ -------- -- ------ ---------- ------ ---<br>------ -- -- ---- -- ---------- -------- ------ ---- -------<br>---- --- --------- ------- ----- --------- ---- ----- --<br>------ -------- -- ------ -- ---- ------------,375004.5,375004.19999980927,373927.007,373941.89999985695,373943.842,375010.392,,3,isotopes
screen,html.Screen,2_3_1_0_1_4,2022-04-25T17:16:15.066Z,,,,,,,,,,,,,,,,,19,,,,,,,,,,,,,,1434.5079998569563,,response,,,,17,B,,,,,,Space,keypress(Space),,,,lyrical,,,,-------------- --- -------- -------- physicists ---- -------<br>-- ---------- -- --- ----- ------ ----- ---- --------- ----<br>------- ------ -------- -- ------ ---------- ------ ---<br>------ -- -- ---- -- ---------- -------- ------ ---- -------<br>---- --- --------- ------- ----- --------- ---- ----- --<br>------ -------- -- ------ -- ---- ------------,376446,376444.89999985695,374993.885,375004.69999980927,375010.392,376460.502,,4,physicists
screen,html.Screen,2_3_1_0_1_5,2022-04-25T17:16:15.576Z,,,,,,,,,,,,,,,,,19,,,,,,,,,,,,,,495.4980000000214,,response,,,,17,B,,,,,,Space,keypress(Space),,,,lyrical,,,,-------------- --- -------- -------- ---------- have -------<br>-- ---------- -- --- ----- ------ ----- ---- --------- ----<br>------- ------ -------- -- ------ ---------- ------ ---<br>------ -- -- ---- -- ---------- -------- ------ ---- -------<br>---- --- --------- ------- ----- --------- ---- ----- --<br>------ -------- -- ------ -- ---- ------------,376956.5,376956,376443.657,376446.19999980927,376460.502,376960.355,,5,have
screen,html.Screen,2_3_1_0_1_6,2022-04-25T17:16:16.208Z,,,,,,,,,,,,,,,,,19,,,,,,,,,,,,,,627.7449999046512,,response,,,,17,B,,,,,,Space,keypress(Space),,,,lyrical,,,,-------------- --- -------- -------- ---------- ---- managed<br>-- ---------- -- --- ----- ------ ----- ---- --------- ----<br>------- ------ -------- -- ------ ---------- ------ ---<br>------ -- -- ---- -- ---------- -------- ------ ---- -------<br>---- --- --------- ------- ----- --------- ---- ----- --<br>------ -------- -- ------ -- ---- ------------,377588.39999985695,377588.09999990463,376943.706,376956.5,376960.355,377593.672,,6,managed
screen,html.Screen,2_3_1_0_1_7,2022-04-25T17:16:16.634Z,,,,,,,,,,,,,,,,,19,,,,,,,,,,,,,,419.1279999522958,,response,,,,17,B,,,,,,Space,keypress(Space),,,,lyrical,,,,-------------- --- -------- -------- ---------- ---- -------<br>to ---------- -- --- ----- ------ ----- ---- --------- ----<br>------- ------ -------- -- ------ ---------- ------ ---<br>------ -- -- ---- -- ---------- -------- ------ ---- -------<br>---- --- --------- ------- ----- --------- ---- ----- --<br>------ -------- -- ------ -- ---- ------------,378013.89999985695,378012.7999999523,377576.997,377588.59999990463,377593.672,378027.185,,7,to
screen,html.Screen,2_3_1_0_1_8,2022-04-25T17:16:17.433Z,,,,,,,,,,,,,,,,,19,,,,,,,,,,,,,,785.4149999046349,,response,,,,17,B,,,,,,Space,keypress(Space),,,,lyrical,,,,-------------- --- -------- -------- ---------- ---- -------<br>-- synthesize -- --- ----- ------ ----- ---- --------- ----<br>------- ------ -------- -- ------ ---------- ------ ---<br>------ -- -- ---- -- ---------- -------- ------ ---- -------<br>---- --- --------- ------- ----- --------- ---- ----- --<br>------ -------- -- ------ -- ---- ------------,378813.7999999523,378812.59999990463,378010.317,378014.19999980927,378027.185,378827.033,,8,synthesize
screen,html.Screen,2_3_1_0_1_9,2022-04-25T17:16:17.824Z,,,,,,,,,,,,,,,,,19,,,,,,,,,,,,,,376.9670000000042,,response,,,,17,B,,,,,,Space,keypress(Space),,,,lyrical,,,,-------------- --- -------- -------- ---------- ---- -------<br>-- ---------- so --- ----- ------ ----- ---- --------- ----<br>------- ------ -------- -- ------ ---------- ------ ---<br>------ -- -- ---- -- ---------- -------- ------ ---- -------<br>---- --- --------- ------- ----- --------- ---- ----- --<br>------ -------- -- ------ -- ---- ------------,379204.2999999523,379204,378810.354,378814,378827.033,379210.345,,9,so
screen,html.Screen,2_3_1_0_1_10,2022-04-25T17:16:18.201Z,,,,,,,,,,,,,,,,,19,,,,,,,,,,,,,,369.9549999523442,,response,,,,17,B,,,,,,Space,keypress(Space),,,,lyrical,,,,-------------- --- -------- -------- ---------- ---- -------<br>-- ---------- -- far ----- ------ ----- ---- --------- ----<br>------- ------ -------- -- ------ ---------- ------ ---<br>------ -- -- ---- -- ---------- -------- ------ ---- -------<br>---- --- --------- ------- ----- --------- ---- ----- --<br>------ -------- -- ------ -- ---- ------------,379581,379580.2999999523,379193.658,379204.39999985695,379210.345,379593.81,,10,far
screen,html.Screen,2_3_1_0_1_11,2022-04-25T17:16:18.832Z,,,,,,,,,,,,,,,,,19,,,,,,,,,,,,,,617.9899999523186,,response,,,,17,B,,,,,,Space,keypress(Space),,,,lyrical,,,,-------------- --- -------- -------- ---------- ---- -------<br>-- ---------- -- --- don't ------ ----- ---- --------- ----<br>------- ------ -------- -- ------ ---------- ------ ---<br>------ -- -- ---- -- ---------- -------- ------ ---- -------<br>---- --- --------- ------- ----- --------- ---- ----- --<br>------ -------- -- ------ -- ---- ------------,380212.09999990463,380211.7999999523,379576.976,379581.09999990463,379593.81,380227.082,,11,don't
screen,html.Screen,2_3_1_0_1_12,2022-04-25T17:16:19.217Z,,,,,,,,,,,,,,,,,19,,,,,,,,,,,,,,369.4180000000051,,response,,,,17,B,,,,,,Space,keypress(Space),,,,lyrical,,,,-------------- --- -------- -------- ---------- ---- -------<br>-- ---------- -- --- ----- behave ----- ---- --------- ----<br>------- ------ -------- -- ------ ---------- ------ ---<br>------ -- -- ---- -- ---------- -------- ------ ---- -------<br>---- --- --------- ------- ----- --------- ---- ----- --<br>------ -------- -- ------ -- ---- ------------,380597.69999980927,380596.5,380210.313,380212.19999980927,380227.082,380610.46,,12,behave
screen,html.Screen,2_3_1_0_1_13,2022-04-25T17:16:20.216Z,,,,,,,,,,,,,,,,,19,,,,,,,,,,,,,,985.3399999522953,,response,,,,17,B,,,,,,Space,keypress(Space),,,,lyrical,,,,-------------- --- -------- -------- ---------- ---- -------<br>-- ---------- -- --- ----- ------ quite ---- --------- ----<br>------- ------ -------- -- ------ ---------- ------ ---<br>------ -- -- ---- -- ---------- -------- ------ ---- -------<br>---- --- --------- ------- ----- --------- ---- ----- --<br>------ -------- -- ------ -- ---- ------------,381596.2999999523,381595.7999999523,380593.862,380597.89999985695,380610.46,381610.297,,13,quite
screen,html.Screen,2_3_1_0_1_14,2022-04-25T17:16:20.664Z,,,,,,,,,,,,,,,,,19,,,,,,,,,,,,,,433.60299985692836,,response,,,,17,B,,,,,,Space,keypress(Space),,,,lyrical,,,,-------------- --- -------- -------- ---------- ---- -------<br>-- ---------- -- --- ----- ------ ----- like --------- ----<br>------- ------ -------- -- ------ ---------- ------ ---<br>------ -- -- ---- -- ---------- -------- ------ ---- -------<br>---- --- --------- ------- ----- --------- ---- ----- --<br>------ -------- -- ------ -- ---- ------------,382044.2999999523,382043.89999985695,381593.835,381596.2999999523,381610.297,382060.326,,14,like
screen,html.Screen,2_3_1_0_1_15,2022-04-25T17:16:21.114Z,,,,,,,,,,,,,,,,,19,,,,,,,,,,,,,,432.3739998092642,,response,,,,17,B,,,,,,Space,keypress(Space),,,,lyrical,,,,-------------- --- -------- -------- ---------- ---- -------<br>-- ---------- -- --- ----- ------ ----- ---- science's ----<br>------- ------ -------- -- ------ ---------- ------ ---<br>------ -- -- ---- -- ---------- -------- ------ ---- -------<br>---- --- --------- ------- ----- --------- ---- ----- --<br>------ -------- -- ------ -- ---- ------------,382493.7999999523,382492.69999980927,382043.607,382044.2999999523,382060.326,382510.539,,15,science's
screen,html.Screen,2_3_1_0_1_16,2022-04-25T17:16:22.072Z,,,,,,,,,,,,,,,,,19,,,,,,,,,,,,,,941.7609999523265,,response,,,,17,B,,,,,,Space,keypress(Space),,,,lyrical,,,,-------------- --- -------- -------- ---------- ---- -------<br>-- ---------- -- --- ----- ------ ----- ---- --------- best<br>------- ------ -------- -- ------ ---------- ------ ---<br>------ -- -- ---- -- ---------- -------- ------ ---- -------<br>---- --- --------- ------- ----- --------- ---- ----- --<br>------ -------- -- ------ -- ---- ------------,383452.69999980927,383452.2999999523,382493.614,382494.09999990463,382510.539,383460.319,,16,best
screen,html.Screen,2_3_1_0_1_17,2022-04-25T17:16:22.472Z,,,,,,,,,,,,,,,,,19,,,,,,,,,,,,,,391.4809999522986,,response,,,,17,B,,,,,,Space,keypress(Space),,,,lyrical,,,,-------------- --- -------- -------- ---------- ---- -------<br>-- ---------- -- --- ----- ------ ----- ---- --------- ----<br>current ------ -------- -- ------ ---------- ------ ---<br>------ -- -- ---- -- ---------- -------- ------ ---- -------<br>---- --- --------- ------- ----- --------- ---- ----- --<br>------ -------- -- ------ -- ---- ------------,383852.2999999523,383851.7999999523,383443.833,383452.7999999523,383460.319,383860.311,,17,current
screen,html.Screen,2_3_1_0_1_18,2022-04-25T17:16:22.873Z,,,,,,,,,,,,,,,,,19,,,,,,,,,,,,,,392.3889998092782,,response,,,,17,B,,,,,,Space,keypress(Space),,,,lyrical,,,,-------------- --- -------- -------- ---------- ---- -------<br>-- ---------- -- --- ----- ------ ----- ---- --------- ----<br>------- models -------- -- ------ ---------- ------ ---<br>------ -- -- ---- -- ---------- -------- ------ ---- -------<br>---- --- --------- ------- ----- --------- ---- ----- --<br>------ -------- -- ------ -- ---- ------------,384253.69999980927,384252.69999980927,383843.626,383852.39999985695,383860.311,384260.437,,18,models
screen,html.Screen,2_3_1_0_1_19,2022-04-25T17:16:23.480Z,,,,,,,,,,,,,,,,,19,,,,,,,,,,,,,,599.36299995234,,response,,,,17,B,,,,,,Space,keypress(Space),,,,lyrical,,,,"-------------- --- -------- -------- ---------- ---- -------<br>-- ---------- -- --- ----- ------ ----- ---- --------- ----<br>------- ------ predict, -- ------ ---------- ------ ---<br>------ -- -- ---- -- ---------- -------- ------ ---- -------<br>---- --- --------- ------- ----- --------- ---- ----- --<br>------ -------- -- ------ -- ---- ------------",384860.19999980927,384859.7999999523,384243.612,384254,384260.437,384876.979,,19,"predict,"
screen,html.Screen,2_3_1_0_1_20,2022-04-25T17:16:23.896Z,,,,,,,,,,,,,,,,,19,,,,,,,,,,,,,,398.8209999523242,,response,,,,17,B,,,,,,Space,keypress(Space),,,,lyrical,,,,-------------- --- -------- -------- ---------- ---- -------<br>-- ---------- -- --- ----- ------ ----- ---- --------- ----<br>------- ------ -------- so ------ ---------- ------ ---<br>------ -- -- ---- -- ---------- -------- ------ ---- -------<br>---- --- --------- ------- ----- --------- ---- ----- --<br>------ -------- -- ------ -- ---- ------------,385276.19999980927,385275.7999999523,384860.36,384860.2999999523,384876.979,385294.737,,20,so
screen,html.Screen,2_3_1_0_1_21,2022-04-25T17:16:24.169Z,,,,,,,,,,,,,,,,,19,,,,,,,,,,,,,,253.26299999997718,,response,,,,17,B,,,,,,Space,keypress(Space),,,,lyrical,,,,-------------- --- -------- -------- ---------- ---- -------<br>-- ---------- -- --- ----- ------ ----- ---- --------- ----<br>------- ------ -------- -- stable ---------- ------ ---<br>------ -- -- ---- -- ---------- -------- ------ ---- -------<br>---- --- --------- ------- ----- --------- ---- ----- --<br>------ -------- -- ------ -- ---- ------------,385548.89999985695,385548,385260.431,385276.19999980927,385294.737,385560.35,,21,stable
screen,html.Screen,2_3_1_0_1_22,2022-04-25T17:16:25.120Z,,,,,,,,,,,,,,,,,19,,,,,,,,,,,,,,939.5499998569721,,response,,,,17,B,,,,,,Space,keypress(Space),,,,lyrical,,,,-------------- --- -------- -------- ---------- ---- -------<br>-- ---------- -- --- ----- ------ ----- ---- --------- ----<br>------- ------ -------- -- ------ superheavy ------ ---<br>------ -- -- ---- -- ---------- -------- ------ ---- -------<br>---- --- --------- ------- ----- --------- ---- ----- --<br>------ -------- -- ------ -- ---- ------------,386500.2999999523,386499.89999985695,385543.59,385549.09999990463,385560.35,386510.279,,22,superheavy
screen,html.Screen,2_3_1_0_1_23,2022-04-25T17:16:25.913Z,,,,,,,,,,,,,,,,,19,,,,,,,,,,,,,,782.5209999523358,,response,,,,17,B,,,,,,Space,keypress(Space),,,,lyrical,,,,-------------- --- -------- -------- ---------- ---- -------<br>-- ---------- -- --- ----- ------ ----- ---- --------- ----<br>------- ------ -------- -- ------ ---------- nuclei ---<br>------ -- -- ---- -- ---------- -------- ------ ---- -------<br>---- --- --------- ------- ----- --------- ---- ----- --<br>------ -------- -- ------ -- ---- ------------,387293.69999980927,387292.7999999523,386493.563,386500.39999985695,386510.279,387310.502,,23,nuclei
screen,html.Screen,2_3_1_0_1_24,2022-04-25T17:16:26.360Z,,,,,,,,,,,,,,,,,19,,,,,,,,,,,,,,429.19799980928656,,response,,,,17,B,,,,,,Space,keypress(Space),,,,lyrical,,,,-------------- --- -------- -------- ---------- ---- -------<br>-- ---------- -- --- ----- ------ ----- ---- --------- ----<br>------- ------ -------- -- ------ ---------- ------ are<br>------ -- -- ---- -- ---------- -------- ------ ---- -------<br>---- --- --------- ------- ----- --------- ---- ----- --<br>------ -------- -- ------ -- ---- ------------,387740.2999999523,387739.69999980927,387293.768,387294,387310.502,387743.565,,24,are
screen,html.Screen,2_3_1_0_1_25,2022-04-25T17:16:26.762Z,,,,,,,,,,,,,,,,,19,,,,,,,,,,,,,,397.1349998092628,,response,,,,17,B,,,,,,Space,keypress(Space),,,,lyrical,,,,-------------- --- -------- -------- ---------- ---- -------<br>-- ---------- -- --- ----- ------ ----- ---- --------- ----<br>------- ------ -------- -- ------ ---------- ------ ---<br>likely -- -- ---- -- ---------- -------- ------ ---- -------<br>---- --- --------- ------- ----- --------- ---- ----- --<br>------ -------- -- ------ -- ---- ------------,388141.7999999523,388140.69999980927,387727.027,387740.39999985695,387743.565,388164.601,,25,likely
screen,html.Screen,2_3_1_0_1_26,2022-04-25T17:16:27.200Z,,,,,,,,,,,,,,,,,19,,,,,,,,,,,,,,415.19899995229207,,response,,,,17,B,,,,,,Space,keypress(Space),,,,lyrical,,,,-------------- --- -------- -------- ---------- ---- -------<br>-- ---------- -- --- ----- ------ ----- ---- --------- ----<br>------- ------ -------- -- ------ ---------- ------ ---<br>------ to -- ---- -- ---------- -------- ------ ---- -------<br>---- --- --------- ------- ----- --------- ---- ----- --<br>------ -------- -- ------ -- ---- ------------,388580.19999980927,388579.7999999523,388126.91,388142,388164.601,388593.619,,26,to
screen,html.Screen,2_3_1_0_1_27,2022-04-25T17:16:27.552Z,,,,,,,,,,,,,,,,,19,,,,,,,,,,,,,,338.2809998569428,,response,,,,17,B,,,,,,Space,keypress(Space),,,,lyrical,,,,-------------- --- -------- -------- ---------- ---- -------<br>-- ---------- -- --- ----- ------ ----- ---- --------- ----<br>------- ------ -------- -- ------ ---------- ------ ---<br>------ -- be ---- -- ---------- -------- ------ ---- -------<br>---- --- --------- ------- ----- --------- ---- ----- --<br>------ -------- -- ------ -- ---- ------------,388932.39999985695,388931.89999985695,388577.008,388580.19999980927,388593.619,388943.606,,27,be
screen,html.Screen,2_3_1_0_1_28,2022-04-25T17:16:28.000Z,,,,,,,,,,,,,,,,,19,,,,,,,,,,,,,,436.1939999522874,,response,,,,17,B,,,,,,Space,keypress(Space),,,,lyrical,,,,-------------- --- -------- -------- ---------- ---- -------<br>-- ---------- -- --- ----- ------ ----- ---- --------- ----<br>------- ------ -------- -- ------ ---------- ------ ---<br>------ -- -- full -- ---------- -------- ------ ---- -------<br>---- --- --------- ------- ----- --------- ---- ----- --<br>------ -------- -- ------ -- ---- ------------,389380.39999985695,389379.7999999523,388926.897,388932.39999985695,388943.606,389393.611,,28,full
screen,html.Screen,2_3_1_0_1_29,2022-04-25T17:16:28.448Z,,,,,,,,,,,,,,,,,19,,,,,,,,,,,,,,434.3890000000247,,response,,,,17,B,,,,,,Space,keypress(Space),,,,lyrical,,,,-------------- --- -------- -------- ---------- ---- -------<br>-- ---------- -- --- ----- ------ ----- ---- --------- ----<br>------- ------ -------- -- ------ ---------- ------ ---<br>------ -- -- ---- of ---------- -------- ------ ---- -------<br>---- --- --------- ------- ----- --------- ---- ----- --<br>------ -------- -- ------ -- ---- ------------,389828.5,389828,389376.899,389380.39999985695,389393.611,389843.632,,29,of
screen,html.Screen,2_3_1_0_1_30,2022-04-25T17:16:29.169Z,,,,,,,,,,,,,,,,,19,,,,,,,,,,,,,,704.5679998092819,,response,,,,17,B,,,,,,Space,keypress(Space),,,,lyrical,,,,-------------- --- -------- -------- ---------- ---- -------<br>-- ---------- -- --- ----- ------ ----- ---- --------- ----<br>------- ------ -------- -- ------ ---------- ------ ---<br>------ -- -- ---- -- surprises. -------- ------ ---- -------<br>---- --- --------- ------- ----- --------- ---- ----- --<br>------ -------- -- ------ -- ---- ------------,390548.89999985695,390548.19999980927,389826.904,389828.69999980927,389843.632,390560.308,,30,surprises.
screen,html.Screen,2_3_1_0_1_31,2022-04-25T17:16:29.801Z,,,,,,,,,,,,,,,,,19,,,,,,,,,,,,,,620.391999809246,,response,,,,17,B,,,,,,Space,keypress(Space),,,,lyrical,,,,-------------- --- -------- -------- ---------- ---- -------<br>-- ---------- -- --- ----- ------ ----- ---- --------- ----<br>------- ------ -------- -- ------ ---------- ------ ---<br>------ -- -- ---- -- ---------- Chemists ------ ---- -------<br>---- --- --------- ------- ----- --------- ---- ----- --<br>------ -------- -- ------ -- ---- ------------,391181.7999999523,391180.69999980927,390543.591,390549,390560.308,391193.715,,31,Chemists
screen,html.Screen,2_3_1_0_1_32,2022-04-25T17:16:30.410Z,,,,,,,,,,,,,,,,,19,,,,,,,,,,,,,,594.884999904607,,response,,,,17,B,,,,,,Space,keypress(Space),,,,lyrical,,,,-------------- --- -------- -------- ---------- ---- -------<br>-- ---------- -- --- ----- ------ ----- ---- --------- ----<br>------- ------ -------- -- ------ ---------- ------ ---<br>------ -- -- ---- -- ---------- -------- cannot ---- -------<br>---- --- --------- ------- ----- --------- ---- ----- --<br>------ -------- -- ------ -- ---- ------------,391789.7999999523,391788.59999990463,391176.898,391181.89999985695,391193.715,391793.748,,32,cannot
screen,html.Screen,2_3_1_0_1_33,2022-04-25T17:16:30.848Z,,,,,,,,,,,,,,,,,19,,,,,,,,,,,,,,433.9519998092437,,response,,,,17,B,,,,,,Space,keypress(Space),,,,lyrical,,,,-------------- --- -------- -------- ---------- ---- -------<br>-- ---------- -- --- ----- ------ ----- ---- --------- ----<br>------- ------ -------- -- ------ ---------- ------ ---<br>------ -- -- ---- -- ---------- -------- ------ even -------<br>---- --- --------- ------- ----- --------- ---- ----- --<br>------ -------- -- ------ -- ---- ------------,392228.19999980927,392227.69999980927,391777.099,391790.09999990463,391793.748,392243.591,,33,even
screen,html.Screen,2_3_1_0_1_34,2022-04-25T17:16:31.224Z,,,,,,,,,,,,,,,,,19,,,,,,,,,,,,,,360.30899985693395,,response,,,,17,B,,,,,,Space,keypress(Space),,,,lyrical,,,,-------------- --- -------- -------- ---------- ---- -------<br>-- ---------- -- --- ----- ------ ----- ---- --------- ----<br>------- ------ -------- -- ------ ---------- ------ ---<br>------ -- -- ---- -- ---------- -------- ------ ---- predict<br>---- --- --------- ------- ----- --------- ---- ----- --<br>------ -------- -- ------ -- ---- ------------,392604.39999985695,392603.89999985695,392227.059,392228.2999999523,392243.591,392610.222,,34,predict
screen,html.Screen,2_3_1_0_1_35,2022-04-25T17:16:31.632Z,,,,,,,,,,,,,,,,,19,,,,,,,,,,,,,,401.57799995230744,,response,,,,17,B,,,,,,Space,keypress(Space),,,,lyrical,,,,-------------- --- -------- -------- ---------- ---- -------<br>-- ---------- -- --- ----- ------ ----- ---- --------- ----<br>------- ------ -------- -- ------ ---------- ------ ---<br>------ -- -- ---- -- ---------- -------- ------ ---- -------<br>with --- --------- ------- ----- --------- ---- ----- --<br>------ -------- -- ------ -- ---- ------------,393012.2999999523,393011.7999999523,392593.543,392604.5,392610.222,393026.87,,35,with
screen,html.Screen,2_3_1_0_1_36,2022-04-25T17:16:31.992Z,,,,,,,,,,,,,,,,,19,,,,,,,,,,,,,,344.8299998092698,,response,,,,17,B,,,,,,Space,keypress(Space),,,,lyrical,,,,-------------- --- -------- -------- ---------- ---- -------<br>-- ---------- -- --- ----- ------ ----- ---- --------- ----<br>------- ------ -------- -- ------ ---------- ------ ---<br>------ -- -- ---- -- ---------- -------- ------ ---- -------<br>---- any --------- ------- ----- --------- ---- ----- --<br>------ -------- -- ------ -- ---- ------------,393372.09999990463,393371.69999980927,393010.242,393012.2999999523,393026.87,393376.866,,36,any
screen,html.Screen,2_3_1_0_1_37,2022-04-25T17:16:32.344Z,,,,,,,,,,,,,,,,,19,,,,,,,,,,,,,,347.0339998569689,,response,,,,17,B,,,,,,Space,keypress(Space),,,,lyrical,,,,-------------- --- -------- -------- ---------- ---- -------<br>-- ---------- -- --- ----- ------ ----- ---- --------- ----<br>------- ------ -------- -- ------ ---------- ------ ---<br>------ -- -- ---- -- ---------- -------- ------ ---- -------<br>---- --- certainty ------- ----- --------- ---- ----- --<br>------ -------- -- ------ -- ---- ------------,393724.5,393723.89999985695,393360.183,393372.19999980927,393376.866,393726.864,,37,certainty
screen,html.Screen,2_3_1_0_1_38,2022-04-25T17:16:32.792Z,,,,,,,,,,,,,,,,,19,,,,,,,,,,,,,,444.83599980926374,,response,,,,17,B,,,,,,Space,keypress(Space),,,,lyrical,,,,-------------- --- -------- -------- ---------- ---- -------<br>-- ---------- -- --- ----- ------ ----- ---- --------- ----<br>------- ------ -------- -- ------ ---------- ------ ---<br>------ -- -- ---- -- ---------- -------- ------ ---- -------<br>---- --- --------- whether ----- --------- ---- ----- --<br>------ -------- -- ------ -- ---- ------------,394172.19999980927,394171.69999980927,393710.181,393724.59999990463,393726.864,394176.875,,38,whether
