sender,sender_type,sender_id,timestamp,meta,,Blues,Classical,Country,Dance,Electronic,Folk,Gospel,Hip-Hop,Jazz,Latin,Musical/Film,New-age,Pop,Prolific_id,Provo_ID,R&B,Rap,Reggae,Religious,Rock,Soul,Swing,Traditional,age,artist_name,correct,correctResponse,distraction,duration,education,ended_on,familiarity,gender,headphone_check_performance,item,list,music_frequency,offensiveness,pleasantness,position_correct,preference,response,response_action,snippet_file,song_name,song_rating,sound,stimulus_1,stimulus_2,stimulus_3,text,time_commit,time_end,time_render,time_run,time_show,time_switch,url,word,word_ID
Prolific ID,html.Form,0,2022-04-30T11:34:54.218Z,"{""labjs_version"":""20.2.2"",""labjs_build"":{""flavor"":""production"",""commit"":""a25486e0c714a0ae2ce03ff94b7bb6896854dcfa""},""location"":""https://run.pavlovia.org/mvasilev/prolific3_music_e/"",""userAgent"":""Mozilla/5.0 (Windows NT 10.0; Win64; x64) AppleWebKit/537.36 (KHTML, like Gecko) Chrome/101.0.4951.41 Safari/537.36"",""platform"":""Win32"",""language"":""en-GB"",""locale"":""en-GB"",""timeZone"":""Europe/London"",""timezoneOffset"":-60,""screen_width"":1920,""screen_height"":1080,""scroll_width"":1920,""scroll_height"":889,""window_innerWidth"":1920,""window_innerHeight"":937,""devicePixelRatio"":1}",,,,,,,,,,,,,,,5a8aaec48fe2dc00010625fe,,,,,,,,,,,,,,,18621.873999952317,,form submission,,,,,,,,,,,,,,,,,,,,,49096.5,49095.799999952316,30374.445,30373.5,30473.926,49104.622,{},,
Introduction,html.Screen,1_0,2022-04-30T11:36:32.493Z,,,,,,,,,,,,,,,,,,,,,,,,,,,,,,,98253.27799985695,,response,,,,,,,,,,,continue,click button,,,,,,,,,147361.19999980927,147357.89999985695,49087.971,49097,49104.622,147374.078,,,
Volume calibration,html.Screen,1_1,2022-04-30T11:36:44.760Z,,,,,,,,,,,,,,,,,,,,,,,,,,,,,,,12249.721999952308,,response,,,,,,,,,,,continue,click button,,,,,,,,,159628.29999995232,159623.79999995232,147357.444,147361.39999985695,147374.078,159638.975,,,
Task instructions,html.Screen,1_2,2022-04-30T11:36:48.552Z,,,,,,,,,,,,,,,,,,,,,,,,,,,,,,,3780.8249999523105,,response,,,,,,,,,,,continue,click button,,,,,,,,,163420.89999985695,163419.79999995232,159622.348,159628.39999985695,159638.975,163421.788,,,
Sounds,html.Screen,1_3_0_0,2022-04-30T11:36:52.789Z,,,,,,,,,,,,,,,,,,,,,,,,,,,,,,,4249.496000000014,,timeout,,,,,,,,,1,,,,,,,,S,O,I,,167658,167654.555,163405.43,163421.09999990463,163421.788,167671.284,,,
Judgement,html.Screen,1_3_0_1,2022-04-30T11:36:54.356Z,,,,,,,,,,,,,,,,,,,,,,,,,,,,true,1,,1551.515999952302,,response,,,,,,,,,1,,1,click #choice-1,,,,,S,O,I,,169224.29999995232,169222.79999995232,167654.555,167658.29999995232,167671.284,169237.661,,,
Trial,flow.Sequence,1_3_0,2022-04-30T11:36:54.356Z,,,,,,,,,,,,,,,,,,,,,,,,,,,,,,,5801.011999952316,,completion,,,,,,,,,1,,,,,,,,S,O,I,,169224.59999990463,169222.79999995232,163405.43,163421,163421.788,169237.661,,,
Sounds,html.Screen,1_3_1_0,2022-04-30T11:36:58.609Z,,,,,,,,,,,,,,,,,,,,,,,,,,,,,,,4249.402000000002,,timeout,,,,,,,,,2,,,,,,,,O,S,I,,173477.69999980927,173470.393,169221.003,169225.09999990463,169237.661,173487.063,,,
Judgement,html.Screen,1_3_1_1,2022-04-30T11:36:59.260Z,,,,,,,,,,,,,,,,,,,,,,,,,,,,true,2,,639.8369998569542,,response,,,,,,,,,2,,2,click #choice-2,,,,,O,S,I,,174128.69999980927,174126.89999985695,173470.393,173477.89999985695,173487.063,174136.873,,,
Trial,flow.Sequence,1_3_1,2022-04-30T11:36:59.260Z,,,,,,,,,,,,,,,,,,,,,,,,,,,,,,,4889.238999856956,,completion,,,,,,,,,2,,,,,,,,O,S,I,,174128.89999985695,174126.89999985695,169221.003,169224.59999990463,169237.661,174136.873,,,
Sounds,html.Screen,1_3_2_0,2022-04-30T11:37:03.503Z,,,,,,,,,,,,,,,,,,,,,,,,,,,,,,,4249.437999999995,,timeout,,,,,,,,,3,,,,,,,,I,O,S,,178371.59999990463,178370.207,174120.319,174129,174136.873,178386.311,,,
Judgement,html.Screen,1_3_2_1,2022-04-30T11:37:04.028Z,,,,,,,,,,,,,,,,,,,,,,,,,,,,true,3,,509.3889998092782,,response,,,,,,,,,3,,3,click #choice-3,,,,,I,O,S,,178897.09999990463,178895.69999980927,178370.207,178371.79999995232,178386.311,178902.901,,,
Trial,flow.Sequence,1_3_2,2022-04-30T11:37:04.029Z,,,,,,,,,,,,,,,,,,,,,,,,,,,,,,,4758.826999809273,,completion,,,,,,,,,3,,,,,,,,I,O,S,,178897.29999995232,178895.69999980927,174120.319,174129,174136.873,178902.901,,,
Sounds,html.Screen,1_3_3_0,2022-04-30T11:37:08.269Z,,,,,,,,,,,,,,,,,,,,,,,,,,,,,,,4249.459999999992,,timeout,,,,,,,,,3,,,,,,,,O,I,S,,183137.39999985695,183135.682,178886.307,178897.5,178902.901,183152.361,,,
Judgement,html.Screen,1_3_3_1,2022-04-30T11:37:08.757Z,,,,,,,,,,,,,,,,,,,,,,,,,,,,true,3,,471.3389998092607,,response,,,,,,,,,3,,3,click #choice-3,,,,,O,I,S,,183625.19999980927,183623.69999980927,183135.682,183137.59999990463,183152.361,183635.629,,,
Trial,flow.Sequence,1_3_3,2022-04-30T11:37:08.757Z,,,,,,,,,,,,,,,,,,,,,,,,,,,,,,,4720.798999809253,,completion,,,,,,,,,3,,,,,,,,O,I,S,,183625.69999980927,183623.69999980927,178886.307,178897.39999985695,178902.901,183635.629,,,
Sounds,html.Screen,1_3_4_0,2022-04-30T11:37:13.001Z,,,,,,,,,,,,,,,,,,,,,,,,,,,,,,,4249.34600000002,,timeout,,,,,,,,,1,,,,,,,,S,I,O,,187869.59999990463,187868.677,183618.973,183625.89999985695,183635.629,187884.975,,,
Judgement,html.Screen,1_3_4_1,2022-04-30T11:37:13.606Z,,,,,,,,,,,,,,,,,,,,,,,,,,,,true,1,,587.7249998092593,,response,,,,,,,,,1,,1,click #choice-1,,,,,S,I,O,,188474.19999980927,188472.69999980927,187868.677,187869.69999980927,187884.975,188484.879,,,
Trial,flow.Sequence,1_3_4,2022-04-30T11:37:13.606Z,,,,,,,,,,,,,,,,,,,,,,,,,,,,,,,4837.070999809279,,completion,,,,,,,,,1,,,,,,,,S,I,O,,188474.39999985695,188472.69999980927,183618.973,183625.79999995232,183635.629,188484.879,,,
Sounds,html.Screen,1_3_5_0,2022-04-30T11:37:17.851Z,,,,,,,,,,,,,,,,,,,,,,,,,,,,,,,4249.420000000013,,timeout,,,,,,,,,2,,,,,,,,I,S,O,,192719.39999985695,192718.234,188468.298,188474.5,188484.879,192734.299,,,
Judgement,html.Screen,1_3_5_1,2022-04-30T11:37:18.382Z,,,,,,,,,,,,,,,,,,,,,,,,,,,,true,2,,514.5009999523172,,response,,,,,,,,,2,,2,click #choice-2,,,,,I,S,O,,193250.29999995232,193248.79999995232,192718.234,192719.59999990463,192734.299,193250.906,,,
Trial,flow.Sequence,1_3_5,2022-04-30T11:37:18.382Z,,,,,,,,,,,,,,,,,,,,,,,,,,,,,,,4763.92099995233,,completion,,,,,,,,,2,,,,,,,,I,S,O,,193250.59999990463,193248.79999995232,188468.298,188474.39999985695,188484.879,193250.906,,,
Task,flow.Loop,1_3,2022-04-30T11:37:18.388Z,,,,,,,,,,,,,,,,,,,,,,,,,,,,,,,29827.011999952316,,completion,,,1,,,,,,,,,,,,,,,,,,193256.19999980927,193248.79999995232,163405.43,163421,163421.788,193250.906,,,
Trap,html.Screen,1_4,2022-04-30T11:37:18.389Z,,,,,,,,,,,,,,,,,,,,,,,,,,,,,,,NaN,,skipped,,,,,,,,,,,,,,,,,,,,,193257.79999995232,193248.79999995232,,193257.69999980927,,193250.906,,,
Thanks,html.Screen,1_5,2022-04-30T11:37:21.094Z,,,,,,,,,,,,,,,,,,,,,,,,,,,,,,,2710.793999809277,,response,,,,,,,,,,,continue,click button,,,,,,,,,195963.09999990463,195961.69999980927,193234.279,193258.09999990463,193250.906,198316.914,,,
Headphone screening,flow.Sequence,1,2022-04-30T11:37:21.095Z,,,,,,,,,,,,,,,,,,,,,,,,,,,,,,,146857.07799980926,,completion,,,,,,,,,,,,,,,,,,,,,195963.39999985695,195961.69999980927,49087.971,49096.89999985695,49104.622,198316.914,,,
Instructions,html.Page,2_0,2022-04-30T11:37:37.850Z,,,,,,,,,,,,,,,,,,,,,,,,,,,,,,,14398.185999904643,,form submission,,,,,,,,,,,,,,,,,,,,,212715.59999990463,212715.09999990463,198300.224,198316.89999985695,198316.914,212739.727,,,
Holding screen,html.Screen,2_1_0_0,2022-04-30T11:37:47.849Z,,,,,,,,,,,,,,,,,,,,,,,,,,,,,,,10040.371999999974,,timeout,,,,,,,,,,,,,,,,,,,,,222714.69999980927,222713.948,212698.194,212715.79999995232,212739.727,222780.099,,,
screen,html.Screen,2_1_0_1_0,2022-04-30T11:37:48.928Z,,,,,,,,,,,,,,,,,53,,,,,,,,,,,,,,1010.8009998569614,,response,,,,99,,,,,,,Space,keypress(Space),,,,,,,,When -- ----- -- ------ - ------- --- ----------<br>------------- ------ ------ ---- ---- ------- ----- -- ----<br>-------- ------- -- ---------- --- - --- ----- ----- ----<br>---- --- --- ----- --- ---- ---- ------- ----- ---- -------<br>--- --- -- ----- -- --- ---- -- --- ---- -- ------ ------<br>--- ----- -- ----,223794.09999990463,223790.89999985695,222713.948,222715,222780.099,223796.62,,0,When
screen,html.Screen,2_1_0_1_1,2022-04-30T11:37:49.314Z,,,,,,,,,,,,,,,,,53,,,,,,,,,,,,,,381.88000000000466,,response,,,,99,,,,,,,Space,keypress(Space),,,,,,,,---- it ----- -- ------ - ------- --- ----------<br>------------- ------ ------ ---- ---- ------- ----- -- ----<br>-------- ------- -- ---------- --- - --- ----- ----- ----<br>---- --- --- ----- --- ---- ---- ------- ----- ---- -------<br>--- --- -- ----- -- --- ---- -- --- ---- -- ------ ------<br>--- ----- -- ----,224179.39999985695,224178.5,223780.048,223794.29999995232,223796.62,224196.571,,1,it
screen,html.Screen,2_1_0_1_2,2022-04-30T11:37:49.722Z,,,,,,,,,,,,,,,,,53,,,,,,,,,,,,,,390.72899995232,,response,,,,99,,,,,,,Space,keypress(Space),,,,,,,,---- -- comes -- ------ - ------- --- ----------<br>------------- ------ ------ ---- ---- ------- ----- -- ----<br>-------- ------- -- ---------- --- - --- ----- ----- ----<br>---- --- --- ----- --- ---- ---- ------- ----- ---- -------<br>--- --- -- ----- -- --- ---- -- --- ---- -- ------ ------<br>--- ----- -- ----,224588.09999990463,224587.29999995232,224179.934,224179.5,224196.571,224596.435,,2,comes
screen,html.Screen,2_1_0_1_3,2022-04-30T11:37:50.121Z,,,,,,,,,,,,,,,,,53,,,,,,,,,,,,,,389.6649999046349,,response,,,,99,,,,,,,Space,keypress(Space),,,,,,,,---- -- ----- to ------ - ------- --- ----------<br>------------- ------ ------ ---- ---- ------- ----- -- ----<br>-------- ------- -- ---------- --- - --- ----- ----- ----<br>---- --- --- ----- --- ---- ---- ------- ----- ---- -------<br>--- --- -- ----- -- --- ---- -- --- ---- -- ------ ------<br>--- ----- -- ----,224987.09999990463,224986.09999990463,224579.863,224589.29999995232,224596.435,224996.38,,3,to
screen,html.Screen,2_1_0_1_4,2022-04-30T11:37:50.502Z,,,,,,,,,,,,,,,,,53,,,,,,,,,,,,,,370.9199999523116,,response,,,,99,,,,,,,Space,keypress(Space),,,,,,,,---- -- ----- -- having - ------- --- ----------<br>------------- ------ ------ ---- ---- ------- ----- -- ----<br>-------- ------- -- ---------- --- - --- ----- ----- ----<br>---- --- --- ----- --- ---- ---- ------- ----- ---- -------<br>--- --- -- ----- -- --- ---- -- --- ---- -- ------ ------<br>--- ----- -- ----,225368.09999990463,225367.29999995232,224980.127,224987.19999980927,224996.38,225379.714,,4,having
screen,html.Screen,2_1_0_1_5,2022-04-30T11:37:50.892Z,,,,,,,,,,,,,,,,,53,,,,,,,,,,,,,,377.18599985694163,,response,,,,99,,,,,,,Space,keypress(Space),,,,,,,,---- -- ----- -- ------ a ------- --- ----------<br>------------- ------ ------ ---- ---- ------- ----- -- ----<br>-------- ------- -- ---------- --- - --- ----- ----- ----<br>---- --- --- ----- --- ---- ---- ------- ----- ---- -------<br>--- --- -- ----- -- --- ---- -- --- ---- -- ------ ------<br>--- ----- -- ----,225757.79999995232,225756.89999985695,225363.419,225368.19999980927,225379.714,225762.987,,5,a
screen,html.Screen,2_1_0_1_6,2022-04-30T11:37:51.293Z,,,,,,,,,,,,,,,,,53,,,,,,,,,,,,,,395.2129998092714,,response,,,,99,,,,,,,Space,keypress(Space),,,,,,,,---- -- ----- -- ------ - lasting --- ----------<br>------------- ------ ------ ---- ---- ------- ----- -- ----<br>-------- ------- -- ---------- --- - --- ----- ----- ----<br>---- --- --- ----- --- ---- ---- ------- ----- ---- -------<br>--- --- -- ----- -- --- ---- -- --- ---- -- ------ ------<br>--- ----- -- ----,226159.09999990463,226158.19999980927,225746.341,225757.89999985695,225762.987,226162.943,,6,lasting
screen,html.Screen,2_1_0_1_7,2022-04-30T11:37:51.672Z,,,,,,,,,,,,,,,,,53,,,,,,,,,,,,,,373.856999952317,,response,,,,99,,,,,,,Space,keypress(Space),,,,,,,,---- -- ----- -- ------ - ------- and ----------<br>------------- ------ ------ ---- ---- ------- ----- -- ----<br>-------- ------- -- ---------- --- - --- ----- ----- ----<br>---- --- --- ----- --- ---- ---- ------- ----- ---- -------<br>--- --- -- ----- -- --- ---- -- --- ---- -- ------ ------<br>--- ----- -- ----,226537.79999995232,226536.79999995232,226146.364,226159.29999995232,226162.943,226546.187,,7,and
screen,html.Screen,2_1_0_1_8,2022-04-30T11:37:52.101Z,,,,,,,,,,,,,,,,,53,,,,,,,,,,,,,,419.9129999046272,,response,,,,99,,,,,,,Space,keypress(Space),,,,,,,,---- -- ----- -- ------ - ------- --- fulfilling<br>------------- ------ ------ ---- ---- ------- ----- -- ----<br>-------- ------- -- ---------- --- - --- ----- ----- ----<br>---- --- --- ----- --- ---- ---- ------- ----- ---- -------<br>--- --- -- ----- -- --- ---- -- --- ---- -- ------ ------<br>--- ----- -- ----,226967,226966.09999990463,226529.654,226538,226546.187,226979.772,,8,fulfilling
screen,html.Screen,2_1_0_1_9,2022-04-30T11:37:52.531Z,,,,,,,,,,,,,,,,,53,,,,,,,,,,,,,,415.5279999523191,,response,,,,99,,,,,,,Space,keypress(Space),,,,,,,,"---- -- ----- -- ------ - ------- --- ----------<br>relationship, ------ ------ ---- ---- ------- ----- -- ----<br>-------- ------- -- ---------- --- - --- ----- ----- ----<br>---- --- --- ----- --- ---- ---- ------- ----- ---- -------<br>--- --- -- ----- -- --- ---- -- --- ---- -- ------ ------<br>--- ----- -- ----",227396.59999990463,227395.29999995232,226963.196,226967.09999990463,226979.772,227412.736,,9,"relationship,"
screen,html.Screen,2_1_0_1_10,2022-04-30T11:37:52.931Z,,,,,,,,,,,,,,,,,53,,,,,,,,,,,,,,382.66399985694443,,response,,,,99,,,,,,,Space,keypress(Space),,,,,,,,---- -- ----- -- ------ - ------- --- ----------<br>------------- common ------ ---- ---- ------- ----- -- ----<br>-------- ------- -- ---------- --- - --- ----- ----- ----<br>---- --- --- ----- --- ---- ---- ------- ----- ---- -------<br>--- --- -- ----- -- --- ---- -- --- ---- -- ------ ------<br>--- ----- -- ----,227796.5,227795.39999985695,227396.17,227396.69999980927,227412.736,227813.132,,10,common
screen,html.Screen,2_1_0_1_11,2022-04-30T11:37:53.338Z,,,,,,,,,,,,,,,,,53,,,,,,,,,,,,,,389.9679999046202,,response,,,,99,,,,,,,Space,keypress(Space),,,,,,,,---- -- ----- -- ------ - ------- --- ----------<br>------------- ------ wisdom ---- ---- ------- ----- -- ----<br>-------- ------- -- ---------- --- - --- ----- ----- ----<br>---- --- --- ----- --- ---- ---- ------- ----- ---- -------<br>--- --- -- ----- -- --- ---- -- --- ---- -- ------ ------<br>--- ----- -- ----,228204.09999990463,228203.09999990463,227796.088,227796.69999980927,227813.132,228212.632,,11,wisdom
screen,html.Screen,2_1_0_1_12,2022-04-30T11:37:53.706Z,,,,,,,,,,,,,,,,,53,,,,,,,,,,,,,,357.86799999998766,,response,,,,99,,,,,,,Space,keypress(Space),,,,,,,,---- -- ----- -- ------ - ------- --- ----------<br>------------- ------ ------ says ---- ------- ----- -- ----<br>-------- ------- -- ---------- --- - --- ----- ----- ----<br>---- --- --- ----- --- ---- ---- ------- ----- ---- -------<br>--- --- -- ----- -- --- ---- -- --- ---- -- ------ ------<br>--- ----- -- ----,228571.5,228570.5,228196.304,228204.29999995232,228212.632,228579.208,,12,says
screen,html.Screen,2_1_0_1_13,2022-04-30T11:37:54.081Z,,,,,,,,,,,,,,,,,53,,,,,,,,,,,,,,366.49199980925187,,response,,,,99,,,,,,,Space,keypress(Space),,,,,,,,---- -- ----- -- ------ - ------- --- ----------<br>------------- ------ ------ ---- that ------- ----- -- ----<br>-------- ------- -- ---------- --- - --- ----- ----- ----<br>---- --- --- ----- --- ---- ---- ------- ----- ---- -------<br>--- --- -- ----- -- --- ---- -- --- ---- -- ------ ------<br>--- ----- -- ----,228946.89999985695,228945.69999980927,228562.94,228571.59999990463,228579.208,228962.537,,13,that
screen,html.Screen,2_1_0_1_14,2022-04-30T11:37:54.389Z,,,,,,,,,,,,,,,,,53,,,,,,,,,,,,,,291.2629999523051,,response,,,,99,,,,,,,Space,keypress(Space),,,,,,,,---- -- ----- -- ------ - ------- --- ----------<br>------------- ------ ------ ---- ---- feeling ----- -- ----<br>-------- ------- -- ---------- --- - --- ----- ----- ----<br>---- --- --- ----- --- ---- ---- ------- ----- ---- -------<br>--- --- -- ----- -- --- ---- -- --- ---- -- ------ ------<br>--- ----- -- ----,229254.79999995232,229253.79999995232,228945.959,228947,228962.537,229262.433,,14,feeling
screen,html.Screen,2_1_0_1_15,2022-04-30T11:37:54.751Z,,,,,,,,,,,,,,,,,53,,,,,,,,,,,,,,353.56700000001,,response,,,,99,,,,,,,Space,keypress(Space),,,,,,,,---- -- ----- -- ------ - ------- --- ----------<br>------------- ------ ------ ---- ---- ------- close -- ----<br>-------- ------- -- ---------- --- - --- ----- ----- ----<br>---- --- --- ----- --- ---- ---- ------- ----- ---- -------<br>--- --- -- ----- -- --- ---- -- --- ---- -- ------ ------<br>--- ----- -- ----,229616.89999985695,229616,229245.89,229255,229262.433,229629.409,,15,close
screen,html.Screen,2_1_0_1_16,2022-04-30T11:37:55.101Z,,,,,,,,,,,,,,,,,53,,,,,,,,,,,,,,336.3909999523021,,response,,,,99,,,,,,,Space,keypress(Space),,,,,,,,---- -- ----- -- ------ - ------- --- ----------<br>------------- ------ ------ ---- ---- ------- ----- to ----<br>-------- ------- -- ---------- --- - --- ----- ----- ----<br>---- --- --- ----- --- ---- ---- ------- ----- ---- -------<br>--- --- -- ----- -- --- ---- -- --- ---- -- ------ ------<br>--- ----- -- ----,229966.79999995232,229965.79999995232,229612.422,229617.09999990463,229629.409,229979.364,,16,to
screen,html.Screen,2_1_0_1_17,2022-04-30T11:37:55.531Z,,,,,,,,,,,,,,,,,53,,,,,,,,,,,,,,416.33599980926374,,response,,,,99,,,,,,,Space,keypress(Space),,,,,,,,---- -- ----- -- ------ - ------- --- ----------<br>------------- ------ ------ ---- ---- ------- ----- -- your<br>-------- ------- -- ---------- --- - --- ----- ----- ----<br>---- --- --- ----- --- ---- ---- ------- ----- ---- -------<br>--- --- -- ----- -- --- ---- -- --- ---- -- ------ ------<br>--- ----- -- ----,230396.59999990463,230395.69999980927,229962.416,229967,229979.364,230412.339,,17,your
screen,html.Screen,2_1_0_1_18,2022-04-30T11:37:55.943Z,,,,,,,,,,,,,,,,,53,,,,,,,,,,,,,,395.3609998092579,,response,,,,99,,,,,,,Space,keypress(Space),,,,,,,,---- -- ----- -- ------ - ------- --- ----------<br>------------- ------ ------ ---- ---- ------- ----- -- ----<br>romantic ------- -- ---------- --- - --- ----- ----- ----<br>---- --- --- ----- --- ---- ---- ------- ----- ---- -------<br>--- --- -- ----- -- --- ---- -- --- ---- -- ------ ------<br>--- ----- -- ----,230808.79999995232,230807.69999980927,230396.014,230396.69999980927,230412.339,230812.304,,18,romantic
screen,html.Screen,2_1_0_1_19,2022-04-30T11:37:56.342Z,,,,,,,,,,,,,,,,,53,,,,,,,,,,,,,,394.99599995231256,,response,,,,99,,,,,,,Space,keypress(Space),,,,,,,,---- -- ----- -- ------ - ------- --- ----------<br>------------- ------ ------ ---- ---- ------- ----- -- ----<br>-------- partner -- ---------- --- - --- ----- ----- ----<br>---- --- --- ----- --- ---- ---- ------- ----- ---- -------<br>--- --- -- ----- -- --- ---- -- --- ---- -- ------ ------<br>--- ----- -- ----,231208.19999980927,231207.29999995232,230795.638,230809,230812.304,231212.242,,19,partner
screen,html.Screen,2_1_0_1_20,2022-04-30T11:37:56.566Z,,,,,,,,,,,,,,,,,53,,,,,,,,,,,,,,218.75800000000163,,response,,,,99,,,,,,,Space,keypress(Space),,,,,,,,---- -- ----- -- ------ - ------- --- ----------<br>------------- ------ ------ ---- ---- ------- ----- -- ----<br>-------- ------- is ---------- --- - --- ----- ----- ----<br>---- --- --- ----- --- ---- ---- ------- ----- ---- -------<br>--- --- -- ----- -- --- ---- -- --- ---- -- ------ ------<br>--- ----- -- ----,231432.09999990463,231431,231195.641,231208.69999980927,231212.242,231445.508,,20,is
screen,html.Screen,2_1_0_1_21,2022-04-30T11:37:57.349Z,,,,,,,,,,,,,,,,,53,,,,,,,,,,,,,,768.7919999523147,,response,,,,99,,,,,,,Space,keypress(Space),,,,,,,,---- -- ----- -- ------ - ------- --- ----------<br>------------- ------ ------ ---- ---- ------- ----- -- ----<br>-------- ------- -- paramount. --- - --- ----- ----- ----<br>---- --- --- ----- --- ---- ---- ------- ----- ---- -------<br>--- --- -- ----- -- --- ---- -- --- ---- -- ------ ------<br>--- ----- -- ----,232215.29999995232,232214.29999995232,231428.904,231432.29999995232,231445.508,232228.753,,21,paramount.
screen,html.Screen,2_1_0_1_22,2022-04-30T11:37:57.856Z,,,,,,,,,,,,,,,,,53,,,,,,,,,,,,,,491.6469998569519,,response,,,,99,,,,,,,Space,keypress(Space),,,,,,,,---- -- ----- -- ------ - ------- --- ----------<br>------------- ------ ------ ---- ---- ------- ----- -- ----<br>-------- ------- -- ---------- But - --- ----- ----- ----<br>---- --- --- ----- --- ---- ---- ------- ----- ---- -------<br>--- --- -- ----- -- --- ---- -- --- ---- -- ------ ------<br>--- ----- -- ----,232721.39999985695,232720.39999985695,232212.196,232215.39999985695,232228.753,232728.707,,22,But
screen,html.Screen,2_1_0_1_23,2022-04-30T11:37:57.887Z,,,,,,,,,,,,,,,,,53,,,,,,,,,,,,,,23.092999952321406,,response,,,,99,,,,,,,Space,keypress(Space),,,,,,,,---- -- ----- -- ------ - ------- --- ----------<br>------------- ------ ------ ---- ---- ------- ----- -- ----<br>-------- ------- -- ---------- --- a --- ----- ----- ----<br>---- --- --- ----- --- ---- ---- ------- ----- ---- -------<br>--- --- -- ----- -- --- ---- -- --- ---- -- ------ ------<br>--- ----- -- ----,232752.79999995232,232751.79999995232,232712.062,232721.59999990463,232728.707,232762.305,,23,a
screen,html.Screen,2_1_0_1_24,2022-04-30T11:37:58.660Z,,,,,,,,,,,,,,,,,53,,,,,,,,,,,,,,762.9949999523233,,response,,,,99,,,,,,,Space,keypress(Space),,,,,,,,---- -- ----- -- ------ - ------- --- ----------<br>------------- ------ ------ ---- ---- ------- ----- -- ----<br>-------- ------- -- ---------- --- - new ----- ----- ----<br>---- --- --- ----- --- ---- ---- ------- ----- ---- -------<br>--- --- -- ----- -- --- ---- -- --- ---- -- ------ ------<br>--- ----- -- ----,233526.09999990463,233525.29999995232,232746.024,232753,232762.305,233528.569,,24,new
screen,html.Screen,2_1_0_1_25,2022-04-30T11:37:59.088Z,,,,,,,,,,,,,,,,,53,,,,,,,,,,,,,,424.030999904644,,response,,,,99,,,,,,,Space,keypress(Space),,,,,,,,---- -- ----- -- ------ - ------- --- ----------<br>------------- ------ ------ ---- ---- ------- ----- -- ----<br>-------- ------- -- ---------- --- - --- study ----- ----<br>---- --- --- ----- --- ---- ---- ------- ----- ---- -------<br>--- --- -- ----- -- --- ---- -- --- ---- -- ------ ------<br>--- ----- -- ----,233953.39999985695,233952.59999990463,233512.258,233526.29999995232,233528.569,233961.774,,25,study
screen,html.Screen,2_1_0_1_26,2022-04-30T11:37:59.408Z,,,,,,,,,,,,,,,,,53,,,,,,,,,,,,,,311.3259999046277,,response,,,,99,,,,,,,Space,keypress(Space),,,,,,,,---- -- ----- -- ------ - ------- --- ----------<br>------------- ------ ------ ---- ---- ------- ----- -- ----<br>-------- ------- -- ---------- --- - --- ----- finds ----<br>---- --- --- ----- --- ---- ---- ------- ----- ---- -------<br>--- --- -- ----- -- --- ---- -- --- ---- -- ------ ------<br>--- ----- -- ----,234274,234273.09999990463,233945.256,233953.59999990463,233961.774,234278.468,,26,finds
screen,html.Screen,2_1_0_1_27,2022-04-30T11:37:59.749Z,,,,,,,,,,,,,,,,,53,,,,,,,,,,,,,,336.0320000000065,,response,,,,99,,,,,,,Space,keypress(Space),,,,,,,,---- -- ----- -- ------ - ------- --- ----------<br>------------- ------ ------ ---- ---- ------- ----- -- ----<br>-------- ------- -- ---------- --- - --- ----- ----- that<br>---- --- --- ----- --- ---- ---- ------- ----- ---- -------<br>--- --- -- ----- -- --- ---- -- --- ---- -- ------ ------<br>--- ----- -- ----,234615.29999995232,234614.5,234261.854,234274.09999990463,234278.468,234628.705,,27,that
screen,html.Screen,2_1_0_1_28,2022-04-30T11:38:00.167Z,,,,,,,,,,,,,,,,,53,,,,,,,,,,,,,,402.69499985696166,,response,,,,99,,,,,,,Space,keypress(Space),,,,,,,,---- -- ----- -- ------ - ------- --- ----------<br>------------- ------ ------ ---- ---- ------- ----- -- ----<br>-------- ------- -- ---------- --- - --- ----- ----- ----<br>it's --- --- ----- --- ---- ---- ------- ----- ---- -------<br>--- --- -- ----- -- --- ---- -- --- ---- -- ------ ------<br>--- ----- -- ----,235032.39999985695,235031.39999985695,234611.831,234615.39999985695,234628.705,235045.294,,28,it's
screen,html.Screen,2_1_0_1_29,2022-04-30T11:38:00.508Z,,,,,,,,,,,,,,,,,53,,,,,,,,,,,,,,327.80599990463816,,response,,,,99,,,,,,,Space,keypress(Space),,,,,,,,---- -- ----- -- ------ - ------- --- ----------<br>------------- ------ ------ ---- ---- ------- ----- -- ----<br>-------- ------- -- ---------- --- - --- ----- ----- ----<br>---- not --- ----- --- ---- ---- ------- ----- ---- -------<br>--- --- -- ----- -- --- ---- -- --- ---- -- ------ ------<br>--- ----- -- ----,235374,235373.09999990463,235028.677,235032.59999990463,235045.294,235378.304,,29,not
screen,html.Screen,2_1_0_1_30,2022-04-30T11:38:00.895Z,,,,,,,,,,,,,,,,,53,,,,,,,,,,,,,,381.49599995231256,,response,,,,99,,,,,,,Space,keypress(Space),,,,,,,,---- -- ----- -- ------ - ------- --- ----------<br>------------- ------ ------ ---- ---- ------- ----- -- ----<br>-------- ------- -- ---------- --- - --- ----- ----- ----<br>---- --- how ----- --- ---- ---- ------- ----- ---- -------<br>--- --- -- ----- -- --- ---- -- --- ---- -- ------ ------<br>--- ----- -- ----,235760.59999990463,235759.79999995232,235362.396,235374.19999980927,235378.304,235793.507,,30,how
screen,html.Screen,2_1_0_1_31,2022-04-30T11:38:01.254Z,,,,,,,,,,,,,,,,,53,,,,,,,,,,,,,,325.6929998092528,,response,,,,99,,,,,,,Space,keypress(Space),,,,,,,,---- -- ----- -- ------ - ------- --- ----------<br>------------- ------ ------ ---- ---- ------- ----- -- ----<br>-------- ------- -- ---------- --- - --- ----- ----- ----<br>---- --- --- close --- ---- ---- ------- ----- ---- -------<br>--- --- -- ----- -- --- ---- -- --- ---- -- ------ ------<br>--- ----- -- ----,236120,236119.19999980927,235744.978,235760.79999995232,235793.507,236128.376,,31,close
screen,html.Screen,2_1_0_1_32,2022-04-30T11:38:01.520Z,,,,,,,,,,,,,,,,,53,,,,,,,,,,,,,,256.52399985695956,,response,,,,99,,,,,,,Space,keypress(Space),,,,,,,,---- -- ----- -- ------ - ------- --- ----------<br>------------- ------ ------ ---- ---- ------- ----- -- ----<br>-------- ------- -- ---------- --- - --- ----- ----- ----<br>---- --- --- ----- you ---- ---- ------- ----- ---- -------<br>--- --- -- ----- -- --- ---- -- --- ---- -- ------ ------<br>--- ----- -- ----,236385.79999995232,236384.89999985695,236111.559,236120.19999980927,236128.376,236394.807,,32,you
screen,html.Screen,2_1_0_1_33,2022-04-30T11:38:01.835Z,,,,,,,,,,,,,,,,,53,,,,,,,,,,,,,,304.9929999523156,,response,,,,99,,,,,,,Space,keypress(Space),,,,,,,,---- -- ----- -- ------ - ------- --- ----------<br>------------- ------ ------ ---- ---- ------- ----- -- ----<br>-------- ------- -- ---------- --- - --- ----- ----- ----<br>---- --- --- ----- --- feel ---- ------- ----- ---- -------<br>--- --- -- ----- -- --- ---- -- --- ---- -- ------ ------<br>--- ----- -- ----,236700.69999980927,236699.79999995232,236378.235,236386,236394.807,236711.438,,33,feel
screen,html.Screen,2_1_0_1_34,2022-04-30T11:38:02.127Z,,,,,,,,,,,,,,,,,53,,,,,,,,,,,,,,280.7619998092705,,response,,,,99,,,,,,,Space,keypress(Space),,,,,,,,---- -- ----- -- ------ - ------- --- ----------<br>------------- ------ ------ ---- ---- ------- ----- -- ----<br>-------- ------- -- ---------- --- - --- ----- ----- ----<br>---- --- --- ----- --- ---- that ------- ----- ---- -------<br>--- --- -- ----- -- --- ---- -- --- ---- -- ------ ------<br>--- ----- -- ----,236993.09999990463,236992.19999980927,236694.836,236700.89999985695,236711.438,237018.414,,34,that
screen,html.Screen,2_1_0_1_35,2022-04-30T11:38:02.481Z,,,,,,,,,,,,,,,,,53,,,,,,,,,,,,,,327.58600000001024,,response,,,,99,,,,,,,Space,keypress(Space),,,,,,,,---- -- ----- -- ------ - ------- --- ----------<br>------------- ------ ------ ---- ---- ------- ----- -- ----<br>-------- ------- -- ---------- --- - --- ----- ----- ----<br>---- --- --- ----- --- ---- ---- matters ----- ---- -------<br>--- --- -- ----- -- --- ---- -- --- ---- -- ------ ------<br>--- ----- -- ----,237346.89999985695,237346,236978.099,236993.39999985695,237018.414,237361.391,,35,matters
screen,html.Screen,2_1_0_1_36,2022-04-30T11:38:02.834Z,,,,,,,,,,,,,,,,,53,,,,,,,,,,,,,,337.2089999046293,,response,,,,99,,,,,,,Space,keypress(Space),,,,,,,,"---- -- ----- -- ------ - ------- --- ----------<br>------------- ------ ------ ---- ---- ------- ----- -- ----<br>-------- ------- -- ---------- --- - --- ----- ----- ----<br>---- --- --- ----- --- ---- ---- ------- most, ---- -------<br>--- --- -- ----- -- --- ---- -- --- ---- -- ------ ------<br>--- ----- -- ----",237699.5,237698.59999990463,237344.756,237347,237361.391,237711.287,,36,"most,"
screen,html.Screen,2_1_0_1_37,2022-04-30T11:38:03.247Z,,,,,,,,,,,,,,,,,53,,,,,,,,,,,,,,400.6129998569377,,response,,,,99,,,,,,,Space,keypress(Space),,,,,,,,---- -- ----- -- ------ - ------- --- ----------<br>------------- ------ ------ ---- ---- ------- ----- -- ----<br>-------- ------- -- ---------- --- - --- ----- ----- ----<br>---- --- --- ----- --- ---- ---- ------- ----- it's -------<br>--- --- -- ----- -- --- ---- -- --- ---- -- ------ ------<br>--- ----- -- ----,238112.79999995232,238111.89999985695,237694.707,237700.89999985695,237711.287,238128.2,,37,it's
screen,html.Screen,2_1_0_1_38,2022-04-30T11:38:03.544Z,,,,,,,,,,,,,,,,,53,,,,,,,,,,,,,,281.09999995230464,,response,,,,99,,,,,,,Space,keypress(Space),,,,,,,,---- -- ----- -- ------ - ------- --- ----------<br>------------- ------ ------ ---- ---- ------- ----- -- ----<br>-------- ------- -- ---------- --- - --- ----- ----- ----<br>---- --- --- ----- --- ---- ---- ------- ----- ---- whether<br>--- --- -- ----- -- --- ---- -- --- ---- -- ------ ------<br>--- ----- -- ----,238410.19999980927,238409.29999995232,238111.575,238113,238128.2,238437.189,,38,whether
screen,html.Screen,2_1_0_1_39,2022-04-30T11:38:03.894Z,,,,,,,,,,,,,,,,,53,,,,,,,,,,,,,,322.11099995230325,,response,,,,99,,,,,,,Space,keypress(Space),,,,,,,,---- -- ----- -- ------ - ------- --- ----------<br>------------- ------ ------ ---- ---- ------- ----- -- ----<br>-------- ------- -- ---------- --- - --- ----- ----- ----<br>---- --- --- ----- --- ---- ---- ------- ----- ---- -------<br>you --- -- ----- -- --- ---- -- --- ---- -- ------ ------<br>--- ----- -- ----,238760.29999995232,238759.29999995232,238395.053,238410.39999985695,238437.189,238794.489,,39,you
screen,html.Screen,2_1_0_1_40,2022-04-30T11:38:04.159Z,,,,,,,,,,,,,,,,,53,,,,,,,,,,,,,,229.61099990463117,,response,,,,99,,,,,,,Space,keypress(Space),,,,,,,,---- -- ----- -- ------ - ------- --- ----------<br>------------- ------ ------ ---- ---- ------- ----- -- ----<br>-------- ------- -- ---------- --- - --- ----- ----- ----<br>---- --- --- ----- --- ---- ---- ------- ----- ---- -------<br>--- are -- ----- -- --- ---- -- --- ---- -- ------ ------<br>--- ----- -- ----,239025.09999990463,239024.09999990463,238777.811,238760.59999990463,238794.489,239027.798,,40,are
screen,html.Screen,2_1_0_1_41,2022-04-30T11:38:04.392Z,,,,,,,,,,,,,,,,,53,,,,,,,,,,,,,,229.3019999046228,,response,,,,99,,,,,,,Space,keypress(Space),,,,,,,,---- -- ----- -- ------ - ------- --- ----------<br>------------- ------ ------ ---- ---- ------- ----- -- ----<br>-------- ------- -- ---------- --- - --- ----- ----- ----<br>---- --- --- ----- --- ---- ---- ------- ----- ---- -------<br>--- --- as ----- -- --- ---- -- --- ---- -- ------ ------<br>--- ----- -- ----,239258,239257.09999990463,239011.139,239025.29999995232,239027.798,239261.105,,41,as
screen,html.Screen,2_1_0_1_42,2022-04-30T11:38:04.714Z,,,,,,,,,,,,,,,,,53,,,,,,,,,,,,,,317.7949998569384,,response,,,,99,,,,,,,Space,keypress(Space),,,,,,,,---- -- ----- -- ------ - ------- --- ----------<br>------------- ------ ------ ---- ---- ------- ----- -- ----<br>-------- ------- -- ---------- --- - --- ----- ----- ----<br>---- --- --- ----- --- ---- ---- ------- ----- ---- -------<br>--- --- -- close -- --- ---- -- --- ---- -- ------ ------<br>--- ----- -- ----,239579.79999995232,239578.89999985695,239244.462,239258.19999980927,239261.105,239594.403,,42,close
screen,html.Screen,2_1_0_1_43,2022-04-30T11:38:05.010Z,,,,,,,,,,,,,,,,,53,,,,,,,,,,,,,,280.39699995232513,,response,,,,99,,,,,,,Space,keypress(Space),,,,,,,,---- -- ----- -- ------ - ------- --- ----------<br>------------- ------ ------ ---- ---- ------- ----- -- ----<br>-------- ------- -- ---------- --- - --- ----- ----- ----<br>---- --- --- ----- --- ---- ---- ------- ----- ---- -------<br>--- --- -- ----- as --- ---- -- --- ---- -- ------ ------<br>--- ----- -- ----,239875.69999980927,239874.79999995232,239577.71,239579.89999985695,239594.403,239877.648,,43,as
screen,html.Screen,2_1_0_1_44,2022-04-30T11:38:05.252Z,,,,,,,,,,,,,,,,,53,,,,,,,,,,,,,,239.6519999523298,,response,,,,99,,,,,,,Space,keypress(Space),,,,,,,,---- -- ----- -- ------ - ------- --- ----------<br>------------- ------ ------ ---- ---- ------- ----- -- ----<br>-------- ------- -- ---------- --- - --- ----- ----- ----<br>---- --- --- ----- --- ---- ---- ------- ----- ---- -------<br>--- --- -- ----- -- you ---- -- --- ---- -- ------ ------<br>--- ----- -- ----,240118.19999980927,240117.29999995232,239861.07,239875.89999985695,239877.648,240127.611,,44,you
screen,html.Screen,2_1_0_1_45,2022-04-30T11:38:05.525Z,,,,,,,,,,,,,,,,,53,,,,,,,,,,,,,,262.48899990462814,,response,,,,99,,,,,,,Space,keypress(Space),,,,,,,,---- -- ----- -- ------ - ------- --- ----------<br>------------- ------ ------ ---- ---- ------- ----- -- ----<br>-------- ------- -- ---------- --- - --- ----- ----- ----<br>---- --- --- ----- --- ---- ---- ------- ----- ---- -------<br>--- --- -- ----- -- --- want -- --- ---- -- ------ ------<br>--- ----- -- ----,240391.09999990463,240390.09999990463,240111.037,240118.39999985695,240127.611,240394.291,,45,want
screen,html.Screen,2_1_0_1_46,2022-04-30T11:38:05.935Z,,,,,,,,,,,,,,,,,53,,,,,,,,,,,,,,405.50899995231885,,response,,,,99,,,,,,,Space,keypress(Space),,,,,,,,---- -- ----- -- ------ - ------- --- ----------<br>------------- ------ ------ ---- ---- ------- ----- -- ----<br>-------- ------- -- ---------- --- - --- ----- ----- ----<br>---- --- --- ----- --- ---- ---- ------- ----- ---- -------<br>--- --- -- ----- -- --- ---- to --- ---- -- ------ ------<br>--- ----- -- ----,240800.69999980927,240799.79999995232,240378.008,240391.19999980927,240394.291,240810.858,,46,to
screen,html.Screen,2_1_0_1_47,2022-04-30T11:38:06.163Z,,,,,,,,,,,,,,,,,53,,,,,,,,,,,,,,217.44199995230883,,response,,,,99,,,,,,,Space,keypress(Space),,,,,,,,"---- -- ----- -- ------ - ------- --- ----------<br>------------- ------ ------ ---- ---- ------- ----- -- ----<br>-------- ------- -- ---------- --- - --- ----- ----- ----<br>---- --- --- ----- --- ---- ---- ------- ----- ---- -------<br>--- --- -- ----- -- --- ---- -- be, ---- -- ------ ------<br>--- ----- -- ----",241029.19999980927,241028.29999995232,240794.259,240801,240810.858,241044.459,,47,"be,"
screen,html.Screen,2_1_0_1_48,2022-04-30T11:38:06.648Z,,,,,,,,,,,,,,,,,53,,,,,,,,,,,,,,468.64099990463,,response,,,,99,,,,,,,Space,keypress(Space),,,,,,,,---- -- ----- -- ------ - ------- --- ----------<br>------------- ------ ------ ---- ---- ------- ----- -- ----<br>-------- ------- -- ---------- --- - --- ----- ----- ----<br>---- --- --- ----- --- ---- ---- ------- ----- ---- -------<br>--- --- -- ----- -- --- ---- -- --- even -- ------ ------<br>--- ----- -- ----,241514.09999990463,241513.09999990463,241027.552,241029.39999985695,241044.459,241527.457,,48,even
screen,html.Screen,2_1_0_1_49,2022-04-30T11:38:07.020Z,,,,,,,,,,,,,,,,,53,,,,,,,,,,,,,,357.6429999046377,,response,,,,99,,,,,,,Space,keypress(Space),,,,,,,,---- -- ----- -- ------ - ------- --- ----------<br>------------- ------ ------ ---- ---- ------- ----- -- ----<br>-------- ------- -- ---------- --- - --- ----- ----- ----<br>---- --- --- ----- --- ---- ---- ------- ----- ---- -------<br>--- --- -- ----- -- --- ---- -- --- ---- if ------ ------<br>--- ----- -- ----,241886.19999980927,241885.09999990463,241511.208,241514.29999995232,241527.457,241894.083,,49,if
screen,html.Screen,2_1_0_1_50,2022-04-30T11:38:07.257Z,,,,,,,,,,,,,,,,,53,,,,,,,,,,,,,,227.91699999998673,,response,,,,99,,,,,,,Space,keypress(Space),,,,,,,,---- -- ----- -- ------ - ------- --- ----------<br>------------- ------ ------ ---- ---- ------- ----- -- ----<br>-------- ------- -- ---------- --- - --- ----- ----- ----<br>---- --- --- ----- --- ---- ---- ------- ----- ---- -------<br>--- --- -- ----- -- --- ---- -- --- ---- -- that's ------<br>--- ----- -- ----,242123,242122,241877.417,241886.29999995232,241894.083,242127.333,,50,that's
screen,html.Screen,2_1_0_1_51,2022-04-30T11:38:07.740Z,,,,,,,,,,,,,,,,,53,,,,,,,,,,,,,,477.5669998569356,,response,,,,99,,,,,,,Space,keypress(Space),,,,,,,,---- -- ----- -- ------ - ------- --- ----------<br>------------- ------ ------ ---- ---- ------- ----- -- ----<br>-------- ------- -- ---------- --- - --- ----- ----- ----<br>---- --- --- ----- --- ---- ---- ------- ----- ---- -------<br>--- --- -- ----- -- --- ---- -- --- ---- -- ------ really<br>--- ----- -- ----,242605.79999995232,242604.89999985695,242110.743,242123.19999980927,242127.333,242610.625,,51,really
screen,html.Screen,2_1_0_1_52,2022-04-30T11:38:08.005Z,,,,,,,,,,,,,,,,,53,,,,,,,,,,,,,,259.375,,response,,,,99,,,,,,,Space,keypress(Space),,,,,,,,---- -- ----- -- ------ - ------- --- ----------<br>------------- ------ ------ ---- ---- ------- ----- -- ----<br>-------- ------- -- ---------- --- - --- ----- ----- ----<br>---- --- --- ----- --- ---- ---- ------- ----- ---- -------<br>--- --- -- ----- -- --- ---- -- --- ---- -- ------ ------<br>not ----- -- ----,242870.89999985695,242870,242594.035,242606,242610.625,242877.222,,52,not
screen,html.Screen,2_1_0_1_53,2022-04-30T11:38:08.237Z,,,,,,,,,,,,,,,,,53,,,,,,,,,,,,,,225.17799985694,,response,,,,99,,,,,,,Space,keypress(Space),,,,,,,,---- -- ----- -- ------ - ------- --- ----------<br>------------- ------ ------ ---- ---- ------- ----- -- ----<br>-------- ------- -- ---------- --- - --- ----- ----- ----<br>---- --- --- ----- --- ---- ---- ------- ----- ---- -------<br>--- --- -- ----- -- --- ---- -- --- ---- -- ------ ------<br>--- close -- ----,243103.29999995232,243102.39999985695,242860.898,242871.09999990463,242877.222,243110.639,,53,close
screen,html.Screen,2_1_0_1_54,2022-04-30T11:38:08.440Z,,,,,,,,,,,,,,,,,53,,,,,,,,,,,,,,194.36100000000442,,response,,,,99,,,,,,,Space,keypress(Space),,,,,,,,---- -- ----- -- ------ - ------- --- ----------<br>------------- ------ ------ ---- ---- ------- ----- -- ----<br>-------- ------- -- ---------- --- - --- ----- ----- ----<br>---- --- --- ----- --- ---- ---- ------- ----- ---- -------<br>--- --- -- ----- -- --- ---- -- --- ---- -- ------ ------<br>--- ----- at ----,243305.89999985695,243305,243093.964,243103.5,243110.639,243310.533,,54,at
screen,html.Screen,2_1_0_1_55,2022-04-30T11:38:09.040Z,,,,,,,,,,,,,,,,,53,,,,,,,,,,,,,,594.7669999523205,,response,,,,99,,,,,,,Space,keypress(Space),,,,,,,,---- -- ----- -- ------ - ------- --- ----------<br>------------- ------ ------ ---- ---- ------- ----- -- ----<br>-------- ------- -- ---------- --- - --- ----- ----- ----<br>---- --- --- ----- --- ---- ---- ------- ----- ---- -------<br>--- --- -- ----- -- --- ---- -- --- ---- -- ------ ------<br>--- ----- -- all.,243906.19999980927,243905.29999995232,243293.929,243306,243310.533,243910.469,,55,all.
Item 99,flow.Loop,2_1_0_1,2022-04-30T11:38:09.041Z,,,,,,,,,,,,,,,,,,,,,,,,,,,,,,,21125.20099995233,,completion,,,,,E,,,,,,,,,,,silence,,,,,243906.59999990463,243905.29999995232,222713.948,222714.89999985695,222780.099,243910.469,,,
Question 1,html.Screen,2_1_0_2,2022-04-30T11:38:13.264Z,,,,,,,,,,,,,,,,,,,,,,,,,,,,true,FALSE,,4218.130999904621,,response,,,,99,E,,,,,,FALSE,click #choice-2,,,,silence,,,,,248129.89999985695,248128.59999990463,243894.173,243906.79999995232,243910.469,248143.128,,,
Question 2,html.Screen,2_1_0_3,2022-04-30T11:38:16.904Z,,,,,,,,,,,,,,,,,,,,,,,,,,,,true,TRUE,,3625.372000000003,,response,,,,99,E,,,,,,TRUE,click #choice-1,,,,silence,,,,,251769.79999995232,251768.5,248126.506,248130.19999980927,248143.128,251775.994,,,
Item 99,flow.Sequence,2_1_0,2022-04-30T11:38:16.904Z,,,,,,,,,,,,,,,,,,,,,,,,,,,,,,,39028.77299999999,,completion,,,,,,,,,,,,,,,,,,,,,251770,251768.5,212698.194,212715.79999995232,212739.727,251775.994,,,
Holding screen,html.Screen,2_1_1_0,2022-04-30T11:38:26.893Z,,,,,,,,,,,,,,,,,,,,,,,,,,,,,,,9998.565999999992,,timeout,,,,,,,,,,,,,,,,,,,,,261758.69999980927,261757.917,251759.325,251770.09999990463,251775.994,261774.56,,,
screen,html.Screen,2_1_1_1_0,2022-04-30T11:38:27.757Z,,,,,,,,,,,,,,,,,54,,,,,,,,,,,,,,847.3399998569512,,response,,,,100,,,,,,,Space,keypress(Space),,,,,,,,At --- ---- --- ------ ----- ------- ---- -- --- ------- --<br>------- ---------- ------ -- ----- -- ----- -- ---- ------<br>--- ----- --- --- ------ -------- ----- --- ------ ----- --<br>----- ----- ---------- --- --- ------ ------ ---- -- ------<br>------- --- ------ ----- --- ---- ------- -- ---- --- --<br>------- ------,262622.89999985695,262621.89999985695,261757.917,261758.89999985695,261774.56,262624.439,,0,At
screen,html.Screen,2_1_1_1_1,2022-04-30T11:38:28.131Z,,,,,,,,,,,,,,,,,54,,,,,,,,,,,,,,371.36099995230325,,response,,,,100,,,,,,,Space,keypress(Space),,,,,,,,-- the ---- --- ------ ----- ------- ---- -- --- ------- --<br>------- ---------- ------ -- ----- -- ----- -- ---- ------<br>--- ----- --- --- ------ -------- ----- --- ------ ----- --<br>----- ----- ---------- --- --- ------ ------ ---- -- ------<br>------- --- ------ ----- --- ---- ------- -- ---- --- --<br>------- ------,262996.69999980927,262995.7999999523,262607.883,262623,262624.439,263008.02,,1,the
screen,html.Screen,2_1_1_1_2,2022-04-30T11:38:28.354Z,,,,,,,,,,,,,,,,,54,,,,,,,,,,,,,,210.6799998092465,,response,,,,100,,,,,,,Space,keypress(Space),,,,,,,,-- --- time --- ------ ----- ------- ---- -- --- ------- --<br>------- ---------- ------ -- ----- -- ----- -- ---- ------<br>--- ----- --- --- ------ -------- ----- --- ------ ----- --<br>----- ----- ---------- --- --- ------ ------ ---- -- ------<br>------- --- ------ ----- --- ---- ------- -- ---- --- --<br>------- ------,263219.39999985695,263218.69999980927,262991.141,262996.89999985695,263008.02,263224.373,,2,time
screen,html.Screen,2_1_1_1_3,2022-04-30T11:38:28.622Z,,,,,,,,,,,,,,,,,54,,,,,,,,,,,,,,262.92699995229486,,response,,,,100,,,,,,,Space,keypress(Space),,,,,,,,-- --- ---- the ------ ----- ------- ---- -- --- ------- --<br>------- ---------- ------ -- ----- -- ----- -- ---- ------<br>--- ----- --- --- ------ -------- ----- --- ------ ----- --<br>----- ----- ---------- --- --- ------ ------ ---- -- ------<br>------- --- ------ ----- --- ---- ------- -- ---- --- --<br>------- ------,263488.19999980927,263487.2999999523,263208.237,263219.59999990463,263224.373,263491.001,,3,the
screen,html.Screen,2_1_1_1_4,2022-04-30T11:38:28.871Z,,,,,,,,,,,,,,,,,54,,,,,,,,,,,,,,244.69899980927585,,response,,,,100,,,,,,,Space,keypress(Space),,,,,,,,-- --- ---- --- French ----- ------- ---- -- --- ------- --<br>------- ---------- ------ -- ----- -- ----- -- ---- ------<br>--- ----- --- --- ------ -------- ----- --- ------ ----- --<br>----- ----- ---------- --- --- ------ ------ ---- -- ------<br>------- --- ------ ----- --- ---- ------- -- ---- --- --<br>------- ------,263736.59999990463,263735.69999980927,263474.391,263488.2999999523,263491.001,263740.974,,4,French
screen,html.Screen,2_1_1_1_5,2022-04-30T11:38:29.065Z,,,,,,,,,,,,,,,,,54,,,,,,,,,,,,,,188.82599995232886,,response,,,,100,,,,,,,Space,keypress(Space),,,,,,,,-- --- ---- --- ------ crown ------- ---- -- --- ------- --<br>------- ---------- ------ -- ----- -- ----- -- ---- ------<br>--- ----- --- --- ------ -------- ----- --- ------ ----- --<br>----- ----- ---------- --- --- ------ ------ ---- -- ------<br>------- --- ------ ----- --- ---- ------- -- ---- --- --<br>------- ------,263930.59999990463,263929.7999999523,263724.356,263736.7999999523,263740.974,263941.326,,5,crown
screen,html.Screen,2_1_1_1_6,2022-04-30T11:38:29.315Z,,,,,,,,,,,,,,,,,54,,,,,,,,,,,,,,238.17399999999907,,response,,,,100,,,,,,,Space,keypress(Space),,,,,,,,-- --- ---- --- ------ ----- secured ---- -- --- ------- --<br>------- ---------- ------ -- ----- -- ----- -- ---- ------<br>--- ----- --- --- ------ -------- ----- --- ------ ----- --<br>----- ----- ---------- --- --- ------ ------ ---- -- ------<br>------- --- ------ ----- --- ---- ------- -- ---- --- --<br>------- ------,264180.5,264179.5,263924.376,263930.69999980927,263941.326,264190.888,,6,secured
screen,html.Screen,2_1_1_1_7,2022-04-30T11:38:29.568Z,,,,,,,,,,,,,,,,,54,,,,,,,,,,,,,,242.11200000002282,,response,,,,100,,,,,,,Space,keypress(Space),,,,,,,,-- --- ---- --- ------ ----- ------- much -- --- ------- --<br>------- ---------- ------ -- ----- -- ----- -- ---- ------<br>--- ----- --- --- ------ -------- ----- --- ------ ----- --<br>----- ----- ---------- --- --- ------ ------ ---- -- ------<br>------- --- ------ ----- --- ---- ------- -- ---- --- --<br>------- ------,264433.7999999523,264433,264174.533,264180.59999990463,264190.888,264440.811,,7,much
screen,html.Screen,2_1_1_1_8,2022-04-30T11:38:29.838Z,,,,,,,,,,,,,,,,,54,,,,,,,,,,,,,,261.9889999523293,,response,,,,100,,,,,,,Space,keypress(Space),,,,,,,,-- --- ---- --- ------ ----- ------- ---- of --- ------- --<br>------- ---------- ------ -- ----- -- ----- -- ---- ------<br>--- ----- --- --- ------ -------- ----- --- ------ ----- --<br>----- ----- ---------- --- --- ------ ------ ---- -- ------<br>------- --- ------ ----- --- ---- ------- -- ---- --- --<br>------- ------,264703.59999990463,264702.7999999523,264424.26,264434.09999990463,264440.811,264707.5,,8,of
screen,html.Screen,2_1_1_1_9,2022-04-30T11:38:30.081Z,,,,,,,,,,,,,,,,,54,,,,,,,,,,,,,,238.5,,response,,,,100,,,,,,,Space,keypress(Space),,,,,,,,-- --- ---- --- ------ ----- ------- ---- -- its ------- --<br>------- ---------- ------ -- ----- -- ----- -- ---- ------<br>--- ----- --- --- ------ -------- ----- --- ------ ----- --<br>----- ----- ---------- --- --- ------ ------ ---- -- ------<br>------- --- ------ ----- --- ---- ------- -- ---- --- --<br>------- ------,264947,264946,264690.905,264703.69999980927,264707.5,264957.433,,9,its
screen,html.Screen,2_1_1_1_10,2022-04-30T11:38:30.276Z,,,,,,,,,,,,,,,,,54,,,,,,,,,,,,,,183.8669999522972,,response,,,,100,,,,,,,Space,keypress(Space),,,,,,,,-- --- ---- --- ------ ----- ------- ---- -- --- revenue --<br>------- ---------- ------ -- ----- -- ----- -- ---- ------<br>--- ----- --- --- ------ -------- ----- --- ------ ----- --<br>----- ----- ---------- --- --- ------ ------ ---- -- ------<br>------- --- ------ ----- --- ---- ------- -- ---- --- --<br>------- ------,265142.19999980927,265141.2999999523,264940.829,264947.09999990463,264957.433,265157.42,,10,revenue
screen,html.Screen,2_1_1_1_11,2022-04-30T11:38:30.491Z,,,,,,,,,,,,,,,,,54,,,,,,,,,,,,,,198.67999990464887,,response,,,,100,,,,,,,Space,keypress(Space),,,,,,,,-- --- ---- --- ------ ----- ------- ---- -- --- ------- by<br>------- ---------- ------ -- ----- -- ----- -- ---- ------<br>--- ----- --- --- ------ -------- ----- --- ------ ----- --<br>----- ----- ---------- --- --- ------ ------ ---- -- ------<br>------- --- ------ ----- --- ---- ------- -- ---- --- --<br>------- ------,265357,265356.09999990463,265140.776,265142.2999999523,265157.42,265374.054,,11,by
screen,html.Screen,2_1_1_1_12,2022-04-30T11:38:30.709Z,,,,,,,,,,,,,,,,,54,,,,,,,,,,,,,,199.34599985694513,,response,,,,100,,,,,,,Space,keypress(Space),,,,,,,,-- --- ---- --- ------ ----- ------- ---- -- --- ------- --<br>issuing ---------- ------ -- ----- -- ----- -- ---- ------<br>--- ----- --- --- ------ -------- ----- --- ------ ----- --<br>----- ----- ---------- --- --- ------ ------ ---- -- ------<br>------- --- ------ ----- --- ---- ------- -- ---- --- --<br>------- ------,265574.2999999523,265573.39999985695,265357.408,265357.19999980927,265374.054,265591.007,,12,issuing
screen,html.Screen,2_1_1_1_13,2022-04-30T11:38:30.916Z,,,,,,,,,,,,,,,,,54,,,,,,,,,,,,,,190.1929998092819,,response,,,,100,,,,,,,Space,keypress(Space),,,,,,,,-- --- ---- --- ------ ----- ------- ---- -- --- ------- --<br>------- government ------ -- ----- -- ----- -- ---- ------<br>--- ----- --- --- ------ -------- ----- --- ------ ----- --<br>----- ----- ---------- --- --- ------ ------ ---- -- ------<br>------- --- ------ ----- --- ---- ------- -- ---- --- --<br>------- ------,265782.09999990463,265781.19999980927,265574.063,265574.5,265591.007,265790.946,,13,government
screen,html.Screen,2_1_1_1_14,2022-04-30T11:38:31.126Z,,,,,,,,,,,,,,,,,54,,,,,,,,,,,,,,200.35399995232,,response,,,,100,,,,,,,Space,keypress(Space),,,,,,,,-- --- ---- --- ------ ----- ------- ---- -- --- ------- --<br>------- ---------- bonds. -- ----- -- ----- -- ---- ------<br>--- ----- --- --- ------ -------- ----- --- ------ ----- --<br>----- ----- ---------- --- --- ------ ------ ---- -- ------<br>------- --- ------ ----- --- ---- ------- -- ---- --- --<br>------- ------,265992.2999999523,265991.2999999523,265774.316,265782.19999980927,265790.946,266007.595,,14,bonds.
screen,html.Screen,2_1_1_1_15,2022-04-30T11:38:31.373Z,,,,,,,,,,,,,,,,,54,,,,,,,,,,,,,,230.20499995234422,,response,,,,100,,,,,,,Space,keypress(Space),,,,,,,,-- --- ---- --- ------ ----- ------- ---- -- --- ------- --<br>------- ---------- ------ In ----- -- ----- -- ---- ------<br>--- ----- --- --- ------ -------- ----- --- ------ ----- --<br>----- ----- ---------- --- --- ------ ------ ---- -- ------<br>------- --- ------ ----- --- ---- ------- -- ---- --- --<br>------- ------,266238.69999980927,266237.7999999523,265990.952,265992.5,266007.595,266240.617,,15,In
screen,html.Screen,2_1_1_1_16,2022-04-30T11:38:31.652Z,,,,,,,,,,,,,,,,,54,,,,,,,,,,,,,,275.8829999999725,,response,,,,100,,,,,,,Space,keypress(Space),,,,,,,,"-- --- ---- --- ------ ----- ------- ---- -- --- ------- --<br>------- ---------- ------ -- 1727, -- ----- -- ---- ------<br>--- ----- --- --- ------ -------- ----- --- ------ ----- --<br>----- ----- ---------- --- --- ------ ------ ---- -- ------<br>------- --- ------ ----- --- ---- ------- -- ---- --- --<br>------- ------",266517.7999999523,266516.5,266224.264,266238.7999999523,266240.617,266523.89,,16,"1727,"
screen,html.Screen,2_1_1_1_17,2022-04-30T11:38:31.885Z,,,,,,,,,,,,,,,,,54,,,,,,,,,,,,,,225.60999999998603,,response,,,,100,,,,,,,Space,keypress(Space),,,,,,,,-- --- ---- --- ------ ----- ------- ---- -- --- ------- --<br>------- ---------- ------ -- ----- in ----- -- ---- ------<br>--- ----- --- --- ------ -------- ----- --- ------ ----- --<br>----- ----- ---------- --- --- ------ ------ ---- -- ------<br>------- --- ------ ----- --- ---- ------- -- ---- --- --<br>------- ------,266750.39999985695,266749.5,266507.326,266518,266523.89,266757.139,,17,in
screen,html.Screen,2_1_1_1_18,2022-04-30T11:38:32.106Z,,,,,,,,,,,,,,,,,54,,,,,,,,,,,,,,213.9609999046079,,response,,,,100,,,,,,,Space,keypress(Space),,,,,,,,-- --- ---- --- ------ ----- ------- ---- -- --- ------- --<br>------- ---------- ------ -- ----- -- order -- ---- ------<br>--- ----- --- --- ------ -------- ----- --- ------ ----- --<br>----- ----- ---------- --- --- ------ ------ ---- -- ------<br>------- --- ------ ----- --- ---- ------- -- ---- --- --<br>------- ------,266971.89999985695,266971.09999990463,266740.583,266750.59999990463,266757.139,266973.857,,18,order
screen,html.Screen,2_1_1_1_19,2022-04-30T11:38:32.316Z,,,,,,,,,,,,,,,,,54,,,,,,,,,,,,,,207.0429998569307,,response,,,,100,,,,,,,Space,keypress(Space),,,,,,,,-- --- ---- --- ------ ----- ------- ---- -- --- ------- --<br>------- ---------- ------ -- ----- -- ----- to ---- ------<br>--- ----- --- --- ------ -------- ----- --- ------ ----- --<br>----- ----- ---------- --- --- ------ ------ ---- -- ------<br>------- --- ------ ----- --- ---- ------- -- ---- --- --<br>------- ------,267181.89999985695,267180.89999985695,266957.237,266972.09999990463,266973.857,267190.435,,19,to
screen,html.Screen,2_1_1_1_20,2022-04-30T11:38:32.537Z,,,,,,,,,,,,,,,,,54,,,,,,,,,,,,,,211.8649999523186,,response,,,,100,,,,,,,Space,keypress(Space),,,,,,,,-- --- ---- --- ------ ----- ------- ---- -- --- ------- --<br>------- ---------- ------ -- ----- -- ----- -- save ------<br>--- ----- --- --- ------ -------- ----- --- ------ ----- --<br>----- ----- ---------- --- --- ------ ------ ---- -- ------<br>------- --- ------ ----- --- ---- ------- -- ---- --- --<br>------- ------,267403.2999999523,267402.2999999523,267173.901,267182,267190.435,267407.118,,20,save
screen,html.Screen,2_1_1_1_21,2022-04-30T11:38:32.722Z,,,,,,,,,,,,,,,,,54,,,,,,,,,,,,,,180.2819998569321,,response,,,,100,,,,,,,Space,keypress(Space),,,,,,,,"-- --- ---- --- ------ ----- ------- ---- -- --- ------- --<br>------- ---------- ------ -- ----- -- ----- -- ---- money,<br>--- ----- --- --- ------ -------- ----- --- ------ ----- --<br>----- ----- ---------- --- --- ------ ------ ---- -- ------<br>------- --- ------ ----- --- ---- ------- -- ---- --- --<br>------- ------",267588.19999980927,267587.39999985695,267390.467,267403.39999985695,267407.118,267590.441,,21,"money,"
screen,html.Screen,2_1_1_1_22,2022-04-30T11:38:32.956Z,,,,,,,,,,,,,,,,,54,,,,,,,,,,,,,,230.45899985695723,,response,,,,100,,,,,,,Space,keypress(Space),,,,,,,,-- --- ---- --- ------ ----- ------- ---- -- --- ------- --<br>------- ---------- ------ -- ----- -- ----- -- ---- ------<br>the ----- --- --- ------ -------- ----- --- ------ ----- --<br>----- ----- ---------- --- --- ------ ------ ---- -- ------<br>------- --- ------ ----- --- ---- ------- -- ---- --- --<br>------- ------,267822.09999990463,267820.89999985695,267573.789,267588.2999999523,267590.441,267823.698,,22,the
screen,html.Screen,2_1_1_1_23,2022-04-30T11:38:33.166Z,,,,,,,,,,,,,,,,,54,,,,,,,,,,,,,,206.9019999046577,,response,,,,100,,,,,,,Space,keypress(Space),,,,,,,,-- --- ---- --- ------ ----- ------- ---- -- --- ------- --<br>------- ---------- ------ -- ----- -- ----- -- ---- ------<br>--- state --- --- ------ -------- ----- --- ------ ----- --<br>----- ----- ---------- --- --- ------ ------ ---- -- ------<br>------- --- ------ ----- --- ---- ------- -- ---- --- --<br>------- ------,268031.39999985695,268030.59999990463,267807.124,267822.19999980927,267823.698,268040.325,,23,state
screen,html.Screen,2_1_1_1_24,2022-04-30T11:38:33.366Z,,,,,,,,,,,,,,,,,54,,,,,,,,,,,,,,190.8749998092535,,response,,,,100,,,,,,,Space,keypress(Space),,,,,,,,-- --- ---- --- ------ ----- ------- ---- -- --- ------- --<br>------- ---------- ------ -- ----- -- ----- -- ---- ------<br>--- ----- cut --- ------ -------- ----- --- ------ ----- --<br>----- ----- ---------- --- --- ------ ------ ---- -- ------<br>------- --- ------ ----- --- ---- ------- -- ---- --- --<br>------- ------,268232.2999999523,268231.19999980927,268023.849,268031.69999980927,268040.325,268240.292,,24,cut
screen,html.Screen,2_1_1_1_25,2022-04-30T11:38:33.576Z,,,,,,,,,,,,,,,,,54,,,,,,,,,,,,,,200.30799990461674,,response,,,,100,,,,,,,Space,keypress(Space),,,,,,,,-- --- ---- --- ------ ----- ------- ---- -- --- ------- --<br>------- ---------- ------ -- ----- -- ----- -- ---- ------<br>--- ----- --- the ------ -------- ----- --- ------ ----- --<br>----- ----- ---------- --- --- ------ ------ ---- -- ------<br>------- --- ------ ----- --- ---- ------- -- ---- --- --<br>------- ------,268441.5,268440.59999990463,268223.682,268232.39999985695,268240.292,268456.978,,25,the
screen,html.Screen,2_1_1_1_26,2022-04-30T11:38:33.774Z,,,,,,,,,,,,,,,,,54,,,,,,,,,,,,,,181.72199980926234,,response,,,,100,,,,,,,Space,keypress(Space),,,,,,,,-- --- ---- --- ------ ----- ------- ---- -- --- ------- --<br>------- ---------- ------ -- ----- -- ----- -- ---- ------<br>--- ----- --- --- bonds' -------- ----- --- ------ ----- --<br>----- ----- ---------- --- --- ------ ------ ---- -- ------<br>------- --- ------ ----- --- ---- ------- -- ---- --- --<br>------- ------,268639.69999980927,268638.69999980927,268440.318,268441.59999990463,268456.978,268656.94,,26,bonds'
screen,html.Screen,2_1_1_1_27,2022-04-30T11:38:33.991Z,,,,,,,,,,,,,,,,,54,,,,,,,,,,,,,,198.7599998092628,,response,,,,100,,,,,,,Space,keypress(Space),,,,,,,,-- --- ---- --- ------ ----- ------- ---- -- --- ------- --<br>------- ---------- ------ -- ----- -- ----- -- ---- ------<br>--- ----- --- --- ------ interest ----- --- ------ ----- --<br>----- ----- ---------- --- --- ------ ------ ---- -- ------<br>------- --- ------ ----- --- ---- ------- -- ---- --- --<br>------- ------,268856.59999990463,268855.69999980927,268640.326,268639.89999985695,268656.94,268873.858,,27,interest
screen,html.Screen,2_1_1_1_28,2022-04-30T11:38:34.202Z,,,,,,,,,,,,,,,,,54,,,,,,,,,,,,,,192.8419998092577,,response,,,,100,,,,,,,Space,keypress(Space),,,,,,,,-- --- ---- --- ------ ----- ------- ---- -- --- ------- --<br>------- ---------- ------ -- ----- -- ----- -- ---- ------<br>--- ----- --- --- ------ -------- rate. --- ------ ----- --<br>----- ----- ---------- --- --- ------ ------ ---- -- ------<br>------- --- ------ ----- --- ---- ------- -- ---- --- --<br>------- ------,269067.59999990463,269066.69999980927,268856.957,268857,268873.858,269073.519,,28,rate.
screen,html.Screen,2_1_1_1_29,2022-04-30T11:38:34.413Z,,,,,,,,,,,,,,,,,54,,,,,,,,,,,,,,204.48100000002887,,response,,,,100,,,,,,,Space,keypress(Space),,,,,,,,-- --- ---- --- ------ ----- ------- ---- -- --- ------- --<br>------- ---------- ------ -- ----- -- ----- -- ---- ------<br>--- ----- --- --- ------ -------- ----- The ------ ----- --<br>----- ----- ---------- --- --- ------ ------ ---- -- ------<br>------- --- ------ ----- --- ---- ------- -- ---- --- --<br>------- ------,269278.89999985695,269278,269057.187,269067.7999999523,269073.519,269290.458,,29,The
screen,html.Screen,2_1_1_1_30,2022-04-30T11:38:34.629Z,,,,,,,,,,,,,,,,,54,,,,,,,,,,,,,,203.34199995233212,,response,,,,100,,,,,,,Space,keypress(Space),,,,,,,,-- --- ---- --- ------ ----- ------- ---- -- --- ------- --<br>------- ---------- ------ -- ----- -- ----- -- ---- ------<br>--- ----- --- --- ------ -------- ----- --- market ----- --<br>----- ----- ---------- --- --- ------ ------ ---- -- ------<br>------- --- ------ ----- --- ---- ------- -- ---- --- --<br>------- ------,269494.69999980927,269493.7999999523,269273.578,269279,269290.458,269506.808,,30,market
screen,html.Screen,2_1_1_1_31,2022-04-30T11:38:34.834Z,,,,,,,,,,,,,,,,,54,,,,,,,,,,,,,,191.79199990461348,,response,,,,100,,,,,,,Space,keypress(Space),,,,,,,,-- --- ---- --- ------ ----- ------- ---- -- --- ------- --<br>------- ---------- ------ -- ----- -- ----- -- ---- ------<br>--- ----- --- --- ------ -------- ----- --- ------ value --<br>----- ----- ---------- --- --- ------ ------ ---- -- ------<br>------- --- ------ ----- --- ---- ------- -- ---- --- --<br>------- ------,269699.5,269698.59999990463,269490.468,269494.89999985695,269506.808,269706.729,,31,value
screen,html.Screen,2_1_1_1_32,2022-04-30T11:38:35.048Z,,,,,,,,,,,,,,,,,54,,,,,,,,,,,,,,205.87099990464048,,response,,,,100,,,,,,,Space,keypress(Space),,,,,,,,-- --- ---- --- ------ ----- ------- ---- -- --- ------- --<br>------- ---------- ------ -- ----- -- ----- -- ---- ------<br>--- ----- --- --- ------ -------- ----- --- ------ ----- of<br>----- ----- ---------- --- --- ------ ------ ---- -- ------<br>------- --- ------ ----- --- ---- ------- -- ---- --- --<br>------- ------,269913.39999985695,269912.59999990463,269690.126,269699.69999980927,269706.729,269923.433,,32,of
screen,html.Screen,2_1_1_1_33,2022-04-30T11:38:35.264Z,,,,,,,,,,,,,,,,,54,,,,,,,,,,,,,,203.5669999999809,,response,,,,100,,,,,,,Space,keypress(Space),,,,,,,,-- --- ---- --- ------ ----- ------- ---- -- --- ------- --<br>------- ---------- ------ -- ----- -- ----- -- ---- ------<br>--- ----- --- --- ------ -------- ----- --- ------ ----- --<br>these ----- ---------- --- --- ------ ------ ---- -- ------<br>------- --- ------ ----- --- ---- ------- -- ---- --- --<br>------- ------,270129.19999980927,270127,269906.811,269913.69999980927,269923.433,270140.048,,33,these
screen,html.Screen,2_1_1_1_34,2022-04-30T11:38:35.474Z,,,,,,,,,,,,,,,,,54,,,,,,,,,,,,,,198.0519999046228,,response,,,,100,,,,,,,Space,keypress(Space),,,,,,,,-- --- ---- --- ------ ----- ------- ---- -- --- ------- --<br>------- ---------- ------ -- ----- -- ----- -- ---- ------<br>--- ----- --- --- ------ -------- ----- --- ------ ----- --<br>----- bonds ---------- --- --- ------ ------ ---- -- ------<br>------- --- ------ ----- --- ---- ------- -- ---- --- --<br>------- ------,270339.09999990463,270338.09999990463,270123.41,270129.39999985695,270140.048,270364.814,,34,bonds
screen,html.Screen,2_1_1_1_35,2022-04-30T11:38:35.670Z,,,,,,,,,,,,,,,,,54,,,,,,,,,,,,,,169.3859998092521,,response,,,,100,,,,,,,Space,keypress(Space),,,,,,,,"-- --- ---- --- ------ ----- ------- ---- -- --- ------- --<br>------- ---------- ------ -- ----- -- ----- -- ---- ------<br>--- ----- --- --- ------ -------- ----- --- ------ ----- --<br>----- ----- plummeted, --- --- ------ ------ ---- -- ------<br>------- --- ------ ----- --- ---- ------- -- ---- --- --<br>------- ------",270535.09999990463,270534.19999980927,270323.393,270339.2999999523,270364.814,270539.979,,35,"plummeted,"
screen,html.Screen,2_1_1_1_36,2022-04-30T11:38:35.877Z,,,,,,,,,,,,,,,,,54,,,,,,,,,,,,,,201.12099990464048,,response,,,,100,,,,,,,Space,keypress(Space),,,,,,,,-- --- ---- --- ------ ----- ------- ---- -- --- ------- --<br>------- ---------- ------ -- ----- -- ----- -- ---- ------<br>--- ----- --- --- ------ -------- ----- --- ------ ----- --<br>----- ----- ---------- and --- ------ ------ ---- -- ------<br>------- --- ------ ----- --- ---- ------- -- ---- --- --<br>------- ------,270742,270741.09999990463,270523.386,270535.2999999523,270539.979,270756.997,,36,and
screen,html.Screen,2_1_1_1_37,2022-04-30T11:38:36.072Z,,,,,,,,,,,,,,,,,54,,,,,,,,,,,,,,179.50300000002608,,response,,,,100,,,,,,,Space,keypress(Space),,,,,,,,-- --- ---- --- ------ ----- ------- ---- -- --- ------- --<br>------- ---------- ------ -- ----- -- ----- -- ---- ------<br>--- ----- --- --- ------ -------- ----- --- ------ ----- --<br>----- ----- ---------- --- the ------ ------ ---- -- ------<br>------- --- ------ ----- --- ---- ------- -- ---- --- --<br>------- ------,270937.59999990463,270936.5,270740.306,270742.09999990463,270756.997,270939.934,,37,the
screen,html.Screen,2_1_1_1_38,2022-04-30T11:38:36.286Z,,,,,,,,,,,,,,,,,54,,,,,,,,,,,,,,210.1659999046242,,response,,,,100,,,,,,,Space,keypress(Space),,,,,,,,-- --- ---- --- ------ ----- ------- ---- -- --- ------- --<br>------- ---------- ------ -- ----- -- ----- -- ---- ------<br>--- ----- --- --- ------ -------- ----- --- ------ ----- --<br>----- ----- ---------- --- --- market ------ ---- -- ------<br>------- --- ------ ----- --- ---- ------- -- ---- --- --<br>------- ------,271151.09999990463,271150.09999990463,270923.593,270937.89999985695,270939.934,271156.573,,38,market
screen,html.Screen,2_1_1_1_39,2022-04-30T11:38:36.486Z,,,,,,,,,,,,,,,,,54,,,,,,,,,,,,,,193.5269999046577,,response,,,,100,,,,,,,Space,keypress(Space),,,,,,,,-- --- ---- --- ------ ----- ------- ---- -- --- ------- --<br>------- ---------- ------ -- ----- -- ----- -- ---- ------<br>--- ----- --- --- ------ -------- ----- --- ------ ----- --<br>----- ----- ---------- --- --- ------ became ---- -- ------<br>------- --- ------ ----- --- ---- ------- -- ---- --- --<br>------- ------,271351,271350.09999990463,271140.23,271151.2999999523,271156.573,271356.529,,39,became
screen,html.Screen,2_1_1_1_40,2022-04-30T11:38:36.705Z,,,,,,,,,,,,,,,,,54,,,,,,,,,,,,,,213.07099990465213,,response,,,,100,,,,,,,Space,keypress(Space),,,,,,,,-- --- ---- --- ------ ----- ------- ---- -- --- ------- --<br>------- ---------- ------ -- ----- -- ----- -- ---- ------<br>--- ----- --- --- ------ -------- ----- --- ------ ----- --<br>----- ----- ---------- --- --- ------ ------ wary -- ------<br>------- --- ------ ----- --- ---- ------- -- ---- --- --<br>------- ------,271570.5,271569.59999990463,271340.982,271351.19999980927,271356.529,271573.195,,40,wary
screen,html.Screen,2_1_1_1_41,2022-04-30T11:38:36.915Z,,,,,,,,,,,,,,,,,54,,,,,,,,,,,,,,206.00499980925815,,response,,,,100,,,,,,,Space,keypress(Space),,,,,,,,-- --- ---- --- ------ ----- ------- ---- -- --- ------- --<br>------- ---------- ------ -- ----- -- ----- -- ---- ------<br>--- ----- --- --- ------ -------- ----- --- ------ ----- --<br>----- ----- ---------- --- --- ------ ------ ---- of ------<br>------- --- ------ ----- --- ---- ------- -- ---- --- --<br>------- ------,271780.09999990463,271779.19999980927,271556.599,271570.69999980927,271573.195,271789.802,,41,of
screen,html.Screen,2_1_1_1_42,2022-04-30T11:38:37.117Z,,,,,,,,,,,,,,,,,54,,,,,,,,,,,,,,191.39799980924,,response,,,,100,,,,,,,Space,keypress(Space),,,,,,,,-- --- ---- --- ------ ----- ------- ---- -- --- ------- --<br>------- ---------- ------ -- ----- -- ----- -- ---- ------<br>--- ----- --- --- ------ -------- ----- --- ------ ----- --<br>----- ----- ---------- --- --- ------ ------ ---- -- French<br>------- --- ------ ----- --- ---- ------- -- ---- --- --<br>------- ------,271982.19999980927,271981.19999980927,271773.203,271780.2999999523,271789.802,271989.771,,42,French
screen,html.Screen,2_1_1_1_43,2022-04-30T11:38:37.328Z,,,,,,,,,,,,,,,,,54,,,,,,,,,,,,,,203.22899999999208,,response,,,,100,,,,,,,Space,keypress(Space),,,,,,,,-- --- ---- --- ------ ----- ------- ---- -- --- ------- --<br>------- ---------- ------ -- ----- -- ----- -- ---- ------<br>--- ----- --- --- ------ -------- ----- --- ------ ----- --<br>----- ----- ---------- --- --- ------ ------ ---- -- ------<br>credit. --- ------ ----- --- ---- ------- -- ---- --- --<br>------- ------,272193.89999985695,272193,271973.152,271982.5,271989.771,272206.44,,43,credit.
screen,html.Screen,2_1_1_1_44,2022-04-30T11:38:37.542Z,,,,,,,,,,,,,,,,,54,,,,,,,,,,,,,,200.05999999999767,,response,,,,100,,,,,,,Space,keypress(Space),,,,,,,,-- --- ---- --- ------ ----- ------- ---- -- --- ------- --<br>------- ---------- ------ -- ----- -- ----- -- ---- ------<br>--- ----- --- --- ------ -------- ----- --- ------ ----- --<br>----- ----- ---------- --- --- ------ ------ ---- -- ------<br>------- The ------ ----- --- ---- ------- -- ---- --- --<br>------- ------,272407.7999999523,272406.5,272190.327,272194.09999990463,272206.44,272423.099,,44,The
screen,html.Screen,2_1_1_1_45,2022-04-30T11:38:37.740Z,,,,,,,,,,,,,,,,,54,,,,,,,,,,,,,,181.1009998092777,,response,,,,100,,,,,,,Space,keypress(Space),,,,,,,,-- --- ---- --- ------ ----- ------- ---- -- --- ------- --<br>------- ---------- ------ -- ----- -- ----- -- ---- ------<br>--- ----- --- --- ------ -------- ----- --- ------ ----- --<br>----- ----- ---------- --- --- ------ ------ ---- -- ------<br>------- --- French ----- --- ---- ------- -- ---- --- --<br>------- ------,272605,272604.19999980927,272406.709,272408,272423.099,272638.415,,45,French
screen,html.Screen,2_1_1_1_46,2022-04-30T11:38:37.929Z,,,,,,,,,,,,,,,,,54,,,,,,,,,,,,,,155.2849998092861,,response,,,,100,,,,,,,Space,keypress(Space),,,,,,,,-- --- ---- --- ------ ----- ------- ---- -- --- ------- --<br>------- ---------- ------ -- ----- -- ----- -- ---- ------<br>--- ----- --- --- ------ -------- ----- --- ------ ----- --<br>----- ----- ---------- --- --- ------ ------ ---- -- ------<br>------- --- ------ state --- ---- ------- -- ---- --- --<br>------- ------,272794.59999990463,272793.69999980927,272589.723,272605.19999980927,272638.415,272806.637,,46,state
screen,html.Screen,2_1_1_1_47,2022-04-30T11:38:38.134Z,,,,,,,,,,,,,,,,,54,,,,,,,,,,,,,,192.1629999523284,,response,,,,100,,,,,,,Space,keypress(Space),,,,,,,,-- --- ---- --- ------ ----- ------- ---- -- --- ------- --<br>------- ---------- ------ -- ----- -- ----- -- ---- ------<br>--- ----- --- --- ------ -------- ----- --- ------ ----- --<br>----- ----- ---------- --- --- ------ ------ ---- -- ------<br>------- --- ------ ----- was ---- ------- -- ---- --- --<br>------- ------,272999.69999980927,272998.7999999523,272789.722,272794.69999980927,272806.637,273006.243,,47,was
screen,html.Screen,2_1_1_1_48,2022-04-30T11:38:38.356Z,,,,,,,,,,,,,,,,,54,,,,,,,,,,,,,,214.3569999046158,,response,,,,100,,,,,,,Space,keypress(Space),,,,,,,,-- --- ---- --- ------ ----- ------- ---- -- --- ------- --<br>------- ---------- ------ -- ----- -- ----- -- ---- ------<br>--- ----- --- --- ------ -------- ----- --- ------ ----- --<br>----- ----- ---------- --- --- ------ ------ ---- -- ------<br>------- --- ------ ----- --- left ------- -- ---- --- --<br>------- ------,273221.69999980927,273220.59999990463,272990.007,272999.89999985695,273006.243,273251.676,,48,left
screen,html.Screen,2_1_1_1_49,2022-04-30T11:38:38.579Z,,,,,,,,,,,,,,,,,54,,,,,,,,,,,,,,192.12399995233864,,response,,,,100,,,,,,,Space,keypress(Space),,,,,,,,-- --- ---- --- ------ ----- ------- ---- -- --- ------- --<br>------- ---------- ------ -- ----- -- ----- -- ---- ------<br>--- ----- --- --- ------ -------- ----- --- ------ ----- --<br>----- ----- ---------- --- --- ------ ------ ---- -- ------<br>------- --- ------ ----- --- ---- without -- ---- --- --<br>------- ------,273444.7999999523,273443.7999999523,273206.346,273221.7999999523,273251.676,273456.193,,49,without
screen,html.Screen,2_1_1_1_50,2022-04-30T11:38:38.780Z,,,,,,,,,,,,,,,,,54,,,,,,,,,,,,,,188.90699990460416,,response,,,,100,,,,,,,Space,keypress(Space),,,,,,,,-- --- ---- --- ------ ----- ------- ---- -- --- ------- --<br>------- ---------- ------ -- ----- -- ----- -- ---- ------<br>--- ----- --- --- ------ -------- ----- --- ------ ----- --<br>----- ----- ---------- --- --- ------ ------ ---- -- ------<br>------- --- ------ ----- --- ---- ------- an ---- --- --<br>------- ------,273645.89999985695,273645.09999990463,273439.616,273445.09999990463,273456.193,273656.229,,50,an
screen,html.Screen,2_1_1_1_51,2022-04-30T11:38:38.989Z,,,,,,,,,,,,,,,,,54,,,,,,,,,,,,,,197.77100000000792,,response,,,,100,,,,,,,Space,keypress(Space),,,,,,,,-- --- ---- --- ------ ----- ------- ---- -- --- ------- --<br>------- ---------- ------ -- ----- -- ----- -- ---- ------<br>--- ----- --- --- ------ -------- ----- --- ------ ----- --<br>----- ----- ---------- --- --- ------ ------ ---- -- ------<br>------- --- ------ ----- --- ---- ------- -- easy --- --<br>------- ------,273854.89999985695,273854,273639.599,273646.19999980927,273656.229,273874.307,,51,easy
screen,html.Screen,2_1_1_1_52,2022-04-30T11:38:39.190Z,,,,,,,,,,,,,,,,,54,,,,,,,,,,,,,,179.79299990466097,,response,,,,100,,,,,,,Space,keypress(Space),,,,,,,,-- --- ---- --- ------ ----- ------- ---- -- --- ------- --<br>------- ---------- ------ -- ----- -- ----- -- ---- ------<br>--- ----- --- --- ------ -------- ----- --- ------ ----- --<br>----- ----- ---------- --- --- ------ ------ ---- -- ------<br>------- --- ------ ----- --- ---- ------- -- ---- way --<br>------- ------,274055,274054.09999990463,273839.585,273855,273874.307,274074.419,,52,way
screen,html.Screen,2_1_1_1_53,2022-04-30T11:38:39.381Z,,,,,,,,,,,,,,,,,54,,,,,,,,,,,,,,171.38099995232187,,response,,,,100,,,,,,,Space,keypress(Space),,,,,,,,-- --- ---- --- ------ ----- ------- ---- -- --- ------- --<br>------- ---------- ------ -- ----- -- ----- -- ---- ------<br>--- ----- --- --- ------ -------- ----- --- ------ ----- --<br>----- ----- ---------- --- --- ------ ------ ---- -- ------<br>------- --- ------ ----- --- ---- ------- -- ---- --- of<br>------- ------,274246.69999980927,274245.7999999523,274039.58,274055.19999980927,274074.419,274256.13,,53,of
screen,html.Screen,2_1_1_1_54,2022-04-30T11:38:39.649Z,,,,,,,,,,,,,,,,,54,,,,,,,,,,,,,,257.2699998569442,,response,,,,100,,,,,,,Space,keypress(Space),,,,,,,,-- --- ---- --- ------ ----- ------- ---- -- --- ------- --<br>------- ---------- ------ -- ----- -- ----- -- ---- ------<br>--- ----- --- --- ------ -------- ----- --- ------ ----- --<br>----- ----- ---------- --- --- ------ ------ ---- -- ------<br>------- --- ------ ----- --- ---- ------- -- ---- --- --<br>raising ------,274514.19999980927,274513.39999985695,274239.828,274246.89999985695,274256.13,274522.771,,54,raising
screen,html.Screen,2_1_1_1_55,2022-04-30T11:38:40.106Z,,,,,,,,,,,,,,,,,54,,,,,,,,,,,,,,447.32899990462465,,response,,,,100,,,,,,,Space,keypress(Space),,,,,,,,-- --- ---- --- ------ ----- ------- ---- -- --- ------- --<br>------- ---------- ------ -- ----- -- ----- -- ---- ------<br>--- ----- --- --- ------ -------- ----- --- ------ ----- --<br>----- ----- ---------- --- --- ------ ------ ---- -- ------<br>------- --- ------ ----- --- ---- ------- -- ---- --- --<br>------- money.,274971.09999990463,274970.09999990463,274506.17,274514.39999985695,274522.771,274997.23,,55,money.
Item 100,flow.Loop,2_1_1_1,2022-04-30T11:38:40.106Z,,,,,,,,,,,,,,,,,,,,,,,,,,,,,,,13195.539999904635,,completion,,,,,E,,,,,,,,,,,silence,,,,,274971.5,274970.09999990463,261757.917,261758.89999985695,261774.56,274997.23,,,
Question 1,html.Screen,2_1_1_2,2022-04-30T11:38:42.425Z,,,,,,,,,,,,,,,,,,,,,,,,,,,,true,TRUE,,2291.869999904651,,response,,,,100,E,,,,,,TRUE,click #choice-1,,,,silence,,,,,277290.2999999523,277289.09999990463,274956.376,274971.69999980927,274997.23,277305.9,,,
Question 2,html.Screen,2_1_1_3,2022-04-30T11:38:44.537Z,,,,,,,,,,,,,,,,,,,,,,,,,,,,true,FALSE,,2094.899999952293,,response,,,,100,E,,,,,,FALSE,click #choice-2,,,,silence,,,,,279402,279400.7999999523,277289.575,277290.5,277305.9,279405.43,,,
Item 100,flow.Sequence,2_1_1,2022-04-30T11:38:44.537Z,,,,,,,,,,,,,,,,,,,,,,,,,,,,,,,27624.80599995231,,completion,,,,,,,,,,,,,,,,,,,,,279402.19999980927,279400.7999999523,251759.325,251770.09999990463,251775.994,279405.43,,,
End of Practice,html.Page,2_1_2,2022-04-30T11:38:47.674Z,,,,,,,,,,,,,,,,,,,,,,,,,,,,,,,3133.969999856956,,form submission,,,,,,,,,,,,,,,,,,,,,282539.7999999523,282539.39999985695,279388.795,279402.2999999523,279405.43,282554.985,,,
Practice,flow.Sequence,2_1,2022-04-30T11:38:47.675Z,,,,,,,,,,,,,,,,,,,,,,,,,,,,,,,69799.67299985694,,completion,,,,,,,,,,,,,,,,,,,,,282540,282539.39999985695,212698.194,212715.69999980927,212739.727,282554.985,,,
Trap_instruction,html.Page,2_2_0,2022-04-30T11:38:51.698Z,,,,,,,,,,,,,,,,,,,,,,,,,,,,,,,4008.3149999523303,,form submission,,,,,,,,,,,,,,,,,,,,,286563.69999980927,286563.2999999523,282522.182,282540.09999990463,282554.985,286571.072,,,
trap_trial,html.Screen,2_2_1,2022-04-30T11:38:54.526Z,,,,,,,,,,,,,,,,,,,,,,,,,,,,true,1,,2819.027999904647,,response,,,,,,,,,,,1,click #choice-1,,,,,,,,,289391.19999980927,289390.09999990463,286554.395,286563.89999985695,286571.072,289454.03,,,
end of trap trial,html.Page,2_2_2,2022-04-30T11:38:56.016Z,,,,,,,,,,,,,,,,,,,,,,,,,,,,,,,1427.469999999972,,form submission,,,,,,,,,,,,,,,,,,,,,290881.7999999523,290881.5,289387.89,289391.39999985695,289454.03,290887.088,,,
Trap 1,flow.Sequence,2_2,2022-04-30T11:38:56.017Z,,,,,,,,,,,,,,,,,,,,,,,,,,,,,,,8326.515000000014,,completion,,,,,,,,,,,,,,,,,,,,,290881.89999985695,290881.5,282522.182,282540,282554.985,290887.088,,,
Standby,html.Page,2_3_0,2022-04-30T11:39:04.005Z,,,,,,,,,,,,,,,,,,,,,,,,,,,,,,,7998.918000000005,,timeout,,,,,,,,,,,,,,,,,,,,,298870.59999990463,298869.857,290871.023,290882.19999980927,290887.088,298886.006,,,
Holding screen,html.Screen,2_3_1_0_0,2022-04-30T11:39:11.004Z,,,,,,,,,,,,,,,,,,,,,,,,,,,,,,,6999.02899999998,,timeout,,,,,,,,,,,,,,,,,,,,,305869.19999980927,305868.365,298869.857,298871,298886.006,305885.035,,,
screen,html.Screen,2_3_1_0_1_0,2022-04-30T11:39:12.706Z,,,,,,,,,,,,,,,,,40,,,,,,,,,,,,,,1685.764999952342,,response,,,,9,E,,,,,,Space,keypress(Space),,,,silence,,,,Police -- ------- ---- ---- ---- - -------- ----- --- --<br>----- ----- ------ -- ---- -- --- - ---- -- - ----- -----<br>------ ---- ------ ---- - -------- ------- -- --- --------<br>-------- ----------- ---- ------ ---- ------ ---- --- ---<br>-------- --- -----,307572,307570.7999999523,305868.365,305869.39999985695,305885.035,307585.05,,0,Police
screen,html.Screen,2_3_1_0_1_1,2022-04-30T11:39:13.111Z,,,,,,,,,,,,,,,,,40,,,,,,,,,,,,,,390.8499998569605,,response,,,,9,E,,,,,,Space,keypress(Space),,,,silence,,,,------ in ------- ---- ---- ---- - -------- ----- --- --<br>----- ----- ------ -- ---- -- --- - ---- -- - ----- -----<br>------ ---- ------ ---- - -------- ------- -- --- --------<br>-------- ----------- ---- ------ ---- ------ ---- --- ---<br>-------- --- -----,307976.69999980927,307975.89999985695,307568.306,307572.09999990463,307585.05,307984.655,,1,in
screen,html.Screen,2_3_1_0_1_2,2022-04-30T11:39:13.466Z,,,,,,,,,,,,,,,,,40,,,,,,,,,,,,,,346.14499995228834,,response,,,,9,E,,,,,,Space,keypress(Space),,,,silence,,,,------ -- Georgia ---- ---- ---- - -------- ----- --- --<br>----- ----- ------ -- ---- -- --- - ---- -- - ----- -----<br>------ ---- ------ ---- - -------- ------- -- --- --------<br>-------- ----------- ---- ------ ---- ------ ---- --- ---<br>-------- --- -----,308331.69999980927,308330.7999999523,307968.382,307977,307984.655,308334.687,,2,Georgia
screen,html.Screen,2_3_1_0_1_3,2022-04-30T11:39:13.834Z,,,,,,,,,,,,,,,,,40,,,,,,,,,,,,,,363.7129998569726,,response,,,,9,E,,,,,,Space,keypress(Space),,,,silence,,,,------ -- ------- have ---- ---- - -------- ----- --- --<br>----- ----- ------ -- ---- -- --- - ---- -- - ----- -----<br>------ ---- ------ ---- - -------- ------- -- --- --------<br>-------- ----------- ---- ------ ---- ------ ---- --- ---<br>-------- --- -----,308699.2999999523,308698.39999985695,308318.088,308331.89999985695,308334.687,308701.258,,3,have
screen,html.Screen,2_3_1_0_1_4,2022-04-30T11:39:14.189Z,,,,,,,,,,,,,,,,,40,,,,,,,,,,,,,,352.1419998569763,,response,,,,9,E,,,,,,Space,keypress(Space),,,,silence,,,,------ -- ------- ---- shut ---- - -------- ----- --- --<br>----- ----- ------ -- ---- -- --- - ---- -- - ----- -----<br>------ ---- ------ ---- - -------- ------- -- --- --------<br>-------- ----------- ---- ------ ---- ------ ---- --- ---<br>-------- --- -----,309054.2999999523,309053.39999985695,308684.667,308699.39999985695,308701.258,309067.933,,4,shut
screen,html.Screen,2_3_1_0_1_5,2022-04-30T11:39:14.546Z,,,,,,,,,,,,,,,,,40,,,,,,,,,,,,,,342.46699985692976,,response,,,,9,E,,,,,,Space,keypress(Space),,,,silence,,,,------ -- ------- ---- ---- down - -------- ----- --- --<br>----- ----- ------ -- ---- -- --- - ---- -- - ----- -----<br>------ ---- ------ ---- - -------- ------- -- --- --------<br>-------- ----------- ---- ------ ---- ------ ---- --- ---<br>-------- --- -----,309411.19999980927,309410.39999985695,309051.707,309054.5,309067.933,309418.033,,5,down
screen,html.Screen,2_3_1_0_1_6,2022-04-30T11:39:14.902Z,,,,,,,,,,,,,,,,,40,,,,,,,,,,,,,,348.4670000000042,,response,,,,9,E,,,,,,Space,keypress(Space),,,,silence,,,,------ -- ------- ---- ---- ---- a -------- ----- --- --<br>----- ----- ------ -- ---- -- --- - ---- -- - ----- -----<br>------ ---- ------ ---- - -------- ------- -- --- --------<br>-------- ----------- ---- ------ ---- ------ ---- --- ---<br>-------- --- -----,309767.2999999523,309766.5,309401.24,309411.39999985695,309418.033,309801.141,,6,a
screen,html.Screen,2_3_1_0_1_7,2022-04-30T11:39:15.291Z,,,,,,,,,,,,,,,,,40,,,,,,,,,,,,,,353.9589999046293,,response,,,,9,E,,,,,,Space,keypress(Space),,,,silence,,,,------ -- ------- ---- ---- ---- - lemonade ----- --- --<br>----- ----- ------ -- ---- -- --- - ---- -- - ----- -----<br>------ ---- ------ ---- - -------- ------- -- --- --------<br>-------- ----------- ---- ------ ---- ------ ---- --- ---<br>-------- --- -----,310156.09999990463,310155.09999990463,309784.463,309767.39999985695,309801.141,310167.719,,7,lemonade
screen,html.Screen,2_3_1_0_1_8,2022-04-30T11:39:15.653Z,,,,,,,,,,,,,,,,,40,,,,,,,,,,,,,,349.98099980928237,,response,,,,9,E,,,,,,Space,keypress(Space),,,,silence,,,,------ -- ------- ---- ---- ---- - -------- stand --- --<br>----- ----- ------ -- ---- -- --- - ---- -- - ----- -----<br>------ ---- ------ ---- - -------- ------- -- --- --------<br>-------- ----------- ---- ------ ---- ------ ---- --- ---<br>-------- --- -----,310518.69999980927,310517.69999980927,310151.11,310156.2999999523,310167.719,310534.662,,8,stand
screen,html.Screen,2_3_1_0_1_9,2022-04-30T11:39:15.999Z,,,,,,,,,,,,,,,,,40,,,,,,,,,,,,,,328.6379999523051,,response,,,,9,E,,,,,,Space,keypress(Space),,,,silence,,,,------ -- ------- ---- ---- ---- - -------- ----- run --<br>----- ----- ------ -- ---- -- --- - ---- -- - ----- -----<br>------ ---- ------ ---- - -------- ------- -- --- --------<br>-------- ----------- ---- ------ ---- ------ ---- --- ---<br>-------- --- -----,310864.09999990463,310863.2999999523,310517.703,310518.89999985695,310534.662,310867.699,,9,run
screen,html.Screen,2_3_1_0_1_10,2022-04-30T11:39:16.372Z,,,,,,,,,,,,,,,,,40,,,,,,,,,,,,,,369.2009998569265,,response,,,,9,E,,,,,,Space,keypress(Space),,,,silence,,,,------ -- ------- ---- ---- ---- - -------- ----- --- by<br>----- ----- ------ -- ---- -- --- - ---- -- - ----- -----<br>------ ---- ------ ---- - -------- ------- -- --- --------<br>-------- ----------- ---- ------ ---- ------ ---- --- ---<br>-------- --- -----,311237.69999980927,311236.89999985695,310851.003,310864.2999999523,310867.699,311250.927,,10,by
screen,html.Screen,2_3_1_0_1_11,2022-04-30T11:39:16.921Z,,,,,,,,,,,,,,,,,40,,,,,,,,,,,,,,534.5729999999749,,response,,,,9,E,,,,,,Space,keypress(Space),,,,silence,,,,------ -- ------- ---- ---- ---- - -------- ----- --- --<br>three ----- ------ -- ---- -- --- - ---- -- - ----- -----<br>------ ---- ------ ---- - -------- ------- -- --- --------<br>-------- ----------- ---- ------ ---- ------ ---- --- ---<br>-------- --- -----,311786.5,311785.5,311234.318,311237.89999985695,311250.927,311801.138,,11,three
screen,html.Screen,2_3_1_0_1_12,2022-04-30T11:39:17.311Z,,,,,,,,,,,,,,,,,40,,,,,,,,,,,,,,374.06199980928795,,response,,,,9,E,,,,,,Space,keypress(Space),,,,silence,,,,------ -- ------- ---- ---- ---- - -------- ----- --- --<br>----- girls ------ -- ---- -- --- - ---- -- - ----- -----<br>------ ---- ------ ---- - -------- ------- -- --- --------<br>-------- ----------- ---- ------ ---- ------ ---- --- ---<br>-------- --- -----,312176.19999980927,312175.19999980927,311784.263,311786.5,311801.138,312184.103,,12,girls
screen,html.Screen,2_3_1_0_1_13,2022-04-30T11:39:17.534Z,,,,,,,,,,,,,,,,,40,,,,,,,,,,,,,,214.3969999999972,,response,,,,9,E,,,,,,Space,keypress(Space),,,,silence,,,,------ -- ------- ---- ---- ---- - -------- ----- --- --<br>----- ----- trying -- ---- -- --- - ---- -- - ----- -----<br>------ ---- ------ ---- - -------- ------- -- --- --------<br>-------- ----------- ---- ------ ---- ------ ---- --- ---<br>-------- --- -----,312399.39999985695,312398.5,312167.534,312176.39999985695,312184.103,312424.592,,13,trying
screen,html.Screen,2_3_1_0_1_14,2022-04-30T11:39:17.835Z,,,,,,,,,,,,,,,,,40,,,,,,,,,,,,,,275.0079999046284,,response,,,,9,E,,,,,,Space,keypress(Space),,,,silence,,,,------ -- ------- ---- ---- ---- - -------- ----- --- --<br>----- ----- ------ to ---- -- --- - ---- -- - ----- -----<br>------ ---- ------ ---- - -------- ------- -- --- --------<br>-------- ----------- ---- ------ ---- ------ ---- --- ---<br>-------- --- -----,312700.5,312699.59999990463,312384.142,312399.59999990463,312424.592,312717.393,,14,to
screen,html.Screen,2_3_1_0_1_15,2022-04-30T11:39:18.064Z,,,,,,,,,,,,,,,,,40,,,,,,,,,,,,,,211.3069998092833,,response,,,,9,E,,,,,,Space,keypress(Space),,,,silence,,,,------ -- ------- ---- ---- ---- - -------- ----- --- --<br>----- ----- ------ -- save -- --- - ---- -- - ----- -----<br>------ ---- ------ ---- - -------- ------- -- --- --------<br>-------- ----------- ---- ------ ---- ------ ---- --- ---<br>-------- --- -----,312929.69999980927,312928.69999980927,312700.759,312700.69999980927,312717.393,312934.041,,15,save
screen,html.Screen,2_3_1_0_1_16,2022-04-30T11:39:18.273Z,,,,,,,,,,,,,,,,,40,,,,,,,,,,,,,,203.25899995228974,,response,,,,9,E,,,,,,Space,keypress(Space),,,,silence,,,,------ -- ------- ---- ---- ---- - -------- ----- --- --<br>----- ----- ------ -- ---- up --- - ---- -- - ----- -----<br>------ ---- ------ ---- - -------- ------- -- --- --------<br>-------- ----------- ---- ------ ---- ------ ---- --- ---<br>-------- --- -----,313138.19999980927,313137.2999999523,312917.401,312929.89999985695,312934.041,313150.693,,16,up
screen,html.Screen,2_3_1_0_1_17,2022-04-30T11:39:18.488Z,,,,,,,,,,,,,,,,,40,,,,,,,,,,,,,,202.00699980923673,,response,,,,9,E,,,,,,Space,keypress(Space),,,,silence,,,,------ -- ------- ---- ---- ---- - -------- ----- --- --<br>----- ----- ------ -- ---- -- for - ---- -- - ----- -----<br>------ ---- ------ ---- - -------- ------- -- --- --------<br>-------- ----------- ---- ------ ---- ------ ---- --- ---<br>-------- --- -----,313353.69999980927,313352.69999980927,313134.056,313138.5,313150.693,313367.283,,17,for
screen,html.Screen,2_3_1_0_1_18,2022-04-30T11:39:18.680Z,,,,,,,,,,,,,,,,,40,,,,,,,,,,,,,,177.61699985695304,,response,,,,9,E,,,,,,Space,keypress(Space),,,,silence,,,,------ -- ------- ---- ---- ---- - -------- ----- --- --<br>----- ----- ------ -- ---- -- --- a ---- -- - ----- -----<br>------ ---- ------ ---- - -------- ------- -- --- --------<br>-------- ----------- ---- ------ ---- ------ ---- --- ---<br>-------- --- -----,313545.7999999523,313544.89999985695,313350.636,313354,313367.283,313550.623,,18,a
screen,html.Screen,2_3_1_0_1_19,2022-04-30T11:39:18.894Z,,,,,,,,,,,,,,,,,40,,,,,,,,,,,,,,207.57699980924372,,response,,,,9,E,,,,,,Space,keypress(Space),,,,silence,,,,------ -- ------- ---- ---- ---- - -------- ----- --- --<br>----- ----- ------ -- ---- -- --- - trip -- - ----- -----<br>------ ---- ------ ---- - -------- ------- -- --- --------<br>-------- ----------- ---- ------ ---- ------ ---- --- ---<br>-------- --- -----,313759,313758.19999980927,313533.945,313546,313550.623,313767.518,,19,trip
screen,html.Screen,2_3_1_0_1_20,2022-04-30T11:39:19.075Z,,,,,,,,,,,,,,,,,40,,,,,,,,,,,,,,172.58199990465073,,response,,,,9,E,,,,,,Space,keypress(Space),,,,silence,,,,------ -- ------- ---- ---- ---- - -------- ----- --- --<br>----- ----- ------ -- ---- -- --- - ---- to - ----- -----<br>------ ---- ------ ---- - -------- ------- -- --- --------<br>-------- ----------- ---- ------ ---- ------ ---- --- ---<br>-------- --- -----,313941,313940.09999990463,313750.629,313759.19999980927,313767.518,313951.014,,20,to
screen,html.Screen,2_3_1_0_1_21,2022-04-30T11:39:19.229Z,,,,,,,,,,,,,,,,,40,,,,,,,,,,,,,,142.48599999997532,,response,,,,9,E,,,,,,Space,keypress(Space),,,,silence,,,,------ -- ------- ---- ---- ---- - -------- ----- --- --<br>----- ----- ------ -- ---- -- --- - ---- -- a ----- -----<br>------ ---- ------ ---- - -------- ------- -- --- --------<br>-------- ----------- ---- ------ ---- ------ ---- --- ---<br>-------- --- -----,314094.5,314093.5,313934.434,313941,313951.014,314100.526,,21,a
screen,html.Screen,2_3_1_0_1_22,2022-04-30T11:39:19.441Z,,,,,,,,,,,,,,,,,40,,,,,,,,,,,,,,205.47399999998743,,response,,,,9,E,,,,,,Space,keypress(Space),,,,silence,,,,------ -- ------- ---- ---- ---- - -------- ----- --- --<br>----- ----- ------ -- ---- -- --- - ---- -- - water -----<br>------ ---- ------ ---- - -------- ------- -- --- --------<br>-------- ----------- ---- ------ ---- ------ ---- --- ---<br>-------- --- -----,314306.89999985695,314306,314083.901,314094.69999980927,314100.526,314317.182,,22,water
screen,html.Screen,2_3_1_0_1_23,2022-04-30T11:39:19.628Z,,,,,,,,,,,,,,,,,40,,,,,,,,,,,,,,175.01799980929354,,response,,,,9,E,,,,,,Space,keypress(Space),,,,silence,,,,"------ -- ------- ---- ---- ---- - -------- ----- --- --<br>----- ----- ------ -- ---- -- --- - ---- -- - ----- park,<br>------ ---- ------ ---- - -------- ------- -- --- --------<br>-------- ----------- ---- ------ ---- ------ ---- --- ---<br>-------- --- -----",314493.2999999523,314492.19999980927,314300.52,314307,314317.182,314500.435,,23,"park,"
screen,html.Screen,2_3_1_0_1_24,2022-04-30T11:39:19.824Z,,,,,,,,,,,,,,,,,40,,,,,,,,,,,,,,187.8649999523186,,response,,,,9,E,,,,,,Space,keypress(Space),,,,silence,,,,------ -- ------- ---- ---- ---- - -------- ----- --- --<br>----- ----- ------ -- ---- -- --- - ---- -- - ----- -----<br>saying ---- ------ ---- - -------- ------- -- --- --------<br>-------- ----------- ---- ------ ---- ------ ---- --- ---<br>-------- --- -----,314689.2999999523,314688.2999999523,314484.082,314493.5,314500.435,314700.432,,24,saying
screen,html.Screen,2_3_1_0_1_25,2022-04-30T11:39:20.026Z,,,,,,,,,,,,,,,,,40,,,,,,,,,,,,,,189.66799990466097,,response,,,,9,E,,,,,,Space,keypress(Space),,,,silence,,,,------ -- ------- ---- ---- ---- - -------- ----- --- --<br>----- ----- ------ -- ---- -- --- - ---- -- - ----- -----<br>------ they ------ ---- - -------- ------- -- --- --------<br>-------- ----------- ---- ------ ---- ------ ---- --- ---<br>-------- --- -----,314891.19999980927,314890.09999990463,314683.822,314689.59999990463,314700.432,314900.348,,25,they
screen,html.Screen,2_3_1_0_1_26,2022-04-30T11:39:20.219Z,,,,,,,,,,,,,,,,,40,,,,,,,,,,,,,,183.15200000000186,,response,,,,9,E,,,,,,Space,keypress(Space),,,,silence,,,,------ -- ------- ---- ---- ---- - -------- ----- --- --<br>----- ----- ------ -- ---- -- --- - ---- -- - ----- -----<br>------ ---- didn't ---- - -------- ------- -- --- --------<br>-------- ----------- ---- ------ ---- ------ ---- --- ---<br>-------- --- -----,315084.39999985695,315083.5,314883.763,314891.39999985695,314900.348,315100.662,,26,didn't
screen,html.Screen,2_3_1_0_1_27,2022-04-30T11:39:20.407Z,,,,,,,,,,,,,,,,,40,,,,,,,,,,,,,,171.33799999998882,,response,,,,9,E,,,,,,Space,keypress(Space),,,,silence,,,,------ -- ------- ---- ---- ---- - -------- ----- --- --<br>----- ----- ------ -- ---- -- --- - ---- -- - ----- -----<br>------ ---- ------ have - -------- ------- -- --- --------<br>-------- ----------- ---- ------ ---- ------ ---- --- ---<br>-------- --- -----,315273,315272,315083.738,315084.59999990463,315100.662,315283.961,,27,have
screen,html.Screen,2_3_1_0_1_28,2022-04-30T11:39:20.598Z,,,,,,,,,,,,,,,,,40,,,,,,,,,,,,,,178.4389998569386,,response,,,,9,E,,,,,,Space,keypress(Space),,,,silence,,,,------ -- ------- ---- ---- ---- - -------- ----- --- --<br>----- ----- ------ -- ---- -- --- - ---- -- - ----- -----<br>------ ---- ------ ---- a -------- ------- -- --- --------<br>-------- ----------- ---- ------ ---- ------ ---- --- ---<br>-------- --- -----,315463.5,315462.39999985695,315267.019,315273.19999980927,315283.961,315467.011,,28,a
screen,html.Screen,2_3_1_0_1_29,2022-04-30T11:39:20.781Z,,,,,,,,,,,,,,,,,40,,,,,,,,,,,,,,178.4890000000014,,response,,,,9,E,,,,,,Space,keypress(Space),,,,silence,,,,------ -- ------- ---- ---- ---- - -------- ----- --- --<br>----- ----- ------ -- ---- -- --- - ---- -- - ----- -----<br>------ ---- ------ ---- - business ------- -- --- --------<br>-------- ----------- ---- ------ ---- ------ ---- --- ---<br>-------- --- -----,315646.2999999523,315645.5,315450.375,315463.59999990463,315467.011,315650.318,,29,business
screen,html.Screen,2_3_1_0_1_30,2022-04-30T11:39:20.960Z,,,,,,,,,,,,,,,,,40,,,,,,,,,,,,,,174.78199990460416,,response,,,,9,E,,,,,,Space,keypress(Space),,,,silence,,,,------ -- ------- ---- ---- ---- - -------- ----- --- --<br>----- ----- ------ -- ---- -- --- - ---- -- - ----- -----<br>------ ---- ------ ---- - -------- license -- --- --------<br>-------- ----------- ---- ------ ---- ------ ---- --- ---<br>-------- --- -----,315825.89999985695,315825.09999990463,315633.869,315646.5,315650.318,315833.571,,30,license
screen,html.Screen,2_3_1_0_1_31,2022-04-30T11:39:21.098Z,,,,,,,,,,,,,,,,,40,,,,,,,,,,,,,,128.82899985695258,,response,,,,9,E,,,,,,Space,keypress(Space),,,,silence,,,,------ -- ------- ---- ---- ---- - -------- ----- --- --<br>----- ----- ------ -- ---- -- --- - ---- -- - ----- -----<br>------ ---- ------ ---- - -------- ------- or --- --------<br>-------- ----------- ---- ------ ---- ------ ---- --- ---<br>-------- --- -----,315963.39999985695,315962.39999985695,315817.248,315826.09999990463,315833.571,315967.098,,31,or
screen,html.Screen,2_3_1_0_1_32,2022-04-30T11:39:21.346Z,,,,,,,,,,,,,,,,,40,,,,,,,,,,,,,,244.00199990463443,,response,,,,9,E,,,,,,Space,keypress(Space),,,,silence,,,,------ -- ------- ---- ---- ---- - -------- ----- --- --<br>----- ----- ------ -- ---- -- --- - ---- -- - ----- -----<br>------ ---- ------ ---- - -------- ------- -- the --------<br>-------- ----------- ---- ------ ---- ------ ---- --- ---<br>-------- --- -----,316211.89999985695,316211.09999990463,315950.281,315963.7999999523,315967.098,316216.868,,32,the
screen,html.Screen,2_3_1_0_1_33,2022-04-30T11:39:21.539Z,,,,,,,,,,,,,,,,,40,,,,,,,,,,,,,,186.63199999998324,,response,,,,9,E,,,,,,Space,keypress(Space),,,,silence,,,,------ -- ------- ---- ---- ---- - -------- ----- --- --<br>----- ----- ------ -- ---- -- --- - ---- -- - ----- -----<br>------ ---- ------ ---- - -------- ------- -- --- required<br>-------- ----------- ---- ------ ---- ------ ---- --- ---<br>-------- --- -----,316404.69999980927,316403.5,316200.253,316212.09999990463,316216.868,316416.841,,33,required
screen,html.Screen,2_3_1_0_1_34,2022-04-30T11:39:21.716Z,,,,,,,,,,,,,,,,,40,,,,,,,,,,,,,,163.35899980925024,,response,,,,9,E,,,,,,Space,keypress(Space),,,,silence,,,,------ -- ------- ---- ---- ---- - -------- ----- --- --<br>----- ----- ------ -- ---- -- --- - ---- -- - ----- -----<br>------ ---- ------ ---- - -------- ------- -- --- --------<br>permits. ----------- ---- ------ ---- ------ ---- --- ---<br>-------- --- -----,316581.19999980927,316580.19999980927,316400.245,316405,316416.841,316583.532,,34,permits.
screen,html.Screen,2_3_1_0_1_35,2022-04-30T11:39:21.897Z,,,,,,,,,,,,,,,,,40,,,,,,,,,,,,,,177.66799980925862,,response,,,,9,E,,,,,,Space,keypress(Space),,,,silence,,,,------ -- ------- ---- ---- ---- - -------- ----- --- --<br>----- ----- ------ -- ---- -- --- - ---- -- - ----- -----<br>------ ---- ------ ---- - -------- ------- -- --- --------<br>-------- Morningstar ---- ------ ---- ------ ---- --- ---<br>-------- --- -----,316762,316761.19999980927,316566.838,316581.39999985695,316583.532,316766.778,,35,Morningstar
screen,html.Screen,2_3_1_0_1_36,2022-04-30T11:39:22.075Z,,,,,,,,,,,,,,,,,40,,,,,,,,,,,,,,173.22200000000885,,response,,,,9,E,,,,,,Space,keypress(Space),,,,silence,,,,------ -- ------- ---- ---- ---- - -------- ----- --- --<br>----- ----- ------ -- ---- -- --- - ---- -- - ----- -----<br>------ ---- ------ ---- - -------- ------- -- --- --------<br>-------- ----------- says ------ ---- ------ ---- --- ---<br>-------- --- -----,316940.89999985695,316940,316750.209,316762.2999999523,316766.778,316950.101,,36,says
screen,html.Screen,2_3_1_0_1_37,2022-04-30T11:39:22.292Z,,,,,,,,,,,,,,,,,40,,,,,,,,,,,,,,206.79899985692464,,response,,,,9,E,,,,,,Space,keypress(Space),,,,silence,,,,------ -- ------- ---- ---- ---- - -------- ----- --- --<br>----- ----- ------ -- ---- -- --- - ---- -- - ----- -----<br>------ ---- ------ ---- - -------- ------- -- --- --------<br>-------- ----------- ---- police ---- ------ ---- --- ---<br>-------- --- -----,317157.7999999523,317156.89999985695,316933.905,316941.19999980927,316950.101,317167.029,,37,police
screen,html.Screen,2_3_1_0_1_38,2022-04-30T11:39:22.612Z,,,,,,,,,,,,,,,,,40,,,,,,,,,,,,,,308.97100000001956,,response,,,,9,E,,,,,,Space,keypress(Space),,,,silence,,,,------ -- ------- ---- ---- ---- - -------- ----- --- --<br>----- ----- ------ -- ---- -- --- - ---- -- - ----- -----<br>------ ---- ------ ---- - -------- ------- -- --- --------<br>-------- ----------- ---- ------ also ------ ---- --- ---<br>-------- --- -----,317477.09999990463,317476,317150.155,317158,317167.029,317483.361,,38,also
screen,html.Screen,2_3_1_0_1_39,2022-04-30T11:39:22.810Z,,,,,,,,,,,,,,,,,40,,,,,,,,,,,,,,190.83899980928982,,response,,,,9,E,,,,,,Space,keypress(Space),,,,silence,,,,------ -- ------- ---- ---- ---- - -------- ----- --- --<br>----- ----- ------ -- ---- -- --- - ---- -- - ----- -----<br>------ ---- ------ ---- - -------- ------- -- --- --------<br>-------- ----------- ---- ------ ---- didn't ---- --- ---<br>-------- --- -----,317675.2999999523,317674.19999980927,317467.025,317477.19999980927,317483.361,317683.294,,39,didn't
screen,html.Screen,2_3_1_0_1_40,2022-04-30T11:39:23.058Z,,,,,,,,,,,,,,,,,40,,,,,,,,,,,,,,239.40599980927072,,response,,,,9,E,,,,,,Space,keypress(Space),,,,silence,,,,------ -- ------- ---- ---- ---- - -------- ----- --- --<br>----- ----- ------ -- ---- -- --- - ---- -- - ----- -----<br>------ ---- ------ ---- - -------- ------- -- --- --------<br>-------- ----------- ---- ------ ---- ------ know --- ---<br>-------- --- -----,317923.59999990463,317922.69999980927,317666.746,317675.5,317683.294,317933.306,,40,know
screen,html.Screen,2_3_1_0_1_41,2022-04-30T11:39:23.297Z,,,,,,,,,,,,,,,,,40,,,,,,,,,,,,,,227.89399980928283,,response,,,,9,E,,,,,,Space,keypress(Space),,,,silence,,,,------ -- ------- ---- ---- ---- - -------- ----- --- --<br>----- ----- ------ -- ---- -- --- - ---- -- - ----- -----<br>------ ---- ------ ---- - -------- ------- -- --- --------<br>-------- ----------- ---- ------ ---- ------ ---- how ---<br>-------- --- -----,318162.19999980927,318161.19999980927,317916.704,317923.7999999523,317933.306,318166.601,,41,how
screen,html.Screen,2_3_1_0_1_42,2022-04-30T11:39:23.562Z,,,,,,,,,,,,,,,,,40,,,,,,,,,,,,,,260.0989998092409,,response,,,,9,E,,,,,,Space,keypress(Space),,,,silence,,,,------ -- ------- ---- ---- ---- - -------- ----- --- --<br>----- ----- ------ -- ---- -- --- - ---- -- - ----- -----<br>------ ---- ------ ---- - -------- ------- -- --- --------<br>-------- ----------- ---- ------ ---- ------ ---- --- the<br>-------- --- -----,318427.59999990463,318426.69999980927,318149.978,318162.2999999523,318166.601,318433.228,,42,the
screen,html.Screen,2_3_1_0_1_43,2022-04-30T11:39:23.943Z,,,,,,,,,,,,,,,,,40,,,,,,,,,,,,,,374.3719999046298,,response,,,,9,E,,,,,,Space,keypress(Space),,,,silence,,,,------ -- ------- ---- ---- ---- - -------- ----- --- --<br>----- ----- ------ -- ---- -- --- - ---- -- - ----- -----<br>------ ---- ------ ---- - -------- ------- -- --- --------<br>-------- ----------- ---- ------ ---- ------ ---- --- ---<br>lemonade --- -----,318808.59999990463,318807.59999990463,318416.619,318427.7999999523,318433.228,318816.51,,43,lemonade
screen,html.Screen,2_3_1_0_1_44,2022-04-30T11:39:24.267Z,,,,,,,,,,,,,,,,,40,,,,,,,,,,,,,,315.4899999999907,,response,,,,9,E,,,,,,Space,keypress(Space),,,,silence,,,,------ -- ------- ---- ---- ---- - -------- ----- --- --<br>----- ----- ------ -- ---- -- --- - ---- -- - ----- -----<br>------ ---- ------ ---- - -------- ------- -- --- --------<br>-------- ----------- ---- ------ ---- ------ ---- --- ---<br>-------- was -----,319132.89999985695,319132,318799.933,318808.69999980927,318816.51,319149.825,,44,was
screen,html.Screen,2_3_1_0_1_45,2022-04-30T11:39:25.332Z,,,,,,,,,,,,,,,,,40,,,,,,,,,,,,,,1047.1749999999884,,response,,,,9,E,,,,,,Space,keypress(Space),,,,silence,,,,------ -- ------- ---- ---- ---- - -------- ----- --- --<br>----- ----- ------ -- ---- -- --- - ---- -- - ----- -----<br>------ ---- ------ ---- - -------- ------- -- --- --------<br>-------- ----------- ---- ------ ---- ------ ---- --- ---<br>-------- --- made.,320197.89999985695,320197,319133.463,319133.39999985695,319149.825,320224.309,,45,made.
Item 9,flow.Loop,2_3_1_0_1,2022-04-30T11:39:25.333Z,,,,,,,,,,,,,,,,,,,,,,,,,,,,,,,14311.965000000026,,completion,,,,,,,,,,,,,,,,,,,,,320198.19999980927,320197,305868.365,305869.39999985695,305885.035,320224.309,,,
Question 1,html.Screen,2_3_1_0_2,2022-04-30T11:39:27.792Z,,,,,,,,,,,,,,,,,,,,,,,,,,,,true,FALSE,,2431.290999904624,,response,,,,9,E,,,,,,FALSE,click #choice-2,,,,silence,,,,,322657.09999990463,322655.59999990463,320183.108,320198.39999985695,320224.309,322665.98,,,
