sender,sender_type,sender_id,timestamp,meta,,Blues,Classical,Country,Dance,Electronic,Folk,Gospel,Hip-Hop,Jazz,Latin,Musical/Film,New-age,Pop,Prolific_id,Provo_ID,R&B,Rap,Reggae,Religious,Rock,Soul,Swing,Traditional,age,artist_name,correct,correctResponse,distraction,duration,education,ended_on,familiarity,gender,headphone_check_performance,item,list,music_frequency,offensiveness,pleasantness,position_correct,preference,response,response_action,snippet_file,song_name,song_rating,sound,stimulus_1,stimulus_2,stimulus_3,text,time_commit,time_end,time_render,time_run,time_show,time_switch,url,word,word_ID
Prolific ID,html.Form,0,2022-05-03T18:27:12.999Z,"{""labjs_version"":""20.2.2"",""labjs_build"":{""flavor"":""production"",""commit"":""a25486e0c714a0ae2ce03ff94b7bb6896854dcfa""},""location"":""https://run.pavlovia.org/mvasilev/prolific3_music_a/"",""userAgent"":""Mozilla/5.0 (Macintosh; Intel Mac OS X 10_15_7) AppleWebKit/605.1.15 (KHTML, like Gecko) Version/15.1 Safari/605.1.15"",""platform"":""MacIntel"",""language"":""en-GB"",""locale"":""en-GB"",""timeZone"":""Europe/London"",""timezoneOffset"":-60,""screen_width"":1440,""screen_height"":900,""scroll_width"":1282,""scroll_height"":643,""window_innerWidth"":1282,""window_innerHeight"":691,""devicePixelRatio"":2}",,,,,,,,,,,,,,,563e35190980220011572d9a,,,,,,,,,,,,,,,3060,,form submission,,,,,,,,,,,,,,,,,,,,,6208,6207,3130,3115,3147,6230,{},,
Introduction,html.Screen,1_0,2022-05-03T18:27:22.902Z,,,,,,,,,,,,,,,,,,,,,,,,,,,,,,,9887.000000000002,,response,,,,,,,,,,,continue,click button,,,,,,,,,16111,16100.000000000002,6213,6208,6230,16130,,,
Volume calibration,html.Screen,1_1,2022-05-03T18:27:30.202Z,,,,,,,,,,,,,,,,,,,,,,,,,,,,,,,7284,,response,,,,,,,,,,,continue,click button,,,,,,,,,23411,23399,16115,16111,16130,23447,,,
Task instructions,html.Screen,1_2,2022-05-03T18:27:32.082Z,,,,,,,,,,,,,,,,,,,,,,,,,,,,,,,1852,,response,,,,,,,,,,,continue,click button,,,,,,,,,25291,25282,23430,23411,23447,25310,,,
Sounds,html.Screen,1_3_0_0,2022-05-03T18:27:36.340Z,,,,,,,,,,,,,,,,,,,,,,,,,,,,,,,4254,,timeout,,,,,,,,,1,,,,,,,,S,I,O,,29549,29547,25297,25292,25310,29564,,,
Judgement,html.Screen,1_3_0_1,2022-05-03T18:27:38.132Z,,,,,,,,,,,,,,,,,,,,,,,,,,,,true,1,,1785,,response,,,,,,,,,1,,1,click #choice-1,,,,,S,I,O,,31341,31332,29547,29549,29564,31364,,,
Trial,flow.Sequence,1_3_0,2022-05-03T18:27:38.133Z,,,,,,,,,,,,,,,,,,,,,,,,,,,,,,,6022,,completion,,,,,,,,,1,,,,,,,,S,I,O,,31342.000000000004,31332,25297,25292,25310,31364,,,
Sounds,html.Screen,1_3_1_0,2022-05-03T18:27:42.389Z,,,,,,,,,,,,,,,,,,,,,,,,,,,,,,,4250,,timeout,,,,,,,,,1,,,,,,,,S,O,I,,35598,35597,31347,31342.000000000004,31364,35614,,,
Judgement,html.Screen,1_3_1_1,2022-05-03T18:27:42.831Z,,,,,,,,,,,,,,,,,,,,,,,,,,,,true,1,,436,,response,,,,,,,,,1,,1,click #choice-1,,,,,S,O,I,,36040,36033,35597,35598,35614,36078,,,
Trial,flow.Sequence,1_3_1,2022-05-03T18:27:42.832Z,,,,,,,,,,,,,,,,,,,,,,,,,,,,,,,4669,,completion,,,,,,,,,1,,,,,,,,S,O,I,,36041.00000000001,36033,31347,31342.000000000004,31364,36078,,,
Sounds,html.Screen,1_3_2_0,2022-05-03T18:27:47.105Z,,,,,,,,,,,,,,,,,,,,,,,,,,,,,,,4253,,timeout,,,,,,,,,3,,,,,,,,I,O,S,,40314,40314,36064,36041.00000000001,36078,40331,,,
Judgement,html.Screen,1_3_2_1,2022-05-03T18:27:47.600Z,,,,,,,,,,,,,,,,,,,,,,,,,,,,true,3,,487,,response,,,,,,,,,3,,3,click #choice-3,,,,,I,O,S,,40809,40801,40314,40315,40331,40831,,,
Trial,flow.Sequence,1_3_2,2022-05-03T18:27:47.601Z,,,,,,,,,,,,,,,,,,,,,,,,,,,,,,,4723,,completion,,,,,,,,,3,,,,,,,,I,O,S,,40810,40801,36064,36041.00000000001,36078,40831,,,
Sounds,html.Screen,1_3_3_0,2022-05-03T18:27:51.856Z,,,,,,,,,,,,,,,,,,,,,,,,,,,,,,,4250,,timeout,,,,,,,,,2,,,,,,,,O,S,I,,45065,45064,40814,40810,40831,45081,,,
Judgement,html.Screen,1_3_3_1,2022-05-03T18:27:52.332Z,,,,,,,,,,,,,,,,,,,,,,,,,,,,true,2,,469,,response,,,,,,,,,2,,2,click #choice-2,,,,,O,S,I,,45541.00000000001,45533,45064,45065,45081,45580,,,
Trial,flow.Sequence,1_3_3,2022-05-03T18:27:52.332Z,,,,,,,,,,,,,,,,,,,,,,,,,,,,,,,4702,,completion,,,,,,,,,2,,,,,,,,O,S,I,,45541.00000000001,45533,40814,40810,40831,45580,,,
Sounds,html.Screen,1_3_4_0,2022-05-03T18:27:56.605Z,,,,,,,,,,,,,,,,,,,,,,,,,,,,,,,4251,,timeout,,,,,,,,,2,,,,,,,,I,S,O,,49814,49813,45564,45541.00000000001,45580,49831,,,
Judgement,html.Screen,1_3_4_1,2022-05-03T18:27:57.082Z,,,,,,,,,,,,,,,,,,,,,,,,,,,,true,2,,470,,response,,,,,,,,,2,,2,click #choice-2,,,,,I,S,O,,50291.00000000001,50283,49813,49814,49831,50327,,,
Trial,flow.Sequence,1_3_4,2022-05-03T18:27:57.082Z,,,,,,,,,,,,,,,,,,,,,,,,,,,,,,,4703,,completion,,,,,,,,,2,,,,,,,,I,S,O,,50291.00000000001,50283,45564,45541.00000000001,45580,50327,,,
Sounds,html.Screen,1_3_5_0,2022-05-03T18:28:01.355Z,,,,,,,,,,,,,,,,,,,,,,,,,,,,,,,4254,,timeout,,,,,,,,,3,,,,,,,,O,I,S,,54564,54563,50314,50292,50327,54581,,,
Judgement,html.Screen,1_3_5_1,2022-05-03T18:28:01.732Z,,,,,,,,,,,,,,,,,,,,,,,,,,,,true,3,,370,,response,,,,,,,,,3,,3,click #choice-3,,,,,O,I,S,,54941,54933,54563,54565,54581,54965,,,
Trial,flow.Sequence,1_3_5,2022-05-03T18:28:01.732Z,,,,,,,,,,,,,,,,,,,,,,,,,,,,,,,4606,,completion,,,,,,,,,3,,,,,,,,O,I,S,,54941,54933,50314,50292,50327,54965,,,
Task,flow.Loop,1_3,2022-05-03T18:28:01.735Z,,,,,,,,,,,,,,,,,,,,,,,,,,,,,,,29623,,completion,,,1,,,,,,,,,,,,,,,,,,54944,54933,25297,25292,25310,54965,,,
Trap,html.Screen,1_4,2022-05-03T18:28:01.737Z,,,,,,,,,,,,,,,,,,,,,,,,,,,,,,,NaN,,skipped,,,,,,,,,,,,,,,,,,,,,54946,54933,,54946,,54965,,,
Thanks,html.Screen,1_5,2022-05-03T18:28:07.149Z,,,,,,,,,,,,,,,,,,,,,,,,,,,,,,,5402,,response,,,,,,,,,,,continue,click button,,,,,,,,,60358.00000000001,60350,54948,54946,54965,65581,,,
Headphone screening,flow.Sequence,1,2022-05-03T18:28:07.150Z,,,,,,,,,,,,,,,,,,,,,,,,,,,,,,,54120,,completion,,,,,,,,,,,,,,,,,,,,,60359,60350,6213,6208,6230,65581,,,
Instructions,html.Page,2_0,2022-05-03T18:28:14.054Z,,,,,,,,,,,,,,,,,,,,,,,,,,,,,,,1682,,form submission,,,,,,,,,,,,,,,,,,,,,67264,67263,65565,65559,65581,67298,,,
Holding screen,html.Screen,2_1_0_0,2022-05-03T18:28:24.074Z,,,,,,,,,,,,,,,,,,,,,,,,,,,,,,,10000,,timeout,,,,,,,,,,,,,,,,,,,,,77283,77282,67281,67264,67298,77298,,,
screen,html.Screen,2_1_0_1_0,2022-05-03T18:28:24.818Z,,,,,,,,,,,,,,,,,53,,,,,,,,,,,,,,736,,response,,,,99,,,,,,,Space,keypress(Space),,,,,,,,When -- ----- -- ------ - ------- --- ----------<br>------------- ------ ------ ---- ---- ------- ----- -- ----<br>-------- ------- -- ---------- --- - --- ----- ----- ----<br>---- --- --- ----- --- ---- ---- ------- ----- ---- -------<br>--- --- -- ----- -- --- ---- -- --- ---- -- ------ ------<br>--- ----- -- ----,78027,78018,77282,77284,77298,78064,,0,When
screen,html.Screen,2_1_0_1_1,2022-05-03T18:28:25.311Z,,,,,,,,,,,,,,,,,53,,,,,,,,,,,,,,461,,response,,,,99,,,,,,,Space,keypress(Space),,,,,,,,---- it ----- -- ------ - ------- --- ----------<br>------------- ------ ------ ---- ---- ------- ----- -- ----<br>-------- ------- -- ---------- --- - --- ----- ----- ----<br>---- --- --- ----- --- ---- ---- ------- ----- ---- -------<br>--- --- -- ----- -- --- ---- -- --- ---- -- ------ ------<br>--- ----- -- ----,78520,78509,78048,78027,78064,78548,,1,it
screen,html.Screen,2_1_0_1_2,2022-05-03T18:28:25.708Z,,,,,,,,,,,,,,,,,53,,,,,,,,,,,,,,375,,response,,,,99,,,,,,,Space,keypress(Space),,,,,,,,---- -- comes -- ------ - ------- --- ----------<br>------------- ------ ------ ---- ---- ------- ----- -- ----<br>-------- ------- -- ---------- --- - --- ----- ----- ----<br>---- --- --- ----- --- ---- ---- ------- ----- ---- -------<br>--- --- -- ----- -- --- ---- -- --- ---- -- ------ ------<br>--- ----- -- ----,78917,78907,78532,78521,78548,78948,,2,comes
screen,html.Screen,2_1_0_1_3,2022-05-03T18:28:26.101Z,,,,,,,,,,,,,,,,,53,,,,,,,,,,,,,,368,,response,,,,99,,,,,,,Space,keypress(Space),,,,,,,,---- -- ----- to ------ - ------- --- ----------<br>------------- ------ ------ ---- ---- ------- ----- -- ----<br>-------- ------- -- ---------- --- - --- ----- ----- ----<br>---- --- --- ----- --- ---- ---- ------- ----- ---- -------<br>--- --- -- ----- -- --- ---- -- --- ---- -- ------ ------<br>--- ----- -- ----,79310,79300,78932,78918,78948,79332,,3,to
screen,html.Screen,2_1_0_1_4,2022-05-03T18:28:26.568Z,,,,,,,,,,,,,,,,,53,,,,,,,,,,,,,,451,,response,,,,99,,,,,,,Space,keypress(Space),,,,,,,,---- -- ----- -- having - ------- --- ----------<br>------------- ------ ------ ---- ---- ------- ----- -- ----<br>-------- ------- -- ---------- --- - --- ----- ----- ----<br>---- --- --- ----- --- ---- ---- ------- ----- ---- -------<br>--- --- -- ----- -- --- ---- -- --- ---- -- ------ ------<br>--- ----- -- ----,79777,79766,79315,79311,79332,79815,,4,having
screen,html.Screen,2_1_0_1_5,2022-05-03T18:28:26.957Z,,,,,,,,,,,,,,,,,53,,,,,,,,,,,,,,358,,response,,,,99,,,,,,,Space,keypress(Space),,,,,,,,---- -- ----- -- ------ a ------- --- ----------<br>------------- ------ ------ ---- ---- ------- ----- -- ----<br>-------- ------- -- ---------- --- - --- ----- ----- ----<br>---- --- --- ----- --- ---- ---- ------- ----- ---- -------<br>--- --- -- ----- -- --- ---- -- --- ---- -- ------ ------<br>--- ----- -- ----,80166,80156,79798,79777,79815,80198,,5,a
screen,html.Screen,2_1_0_1_6,2022-05-03T18:28:27.460Z,,,,,,,,,,,,,,,,,53,,,,,,,,,,,,,,476,,response,,,,99,,,,,,,Space,keypress(Space),,,,,,,,---- -- ----- -- ------ - lasting --- ----------<br>------------- ------ ------ ---- ---- ------- ----- -- ----<br>-------- ------- -- ---------- --- - --- ----- ----- ----<br>---- --- --- ----- --- ---- ---- ------- ----- ---- -------<br>--- --- -- ----- -- --- ---- -- --- ---- -- ------ ------<br>--- ----- -- ----,80669,80658,80182,80167,80198,80698,,6,lasting
screen,html.Screen,2_1_0_1_7,2022-05-03T18:28:27.882Z,,,,,,,,,,,,,,,,,53,,,,,,,,,,,,,,399,,response,,,,99,,,,,,,Space,keypress(Space),,,,,,,,---- -- ----- -- ------ - ------- and ----------<br>------------- ------ ------ ---- ---- ------- ----- -- ----<br>-------- ------- -- ---------- --- - --- ----- ----- ----<br>---- --- --- ----- --- ---- ---- ------- ----- ---- -------<br>--- --- -- ----- -- --- ---- -- --- ---- -- ------ ------<br>--- ----- -- ----,81092,81081,80682,80669,80698,81132,,7,and
screen,html.Screen,2_1_0_1_8,2022-05-03T18:28:28.291Z,,,,,,,,,,,,,,,,,53,,,,,,,,,,,,,,375,,response,,,,99,,,,,,,Space,keypress(Space),,,,,,,,---- -- ----- -- ------ - ------- --- fulfilling<br>------------- ------ ------ ---- ---- ------- ----- -- ----<br>-------- ------- -- ---------- --- - --- ----- ----- ----<br>---- --- --- ----- --- ---- ---- ------- ----- ---- -------<br>--- --- -- ----- -- --- ---- -- --- ---- -- ------ ------<br>--- ----- -- ----,81501,81490,81115,81092,81132,81532,,8,fulfilling
screen,html.Screen,2_1_0_1_9,2022-05-03T18:28:28.772Z,,,,,,,,,,,,,,,,,53,,,,,,,,,,,,,,456,,response,,,,99,,,,,,,Space,keypress(Space),,,,,,,,"---- -- ----- -- ------ - ------- --- ----------<br>relationship, ------ ------ ---- ---- ------- ----- -- ----<br>-------- ------- -- ---------- --- - --- ----- ----- ----<br>---- --- --- ----- --- ---- ---- ------- ----- ---- -------<br>--- --- -- ----- -- --- ---- -- --- ---- -- ------ ------<br>--- ----- -- ----",81981.00000000001,81971,81515,81501,81532,82015,,9,"relationship,"
screen,html.Screen,2_1_0_1_10,2022-05-03T18:28:29.427Z,,,,,,,,,,,,,,,,,53,,,,,,,,,,,,,,627,,response,,,,99,,,,,,,Space,keypress(Space),,,,,,,,---- -- ----- -- ------ - ------- --- ----------<br>------------- common ------ ---- ---- ------- ----- -- ----<br>-------- ------- -- ---------- --- - --- ----- ----- ----<br>---- --- --- ----- --- ---- ---- ------- ----- ---- -------<br>--- --- -- ----- -- --- ---- -- --- ---- -- ------ ------<br>--- ----- -- ----,82636,82625,81998,81981.00000000001,82015,82665,,10,common
screen,html.Screen,2_1_0_1_11,2022-05-03T18:28:30.043Z,,,,,,,,,,,,,,,,,53,,,,,,,,,,,,,,593,,response,,,,99,,,,,,,Space,keypress(Space),,,,,,,,---- -- ----- -- ------ - ------- --- ----------<br>------------- ------ wisdom ---- ---- ------- ----- -- ----<br>-------- ------- -- ---------- --- - --- ----- ----- ----<br>---- --- --- ----- --- ---- ---- ------- ----- ---- -------<br>--- --- -- ----- -- --- ---- -- --- ---- -- ------ ------<br>--- ----- -- ----,83252,83241,82648,82636,82665,83282,,11,wisdom
screen,html.Screen,2_1_0_1_12,2022-05-03T18:28:30.535Z,,,,,,,,,,,,,,,,,53,,,,,,,,,,,,,,468,,response,,,,99,,,,,,,Space,keypress(Space),,,,,,,,---- -- ----- -- ------ - ------- --- ----------<br>------------- ------ ------ says ---- ------- ----- -- ----<br>-------- ------- -- ---------- --- - --- ----- ----- ----<br>---- --- --- ----- --- ---- ---- ------- ----- ---- -------<br>--- --- -- ----- -- --- ---- -- --- ---- -- ------ ------<br>--- ----- -- ----,83744,83733,83265,83253,83282,83782,,12,says
screen,html.Screen,2_1_0_1_13,2022-05-03T18:28:31.003Z,,,,,,,,,,,,,,,,,53,,,,,,,,,,,,,,436.00000000001455,,response,,,,99,,,,,,,Space,keypress(Space),,,,,,,,---- -- ----- -- ------ - ------- --- ----------<br>------------- ------ ------ ---- that ------- ----- -- ----<br>-------- ------- -- ---------- --- - --- ----- ----- ----<br>---- --- --- ----- --- ---- ---- ------- ----- ---- -------<br>--- --- -- ----- -- --- ---- -- --- ---- -- ------ ------<br>--- ----- -- ----,84212,84201.00000000001,83765,83745,83782,84249,,13,that
screen,html.Screen,2_1_0_1_14,2022-05-03T18:28:31.605Z,,,,,,,,,,,,,,,,,53,,,,,,,,,,,,,,572,,response,,,,99,,,,,,,Space,keypress(Space),,,,,,,,---- -- ----- -- ------ - ------- --- ----------<br>------------- ------ ------ ---- ---- feeling ----- -- ----<br>-------- ------- -- ---------- --- - --- ----- ----- ----<br>---- --- --- ----- --- ---- ---- ------- ----- ---- -------<br>--- --- -- ----- -- --- ---- -- --- ---- -- ------ ------<br>--- ----- -- ----,84815,84804,84232,84212,84249,84849,,14,feeling
screen,html.Screen,2_1_0_1_15,2022-05-03T18:28:32.135Z,,,,,,,,,,,,,,,,,53,,,,,,,,,,,,,,501,,response,,,,99,,,,,,,Space,keypress(Space),,,,,,,,---- -- ----- -- ------ - ------- --- ----------<br>------------- ------ ------ ---- ---- ------- close -- ----<br>-------- ------- -- ---------- --- - --- ----- ----- ----<br>---- --- --- ----- --- ---- ---- ------- ----- ---- -------<br>--- --- -- ----- -- --- ---- -- --- ---- -- ------ ------<br>--- ----- -- ----,85344.00000000001,85333,84832,84815,84849,85381,,15,close
screen,html.Screen,2_1_0_1_16,2022-05-03T18:28:32.586Z,,,,,,,,,,,,,,,,,53,,,,,,,,,,,,,,419,,response,,,,99,,,,,,,Space,keypress(Space),,,,,,,,---- -- ----- -- ------ - ------- --- ----------<br>------------- ------ ------ ---- ---- ------- ----- to ----<br>-------- ------- -- ---------- --- - --- ----- ----- ----<br>---- --- --- ----- --- ---- ---- ------- ----- ---- -------<br>--- --- -- ----- -- --- ---- -- --- ---- -- ------ ------<br>--- ----- -- ----,85795,85784,85365,85344.00000000001,85381,85832,,16,to
screen,html.Screen,2_1_0_1_17,2022-05-03T18:28:33.044Z,,,,,,,,,,,,,,,,,53,,,,,,,,,,,,,,428,,response,,,,99,,,,,,,Space,keypress(Space),,,,,,,,---- -- ----- -- ------ - ------- --- ----------<br>------------- ------ ------ ---- ---- ------- ----- -- your<br>-------- ------- -- ---------- --- - --- ----- ----- ----<br>---- --- --- ----- --- ---- ---- ------- ----- ---- -------<br>--- --- -- ----- -- --- ---- -- --- ---- -- ------ ------<br>--- ----- -- ----,86253,86243,85815,85795,85832,86282,,17,your
screen,html.Screen,2_1_0_1_18,2022-05-03T18:28:33.642Z,,,,,,,,,,,,,,,,,53,,,,,,,,,,,,,,575,,response,,,,99,,,,,,,Space,keypress(Space),,,,,,,,---- -- ----- -- ------ - ------- --- ----------<br>------------- ------ ------ ---- ---- ------- ----- -- ----<br>romantic ------- -- ---------- --- - --- ----- ----- ----<br>---- --- --- ----- --- ---- ---- ------- ----- ---- -------<br>--- --- -- ----- -- --- ---- -- --- ---- -- ------ ------<br>--- ----- -- ----,86851,86840,86265,86253,86282,86881,,18,romantic
screen,html.Screen,2_1_0_1_19,2022-05-03T18:28:34.082Z,,,,,,,,,,,,,,,,,53,,,,,,,,,,,,,,415,,response,,,,99,,,,,,,Space,keypress(Space),,,,,,,,---- -- ----- -- ------ - ------- --- ----------<br>------------- ------ ------ ---- ---- ------- ----- -- ----<br>-------- partner -- ---------- --- - --- ----- ----- ----<br>---- --- --- ----- --- ---- ---- ------- ----- ---- -------<br>--- --- -- ----- -- --- ---- -- --- ---- -- ------ ------<br>--- ----- -- ----,87292,87280,86865,86851,86881,87332,,19,partner
screen,html.Screen,2_1_0_1_20,2022-05-03T18:28:34.532Z,,,,,,,,,,,,,,,,,53,,,,,,,,,,,,,,416.00000000001455,,response,,,,99,,,,,,,Space,keypress(Space),,,,,,,,---- -- ----- -- ------ - ------- --- ----------<br>------------- ------ ------ ---- ---- ------- ----- -- ----<br>-------- ------- is ---------- --- - --- ----- ----- ----<br>---- --- --- ----- --- ---- ---- ------- ----- ---- -------<br>--- --- -- ----- -- --- ---- -- --- ---- -- ------ ------<br>--- ----- -- ----,87741,87731.00000000001,87315,87292,87332,87782,,20,is
screen,html.Screen,2_1_0_1_21,2022-05-03T18:28:34.973Z,,,,,,,,,,,,,,,,,53,,,,,,,,,,,,,,405,,response,,,,99,,,,,,,Space,keypress(Space),,,,,,,,---- -- ----- -- ------ - ------- --- ----------<br>------------- ------ ------ ---- ---- ------- ----- -- ----<br>-------- ------- -- paramount. --- - --- ----- ----- ----<br>---- --- --- ----- --- ---- ---- ------- ----- ---- -------<br>--- --- -- ----- -- --- ---- -- --- ---- -- ------ ------<br>--- ----- -- ----,88182,88170,87765,87741,87782,88215,,21,paramount.
screen,html.Screen,2_1_0_1_22,2022-05-03T18:28:36.038Z,,,,,,,,,,,,,,,,,53,,,,,,,,,,,,,,1037,,response,,,,99,,,,,,,Space,keypress(Space),,,,,,,,---- -- ----- -- ------ - ------- --- ----------<br>------------- ------ ------ ---- ---- ------- ----- -- ----<br>-------- ------- -- ---------- But - --- ----- ----- ----<br>---- --- --- ----- --- ---- ---- ------- ----- ---- -------<br>--- --- -- ----- -- --- ---- -- --- ---- -- ------ ------<br>--- ----- -- ----,89247,89236,88199,88182,88215,89282,,22,But
screen,html.Screen,2_1_0_1_23,2022-05-03T18:28:36.565Z,,,,,,,,,,,,,,,,,53,,,,,,,,,,,,,,499,,response,,,,99,,,,,,,Space,keypress(Space),,,,,,,,---- -- ----- -- ------ - ------- --- ----------<br>------------- ------ ------ ---- ---- ------- ----- -- ----<br>-------- ------- -- ---------- --- a --- ----- ----- ----<br>---- --- --- ----- --- ---- ---- ------- ----- ---- -------<br>--- --- -- ----- -- --- ---- -- --- ---- -- ------ ------<br>--- ----- -- ----,89774,89764,89265,89247,89282,89815,,23,a
screen,html.Screen,2_1_0_1_24,2022-05-03T18:28:37.101Z,,,,,,,,,,,,,,,,,53,,,,,,,,,,,,,,499,,response,,,,99,,,,,,,Space,keypress(Space),,,,,,,,---- -- ----- -- ------ - ------- --- ----------<br>------------- ------ ------ ---- ---- ------- ----- -- ----<br>-------- ------- -- ---------- --- - new ----- ----- ----<br>---- --- --- ----- --- ---- ---- ------- ----- ---- -------<br>--- --- -- ----- -- --- ---- -- --- ---- -- ------ ------<br>--- ----- -- ----,90310,90298,89799,89774,89815,90349,,24,new
screen,html.Screen,2_1_0_1_25,2022-05-03T18:28:37.568Z,,,,,,,,,,,,,,,,,53,,,,,,,,,,,,,,436,,response,,,,99,,,,,,,Space,keypress(Space),,,,,,,,---- -- ----- -- ------ - ------- --- ----------<br>------------- ------ ------ ---- ---- ------- ----- -- ----<br>-------- ------- -- ---------- --- - --- study ----- ----<br>---- --- --- ----- --- ---- ---- ------- ----- ---- -------<br>--- --- -- ----- -- --- ---- -- --- ---- -- ------ ------<br>--- ----- -- ----,90777,90768,90332,90310,90349,90815,,25,study
screen,html.Screen,2_1_0_1_26,2022-05-03T18:28:38.011Z,,,,,,,,,,,,,,,,,53,,,,,,,,,,,,,,412.00000000001455,,response,,,,99,,,,,,,Space,keypress(Space),,,,,,,,---- -- ----- -- ------ - ------- --- ----------<br>------------- ------ ------ ---- ---- ------- ----- -- ----<br>-------- ------- -- ---------- --- - --- ----- finds ----<br>---- --- --- ----- --- ---- ---- ------- ----- ---- -------<br>--- --- -- ----- -- --- ---- -- --- ---- -- ------ ------<br>--- ----- -- ----,91220,91210.00000000001,90798,90777,90815,91249,,26,finds
screen,html.Screen,2_1_0_1_27,2022-05-03T18:28:38.433Z,,,,,,,,,,,,,,,,,53,,,,,,,,,,,,,,399,,response,,,,99,,,,,,,Space,keypress(Space),,,,,,,,---- -- ----- -- ------ - ------- --- ----------<br>------------- ------ ------ ---- ---- ------- ----- -- ----<br>-------- ------- -- ---------- --- - --- ----- ----- that<br>---- --- --- ----- --- ---- ---- ------- ----- ---- -------<br>--- --- -- ----- -- --- ---- -- --- ---- -- ------ ------<br>--- ----- -- ----,91642,91631,91232,91221,91249,91682,,27,that
screen,html.Screen,2_1_0_1_28,2022-05-03T18:28:38.970Z,,,,,,,,,,,,,,,,,53,,,,,,,,,,,,,,504,,response,,,,99,,,,,,,Space,keypress(Space),,,,,,,,---- -- ----- -- ------ - ------- --- ----------<br>------------- ------ ------ ---- ---- ------- ----- -- ----<br>-------- ------- -- ---------- --- - --- ----- ----- ----<br>it's --- --- ----- --- ---- ---- ------- ----- ---- -------<br>--- --- -- ----- -- --- ---- -- --- ---- -- ------ ------<br>--- ----- -- ----,92180,92169,91665,91642,91682,92215,,28,it's
screen,html.Screen,2_1_0_1_29,2022-05-03T18:28:39.424Z,,,,,,,,,,,,,,,,,53,,,,,,,,,,,,,,424,,response,,,,99,,,,,,,Space,keypress(Space),,,,,,,,---- -- ----- -- ------ - ------- --- ----------<br>------------- ------ ------ ---- ---- ------- ----- -- ----<br>-------- ------- -- ---------- --- - --- ----- ----- ----<br>---- not --- ----- --- ---- ---- ------- ----- ---- -------<br>--- --- -- ----- -- --- ---- -- --- ---- -- ------ ------<br>--- ----- -- ----,92633,92623,92199,92180,92215,92665,,29,not
screen,html.Screen,2_1_0_1_30,2022-05-03T18:28:39.954Z,,,,,,,,,,,,,,,,,53,,,,,,,,,,,,,,504,,response,,,,99,,,,,,,Space,keypress(Space),,,,,,,,---- -- ----- -- ------ - ------- --- ----------<br>------------- ------ ------ ---- ---- ------- ----- -- ----<br>-------- ------- -- ---------- --- - --- ----- ----- ----<br>---- --- how ----- --- ---- ---- ------- ----- ---- -------<br>--- --- -- ----- -- --- ---- -- --- ---- -- ------ ------<br>--- ----- -- ----,93164,93153,92649,92634,92665,93198,,30,how
screen,html.Screen,2_1_0_1_31,2022-05-03T18:28:40.415Z,,,,,,,,,,,,,,,,,53,,,,,,,,,,,,,,432,,response,,,,99,,,,,,,Space,keypress(Space),,,,,,,,---- -- ----- -- ------ - ------- --- ----------<br>------------- ------ ------ ---- ---- ------- ----- -- ----<br>-------- ------- -- ---------- --- - --- ----- ----- ----<br>---- --- --- close --- ---- ---- ------- ----- ---- -------<br>--- --- -- ----- -- --- ---- -- --- ---- -- ------ ------<br>--- ----- -- ----,93625,93614,93182,93164,93198,93665,,31,close
screen,html.Screen,2_1_0_1_32,2022-05-03T18:28:40.811Z,,,,,,,,,,,,,,,,,53,,,,,,,,,,,,,,361,,response,,,,99,,,,,,,Space,keypress(Space),,,,,,,,---- -- ----- -- ------ - ------- --- ----------<br>------------- ------ ------ ---- ---- ------- ----- -- ----<br>-------- ------- -- ---------- --- - --- ----- ----- ----<br>---- --- --- ----- you ---- ---- ------- ----- ---- -------<br>--- --- -- ----- -- --- ---- -- --- ---- -- ------ ------<br>--- ----- -- ----,94021,94010,93649,93625,93665,94049,,32,you
screen,html.Screen,2_1_0_1_33,2022-05-03T18:28:41.241Z,,,,,,,,,,,,,,,,,53,,,,,,,,,,,,,,408,,response,,,,99,,,,,,,Space,keypress(Space),,,,,,,,---- -- ----- -- ------ - ------- --- ----------<br>------------- ------ ------ ---- ---- ------- ----- -- ----<br>-------- ------- -- ---------- --- - --- ----- ----- ----<br>---- --- --- ----- --- feel ---- ------- ----- ---- -------<br>--- --- -- ----- -- --- ---- -- --- ---- -- ------ ------<br>--- ----- -- ----,94451.00000000001,94440,94032,94021,94049,94482,,33,feel
screen,html.Screen,2_1_0_1_34,2022-05-03T18:28:41.873Z,,,,,,,,,,,,,,,,,53,,,,,,,,,,,,,,608,,response,,,,99,,,,,,,Space,keypress(Space),,,,,,,,---- -- ----- -- ------ - ------- --- ----------<br>------------- ------ ------ ---- ---- ------- ----- -- ----<br>-------- ------- -- ---------- --- - --- ----- ----- ----<br>---- --- --- ----- --- ---- that ------- ----- ---- -------<br>--- --- -- ----- -- --- ---- -- --- ---- -- ------ ------<br>--- ----- -- ----,95082.00000000001,95072,94464,94451.00000000001,94482,95116,,34,that
screen,html.Screen,2_1_0_1_35,2022-05-03T18:28:42.337Z,,,,,,,,,,,,,,,,,53,,,,,,,,,,,,,,437,,response,,,,99,,,,,,,Space,keypress(Space),,,,,,,,---- -- ----- -- ------ - ------- --- ----------<br>------------- ------ ------ ---- ---- ------- ----- -- ----<br>-------- ------- -- ---------- --- - --- ----- ----- ----<br>---- --- --- ----- --- ---- ---- matters ----- ---- -------<br>--- --- -- ----- -- --- ---- -- --- ---- -- ------ ------<br>--- ----- -- ----,95547,95536,95099,95082.00000000001,95116,95582,,35,matters
screen,html.Screen,2_1_0_1_36,2022-05-03T18:28:42.885Z,,,,,,,,,,,,,,,,,53,,,,,,,,,,,,,,519,,response,,,,99,,,,,,,Space,keypress(Space),,,,,,,,"---- -- ----- -- ------ - ------- --- ----------<br>------------- ------ ------ ---- ---- ------- ----- -- ----<br>-------- ------- -- ---------- --- - --- ----- ----- ----<br>---- --- --- ----- --- ---- ---- ------- most, ---- -------<br>--- --- -- ----- -- --- ---- -- --- ---- -- ------ ------<br>--- ----- -- ----",96095,96084,95565,95547,95582,96132,,36,"most,"
screen,html.Screen,2_1_0_1_37,2022-05-03T18:28:43.382Z,,,,,,,,,,,,,,,,,53,,,,,,,,,,,,,,466,,response,,,,99,,,,,,,Space,keypress(Space),,,,,,,,---- -- ----- -- ------ - ------- --- ----------<br>------------- ------ ------ ---- ---- ------- ----- -- ----<br>-------- ------- -- ---------- --- - --- ----- ----- ----<br>---- --- --- ----- --- ---- ---- ------- ----- it's -------<br>--- --- -- ----- -- --- ---- -- --- ---- -- ------ ------<br>--- ----- -- ----,96592,96581,96115,96095,96132,96632,,37,it's
screen,html.Screen,2_1_0_1_38,2022-05-03T18:28:43.885Z,,,,,,,,,,,,,,,,,53,,,,,,,,,,,,,,469.00000000001455,,response,,,,99,,,,,,,Space,keypress(Space),,,,,,,,---- -- ----- -- ------ - ------- --- ----------<br>------------- ------ ------ ---- ---- ------- ----- -- ----<br>-------- ------- -- ---------- --- - --- ----- ----- ----<br>---- --- --- ----- --- ---- ---- ------- ----- ---- whether<br>--- --- -- ----- -- --- ---- -- --- ---- -- ------ ------<br>--- ----- -- ----,97095,97085.00000000001,96616,96592,96632,97132,,38,whether
screen,html.Screen,2_1_0_1_39,2022-05-03T18:28:44.308Z,,,,,,,,,,,,,,,,,53,,,,,,,,,,,,,,391,,response,,,,99,,,,,,,Space,keypress(Space),,,,,,,,---- -- ----- -- ------ - ------- --- ----------<br>------------- ------ ------ ---- ---- ------- ----- -- ----<br>-------- ------- -- ---------- --- - --- ----- ----- ----<br>---- --- --- ----- --- ---- ---- ------- ----- ---- -------<br>you --- -- ----- -- --- ---- -- --- ---- -- ------ ------<br>--- ----- -- ----,97518,97507,97116,97095,97132,97549,,39,you
screen,html.Screen,2_1_0_1_40,2022-05-03T18:28:44.783Z,,,,,,,,,,,,,,,,,53,,,,,,,,,,,,,,450,,response,,,,99,,,,,,,Space,keypress(Space),,,,,,,,---- -- ----- -- ------ - ------- --- ----------<br>------------- ------ ------ ---- ---- ------- ----- -- ----<br>-------- ------- -- ---------- --- - --- ----- ----- ----<br>---- --- --- ----- --- ---- ---- ------- ----- ---- -------<br>--- are -- ----- -- --- ---- -- --- ---- -- ------ ------<br>--- ----- -- ----,97992,97982,97532,97518,97549,98032,,40,are
screen,html.Screen,2_1_0_1_41,2022-05-03T18:28:45.212Z,,,,,,,,,,,,,,,,,53,,,,,,,,,,,,,,395,,response,,,,99,,,,,,,Space,keypress(Space),,,,,,,,---- -- ----- -- ------ - ------- --- ----------<br>------------- ------ ------ ---- ---- ------- ----- -- ----<br>-------- ------- -- ---------- --- - --- ----- ----- ----<br>---- --- --- ----- --- ---- ---- ------- ----- ---- -------<br>--- --- as ----- -- --- ---- -- --- ---- -- ------ ------<br>--- ----- -- ----,98421,98411,98016,97993,98032,98449,,41,as
screen,html.Screen,2_1_0_1_42,2022-05-03T18:28:45.709Z,,,,,,,,,,,,,,,,,53,,,,,,,,,,,,,,475,,response,,,,99,,,,,,,Space,keypress(Space),,,,,,,,---- -- ----- -- ------ - ------- --- ----------<br>------------- ------ ------ ---- ---- ------- ----- -- ----<br>-------- ------- -- ---------- --- - --- ----- ----- ----<br>---- --- --- ----- --- ---- ---- ------- ----- ---- -------<br>--- --- -- close -- --- ---- -- --- ---- -- ------ ------<br>--- ----- -- ----,98918,98907,98432,98422,98449,98949,,42,close
screen,html.Screen,2_1_0_1_43,2022-05-03T18:28:46.171Z,,,,,,,,,,,,,,,,,53,,,,,,,,,,,,,,439,,response,,,,99,,,,,,,Space,keypress(Space),,,,,,,,---- -- ----- -- ------ - ------- --- ----------<br>------------- ------ ------ ---- ---- ------- ----- -- ----<br>-------- ------- -- ---------- --- - --- ----- ----- ----<br>---- --- --- ----- --- ---- ---- ------- ----- ---- -------<br>--- --- -- ----- as --- ---- -- --- ---- -- ------ ------<br>--- ----- -- ----,99381,99370,98931,98918,98949,99415,,43,as
screen,html.Screen,2_1_0_1_44,2022-05-03T18:28:46.627Z,,,,,,,,,,,,,,,,,53,,,,,,,,,,,,,,427.00000000001455,,response,,,,99,,,,,,,Space,keypress(Space),,,,,,,,---- -- ----- -- ------ - ------- --- ----------<br>------------- ------ ------ ---- ---- ------- ----- -- ----<br>-------- ------- -- ---------- --- - --- ----- ----- ----<br>---- --- --- ----- --- ---- ---- ------- ----- ---- -------<br>--- --- -- ----- -- you ---- -- --- ---- -- ------ ------<br>--- ----- -- ----,99837,99826.00000000001,99399,99381,99415,99866,,44,you
screen,html.Screen,2_1_0_1_45,2022-05-03T18:28:47.075Z,,,,,,,,,,,,,,,,,53,,,,,,,,,,,,,,425,,response,,,,99,,,,,,,Space,keypress(Space),,,,,,,,---- -- ----- -- ------ - ------- --- ----------<br>------------- ------ ------ ---- ---- ------- ----- -- ----<br>-------- ------- -- ---------- --- - --- ----- ----- ----<br>---- --- --- ----- --- ---- ---- ------- ----- ---- -------<br>--- --- -- ----- -- --- want -- --- ---- -- ------ ------<br>--- ----- -- ----,100284,100274,99849,99837,99866,100316,,45,want
screen,html.Screen,2_1_0_1_46,2022-05-03T18:28:47.462Z,,,,,,,,,,,,,,,,,53,,,,,,,,,,,,,,362,,response,,,,99,,,,,,,Space,keypress(Space),,,,,,,,---- -- ----- -- ------ - ------- --- ----------<br>------------- ------ ------ ---- ---- ------- ----- -- ----<br>-------- ------- -- ---------- --- - --- ----- ----- ----<br>---- --- --- ----- --- ---- ---- ------- ----- ---- -------<br>--- --- -- ----- -- --- ---- to --- ---- -- ------ ------<br>--- ----- -- ----,100671,100661,100299,100284,100316,100699,,46,to
screen,html.Screen,2_1_0_1_47,2022-05-03T18:28:47.844Z,,,,,,,,,,,,,,,,,53,,,,,,,,,,,,,,361,,response,,,,99,,,,,,,Space,keypress(Space),,,,,,,,"---- -- ----- -- ------ - ------- --- ----------<br>------------- ------ ------ ---- ---- ------- ----- -- ----<br>-------- ------- -- ---------- --- - --- ----- ----- ----<br>---- --- --- ----- --- ---- ---- ------- ----- ---- -------<br>--- --- -- ----- -- --- ---- -- be, ---- -- ------ ------<br>--- ----- -- ----",101053,101043,100682,100671,100699,101082,,47,"be,"
screen,html.Screen,2_1_0_1_48,2022-05-03T18:28:48.325Z,,,,,,,,,,,,,,,,,53,,,,,,,,,,,,,,459,,response,,,,99,,,,,,,Space,keypress(Space),,,,,,,,---- -- ----- -- ------ - ------- --- ----------<br>------------- ------ ------ ---- ---- ------- ----- -- ----<br>-------- ------- -- ---------- --- - --- ----- ----- ----<br>---- --- --- ----- --- ---- ---- ------- ----- ---- -------<br>--- --- -- ----- -- --- ---- -- --- even -- ------ ------<br>--- ----- -- ----,101534,101524,101065,101053,101082,101566,,48,even
screen,html.Screen,2_1_0_1_49,2022-05-03T18:28:48.756Z,,,,,,,,,,,,,,,,,53,,,,,,,,,,,,,,406,,response,,,,99,,,,,,,Space,keypress(Space),,,,,,,,---- -- ----- -- ------ - ------- --- ----------<br>------------- ------ ------ ---- ---- ------- ----- -- ----<br>-------- ------- -- ---------- --- - --- ----- ----- ----<br>---- --- --- ----- --- ---- ---- ------- ----- ---- -------<br>--- --- -- ----- -- --- ---- -- --- ---- if ------ ------<br>--- ----- -- ----,101966.00000000001,101955,101549,101535,101566,101999,,49,if
screen,html.Screen,2_1_0_1_50,2022-05-03T18:28:49.180Z,,,,,,,,,,,,,,,,,53,,,,,,,,,,,,,,398,,response,,,,99,,,,,,,Space,keypress(Space),,,,,,,,---- -- ----- -- ------ - ------- --- ----------<br>------------- ------ ------ ---- ---- ------- ----- -- ----<br>-------- ------- -- ---------- --- - --- ----- ----- ----<br>---- --- --- ----- --- ---- ---- ------- ----- ---- -------<br>--- --- -- ----- -- --- ---- -- --- ---- -- that's ------<br>--- ----- -- ----,102390,102380,101982,101966.00000000001,101999,102432,,50,that's
screen,html.Screen,2_1_0_1_51,2022-05-03T18:28:49.631Z,,,,,,,,,,,,,,,,,53,,,,,,,,,,,,,,413.00000000001455,,response,,,,99,,,,,,,Space,keypress(Space),,,,,,,,---- -- ----- -- ------ - ------- --- ----------<br>------------- ------ ------ ---- ---- ------- ----- -- ----<br>-------- ------- -- ---------- --- - --- ----- ----- ----<br>---- --- --- ----- --- ---- ---- ------- ----- ---- -------<br>--- --- -- ----- -- --- ---- -- --- ---- -- ------ really<br>--- ----- -- ----,102840,102829.00000000001,102416,102390,102432,102882,,51,really
screen,html.Screen,2_1_0_1_52,2022-05-03T18:28:50.088Z,,,,,,,,,,,,,,,,,53,,,,,,,,,,,,,,420,,response,,,,99,,,,,,,Space,keypress(Space),,,,,,,,---- -- ----- -- ------ - ------- --- ----------<br>------------- ------ ------ ---- ---- ------- ----- -- ----<br>-------- ------- -- ---------- --- - --- ----- ----- ----<br>---- --- --- ----- --- ---- ---- ------- ----- ---- -------<br>--- --- -- ----- -- --- ---- -- --- ---- -- ------ ------<br>not ----- -- ----,103297,103286,102866,102840,102882,103332,,52,not
screen,html.Screen,2_1_0_1_53,2022-05-03T18:28:50.486Z,,,,,,,,,,,,,,,,,53,,,,,,,,,,,,,,369,,response,,,,99,,,,,,,Space,keypress(Space),,,,,,,,---- -- ----- -- ------ - ------- --- ----------<br>------------- ------ ------ ---- ---- ------- ----- -- ----<br>-------- ------- -- ---------- --- - --- ----- ----- ----<br>---- --- --- ----- --- ---- ---- ------- ----- ---- -------<br>--- --- -- ----- -- --- ---- -- --- ---- -- ------ ------<br>--- close -- ----,103695.00000000001,103685,103316,103297,103332,103715,,53,close
screen,html.Screen,2_1_0_1_54,2022-05-03T18:28:50.914Z,,,,,,,,,,,,,,,,,53,,,,,,,,,,,,,,414,,response,,,,99,,,,,,,Space,keypress(Space),,,,,,,,---- -- ----- -- ------ - ------- --- ----------<br>------------- ------ ------ ---- ---- ------- ----- -- ----<br>-------- ------- -- ---------- --- - --- ----- ----- ----<br>---- --- --- ----- --- ---- ---- ------- ----- ---- -------<br>--- --- -- ----- -- --- ---- -- --- ---- -- ------ ------<br>--- ----- at ----,104123,104113,103699,103696,103715,104166,,54,at
screen,html.Screen,2_1_0_1_55,2022-05-03T18:28:51.260Z,,,,,,,,,,,,,,,,,53,,,,,,,,,,,,,,309,,response,,,,99,,,,,,,Space,keypress(Space),,,,,,,,---- -- ----- -- ------ - ------- --- ----------<br>------------- ------ ------ ---- ---- ------- ----- -- ----<br>-------- ------- -- ---------- --- - --- ----- ----- ----<br>---- --- --- ----- --- ---- ---- ------- ----- ---- -------<br>--- --- -- ----- -- --- ---- -- --- ---- -- ------ ------<br>--- ----- -- all.,104469.00000000001,104458,104149,104123,104166,104499,,55,all.
Item 99,flow.Loop,2_1_0_1,2022-05-03T18:28:51.261Z,,,,,,,,,,,,,,,,,,,,,,,,,,,,,,,27160,,completion,,,,,A,,,,,,,,,,,silence,,,,,104470,104458,77282,77284,77298,104499,,,
Question 1,html.Screen,2_1_0_2,2022-05-03T18:28:57.084Z,,,,,,,,,,,,,,,,,,,,,,,,,,,,true,FALSE,,5804,,response,,,,99,A,,,,,,FALSE,click #choice-2,,,,silence,,,,,110293,110286,104482,104470,104499,110331,,,
Question 2,html.Screen,2_1_0_3,2022-05-03T18:29:00.950Z,,,,,,,,,,,,,,,,,,,,,,,,,,,,true,TRUE,,3836,,response,,,,99,A,,,,,,TRUE,click #choice-1,,,,silence,,,,,114160,114152,110316,110294,110331,114182,,,
Item 99,flow.Sequence,2_1_0,2022-05-03T18:29:00.951Z,,,,,,,,,,,,,,,,,,,,,,,,,,,,,,,46854,,completion,,,,,,,,,,,,,,,,,,,,,114161,114152,67281,67264,67298,114182,,,
Holding screen,html.Screen,2_1_1_0,2022-05-03T18:29:10.957Z,,,,,,,,,,,,,,,,,,,,,,,,,,,,,,,10001,,timeout,,,,,,,,,,,,,,,,,,,,,124167,124166,114166,114161,114182,124183,,,
screen,html.Screen,2_1_1_1_0,2022-05-03T18:29:12.424Z,,,,,,,,,,,,,,,,,54,,,,,,,,,,,,,,1515,,response,,,,100,,,,,,,Space,keypress(Space),,,,,,,,At --- ---- --- ------ ----- ------- ---- -- --- ------- --<br>------- ---------- ------ -- ----- -- ----- -- ---- ------<br>--- ----- --- --- ------ -------- ----- --- ------ ----- --<br>----- ----- ---------- --- --- ------ ------ ---- -- ------<br>------- --- ------ ----- --- ---- ------- -- ---- --- --<br>------- ------,125685,125681,124166,124167,124183,125716,,0,At
screen,html.Screen,2_1_1_1_1,2022-05-03T18:29:12.820Z,,,,,,,,,,,,,,,,,54,,,,,,,,,,,,,,378,,response,,,,100,,,,,,,Space,keypress(Space),,,,,,,,-- the ---- --- ------ ----- ------- ---- -- --- ------- --<br>------- ---------- ------ -- ----- -- ----- -- ---- ------<br>--- ----- --- --- ------ -------- ----- --- ------ ----- --<br>----- ----- ---------- --- --- ------ ------ ---- -- ------<br>------- --- ------ ----- --- ---- ------- -- ---- --- --<br>------- ------,126080,126077,125699,125685,125716,126099,,1,the
screen,html.Screen,2_1_1_1_2,2022-05-03T18:29:13.321Z,,,,,,,,,,,,,,,,,54,,,,,,,,,,,,,,493.00000000001455,,response,,,,100,,,,,,,Space,keypress(Space),,,,,,,,-- --- time --- ------ ----- ------- ---- -- --- ------- --<br>------- ---------- ------ -- ----- -- ----- -- ---- ------<br>--- ----- --- --- ------ -------- ----- --- ------ ----- --<br>----- ----- ---------- --- --- ------ ------ ---- -- ------<br>------- --- ------ ----- --- ---- ------- -- ---- --- --<br>------- ------,126581,126576.00000000001,126083,126080,126099,126616,,2,time
screen,html.Screen,2_1_1_1_3,2022-05-03T18:29:13.724Z,,,,,,,,,,,,,,,,,54,,,,,,,,,,,,,,379,,response,,,,100,,,,,,,Space,keypress(Space),,,,,,,,-- --- ---- the ------ ----- ------- ---- -- --- ------- --<br>------- ---------- ------ -- ----- -- ----- -- ---- ------<br>--- ----- --- --- ------ -------- ----- --- ------ ----- --<br>----- ----- ---------- --- --- ------ ------ ---- -- ------<br>------- --- ------ ----- --- ---- ------- -- ---- --- --<br>------- ------,126984.00000000001,126979,126600,126582.00000000001,126616,127016,,3,the
screen,html.Screen,2_1_1_1_4,2022-05-03T18:29:14.133Z,,,,,,,,,,,,,,,,,54,,,,,,,,,,,,,,389,,response,,,,100,,,,,,,Space,keypress(Space),,,,,,,,-- --- ---- --- French ----- ------- ---- -- --- ------- --<br>------- ---------- ------ -- ----- -- ----- -- ---- ------<br>--- ----- --- --- ------ -------- ----- --- ------ ----- --<br>----- ----- ---------- --- --- ------ ------ ---- -- ------<br>------- --- ------ ----- --- ---- ------- -- ---- --- --<br>------- ------,127393,127388,126999,126985,127016,127433,,4,French
screen,html.Screen,2_1_1_1_5,2022-05-03T18:29:14.508Z,,,,,,,,,,,,,,,,,54,,,,,,,,,,,,,,347,,response,,,,100,,,,,,,Space,keypress(Space),,,,,,,,-- --- ---- --- ------ crown ------- ---- -- --- ------- --<br>------- ---------- ------ -- ----- -- ----- -- ---- ------<br>--- ----- --- --- ------ -------- ----- --- ------ ----- --<br>----- ----- ---------- --- --- ------ ------ ---- -- ------<br>------- --- ------ ----- --- ---- ------- -- ---- --- --<br>------- ------,127768,127763,127416,127393,127433,127799,,5,crown
screen,html.Screen,2_1_1_1_6,2022-05-03T18:29:15.096Z,,,,,,,,,,,,,,,,,54,,,,,,,,,,,,,,568,,response,,,,100,,,,,,,Space,keypress(Space),,,,,,,,-- --- ---- --- ------ ----- secured ---- -- --- ------- --<br>------- ---------- ------ -- ----- -- ----- -- ---- ------<br>--- ----- --- --- ------ -------- ----- --- ------ ----- --<br>----- ----- ---------- --- --- ------ ------ ---- -- ------<br>------- --- ------ ----- --- ---- ------- -- ---- --- --<br>------- ------,128356,128351,127783,127769,127799,128400,,6,secured
screen,html.Screen,2_1_1_1_7,2022-05-03T18:29:15.503Z,,,,,,,,,,,,,,,,,54,,,,,,,,,,,,,,377.00000000001455,,response,,,,100,,,,,,,Space,keypress(Space),,,,,,,,-- --- ---- --- ------ ----- ------- much -- --- ------- --<br>------- ---------- ------ -- ----- -- ----- -- ---- ------<br>--- ----- --- --- ------ -------- ----- --- ------ ----- --<br>----- ----- ---------- --- --- ------ ------ ---- -- ------<br>------- --- ------ ----- --- ---- ------- -- ---- --- --<br>------- ------,128763,128759.00000000001,128382,128356,128400,128783,,7,much
screen,html.Screen,2_1_1_1_8,2022-05-03T18:29:15.892Z,,,,,,,,,,,,,,,,,54,,,,,,,,,,,,,,382,,response,,,,100,,,,,,,Space,keypress(Space),,,,,,,,-- --- ---- --- ------ ----- ------- ---- of --- ------- --<br>------- ---------- ------ -- ----- -- ----- -- ---- ------<br>--- ----- --- --- ------ -------- ----- --- ------ ----- --<br>----- ----- ---------- --- --- ------ ------ ---- -- ------<br>------- --- ------ ----- --- ---- ------- -- ---- --- --<br>------- ------,129152.00000000001,129148,128766,128764.00000000001,128783,129183,,8,of
screen,html.Screen,2_1_1_1_9,2022-05-03T18:29:16.239Z,,,,,,,,,,,,,,,,,54,,,,,,,,,,,,,,329,,response,,,,100,,,,,,,Space,keypress(Space),,,,,,,,-- --- ---- --- ------ ----- ------- ---- -- its ------- --<br>------- ---------- ------ -- ----- -- ----- -- ---- ------<br>--- ----- --- --- ------ -------- ----- --- ------ ----- --<br>----- ----- ---------- --- --- ------ ------ ---- -- ------<br>------- --- ------ ----- --- ---- ------- -- ---- --- --<br>------- ------,129500,129495,129166,129152.99999999999,129183,129533,,9,its
screen,html.Screen,2_1_1_1_10,2022-05-03T18:29:16.641Z,,,,,,,,,,,,,,,,,54,,,,,,,,,,,,,,381.00000000001455,,response,,,,100,,,,,,,Space,keypress(Space),,,,,,,,-- --- ---- --- ------ ----- ------- ---- -- --- revenue --<br>------- ---------- ------ -- ----- -- ----- -- ---- ------<br>--- ----- --- --- ------ -------- ----- --- ------ ----- --<br>----- ----- ---------- --- --- ------ ------ ---- -- ------<br>------- --- ------ ----- --- ---- ------- -- ---- --- --<br>------- ------,129902.00000000001,129896.00000000001,129515,129500,129533,129933,,10,revenue
screen,html.Screen,2_1_1_1_11,2022-05-03T18:29:17.062Z,,,,,,,,,,,,,,,,,54,,,,,,,,,,,,,,402.00000000001455,,response,,,,100,,,,,,,Space,keypress(Space),,,,,,,,-- --- ---- --- ------ ----- ------- ---- -- --- ------- by<br>------- ---------- ------ -- ----- -- ----- -- ---- ------<br>--- ----- --- --- ------ -------- ----- --- ------ ----- --<br>----- ----- ---------- --- --- ------ ------ ---- -- ------<br>------- --- ------ ----- --- ---- ------- -- ---- --- --<br>------- ------,130323.00000000001,130318.00000000001,129916,129902.00000000001,129933,130366,,11,by
screen,html.Screen,2_1_1_1_12,2022-05-03T18:29:17.477Z,,,,,,,,,,,,,,,,,54,,,,,,,,,,,,,,385,,response,,,,100,,,,,,,Space,keypress(Space),,,,,,,,-- --- ---- --- ------ ----- ------- ---- -- --- ------- --<br>issuing ---------- ------ -- ----- -- ----- -- ---- ------<br>--- ----- --- --- ------ -------- ----- --- ------ ----- --<br>----- ----- ---------- --- --- ------ ------ ---- -- ------<br>------- --- ------ ----- --- ---- ------- -- ---- --- --<br>------- ------,130738,130733,130348,130323.00000000001,130366,130766,,12,issuing
screen,html.Screen,2_1_1_1_13,2022-05-03T18:29:17.865Z,,,,,,,,,,,,,,,,,54,,,,,,,,,,,,,,371,,response,,,,100,,,,,,,Space,keypress(Space),,,,,,,,-- --- ---- --- ------ ----- ------- ---- -- --- ------- --<br>------- government ------ -- ----- -- ----- -- ---- ------<br>--- ----- --- --- ------ -------- ----- --- ------ ----- --<br>----- ----- ---------- --- --- ------ ------ ---- -- ------<br>------- --- ------ ----- --- ---- ------- -- ---- --- --<br>------- ------,131125,131121,130750,130738,130766,131148,,13,government
screen,html.Screen,2_1_1_1_14,2022-05-03T18:29:18.217Z,,,,,,,,,,,,,,,,,54,,,,,,,,,,,,,,338,,response,,,,100,,,,,,,Space,keypress(Space),,,,,,,,-- --- ---- --- ------ ----- ------- ---- -- --- ------- --<br>------- ---------- bonds. -- ----- -- ----- -- ---- ------<br>--- ----- --- --- ------ -------- ----- --- ------ ----- --<br>----- ----- ---------- --- --- ------ ------ ---- -- ------<br>------- --- ------ ----- --- ---- ------- -- ---- --- --<br>------- ------,131478,131471,131133,131126,131148,131499,,14,bonds.
screen,html.Screen,2_1_1_1_15,2022-05-03T18:29:18.610Z,,,,,,,,,,,,,,,,,54,,,,,,,,,,,,,,382,,response,,,,100,,,,,,,Space,keypress(Space),,,,,,,,-- --- ---- --- ------ ----- ------- ---- -- --- ------- --<br>------- ---------- ------ In ----- -- ----- -- ---- ------<br>--- ----- --- --- ------ -------- ----- --- ------ ----- --<br>----- ----- ---------- --- --- ------ ------ ---- -- ------<br>------- --- ------ ----- --- ---- ------- -- ---- --- --<br>------- ------,131870,131865,131483,131478,131499,131899,,15,In
screen,html.Screen,2_1_1_1_16,2022-05-03T18:29:18.952Z,,,,,,,,,,,,,,,,,54,,,,,,,,,,,,,,324,,response,,,,100,,,,,,,Space,keypress(Space),,,,,,,,"-- --- ---- --- ------ ----- ------- ---- -- --- ------- --<br>------- ---------- ------ -- 1727, -- ----- -- ---- ------<br>--- ----- --- --- ------ -------- ----- --- ------ ----- --<br>----- ----- ---------- --- --- ------ ------ ---- -- ------<br>------- --- ------ ----- --- ---- ------- -- ---- --- --<br>------- ------",132212,132207,131883,131871,131899,132233,,16,"1727,"
screen,html.Screen,2_1_1_1_17,2022-05-03T18:29:19.486Z,,,,,,,,,,,,,,,,,54,,,,,,,,,,,,,,526,,response,,,,100,,,,,,,Space,keypress(Space),,,,,,,,-- --- ---- --- ------ ----- ------- ---- -- --- ------- --<br>------- ---------- ------ -- ----- in ----- -- ---- ------<br>--- ----- --- --- ------ -------- ----- --- ------ ----- --<br>----- ----- ---------- --- --- ------ ------ ---- -- ------<br>------- --- ------ ----- --- ---- ------- -- ---- --- --<br>------- ------,132747,132741,132215,132212,132233,132782,,17,in
screen,html.Screen,2_1_1_1_18,2022-05-03T18:29:19.905Z,,,,,,,,,,,,,,,,,54,,,,,,,,,,,,,,395,,response,,,,100,,,,,,,Space,keypress(Space),,,,,,,,-- --- ---- --- ------ ----- ------- ---- -- --- ------- --<br>------- ---------- ------ -- ----- -- order -- ---- ------<br>--- ----- --- --- ------ -------- ----- --- ------ ----- --<br>----- ----- ---------- --- --- ------ ------ ---- -- ------<br>------- --- ------ ----- --- ---- ------- -- ---- --- --<br>------- ------,133165,133161,132766,132747,132782,133199,,18,order
screen,html.Screen,2_1_1_1_19,2022-05-03T18:29:20.286Z,,,,,,,,,,,,,,,,,54,,,,,,,,,,,,,,359,,response,,,,100,,,,,,,Space,keypress(Space),,,,,,,,-- --- ---- --- ------ ----- ------- ---- -- --- ------- --<br>------- ---------- ------ -- ----- -- ----- to ---- ------<br>--- ----- --- --- ------ -------- ----- --- ------ ----- --<br>----- ----- ---------- --- --- ------ ------ ---- -- ------<br>------- --- ------ ----- --- ---- ------- -- ---- --- --<br>------- ------,133546,133541,133182,133166,133199,133565,,19,to
screen,html.Screen,2_1_1_1_20,2022-05-03T18:29:20.623Z,,,,,,,,,,,,,,,,,54,,,,,,,,,,,,,,330,,response,,,,100,,,,,,,Space,keypress(Space),,,,,,,,-- --- ---- --- ------ ----- ------- ---- -- --- ------- --<br>------- ---------- ------ -- ----- -- ----- -- save ------<br>--- ----- --- --- ------ -------- ----- --- ------ ----- --<br>----- ----- ---------- --- --- ------ ------ ---- -- ------<br>------- --- ------ ----- --- ---- ------- -- ---- --- --<br>------- ------,133884,133879,133549,133547,133565,133916,,20,save
screen,html.Screen,2_1_1_1_21,2022-05-03T18:29:21.022Z,,,,,,,,,,,,,,,,,54,,,,,,,,,,,,,,378,,response,,,,100,,,,,,,Space,keypress(Space),,,,,,,,"-- --- ---- --- ------ ----- ------- ---- -- --- ------- --<br>------- ---------- ------ -- ----- -- ----- -- ---- money,<br>--- ----- --- --- ------ -------- ----- --- ------ ----- --<br>----- ----- ---------- --- --- ------ ------ ---- -- ------<br>------- --- ------ ----- --- ---- ------- -- ---- --- --<br>------- ------",134282,134278,133900,133884,133916,134316,,21,"money,"
screen,html.Screen,2_1_1_1_22,2022-05-03T18:29:21.413Z,,,,,,,,,,,,,,,,,54,,,,,,,,,,,,,,368,,response,,,,100,,,,,,,Space,keypress(Space),,,,,,,,-- --- ---- --- ------ ----- ------- ---- -- --- ------- --<br>------- ---------- ------ -- ----- -- ----- -- ---- ------<br>the ----- --- --- ------ -------- ----- --- ------ ----- --<br>----- ----- ---------- --- --- ------ ------ ---- -- ------<br>------- --- ------ ----- --- ---- ------- -- ---- --- --<br>------- ------,134673,134668,134300,134283.00000000003,134316,134700,,22,the
screen,html.Screen,2_1_1_1_23,2022-05-03T18:29:21.754Z,,,,,,,,,,,,,,,,,54,,,,,,,,,,,,,,327,,response,,,,100,,,,,,,Space,keypress(Space),,,,,,,,-- --- ---- --- ------ ----- ------- ---- -- --- ------- --<br>------- ---------- ------ -- ----- -- ----- -- ---- ------<br>--- state --- --- ------ -------- ----- --- ------ ----- --<br>----- ----- ---------- --- --- ------ ------ ---- -- ------<br>------- --- ------ ----- --- ---- ------- -- ---- --- --<br>------- ------,135014,135010,134683,134674,134700,135033,,23,state
screen,html.Screen,2_1_1_1_24,2022-05-03T18:29:22.096Z,,,,,,,,,,,,,,,,,54,,,,,,,,,,,,,,336,,response,,,,100,,,,,,,Space,keypress(Space),,,,,,,,-- --- ---- --- ------ ----- ------- ---- -- --- ------- --<br>------- ---------- ------ -- ----- -- ----- -- ---- ------<br>--- ----- cut --- ------ -------- ----- --- ------ ----- --<br>----- ----- ---------- --- --- ------ ------ ---- -- ------<br>------- --- ------ ----- --- ---- ------- -- ---- --- --<br>------- ------,135356,135352,135016,135015.00000000003,135033,135383,,24,cut
screen,html.Screen,2_1_1_1_25,2022-05-03T18:29:22.446Z,,,,,,,,,,,,,,,,,54,,,,,,,,,,,,,,336,,response,,,,100,,,,,,,Space,keypress(Space),,,,,,,,-- --- ---- --- ------ ----- ------- ---- -- --- ------- --<br>------- ---------- ------ -- ----- -- ----- -- ---- ------<br>--- ----- --- the ------ -------- ----- --- ------ ----- --<br>----- ----- ---------- --- --- ------ ------ ---- -- ------<br>------- --- ------ ----- --- ---- ------- -- ---- --- --<br>------- ------,135707,135702,135366,135357,135383,135733,,25,the
screen,html.Screen,2_1_1_1_26,2022-05-03T18:29:22.807Z,,,,,,,,,,,,,,,,,54,,,,,,,,,,,,,,346,,response,,,,100,,,,,,,Space,keypress(Space),,,,,,,,-- --- ---- --- ------ ----- ------- ---- -- --- ------- --<br>------- ---------- ------ -- ----- -- ----- -- ---- ------<br>--- ----- --- --- bonds' -------- ----- --- ------ ----- --<br>----- ----- ---------- --- --- ------ ------ ---- -- ------<br>------- --- ------ ----- --- ---- ------- -- ---- --- --<br>------- ------,136067,136062,135716,135707,135733,136100,,26,bonds'
screen,html.Screen,2_1_1_1_27,2022-05-03T18:29:23.214Z,,,,,,,,,,,,,,,,,54,,,,,,,,,,,,,,386,,response,,,,100,,,,,,,Space,keypress(Space),,,,,,,,-- --- ---- --- ------ ----- ------- ---- -- --- ------- --<br>------- ---------- ------ -- ----- -- ----- -- ---- ------<br>--- ----- --- --- ------ interest ----- --- ------ ----- --<br>----- ----- ---------- --- --- ------ ------ ---- -- ------<br>------- --- ------ ----- --- ---- ------- -- ---- --- --<br>------- ------,136475,136469,136083,136067,136100,136516,,27,interest
screen,html.Screen,2_1_1_1_28,2022-05-03T18:29:23.590Z,,,,,,,,,,,,,,,,,54,,,,,,,,,,,,,,345,,response,,,,100,,,,,,,Space,keypress(Space),,,,,,,,-- --- ---- --- ------ ----- ------- ---- -- --- ------- --<br>------- ---------- ------ -- ----- -- ----- -- ---- ------<br>--- ----- --- --- ------ -------- rate. --- ------ ----- --<br>----- ----- ---------- --- --- ------ ------ ---- -- ------<br>------- --- ------ ----- --- ---- ------- -- ---- --- --<br>------- ------,136850,136845,136500,136475,136516,136883,,28,rate.
screen,html.Screen,2_1_1_1_29,2022-05-03T18:29:24.138Z,,,,,,,,,,,,,,,,,54,,,,,,,,,,,,,,527,,response,,,,100,,,,,,,Space,keypress(Space),,,,,,,,-- --- ---- --- ------ ----- ------- ---- -- --- ------- --<br>------- ---------- ------ -- ----- -- ----- -- ---- ------<br>--- ----- --- --- ------ -------- ----- The ------ ----- --<br>----- ----- ---------- --- --- ------ ------ ---- -- ------<br>------- --- ------ ----- --- ---- ------- -- ---- --- --<br>------- ------,137398,137393,136866,136850,136883,137433,,29,The
screen,html.Screen,2_1_1_1_30,2022-05-03T18:29:24.440Z,,,,,,,,,,,,,,,,,54,,,,,,,,,,,,,,279,,response,,,,100,,,,,,,Space,keypress(Space),,,,,,,,-- --- ---- --- ------ ----- ------- ---- -- --- ------- --<br>------- ---------- ------ -- ----- -- ----- -- ---- ------<br>--- ----- --- --- ------ -------- ----- --- market ----- --<br>----- ----- ---------- --- --- ------ ------ ---- -- ------<br>------- --- ------ ----- --- ---- ------- -- ---- --- --<br>------- ------,137701,137695,137416,137399,137433,137733,,30,market
screen,html.Screen,2_1_1_1_31,2022-05-03T18:29:24.898Z,,,,,,,,,,,,,,,,,54,,,,,,,,,,,,,,438,,response,,,,100,,,,,,,Space,keypress(Space),,,,,,,,-- --- ---- --- ------ ----- ------- ---- -- --- ------- --<br>------- ---------- ------ -- ----- -- ----- -- ---- ------<br>--- ----- --- --- ------ -------- ----- --- ------ value --<br>----- ----- ---------- --- --- ------ ------ ---- -- ------<br>------- --- ------ ----- --- ---- ------- -- ---- --- --<br>------- ------,138159,138154,137716,137701,137733,138200,,31,value
screen,html.Screen,2_1_1_1_32,2022-05-03T18:29:25.292Z,,,,,,,,,,,,,,,,,54,,,,,,,,,,,,,,365,,response,,,,100,,,,,,,Space,keypress(Space),,,,,,,,-- --- ---- --- ------ ----- ------- ---- -- --- ------- --<br>------- ---------- ------ -- ----- -- ----- -- ---- ------<br>--- ----- --- --- ------ -------- ----- --- ------ ----- of<br>----- ----- ---------- --- --- ------ ------ ---- -- ------<br>------- --- ------ ----- --- ---- ------- -- ---- --- --<br>------- ------,138552,138548,138183,138159,138200,138583,,32,of
screen,html.Screen,2_1_1_1_33,2022-05-03T18:29:25.665Z,,,,,,,,,,,,,,,,,54,,,,,,,,,,,,,,355,,response,,,,100,,,,,,,Space,keypress(Space),,,,,,,,-- --- ---- --- ------ ----- ------- ---- -- --- ------- --<br>------- ---------- ------ -- ----- -- ----- -- ---- ------<br>--- ----- --- --- ------ -------- ----- --- ------ ----- --<br>these ----- ---------- --- --- ------ ------ ---- -- ------<br>------- --- ------ ----- --- ---- ------- -- ---- --- --<br>------- ------,138926.00000000003,138921,138566,138553,138583,138950,,33,these
screen,html.Screen,2_1_1_1_34,2022-05-03T18:29:26.057Z,,,,,,,,,,,,,,,,,54,,,,,,,,,,,,,,380.0000000000291,,response,,,,100,,,,,,,Space,keypress(Space),,,,,,,,-- --- ---- --- ------ ----- ------- ---- -- --- ------- --<br>------- ---------- ------ -- ----- -- ----- -- ---- ------<br>--- ----- --- --- ------ -------- ----- --- ------ ----- --<br>----- bonds ---------- --- --- ------ ------ ---- -- ------<br>------- --- ------ ----- --- ---- ------- -- ---- --- --<br>------- ------,139318,139313.00000000003,138933,138926.00000000003,138950,139350,,34,bonds
screen,html.Screen,2_1_1_1_35,2022-05-03T18:29:26.508Z,,,,,,,,,,,,,,,,,54,,,,,,,,,,,,,,432.0000000000291,,response,,,,100,,,,,,,Space,keypress(Space),,,,,,,,"-- --- ---- --- ------ ----- ------- ---- -- --- ------- --<br>------- ---------- ------ -- ----- -- ----- -- ---- ------<br>--- ----- --- --- ------ -------- ----- --- ------ ----- --<br>----- ----- plummeted, --- --- ------ ------ ---- -- ------<br>------- --- ------ ----- --- ---- ------- -- ---- --- --<br>------- ------",139769,139765.00000000003,139333,139318,139350,139800,,35,"plummeted,"
screen,html.Screen,2_1_1_1_36,2022-05-03T18:29:26.936Z,,,,,,,,,,,,,,,,,54,,,,,,,,,,,,,,409,,response,,,,100,,,,,,,Space,keypress(Space),,,,,,,,-- --- ---- --- ------ ----- ------- ---- -- --- ------- --<br>------- ---------- ------ -- ----- -- ----- -- ---- ------<br>--- ----- --- --- ------ -------- ----- --- ------ ----- --<br>----- ----- ---------- and --- ------ ------ ---- -- ------<br>------- --- ------ ----- --- ---- ------- -- ---- --- --<br>------- ------,140196,140192,139783,139769,139800,140233,,36,and
screen,html.Screen,2_1_1_1_37,2022-05-03T18:29:27.298Z,,,,,,,,,,,,,,,,,54,,,,,,,,,,,,,,337,,response,,,,100,,,,,,,Space,keypress(Space),,,,,,,,-- --- ---- --- ------ ----- ------- ---- -- --- ------- --<br>------- ---------- ------ -- ----- -- ----- -- ---- ------<br>--- ----- --- --- ------ -------- ----- --- ------ ----- --<br>----- ----- ---------- --- the ------ ------ ---- -- ------<br>------- --- ------ ----- --- ---- ------- -- ---- --- --<br>------- ------,140558,140553,140216,140197,140233,140583,,37,the
screen,html.Screen,2_1_1_1_38,2022-05-03T18:29:27.618Z,,,,,,,,,,,,,,,,,54,,,,,,,,,,,,,,308,,response,,,,100,,,,,,,Space,keypress(Space),,,,,,,,-- --- ---- --- ------ ----- ------- ---- -- --- ------- --<br>------- ---------- ------ -- ----- -- ----- -- ---- ------<br>--- ----- --- --- ------ -------- ----- --- ------ ----- --<br>----- ----- ---------- --- --- market ------ ---- -- ------<br>------- --- ------ ----- --- ---- ------- -- ---- --- --<br>------- ------,140878,140874,140566,140559,140583,140899,,38,market
screen,html.Screen,2_1_1_1_39,2022-05-03T18:29:27.986Z,,,,,,,,,,,,,,,,,54,,,,,,,,,,,,,,359,,response,,,,100,,,,,,,Space,keypress(Space),,,,,,,,-- --- ---- --- ------ ----- ------- ---- -- --- ------- --<br>------- ---------- ------ -- ----- -- ----- -- ---- ------<br>--- ----- --- --- ------ -------- ----- --- ------ ----- --<br>----- ----- ---------- --- --- ------ became ---- -- ------<br>------- --- ------ ----- --- ---- ------- -- ---- --- --<br>------- ------,141247,141242,140883,140879,140899,141266,,39,became
screen,html.Screen,2_1_1_1_40,2022-05-03T18:29:28.326Z,,,,,,,,,,,,,,,,,54,,,,,,,,,,,,,,334,,response,,,,100,,,,,,,Space,keypress(Space),,,,,,,,-- --- ---- --- ------ ----- ------- ---- -- --- ------- --<br>------- ---------- ------ -- ----- -- ----- -- ---- ------<br>--- ----- --- --- ------ -------- ----- --- ------ ----- --<br>----- ----- ---------- --- --- ------ ------ wary -- ------<br>------- --- ------ ----- --- ---- ------- -- ---- --- --<br>------- ------,141587,141583,141249,141247,141266,141616,,40,wary
screen,html.Screen,2_1_1_1_41,2022-05-03T18:29:28.655Z,,,,,,,,,,,,,,,,,54,,,,,,,,,,,,,,312,,response,,,,100,,,,,,,Space,keypress(Space),,,,,,,,-- --- ---- --- ------ ----- ------- ---- -- --- ------- --<br>------- ---------- ------ -- ----- -- ----- -- ---- ------<br>--- ----- --- --- ------ -------- ----- --- ------ ----- --<br>----- ----- ---------- --- --- ------ ------ ---- of ------<br>------- --- ------ ----- --- ---- ------- -- ---- --- --<br>------- ------,141915,141911,141599,141587,141616,141933,,41,of
screen,html.Screen,2_1_1_1_42,2022-05-03T18:29:28.987Z,,,,,,,,,,,,,,,,,54,,,,,,,,,,,,,,325,,response,,,,100,,,,,,,Space,keypress(Space),,,,,,,,-- --- ---- --- ------ ----- ------- ---- -- --- ------- --<br>------- ---------- ------ -- ----- -- ----- -- ---- ------<br>--- ----- --- --- ------ -------- ----- --- ------ ----- --<br>----- ----- ---------- --- --- ------ ------ ---- -- French<br>------- --- ------ ----- --- ---- ------- -- ---- --- --<br>------- ------,142247,142242,141917,141916,141933,142266,,42,French
screen,html.Screen,2_1_1_1_43,2022-05-03T18:29:29.318Z,,,,,,,,,,,,,,,,,54,,,,,,,,,,,,,,323,,response,,,,100,,,,,,,Space,keypress(Space),,,,,,,,-- --- ---- --- ------ ----- ------- ---- -- --- ------- --<br>------- ---------- ------ -- ----- -- ----- -- ---- ------<br>--- ----- --- --- ------ -------- ----- --- ------ ----- --<br>----- ----- ---------- --- --- ------ ------ ---- -- ------<br>credit. --- ------ ----- --- ---- ------- -- ---- --- --<br>------- ------,142578,142573,142250,142248,142266,142600,,43,credit.
screen,html.Screen,2_1_1_1_44,2022-05-03T18:29:29.633Z,,,,,,,,,,,,,,,,,54,,,,,,,,,,,,,,306,,response,,,,100,,,,,,,Space,keypress(Space),,,,,,,,-- --- ---- --- ------ ----- ------- ---- -- --- ------- --<br>------- ---------- ------ -- ----- -- ----- -- ---- ------<br>--- ----- --- --- ------ -------- ----- --- ------ ----- --<br>----- ----- ---------- --- --- ------ ------ ---- -- ------<br>------- The ------ ----- --- ---- ------- -- ---- --- --<br>------- ------,142894,142889,142583,142579,142600,142916,,44,The
screen,html.Screen,2_1_1_1_45,2022-05-03T18:29:29.907Z,,,,,,,,,,,,,,,,,54,,,,,,,,,,,,,,264,,response,,,,100,,,,,,,Space,keypress(Space),,,,,,,,-- --- ---- --- ------ ----- ------- ---- -- --- ------- --<br>------- ---------- ------ -- ----- -- ----- -- ---- ------<br>--- ----- --- --- ------ -------- ----- --- ------ ----- --<br>----- ----- ---------- --- --- ------ ------ ---- -- ------<br>------- --- French ----- --- ---- ------- -- ---- --- --<br>------- ------,143168,143163,142899,142894,142916,143199,,45,French
screen,html.Screen,2_1_1_1_46,2022-05-03T18:29:30.237Z,,,,,,,,,,,,,,,,,54,,,,,,,,,,,,,,311,,response,,,,100,,,,,,,Space,keypress(Space),,,,,,,,-- --- ---- --- ------ ----- ------- ---- -- --- ------- --<br>------- ---------- ------ -- ----- -- ----- -- ---- ------<br>--- ----- --- --- ------ -------- ----- --- ------ ----- --<br>----- ----- ---------- --- --- ------ ------ ---- -- ------<br>------- --- ------ state --- ---- ------- -- ---- --- --<br>------- ------,143498,143493,143182,143168,143199,143516,,46,state
screen,html.Screen,2_1_1_1_47,2022-05-03T18:29:30.554Z,,,,,,,,,,,,,,,,,54,,,,,,,,,,,,,,310,,response,,,,100,,,,,,,Space,keypress(Space),,,,,,,,-- --- ---- --- ------ ----- ------- ---- -- --- ------- --<br>------- ---------- ------ -- ----- -- ----- -- ---- ------<br>--- ----- --- --- ------ -------- ----- --- ------ ----- --<br>----- ----- ---------- --- --- ------ ------ ---- -- ------<br>------- --- ------ ----- was ---- ------- -- ---- --- --<br>------- ------,143815,143810,143500,143499,143516,143850,,47,was
screen,html.Screen,2_1_1_1_48,2022-05-03T18:29:30.912Z,,,,,,,,,,,,,,,,,54,,,,,,,,,,,,,,335,,response,,,,100,,,,,,,Space,keypress(Space),,,,,,,,-- --- ---- --- ------ ----- ------- ---- -- --- ------- --<br>------- ---------- ------ -- ----- -- ----- -- ---- ------<br>--- ----- --- --- ------ -------- ----- --- ------ ----- --<br>----- ----- ---------- --- --- ------ ------ ---- -- ------<br>------- --- ------ ----- --- left ------- -- ---- --- --<br>------- ------,144173,144168,143833,143815,143850,144199,,48,left
screen,html.Screen,2_1_1_1_49,2022-05-03T18:29:31.226Z,,,,,,,,,,,,,,,,,54,,,,,,,,,,,,,,300,,response,,,,100,,,,,,,Space,keypress(Space),,,,,,,,-- --- ---- --- ------ ----- ------- ---- -- --- ------- --<br>------- ---------- ------ -- ----- -- ----- -- ---- ------<br>--- ----- --- --- ------ -------- ----- --- ------ ----- --<br>----- ----- ---------- --- --- ------ ------ ---- -- ------<br>------- --- ------ ----- --- ---- without -- ---- --- --<br>------- ------,144486,144482,144182,144173,144199,144516,,49,without
screen,html.Screen,2_1_1_1_50,2022-05-03T18:29:31.586Z,,,,,,,,,,,,,,,,,54,,,,,,,,,,,,,,344,,response,,,,100,,,,,,,Space,keypress(Space),,,,,,,,-- --- ---- --- ------ ----- ------- ---- -- --- ------- --<br>------- ---------- ------ -- ----- -- ----- -- ---- ------<br>--- ----- --- --- ------ -------- ----- --- ------ ----- --<br>----- ----- ---------- --- --- ------ ------ ---- -- ------<br>------- --- ------ ----- --- ---- ------- an ---- --- --<br>------- ------,144847,144843,144499,144487,144516,144866,,50,an
screen,html.Screen,2_1_1_1_51,2022-05-03T18:29:31.914Z,,,,,,,,,,,,,,,,,54,,,,,,,,,,,,,,322,,response,,,,100,,,,,,,Space,keypress(Space),,,,,,,,-- --- ---- --- ------ ----- ------- ---- -- --- ------- --<br>------- ---------- ------ -- ----- -- ----- -- ---- ------<br>--- ----- --- --- ------ -------- ----- --- ------ ----- --<br>----- ----- ---------- --- --- ------ ------ ---- -- ------<br>------- --- ------ ----- --- ---- ------- -- easy --- --<br>------- ------,145175,145171,144849,144847,144866,145199,,51,easy
screen,html.Screen,2_1_1_1_52,2022-05-03T18:29:32.283Z,,,,,,,,,,,,,,,,,54,,,,,,,,,,,,,,358,,response,,,,100,,,,,,,Space,keypress(Space),,,,,,,,-- --- ---- --- ------ ----- ------- ---- -- --- ------- --<br>------- ---------- ------ -- ----- -- ----- -- ---- ------<br>--- ----- --- --- ------ -------- ----- --- ------ ----- --<br>----- ----- ---------- --- --- ------ ------ ---- -- ------<br>------- --- ------ ----- --- ---- ------- -- ---- way --<br>------- ------,145544,145540,145182,145176.00000000003,145199,145566,,52,way
screen,html.Screen,2_1_1_1_53,2022-05-03T18:29:32.618Z,,,,,,,,,,,,,,,,,54,,,,,,,,,,,,,,326,,response,,,,100,,,,,,,Space,keypress(Space),,,,,,,,-- --- ---- --- ------ ----- ------- ---- -- --- ------- --<br>------- ---------- ------ -- ----- -- ----- -- ---- ------<br>--- ----- --- --- ------ -------- ----- --- ------ ----- --<br>----- ----- ---------- --- --- ------ ------ ---- -- ------<br>------- --- ------ ----- --- ---- ------- -- ---- --- of<br>------- ------,145879,145875,145549,145545.00000000003,145566,145899,,53,of
screen,html.Screen,2_1_1_1_54,2022-05-03T18:29:32.910Z,,,,,,,,,,,,,,,,,54,,,,,,,,,,,,,,284,,response,,,,100,,,,,,,Space,keypress(Space),,,,,,,,-- --- ---- --- ------ ----- ------- ---- -- --- ------- --<br>------- ---------- ------ -- ----- -- ----- -- ---- ------<br>--- ----- --- --- ------ -------- ----- --- ------ ----- --<br>----- ----- ---------- --- --- ------ ------ ---- -- ------<br>------- --- ------ ----- --- ---- ------- -- ---- --- --<br>raising ------,146171,146166,145882,145879,145899,146199,,54,raising
screen,html.Screen,2_1_1_1_55,2022-05-03T18:29:33.329Z,,,,,,,,,,,,,,,,,54,,,,,,,,,,,,,,403,,response,,,,100,,,,,,,Space,keypress(Space),,,,,,,,-- --- ---- --- ------ ----- ------- ---- -- --- ------- --<br>------- ---------- ------ -- ----- -- ----- -- ---- ------<br>--- ----- --- --- ------ -------- ----- --- ------ ----- --<br>----- ----- ---------- --- --- ------ ------ ---- -- ------<br>------- --- ------ ----- --- ---- ------- -- ---- --- --<br>------- money.,146590,146585,146182,146172,146199,146633,,55,money.
Item 100,flow.Loop,2_1_1_1,2022-05-03T18:29:33.330Z,,,,,,,,,,,,,,,,,,,,,,,,,,,,,,,22402,,completion,,,,,A,,,,,,,,,,,silence,,,,,146591,146585,124166,124167,124183,146633,,,
Question 1,html.Screen,2_1_1_2,2022-05-03T18:29:36.666Z,,,,,,,,,,,,,,,,,,,,,,,,,,,,true,TRUE,,3308,,response,,,,100,A,,,,,,TRUE,click #choice-1,,,,silence,,,,,149927,149925,146617,146591,146633,149950,,,
Question 2,html.Screen,2_1_1_3,2022-05-03T18:29:39.515Z,,,,,,,,,,,,,,,,,,,,,,,,,,,,true,FALSE,,2842,,response,,,,100,A,,,,,,FALSE,click #choice-2,,,,silence,,,,,152776,152775,149933,149927,149950,152800,,,
Item 100,flow.Sequence,2_1_1,2022-05-03T18:29:39.516Z,,,,,,,,,,,,,,,,,,,,,,,,,,,,,,,38593,,completion,,,,,,,,,,,,,,,,,,,,,152777.00000000003,152775,114166,114161,114182,152800,,,
End of Practice,html.Page,2_1_2,2022-05-03T18:29:42.970Z,,,,,,,,,,,,,,,,,,,,,,,,,,,,,,,3430,,form submission,,,,,,,,,,,,,,,,,,,,,156231,156230,152783,152777.00000000003,152800,156249,,,
Practice,flow.Sequence,2_1,2022-05-03T18:29:42.970Z,,,,,,,,,,,,,,,,,,,,,,,,,,,,,,,88932,,completion,,,,,,,,,,,,,,,,,,,,,156231,156230,67281,67264,67298,156249,,,
Trap_instruction,html.Page,2_2_0,2022-05-03T18:29:46.469Z,,,,,,,,,,,,,,,,,,,,,,,,,,,,,,,3480,,form submission,,,,,,,,,,,,,,,,,,,,,159730,159729,156234,156231,156249,159750,,,
trap_trial,html.Screen,2_2_1,2022-05-03T18:29:48.999Z,,,,,,,,,,,,,,,,,,,,,,,,,,,,true,1,,2524,,response,,,,,,,,,,,1,click #choice-1,,,,,,,,,162261,162259,159735,159730,159750,162283,,,
end of trap trial,html.Page,2_2_2,2022-05-03T18:29:50.451Z,,,,,,,,,,,,,,,,,,,,,,,,,,,,,,,1428,,form submission,,,,,,,,,,,,,,,,,,,,,163712.00000000003,163711,162268,162261,162283,163730,,,
Trap 1,flow.Sequence,2_2,2022-05-03T18:29:50.451Z,,,,,,,,,,,,,,,,,,,,,,,,,,,,,,,7462,,completion,,,,,,,,,,,,,,,,,,,,,163712.00000000003,163711,156234,156231,156249,163730,,,
Standby,html.Page,2_3_0,2022-05-03T18:29:58.457Z,,,,,,,,,,,,,,,,,,,,,,,,,,,,,,,8004,,timeout,,,,,,,,,,,,,,,,,,,,,171718.00000000003,171717,163717,163712.00000000003,163730,171734,,,
Holding screen,html.Screen,2_3_1_0_0,2022-05-03T18:30:05.456Z,,,,,,,,,,,,,,,,,,,,,,,,,,,,,,,6999,,timeout,,,,,,,,,,,,,,,,,,,,,178718.00000000003,178717,171717,171719,171734,178733,,,
screen,html.Screen,2_3_1_0_1_0,2022-05-03T18:30:12.456Z,,,,,,,,,,,,,,,,,51,,,,,,,,,,,,,,7001,,timeout,,,,13,A,,,,,,,,,,,silence,,,,American -------- --- --- ---- --- --- ------ -- --------<br>---- --------- --- ------- ------------ ---------- ---------<br>--- ---------- ------- ---------- ------- -- -------- ----<br>---- --- ------ ----- ------ -- ---- --- ----- -- - -------<br>-------- -- --- --- -- ----- ----------- ----- -----------<br>---- --- ---------- --- ---- --- -- ----------,185718.00000000003,185718,178717,178718.00000000003,178733,185734,,0,American
screen,html.Screen,2_3_1_0_1_1,2022-05-03T18:30:15.383Z,,,,,,,,,,,,,,,,,51,,,,,,,,,,,,,,2923,,response,,,,13,A,,,,,,Space,keypress(Space),,,,silence,,,,-------- industry --- --- ---- --- --- ------ -- --------<br>---- --------- --- ------- ------------ ---------- ---------<br>--- ---------- ------- ---------- ------- -- -------- ----<br>---- --- ------ ----- ------ -- ---- --- ----- -- - -------<br>-------- -- --- --- -- ----- ----------- ----- -----------<br>---- --- ---------- --- ---- --- -- ----------,188645,188641,185718,185719,185734,188684,,1,industry
screen,html.Screen,2_3_1_0_1_2,2022-05-03T18:30:16.030Z,,,,,,,,,,,,,,,,,51,,,,,,,,,,,,,,619,,response,,,,13,A,,,,,,Space,keypress(Space),,,,silence,,,,-------- -------- may --- ---- --- --- ------ -- --------<br>---- --------- --- ------- ------------ ---------- ---------<br>--- ---------- ------- ---------- ------- -- -------- ----<br>---- --- ------ ----- ------ -- ---- --- ----- -- - -------<br>-------- -- --- --- -- ----- ----------- ----- -----------<br>---- --- ---------- --- ---- --- -- ----------,189292,189287,188668,188645,188684,189334,,2,may
screen,html.Screen,2_3_1_0_1_3,2022-05-03T18:30:16.642Z,,,,,,,,,,,,,,,,,51,,,,,,,,,,,,,,583,,response,,,,13,A,,,,,,Space,keypress(Space),,,,silence,,,,-------- -------- --- not ---- --- --- ------ -- --------<br>---- --------- --- ------- ------------ ---------- ---------<br>--- ---------- ------- ---------- ------- -- -------- ----<br>---- --- ------ ----- ------ -- ---- --- ----- -- - -------<br>-------- -- --- --- -- ----- ----------- ----- -----------<br>---- --- ---------- --- ---- --- -- ----------,189904,189900,189317,189293,189334,189934,,3,not
screen,html.Screen,2_3_1_0_1_4,2022-05-03T18:30:16.969Z,,,,,,,,,,,,,,,,,51,,,,,,,,,,,,,,310,,response,,,,13,A,,,,,,Space,keypress(Space),,,,silence,,,,-------- -------- --- --- know --- --- ------ -- --------<br>---- --------- --- ------- ------------ ---------- ---------<br>--- ---------- ------- ---------- ------- -- -------- ----<br>---- --- ------ ----- ------ -- ---- --- ----- -- - -------<br>-------- -- --- --- -- ----- ----------- ----- -----------<br>---- --- ---------- --- ---- --- -- ----------,190231,190228,189918,189905,189934,190251,,4,know
screen,html.Screen,2_3_1_0_1_5,2022-05-03T18:30:17.291Z,,,,,,,,,,,,,,,,,51,,,,,,,,,,,,,,316,,response,,,,13,A,,,,,,Space,keypress(Space),,,,silence,,,,"-------- -------- --- --- ---- it, --- ------ -- --------<br>---- --------- --- ------- ------------ ---------- ---------<br>--- ---------- ------- ---------- ------- -- -------- ----<br>---- --- ------ ----- ------ -- ---- --- ----- -- - -------<br>-------- -- --- --- -- ----- ----------- ----- -----------<br>---- --- ---------- --- ---- --- -- ----------",190553,190550,190234,190231,190251,190584,,5,"it,"
screen,html.Screen,2_3_1_0_1_6,2022-05-03T18:30:17.624Z,,,,,,,,,,,,,,,,,51,,,,,,,,,,,,,,315,,response,,,,13,A,,,,,,Space,keypress(Space),,,,silence,,,,-------- -------- --- --- ---- --- but ------ -- --------<br>---- --------- --- ------- ------------ ---------- ---------<br>--- ---------- ------- ---------- ------- -- -------- ----<br>---- --- ------ ----- ------ -- ---- --- ----- -- - -------<br>-------- -- --- --- -- ----- ----------- ----- -----------<br>---- --- ---------- --- ---- --- -- ----------,190886,190883,190568,190554,190584,190918,,6,but
screen,html.Screen,2_3_1_0_1_7,2022-05-03T18:30:17.892Z,,,,,,,,,,,,,,,,,51,,,,,,,,,,,,,,250,,response,,,,13,A,,,,,,Space,keypress(Space),,,,silence,,,,-------- -------- --- --- ---- --- --- debate -- --------<br>---- --------- --- ------- ------------ ---------- ---------<br>--- ---------- ------- ---------- ------- -- -------- ----<br>---- --- ------ ----- ------ -- ---- --- ----- -- - -------<br>-------- -- --- --- -- ----- ----------- ----- -----------<br>---- --- ---------- --- ---- --- -- ----------,191154,191151,190901,190886,190918,191184,,7,debate
screen,html.Screen,2_3_1_0_1_8,2022-05-03T18:30:18.241Z,,,,,,,,,,,,,,,,,51,,,,,,,,,,,,,,332,,response,,,,13,A,,,,,,Space,keypress(Space),,,,silence,,,,-------- -------- --- --- ---- --- --- ------ in --------<br>---- --------- --- ------- ------------ ---------- ---------<br>--- ---------- ------- ---------- ------- -- -------- ----<br>---- --- ------ ----- ------ -- ---- --- ----- -- - -------<br>-------- -- --- --- -- ----- ----------- ----- -----------<br>---- --- ---------- --- ---- --- -- ----------,191503,191499,191167,191154,191184,191534,,8,in
screen,html.Screen,2_3_1_0_1_9,2022-05-03T18:30:18.697Z,,,,,,,,,,,,,,,,,51,,,,,,,,,,,,,,438,,response,,,,13,A,,,,,,Space,keypress(Space),,,,silence,,,,-------- -------- --- --- ---- --- --- ------ -- Congress<br>---- --------- --- ------- ------------ ---------- ---------<br>--- ---------- ------- ---------- ------- -- -------- ----<br>---- --- ------ ----- ------ -- ---- --- ----- -- - -------<br>-------- -- --- --- -- ----- ----------- ----- -----------<br>---- --- ---------- --- ---- --- -- ----------,191959,191955,191517,191503,191534,192001,,9,Congress
screen,html.Screen,2_3_1_0_1_10,2022-05-03T18:30:19.037Z,,,,,,,,,,,,,,,,,51,,,,,,,,,,,,,,311.0000000000291,,response,,,,13,A,,,,,,Space,keypress(Space),,,,silence,,,,-------- -------- --- --- ---- --- --- ------ -- --------<br>over --------- --- ------- ------------ ---------- ---------<br>--- ---------- ------- ---------- ------- -- -------- ----<br>---- --- ------ ----- ------ -- ---- --- ----- -- - -------<br>-------- -- --- --- -- ----- ----------- ----- -----------<br>---- --- ---------- --- ---- --- -- ----------,192299,192295.00000000003,191984,191959,192001,192318,,10,over
screen,html.Screen,2_3_1_0_1_11,2022-05-03T18:30:19.308Z,,,,,,,,,,,,,,,,,51,,,,,,,,,,,,,,265,,response,,,,13,A,,,,,,Space,keypress(Space),,,,silence,,,,-------- -------- --- --- ---- --- --- ------ -- --------<br>---- reforming --- ------- ------------ ---------- ---------<br>--- ---------- ------- ---------- ------- -- -------- ----<br>---- --- ------ ----- ------ -- ---- --- ----- -- - -------<br>-------- -- --- --- -- ----- ----------- ----- -----------<br>---- --- ---------- --- ---- --- -- ----------,192570,192566,192301,192299,192318,192601,,11,reforming
screen,html.Screen,2_3_1_0_1_12,2022-05-03T18:30:19.607Z,,,,,,,,,,,,,,,,,51,,,,,,,,,,,,,,281,,response,,,,13,A,,,,,,Space,keypress(Space),,,,silence,,,,-------- -------- --- --- ---- --- --- ------ -- --------<br>---- --------- the ------- ------------ ---------- ---------<br>--- ---------- ------- ---------- ------- -- -------- ----<br>---- --- ------ ----- ------ -- ---- --- ----- -- - -------<br>-------- -- --- --- -- ----- ----------- ----- -----------<br>---- --- ---------- --- ---- --- -- ----------,192869,192865,192584,192570,192601,192901,,12,the
screen,html.Screen,2_3_1_0_1_13,2022-05-03T18:30:19.883Z,,,,,,,,,,,,,,,,,51,,,,,,,,,,,,,,258,,response,,,,13,A,,,,,,Space,keypress(Space),,,,silence,,,,-------- -------- --- --- ---- --- --- ------ -- --------<br>---- --------- --- federal ------------ ---------- ---------<br>--- ---------- ------- ---------- ------- -- -------- ----<br>---- --- ------ ----- ------ -- ---- --- ----- -- - -------<br>-------- -- --- --- -- ----- ----------- ----- -----------<br>---- --- ---------- --- ---- --- -- ----------,193145,193142,192884,192869,192901,193168,,13,federal
screen,html.Screen,2_3_1_0_1_14,2022-05-03T18:30:20.340Z,,,,,,,,,,,,,,,,,51,,,,,,,,,,,,,,447,,response,,,,13,A,,,,,,Space,keypress(Space),,,,silence,,,,-------- -------- --- --- ---- --- --- ------ -- --------<br>---- --------- --- ------- government's ---------- ---------<br>--- ---------- ------- ---------- ------- -- -------- ----<br>---- --- ------ ----- ------ -- ---- --- ----- -- - -------<br>-------- -- --- --- -- ----- ----------- ----- -----------<br>---- --- ---------- --- ---- --- -- ----------,193601,193598,193151,193146.00000000003,193168,193634,,14,government's
screen,html.Screen,2_3_1_0_1_15,2022-05-03T18:30:20.701Z,,,,,,,,,,,,,,,,,51,,,,,,,,,,,,,,341,,response,,,,13,A,,,,,,Space,keypress(Space),,,,silence,,,,-------- -------- --- --- ---- --- --- ------ -- --------<br>---- --------- --- ------- ------------ regulatory ---------<br>--- ---------- ------- ---------- ------- -- -------- ----<br>---- --- ------ ----- ------ -- ---- --- ----- -- - -------<br>-------- -- --- --- -- ----- ----------- ----- -----------<br>---- --- ---------- --- ---- --- -- ----------,193963,193959,193618,193602,193634,193985,,15,regulatory
screen,html.Screen,2_3_1_0_1_16,2022-05-03T18:30:21.424Z,,,,,,,,,,,,,,,,,51,,,,,,,,,,,,,,715,,response,,,,13,A,,,,,,Space,keypress(Space),,,,silence,,,,-------- -------- --- --- ---- --- --- ------ -- --------<br>---- --------- --- ------- ------------ ---------- apparatus<br>--- ---------- ------- ---------- ------- -- -------- ----<br>---- --- ------ ----- ------ -- ---- --- ----- -- - -------<br>-------- -- --- --- -- ----- ----------- ----- -----------<br>---- --- ---------- --- ---- --- -- ----------,194686,194683,193968,193963,193985,194718,,16,apparatus
screen,html.Screen,2_3_1_0_1_17,2022-05-03T18:30:21.885Z,,,,,,,,,,,,,,,,,51,,,,,,,,,,,,,,443,,response,,,,13,A,,,,,,Space,keypress(Space),,,,silence,,,,-------- -------- --- --- ---- --- --- ------ -- --------<br>---- --------- --- ------- ------------ ---------- ---------<br>may ---------- ------- ---------- ------- -- -------- ----<br>---- --- ------ ----- ------ -- ---- --- ----- -- - -------<br>-------- -- --- --- -- ----- ----------- ----- -----------<br>---- --- ---------- --- ---- --- -- ----------,195147,195144,194701,194687,194718,195184,,17,may
screen,html.Screen,2_3_1_0_1_18,2022-05-03T18:30:22.560Z,,,,,,,,,,,,,,,,,51,,,,,,,,,,,,,,651,,response,,,,13,A,,,,,,Space,keypress(Space),,,,silence,,,,-------- -------- --- --- ---- --- --- ------ -- --------<br>---- --------- --- ------- ------------ ---------- ---------<br>--- profoundly ------- ---------- ------- -- -------- ----<br>---- --- ------ ----- ------ -- ---- --- ----- -- - -------<br>-------- -- --- --- -- ----- ----------- ----- -----------<br>---- --- ---------- --- ---- --- -- ----------,195822,195818,195167,195148,195184,195851,,18,profoundly
screen,html.Screen,2_3_1_0_1_19,2022-05-03T18:30:23.203Z,,,,,,,,,,,,,,,,,51,,,,,,,,,,,,,,627,,response,,,,13,A,,,,,,Space,keypress(Space),,,,silence,,,,-------- -------- --- --- ---- --- --- ------ -- --------<br>---- --------- --- ------- ------------ ---------- ---------<br>--- ---------- improve ---------- ------- -- -------- ----<br>---- --- ------ ----- ------ -- ---- --- ----- -- - -------<br>-------- -- --- --- -- ----- ----------- ----- -----------<br>---- --- ---------- --- ---- --- -- ----------,196465,196461,195834,195822,195851,196501,,19,improve
screen,html.Screen,2_3_1_0_1_20,2022-05-03T18:30:23.752Z,,,,,,,,,,,,,,,,,51,,,,,,,,,,,,,,525,,response,,,,13,A,,,,,,Space,keypress(Space),,,,silence,,,,-------- -------- --- --- ---- --- --- ------ -- --------<br>---- --------- --- ------- ------------ ---------- ---------<br>--- ---------- ------- companies' ------- -- -------- ----<br>---- --- ------ ----- ------ -- ---- --- ----- -- - -------<br>-------- -- --- --- -- ----- ----------- ----- -----------<br>---- --- ---------- --- ---- --- -- ----------,197014,197010,196485,196465,196501,197050,,20,companies'
screen,html.Screen,2_3_1_0_1_21,2022-05-03T18:30:24.152Z,,,,,,,,,,,,,,,,,51,,,,,,,,,,,,,,376,,response,,,,13,A,,,,,,Space,keypress(Space),,,,silence,,,,-------- -------- --- --- ---- --- --- ------ -- --------<br>---- --------- --- ------- ------------ ---------- ---------<br>--- ---------- ------- ---------- ability -- -------- ----<br>---- --- ------ ----- ------ -- ---- --- ----- -- - -------<br>-------- -- --- --- -- ----- ----------- ----- -----------<br>---- --- ---------- --- ---- --- -- ----------,197414.00000000003,197409,197033,197014,197050,197434,,21,ability
screen,html.Screen,2_3_1_0_1_22,2022-05-03T18:30:24.451Z,,,,,,,,,,,,,,,,,51,,,,,,,,,,,,,,292,,response,,,,13,A,,,,,,Space,keypress(Space),,,,silence,,,,-------- -------- --- --- ---- --- --- ------ -- --------<br>---- --------- --- ------- ------------ ---------- ---------<br>--- ---------- ------- ---------- ------- to -------- ----<br>---- --- ------ ----- ------ -- ---- --- ----- -- - -------<br>-------- -- --- --- -- ----- ----------- ----- -----------<br>---- --- ---------- --- ---- --- -- ----------,197713,197710,197418,197414.00000000003,197434,197735,,22,to
screen,html.Screen,2_3_1_0_1_23,2022-05-03T18:30:25.008Z,,,,,,,,,,,,,,,,,51,,,,,,,,,,,,,,549,,response,,,,13,A,,,,,,Space,keypress(Space),,,,silence,,,,-------- -------- --- --- ---- --- --- ------ -- --------<br>---- --------- --- ------- ------------ ---------- ---------<br>--- ---------- ------- ---------- ------- -- survive. ----<br>---- --- ------ ----- ------ -- ---- --- ----- -- - -------<br>-------- -- --- --- -- ----- ----------- ----- -----------<br>---- --- ---------- --- ---- --- -- ----------,198270,198267,197718,197714,197735,198301,,23,survive.
screen,html.Screen,2_3_1_0_1_24,2022-05-03T18:30:25.419Z,,,,,,,,,,,,,,,,,51,,,,,,,,,,,,,,394,,response,,,,13,A,,,,,,Space,keypress(Space),,,,silence,,,,-------- -------- --- --- ---- --- --- ------ -- --------<br>---- --------- --- ------- ------------ ---------- ---------<br>--- ---------- ------- ---------- ------- -- -------- This<br>---- --- ------ ----- ------ -- ---- --- ----- -- - -------<br>-------- -- --- --- -- ----- ----------- ----- -----------<br>---- --- ---------- --- ---- --- -- ----------,198681,198678,198284,198270,198301,198718,,24,This
screen,html.Screen,2_3_1_0_1_25,2022-05-03T18:30:25.988Z,,,,,,,,,,,,,,,,,51,,,,,,,,,,,,,,545,,response,,,,13,A,,,,,,Space,keypress(Space),,,,silence,,,,-------- -------- --- --- ---- --- --- ------ -- --------<br>---- --------- --- ------- ------------ ---------- ---------<br>--- ---------- ------- ---------- ------- -- -------- ----<br>week --- ------ ----- ------ -- ---- --- ----- -- - -------<br>-------- -- --- --- -- ----- ----------- ----- -----------<br>---- --- ---------- --- ---- --- -- ----------,199250,199246,198701,198681,198718,199285,,25,week
screen,html.Screen,2_3_1_0_1_26,2022-05-03T18:30:26.416Z,,,,,,,,,,,,,,,,,51,,,,,,,,,,,,,,406,,response,,,,13,A,,,,,,Space,keypress(Space),,,,silence,,,,-------- -------- --- --- ---- --- --- ------ -- --------<br>---- --------- --- ------- ------------ ---------- ---------<br>--- ---------- ------- ---------- ------- -- -------- ----<br>---- the ------ ----- ------ -- ---- --- ----- -- - -------<br>-------- -- --- --- -- ----- ----------- ----- -----------<br>---- --- ---------- --- ---- --- -- ----------,199678,199674,199268,199250,199285,199718,,26,the
screen,html.Screen,2_3_1_0_1_27,2022-05-03T18:30:26.869Z,,,,,,,,,,,,,,,,,51,,,,,,,,,,,,,,428,,response,,,,13,A,,,,,,Space,keypress(Space),,,,silence,,,,-------- -------- --- --- ---- --- --- ------ -- --------<br>---- --------- --- ------- ------------ ---------- ---------<br>--- ---------- ------- ---------- ------- -- -------- ----<br>---- --- Senate ----- ------ -- ---- --- ----- -- - -------<br>-------- -- --- --- -- ----- ----------- ----- -----------<br>---- --- ---------- --- ---- --- -- ----------,200131,200129,199701,199678,199718,200167,,27,Senate
screen,html.Screen,2_3_1_0_1_28,2022-05-03T18:30:27.238Z,,,,,,,,,,,,,,,,,51,,,,,,,,,,,,,,346,,response,,,,13,A,,,,,,Space,keypress(Space),,,,silence,,,,-------- -------- --- --- ---- --- --- ------ -- --------<br>---- --------- --- ------- ------------ ---------- ---------<br>--- ---------- ------- ---------- ------- -- -------- ----<br>---- --- ------ seems ------ -- ---- --- ----- -- - -------<br>-------- -- --- --- -- ----- ----------- ----- -----------<br>---- --- ---------- --- ---- --- -- ----------,200500,200497,200151,200131,200167,200533,,28,seems
screen,html.Screen,2_3_1_0_1_29,2022-05-03T18:30:28.024Z,,,,,,,,,,,,,,,,,51,,,,,,,,,,,,,,766.0000000000291,,response,,,,13,A,,,,,,Space,keypress(Space),,,,silence,,,,-------- -------- --- --- ---- --- --- ------ -- --------<br>---- --------- --- ------- ------------ ---------- ---------<br>--- ---------- ------- ---------- ------- -- -------- ----<br>---- --- ------ ----- poised -- ---- --- ----- -- - -------<br>-------- -- --- --- -- ----- ----------- ----- -----------<br>---- --- ---------- --- ---- --- -- ----------,201286,201283.00000000003,200517,200500,200533,201318,,29,poised
screen,html.Screen,2_3_1_0_1_30,2022-05-03T18:30:28.367Z,,,,,,,,,,,,,,,,,51,,,,,,,,,,,,,,325,,response,,,,13,A,,,,,,Space,keypress(Space),,,,silence,,,,-------- -------- --- --- ---- --- --- ------ -- --------<br>---- --------- --- ------- ------------ ---------- ---------<br>--- ---------- ------- ---------- ------- -- -------- ----<br>---- --- ------ ----- ------ to ---- --- ----- -- - -------<br>-------- -- --- --- -- ----- ----------- ----- -----------<br>---- --- ---------- --- ---- --- -- ----------,201629,201626,201301,201286,201318,201651,,30,to
screen,html.Screen,2_3_1_0_1_31,2022-05-03T18:30:29.345Z,,,,,,,,,,,,,,,,,51,,,,,,,,,,,,,,969,,response,,,,13,A,,,,,,Space,keypress(Space),,,,silence,,,,-------- -------- --- --- ---- --- --- ------ -- --------<br>---- --------- --- ------- ------------ ---------- ---------<br>--- ---------- ------- ---------- ------- -- -------- ----<br>---- --- ------ ----- ------ -- join --- ----- -- - -------<br>-------- -- --- --- -- ----- ----------- ----- -----------<br>---- --- ---------- --- ---- --- -- ----------,202607,202604,201635,201630,201651,202635,,31,join
screen,html.Screen,2_3_1_0_1_32,2022-05-03T18:30:29.702Z,,,,,,,,,,,,,,,,,51,,,,,,,,,,,,,,341,,response,,,,13,A,,,,,,Space,keypress(Space),,,,silence,,,,-------- -------- --- --- ---- --- --- ------ -- --------<br>---- --------- --- ------- ------------ ---------- ---------<br>--- ---------- ------- ---------- ------- -- -------- ----<br>---- --- ------ ----- ------ -- ---- the ----- -- - -------<br>-------- -- --- --- -- ----- ----------- ----- -----------<br>---- --- ---------- --- ---- --- -- ----------,202964,202959,202618,202608,202635,202985,,32,the
screen,html.Screen,2_3_1_0_1_33,2022-05-03T18:30:29.930Z,,,,,,,,,,,,,,,,,51,,,,,,,,,,,,,,221,,response,,,,13,A,,,,,,Space,keypress(Space),,,,silence,,,,-------- -------- --- --- ---- --- --- ------ -- --------<br>---- --------- --- ------- ------------ ---------- ---------<br>--- ---------- ------- ---------- ------- -- -------- ----<br>---- --- ------ ----- ------ -- ---- --- House -- - -------<br>-------- -- --- --- -- ----- ----------- ----- -----------<br>---- --- ---------- --- ---- --- -- ----------,203192,203189,202968,202964,202985,203218,,33,House
screen,html.Screen,2_3_1_0_1_34,2022-05-03T18:30:30.249Z,,,,,,,,,,,,,,,,,51,,,,,,,,,,,,,,307,,response,,,,13,A,,,,,,Space,keypress(Space),,,,silence,,,,-------- -------- --- --- ---- --- --- ------ -- --------<br>---- --------- --- ------- ------------ ---------- ---------<br>--- ---------- ------- ---------- ------- -- -------- ----<br>---- --- ------ ----- ------ -- ---- --- ----- in - -------<br>-------- -- --- --- -- ----- ----------- ----- -----------<br>---- --- ---------- --- ---- --- -- ----------,203511,203508,203201,203192,203218,203534,,34,in
screen,html.Screen,2_3_1_0_1_35,2022-05-03T18:30:30.552Z,,,,,,,,,,,,,,,,,51,,,,,,,,,,,,,,293,,response,,,,13,A,,,,,,Space,keypress(Space),,,,silence,,,,-------- -------- --- --- ---- --- --- ------ -- --------<br>---- --------- --- ------- ------------ ---------- ---------<br>--- ---------- ------- ---------- ------- -- -------- ----<br>---- --- ------ ----- ------ -- ---- --- ----- -- a -------<br>-------- -- --- --- -- ----- ----------- ----- -----------<br>---- --- ---------- --- ---- --- -- ----------,203814,203811,203518,203511,203534,203835,,35,a
screen,html.Screen,2_3_1_0_1_36,2022-05-03T18:30:30.780Z,,,,,,,,,,,,,,,,,51,,,,,,,,,,,,,,221.0000000000291,,response,,,,13,A,,,,,,Space,keypress(Space),,,,silence,,,,-------- -------- --- --- ---- --- --- ------ -- --------<br>---- --------- --- ------- ------------ ---------- ---------<br>--- ---------- ------- ---------- ------- -- -------- ----<br>---- --- ------ ----- ------ -- ---- --- ----- -- - massive<br>-------- -- --- --- -- ----- ----------- ----- -----------<br>---- --- ---------- --- ---- --- -- ----------,204042,204039.00000000003,203818,203814,203835,204067,,36,massive
screen,html.Screen,2_3_1_0_1_37,2022-05-03T18:30:31.284Z,,,,,,,,,,,,,,,,,51,,,,,,,,,,,,,,492,,response,,,,13,A,,,,,,Space,keypress(Space),,,,silence,,,,-------- -------- --- --- ---- --- --- ------ -- --------<br>---- --------- --- ------- ------------ ---------- ---------<br>--- ---------- ------- ---------- ------- -- -------- ----<br>---- --- ------ ----- ------ -- ---- --- ----- -- - -------<br>overhaul -- --- --- -- ----- ----------- ----- -----------<br>---- --- ---------- --- ---- --- -- ----------,204546,204543,204051,204042,204067,204585,,37,overhaul
screen,html.Screen,2_3_1_0_1_38,2022-05-03T18:30:31.541Z,,,,,,,,,,,,,,,,,51,,,,,,,,,,,,,,232,,response,,,,13,A,,,,,,Space,keypress(Space),,,,silence,,,,-------- -------- --- --- ---- --- --- ------ -- --------<br>---- --------- --- ------- ------------ ---------- ---------<br>--- ---------- ------- ---------- ------- -- -------- ----<br>---- --- ------ ----- ------ -- ---- --- ----- -- - -------<br>-------- of --- --- -- ----- ----------- ----- -----------<br>---- --- ---------- --- ---- --- -- ----------,204803,204800,204568,204547,204585,204834,,38,of
screen,html.Screen,2_3_1_0_1_39,2022-05-03T18:30:31.953Z,,,,,,,,,,,,,,,,,51,,,,,,,,,,,,,,396,,response,,,,13,A,,,,,,Space,keypress(Space),,,,silence,,,,-------- -------- --- --- ---- --- --- ------ -- --------<br>---- --------- --- ------- ------------ ---------- ---------<br>--- ---------- ------- ---------- ------- -- -------- ----<br>---- --- ------ ----- ------ -- ---- --- ----- -- - -------<br>-------- -- the --- -- ----- ----------- ----- -----------<br>---- --- ---------- --- ---- --- -- ----------,205215,205213,204817,204803,204834,205251,,39,the
screen,html.Screen,2_3_1_0_1_40,2022-05-03T18:30:32.262Z,,,,,,,,,,,,,,,,,51,,,,,,,,,,,,,,286.0000000000291,,response,,,,13,A,,,,,,Space,keypress(Space),,,,silence,,,,-------- -------- --- --- ---- --- --- ------ -- --------<br>---- --------- --- ------- ------------ ---------- ---------<br>--- ---------- ------- ---------- ------- -- -------- ----<br>---- --- ------ ----- ------ -- ---- --- ----- -- - -------<br>-------- -- --- way -- ----- ----------- ----- -----------<br>---- --- ---------- --- ---- --- -- ----------,205524,205521.00000000003,205235,205216,205251,205551,,40,way
screen,html.Screen,2_3_1_0_1_41,2022-05-03T18:30:32.590Z,,,,,,,,,,,,,,,,,51,,,,,,,,,,,,,,314,,response,,,,13,A,,,,,,Space,keypress(Space),,,,silence,,,,-------- -------- --- --- ---- --- --- ------ -- --------<br>---- --------- --- ------- ------------ ---------- ---------<br>--- ---------- ------- ---------- ------- -- -------- ----<br>---- --- ------ ----- ------ -- ---- --- ----- -- - -------<br>-------- -- --- --- in ----- ----------- ----- -----------<br>---- --- ---------- --- ---- --- -- ----------,205852,205848,205534,205524,205551,205885,,41,in
screen,html.Screen,2_3_1_0_1_42,2022-05-03T18:30:32.860Z,,,,,,,,,,,,,,,,,51,,,,,,,,,,,,,,251,,response,,,,13,A,,,,,,Space,keypress(Space),,,,silence,,,,-------- -------- --- --- ---- --- --- ------ -- --------<br>---- --------- --- ------- ------------ ---------- ---------<br>--- ---------- ------- ---------- ------- -- -------- ----<br>---- --- ------ ----- ------ -- ---- --- ----- -- - -------<br>-------- -- --- --- -- which ----------- ----- -----------<br>---- --- ---------- --- ---- --- -- ----------,206122,206119,205868,205852,205885,206151,,42,which
screen,html.Screen,2_3_1_0_1_43,2022-05-03T18:30:33.519Z,,,,,,,,,,,,,,,,,51,,,,,,,,,,,,,,643,,response,,,,13,A,,,,,,Space,keypress(Space),,,,silence,,,,-------- -------- --- --- ---- --- --- ------ -- --------<br>---- --------- --- ------- ------------ ---------- ---------<br>--- ---------- ------- ---------- ------- -- -------- ----<br>---- --- ------ ----- ------ -- ---- --- ----- -- - -------<br>-------- -- --- --- -- ----- bureaucrats ----- -----------<br>---- --- ---------- --- ---- --- -- ----------,206781,206778,206135,206122,206151,206818,,43,bureaucrats
screen,html.Screen,2_3_1_0_1_44,2022-05-03T18:30:33.731Z,,,,,,,,,,,,,,,,,51,,,,,,,,,,,,,,189,,response,,,,13,A,,,,,,Space,keypress(Space),,,,silence,,,,-------- -------- --- --- ---- --- --- ------ -- --------<br>---- --------- --- ------- ------------ ---------- ---------<br>--- ---------- ------- ---------- ------- -- -------- ----<br>---- --- ------ ----- ------ -- ---- --- ----- -- - -------<br>-------- -- --- --- -- ----- ----------- enact -----------<br>---- --- ---------- --- ---- --- -- ----------,206994,206990,206801,206781,206818,207018,,44,enact
screen,html.Screen,2_3_1_0_1_45,2022-05-03T18:30:34.411Z,,,,,,,,,,,,,,,,,51,,,,,,,,,,,,,,669.0000000000291,,response,,,,13,A,,,,,,Space,keypress(Space),,,,silence,,,,-------- -------- --- --- ---- --- --- ------ -- --------<br>---- --------- --- ------- ------------ ---------- ---------<br>--- ---------- ------- ---------- ------- -- -------- ----<br>---- --- ------ ----- ------ -- ---- --- ----- -- - -------<br>-------- -- --- --- -- ----- ----------- ----- regulations<br>---- --- ---------- --- ---- --- -- ----------,207674,207670.00000000003,207001,206994,207018,207701,,45,regulations
screen,html.Screen,2_3_1_0_1_46,2022-05-03T18:30:34.736Z,,,,,,,,,,,,,,,,,51,,,,,,,,,,,,,,311,,response,,,,13,A,,,,,,Space,keypress(Space),,,,silence,,,,-------- -------- --- --- ---- --- --- ------ -- --------<br>---- --------- --- ------- ------------ ---------- ---------<br>--- ---------- ------- ---------- ------- -- -------- ----<br>---- --- ------ ----- ------ -- ---- --- ----- -- - -------<br>-------- -- --- --- -- ----- ----------- ----- -----------<br>that --- ---------- --- ---- --- -- ----------,207998,207996,207685,207674,207701,208018,,46,that
screen,html.Screen,2_3_1_0_1_47,2022-05-03T18:30:35.075Z,,,,,,,,,,,,,,,,,51,,,,,,,,,,,,,,333,,response,,,,13,A,,,,,,Space,keypress(Space),,,,silence,,,,-------- -------- --- --- ---- --- --- ------ -- --------<br>---- --------- --- ------- ------------ ---------- ---------<br>--- ---------- ------- ---------- ------- -- -------- ----<br>---- --- ------ ----- ------ -- ---- --- ----- -- - -------<br>-------- -- --- --- -- ----- ----------- ----- -----------<br>---- are ---------- --- ---- --- -- ----------,208338,208334,208001,207999,208018,208368,,47,are
screen,html.Screen,2_3_1_0_1_48,2022-05-03T18:30:35.576Z,,,,,,,,,,,,,,,,,51,,,,,,,,,,,,,,483,,response,,,,13,A,,,,,,Space,keypress(Space),,,,silence,,,,-------- -------- --- --- ---- --- --- ------ -- --------<br>---- --------- --- ------- ------------ ---------- ---------<br>--- ---------- ------- ---------- ------- -- -------- ----<br>---- --- ------ ----- ------ -- ---- --- ----- -- - -------<br>-------- -- --- --- -- ----- ----------- ----- -----------<br>---- --- strangling --- ---- --- -- ----------,208838,208834,208351,208338,208368,208867,,48,strangling
screen,html.Screen,2_3_1_0_1_49,2022-05-03T18:30:36.059Z,,,,,,,,,,,,,,,,,51,,,,,,,,,,,,,,466,,response,,,,13,A,,,,,,Space,keypress(Space),,,,silence,,,,-------- -------- --- --- ---- --- --- ------ -- --------<br>---- --------- --- ------- ------------ ---------- ---------<br>--- ---------- ------- ---------- ------- -- -------- ----<br>---- --- ------ ----- ------ -- ---- --- ----- -- - -------<br>-------- -- --- --- -- ----- ----------- ----- -----------<br>---- --- ---------- the ---- --- -- ----------,209321,209317,208851,208838,208867,209351,,49,the
screen,html.Screen,2_3_1_0_1_50,2022-05-03T18:30:36.540Z,,,,,,,,,,,,,,,,,51,,,,,,,,,,,,,,465,,response,,,,13,A,,,,,,Space,keypress(Space),,,,silence,,,,-------- -------- --- --- ---- --- --- ------ -- --------<br>---- --------- --- ------- ------------ ---------- ---------<br>--- ---------- ------- ---------- ------- -- -------- ----<br>---- --- ------ ----- ------ -- ---- --- ----- -- - -------<br>-------- -- --- --- -- ----- ----------- ----- -----------<br>---- --- ---------- --- life --- -- ----------,209803,209800,209335,209321,209351,209835,,50,life
screen,html.Screen,2_3_1_0_1_51,2022-05-03T18:30:37.049Z,,,,,,,,,,,,,,,,,51,,,,,,,,,,,,,,490,,response,,,,13,A,,,,,,Space,keypress(Space),,,,silence,,,,-------- -------- --- --- ---- --- --- ------ -- --------<br>---- --------- --- ------- ------------ ---------- ---------<br>--- ---------- ------- ---------- ------- -- -------- ----<br>---- --- ------ ----- ------ -- ---- --- ----- -- - -------<br>-------- -- --- --- -- ----- ----------- ----- -----------<br>---- --- ---------- --- ---- out -- ----------,210312,210308,209818,209803,209835,210351,,51,out
screen,html.Screen,2_3_1_0_1_52,2022-05-03T18:30:37.461Z,,,,,,,,,,,,,,,,,51,,,,,,,,,,,,,,385,,response,,,,13,A,,,,,,Space,keypress(Space),,,,silence,,,,-------- -------- --- --- ---- --- --- ------ -- --------<br>---- --------- --- ------- ------------ ---------- ---------<br>--- ---------- ------- ---------- ------- -- -------- ----<br>---- --- ------ ----- ------ -- ---- --- ----- -- - -------<br>-------- -- --- --- -- ----- ----------- ----- -----------<br>---- --- ---------- --- ---- --- of ----------,210723,210720,210335,210312,210351,210751,,52,of
screen,html.Screen,2_3_1_0_1_53,2022-05-03T18:30:38.182Z,,,,,,,,,,,,,,,,,51,,,,,,,,,,,,,,706,,response,,,,13,A,,,,,,Space,keypress(Space),,,,silence,,,,-------- -------- --- --- ---- --- --- ------ -- --------<br>---- --------- --- ------- ------------ ---------- ---------<br>--- ---------- ------- ---------- ------- -- -------- ----<br>---- --- ------ ----- ------ -- ---- --- ----- -- - -------<br>-------- -- --- --- -- ----- ----------- ----- -----------<br>---- --- ---------- --- ---- --- -- companies.,211444.00000000003,211441,210735,210723,210751,211485,,53,companies.
Item 13,flow.Loop,2_3_1_0_1,2022-05-03T18:30:38.183Z,,,,,,,,,,,,,,,,,,,,,,,,,,,,,,,32708,,completion,,,,,,,,,,,,,,,,,,,,,211445,211441,178717,178718.00000000003,178733,211485,,,
Question 1,html.Screen,2_3_1_0_2,2022-05-03T18:30:46.066Z,,,,,,,,,,,,,,,,,,,,,,,,,,,,true,FALSE,,7860,,response,,,,13,A,,,,,,FALSE,click #choice-2,,,,silence,,,,,219329,219328,211468,211445,211485,219351,,,
Question 2,html.Screen,2_3_1_0_3,2022-05-03T18:30:49.700Z,,,,,,,,,,,,,,,,,,,,,,,,,,,,false,TRUE,,3627.000000000029,,response,,,,13,A,,,,,,FALSE,click #choice-2,,,,silence,,,,,222963,222962.00000000003,219335,219329,219351,223001,,,
Item 13,flow.Sequence,2_3_1_0,2022-05-03T18:30:49.701Z,,,,,,,,,,,,,,,,,,,,,,,,,,,,,,,51228.00000000003,,completion,,,,,,,,,,,,,,,,,,,,,222963,222962.00000000003,171717,171718.00000000003,171734,223001,,,
Holding screen,html.Screen,2_3_1_1_0,2022-05-03T18:30:56.724Z,,,,,,,,,,,,,,,,,,,,,,,,,,,,,,,7001,,timeout,,,,,,,,,,,,,,,,,,,,,229987,229986,222985,222964,223001,230002,,,
screen,html.Screen,2_3_1_1_1_0,2022-05-03T18:30:57.717Z,,,,,,,,,,,,,,,,,12,,,,,,,,,,,,,,991,,response,,,,5,A,,,,,,Space,keypress(Space),,,,silence,,,,Some ------ ------ ------- ------ --- ------- -----------<br>-- ----- --- ---- -- --- ------ ---- - ---- -- ----------<br>-- ------ ---- --- ---- --- --- --- ----- -- -------- ---<br>------ ------- -------- --- ---- -- ------- ------------ --<br>------ -- ---- -- --- ---- -- -------- -- --- ------ ------,230979,230977,229986,229987,230002,231019,,0,Some
screen,html.Screen,2_3_1_1_1_1,2022-05-03T18:30:58.094Z,,,,,,,,,,,,,,,,,12,,,,,,,,,,,,,,352,,response,,,,5,A,,,,,,Space,keypress(Space),,,,silence,,,,---- months ------ ------- ------ --- ------- -----------<br>-- ----- --- ---- -- --- ------ ---- - ---- -- ----------<br>-- ------ ---- --- ---- --- --- --- ----- -- -------- ---<br>------ ------- -------- --- ---- -- ------- ------------ --<br>------ -- ---- -- --- ---- -- -------- -- --- ------ ------,231357,231354,231002,230980.00000000003,231019,231385,,1,months
