sender,sender_type,sender_id,timestamp,meta,,Blues,Classical,Country,Dance,Electronic,Folk,Gospel,Hip-Hop,Jazz,Latin,Musical/Film,New-age,Pop,Prolific_id,Provo_ID,R&B,Rap,Reggae,Religious,Rock,Soul,Swing,Traditional,age,artist_name,correct,correctResponse,distraction,duration,education,ended_on,familiarity,gender,headphone_check_performance,item,list,music_frequency,offensiveness,pleasantness,position_correct,preference,response,response_action,snippet_file,song_name,song_rating,sound,stimulus_1,stimulus_2,stimulus_3,text,time_commit,time_end,time_render,time_run,time_show,time_switch,url,word,word_ID
Prolific ID,html.Form,0,2022-05-12T17:42:06.939Z,"{""labjs_version"":""20.2.2"",""labjs_build"":{""flavor"":""production"",""commit"":""a25486e0c714a0ae2ce03ff94b7bb6896854dcfa""},""location"":""https://run.pavlovia.org/mvasilev/prolific3_music_h/"",""userAgent"":""Mozilla/5.0 (Macintosh; Intel Mac OS X 10_15_7) AppleWebKit/537.36 (KHTML, like Gecko) Chrome/100.0.4896.127 Safari/537.36"",""platform"":""MacIntel"",""language"":""en-GB"",""locale"":""en-GB"",""timeZone"":""Europe/London"",""timezoneOffset"":-60,""screen_width"":1440,""screen_height"":900,""scroll_width"":1440,""scroll_height"":773,""window_innerWidth"":1440,""window_innerHeight"":821,""devicePixelRatio"":2}",,,,,,,,,,,,,,,55d51a6b8ce09000127d4821,,,,,,,,,,,,,,,6026.150000011921,,form submission,,,,,,,,,,,,,,,,,,,,,21414.5,21413.80000001192,15370.984,15386.600000023842,15387.65,21421.583,{},,
Introduction,html.Screen,1_0,2022-05-12T17:42:10.071Z,,,,,,,,,,,,,,,,,,,,,,,,,,,,,,,3122.317000035764,,response,,,,,,,,,,,continue,click button,,,,,,,,,24546.80000001192,24543.900000035763,21404.917,21414.900000035763,21421.583,24554.791,,,
Volume calibration,html.Screen,1_1,2022-05-12T17:42:32.303Z,,,,,,,,,,,,,,,,,,,,,,,,,,,,,,,22223.10900003576,,response,,,,,,,,,,,continue,click button,,,,,,,,,46779.69999998808,46777.90000003576,24538.125,24547,24554.791,46789.063,,,
Task instructions,html.Screen,1_2,2022-05-12T17:42:36.819Z,,,,,,,,,,,,,,,,,,,,,,,,,,,,,,,4506.436999999998,,response,,,,,,,,,,,continue,click button,,,,,,,,,51296.60000002384,51295.5,46772.397,46780.19999998808,46789.063,51306.302,,,
Sounds,html.Screen,1_3_0_0,2022-05-12T17:42:41.066Z,,,,,,,,,,,,,,,,,,,,,,,,,,,,,,,4249.8299999999945,,timeout,,,,,,,,,2,,,,,,,,O,S,I,,55543.30000001192,55539.466,51289.636,51296.60000002384,51306.302,55556.132,,,
Judgement,html.Screen,1_3_0_1,2022-05-12T17:42:41.854Z,,,,,,,,,,,,,,,,,,,,,,,,,,,,true,2,,772.1680000119231,,response,,,,,,,,,2,,2,click #choice-2,,,,,O,S,I,,56331,56328.30000001192,55539.466,55543.5,55556.132,56339.434,,,
Trial,flow.Sequence,1_3_0,2022-05-12T17:42:41.854Z,,,,,,,,,,,,,,,,,,,,,,,,,,,,,,,5021.998000011918,,completion,,,,,,,,,2,,,,,,,,O,S,I,,56331.5,56328.30000001192,51289.636,51296.60000002384,51306.302,56339.434,,,
Sounds,html.Screen,1_3_1_0,2022-05-12T17:42:46.097Z,,,,,,,,,,,,,,,,,,,,,,,,,,,,,,,4249.830000000002,,timeout,,,,,,,,,3,,,,,,,,O,I,S,,60574.80000001192,60572.598,56322.768,56331.69999998808,56339.434,60589.264,,,
Judgement,html.Screen,1_3_1_1,2022-05-12T17:42:46.620Z,,,,,,,,,,,,,,,,,,,,,,,,,,,,true,3,,505.836000023839,,response,,,,,,,,,3,,3,click #choice-3,,,,,O,I,S,,61097.60000002384,61095.10000002384,60572.598,60575.10000002384,60589.264,61106.454,,,
Trial,flow.Sequence,1_3_1,2022-05-12T17:42:46.621Z,,,,,,,,,,,,,,,,,,,,,,,,,,,,,,,4755.666000023841,,completion,,,,,,,,,3,,,,,,,,O,I,S,,61098.40000003576,61095.10000002384,56322.768,56331.60000002384,56339.434,61106.454,,,
Sounds,html.Screen,1_3_2_0,2022-05-12T17:42:50.864Z,,,,,,,,,,,,,,,,,,,,,,,,,,,,,,,4249.830000000002,,timeout,,,,,,,,,1,,,,,,,,S,I,O,,65341.69999998808,65339.618,61089.788,61098.60000002384,61106.454,65356.284,,,
Judgement,html.Screen,1_3_2_1,2022-05-12T17:42:51.420Z,,,,,,,,,,,,,,,,,,,,,,,,,,,,true,1,,539.0160000119213,,response,,,,,,,,,1,,1,click #choice-1,,,,,S,I,O,,65897.40000003576,65895.30000001192,65339.618,65341.90000003576,65356.284,65906.262,,,
Trial,flow.Sequence,1_3_2,2022-05-12T17:42:51.420Z,,,,,,,,,,,,,,,,,,,,,,,,,,,,,,,4788.846000011923,,completion,,,,,,,,,1,,,,,,,,S,I,O,,65897.80000001192,65895.30000001192,61089.788,61098.5,61106.454,65906.262,,,
Sounds,html.Screen,1_3_3_0,2022-05-12T17:42:55.663Z,,,,,,,,,,,,,,,,,,,,,,,,,,,,,,,4249.830000000002,,timeout,,,,,,,,,2,,,,,,,,I,S,O,,70140.80000001192,70139.426,65889.596,65898,65906.262,70156.092,,,
Judgement,html.Screen,1_3_3_1,2022-05-12T17:42:56.103Z,,,,,,,,,,,,,,,,,,,,,,,,,,,,true,2,,422.70800001191674,,response,,,,,,,,,2,,2,click #choice-2,,,,,I,S,O,,70581.30000001192,70578.80000001192,70139.426,70141,70156.092,70589.408,,,
Trial,flow.Sequence,1_3_3,2022-05-12T17:42:56.103Z,,,,,,,,,,,,,,,,,,,,,,,,,,,,,,,4672.5380000119185,,completion,,,,,,,,,2,,,,,,,,I,S,O,,70581.5,70578.80000001192,65889.596,65897.90000003576,65906.262,70589.408,,,
Sounds,html.Screen,1_3_4_0,2022-05-12T17:43:00.347Z,,,,,,,,,,,,,,,,,,,,,,,,,,,,,,,4249.830000000002,,timeout,,,,,,,,,3,,,,,,,,I,O,S,,74824.80000001192,74822.572,70572.742,70581.69999998808,70589.408,74839.238,,,
Judgement,html.Screen,1_3_4_1,2022-05-12T17:43:00.903Z,,,,,,,,,,,,,,,,,,,,,,,,,,,,true,3,,539.7620000000024,,response,,,,,,,,,3,,3,click #choice-3,,,,,I,O,S,,75381.30000001192,75379,74822.572,74825,74839.238,75390.597,,,
Trial,flow.Sequence,1_3_4,2022-05-12T17:43:00.903Z,,,,,,,,,,,,,,,,,,,,,,,,,,,,,,,4789.592000000004,,completion,,,,,,,,,3,,,,,,,,I,O,S,,75381.5,75379,70572.742,70581.60000002384,70589.408,75390.597,,,
Sounds,html.Screen,1_3_5_0,2022-05-12T17:43:05.148Z,,,,,,,,,,,,,,,,,,,,,,,,,,,,,,,4249.830000000002,,timeout,,,,,,,,,1,,,,,,,,S,O,I,,79626.10000002384,79623.761,75373.931,75381.69999998808,75390.597,79640.427,,,
Judgement,html.Screen,1_3_5_1,2022-05-12T17:43:05.770Z,,,,,,,,,,,,,,,,,,,,,,,,,,,,true,1,,605.3730000119249,,response,,,,,,,,,1,,1,click #choice-1,,,,,S,O,I,,80248.10000002384,80245.80000001192,79623.761,79626.30000001192,79640.427,80257.069,,,
Trial,flow.Sequence,1_3_5,2022-05-12T17:43:05.770Z,,,,,,,,,,,,,,,,,,,,,,,,,,,,,,,4855.203000011927,,completion,,,,,,,,,1,,,,,,,,S,O,I,,80248.40000003576,80245.80000001192,75373.931,75381.5,75390.597,80257.069,,,
Task,flow.Loop,1_3,2022-05-12T17:43:05.775Z,,,,,,,,,,,,,,,,,,,,,,,,,,,,,,,28939.498000011918,,completion,,,1,,,,,,,,,,,,,,,,,,80253.80000001192,80245.80000001192,51289.636,51296.60000002384,51306.302,80257.069,,,
Trap,html.Screen,1_4,2022-05-12T17:43:05.778Z,,,,,,,,,,,,,,,,,,,,,,,,,,,,,,,NaN,,skipped,,,,,,,,,,,,,,,,,,,,,80256.5,80245.80000001192,,80256.40000003576,,80257.069,,,
Thanks,html.Screen,1_5,2022-05-12T17:43:07.354Z,,,,,,,,,,,,,,,,,,,,,,,,,,,,,,,1572.130999988076,,response,,,,,,,,,,,continue,click button,,,,,,,,,81832.10000002384,81829.19999998808,80240.403,80256.60000002384,80257.069,84156.913,,,
Headphone screening,flow.Sequence,1,2022-05-12T17:43:07.354Z,,,,,,,,,,,,,,,,,,,,,,,,,,,,,,,60407.61699998808,,completion,,,,,,,,,,,,,,,,,,,,,81832.40000003576,81829.19999998808,21404.917,21414.900000035763,21421.583,84156.913,,,
Instructions,html.Page,2_0,2022-05-12T17:43:24.791Z,,,,,,,,,,,,,,,,,,,,,,,,,,,,,,,15112.38700001192,,form submission,,,,,,,,,,,,,,,,,,,,,99270,99269.30000001192,84140.247,84157.5,84156.913,99272.975,,,
Holding screen,html.Screen,2_1_0_0,2022-05-12T17:43:34.781Z,,,,,,,,,,,,,,,,,,,,,,,,,,,,,,,10001.856999999989,,timeout,,,,,,,,,,,,,,,,,,,,,109260.5,109258.166,99256.309,99270.19999998808,99272.975,109274.832,,,
screen,html.Screen,2_1_0_1_0,2022-05-12T17:43:36.971Z,,,,,,,,,,,,,,,,,53,,,,,,,,,,,,,,2169.867999988084,,response,,,,99,,,,,,,Space,keypress(Space),,,,,,,,When -- ----- -- ------ - ------- --- ----------<br>------------- ------ ------ ---- ---- ------- ----- -- ----<br>-------- ------- -- ---------- --- - --- ----- ----- ----<br>---- --- --- ----- --- ---- ---- ------- ----- ---- -------<br>--- --- -- ----- -- --- ---- -- --- ---- -- ------ ------<br>--- ----- -- ----,111451.30000001192,111444.69999998808,109258.166,109260.90000003576,109274.832,111458.078,,0,When
screen,html.Screen,2_1_0_1_1,2022-05-12T17:43:38.660Z,,,,,,,,,,,,,,,,,53,,,,,,,,,,,,,,1676.121999988085,,response,,,,99,,,,,,,Space,keypress(Space),,,,,,,,---- it ----- -- ------ - ------- --- ----------<br>------------- ------ ------ ---- ---- ------- ----- -- ----<br>-------- ------- -- ---------- --- - --- ----- ----- ----<br>---- --- --- ----- --- ---- ---- ------- ----- ---- -------<br>--- --- -- ----- -- --- ---- -- --- ---- -- ------ ------<br>--- ----- -- ----,113139.5,113134.19999998808,111441.412,111451.40000003576,111458.078,113141.344,,1,it
screen,html.Screen,2_1_0_1_2,2022-05-12T17:43:39.762Z,,,,,,,,,,,,,,,,,53,,,,,,,,,,,,,,1095.4560000119236,,response,,,,99,,,,,,,Space,keypress(Space),,,,,,,,---- -- comes -- ------ - ------- --- ----------<br>------------- ------ ------ ---- ---- ------- ----- -- ----<br>-------- ------- -- ---------- --- - --- ----- ----- ----<br>---- --- --- ----- --- ---- ---- ------- ----- ---- -------<br>--- --- -- ----- -- --- ---- -- --- ---- -- ------ ------<br>--- ----- -- ----,114242.40000003576,114236.80000001192,113124.678,113139.69999998808,113141.344,114257.966,,2,comes
screen,html.Screen,2_1_0_1_3,2022-05-12T17:43:41.155Z,,,,,,,,,,,,,,,,,53,,,,,,,,,,,,,,1375.5339999999997,,response,,,,99,,,,,,,Space,keypress(Space),,,,,,,,---- -- ----- to ------ - ------- --- ----------<br>------------- ------ ------ ---- ---- ------- ----- -- ----<br>-------- ------- -- ---------- --- - --- ----- ----- ----<br>---- --- --- ----- --- ---- ---- ------- ----- ---- -------<br>--- --- -- ----- -- --- ---- -- --- ---- -- ------ ------<br>--- ----- -- ----,115634.90000003576,115633.5,114241.3,114242.69999998808,114257.966,115641.244,,3,to
screen,html.Screen,2_1_0_1_4,2022-05-12T17:43:42.215Z,,,,,,,,,,,,,,,,,53,,,,,,,,,,,,,,1050.255999999994,,response,,,,99,,,,,,,Space,keypress(Space),,,,,,,,---- -- ----- -- having - ------- --- ----------<br>------------- ------ ------ ---- ---- ------- ----- -- ----<br>-------- ------- -- ---------- --- - --- ----- ----- ----<br>---- --- --- ----- --- ---- ---- ------- ----- ---- -------<br>--- --- -- ----- -- --- ---- -- --- ---- -- ------ ------<br>--- ----- -- ----,116694.69999998808,116691.5,115624.578,115634.90000003576,115641.244,116707.868,,4,having
screen,html.Screen,2_1_0_1_5,2022-05-12T17:43:43.369Z,,,,,,,,,,,,,,,,,53,,,,,,,,,,,,,,1136.3319999880769,,response,,,,99,,,,,,,Space,keypress(Space),,,,,,,,---- -- ----- -- ------ a ------- --- ----------<br>------------- ------ ------ ---- ---- ------- ----- -- ----<br>-------- ------- -- ---------- --- - --- ----- ----- ----<br>---- --- --- ----- --- ---- ---- ------- ----- ---- -------<br>--- --- -- ----- -- --- ---- -- --- ---- -- ------ ------<br>--- ----- -- ----,117849.30000001192,117844.19999998808,116691.202,116694.80000001192,116707.868,117857.822,,5,a
screen,html.Screen,2_1_0_1_6,2022-05-12T17:43:44.996Z,,,,,,,,,,,,,,,,,53,,,,,,,,,,,,,,1612.7780000238417,,response,,,,99,,,,,,,Space,keypress(Space),,,,,,,,---- -- ----- -- ------ - lasting --- ----------<br>------------- ------ ------ ---- ---- ------- ----- -- ----<br>-------- ------- -- ---------- --- - --- ----- ----- ----<br>---- --- --- ----- --- ---- ---- ------- ----- ---- -------<br>--- --- -- ----- -- --- ---- -- --- ---- -- ------ ------<br>--- ----- -- ----,119476.10000002384,119470.60000002384,117841.156,117849.40000003576,117857.822,119492.041,,6,lasting
screen,html.Screen,2_1_0_1_7,2022-05-12T17:43:46.793Z,,,,,,,,,,,,,,,,,53,,,,,,,,,,,,,,1775.3590000357653,,response,,,,99,,,,,,,Space,keypress(Space),,,,,,,,---- -- ----- -- ------ - ------- and ----------<br>------------- ------ ------ ---- ---- ------- ----- -- ----<br>-------- ------- -- ---------- --- - --- ----- ----- ----<br>---- --- --- ----- --- ---- ---- ------- ----- ---- -------<br>--- --- -- ----- -- --- ---- -- --- ---- -- ------ ------<br>--- ----- -- ----,121273.10000002384,121267.40000003576,119475.375,119476.40000003576,119492.041,121275.303,,7,and
screen,html.Screen,2_1_0_1_8,2022-05-12T17:43:48.179Z,,,,,,,,,,,,,,,,,53,,,,,,,,,,,,,,1377.497000011921,,response,,,,99,,,,,,,Space,keypress(Space),,,,,,,,---- -- ----- -- ------ - ------- --- fulfilling<br>------------- ------ ------ ---- ---- ------- ----- -- ----<br>-------- ------- -- ---------- --- - --- ----- ----- ----<br>---- --- --- ----- --- ---- ---- ------- ----- ---- -------<br>--- --- -- ----- -- --- ---- -- --- ---- -- ------ ------<br>--- ----- -- ----,122658.90000003576,122652.80000001192,121258.637,121273.19999998808,121275.303,122675.247,,8,fulfilling
screen,html.Screen,2_1_0_1_9,2022-05-12T17:43:49.638Z,,,,,,,,,,,,,,,,,53,,,,,,,,,,,,,,1437.6530000357598,,response,,,,99,,,,,,,Space,keypress(Space),,,,,,,,"---- -- ----- -- ------ - ------- --- ----------<br>relationship, ------ ------ ---- ---- ------- ----- -- ----<br>-------- ------- -- ---------- --- - --- ----- ----- ----<br>---- --- --- ----- --- ---- ---- ------- ----- ---- -------<br>--- --- -- ----- -- --- ---- -- --- ---- -- ------ ------<br>--- ----- -- ----",124118.30000001192,124112.90000003576,122658.581,122659.10000002384,122675.247,124125.189,,9,"relationship,"
screen,html.Screen,2_1_0_1_10,2022-05-12T17:43:50.924Z,,,,,,,,,,,,,,,,,53,,,,,,,,,,,,,,1273.6110000119224,,response,,,,99,,,,,,,Space,keypress(Space),,,,,,,,---- -- ----- -- ------ - ------- --- ----------<br>------------- common ------ ---- ---- ------- ----- -- ----<br>-------- ------- -- ---------- --- - --- ----- ----- ----<br>---- --- --- ----- --- ---- ---- ------- ----- ---- -------<br>--- --- -- ----- -- --- ---- -- --- ---- -- ------ ------<br>--- ----- -- ----,125404.30000001192,125398.80000001192,124108.523,124118.5,124125.189,125408.471,,10,common
screen,html.Screen,2_1_0_1_11,2022-05-12T17:43:51.566Z,,,,,,,,,,,,,,,,,53,,,,,,,,,,,,,,633.7289999880741,,response,,,,99,,,,,,,Space,keypress(Space),,,,,,,,---- -- ----- -- ------ - ------- --- ----------<br>------------- ------ wisdom ---- ---- ------- ----- -- ----<br>-------- ------- -- ---------- --- - --- ----- ----- ----<br>---- --- --- ----- --- ---- ---- ------- ----- ---- -------<br>--- --- -- ----- -- --- ---- -- --- ---- -- ------ ------<br>--- ----- -- ----,126046.69999998808,126042.19999998808,125391.805,125404.60000002384,125408.471,126058.445,,11,wisdom
screen,html.Screen,2_1_0_1_12,2022-05-12T17:43:52.279Z,,,,,,,,,,,,,,,,,53,,,,,,,,,,,,,,696.2549999880721,,response,,,,99,,,,,,,Space,keypress(Space),,,,,,,,---- -- ----- -- ------ - ------- --- ----------<br>------------- ------ ------ says ---- ------- ----- -- ----<br>-------- ------- -- ---------- --- - --- ----- ----- ----<br>---- --- --- ----- --- ---- ---- ------- ----- ---- -------<br>--- --- -- ----- -- --- ---- -- --- ---- -- ------ ------<br>--- ----- -- ----,126759.90000003576,126754.69999998808,126041.779,126046.80000001192,126058.445,126775.083,,12,says
screen,html.Screen,2_1_0_1_13,2022-05-12T17:43:52.952Z,,,,,,,,,,,,,,,,,53,,,,,,,,,,,,,,651.8170000357641,,response,,,,99,,,,,,,Space,keypress(Space),,,,,,,,---- -- ----- -- ------ - ------- --- ----------<br>------------- ------ ------ ---- that ------- ----- -- ----<br>-------- ------- -- ---------- --- - --- ----- ----- ----<br>---- --- --- ----- --- ---- ---- ------- ----- ---- -------<br>--- --- -- ----- -- --- ---- -- --- ---- -- ------ ------<br>--- ----- -- ----,127432.5,127426.90000003576,126758.417,126760.19999998808,126775.083,127441.723,,13,that
screen,html.Screen,2_1_0_1_14,2022-05-12T17:43:53.438Z,,,,,,,,,,,,,,,,,53,,,,,,,,,,,,,,470.97699998808093,,response,,,,99,,,,,,,Space,keypress(Space),,,,,,,,---- -- ----- -- ------ - ------- --- ----------<br>------------- ------ ------ ---- ---- feeling ----- -- ----<br>-------- ------- -- ---------- --- - --- ----- ----- ----<br>---- --- --- ----- --- ---- ---- ------- ----- ---- -------<br>--- --- -- ----- -- --- ---- -- --- ---- -- ------ ------<br>--- ----- -- ----,127918.10000002384,127912.69999998808,127425.057,127432.60000002384,127441.723,127925.845,,14,feeling
screen,html.Screen,2_1_0_1_15,2022-05-12T17:43:53.926Z,,,,,,,,,,,,,,,,,53,,,,,,,,,,,,,,472.45500001191976,,response,,,,99,,,,,,,Space,keypress(Space),,,,,,,,---- -- ----- -- ------ - ------- --- ----------<br>------------- ------ ------ ---- ---- ------- close -- ----<br>-------- ------- -- ---------- --- - --- ----- ----- ----<br>---- --- --- ----- --- ---- ---- ------- ----- ---- -------<br>--- --- -- ----- -- --- ---- -- --- ---- -- ------ ------<br>--- ----- -- ----,128407,128398.30000001192,127909.179,127918.40000003576,127925.845,128409.159,,15,close
screen,html.Screen,2_1_0_1_16,2022-05-12T17:43:54.385Z,,,,,,,,,,,,,,,,,53,,,,,,,,,,,,,,450.9410000238422,,response,,,,99,,,,,,,Space,keypress(Space),,,,,,,,---- -- ----- -- ------ - ------- --- ----------<br>------------- ------ ------ ---- ---- ------- ----- to ----<br>-------- ------- -- ---------- --- - --- ----- ----- ----<br>---- --- --- ----- --- ---- ---- ------- ----- ---- -------<br>--- --- -- ----- -- --- ---- -- --- ---- -- ------ ------<br>--- ----- -- ----,128865.69999998808,128860.10000002384,128392.493,128407.10000002384,128409.159,128875.807,,16,to
screen,html.Screen,2_1_0_1_17,2022-05-12T17:43:54.823Z,,,,,,,,,,,,,,,,,53,,,,,,,,,,,,,,422.0930000357621,,response,,,,99,,,,,,,Space,keypress(Space),,,,,,,,---- -- ----- -- ------ - ------- --- ----------<br>------------- ------ ------ ---- ---- ------- ----- -- your<br>-------- ------- -- ---------- --- - --- ----- ----- ----<br>---- --- --- ----- --- ---- ---- ------- ----- ---- -------<br>--- --- -- ----- -- --- ---- -- --- ---- -- ------ ------<br>--- ----- -- ----,129303.19999998808,129297.90000003576,128859.141,128865.80000001192,128875.807,129309.123,,17,your
screen,html.Screen,2_1_0_1_18,2022-05-12T17:43:55.342Z,,,,,,,,,,,,,,,,,53,,,,,,,,,,,,,,507.5769999880722,,response,,,,99,,,,,,,Space,keypress(Space),,,,,,,,---- -- ----- -- ------ - ------- --- ----------<br>------------- ------ ------ ---- ---- ------- ----- -- ----<br>romantic ------- -- ---------- --- - --- ----- ----- ----<br>---- --- --- ----- --- ---- ---- ------- ----- ---- -------<br>--- --- -- ----- -- --- ---- -- --- ---- -- ------ ------<br>--- ----- -- ----,129822.30000001192,129816.69999998808,129292.457,129303.5,129309.123,129825.769,,18,romantic
screen,html.Screen,2_1_0_1_19,2022-05-12T17:43:55.812Z,,,,,,,,,,,,,,,,,53,,,,,,,,,,,,,,461.93099998807884,,response,,,,99,,,,,,,Space,keypress(Space),,,,,,,,---- -- ----- -- ------ - ------- --- ----------<br>------------- ------ ------ ---- ---- ------- ----- -- ----<br>-------- partner -- ---------- --- - --- ----- ----- ----<br>---- --- --- ----- --- ---- ---- ------- ----- ---- -------<br>--- --- -- ----- -- --- ---- -- --- ---- -- ------ ------<br>--- ----- -- ----,130292.80000001192,130287.69999998808,129809.103,129822.5,129825.769,130309.083,,19,partner
screen,html.Screen,2_1_0_1_20,2022-05-12T17:43:56.276Z,,,,,,,,,,,,,,,,,53,,,,,,,,,,,,,,441.9170000000013,,response,,,,99,,,,,,,Space,keypress(Space),,,,,,,,---- -- ----- -- ------ - ------- --- ----------<br>------------- ------ ------ ---- ---- ------- ----- -- ----<br>-------- ------- is ---------- --- - --- ----- ----- ----<br>---- --- --- ----- --- ---- ---- ------- ----- ---- -------<br>--- --- -- ----- -- --- ---- -- --- ---- -- ------ ------<br>--- ----- -- ----,130756.40000003576,130751,130292.417,130293.10000002384,130309.083,130775.731,,20,is
screen,html.Screen,2_1_0_1_21,2022-05-12T17:43:57.540Z,,,,,,,,,,,,,,,,,53,,,,,,,,,,,,,,1240.0690000119212,,response,,,,99,,,,,,,Space,keypress(Space),,,,,,,,---- -- ----- -- ------ - ------- --- ----------<br>------------- ------ ------ ---- ---- ------- ----- -- ----<br>-------- ------- -- paramount. --- - --- ----- ----- ----<br>---- --- --- ----- --- ---- ---- ------- ----- ---- -------<br>--- --- -- ----- -- --- ---- -- --- ---- -- ------ ------<br>--- ----- -- ----,132021.19999998808,132015.80000001192,130759.065,130758.30000001192,130775.731,132025.681,,21,paramount.
screen,html.Screen,2_1_0_1_22,2022-05-12T17:43:58.004Z,,,,,,,,,,,,,,,,,53,,,,,,,,,,,,,,453.2190000357514,,response,,,,99,,,,,,,Space,keypress(Space),,,,,,,,---- -- ----- -- ------ - ------- --- ----------<br>------------- ------ ------ ---- ---- ------- ----- -- ----<br>-------- ------- -- ---------- But - --- ----- ----- ----<br>---- --- --- ----- --- ---- ---- ------- ----- ---- -------<br>--- --- -- ----- -- --- ---- -- --- ---- -- ------ ------<br>--- ----- -- ----,132484.40000003576,132478.90000003576,132009.015,132021.40000003576,132025.681,132492.329,,22,But
screen,html.Screen,2_1_0_1_23,2022-05-12T17:43:58.375Z,,,,,,,,,,,,,,,,,53,,,,,,,,,,,,,,357.6710000000021,,response,,,,99,,,,,,,Space,keypress(Space),,,,,,,,---- -- ----- -- ------ - ------- --- ----------<br>------------- ------ ------ ---- ---- ------- ----- -- ----<br>-------- ------- -- ---------- --- a --- ----- ----- ----<br>---- --- --- ----- --- ---- ---- ------- ----- ---- -------<br>--- --- -- ----- -- --- ---- -- --- ---- -- ------ ------<br>--- ----- -- ----,132856.19999998808,132850,132475.663,132484.60000002384,132492.329,132858.981,,23,a
screen,html.Screen,2_1_0_1_24,2022-05-12T17:43:58.825Z,,,,,,,,,,,,,,,,,53,,,,,,,,,,,,,,440.81900001192116,,response,,,,99,,,,,,,Space,keypress(Space),,,,,,,,---- -- ----- -- ------ - ------- --- ----------<br>------------- ------ ------ ---- ---- ------- ----- -- ----<br>-------- ------- -- ---------- --- - new ----- ----- ----<br>---- --- --- ----- --- ---- ---- ------- ----- ---- -------<br>--- --- -- ----- -- --- ---- -- --- ---- -- ------ ------<br>--- ----- -- ----,133305.40000003576,133299.80000001192,132842.315,132856.40000003576,132858.981,133308.963,,24,new
screen,html.Screen,2_1_0_1_25,2022-05-12T17:43:59.237Z,,,,,,,,,,,,,,,,,53,,,,,,,,,,,,,,403.8370000119321,,response,,,,99,,,,,,,Space,keypress(Space),,,,,,,,---- -- ----- -- ------ - ------- --- ----------<br>------------- ------ ------ ---- ---- ------- ----- -- ----<br>-------- ------- -- ---------- --- - --- study ----- ----<br>---- --- --- ----- --- ---- ---- ------- ----- ---- -------<br>--- --- -- ----- -- --- ---- -- --- ---- -- ------ ------<br>--- ----- -- ----,133718.19999998808,133712.80000001192,133292.297,133305.69999998808,133308.963,133725.613,,25,study
screen,html.Screen,2_1_0_1_26,2022-05-12T17:43:59.693Z,,,,,,,,,,,,,,,,,53,,,,,,,,,,,,,,443.08699998806696,,response,,,,99,,,,,,,Space,keypress(Space),,,,,,,,---- -- ----- -- ------ - ------- --- ----------<br>------------- ------ ------ ---- ---- ------- ----- -- ----<br>-------- ------- -- ---------- --- - --- ----- finds ----<br>---- --- --- ----- --- ---- ---- ------- ----- ---- -------<br>--- --- -- ----- -- --- ---- -- --- ---- -- ------ ------<br>--- ----- -- ----,134173.80000001192,134168.69999998808,133708.947,133718.40000003576,133725.613,134175.595,,26,finds
screen,html.Screen,2_1_0_1_27,2022-05-12T17:44:00.146Z,,,,,,,,,,,,,,,,,53,,,,,,,,,,,,,,446.40499999999884,,response,,,,99,,,,,,,Space,keypress(Space),,,,,,,,---- -- ----- -- ------ - ------- --- ----------<br>------------- ------ ------ ---- ---- ------- ----- -- ----<br>-------- ------- -- ---------- --- - --- ----- ----- that<br>---- --- --- ----- --- ---- ---- ------- ----- ---- -------<br>--- --- -- ----- -- --- ---- -- --- ---- -- ------ ------<br>--- ----- -- ----,134626.69999998808,134622,134158.929,134174.10000002384,134175.595,134642.243,,27,that
screen,html.Screen,2_1_0_1_28,2022-05-12T17:44:00.561Z,,,,,,,,,,,,,,,,,53,,,,,,,,,,,,,,393.75700000001234,,response,,,,99,,,,,,,Space,keypress(Space),,,,,,,,---- -- ----- -- ------ - ------- --- ----------<br>------------- ------ ------ ---- ---- ------- ----- -- ----<br>-------- ------- -- ---------- --- - --- ----- ----- ----<br>it's --- --- ----- --- ---- ---- ------- ----- ---- -------<br>--- --- -- ----- -- --- ---- -- --- ---- -- ------ ------<br>--- ----- -- ----,135041.40000003576,135036,134625.577,134626.90000003576,134642.243,135058.893,,28,it's
screen,html.Screen,2_1_0_1_29,2022-05-12T17:44:00.996Z,,,,,,,,,,,,,,,,,53,,,,,,,,,,,,,,412.2070000238309,,response,,,,99,,,,,,,Space,keypress(Space),,,,,,,,---- -- ----- -- ------ - ------- --- ----------<br>------------- ------ ------ ---- ---- ------- ----- -- ----<br>-------- ------- -- ---------- --- - --- ----- ----- ----<br>---- not --- ----- --- ---- ---- ------- ----- ---- -------<br>--- --- -- ----- -- --- ---- -- --- ---- -- ------ ------<br>--- ----- -- ----,135476.5,135471.10000002384,135042.227,135041.69999998808,135058.893,135492.209,,29,not
screen,html.Screen,2_1_0_1_30,2022-05-12T17:44:01.412Z,,,,,,,,,,,,,,,,,53,,,,,,,,,,,,,,394.9909999880765,,response,,,,99,,,,,,,Space,keypress(Space),,,,,,,,---- -- ----- -- ------ - ------- --- ----------<br>------------- ------ ------ ---- ---- ------- ----- -- ----<br>-------- ------- -- ---------- --- - --- ----- ----- ----<br>---- --- how ----- --- ---- ---- ------- ----- ---- -------<br>--- --- -- ----- -- --- ---- -- --- ---- -- ------ ------<br>--- ----- -- ----,135893,135887.19999998808,135475.543,135476.80000001192,135492.209,135908.859,,30,how
screen,html.Screen,2_1_0_1_31,2022-05-12T17:44:01.870Z,,,,,,,,,,,,,,,,,53,,,,,,,,,,,,,,437.34099998808233,,response,,,,99,,,,,,,Space,keypress(Space),,,,,,,,---- -- ----- -- ------ - ------- --- ----------<br>------------- ------ ------ ---- ---- ------- ----- -- ----<br>-------- ------- -- ---------- --- - --- ----- ----- ----<br>---- --- --- close --- ---- ---- ------- ----- ---- -------<br>--- --- -- ----- -- --- ---- -- --- ---- -- ------ ------<br>--- ----- -- ----,136351.30000001192,136346.19999998808,135892.193,135893.30000001192,135908.859,136358.841,,31,close
screen,html.Screen,2_1_0_1_32,2022-05-12T17:44:02.251Z,,,,,,,,,,,,,,,,,53,,,,,,,,,,,,,,367.95900001193513,,response,,,,99,,,,,,,Space,keypress(Space),,,,,,,,---- -- ----- -- ------ - ------- --- ----------<br>------------- ------ ------ ---- ---- ------- ----- -- ----<br>-------- ------- -- ---------- --- - --- ----- ----- ----<br>---- --- --- ----- you ---- ---- ------- ----- ---- -------<br>--- --- -- ----- -- --- ---- -- --- ---- -- ------ ------<br>--- ----- -- ----,136731.90000003576,136726.80000001192,136342.175,136351.60000002384,136358.841,136742.159,,32,you
screen,html.Screen,2_1_0_1_33,2022-05-12T17:44:02.736Z,,,,,,,,,,,,,,,,,53,,,,,,,,,,,,,,469.7410000357486,,response,,,,99,,,,,,,Space,keypress(Space),,,,,,,,---- -- ----- -- ------ - ------- --- ----------<br>------------- ------ ------ ---- ---- ------- ----- -- ----<br>-------- ------- -- ---------- --- - --- ----- ----- ----<br>---- --- --- ----- --- feel ---- ------- ----- ---- -------<br>--- --- -- ----- -- --- ---- -- --- ---- -- ------ ------<br>--- ----- -- ----,137217.10000002384,137211.90000003576,136725.493,136732.10000002384,136742.159,137225.473,,33,feel
screen,html.Screen,2_1_0_1_34,2022-05-12T17:44:03.287Z,,,,,,,,,,,,,,,,,53,,,,,,,,,,,,,,537.5270000000019,,response,,,,99,,,,,,,Space,keypress(Space),,,,,,,,---- -- ----- -- ------ - ------- --- ----------<br>------------- ------ ------ ---- ---- ------- ----- -- ----<br>-------- ------- -- ---------- --- - --- ----- ----- ----<br>---- --- --- ----- --- ---- that ------- ----- ---- -------<br>--- --- -- ----- -- --- ---- -- --- ---- -- ------ ------<br>--- ----- -- ----,137768.30000001192,137763,137208.807,137217.30000001192,137225.473,137775.451,,34,that
screen,html.Screen,2_1_0_1_35,2022-05-12T17:44:04.451Z,,,,,,,,,,,,,,,,,53,,,,,,,,,,,,,,1151.548999999999,,response,,,,99,,,,,,,Space,keypress(Space),,,,,,,,---- -- ----- -- ------ - ------- --- ----------<br>------------- ------ ------ ---- ---- ------- ----- -- ----<br>-------- ------- -- ---------- --- - --- ----- ----- ----<br>---- --- --- ----- --- ---- ---- matters ----- ---- -------<br>--- --- -- ----- -- --- ---- -- --- ---- -- ------ ------<br>--- ----- -- ----,138932.40000003576,138927,137758.785,137768.60000002384,137775.451,138942.847,,35,matters
screen,html.Screen,2_1_0_1_36,2022-05-12T17:44:05.206Z,,,,,,,,,,,,,,,,,53,,,,,,,,,,,,,,738.3529999880702,,response,,,,99,,,,,,,Space,keypress(Space),,,,,,,,"---- -- ----- -- ------ - ------- --- ----------<br>------------- ------ ------ ---- ---- ------- ----- -- ----<br>-------- ------- -- ---------- --- - --- ----- ----- ----<br>---- --- --- ----- --- ---- ---- ------- most, ---- -------<br>--- --- -- ----- -- --- ---- -- --- ---- -- ------ ------<br>--- ----- -- ----",139686.5,139681.19999998808,138926.181,138932.69999998808,138942.847,139692.817,,36,"most,"
screen,html.Screen,2_1_0_1_37,2022-05-12T17:44:06.084Z,,,,,,,,,,,,,,,,,53,,,,,,,,,,,,,,867.18299999999,,response,,,,99,,,,,,,Space,keypress(Space),,,,,,,,---- -- ----- -- ------ - ------- --- ----------<br>------------- ------ ------ ---- ---- ------- ----- -- ----<br>-------- ------- -- ---------- --- - --- ----- ----- ----<br>---- --- --- ----- --- ---- ---- ------- ----- it's -------<br>--- --- -- ----- -- --- ---- -- --- ---- -- ------ ------<br>--- ----- -- ----,140565.30000001192,140560,139676.151,139686.69999998808,139692.817,140576.115,,37,it's
screen,html.Screen,2_1_0_1_38,2022-05-12T17:44:06.642Z,,,,,,,,,,,,,,,,,53,,,,,,,,,,,,,,541.7850000357721,,response,,,,99,,,,,,,Space,keypress(Space),,,,,,,,---- -- ----- -- ------ - ------- --- ----------<br>------------- ------ ------ ---- ---- ------- ----- -- ----<br>-------- ------- -- ---------- --- - --- ----- ----- ----<br>---- --- --- ----- --- ---- ---- ------- ----- ---- whether<br>--- --- -- ----- -- --- ---- -- --- ---- -- ------ ------<br>--- ----- -- ----,141123.40000003576,141117.90000003576,140559.449,140565.60000002384,140576.115,141126.093,,38,whether
screen,html.Screen,2_1_0_1_39,2022-05-12T17:44:07.136Z,,,,,,,,,,,,,,,,,53,,,,,,,,,,,,,,485.9070000000065,,response,,,,99,,,,,,,Space,keypress(Space),,,,,,,,---- -- ----- -- ------ - ------- --- ----------<br>------------- ------ ------ ---- ---- ------- ----- -- ----<br>-------- ------- -- ---------- --- - --- ----- ----- ----<br>---- --- --- ----- --- ---- ---- ------- ----- ---- -------<br>you --- -- ----- -- --- ---- -- --- ---- -- ------ ------<br>--- ----- -- ----,141616.69999998808,141612,141109.427,141123.60000002384,141126.093,141626.073,,39,you
screen,html.Screen,2_1_0_1_40,2022-05-12T17:44:07.572Z,,,,,,,,,,,,,,,,,53,,,,,,,,,,,,,,421.92699999999604,,response,,,,99,,,,,,,Space,keypress(Space),,,,,,,,---- -- ----- -- ------ - ------- --- ----------<br>------------- ------ ------ ---- ---- ------- ----- -- ----<br>-------- ------- -- ---------- --- - --- ----- ----- ----<br>---- --- --- ----- --- ---- ---- ------- ----- ---- -------<br>--- are -- ----- -- --- ---- -- --- ---- -- ------ ------<br>--- ----- -- ----,142053.5,142048,141609.407,141616.90000003576,141626.073,142059.389,,40,are
screen,html.Screen,2_1_0_1_41,2022-05-12T17:44:07.930Z,,,,,,,,,,,,,,,,,53,,,,,,,,,,,,,,346.6110000000044,,response,,,,99,,,,,,,Space,keypress(Space),,,,,,,,---- -- ----- -- ------ - ------- --- ----------<br>------------- ------ ------ ---- ---- ------- ----- -- ----<br>-------- ------- -- ---------- --- - --- ----- ----- ----<br>---- --- --- ----- --- ---- ---- ------- ----- ---- -------<br>--- --- as ----- -- --- ---- -- --- ---- -- ------ ------<br>--- ----- -- ----,142411.19999998808,142406,142042.723,142053.80000001192,142059.389,142426.041,,41,as
screen,html.Screen,2_1_0_1_42,2022-05-12T17:44:08.379Z,,,,,,,,,,,,,,,,,53,,,,,,,,,,,,,,428.15899998808163,,response,,,,99,,,,,,,Space,keypress(Space),,,,,,,,---- -- ----- -- ------ - ------- --- ----------<br>------------- ------ ------ ---- ---- ------- ----- -- ----<br>-------- ------- -- ---------- --- - --- ----- ----- ----<br>---- --- --- ----- --- ---- ---- ------- ----- ---- -------<br>--- --- -- close -- --- ---- -- --- ---- -- ------ ------<br>--- ----- -- ----,142859.69999998808,142854.19999998808,142409.375,142411.40000003576,142426.041,142876.023,,42,close
screen,html.Screen,2_1_0_1_43,2022-05-12T17:44:08.740Z,,,,,,,,,,,,,,,,,53,,,,,,,,,,,,,,340.77700001193443,,response,,,,99,,,,,,,Space,keypress(Space),,,,,,,,---- -- ----- -- ------ - ------- --- ----------<br>------------- ------ ------ ---- ---- ------- ----- -- ----<br>-------- ------- -- ---------- --- - --- ----- ----- ----<br>---- --- --- ----- --- ---- ---- ------- ----- ---- -------<br>--- --- -- ----- as --- ---- -- --- ---- -- ------ ------<br>--- ----- -- ----,143221.40000003576,143216.80000001192,142859.357,142859.90000003576,142876.023,143226.009,,43,as
screen,html.Screen,2_1_0_1_44,2022-05-12T17:44:09.160Z,,,,,,,,,,,,,,,,,53,,,,,,,,,,,,,,410.09100002385094,,response,,,,99,,,,,,,Space,keypress(Space),,,,,,,,---- -- ----- -- ------ - ------- --- ----------<br>------------- ------ ------ ---- ---- ------- ----- -- ----<br>-------- ------- -- ---------- --- - --- ----- ----- ----<br>---- --- --- ----- --- ---- ---- ------- ----- ---- -------<br>--- --- -- ----- -- you ---- -- --- ---- -- ------ ------<br>--- ----- -- ----,143641.60000002384,143636.10000002384,143209.343,143221.5,143226.009,143642.659,,44,you
screen,html.Screen,2_1_0_1_45,2022-05-12T17:44:09.571Z,,,,,,,,,,,,,,,,,53,,,,,,,,,,,,,,404.54099998806487,,response,,,,99,,,,,,,Space,keypress(Space),,,,,,,,---- -- ----- -- ------ - ------- --- ----------<br>------------- ------ ------ ---- ---- ------- ----- -- ----<br>-------- ------- -- ---------- --- - --- ----- ----- ----<br>---- --- --- ----- --- ---- ---- ------- ----- ---- -------<br>--- --- -- ----- -- --- want -- --- ---- -- ------ ------<br>--- ----- -- ----,144052,144047.19999998808,143625.993,143641.80000001192,143642.659,144059.309,,45,want
screen,html.Screen,2_1_0_1_46,2022-05-12T17:44:09.959Z,,,,,,,,,,,,,,,,,53,,,,,,,,,,,,,,377.6909999999916,,response,,,,99,,,,,,,Space,keypress(Space),,,,,,,,---- -- ----- -- ------ - ------- --- ----------<br>------------- ------ ------ ---- ---- ------- ----- -- ----<br>-------- ------- -- ---------- --- - --- ----- ----- ----<br>---- --- --- ----- --- ---- ---- ------- ----- ---- -------<br>--- --- -- ----- -- --- ---- to --- ---- -- ------ ------<br>--- ----- -- ----,144440.60000002384,144437,144042.643,144052.10000002384,144059.309,144442.627,,46,to
screen,html.Screen,2_1_0_1_47,2022-05-12T17:44:10.329Z,,,,,,,,,,,,,,,,,53,,,,,,,,,,,,,,362.5729999880714,,response,,,,99,,,,,,,Space,keypress(Space),,,,,,,,"---- -- ----- -- ------ - ------- --- ----------<br>------------- ------ ------ ---- ---- ------- ----- -- ----<br>-------- ------- -- ---------- --- - --- ----- ----- ----<br>---- --- --- ----- --- ---- ---- ------- ----- ---- -------<br>--- --- -- ----- -- --- ---- -- be, ---- -- ------ ------<br>--- ----- -- ----",144810.30000001192,144805.19999998808,144425.961,144440.90000003576,144442.627,144825.945,,47,"be,"
screen,html.Screen,2_1_0_1_48,2022-05-12T17:44:10.844Z,,,,,,,,,,,,,,,,,53,,,,,,,,,,,,,,494.054999999993,,response,,,,99,,,,,,,Space,keypress(Space),,,,,,,,---- -- ----- -- ------ - ------- --- ----------<br>------------- ------ ------ ---- ---- ------- ----- -- ----<br>-------- ------- -- ---------- --- - --- ----- ----- ----<br>---- --- --- ----- --- ---- ---- ------- ----- ---- -------<br>--- --- -- ----- -- --- ---- -- --- even -- ------ ------<br>--- ----- -- ----,145325.60000002384,145320,144809.279,144810.5,144825.945,145342.591,,48,even
screen,html.Screen,2_1_0_1_49,2022-05-12T17:44:11.200Z,,,,,,,,,,,,,,,,,53,,,,,,,,,,,,,,333.6089999880933,,response,,,,99,,,,,,,Space,keypress(Space),,,,,,,,---- -- ----- -- ------ - ------- --- ----------<br>------------- ------ ------ ---- ---- ------- ----- -- ----<br>-------- ------- -- ---------- --- - --- ----- ----- ----<br>---- --- --- ----- --- ---- ---- ------- ----- ---- -------<br>--- --- -- ----- -- --- ---- -- --- ---- if ------ ------<br>--- ----- -- ----,145681.30000001192,145676.19999998808,145325.925,145325.80000001192,145342.591,145692.577,,49,if
screen,html.Screen,2_1_0_1_50,2022-05-12T17:44:11.570Z,,,,,,,,,,,,,,,,,53,,,,,,,,,,,,,,353.52300002385164,,response,,,,99,,,,,,,Space,keypress(Space),,,,,,,,---- -- ----- -- ------ - ------- --- ----------<br>------------- ------ ------ ---- ---- ------- ----- -- ----<br>-------- ------- -- ---------- --- - --- ----- ----- ----<br>---- --- --- ----- --- ---- ---- ------- ----- ---- -------<br>--- --- -- ----- -- --- ---- -- --- ---- -- that's ------<br>--- ----- -- ----,146051.40000003576,146046.10000002384,145675.911,145681.40000003576,145692.577,146059.229,,50,that's
screen,html.Screen,2_1_0_1_51,2022-05-12T17:44:11.955Z,,,,,,,,,,,,,,,,,53,,,,,,,,,,,,,,371.8710000238498,,response,,,,99,,,,,,,Space,keypress(Space),,,,,,,,---- -- ----- -- ------ - ------- --- ----------<br>------------- ------ ------ ---- ---- ------- ----- -- ----<br>-------- ------- -- ---------- --- - --- ----- ----- ----<br>---- --- --- ----- --- ---- ---- ------- ----- ---- -------<br>--- --- -- ----- -- --- ---- -- --- ---- -- ------ really<br>--- ----- -- ----,146436.69999998808,146431.10000002384,146042.563,146051.60000002384,146059.229,146442.547,,51,really
screen,html.Screen,2_1_0_1_52,2022-05-12T17:44:12.277Z,,,,,,,,,,,,,,,,,53,,,,,,,,,,,,,,309.75300001192954,,response,,,,99,,,,,,,Space,keypress(Space),,,,,,,,---- -- ----- -- ------ - ------- --- ----------<br>------------- ------ ------ ---- ---- ------- ----- -- ----<br>-------- ------- -- ---------- --- - --- ----- ----- ----<br>---- --- --- ----- --- ---- ---- ------- ----- ---- -------<br>--- --- -- ----- -- --- ---- -- --- ---- -- ------ ------<br>not ----- -- ----,146757.80000001192,146752.30000001192,146425.881,146437,146442.547,146759.201,,52,not
screen,html.Screen,2_1_0_1_53,2022-05-12T17:44:12.622Z,,,,,,,,,,,,,,,,,53,,,,,,,,,,,,,,338.79899999999907,,response,,,,99,,,,,,,Space,keypress(Space),,,,,,,,---- -- ----- -- ------ - ------- --- ----------<br>------------- ------ ------ ---- ---- ------- ----- -- ----<br>-------- ------- -- ---------- --- - --- ----- ----- ----<br>---- --- --- ----- --- ---- ---- ------- ----- ---- -------<br>--- --- -- ----- -- --- ---- -- --- ---- -- ------ ------<br>--- close -- ----,147103.40000003576,147098,146742.535,146758.10000002384,146759.201,147109.187,,53,close
screen,html.Screen,2_1_0_1_54,2022-05-12T17:44:13.169Z,,,,,,,,,,,,,,,,,53,,,,,,,,,,,,,,535.8129999999946,,response,,,,99,,,,,,,Space,keypress(Space),,,,,,,,---- -- ----- -- ------ - ------- --- ----------<br>------------- ------ ------ ---- ---- ------- ----- -- ----<br>-------- ------- -- ---------- --- - --- ----- ----- ----<br>---- --- --- ----- --- ---- ---- ------- ----- ---- -------<br>--- --- -- ----- -- --- ---- -- --- ---- -- ------ ------<br>--- ----- at ----,147650.40000003576,147645,147092.521,147103.60000002384,147109.187,147659.165,,54,at
screen,html.Screen,2_1_0_1_55,2022-05-12T17:44:13.618Z,,,,,,,,,,,,,,,,,53,,,,,,,,,,,,,,434.83499999999185,,response,,,,99,,,,,,,Space,keypress(Space),,,,,,,,---- -- ----- -- ------ - ------- --- ----------<br>------------- ------ ------ ---- ---- ------- ----- -- ----<br>-------- ------- -- ---------- --- - --- ----- ----- ----<br>---- --- --- ----- --- ---- ---- ------- ----- ---- -------<br>--- --- -- ----- -- --- ---- -- --- ---- -- ------ ------<br>--- ----- -- all.,148099,148094,147642.499,147652.19999998808,147659.165,148109.147,,55,all.
Item 99,flow.Loop,2_1_0_1,2022-05-12T17:44:13.618Z,,,,,,,,,,,,,,,,,,,,,,,,,,,,,,,38819.168000000005,,completion,,,,,H,,,,,,,,,,,silence,,,,,148099.5,148094,109258.166,109260.80000001192,109274.832,148109.147,,,
Question 1,html.Screen,2_1_0_2,2022-05-12T17:44:16.453Z,,,,,,,,,,,,,,,,,,,,,,,,,,,,true,FALSE,,2822.552999988082,,response,,,,99,H,,,,,,FALSE,click #choice-2,,,,silence,,,,,150934.40000003576,150931.69999998808,148092.481,148099.60000002384,148109.147,150943.183,,,
Question 2,html.Screen,2_1_0_3,2022-05-12T17:44:19.385Z,,,,,,,,,,,,,,,,,,,,,,,,,,,,true,TRUE,,2922.016999988089,,response,,,,99,H,,,,,,TRUE,click #choice-1,,,,silence,,,,,153867.10000002384,153865.19999998808,150926.517,150934.69999998808,150943.183,153876.399,,,
Item 99,flow.Sequence,2_1_0,2022-05-12T17:44:19.386Z,,,,,,,,,,,,,,,,,,,,,,,,,,,,,,,54592.22499998807,,completion,,,,,,,,,,,,,,,,,,,,,153867.19999998808,153865.19999998808,99256.309,99270.10000002384,99272.975,153876.399,,,
Holding screen,html.Screen,2_1_1_0,2022-05-12T17:44:29.380Z,,,,,,,,,,,,,,,,,,,,,,,,,,,,,,,10000.337999999989,,timeout,,,,,,,,,,,,,,,,,,,,,163862.40000003576,163860.071,153859.733,153867.30000001192,153876.399,163876.737,,,
screen,html.Screen,2_1_1_1_0,2022-05-12T17:44:34.110Z,,,,,,,,,,,,,,,,,54,,,,,,,,,,,,,,4709.163000035769,,response,,,,100,,,,,,,Space,keypress(Space),,,,,,,,At --- ---- --- ------ ----- ------- ---- -- --- ------- --<br>------- ---------- ------ -- ----- -- ----- -- ---- ------<br>--- ----- --- --- ------ -------- ----- --- ------ ----- --<br>----- ----- ---------- --- --- ------ ------ ---- -- ------<br>------- --- ------ ----- --- ---- ------- -- ---- --- --<br>------- ------,168591.90000003576,168585.90000003576,163860.071,163863,163876.737,168593.215,,0,At
screen,html.Screen,2_1_1_1_1,2022-05-12T17:44:34.764Z,,,,,,,,,,,,,,,,,54,,,,,,,,,,,,,,647.5850000119244,,response,,,,100,,,,,,,Space,keypress(Space),,,,,,,,-- the ---- --- ------ ----- ------- ---- -- --- ------- --<br>------- ---------- ------ -- ----- -- ----- -- ---- ------<br>--- ----- --- --- ------ -------- ----- --- ------ ----- --<br>----- ----- ---------- --- --- ------ ------ ---- -- ------<br>------- --- ------ ----- --- ---- ------- -- ---- --- --<br>------- ------,169246.10000002384,169240.80000001192,168576.549,168592.10000002384,168593.215,169259.855,,1,the
screen,html.Screen,2_1_1_1_2,2022-05-12T17:44:35.587Z,,,,,,,,,,,,,,,,,54,,,,,,,,,,,,,,803.8449999880686,,response,,,,100,,,,,,,Space,keypress(Space),,,,,,,,-- --- time --- ------ ----- ------- ---- -- --- ------- --<br>------- ---------- ------ -- ----- -- ----- -- ---- ------<br>--- ----- --- --- ------ -------- ----- --- ------ ----- --<br>----- ----- ---------- --- --- ------ ------ ---- -- ------<br>------- --- ------ ----- --- ---- ------- -- ---- --- --<br>------- ------,170069.19999998808,170063.69999998808,169243.189,169246.30000001192,169259.855,170077.372,,2,time
screen,html.Screen,2_1_1_1_3,2022-05-12T17:44:36.393Z,,,,,,,,,,,,,,,,,54,,,,,,,,,,,,,,793.327999988076,,response,,,,100,,,,,,,Space,keypress(Space),,,,,,,,-- --- ---- the ------ ----- ------- ---- -- --- ------- --<br>------- ---------- ------ -- ----- -- ----- -- ---- ------<br>--- ----- --- --- ------ -------- ----- --- ------ ----- --<br>----- ----- ---------- --- --- ------ ------ ---- -- ------<br>------- --- ------ ----- --- ---- ------- -- ---- --- --<br>------- ------,170875.40000003576,170870.69999998808,170060.706,170069.5,170077.372,170877.34,,3,the
screen,html.Screen,2_1_1_1_4,2022-05-12T17:44:37.272Z,,,,,,,,,,,,,,,,,54,,,,,,,,,,,,,,871.4600000119244,,response,,,,100,,,,,,,Space,keypress(Space),,,,,,,,-- --- ---- --- French ----- ------- ---- -- --- ------- --<br>------- ---------- ------ -- ----- -- ----- -- ---- ------<br>--- ----- --- --- ------ -------- ----- --- ------ ----- --<br>----- ----- ---------- --- --- ------ ------ ---- -- ------<br>------- --- ------ ----- --- ---- ------- -- ---- --- --<br>------- ------,171754.30000001192,171748.80000001192,170860.674,170875.60000002384,170877.34,171760.638,,4,French
screen,html.Screen,2_1_1_1_5,2022-05-12T17:44:37.956Z,,,,,,,,,,,,,,,,,54,,,,,,,,,,,,,,672.9620000238356,,response,,,,100,,,,,,,Space,keypress(Space),,,,,,,,-- --- ---- --- ------ crown ------- ---- -- --- ------- --<br>------- ---------- ------ -- ----- -- ----- -- ---- ------<br>--- ----- --- --- ------ -------- ----- --- ------ ----- --<br>----- ----- ---------- --- --- ------ ------ ---- -- ------<br>------- --- ------ ----- --- ---- ------- -- ---- --- --<br>------- ------,172438.90000003576,172433.60000002384,171743.972,171754.5,171760.638,172443.944,,5,crown
screen,html.Screen,2_1_1_1_6,2022-05-12T17:44:38.605Z,,,,,,,,,,,,,,,,,54,,,,,,,,,,,,,,638.7559999880905,,response,,,,100,,,,,,,Space,keypress(Space),,,,,,,,-- --- ---- --- ------ ----- secured ---- -- --- ------- --<br>------- ---------- ------ -- ----- -- ----- -- ---- ------<br>--- ----- --- --- ------ -------- ----- --- ------ ----- --<br>----- ----- ---------- --- --- ------ ------ ---- -- ------<br>------- --- ------ ----- --- ---- ------- -- ---- --- --<br>------- ------,173087.5,173082.69999998808,172427.278,172439.19999998808,172443.944,173093.918,,6,secured
screen,html.Screen,2_1_1_1_7,2022-05-12T17:44:39.148Z,,,,,,,,,,,,,,,,,54,,,,,,,,,,,,,,530.781999988074,,response,,,,100,,,,,,,Space,keypress(Space),,,,,,,,-- --- ---- --- ------ ----- ------- much -- --- ------- --<br>------- ---------- ------ -- ----- -- ----- -- ---- ------<br>--- ----- --- --- ------ -------- ----- --- ------ ----- --<br>----- ----- ---------- --- --- ------ ------ ---- -- ------<br>------- --- ------ ----- --- ---- ------- -- ---- --- --<br>------- ------,173630,173624.69999998808,173077.252,173087.80000001192,173093.918,173643.896,,7,much
screen,html.Screen,2_1_1_1_8,2022-05-12T17:44:39.621Z,,,,,,,,,,,,,,,,,54,,,,,,,,,,,,,,454.80399998807115,,response,,,,100,,,,,,,Space,keypress(Space),,,,,,,,-- --- ---- --- ------ ----- ------- ---- of --- ------- --<br>------- ---------- ------ -- ----- -- ----- -- ---- ------<br>--- ----- --- --- ------ -------- ----- --- ------ ----- --<br>----- ----- ---------- --- --- ------ ------ ---- -- ------<br>------- --- ------ ----- --- ---- ------- -- ---- --- --<br>------- ------,174103.90000003576,174098.69999998808,173627.23,173630.30000001192,173643.896,174110.544,,8,of
screen,html.Screen,2_1_1_1_9,2022-05-12T17:44:40.023Z,,,,,,,,,,,,,,,,,54,,,,,,,,,,,,,,391.4560000000056,,response,,,,100,,,,,,,Space,keypress(Space),,,,,,,,-- --- ---- --- ------ ----- ------- ---- -- its ------- --<br>------- ---------- ------ -- ----- -- ----- -- ---- ------<br>--- ----- --- --- ------ -------- ----- --- ------ ----- --<br>----- ----- ---------- --- --- ------ ------ ---- -- ------<br>------- --- ------ ----- --- ---- ------- -- ---- --- --<br>------- ------,174505.60000002384,174502,174093.878,174104.10000002384,174110.544,174510.528,,9,its
screen,html.Screen,2_1_1_1_10,2022-05-12T17:44:40.877Z,,,,,,,,,,,,,,,,,54,,,,,,,,,,,,,,844.0720000238507,,response,,,,100,,,,,,,Space,keypress(Space),,,,,,,,-- --- ---- --- ------ ----- ------- ---- -- --- revenue --<br>------- ---------- ------ -- ----- -- ----- -- ---- ------<br>--- ----- --- --- ------ -------- ----- --- ------ ----- --<br>----- ----- ---------- --- --- ------ ------ ---- -- ------<br>------- --- ------ ----- --- ---- ------- -- ---- --- --<br>------- ------,175359.80000001192,175354.60000002384,174493.862,174505.69999998808,174510.528,175377.16,,10,revenue
screen,html.Screen,2_1_1_1_11,2022-05-12T17:44:41.394Z,,,,,,,,,,,,,,,,,54,,,,,,,,,,,,,,493.64000001191744,,response,,,,100,,,,,,,Space,keypress(Space),,,,,,,,-- --- ---- --- ------ ----- ------- ---- -- --- ------- by<br>------- ---------- ------ -- ----- -- ----- -- ---- ------<br>--- ----- --- --- ------ -------- ----- --- ------ ----- --<br>----- ----- ---------- --- --- ------ ------ ---- -- ------<br>------- --- ------ ----- --- ---- ------- -- ---- --- --<br>------- ------,175876.30000001192,175870.80000001192,175360.494,175360.19999998808,175377.16,175893.806,,11,by
screen,html.Screen,2_1_1_1_12,2022-05-12T17:44:41.789Z,,,,,,,,,,,,,,,,,54,,,,,,,,,,,,,,373.0940000357514,,response,,,,100,,,,,,,Space,keypress(Space),,,,,,,,-- --- ---- --- ------ ----- ------- ---- -- --- ------- --<br>issuing ---------- ------ -- ----- -- ----- -- ---- ------<br>--- ----- --- --- ------ -------- ----- --- ------ ----- --<br>----- ----- ---------- --- --- ------ ------ ---- -- ------<br>------- --- ------ ----- --- ---- ------- -- ---- --- --<br>------- ------,176272.10000002384,176266.90000003576,175877.14,175876.5,175893.806,176277.124,,12,issuing
screen,html.Screen,2_1_1_1_13,2022-05-12T17:44:42.220Z,,,,,,,,,,,,,,,,,54,,,,,,,,,,,,,,420.6760000119102,,response,,,,100,,,,,,,Space,keypress(Space),,,,,,,,-- --- ---- --- ------ ----- ------- ---- -- --- ------- --<br>------- government ------ -- ----- -- ----- -- ---- ------<br>--- ----- --- --- ------ -------- ----- --- ------ ----- --<br>----- ----- ---------- --- --- ------ ------ ---- -- ------<br>------- --- ------ ----- --- ---- ------- -- ---- --- --<br>------- ------,176702.60000002384,176697.80000001192,176260.458,176272.30000001192,176277.124,176710.44,,13,government
screen,html.Screen,2_1_1_1_14,2022-05-12T17:44:43.770Z,,,,,,,,,,,,,,,,,54,,,,,,,,,,,,,,1536.2599999880767,,response,,,,100,,,,,,,Space,keypress(Space),,,,,,,,-- --- ---- --- ------ ----- ------- ---- -- --- ------- --<br>------- ---------- bonds. -- ----- -- ----- -- ---- ------<br>--- ----- --- --- ------ -------- ----- --- ------ ----- --<br>----- ----- ---------- --- --- ------ ------ ---- -- ------<br>------- --- ------ ----- --- ---- ------- -- ---- --- --<br>------- ------,178252.40000003576,178246.69999998808,176693.774,176703.10000002384,176710.44,178260.378,,14,bonds.
screen,html.Screen,2_1_1_1_15,2022-05-12T17:44:44.226Z,,,,,,,,,,,,,,,,,54,,,,,,,,,,,,,,441.622000000003,,response,,,,100,,,,,,,Space,keypress(Space),,,,,,,,-- --- ---- --- ------ ----- ------- ---- -- --- ------- --<br>------- ---------- ------ In ----- -- ----- -- ---- ------<br>--- ----- --- --- ------ -------- ----- --- ------ ----- --<br>----- ----- ---------- --- --- ------ ------ ---- -- ------<br>------- --- ------ ----- --- ---- ------- -- ---- --- --<br>------- ------,178708.40000003576,178702,178243.712,178252.69999998808,178260.378,178710.36,,15,In
screen,html.Screen,2_1_1_1_16,2022-05-12T17:44:44.804Z,,,,,,,,,,,,,,,,,54,,,,,,,,,,,,,,571.0400000357768,,response,,,,100,,,,,,,Space,keypress(Space),,,,,,,,"-- --- ---- --- ------ ----- ------- ---- -- --- ------- --<br>------- ---------- ------ -- 1727, -- ----- -- ---- ------<br>--- ----- --- --- ------ -------- ----- --- ------ ----- --<br>----- ----- ---------- --- --- ------ ------ ---- -- ------<br>------- --- ------ ----- --- ---- ------- -- ---- --- --<br>------- ------",179286.60000002384,179281.40000003576,178693.694,178708.69999998808,178710.36,179293.67,,16,"1727,"
screen,html.Screen,2_1_1_1_17,2022-05-12T17:44:45.281Z,,,,,,,,,,,,,,,,,54,,,,,,,,,,,,,,464.3299999999872,,response,,,,100,,,,,,,Space,keypress(Space),,,,,,,,-- --- ---- --- ------ ----- ------- ---- -- --- ------- --<br>------- ---------- ------ -- ----- in ----- -- ---- ------<br>--- ----- --- --- ------ -------- ----- --- ------ ----- --<br>----- ----- ---------- --- --- ------ ------ ---- -- ------<br>------- --- ------ ----- --- ---- ------- -- ---- --- --<br>------- ------,179763.80000001192,179758,179277.004,179286.80000001192,179293.67,179777.751,,17,in
screen,html.Screen,2_1_1_1_18,2022-05-12T17:44:45.697Z,,,,,,,,,,,,,,,,,54,,,,,,,,,,,,,,397.04900001193164,,response,,,,100,,,,,,,Space,keypress(Space),,,,,,,,-- --- ---- --- ------ ----- ------- ---- -- --- ------- --<br>------- ---------- ------ -- ----- -- order -- ---- ------<br>--- ----- --- --- ------ -------- ----- --- ------ ----- --<br>----- ----- ---------- --- --- ------ ------ ---- -- ------<br>------- --- ------ ----- --- ---- ------- -- ---- --- --<br>------- ------,180180.10000002384,180174.80000001192,179761.085,179764.19999998808,179777.751,180194.401,,18,order
screen,html.Screen,2_1_1_1_19,2022-05-12T17:44:46.062Z,,,,,,,,,,,,,,,,,54,,,,,,,,,,,,,,345.4990000357502,,response,,,,100,,,,,,,Space,keypress(Space),,,,,,,,-- --- ---- --- ------ ----- ------- ---- -- --- ------- --<br>------- ---------- ------ -- ----- -- ----- to ---- ------<br>--- ----- --- --- ------ -------- ----- --- ------ ----- --<br>----- ----- ---------- --- --- ------ ------ ---- -- ------<br>------- --- ------ ----- --- ---- ------- -- ---- --- --<br>------- ------,180545.19999998808,180539.90000003576,180177.735,180180.30000001192,180194.401,180561.053,,19,to
screen,html.Screen,2_1_1_1_20,2022-05-12T17:44:46.443Z,,,,,,,,,,,,,,,,,54,,,,,,,,,,,,,,359.0470000238274,,response,,,,100,,,,,,,Space,keypress(Space),,,,,,,,-- --- ---- --- ------ ----- ------- ---- -- --- ------- --<br>------- ---------- ------ -- ----- -- ----- -- save ------<br>--- ----- --- --- ------ -------- ----- --- ------ ----- --<br>----- ----- ---------- --- --- ------ ------ ---- -- ------<br>------- --- ------ ----- --- ---- ------- -- ---- --- --<br>------- ------,180925.5,180920.10000002384,180544.387,180545.40000003576,180561.053,180927.705,,20,save
screen,html.Screen,2_1_1_1_21,2022-05-12T17:44:46.822Z,,,,,,,,,,,,,,,,,54,,,,,,,,,,,,,,371.89500002385466,,response,,,,100,,,,,,,Space,keypress(Space),,,,,,,,"-- --- ---- --- ------ ----- ------- ---- -- --- ------- --<br>------- ---------- ------ -- ----- -- ----- -- ---- money,<br>--- ----- --- --- ------ -------- ----- --- ------ ----- --<br>----- ----- ---------- --- --- ------ ------ ---- -- ------<br>------- --- ------ ----- --- ---- ------- -- ---- --- --<br>------- ------",181305,181299.60000002384,180911.039,180925.69999998808,180927.705,181311.023,,21,"money,"
screen,html.Screen,2_1_1_1_22,2022-05-12T17:44:47.316Z,,,,,,,,,,,,,,,,,54,,,,,,,,,,,,,,481.8770000357763,,response,,,,100,,,,,,,Space,keypress(Space),,,,,,,,-- --- ---- --- ------ ----- ------- ---- -- --- ------- --<br>------- ---------- ------ -- ----- -- ----- -- ---- ------<br>the ----- --- --- ------ -------- ----- --- ------ ----- --<br>----- ----- ---------- --- --- ------ ------ ---- -- ------<br>------- --- ------ ----- --- ---- ------- -- ---- --- --<br>------- ------,181798.40000003576,181792.90000003576,181294.357,181305.19999998808,181311.023,181811.003,,22,the
screen,html.Screen,2_1_1_1_23,2022-05-12T17:44:47.781Z,,,,,,,,,,,,,,,,,54,,,,,,,,,,,,,,447.8970000357658,,response,,,,100,,,,,,,Space,keypress(Space),,,,,,,,-- --- ---- --- ------ ----- ------- ---- -- --- ------- --<br>------- ---------- ------ -- ----- -- ----- -- ---- ------<br>--- state --- --- ------ -------- ----- --- ------ ----- --<br>----- ----- ---------- --- --- ------ ------ ---- -- ------<br>------- --- ------ ----- --- ---- ------- -- ---- --- --<br>------- ------,182264.10000002384,182258.90000003576,181794.337,181798.60000002384,181811.003,182277.651,,23,state
screen,html.Screen,2_1_1_1_24,2022-05-12T17:44:48.190Z,,,,,,,,,,,,,,,,,54,,,,,,,,,,,,,,390.14900001190836,,response,,,,100,,,,,,,Space,keypress(Space),,,,,,,,-- --- ---- --- ------ ----- ------- ---- -- --- ------- --<br>------- ---------- ------ -- ----- -- ----- -- ---- ------<br>--- ----- cut --- ------ -------- ----- --- ------ ----- --<br>----- ----- ---------- --- --- ------ ------ ---- -- ------<br>------- --- ------ ----- --- ---- ------- -- ---- --- --<br>------- ------,182673.10000002384,182667.80000001192,182260.985,182264.40000003576,182277.651,182677.635,,24,cut
screen,html.Screen,2_1_1_1_25,2022-05-12T17:44:48.636Z,,,,,,,,,,,,,,,,,54,,,,,,,,,,,,,,435.96500002383254,,response,,,,100,,,,,,,Space,keypress(Space),,,,,,,,-- --- ---- --- ------ ----- ------- ---- -- --- ------- --<br>------- ---------- ------ -- ----- -- ----- -- ---- ------<br>--- ----- --- the ------ -------- ----- --- ------ ----- --<br>----- ----- ---------- --- --- ------ ------ ---- -- ------<br>------- --- ------ ----- --- ---- ------- -- ---- --- --<br>------- ------,183118.69999998808,183113.60000002384,182660.969,182673.30000001192,182677.635,183127.617,,25,the
screen,html.Screen,2_1_1_1_26,2022-05-12T17:44:49.168Z,,,,,,,,,,,,,,,,,54,,,,,,,,,,,,,,518.1830000119226,,response,,,,100,,,,,,,Space,keypress(Space),,,,,,,,-- --- ---- --- ------ ----- ------- ---- -- --- ------- --<br>------- ---------- ------ -- ----- -- ----- -- ---- ------<br>--- ----- --- --- bonds' -------- ----- --- ------ ----- --<br>----- ----- ---------- --- --- ------ ------ ---- -- ------<br>------- --- ------ ----- --- ---- ------- -- ---- --- --<br>------- ------,183651.10000002384,183645.80000001192,183110.951,183119,183127.617,183660.929,,26,bonds'
screen,html.Screen,2_1_1_1_27,2022-05-12T17:44:49.674Z,,,,,,,,,,,,,,,,,54,,,,,,,,,,,,,,490.97100003575906,,response,,,,100,,,,,,,Space,keypress(Space),,,,,,,,-- --- ---- --- ------ ----- ------- ---- -- --- ------- --<br>------- ---------- ------ -- ----- -- ----- -- ---- ------<br>--- ----- --- --- ------ interest ----- --- ------ ----- --<br>----- ----- ---------- --- --- ------ ------ ---- -- ------<br>------- --- ------ ----- --- ---- ------- -- ---- --- --<br>------- ------,184157.30000001192,184151.90000003576,183644.263,183651.30000001192,183660.929,184160.909,,27,interest
screen,html.Screen,2_1_1_1_28,2022-05-12T17:44:50.294Z,,,,,,,,,,,,,,,,,54,,,,,,,,,,,,,,610.2909999880649,,response,,,,100,,,,,,,Space,keypress(Space),,,,,,,,-- --- ---- --- ------ ----- ------- ---- -- --- ------- --<br>------- ---------- ------ -- ----- -- ----- -- ---- ------<br>--- ----- --- --- ------ -------- rate. --- ------ ----- --<br>----- ----- ---------- --- --- ------ ------ ---- -- ------<br>------- --- ------ ----- --- ---- ------- -- ---- --- --<br>------- ------,184776.80000001192,184771.19999998808,184144.243,184157.60000002384,184160.909,184777.551,,28,rate.
screen,html.Screen,2_1_1_1_29,2022-05-12T17:44:50.855Z,,,,,,,,,,,,,,,,,54,,,,,,,,,,,,,,554.5490000238351,,response,,,,100,,,,,,,Space,keypress(Space),,,,,,,,-- --- ---- --- ------ ----- ------- ---- -- --- ------- --<br>------- ---------- ------ -- ----- -- ----- -- ---- ------<br>--- ----- --- --- ------ -------- ----- The ------ ----- --<br>----- ----- ---------- --- --- ------ ------ ---- -- ------<br>------- --- ------ ----- --- ---- ------- -- ---- --- --<br>------- ------,185337.69999998808,185332.10000002384,184760.885,184777,184777.551,185344.195,,29,The
screen,html.Screen,2_1_1_1_30,2022-05-12T17:44:51.352Z,,,,,,,,,,,,,,,,,54,,,,,,,,,,,,,,485.5049999880721,,response,,,,100,,,,,,,Space,keypress(Space),,,,,,,,-- --- ---- --- ------ ----- ------- ---- -- --- ------- --<br>------- ---------- ------ -- ----- -- ----- -- ---- ------<br>--- ----- --- --- ------ -------- ----- --- market ----- --<br>----- ----- ---------- --- --- ------ ------ ---- -- ------<br>------- --- ------ ----- --- ---- ------- -- ---- --- --<br>------- ------,185834.60000002384,185829.69999998808,185327.529,185337.90000003576,185344.195,185844.175,,30,market
screen,html.Screen,2_1_1_1_31,2022-05-12T17:44:51.756Z,,,,,,,,,,,,,,,,,54,,,,,,,,,,,,,,389.4250000238535,,response,,,,100,,,,,,,Space,keypress(Space),,,,,,,,-- --- ---- --- ------ ----- ------- ---- -- --- ------- --<br>------- ---------- ------ -- ----- -- ----- -- ---- ------<br>--- ----- --- --- ------ -------- ----- --- ------ value --<br>----- ----- ---------- --- --- ------ ------ ---- -- ------<br>------- --- ------ ----- --- ---- ------- -- ---- --- --<br>------- ------,186238.80000001192,186233.60000002384,185827.509,185834.69999998808,185844.175,186244.159,,31,value
screen,html.Screen,2_1_1_1_32,2022-05-12T17:44:52.238Z,,,,,,,,,,,,,,,,,54,,,,,,,,,,,,,,471.7410000357486,,response,,,,100,,,,,,,Space,keypress(Space),,,,,,,,-- --- ---- --- ------ ----- ------- ---- -- --- ------- --<br>------- ---------- ------ -- ----- -- ----- -- ---- ------<br>--- ----- --- --- ------ -------- ----- --- ------ ----- of<br>----- ----- ---------- --- --- ------ ------ ---- -- ------<br>------- --- ------ ----- --- ---- ------- -- ---- --- --<br>------- ------,186721,186715.90000003576,186227.493,186239,186244.159,186727.473,,32,of
screen,html.Screen,2_1_1_1_33,2022-05-12T17:44:52.655Z,,,,,,,,,,,,,,,,,54,,,,,,,,,,,,,,405.42700003576465,,response,,,,100,,,,,,,Space,keypress(Space),,,,,,,,-- --- ---- --- ------ ----- ------- ---- -- --- ------- --<br>------- ---------- ------ -- ----- -- ----- -- ---- ------<br>--- ----- --- --- ------ -------- ----- --- ------ ----- --<br>these ----- ---------- --- --- ------ ------ ---- -- ------<br>------- --- ------ ----- --- ---- ------- -- ---- --- --<br>------- ------,187138.19999998808,187132.90000003576,186710.807,186721.10000002384,186727.473,187144.123,,33,these
screen,html.Screen,2_1_1_1_34,2022-05-12T17:44:53.064Z,,,,,,,,,,,,,,,,,54,,,,,,,,,,,,,,396.97700002384954,,response,,,,100,,,,,,,Space,keypress(Space),,,,,,,,-- --- ---- --- ------ ----- ------- ---- -- --- ------- --<br>------- ---------- ------ -- ----- -- ----- -- ---- ------<br>--- ----- --- --- ------ -------- ----- --- ------ ----- --<br>----- bonds ---------- --- --- ------ ------ ---- -- ------<br>------- --- ------ ----- --- ---- ------- -- ---- --- --<br>------- ------,187546.69999998808,187541.10000002384,187127.457,187138.30000001192,187144.123,187560.773,,34,bonds
screen,html.Screen,2_1_1_1_35,2022-05-12T17:44:53.573Z,,,,,,,,,,,,,,,,,54,,,,,,,,,,,,,,490.2270000000135,,response,,,,100,,,,,,,Space,keypress(Space),,,,,,,,"-- --- ---- --- ------ ----- ------- ---- -- --- ------- --<br>------- ---------- ------ -- ----- -- ----- -- ---- ------<br>--- ----- --- --- ------ -------- ----- --- ------ ----- --<br>----- ----- plummeted, --- --- ------ ------ ---- -- ------<br>------- --- ------ ----- --- ---- ------- -- ---- --- --<br>------- ------",188056,188051,187544.107,187546.90000003576,187560.773,188060.753,,35,"plummeted,"
screen,html.Screen,2_1_1_1_36,2022-05-12T17:44:54.158Z,,,,,,,,,,,,,,,,,54,,,,,,,,,,,,,,575.3470000238449,,response,,,,100,,,,,,,Space,keypress(Space),,,,,,,,-- --- ---- --- ------ ----- ------- ---- -- --- ------- --<br>------- ---------- ------ -- ----- -- ----- -- ---- ------<br>--- ----- --- --- ------ -------- ----- --- ------ ----- --<br>----- ----- ---------- and --- ------ ------ ---- -- ------<br>------- --- ------ ----- --- ---- ------- -- ---- --- --<br>------- ------,188641.40000003576,188636.10000002384,188044.087,188056.30000001192,188060.753,188644.063,,36,and
screen,html.Screen,2_1_1_1_37,2022-05-12T17:44:54.656Z,,,,,,,,,,,,,,,,,54,,,,,,,,,,,,,,489.43700000000536,,response,,,,100,,,,,,,Space,keypress(Space),,,,,,,,-- --- ---- --- ------ ----- ------- ---- -- --- ------- --<br>------- ---------- ------ -- ----- -- ----- -- ---- ------<br>--- ----- --- --- ------ -------- ----- --- ------ ----- --<br>----- ----- ---------- --- the ------ ------ ---- -- ------<br>------- --- ------ ----- --- ---- ------- -- ---- --- --<br>------- ------,189139,189133.5,188627.397,188641.60000002384,188644.063,189144.043,,37,the
screen,html.Screen,2_1_1_1_38,2022-05-12T17:44:55.166Z,,,,,,,,,,,,,,,,,54,,,,,,,,,,,,,,499.65699998807395,,response,,,,100,,,,,,,Space,keypress(Space),,,,,,,,-- --- ---- --- ------ ----- ------- ---- -- --- ------- --<br>------- ---------- ------ -- ----- -- ----- -- ---- ------<br>--- ----- --- --- ------ -------- ----- --- ------ ----- --<br>----- ----- ---------- --- --- market ------ ---- -- ------<br>------- --- ------ ----- --- ---- ------- -- ---- --- --<br>------- ------,189649,189643.69999998808,189127.377,189139.19999998808,189144.043,189660.689,,38,market
screen,html.Screen,2_1_1_1_39,2022-05-12T17:44:55.604Z,,,,,,,,,,,,,,,,,54,,,,,,,,,,,,,,421.6110000119079,,response,,,,100,,,,,,,Space,keypress(Space),,,,,,,,-- --- ---- --- ------ ----- ------- ---- -- --- ------- --<br>------- ---------- ------ -- ----- -- ----- -- ---- ------<br>--- ----- --- --- ------ -------- ----- --- ------ ----- --<br>----- ----- ---------- --- --- ------ became ---- -- ------<br>------- --- ------ ----- --- ---- ------- -- ---- --- --<br>------- ------,190086.90000003576,190082.30000001192,189644.023,189649.19999998808,189660.689,190094.813,,39,became
screen,html.Screen,2_1_1_1_40,2022-05-12T17:44:56.004Z,,,,,,,,,,,,,,,,,54,,,,,,,,,,,,,,389.08700003576814,,response,,,,100,,,,,,,Space,keypress(Space),,,,,,,,-- --- ---- --- ------ ----- ------- ---- -- --- ------- --<br>------- ---------- ------ -- ----- -- ----- -- ---- ------<br>--- ----- --- --- ------ -------- ----- --- ------ ----- --<br>----- ----- ---------- --- --- ------ ------ wary -- ------<br>------- --- ------ ----- --- ---- ------- -- ---- --- --<br>------- ------,190486.90000003576,190483.90000003576,190078.147,190087.10000002384,190094.813,190494.797,,40,wary
screen,html.Screen,2_1_1_1_41,2022-05-12T17:44:56.371Z,,,,,,,,,,,,,,,,,54,,,,,,,,,,,,,,354.3030000238505,,response,,,,100,,,,,,,Space,keypress(Space),,,,,,,,-- --- ---- --- ------ ----- ------- ---- -- --- ------- --<br>------- ---------- ------ -- ----- -- ----- -- ---- ------<br>--- ----- --- --- ------ -------- ----- --- ------ ----- --<br>----- ----- ---------- --- --- ------ ------ ---- of ------<br>------- --- ------ ----- --- ---- ------- -- ---- --- --<br>------- ------,190854.40000003576,190849.10000002384,190478.131,190486.90000003576,190494.797,190861.449,,41,of
screen,html.Screen,2_1_1_1_42,2022-05-12T17:44:56.789Z,,,,,,,,,,,,,,,,,54,,,,,,,,,,,,,,405.3510000119277,,response,,,,100,,,,,,,Space,keypress(Space),,,,,,,,-- --- ---- --- ------ ----- ------- ---- -- --- ------- --<br>------- ---------- ------ -- ----- -- ----- -- ---- ------<br>--- ----- --- --- ------ -------- ----- --- ------ ----- --<br>----- ----- ---------- --- --- ------ ------ ---- -- French<br>------- --- ------ ----- --- ---- ------- -- ---- --- --<br>------- ------,191272,191266.80000001192,190844.783,190854.60000002384,190861.449,191278.099,,42,French
screen,html.Screen,2_1_1_1_43,2022-05-12T17:44:57.245Z,,,,,,,,,,,,,,,,,54,,,,,,,,,,,,,,444.60099998809164,,response,,,,100,,,,,,,Space,keypress(Space),,,,,,,,-- --- ---- --- ------ ----- ------- ---- -- --- ------- --<br>------- ---------- ------ -- ----- -- ----- -- ---- ------<br>--- ----- --- --- ------ -------- ----- --- ------ ----- --<br>----- ----- ---------- --- --- ------ ------ ---- -- ------<br>credit. --- ------ ----- --- ---- ------- -- ---- --- --<br>------- ------,191727.80000001192,191722.69999998808,191261.433,191272.30000001192,191278.099,191744.747,,43,credit.
screen,html.Screen,2_1_1_1_44,2022-05-12T17:44:58.514Z,,,,,,,,,,,,,,,,,54,,,,,,,,,,,,,,1247.053000011918,,response,,,,100,,,,,,,Space,keypress(Space),,,,,,,,-- --- ---- --- ------ ----- ------- ---- -- --- ------- --<br>------- ---------- ------ -- ----- -- ----- -- ---- ------<br>--- ----- --- --- ------ -------- ----- --- ------ ----- --<br>----- ----- ---------- --- --- ------ ------ ---- -- ------<br>------- The ------ ----- --- ---- ------- -- ---- --- --<br>------- ------,192997.19999998808,192991.80000001192,191728.081,191728.10000002384,191744.747,193011.363,,44,The
screen,html.Screen,2_1_1_1_45,2022-05-12T17:44:59.082Z,,,,,,,,,,,,,,,,,54,,,,,,,,,,,,,,548.7370000238298,,response,,,,100,,,,,,,Space,keypress(Space),,,,,,,,-- --- ---- --- ------ ----- ------- ---- -- --- ------- --<br>------- ---------- ------ -- ----- -- ----- -- ---- ------<br>--- ----- --- --- ------ -------- ----- --- ------ ----- --<br>----- ----- ---------- --- --- ------ ------ ---- -- ------<br>------- --- French ----- --- ---- ------- -- ---- --- --<br>------- ------,193565.40000003576,193560.10000002384,192994.697,192997.5,193011.363,193578.007,,45,French
screen,html.Screen,2_1_1_1_46,2022-05-12T17:44:59.551Z,,,,,,,,,,,,,,,,,54,,,,,,,,,,,,,,450.69299998806673,,response,,,,100,,,,,,,Space,keypress(Space),,,,,,,,-- --- ---- --- ------ ----- ------- ---- -- --- ------- --<br>------- ---------- ------ -- ----- -- ----- -- ---- ------<br>--- ----- --- --- ------ -------- ----- --- ------ ----- --<br>----- ----- ---------- --- --- ------ ------ ---- -- ------<br>------- --- ------ state --- ---- ------- -- ---- --- --<br>------- ------,194033.90000003576,194028.69999998808,193561.341,193565.60000002384,193578.007,194044.655,,46,state
screen,html.Screen,2_1_1_1_47,2022-05-12T17:45:00.139Z,,,,,,,,,,,,,,,,,54,,,,,,,,,,,,,,572.1450000119221,,response,,,,100,,,,,,,Space,keypress(Space),,,,,,,,-- --- ---- --- ------ ----- ------- ---- -- --- ------- --<br>------- ---------- ------ -- ----- -- ----- -- ---- ------<br>--- ----- --- --- ------ -------- ----- --- ------ ----- --<br>----- ----- ---------- --- --- ------ ------ ---- -- ------<br>------- --- ------ ----- was ---- ------- -- ---- --- --<br>------- ------,194622.10000002384,194616.80000001192,194027.989,194034.19999998808,194044.655,194627.965,,47,was
screen,html.Screen,2_1_1_1_48,2022-05-12T17:45:00.656Z,,,,,,,,,,,,,,,,,54,,,,,,,,,,,,,,505.9350000357663,,response,,,,100,,,,,,,Space,keypress(Space),,,,,,,,-- --- ---- --- ------ ----- ------- ---- -- --- ------- --<br>------- ---------- ------ -- ----- -- ----- -- ---- ------<br>--- ----- --- --- ------ -------- ----- --- ------ ----- --<br>----- ----- ---------- --- --- ------ ------ ---- -- ------<br>------- --- ------ ----- --- left ------- -- ---- --- --<br>------- ------,195139.60000002384,195133.90000003576,194611.299,194622.30000001192,194627.965,195144.611,,48,left
screen,html.Screen,2_1_1_1_49,2022-05-12T17:45:01.157Z,,,,,,,,,,,,,,,,,54,,,,,,,,,,,,,,490.3889999999956,,response,,,,100,,,,,,,Space,keypress(Space),,,,,,,,-- --- ---- --- ------ ----- ------- ---- -- --- ------- --<br>------- ---------- ------ -- ----- -- ----- -- ---- ------<br>--- ----- --- --- ------ -------- ----- --- ------ ----- --<br>----- ----- ---------- --- --- ------ ------ ---- -- ------<br>------- --- ------ ----- --- ---- without -- ---- --- --<br>------- ------,195640.60000002384,195635,195127.945,195139.80000001192,195144.611,195644.591,,49,without
screen,html.Screen,2_1_1_1_50,2022-05-12T17:45:01.530Z,,,,,,,,,,,,,,,,,54,,,,,,,,,,,,,,363.309000035777,,response,,,,100,,,,,,,Space,keypress(Space),,,,,,,,-- --- ---- --- ------ ----- ------- ---- -- --- ------- --<br>------- ---------- ------ -- ----- -- ----- -- ---- ------<br>--- ----- --- --- ------ -------- ----- --- ------ ----- --<br>----- ----- ---------- --- --- ------ ------ ---- -- ------<br>------- --- ------ ----- --- ---- ------- an ---- --- --<br>------- ------,196013.40000003576,196007.90000003576,195627.925,195640.80000001192,195644.591,196027.909,,50,an
screen,html.Screen,2_1_1_1_51,2022-05-12T17:45:01.933Z,,,,,,,,,,,,,,,,,54,,,,,,,,,,,,,,384.29099998806487,,response,,,,100,,,,,,,Space,keypress(Space),,,,,,,,-- --- ---- --- ------ ----- ------- ---- -- --- ------- --<br>------- ---------- ------ -- ----- -- ----- -- ---- ------<br>--- ----- --- --- ------ -------- ----- --- ------ ----- --<br>----- ----- ---------- --- --- ------ ------ ---- -- ------<br>------- --- ------ ----- --- ---- ------- -- easy --- --<br>------- ------,196416.80000001192,196412.19999998808,196011.243,196015,196027.909,196427.893,,51,easy
screen,html.Screen,2_1_1_1_52,2022-05-12T17:45:02.334Z,,,,,,,,,,,,,,,,,54,,,,,,,,,,,,,,384.2070000238309,,response,,,,100,,,,,,,Space,keypress(Space),,,,,,,,-- --- ---- --- ------ ----- ------- ---- -- --- ------- --<br>------- ---------- ------ -- ----- -- ----- -- ---- ------<br>--- ----- --- --- ------ -------- ----- --- ------ ----- --<br>----- ----- ---------- --- --- ------ ------ ---- -- ------<br>------- --- ------ ----- --- ---- ------- -- ---- way --<br>------- ------,196817.40000003576,196812.10000002384,196411.227,196416.90000003576,196427.893,196827.877,,52,way
screen,html.Screen,2_1_1_1_53,2022-05-12T17:45:02.797Z,,,,,,,,,,,,,,,,,54,,,,,,,,,,,,,,448.0230000357551,,response,,,,100,,,,,,,Space,keypress(Space),,,,,,,,-- --- ---- --- ------ ----- ------- ---- -- --- ------- --<br>------- ---------- ------ -- ----- -- ----- -- ---- ------<br>--- ----- --- --- ------ -------- ----- --- ------ ----- --<br>----- ----- ---------- --- --- ------ ------ ---- -- ------<br>------- --- ------ ----- --- ---- ------- -- ---- --- of<br>------- ------,197280.5,197275.90000003576,196811.211,196817.60000002384,196827.877,197294.525,,53,of
screen,html.Screen,2_1_1_1_54,2022-05-12T17:45:03.184Z,,,,,,,,,,,,,,,,,54,,,,,,,,,,,,,,367.4750000000058,,response,,,,100,,,,,,,Space,keypress(Space),,,,,,,,-- --- ---- --- ------ ----- ------- ---- -- --- ------- --<br>------- ---------- ------ -- ----- -- ----- -- ---- ------<br>--- ----- --- --- ------ -------- ----- --- ------ ----- --<br>----- ----- ---------- --- --- ------ ------ ---- -- ------<br>------- --- ------ ----- --- ---- ------- -- ---- --- --<br>raising ------,197667.5,197662,197277.859,197280.60000002384,197294.525,197677.843,,54,raising
screen,html.Screen,2_1_1_1_55,2022-05-12T17:45:03.665Z,,,,,,,,,,,,,,,,,54,,,,,,,,,,,,,,465.1570000000065,,response,,,,100,,,,,,,Space,keypress(Space),,,,,,,,-- --- ---- --- ------ ----- ------- ---- -- --- ------- --<br>------- ---------- ------ -- ----- -- ----- -- ---- ------<br>--- ----- --- --- ------ -------- ----- --- ------ ----- --<br>----- ----- ---------- --- --- ------ ------ ---- -- ------<br>------- --- ------ ----- --- ---- ------- -- ---- --- --<br>------- money.,198148.10000002384,198143,197661.177,197667.80000001192,197677.843,198161.157,,55,money.
Item 100,flow.Loop,2_1_1_1,2022-05-12T17:45:03.665Z,,,,,,,,,,,,,,,,,,,,,,,,,,,,,,,34266.263000000006,,completion,,,,,H,,,,,,,,,,,silence,,,,,198148.60000002384,198143,163860.071,163862.69999998808,163876.737,198161.157,,,
Question 1,html.Screen,2_1_1_2,2022-05-12T17:45:06.119Z,,,,,,,,,,,,,,,,,,,,,,,,,,,,true,TRUE,,2439.0429999880726,,response,,,,100,H,,,,,,TRUE,click #choice-1,,,,silence,,,,,200602.30000001192,200600.19999998808,198144.491,198148.69999998808,198161.157,200611.872,,,
Question 2,html.Screen,2_1_1_3,2022-05-12T17:45:07.903Z,,,,,,,,,,,,,,,,,,,,,,,,,,,,true,FALSE,,1771.928000011918,,response,,,,100,H,,,,,,FALSE,click #choice-2,,,,silence,,,,,202386.60000002384,202383.80000001192,200595.206,200602.5,200611.872,202395.134,,,
Item 100,flow.Sequence,2_1_1,2022-05-12T17:45:07.903Z,,,,,,,,,,,,,,,,,,,,,,,,,,,,,,,48507.401000011916,,completion,,,,,,,,,,,,,,,,,,,,,202386.80000001192,202383.80000001192,153859.733,153867.30000001192,153876.399,202395.134,,,
End of Practice,html.Page,2_1_2,2022-05-12T17:45:10.653Z,,,,,,,,,,,,,,,,,,,,,,,,,,,,,,,2740.766000035772,,form submission,,,,,,,,,,,,,,,,,,,,,205136.60000002384,205135.90000003576,202378.468,202386.90000003576,202395.134,205145.024,,,
Practice,flow.Sequence,2_1,2022-05-12T17:45:10.653Z,,,,,,,,,,,,,,,,,,,,,,,,,,,,,,,105862.92500003576,,completion,,,,,,,,,,,,,,,,,,,,,205136.80000001192,205135.90000003576,99256.309,99270.10000002384,99272.975,205145.024,,,
Trap_instruction,html.Page,2_2_0,2022-05-12T17:45:13.136Z,,,,,,,,,,,,,,,,,,,,,,,,,,,,,,,2474.276000011916,,form submission,,,,,,,,,,,,,,,,,,,,,207619.80000001192,207619.30000001192,205128.358,205137,205145.024,207628.258,,,
trap_trial,html.Screen,2_2_1,2022-05-12T17:45:16.869Z,,,,,,,,,,,,,,,,,,,,,,,,,,,,true,1,,3722.4419999880774,,response,,,,,,,,,,,1,click #choice-1,,,,,,,,,211352.90000003576,211350.69999998808,207611.592,207620,207628.258,211378.108,,,
end of trap trial,html.Page,2_2_2,2022-05-12T17:45:18.237Z,,,,,,,,,,,,,,,,,,,,,,,,,,,,,,,1342.3919999999925,,form submission,,,,,,,,,,,,,,,,,,,,,212720.90000003576,212720.5,211361.442,211353,211378.108,212728.904,,,
Trap 1,flow.Sequence,2_2,2022-05-12T17:45:18.237Z,,,,,,,,,,,,,,,,,,,,,,,,,,,,,,,7575.475999999995,,completion,,,,,,,,,,,,,,,,,,,,,212721.10000002384,212720.5,205128.358,205136.90000003576,205145.024,212728.904,,,
Standby,html.Page,2_3_0,2022-05-12T17:45:26.231Z,,,,,,,,,,,,,,,,,,,,,,,,,,,,,,,7999.679999999993,,timeout,,,,,,,,,,,,,,,,,,,,,220715.30000001192,220711.918,212712.238,212721.19999998808,212728.904,220728.584,,,
Holding screen,html.Screen,2_3_1_0_0,2022-05-12T17:45:33.230Z,,,,,,,,,,,,,,,,,,,,,,,,,,,,,,,7000.495999999985,,timeout,,,,,,,,,,,,,,,,,,,,,227714.69999998808,227712.414,220711.918,220715.69999998808,220728.584,227729.08,,,
screen,html.Screen,2_3_1_0_1_0,2022-05-12T17:45:34.509Z,,,,,,,,,,,,,,,,,40,,,,,,,,,,,,,,1259.6199999880919,,response,,,,9,H,,,,,,Space,keypress(Space),,,,speech,,,,Police -- ------- ---- ---- ---- - -------- ----- --- --<br>----- ----- ------ -- ---- -- --- - ---- -- - ----- -----<br>------ ---- ------ ---- - -------- ------- -- --- --------<br>-------- ----------- ---- ------ ---- ------ ---- --- ---<br>-------- --- -----,228994.19999998808,228988.69999998808,227712.414,227715.10000002384,227729.08,228995.696,,0,Police
screen,html.Screen,2_3_1_0_1_1,2022-05-12T17:45:35.207Z,,,,,,,,,,,,,,,,,40,,,,,,,,,,,,,,692.4040000238456,,response,,,,9,H,,,,,,Space,keypress(Space),,,,speech,,,,------ in ------- ---- ---- ---- - -------- ----- --- --<br>----- ----- ------ -- ---- -- --- - ---- -- - ----- -----<br>------ ---- ------ ---- - -------- ------- -- --- --------<br>-------- ----------- ---- ------ ---- ------ ---- --- ---<br>-------- --- -----,229691.60000002384,229688.10000002384,228979.03,228994.30000001192,228995.696,229695.668,,1,in
screen,html.Screen,2_3_1_0_1_2,2022-05-12T17:45:35.708Z,,,,,,,,,,,,,,,,,40,,,,,,,,,,,,,,492.03199998807395,,response,,,,9,H,,,,,,Space,keypress(Space),,,,speech,,,,------ -- Georgia ---- ---- ---- - -------- ----- --- --<br>----- ----- ------ -- ---- -- --- - ---- -- - ----- -----<br>------ ---- ------ ---- - -------- ------- -- --- --------<br>-------- ----------- ---- ------ ---- ------ ---- --- ---<br>-------- --- -----,230193.19999998808,230187.69999998808,229679.002,229691.60000002384,229695.668,230195.648,,2,Georgia
screen,html.Screen,2_3_1_0_1_3,2022-05-12T17:45:36.438Z,,,,,,,,,,,,,,,,,40,,,,,,,,,,,,,,721.8520000000135,,response,,,,9,H,,,,,,Space,keypress(Space),,,,speech,,,,------ -- ------- have ---- ---- - -------- ----- --- --<br>----- ----- ------ -- ---- -- --- - ---- -- - ----- -----<br>------ ---- ------ ---- - -------- ------- -- --- --------<br>-------- ----------- ---- ------ ---- ------ ---- --- ---<br>-------- --- -----,230923.10000002384,230917.5,230178.982,230193.40000003576,230195.648,230928.952,,3,have
screen,html.Screen,2_3_1_0_1_4,2022-05-12T17:45:37.302Z,,,,,,,,,,,,,,,,,40,,,,,,,,,,,,,,852.8480000119307,,response,,,,9,H,,,,,,Space,keypress(Space),,,,speech,,,,------ -- ------- ---- shut ---- - -------- ----- --- --<br>----- ----- ------ -- ---- -- --- - ---- -- - ----- -----<br>------ ---- ------ ---- - -------- ------- -- --- --------<br>-------- ----------- ---- ------ ---- ------ ---- --- ---<br>-------- --- -----,231787.40000003576,231781.80000001192,230912.286,230923.30000001192,230928.952,231795.584,,4,shut
screen,html.Screen,2_3_1_0_1_5,2022-05-12T17:45:38.491Z,,,,,,,,,,,,,,,,,40,,,,,,,,,,,,,,1174.9159999999974,,response,,,,9,H,,,,,,Space,keypress(Space),,,,speech,,,,------ -- ------- ---- ---- down - -------- ----- --- --<br>----- ----- ------ -- ---- -- --- - ---- -- - ----- -----<br>------ ---- ------ ---- - -------- ------- -- --- --------<br>-------- ----------- ---- ------ ---- ------ ---- --- ---<br>-------- --- -----,232975.90000003576,232970.5,231778.918,231787.5,231795.584,232978.87,,5,down
screen,html.Screen,2_3_1_0_1_6,2022-05-12T17:45:39.099Z,,,,,,,,,,,,,,,,,40,,,,,,,,,,,,,,599.9300000119256,,response,,,,9,H,,,,,,Space,keypress(Space),,,,speech,,,,------ -- ------- ---- ---- ---- a -------- ----- --- --<br>----- ----- ------ -- ---- -- --- - ---- -- - ----- -----<br>------ ---- ------ ---- - -------- ------- -- --- --------<br>-------- ----------- ---- ------ ---- ------ ---- --- ---<br>-------- --- -----,233584.30000001192,233578.80000001192,232962.204,232976.10000002384,232978.87,233596.35,,6,a
screen,html.Screen,2_3_1_0_1_7,2022-05-12T17:45:39.574Z,,,,,,,,,,,,,,,,,40,,,,,,,,,,,,,,457.25000002383604,,response,,,,9,H,,,,,,Space,keypress(Space),,,,speech,,,,------ -- ------- ---- ---- ---- - lemonade ----- --- --<br>----- ----- ------ -- ---- -- --- - ---- -- - ----- -----<br>------ ---- ------ ---- - -------- ------- -- --- --------<br>-------- ----------- ---- ------ ---- ------ ---- --- ---<br>-------- --- -----,234058.69999998808,234053.60000002384,233579.684,233584.5,233596.35,234062.998,,7,lemonade
screen,html.Screen,2_3_1_0_1_8,2022-05-12T17:45:40.187Z,,,,,,,,,,,,,,,,,40,,,,,,,,,,,,,,603.7019999880868,,response,,,,9,H,,,,,,Space,keypress(Space),,,,speech,,,,------ -- ------- ---- ---- ---- - -------- stand --- --<br>----- ----- ------ -- ---- -- --- - ---- -- - ----- -----<br>------ ---- ------ ---- - -------- ------- -- --- --------<br>-------- ----------- ---- ------ ---- ------ ---- --- ---<br>-------- --- -----,234672.30000001192,234666.69999998808,234046.332,234058.90000003576,234062.998,234679.64,,8,stand
screen,html.Screen,2_3_1_0_1_9,2022-05-12T17:45:40.913Z,,,,,,,,,,,,,,,,,40,,,,,,,,,,,,,,713.0599999880651,,response,,,,9,H,,,,,,Space,keypress(Space),,,,speech,,,,------ -- ------- ---- ---- ---- - -------- ----- run --<br>----- ----- ------ -- ---- -- --- - ---- -- - ----- -----<br>------ ---- ------ ---- - -------- ------- -- --- --------<br>-------- ----------- ---- ------ ---- ------ ---- --- ---<br>-------- --- -----,235398.19999998808,235392.69999998808,234662.974,234672.60000002384,234679.64,235412.944,,9,run
screen,html.Screen,2_3_1_0_1_10,2022-05-12T17:45:41.407Z,,,,,,,,,,,,,,,,,40,,,,,,,,,,,,,,473.0560000000114,,response,,,,9,H,,,,,,Space,keypress(Space),,,,speech,,,,------ -- ------- ---- ---- ---- - -------- ----- --- by<br>----- ----- ------ -- ---- -- --- - ---- -- - ----- -----<br>------ ---- ------ ---- - -------- ------- -- --- --------<br>-------- ----------- ---- ------ ---- ------ ---- --- ---<br>-------- --- -----,235891.69999998808,235886,235396.278,235398.40000003576,235412.944,235896.258,,10,by
screen,html.Screen,2_3_1_0_1_11,2022-05-12T17:45:42.009Z,,,,,,,,,,,,,,,,,40,,,,,,,,,,,,,,592.5420000119193,,response,,,,9,H,,,,,,Space,keypress(Space),,,,speech,,,,------ -- ------- ---- ---- ---- - -------- ----- --- --<br>three ----- ------ -- ---- -- --- - ---- -- - ----- -----<br>------ ---- ------ ---- - -------- ------- -- --- --------<br>-------- ----------- ---- ------ ---- ------ ---- --- ---<br>-------- --- -----,236494.30000001192,236488.80000001192,235879.592,235892,235896.258,236496.234,,11,three
screen,html.Screen,2_3_1_0_1_12,2022-05-12T17:45:42.402Z,,,,,,,,,,,,,,,,,40,,,,,,,,,,,,,,386.66600003576605,,response,,,,9,H,,,,,,Space,keypress(Space),,,,speech,,,,------ -- ------- ---- ---- ---- - -------- ----- --- --<br>----- girls ------ -- ---- -- --- - ---- -- - ----- -----<br>------ ---- ------ ---- - -------- ------- -- --- --------<br>-------- ----------- ---- ------ ---- ------ ---- --- ---<br>-------- --- -----,236887.60000002384,236882.90000003576,236479.568,236494.5,236496.234,236896.218,,12,girls
screen,html.Screen,2_3_1_0_1_13,2022-05-12T17:45:42.791Z,,,,,,,,,,,,,,,,,40,,,,,,,,,,,,,,374.4819999880856,,response,,,,9,H,,,,,,Space,keypress(Space),,,,speech,,,,------ -- ------- ---- ---- ---- - -------- ----- --- --<br>----- ----- trying -- ---- -- --- - ---- -- - ----- -----<br>------ ---- ------ ---- - -------- ------- -- --- --------<br>-------- ----------- ---- ------ ---- ------ ---- --- ---<br>-------- --- -----,237276.10000002384,237270.69999998808,236879.552,236887.80000001192,236896.218,237279.536,,13,trying
screen,html.Screen,2_3_1_0_1_14,2022-05-12T17:45:43.183Z,,,,,,,,,,,,,,,,,40,,,,,,,,,,,,,,383.36400003577,,response,,,,9,H,,,,,,Space,keypress(Space),,,,speech,,,,------ -- ------- ---- ---- ---- - -------- ----- --- --<br>----- ----- ------ to ---- -- --- - ---- -- - ----- -----<br>------ ---- ------ ---- - -------- ------- -- --- --------<br>-------- ----------- ---- ------ ---- ------ ---- --- ---<br>-------- --- -----,237668.40000003576,237662.90000003576,237262.87,237276.40000003576,237279.536,237679.52,,14,to
screen,html.Screen,2_3_1_0_1_15,2022-05-12T17:45:43.546Z,,,,,,,,,,,,,,,,,40,,,,,,,,,,,,,,346.08000002385234,,response,,,,9,H,,,,,,Space,keypress(Space),,,,speech,,,,------ -- ------- ---- ---- ---- - -------- ----- --- --<br>----- ----- ------ -- save -- --- - ---- -- - ----- -----<br>------ ---- ------ ---- - -------- ------- -- --- --------<br>-------- ----------- ---- ------ ---- ------ ---- --- ---<br>-------- --- -----,238030.90000003576,238025.60000002384,237662.854,237668.60000002384,237679.52,238046.172,,15,save
screen,html.Screen,2_3_1_0_1_16,2022-05-12T17:45:43.901Z,,,,,,,,,,,,,,,,,40,,,,,,,,,,,,,,335.8280000000086,,response,,,,9,H,,,,,,Space,keypress(Space),,,,speech,,,,------ -- ------- ---- ---- ---- - -------- ----- --- --<br>----- ----- ------ -- ---- up --- - ---- -- - ----- -----<br>------ ---- ------ ---- - -------- ------- -- --- --------<br>-------- ----------- ---- ------ ---- ------ ---- --- ---<br>-------- --- -----,238385.90000003576,238382,238029.506,238031.10000002384,238046.172,238396.158,,16,up
screen,html.Screen,2_3_1_0_1_17,2022-05-12T17:45:44.258Z,,,,,,,,,,,,,,,,,40,,,,,,,,,,,,,,341.54199998808326,,response,,,,9,H,,,,,,Space,keypress(Space),,,,speech,,,,------ -- ------- ---- ---- ---- - -------- ----- --- --<br>----- ----- ------ -- ---- -- for - ---- -- - ----- -----<br>------ ---- ------ ---- - -------- ------- -- --- --------<br>-------- ----------- ---- ------ ---- ------ ---- --- ---<br>-------- --- -----,238743.30000001192,238737.69999998808,238379.492,238385.90000003576,238396.158,238746.144,,17,for
screen,html.Screen,2_3_1_0_1_18,2022-05-12T17:45:44.609Z,,,,,,,,,,,,,,,,,40,,,,,,,,,,,,,,341.4560000238416,,response,,,,9,H,,,,,,Space,keypress(Space),,,,speech,,,,------ -- ------- ---- ---- ---- - -------- ----- --- --<br>----- ----- ------ -- ---- -- --- a ---- -- - ----- -----<br>------ ---- ------ ---- - -------- ------- -- --- --------<br>-------- ----------- ---- ------ ---- ------ ---- --- ---<br>-------- --- -----,239094,239087.60000002384,238729.478,238743.5,238746.144,239096.13,,18,a
screen,html.Screen,2_3_1_0_1_19,2022-05-12T17:45:45.129Z,,,,,,,,,,,,,,,,,40,,,,,,,,,,,,,,512.5699999880744,,response,,,,9,H,,,,,,Space,keypress(Space),,,,speech,,,,------ -- ------- ---- ---- ---- - -------- ----- --- --<br>----- ----- ------ -- ---- -- --- - trip -- - ----- -----<br>------ ---- ------ ---- - -------- ------- -- --- --------<br>-------- ----------- ---- ------ ---- ------ ---- --- ---<br>-------- --- -----,239614,239608.69999998808,239079.464,239094.19999998808,239096.13,239629.442,,19,trip
screen,html.Screen,2_3_1_0_1_20,2022-05-12T17:45:45.543Z,,,,,,,,,,,,,,,,,40,,,,,,,,,,,,,,393.4580000357528,,response,,,,9,H,,,,,,Space,keypress(Space),,,,speech,,,,------ -- ------- ---- ---- ---- - -------- ----- --- --<br>----- ----- ------ -- ---- -- --- - ---- to - ----- -----<br>------ ---- ------ ---- - -------- ------- -- --- --------<br>-------- ----------- ---- ------ ---- ------ ---- --- ---<br>-------- --- -----,240028.10000002384,240022.90000003576,239612.776,239614.19999998808,239629.442,240029.426,,20,to
screen,html.Screen,2_3_1_0_1_21,2022-05-12T17:45:45.900Z,,,,,,,,,,,,,,,,,40,,,,,,,,,,,,,,353.2739999880723,,response,,,,9,H,,,,,,Space,keypress(Space),,,,speech,,,,------ -- ------- ---- ---- ---- - -------- ----- --- --<br>----- ----- ------ -- ---- -- --- - ---- -- a ----- -----<br>------ ---- ------ ---- - -------- ------- -- --- --------<br>-------- ----------- ---- ------ ---- ------ ---- --- ---<br>-------- --- -----,240384.90000003576,240382.69999998808,240012.76,240028.40000003576,240029.426,240396.078,,21,a
screen,html.Screen,2_3_1_0_1_22,2022-05-12T17:45:46.278Z,,,,,,,,,,,,,,,,,40,,,,,,,,,,,,,,361.62199998807046,,response,,,,9,H,,,,,,Space,keypress(Space),,,,speech,,,,------ -- ------- ---- ---- ---- - -------- ----- --- --<br>----- ----- ------ -- ---- -- --- - ---- -- - water -----<br>------ ---- ------ ---- - -------- ------- -- --- --------<br>-------- ----------- ---- ------ ---- ------ ---- --- ---<br>-------- --- -----,240763.30000001192,240757.69999998808,240379.412,240385,240396.078,240779.396,,22,water
screen,html.Screen,2_3_1_0_1_23,2022-05-12T17:45:46.725Z,,,,,,,,,,,,,,,,,40,,,,,,,,,,,,,,426.404000011913,,response,,,,9,H,,,,,,Space,keypress(Space),,,,speech,,,,"------ -- ------- ---- ---- ---- - -------- ----- --- --<br>----- ----- ------ -- ---- -- --- - ---- -- - ----- park,<br>------ ---- ------ ---- - -------- ------- -- --- --------<br>-------- ----------- ---- ------ ---- ------ ---- --- ---<br>-------- --- -----",241210.5,241205.80000001192,240762.73,240763.5,240779.396,241212.712,,23,"park,"
screen,html.Screen,2_3_1_0_1_24,2022-05-12T17:45:47.144Z,,,,,,,,,,,,,,,,,40,,,,,,,,,,,,,,411.28800000000047,,response,,,,9,H,,,,,,Space,keypress(Space),,,,speech,,,,------ -- ------- ---- ---- ---- - -------- ----- --- --<br>----- ----- ------ -- ---- -- --- - ---- -- - ----- -----<br>saying ---- ------ ---- - -------- ------- -- --- --------<br>-------- ----------- ---- ------ ---- ------ ---- --- ---<br>-------- --- -----,241629.30000001192,241624,241196.046,241210.69999998808,241212.712,241646.028,,24,saying
screen,html.Screen,2_3_1_0_1_25,2022-05-12T17:45:47.536Z,,,,,,,,,,,,,,,,,40,,,,,,,,,,,,,,369.87200003577163,,response,,,,9,H,,,,,,Space,keypress(Space),,,,speech,,,,------ -- ------- ---- ---- ---- - -------- ----- --- --<br>----- ----- ------ -- ---- -- --- - ---- -- - ----- -----<br>------ they ------ ---- - -------- ------- -- --- --------<br>-------- ----------- ---- ------ ---- ------ ---- --- ---<br>-------- --- -----,242021.40000003576,242015.90000003576,241629.362,241629.5,241646.028,242029.346,,25,they
screen,html.Screen,2_3_1_0_1_26,2022-05-12T17:45:47.935Z,,,,,,,,,,,,,,,,,40,,,,,,,,,,,,,,388.15400000000955,,response,,,,9,H,,,,,,Space,keypress(Space),,,,speech,,,,------ -- ------- ---- ---- ---- - -------- ----- --- --<br>----- ----- ------ -- ---- -- --- - ---- -- - ----- -----<br>------ ---- didn't ---- - -------- ------- -- --- --------<br>-------- ----------- ---- ------ ---- ------ ---- --- ---<br>-------- --- -----,242420.19999998808,242417.5,242012.68,242021.60000002384,242029.346,242429.33,,26,didn't
screen,html.Screen,2_3_1_0_1_27,2022-05-12T17:45:48.304Z,,,,,,,,,,,,,,,,,40,,,,,,,,,,,,,,356.0700000357756,,response,,,,9,H,,,,,,Space,keypress(Space),,,,speech,,,,------ -- ------- ---- ---- ---- - -------- ----- --- --<br>----- ----- ------ -- ---- -- --- - ---- -- - ----- -----<br>------ ---- ------ have - -------- ------- -- --- --------<br>-------- ----------- ---- ------ ---- ------ ---- --- ---<br>-------- --- -----,242789.5,242785.40000003576,242412.664,242420.19999998808,242429.33,242796.811,,27,have
screen,html.Screen,2_3_1_0_1_28,2022-05-12T17:45:48.662Z,,,,,,,,,,,,,,,,,40,,,,,,,,,,,,,,345.0890000357758,,response,,,,9,H,,,,,,Space,keypress(Space),,,,speech,,,,------ -- ------- ---- ---- ---- - -------- ----- --- --<br>----- ----- ------ -- ---- -- --- - ---- -- - ----- -----<br>------ ---- ------ ---- a -------- ------- -- --- --------<br>-------- ----------- ---- ------ ---- ------ ---- --- ---<br>-------- --- -----,243147.19999998808,243141.90000003576,242780.145,242789.69999998808,242796.811,243163.463,,28,a
screen,html.Screen,2_3_1_0_1_29,2022-05-12T17:45:49.103Z,,,,,,,,,,,,,,,,,40,,,,,,,,,,,,,,419.23699998809025,,response,,,,9,H,,,,,,Space,keypress(Space),,,,speech,,,,------ -- ------- ---- ---- ---- - -------- ----- --- --<br>----- ----- ------ -- ---- -- --- - ---- -- - ----- -----<br>------ ---- ------ ---- - business ------- -- --- --------<br>-------- ----------- ---- ------ ---- ------ ---- --- ---<br>-------- --- -----,243588.30000001192,243582.69999998808,243146.797,243147.5,243163.463,243596.779,,29,business
screen,html.Screen,2_3_1_0_1_30,2022-05-12T17:45:49.505Z,,,,,,,,,,,,,,,,,40,,,,,,,,,,,,,,388.22099999999045,,response,,,,9,H,,,,,,Space,keypress(Space),,,,speech,,,,------ -- ------- ---- ---- ---- - -------- ----- --- --<br>----- ----- ------ -- ---- -- --- - ---- -- - ----- -----<br>------ ---- ------ ---- - -------- license -- --- --------<br>-------- ----------- ---- ------ ---- ------ ---- --- ---<br>-------- --- -----,243990.69999998808,243985,243580.113,243588.60000002384,243596.779,243996.763,,30,license
screen,html.Screen,2_3_1_0_1_31,2022-05-12T17:45:49.906Z,,,,,,,,,,,,,,,,,40,,,,,,,,,,,,,,390.03700001191464,,response,,,,9,H,,,,,,Space,keypress(Space),,,,speech,,,,------ -- ------- ---- ---- ---- - -------- ----- --- --<br>----- ----- ------ -- ---- -- --- - ---- -- - ----- -----<br>------ ---- ------ ---- - -------- ------- or --- --------<br>-------- ----------- ---- ------ ---- ------ ---- --- ---<br>-------- --- -----,244392,244386.80000001192,243980.097,243990.90000003576,243996.763,244396.747,,31,or
screen,html.Screen,2_3_1_0_1_32,2022-05-12T17:45:50.338Z,,,,,,,,,,,,,,,,,40,,,,,,,,,,,,,,421.95299998807604,,response,,,,9,H,,,,,,Space,keypress(Space),,,,speech,,,,------ -- ------- ---- ---- ---- - -------- ----- --- --<br>----- ----- ------ -- ---- -- --- - ---- -- - ----- -----<br>------ ---- ------ ---- - -------- ------- -- the --------<br>-------- ----------- ---- ------ ---- ------ ---- --- ---<br>-------- --- -----,244823.69999998808,244818.69999998808,244380.081,244392.30000001192,244396.747,244830.063,,32,the
screen,html.Screen,2_3_1_0_1_33,2022-05-12T17:45:50.840Z,,,,,,,,,,,,,,,,,40,,,,,,,,,,,,,,490.5370000238472,,response,,,,9,H,,,,,,Space,keypress(Space),,,,speech,,,,------ -- ------- ---- ---- ---- - -------- ----- --- --<br>----- ----- ------ -- ---- -- --- - ---- -- - ----- -----<br>------ ---- ------ ---- - -------- ------- -- --- required<br>-------- ----------- ---- ------ ---- ------ ---- --- ---<br>-------- --- -----,245326,245320.60000002384,244813.397,244823.90000003576,244830.063,245330.043,,33,required
screen,html.Screen,2_3_1_0_1_34,2022-05-12T17:45:51.342Z,,,,,,,,,,,,,,,,,40,,,,,,,,,,,,,,491.65699998807395,,response,,,,9,H,,,,,,Space,keypress(Space),,,,speech,,,,------ -- ------- ---- ---- ---- - -------- ----- --- --<br>----- ----- ------ -- ---- -- --- - ---- -- - ----- -----<br>------ ---- ------ ---- - -------- ------- -- --- --------<br>permits. ----------- ---- ------ ---- ------ ---- --- ---<br>-------- --- -----,245827.19999998808,245821.69999998808,245313.377,245326.30000001192,245330.043,245830.023,,34,permits.
screen,html.Screen,2_3_1_0_1_35,2022-05-12T17:45:51.887Z,,,,,,,,,,,,,,,,,40,,,,,,,,,,,,,,538.9770000000135,,response,,,,9,H,,,,,,Space,keypress(Space),,,,speech,,,,------ -- ------- ---- ---- ---- - -------- ----- --- --<br>----- ----- ------ -- ---- -- --- - ---- -- - ----- -----<br>------ ---- ------ ---- - -------- ------- -- --- --------<br>-------- Morningstar ---- ------ ---- ------ ---- --- ---<br>-------- --- -----,246372.90000003576,246369,245813.357,245827.40000003576,245830.023,246380.001,,35,Morningstar
screen,html.Screen,2_3_1_0_1_36,2022-05-12T17:45:52.300Z,,,,,,,,,,,,,,,,,40,,,,,,,,,,,,,,400.29900001193164,,response,,,,9,H,,,,,,Space,keypress(Space),,,,speech,,,,------ -- ------- ---- ---- ---- - -------- ----- --- --<br>----- ----- ------ -- ---- -- --- - ---- -- - ----- -----<br>------ ---- ------ ---- - -------- ------- -- --- --------<br>-------- ----------- says ------ ---- ------ ---- --- ---<br>-------- --- -----,246785.80000001192,246780.30000001192,246363.335,246372.90000003576,246380.001,246796.651,,36,says
screen,html.Screen,2_3_1_0_1_37,2022-05-12T17:45:52.701Z,,,,,,,,,,,,,,,,,40,,,,,,,,,,,,,,384.3489999999874,,response,,,,9,H,,,,,,Space,keypress(Space),,,,speech,,,,------ -- ------- ---- ---- ---- - -------- ----- --- --<br>----- ----- ------ -- ---- -- --- - ---- -- - ----- -----<br>------ ---- ------ ---- - -------- ------- -- --- --------<br>-------- ----------- ---- police ---- ------ ---- --- ---<br>-------- --- -----,247186.60000002384,247181,246779.985,246786,246796.651,247196.635,,37,police
screen,html.Screen,2_3_1_0_1_38,2022-05-12T17:45:53.066Z,,,,,,,,,,,,,,,,,40,,,,,,,,,,,,,,349.3649999999907,,response,,,,9,H,,,,,,Space,keypress(Space),,,,speech,,,,------ -- ------- ---- ---- ---- - -------- ----- --- --<br>----- ----- ------ -- ---- -- --- - ---- -- - ----- -----<br>------ ---- ------ ---- - -------- ------- -- --- --------<br>-------- ----------- ---- ------ also ------ ---- --- ---<br>-------- --- -----,247551.5,247546,247179.969,247186.90000003576,247196.635,247563.287,,38,also
screen,html.Screen,2_3_1_0_1_39,2022-05-12T17:45:53.419Z,,,,,,,,,,,,,,,,,40,,,,,,,,,,,,,,335.7129999999888,,response,,,,9,H,,,,,,Space,keypress(Space),,,,speech,,,,------ -- ------- ---- ---- ---- - -------- ----- --- --<br>----- ----- ------ -- ---- -- --- - ---- -- - ----- -----<br>------ ---- ------ ---- - -------- ------- -- --- --------<br>-------- ----------- ---- ------ ---- didn't ---- --- ---<br>-------- --- -----,247904.30000001192,247899,247546.621,247551.80000001192,247563.287,247913.273,,39,didn't
screen,html.Screen,2_3_1_0_1_40,2022-05-12T17:45:53.700Z,,,,,,,,,,,,,,,,,40,,,,,,,,,,,,,,266.6270000357763,,response,,,,9,H,,,,,,Space,keypress(Space),,,,speech,,,,------ -- ------- ---- ---- ---- - -------- ----- --- --<br>----- ----- ------ -- ---- -- --- - ---- -- - ----- -----<br>------ ---- ------ ---- - -------- ------- -- --- --------<br>-------- ----------- ---- ------ ---- ------ know --- ---<br>-------- --- -----,248185.69999998808,248179.90000003576,247896.607,247904.69999998808,247913.273,248196.595,,40,know
screen,html.Screen,2_3_1_0_1_41,2022-05-12T17:45:53.975Z,,,,,,,,,,,,,,,,,40,,,,,,,,,,,,,,261.6049999880779,,response,,,,9,H,,,,,,Space,keypress(Space),,,,speech,,,,------ -- ------- ---- ---- ---- - -------- ----- --- --<br>----- ----- ------ -- ---- -- --- - ---- -- - ----- -----<br>------ ---- ------ ---- - -------- ------- -- --- --------<br>-------- ----------- ---- ------ ---- ------ ---- how ---<br>-------- --- -----,248460.40000003576,248458.19999998808,248179.929,248186,248196.595,248463.251,,41,how
screen,html.Screen,2_3_1_0_1_42,2022-05-12T17:45:54.368Z,,,,,,,,,,,,,,,,,40,,,,,,,,,,,,,,384.7490000000107,,response,,,,9,H,,,,,,Space,keypress(Space),,,,speech,,,,------ -- ------- ---- ---- ---- - -------- ----- --- --<br>----- ----- ------ -- ---- -- --- - ---- -- - ----- -----<br>------ ---- ------ ---- - -------- ------- -- --- --------<br>-------- ----------- ---- ------ ---- ------ ---- --- the<br>-------- --- -----,248853.60000002384,248848,248446.585,248460.5,248463.251,248863.235,,42,the
screen,html.Screen,2_3_1_0_1_43,2022-05-12T17:45:54.708Z,,,,,,,,,,,,,,,,,40,,,,,,,,,,,,,,324.5650000119349,,response,,,,9,H,,,,,,Space,keypress(Space),,,,speech,,,,------ -- ------- ---- ---- ---- - -------- ----- --- --<br>----- ----- ------ -- ---- -- --- - ---- -- - ----- -----<br>------ ---- ------ ---- - -------- ------- -- --- --------<br>-------- ----------- ---- ------ ---- ------ ---- --- ---<br>lemonade --- -----,249194.30000001192,249187.80000001192,248846.569,248853.80000001192,248863.235,249196.555,,43,lemonade
screen,html.Screen,2_3_1_0_1_44,2022-05-12T17:45:55.068Z,,,,,,,,,,,,,,,,,40,,,,,,,,,,,,,,351.445000000007,,response,,,,9,H,,,,,,Space,keypress(Space),,,,speech,,,,------ -- ------- ---- ---- ---- - -------- ----- --- --<br>----- ----- ------ -- ---- -- --- - ---- -- - ----- -----<br>------ ---- ------ ---- - -------- ------- -- --- --------<br>-------- ----------- ---- ------ ---- ------ ---- --- ---<br>-------- was -----,249553.40000003576,249548,249179.889,249194.5,249196.555,249563.207,,44,was
screen,html.Screen,2_3_1_0_1_45,2022-05-12T17:45:55.494Z,,,,,,,,,,,,,,,,,40,,,,,,,,,,,,,,410.4929999880842,,response,,,,9,H,,,,,,Space,keypress(Space),,,,speech,,,,------ -- ------- ---- ---- ---- - -------- ----- --- --<br>----- ----- ------ -- ---- -- --- - ---- -- - ----- -----<br>------ ---- ------ ---- - -------- ------- -- --- --------<br>-------- ----------- ---- ------ ---- ------ ---- --- ---<br>-------- --- made.,249979.60000002384,249973.69999998808,249546.541,249553.69999998808,249563.207,249996.523,,45,made.
Item 9,flow.Loop,2_3_1_0_1,2022-05-12T17:45:55.494Z,,,,,,,,,,,,,,,,,,,,,,,,,,,,,,,22244.619999988092,,completion,,,,,,,,,,,,,,,,,,,,,249979.90000003576,249973.69999998808,227712.414,227715.10000002384,227729.08,249996.523,,,
Question 1,html.Screen,2_3_1_0_2,2022-05-12T17:45:57.703Z,,,,,,,,,,,,,,,,,,,,,,,,,,,,true,FALSE,,2189.0770000238554,,response,,,,9,H,,,,,,FALSE,click #choice-2,,,,speech,,,,,252189,252185.60000002384,249979.857,249980,249996.523,252196.435,,,
Question 2,html.Screen,2_3_1_0_3,2022-05-12T17:46:00.352Z,,,,,,,,,,,,,,,,,,,,,,,,,,,,true,FALSE,,2639.2649999880814,,response,,,,9,H,,,,,,FALSE,click #choice-2,,,,speech,,,,,254838.30000001192,254835.69999998808,252179.769,252189.19999998808,252196.435,254847.142,,,
