sender,sender_type,sender_id,timestamp,meta,,Blues,Classical,Country,Dance,Electronic,Folk,Gospel,Hip-Hop,Jazz,Latin,Musical/Film,New-age,Pop,Prolific_id,Provo_ID,R&B,Rap,Reggae,Religious,Rock,Soul,Swing,Traditional,age,artist_name,correct,correctResponse,distraction,duration,education,ended_on,familiarity,gender,headphone_check_performance,item,list,music_frequency,offensiveness,pleasantness,position_correct,preference,response,response_action,snippet_file,song_name,song_rating,sound,stimulus_1,stimulus_2,stimulus_3,text,time_commit,time_end,time_render,time_run,time_show,time_switch,url,word,word_ID
Prolific ID,html.Form,0,2022-05-03T11:48:31.083Z,"{""labjs_version"":""20.2.2"",""labjs_build"":{""flavor"":""production"",""commit"":""a25486e0c714a0ae2ce03ff94b7bb6896854dcfa""},""location"":""https://run.pavlovia.org/mvasilev/prolific3_music_h/"",""userAgent"":""Mozilla/5.0 (Windows NT 6.3; Win64; x64; rv:99.0) Gecko/20100101 Firefox/99.0"",""platform"":""Win32"",""language"":""en-GB"",""locale"":""en-GB"",""timeZone"":""Europe/London"",""timezoneOffset"":-60,""screen_width"":1366,""screen_height"":768,""scroll_width"":1366,""scroll_height"":567,""window_innerWidth"":1366,""window_innerHeight"":615,""devicePixelRatio"":1}",,,,,,,,,,,,,,,5bc9e924e642db0001d3a1c5,,,,,,,,,,,,,,,8936.86,,form submission,,,,,,,,,,,,,,,,,,,,,23122,23121,14106.86,14107,14184.14,23117.82,{},,
Introduction,html.Screen,1_0,2022-05-03T11:48:47.516Z,,,,,,,,,,,,,,,,,,,,,,,,,,,,,,,16422.18,,response,,,,,,,,,,,continue,click button,,,,,,,,,39555,39540,23094.44,23123,23117.82,39562.88,,,
Volume calibration,html.Screen,1_1,2022-05-03T11:48:57.750Z,,,,,,,,,,,,,,,,,,,,,,,,,,,,,,,10212.120000000003,,response,,,,,,,,,,,continue,click button,,,,,,,,,49790,49775,39553.96,39555,39562.88,49788.28,,,
Task instructions,html.Screen,1_2,2022-05-03T11:48:59.974Z,,,,,,,,,,,,,,,,,,,,,,,,,,,,,,,2204.720000000001,,response,,,,,,,,,,,continue,click button,,,,,,,,,52012,51993,49788.28,49790,49788.28,52024.62,,,
Sounds,html.Screen,1_3_0_0,2022-05-03T11:49:04.221Z,,,,,,,,,,,,,,,,,,,,,,,,,,,,,,,4249.8399999999965,,timeout,,,,,,,,,2,,,,,,,,I,S,O,,56260,56257.78,52011.96,52013,52024.62,56274.46,,,
Judgement,html.Screen,1_3_0_1,2022-05-03T11:49:04.927Z,,,,,,,,,,,,,,,,,,,,,,,,,,,,true,2,,687.5400000000009,,response,,,,,,,,,2,,2,click #choice-2,,,,,I,S,O,,56966,56962,56257.78,56261,56274.46,56977.62,,,
Trial,flow.Sequence,1_3_0,2022-05-03T11:49:04.928Z,,,,,,,,,,,,,,,,,,,,,,,,,,,,,,,4937.379999999997,,completion,,,,,,,,,2,,,,,,,,I,S,O,,56966,56962,52011.96,52013,52024.62,56977.62,,,
Sounds,html.Screen,1_3_1_0,2022-05-03T11:49:09.172Z,,,,,,,,,,,,,,,,,,,,,,,,,,,,,,,4248.5799999999945,,timeout,,,,,,,,,2,,,,,,,,O,S,I,,61211,61209.54,56964.76,56968,56977.62,61226.2,,,
Judgement,html.Screen,1_3_1_1,2022-05-03T11:49:09.572Z,,,,,,,,,,,,,,,,,,,,,,,,,,,,true,2,,376.8000000000029,,response,,,,,,,,,2,,2,click #choice-2,,,,,O,S,I,,61611,61603,61209.54,61212,61226.2,61628.16,,,
Trial,flow.Sequence,1_3_1,2022-05-03T11:49:09.573Z,,,,,,,,,,,,,,,,,,,,,,,,,,,,,,,4625.379999999997,,completion,,,,,,,,,2,,,,,,,,O,S,I,,61612,61603,56964.76,56966,56977.62,61628.16,,,
Sounds,html.Screen,1_3_2_0,2022-05-03T11:49:13.824Z,,,,,,,,,,,,,,,,,,,,,,,,,,,,,,,4248.399999999994,,timeout,,,,,,,,,1,,,,,,,,S,O,I,,65862,65859.9,61610.7,61612,61628.16,65876.56,,,
Judgement,html.Screen,1_3_2_1,2022-05-03T11:49:14.183Z,,,,,,,,,,,,,,,,,,,,,,,,,,,,true,1,,334.4400000000023,,response,,,,,,,,,1,,1,click #choice-1,,,,,S,O,I,,66222,66211,65859.9,65863,65876.56,66228.66,,,
Trial,flow.Sequence,1_3_2,2022-05-03T11:49:14.184Z,,,,,,,,,,,,,,,,,,,,,,,,,,,,,,,4582.8399999999965,,completion,,,,,,,,,1,,,,,,,,S,O,I,,66222,66211,61610.7,61612,61628.16,66228.66,,,
Sounds,html.Screen,1_3_3_0,2022-05-03T11:49:18.424Z,,,,,,,,,,,,,,,,,,,,,,,,,,,,,,,4248.559999999998,,timeout,,,,,,,,,3,,,,,,,,I,O,S,,70462,70460.56,66221.12,66223,66228.66,70477.22,,,
Judgement,html.Screen,1_3_3_1,2022-05-03T11:49:18.793Z,,,,,,,,,,,,,,,,,,,,,,,,,,,,true,3,,344.77999999999884,,response,,,,,,,,,3,,3,click #choice-3,,,,,I,O,S,,70831,70822,70460.56,70463,70477.22,70845.82,,,
Trial,flow.Sequence,1_3_3,2022-05-03T11:49:18.793Z,,,,,,,,,,,,,,,,,,,,,,,,,,,,,,,4593.3399999999965,,completion,,,,,,,,,3,,,,,,,,I,O,S,,70831,70822,66221.12,66223,66228.66,70845.82,,,
Sounds,html.Screen,1_3_4_0,2022-05-03T11:49:23.042Z,,,,,,,,,,,,,,,,,,,,,,,,,,,,,,,4248.559999999998,,timeout,,,,,,,,,3,,,,,,,,O,I,S,,75081,75077.7,70830.26,70832,70845.82,75094.38,,,
Judgement,html.Screen,1_3_4_1,2022-05-03T11:49:23.402Z,,,,,,,,,,,,,,,,,,,,,,,,,,,,true,3,,321.61999999999534,,response,,,,,,,,,3,,3,click #choice-3,,,,,O,I,S,,75441,75416,75077.7,75084,75094.38,75446.3,,,
Trial,flow.Sequence,1_3_4,2022-05-03T11:49:23.403Z,,,,,,,,,,,,,,,,,,,,,,,,,,,,,,,4570.179999999993,,completion,,,,,,,,,3,,,,,,,,O,I,S,,75443,75416,70830.26,70832,70845.82,75446.3,,,
Sounds,html.Screen,1_3_5_0,2022-05-03T11:49:27.643Z,,,,,,,,,,,,,,,,,,,,,,,,,,,,,,,4248.479999999996,,timeout,,,,,,,,,1,,,,,,,,S,I,O,,79683,79678.1,75440.08,75443,75446.3,79694.78,,,
Judgement,html.Screen,1_3_5_1,2022-05-03T11:49:28.134Z,,,,,,,,,,,,,,,,,,,,,,,,,,,,true,1,,471.22000000000116,,response,,,,,,,,,1,,1,click #choice-1,,,,,S,I,O,,80173,80166,79678.1,79684,79694.78,80180.48,,,
Trial,flow.Sequence,1_3_5,2022-05-03T11:49:28.135Z,,,,,,,,,,,,,,,,,,,,,,,,,,,,,,,4719.699999999997,,completion,,,,,,,,,1,,,,,,,,S,I,O,,80174,80166,75440.08,75443,75446.3,80180.48,,,
Task,flow.Loop,1_3,2022-05-03T11:49:28.136Z,,,,,,,,,,,,,,,,,,,,,,,,,,,,,,,28141.379999999997,,completion,,,1,,,,,,,,,,,,,,,,,,80175,80166,52011.96,52013,52024.62,80180.48,,,
Trap,html.Screen,1_4,2022-05-03T11:49:28.139Z,,,,,,,,,,,,,,,,,,,,,,,,,,,,,,,NaN,,skipped,,,,,,,,,,,,,,,,,,,,,80179,80166,,80178,,80180.48,,,
Thanks,html.Screen,1_5,2022-05-03T11:51:00.441Z,,,,,,,,,,,,,,,,,,,,,,,,,,,,,,,92281.52,,response,,,,,,,,,,,continue,click button,,,,,,,,,172480,172462,80171.84,80179,80180.48,175400.32,,,
Headphone screening,flow.Sequence,1,2022-05-03T11:51:00.442Z,,,,,,,,,,,,,,,,,,,,,,,,,,,,,,,149344.18,,completion,,,,,,,,,,,,,,,,,,,,,172482,172462,23094.44,23123,23117.82,175400.32,,,
Instructions,html.Page,2_0,2022-05-03T11:51:21.913Z,,,,,,,,,,,,,,,,,,,,,,,,,,,,,,,18550.679999999993,,form submission,,,,,,,,,,,,,,,,,,,,,193952,193951,175383.66,175377,175400.32,193953.18,,,
Holding screen,html.Screen,2_1_0_0,2022-05-03T11:51:31.903Z,,,,,,,,,,,,,,,,,,,,,,,,,,,,,,,10003.320000000007,,timeout,,,,,,,,,,,,,,,,,,,,,203942,203939.82,193948.7,193953,193953.18,203956.5,,,
screen,html.Screen,2_1_0_1_0,2022-05-03T11:51:32.815Z,,,,,,,,,,,,,,,,,53,,,,,,,,,,,,,,879.5,,response,,,,99,,,,,,,Space,keypress(Space),,,,,,,,When -- ----- -- ------ - ------- --- ----------<br>------------- ------ ------ ---- ---- ------- ----- -- ----<br>-------- ------- -- ---------- --- - --- ----- ----- ----<br>---- --- --- ----- --- ---- ---- ------- ----- ---- -------<br>--- --- -- ----- -- --- ---- -- --- ---- -- ------ ------<br>--- ----- -- ----,204854,204836,203939.82,203943,203956.5,204854.56,,0,When
screen,html.Screen,2_1_0_1_1,2022-05-03T11:51:33.389Z,,,,,,,,,,,,,,,,,53,,,,,,,,,,,,,,560.4400000000023,,response,,,,99,,,,,,,Space,keypress(Space),,,,,,,,---- it ----- -- ------ - ------- --- ----------<br>------------- ------ ------ ---- ---- ------- ----- -- ----<br>-------- ------- -- ---------- --- - --- ----- ----- ----<br>---- --- --- ----- --- ---- ---- ------- ----- ---- -------<br>--- --- -- ----- -- --- ---- -- --- ---- -- ------ ------<br>--- ----- -- ----,205428,205415,204854.28,204854,204854.56,205429.18,,1,it
screen,html.Screen,2_1_0_1_2,2022-05-03T11:51:34.393Z,,,,,,,,,,,,,,,,,53,,,,,,,,,,,,,,986.820000000007,,response,,,,99,,,,,,,Space,keypress(Space),,,,,,,,---- -- comes -- ------ - ------- --- ----------<br>------------- ------ ------ ---- ---- ------- ----- -- ----<br>-------- ------- -- ---------- --- - --- ----- ----- ----<br>---- --- --- ----- --- ---- ---- ------- ----- ---- -------<br>--- --- -- ----- -- --- ---- -- --- ---- -- ------ ------<br>--- ----- -- ----,206432,206416,205428.9,205428,205429.18,206433.76,,2,comes
screen,html.Screen,2_1_0_1_3,2022-05-03T11:51:35.280Z,,,,,,,,,,,,,,,,,53,,,,,,,,,,,,,,871.2399999999907,,response,,,,99,,,,,,,Space,keypress(Space),,,,,,,,---- -- ----- to ------ - ------- --- ----------<br>------------- ------ ------ ---- ---- ------- ----- -- ----<br>-------- ------- -- ---------- --- - --- ----- ----- ----<br>---- --- --- ----- --- ---- ---- ------- ----- ---- -------<br>--- --- -- ----- -- --- ---- -- --- ---- -- ------ ------<br>--- ----- -- ----,207319,207305,206433.5,206434,206433.76,207320.04,,3,to
screen,html.Screen,2_1_0_1_4,2022-05-03T11:51:36.014Z,,,,,,,,,,,,,,,,,53,,,,,,,,,,,,,,720.9599999999919,,response,,,,99,,,,,,,Space,keypress(Space),,,,,,,,---- -- ----- -- having - ------- --- ----------<br>------------- ------ ------ ---- ---- ------- ----- -- ----<br>-------- ------- -- ---------- --- - --- ----- ----- ----<br>---- --- --- ----- --- ---- ---- ------- ----- ---- -------<br>--- --- -- ----- -- --- ---- -- --- ---- -- ------ ------<br>--- ----- -- ----,208052,208041,207319.78,207320,207320.04,208053.2,,4,having
screen,html.Screen,2_1_0_1_5,2022-05-03T11:51:36.467Z,,,,,,,,,,,,,,,,,53,,,,,,,,,,,,,,439.79999999998836,,response,,,,99,,,,,,,Space,keypress(Space),,,,,,,,---- -- ----- -- ------ a ------- --- ----------<br>------------- ------ ------ ---- ---- ------- ----- -- ----<br>-------- ------- -- ---------- --- - --- ----- ----- ----<br>---- --- --- ----- --- ---- ---- ------- ----- ---- -------<br>--- --- -- ----- -- --- ---- -- --- ---- -- ------ ------<br>--- ----- -- ----,208506,208493,208052.94,208052,208053.2,208506.7,,5,a
screen,html.Screen,2_1_0_1_6,2022-05-03T11:51:37.104Z,,,,,,,,,,,,,,,,,53,,,,,,,,,,,,,,627.2999999999884,,response,,,,99,,,,,,,Space,keypress(Space),,,,,,,,---- -- ----- -- ------ - lasting --- ----------<br>------------- ------ ------ ---- ---- ------- ----- -- ----<br>-------- ------- -- ---------- --- - --- ----- ----- ----<br>---- --- --- ----- --- ---- ---- ------- ----- ---- -------<br>--- --- -- ----- -- --- ---- -- --- ---- -- ------ ------<br>--- ----- -- ----,209143,209134,208506.44,208506,208506.7,209143.22,,6,lasting
screen,html.Screen,2_1_0_1_7,2022-05-03T11:51:37.827Z,,,,,,,,,,,,,,,,,53,,,,,,,,,,,,,,708.7799999999988,,response,,,,99,,,,,,,Space,keypress(Space),,,,,,,,---- -- ----- -- ------ - ------- and ----------<br>------------- ------ ------ ---- ---- ------- ----- -- ----<br>-------- ------- -- ---------- --- - --- ----- ----- ----<br>---- --- --- ----- --- ---- ---- ------- ----- ---- -------<br>--- --- -- ----- -- --- ---- -- --- ---- -- ------ ------<br>--- ----- -- ----,209866,209852,209142.96,209143,209143.22,209867,,7,and
screen,html.Screen,2_1_0_1_8,2022-05-03T11:51:38.409Z,,,,,,,,,,,,,,,,,53,,,,,,,,,,,,,,564,,response,,,,99,,,,,,,Space,keypress(Space),,,,,,,,---- -- ----- -- ------ - ------- --- fulfilling<br>------------- ------ ------ ---- ---- ------- ----- -- ----<br>-------- ------- -- ---------- --- - --- ----- ----- ----<br>---- --- --- ----- --- ---- ---- ------- ----- ---- -------<br>--- --- -- ----- -- --- ---- -- --- ---- -- ------ ------<br>--- ----- -- ----,210447,210431,209866.74,209866,209867,210448.28,,8,fulfilling
screen,html.Screen,2_1_0_1_9,2022-05-03T11:51:40.095Z,,,,,,,,,,,,,,,,,53,,,,,,,,,,,,,,1670.7200000000012,,response,,,,99,,,,,,,Space,keypress(Space),,,,,,,,"---- -- ----- -- ------ - ------- --- ----------<br>relationship, ------ ------ ---- ---- ------- ----- -- ----<br>-------- ------- -- ---------- --- - --- ----- ----- ----<br>---- --- --- ----- --- ---- ---- ------- ----- ---- -------<br>--- --- -- ----- -- --- ---- -- --- ---- -- ------ ------<br>--- ----- -- ----",212135,212119,210448.02,210448,210448.28,212135.06,,9,"relationship,"
screen,html.Screen,2_1_0_1_10,2022-05-03T11:51:40.605Z,,,,,,,,,,,,,,,,,53,,,,,,,,,,,,,,498.9400000000023,,response,,,,99,,,,,,,Space,keypress(Space),,,,,,,,---- -- ----- -- ------ - ------- --- ----------<br>------------- common ------ ---- ---- ------- ----- -- ----<br>-------- ------- -- ---------- --- - --- ----- ----- ----<br>---- --- --- ----- --- ---- ---- ------- ----- ---- -------<br>--- --- -- ----- -- --- ---- -- --- ---- -- ------ ------<br>--- ----- -- ----,212644,212634,212134.8,212135,212135.06,212644.58,,10,common
screen,html.Screen,2_1_0_1_11,2022-05-03T11:51:41.301Z,,,,,,,,,,,,,,,,,53,,,,,,,,,,,,,,676.4200000000128,,response,,,,99,,,,,,,Space,keypress(Space),,,,,,,,---- -- ----- -- ------ - ------- --- ----------<br>------------- ------ wisdom ---- ---- ------- ----- -- ----<br>-------- ------- -- ---------- --- - --- ----- ----- ----<br>---- --- --- ----- --- ---- ---- ------- ----- ---- -------<br>--- --- -- ----- -- --- ---- -- --- ---- -- ------ ------<br>--- ----- -- ----,213340,213321,212644.32,212644,212644.58,213341.94,,11,wisdom
screen,html.Screen,2_1_0_1_12,2022-05-03T11:51:41.847Z,,,,,,,,,,,,,,,,,53,,,,,,,,,,,,,,526.0599999999977,,response,,,,99,,,,,,,Space,keypress(Space),,,,,,,,---- -- ----- -- ------ - ------- --- ----------<br>------------- ------ ------ says ---- ------- ----- -- ----<br>-------- ------- -- ---------- --- - --- ----- ----- ----<br>---- --- --- ----- --- ---- ---- ------- ----- ---- -------<br>--- --- -- ----- -- --- ---- -- --- ---- -- ------ ------<br>--- ----- -- ----,213885,213868,213340.64,213340,213341.94,213886.02,,12,says
screen,html.Screen,2_1_0_1_13,2022-05-03T11:51:42.533Z,,,,,,,,,,,,,,,,,53,,,,,,,,,,,,,,669.9800000000105,,response,,,,99,,,,,,,Space,keypress(Space),,,,,,,,---- -- ----- -- ------ - ------- --- ----------<br>------------- ------ ------ ---- that ------- ----- -- ----<br>-------- ------- -- ---------- --- - --- ----- ----- ----<br>---- --- --- ----- --- ---- ---- ------- ----- ---- -------<br>--- --- -- ----- -- --- ---- -- --- ---- -- ------ ------<br>--- ----- -- ----,214572,214556,213885.76,213885,213886.02,214572.74,,13,that
screen,html.Screen,2_1_0_1_14,2022-05-03T11:51:43.044Z,,,,,,,,,,,,,,,,,53,,,,,,,,,,,,,,499.2600000000093,,response,,,,99,,,,,,,Space,keypress(Space),,,,,,,,---- -- ----- -- ------ - ------- --- ----------<br>------------- ------ ------ ---- ---- feeling ----- -- ----<br>-------- ------- -- ---------- --- - --- ----- ----- ----<br>---- --- --- ----- --- ---- ---- ------- ----- ---- -------<br>--- --- -- ----- -- --- ---- -- --- ---- -- ------ ------<br>--- ----- -- ----,215083,215072,214572.5,214573,214572.74,215083.24,,14,feeling
screen,html.Screen,2_1_0_1_15,2022-05-03T11:51:43.584Z,,,,,,,,,,,,,,,,,53,,,,,,,,,,,,,,535.7600000000093,,response,,,,99,,,,,,,Space,keypress(Space),,,,,,,,---- -- ----- -- ------ - ------- --- ----------<br>------------- ------ ------ ---- ---- ------- close -- ----<br>-------- ------- -- ---------- --- - --- ----- ----- ----<br>---- --- --- ----- --- ---- ---- ------- ----- ---- -------<br>--- --- -- ----- -- --- ---- -- --- ---- -- ------ ------<br>--- ----- -- ----,215622,215619,215082.98,215083,215083.24,215623.32,,15,close
screen,html.Screen,2_1_0_1_16,2022-05-03T11:51:44.054Z,,,,,,,,,,,,,,,,,53,,,,,,,,,,,,,,462.679999999993,,response,,,,99,,,,,,,Space,keypress(Space),,,,,,,,---- -- ----- -- ------ - ------- --- ----------<br>------------- ------ ------ ---- ---- ------- ----- to ----<br>-------- ------- -- ---------- --- - --- ----- ----- ----<br>---- --- --- ----- --- ---- ---- ------- ----- ---- -------<br>--- --- -- ----- -- --- ---- -- --- ---- -- ------ ------<br>--- ----- -- ----,216093,216086,215623.08,215623,215623.32,216093.84,,16,to
screen,html.Screen,2_1_0_1_17,2022-05-03T11:51:44.480Z,,,,,,,,,,,,,,,,,53,,,,,,,,,,,,,,414.1600000000035,,response,,,,99,,,,,,,Space,keypress(Space),,,,,,,,---- -- ----- -- ------ - ------- --- ----------<br>------------- ------ ------ ---- ---- ------- ----- -- your<br>-------- ------- -- ---------- --- - --- ----- ----- ----<br>---- --- --- ----- --- ---- ---- ------- ----- ---- -------<br>--- --- -- ----- -- --- ---- -- --- ---- -- ------ ------<br>--- ----- -- ----,216518,216508,216093.58,216093,216093.84,216520.42,,17,your
screen,html.Screen,2_1_0_1_18,2022-05-03T11:51:44.934Z,,,,,,,,,,,,,,,,,53,,,,,,,,,,,,,,440.5799999999872,,response,,,,99,,,,,,,Space,keypress(Space),,,,,,,,---- -- ----- -- ------ - ------- --- ----------<br>------------- ------ ------ ---- ---- ------- ----- -- ----<br>romantic ------- -- ---------- --- - --- ----- ----- ----<br>---- --- --- ----- --- ---- ---- ------- ----- ---- -------<br>--- --- -- ----- -- --- ---- -- --- ---- -- ------ ------<br>--- ----- -- ----,216973,216961,216518.74,216519,216520.42,216974.02,,18,romantic
screen,html.Screen,2_1_0_1_19,2022-05-03T11:51:45.346Z,,,,,,,,,,,,,,,,,53,,,,,,,,,,,,,,394.9800000000105,,response,,,,99,,,,,,,Space,keypress(Space),,,,,,,,---- -- ----- -- ------ - ------- --- ----------<br>------------- ------ ------ ---- ---- ------- ----- -- ----<br>-------- partner -- ---------- --- - --- ----- ----- ----<br>---- --- --- ----- --- ---- ---- ------- ----- ---- -------<br>--- --- -- ----- -- --- ---- -- --- ---- -- ------ ------<br>--- ----- -- ----,217386,217369,216973.76,216973,216974.02,217385.94,,19,partner
screen,html.Screen,2_1_0_1_20,2022-05-03T11:51:45.805Z,,,,,,,,,,,,,,,,,53,,,,,,,,,,,,,,450.0599999999977,,response,,,,99,,,,,,,Space,keypress(Space),,,,,,,,---- -- ----- -- ------ - ------- --- ----------<br>------------- ------ ------ ---- ---- ------- ----- -- ----<br>-------- ------- is ---------- --- - --- ----- ----- ----<br>---- --- --- ----- --- ---- ---- ------- ----- ---- -------<br>--- --- -- ----- -- --- ---- -- --- ---- -- ------ ------<br>--- ----- -- ----,217844,217836,217385.68,217386,217385.94,217844.98,,20,is
screen,html.Screen,2_1_0_1_21,2022-05-03T11:51:46.799Z,,,,,,,,,,,,,,,,,53,,,,,,,,,,,,,,976.0199999999895,,response,,,,99,,,,,,,Space,keypress(Space),,,,,,,,---- -- ----- -- ------ - ------- --- ----------<br>------------- ------ ------ ---- ---- ------- ----- -- ----<br>-------- ------- -- paramount. --- - --- ----- ----- ----<br>---- --- --- ----- --- ---- ---- ------- ----- ---- -------<br>--- --- -- ----- -- --- ---- -- --- ---- -- ------ ------<br>--- ----- -- ----,218838,218821,217844.8,217845,217844.98,218837.9,,21,paramount.
screen,html.Screen,2_1_0_1_22,2022-05-03T11:51:47.263Z,,,,,,,,,,,,,,,,,53,,,,,,,,,,,,,,453.1000000000058,,response,,,,99,,,,,,,Space,keypress(Space),,,,,,,,---- -- ----- -- ------ - ------- --- ----------<br>------------- ------ ------ ---- ---- ------- ----- -- ----<br>-------- ------- -- ---------- But - --- ----- ----- ----<br>---- --- --- ----- --- ---- ---- ------- ----- ---- -------<br>--- --- -- ----- -- --- ---- -- --- ---- -- ------ ------<br>--- ----- -- ----,219302,219291,218837.76,218838,218837.9,219302.14,,22,But
screen,html.Screen,2_1_0_1_23,2022-05-03T11:51:47.730Z,,,,,,,,,,,,,,,,,53,,,,,,,,,,,,,,455.85999999998603,,response,,,,99,,,,,,,Space,keypress(Space),,,,,,,,---- -- ----- -- ------ - ------- --- ----------<br>------------- ------ ------ ---- ---- ------- ----- -- ----<br>-------- ------- -- ---------- --- a --- ----- ----- ----<br>---- --- --- ----- --- ---- ---- ------- ----- ---- -------<br>--- --- -- ----- -- --- ---- -- --- ---- -- ------ ------<br>--- ----- -- ----,219768,219758,219302.02,219302,219302.14,219769.02,,23,a
screen,html.Screen,2_1_0_1_24,2022-05-03T11:51:48.119Z,,,,,,,,,,,,,,,,,53,,,,,,,,,,,,,,379.9800000000105,,response,,,,99,,,,,,,Space,keypress(Space),,,,,,,,---- -- ----- -- ------ - ------- --- ----------<br>------------- ------ ------ ---- ---- ------- ----- -- ----<br>-------- ------- -- ---------- --- - new ----- ----- ----<br>---- --- --- ----- --- ---- ---- ------- ----- ---- -------<br>--- --- -- ----- -- --- ---- -- --- ---- -- ------ ------<br>--- ----- -- ----,220159,220149,219768.8,219769,219769.02,220159.14,,24,new
screen,html.Screen,2_1_0_1_25,2022-05-03T11:51:48.521Z,,,,,,,,,,,,,,,,,53,,,,,,,,,,,,,,381.85999999998603,,response,,,,99,,,,,,,Space,keypress(Space),,,,,,,,---- -- ----- -- ------ - ------- --- ----------<br>------------- ------ ------ ---- ---- ------- ----- -- ----<br>-------- ------- -- ---------- --- - --- study ----- ----<br>---- --- --- ----- --- ---- ---- ------- ----- ---- -------<br>--- --- -- ----- -- --- ---- -- --- ---- -- ------ ------<br>--- ----- -- ----,220560,220541,220158.88,220159,220159.14,220561.22,,25,study
screen,html.Screen,2_1_0_1_26,2022-05-03T11:51:48.912Z,,,,,,,,,,,,,,,,,53,,,,,,,,,,,,,,385.77999999999884,,response,,,,99,,,,,,,Space,keypress(Space),,,,,,,,---- -- ----- -- ------ - ------- --- ----------<br>------------- ------ ------ ---- ---- ------- ----- -- ----<br>-------- ------- -- ---------- --- - --- ----- finds ----<br>---- --- --- ----- --- ---- ---- ------- ----- ---- -------<br>--- --- -- ----- -- --- ---- -- --- ---- -- ------ ------<br>--- ----- -- ----,220951,220947,220560.96,220561,220561.22,220953.52,,26,finds
screen,html.Screen,2_1_0_1_27,2022-05-03T11:51:49.337Z,,,,,,,,,,,,,,,,,53,,,,,,,,,,,,,,414.4800000000105,,response,,,,99,,,,,,,Space,keypress(Space),,,,,,,,---- -- ----- -- ------ - ------- --- ----------<br>------------- ------ ------ ---- ---- ------- ----- -- ----<br>-------- ------- -- ---------- --- - --- ----- ----- that<br>---- --- --- ----- --- ---- ---- ------- ----- ---- -------<br>--- --- -- ----- -- --- ---- -- --- ---- -- ------ ------<br>--- ----- -- ----,221376,221368,220951.84,220951,220953.52,221376.98,,27,that
screen,html.Screen,2_1_0_1_28,2022-05-03T11:51:49.790Z,,,,,,,,,,,,,,,,,53,,,,,,,,,,,,,,444.0199999999895,,response,,,,99,,,,,,,Space,keypress(Space),,,,,,,,---- -- ----- -- ------ - ------- --- ----------<br>------------- ------ ------ ---- ---- ------- ----- -- ----<br>-------- ------- -- ---------- --- - --- ----- ----- ----<br>it's --- --- ----- --- ---- ---- ------- ----- ---- -------<br>--- --- -- ----- -- --- ---- -- --- ---- -- ------ ------<br>--- ----- -- ----,221829,221821,221376.78,221377,221376.98,221829.2,,28,it's
screen,html.Screen,2_1_0_1_29,2022-05-03T11:51:50.174Z,,,,,,,,,,,,,,,,,53,,,,,,,,,,,,,,366.79999999998836,,response,,,,99,,,,,,,Space,keypress(Space),,,,,,,,---- -- ----- -- ------ - ------- --- ----------<br>------------- ------ ------ ---- ---- ------- ----- -- ----<br>-------- ------- -- ---------- --- - --- ----- ----- ----<br>---- not --- ----- --- ---- ---- ------- ----- ---- -------<br>--- --- -- ----- -- --- ---- -- --- ---- -- ------ ------<br>--- ----- -- ----,222213,222196,221828.94,221829,221829.2,222213.28,,29,not
screen,html.Screen,2_1_0_1_30,2022-05-03T11:51:50.525Z,,,,,,,,,,,,,,,,,53,,,,,,,,,,,,,,341.72000000000116,,response,,,,99,,,,,,,Space,keypress(Space),,,,,,,,---- -- ----- -- ------ - ------- --- ----------<br>------------- ------ ------ ---- ---- ------- ----- -- ----<br>-------- ------- -- ---------- --- - --- ----- ----- ----<br>---- --- how ----- --- ---- ---- ------- ----- ---- -------<br>--- --- -- ----- -- --- ---- -- --- ---- -- ------ ------<br>--- ----- -- ----,222565,222555,222213.02,222213,222213.28,222565.3,,30,how
screen,html.Screen,2_1_0_1_31,2022-05-03T11:51:50.958Z,,,,,,,,,,,,,,,,,53,,,,,,,,,,,,,,412.70000000001164,,response,,,,99,,,,,,,Space,keypress(Space),,,,,,,,---- -- ----- -- ------ - ------- --- ----------<br>------------- ------ ------ ---- ---- ------- ----- -- ----<br>-------- ------- -- ---------- --- - --- ----- ----- ----<br>---- --- --- close --- ---- ---- ------- ----- ---- -------<br>--- --- -- ----- -- --- ---- -- --- ---- -- ------ ------<br>--- ----- -- ----,222997,222978,222565.02,222565,222565.3,222996.94,,31,close
screen,html.Screen,2_1_0_1_32,2022-05-03T11:51:51.361Z,,,,,,,,,,,,,,,,,53,,,,,,,,,,,,,,387.0599999999977,,response,,,,99,,,,,,,Space,keypress(Space),,,,,,,,---- -- ----- -- ------ - ------- --- ----------<br>------------- ------ ------ ---- ---- ------- ----- -- ----<br>-------- ------- -- ---------- --- - --- ----- ----- ----<br>---- --- --- ----- you ---- ---- ------- ----- ---- -------<br>--- --- -- ----- -- --- ---- -- --- ---- -- ------ ------<br>--- ----- -- ----,223399,223384,222996.66,222997,222996.94,223399.96,,32,you
screen,html.Screen,2_1_0_1_33,2022-05-03T11:51:51.715Z,,,,,,,,,,,,,,,,,53,,,,,,,,,,,,,,344.04000000000815,,response,,,,99,,,,,,,Space,keypress(Space),,,,,,,,---- -- ----- -- ------ - ------- --- ----------<br>------------- ------ ------ ---- ---- ------- ----- -- ----<br>-------- ------- -- ---------- --- - --- ----- ----- ----<br>---- --- --- ----- --- feel ---- ------- ----- ---- -------<br>--- --- -- ----- -- --- ---- -- --- ---- -- ------ ------<br>--- ----- -- ----,223754,223744,223399.7,223399,223399.96,223755.02,,33,feel
screen,html.Screen,2_1_0_1_34,2022-05-03T11:51:52.136Z,,,,,,,,,,,,,,,,,53,,,,,,,,,,,,,,409.9800000000105,,response,,,,99,,,,,,,Space,keypress(Space),,,,,,,,---- -- ----- -- ------ - ------- --- ----------<br>------------- ------ ------ ---- ---- ------- ----- -- ----<br>-------- ------- -- ---------- --- - --- ----- ----- ----<br>---- --- --- ----- --- ---- that ------- ----- ---- -------<br>--- --- -- ----- -- --- ---- -- --- ---- -- ------ ------<br>--- ----- -- ----,224174,224165,223754.76,223754,223755.02,224175.66,,34,that
screen,html.Screen,2_1_0_1_35,2022-05-03T11:51:52.483Z,,,,,,,,,,,,,,,,,53,,,,,,,,,,,,,,332.3399999999965,,response,,,,99,,,,,,,Space,keypress(Space),,,,,,,,---- -- ----- -- ------ - ------- --- ----------<br>------------- ------ ------ ---- ---- ------- ----- -- ----<br>-------- ------- -- ---------- --- - --- ----- ----- ----<br>---- --- --- ----- --- ---- ---- matters ----- ---- -------<br>--- --- -- ----- -- --- ---- -- --- ---- -- ------ ------<br>--- ----- -- ----,224521,224508,224175.42,224175,224175.66,224522.24,,35,matters
screen,html.Screen,2_1_0_1_36,2022-05-03T11:51:52.869Z,,,,,,,,,,,,,,,,,53,,,,,,,,,,,,,,376.7600000000093,,response,,,,99,,,,,,,Space,keypress(Space),,,,,,,,"---- -- ----- -- ------ - ------- --- ----------<br>------------- ------ ------ ---- ---- ------- ----- -- ----<br>-------- ------- -- ---------- --- - --- ----- ----- ----<br>---- --- --- ----- --- ---- ---- ------- most, ---- -------<br>--- --- -- ----- -- --- ---- -- --- ---- -- ------ ------<br>--- ----- -- ----",224907,224899,224521.98,224522,224522.24,224908.1,,36,"most,"
screen,html.Screen,2_1_0_1_37,2022-05-03T11:51:53.293Z,,,,,,,,,,,,,,,,,53,,,,,,,,,,,,,,413.8999999999942,,response,,,,99,,,,,,,Space,keypress(Space),,,,,,,,---- -- ----- -- ------ - ------- --- ----------<br>------------- ------ ------ ---- ---- ------- ----- -- ----<br>-------- ------- -- ---------- --- - --- ----- ----- ----<br>---- --- --- ----- --- ---- ---- ------- ----- it's -------<br>--- --- -- ----- -- --- ---- -- --- ---- -- ------ ------<br>--- ----- -- ----,225331,225322,224907.84,224907,224908.1,225331.92,,37,it's
screen,html.Screen,2_1_0_1_38,2022-05-03T11:51:53.812Z,,,,,,,,,,,,,,,,,53,,,,,,,,,,,,,,505.0799999999872,,response,,,,99,,,,,,,Space,keypress(Space),,,,,,,,---- -- ----- -- ------ - ------- --- ----------<br>------------- ------ ------ ---- ---- ------- ----- -- ----<br>-------- ------- -- ---------- --- - --- ----- ----- ----<br>---- --- --- ----- --- ---- ---- ------- ----- ---- whether<br>--- --- -- ----- -- --- ---- -- --- ---- -- ------ ------<br>--- ----- -- ----,225851,225837,225331.7,225331,225331.92,225851.6,,38,whether
screen,html.Screen,2_1_0_1_39,2022-05-03T11:51:54.268Z,,,,,,,,,,,,,,,,,53,,,,,,,,,,,,,,438.3999999999942,,response,,,,99,,,,,,,Space,keypress(Space),,,,,,,,---- -- ----- -- ------ - ------- --- ----------<br>------------- ------ ------ ---- ---- ------- ----- -- ----<br>-------- ------- -- ---------- --- - --- ----- ----- ----<br>---- --- --- ----- --- ---- ---- ------- ----- ---- -------<br>you --- -- ----- -- --- ---- -- --- ---- -- ------ ------<br>--- ----- -- ----,226308,226290,225851.34,225852,225851.6,226307.78,,39,you
screen,html.Screen,2_1_0_1_40,2022-05-03T11:51:54.671Z,,,,,,,,,,,,,,,,,53,,,,,,,,,,,,,,389.22000000000116,,response,,,,99,,,,,,,Space,keypress(Space),,,,,,,,---- -- ----- -- ------ - ------- --- ----------<br>------------- ------ ------ ---- ---- ------- ----- -- ----<br>-------- ------- -- ---------- --- - --- ----- ----- ----<br>---- --- --- ----- --- ---- ---- ------- ----- ---- -------<br>--- are -- ----- -- --- ---- -- --- ---- -- ------ ------<br>--- ----- -- ----,226709,226697,226307.58,226308,226307.78,226710.02,,40,are
screen,html.Screen,2_1_0_1_41,2022-05-03T11:51:55.132Z,,,,,,,,,,,,,,,,,53,,,,,,,,,,,,,,454.9800000000105,,response,,,,99,,,,,,,Space,keypress(Space),,,,,,,,---- -- ----- -- ------ - ------- --- ----------<br>------------- ------ ------ ---- ---- ------- ----- -- ----<br>-------- ------- -- ---------- --- - --- ----- ----- ----<br>---- --- --- ----- --- ---- ---- ------- ----- ---- -------<br>--- --- as ----- -- --- ---- -- --- ---- -- ------ ------<br>--- ----- -- ----,227171,227165,226709.76,226710,226710.02,227171.64,,41,as
screen,html.Screen,2_1_0_1_42,2022-05-03T11:51:55.580Z,,,,,,,,,,,,,,,,,53,,,,,,,,,,,,,,431.35999999998603,,response,,,,99,,,,,,,Space,keypress(Space),,,,,,,,---- -- ----- -- ------ - ------- --- ----------<br>------------- ------ ------ ---- ---- ------- ----- -- ----<br>-------- ------- -- ---------- --- - --- ----- ----- ----<br>---- --- --- ----- --- ---- ---- ------- ----- ---- -------<br>--- --- -- close -- --- ---- -- --- ---- -- ------ ------<br>--- ----- -- ----,227619,227603,227171.38,227172,227171.64,227619.76,,42,close
screen,html.Screen,2_1_0_1_43,2022-05-03T11:51:55.966Z,,,,,,,,,,,,,,,,,53,,,,,,,,,,,,,,373.2399999999907,,response,,,,99,,,,,,,Space,keypress(Space),,,,,,,,---- -- ----- -- ------ - ------- --- ----------<br>------------- ------ ------ ---- ---- ------- ----- -- ----<br>-------- ------- -- ---------- --- - --- ----- ----- ----<br>---- --- --- ----- --- ---- ---- ------- ----- ---- -------<br>--- --- -- ----- as --- ---- -- --- ---- -- ------ ------<br>--- ----- -- ----,228006,227993,227619.54,227620,227619.76,228005.96,,43,as
screen,html.Screen,2_1_0_1_44,2022-05-03T11:51:56.345Z,,,,,,,,,,,,,,,,,53,,,,,,,,,,,,,,362.04000000000815,,response,,,,99,,,,,,,Space,keypress(Space),,,,,,,,---- -- ----- -- ------ - ------- --- ----------<br>------------- ------ ------ ---- ---- ------- ----- -- ----<br>-------- ------- -- ---------- --- - --- ----- ----- ----<br>---- --- --- ----- --- ---- ---- ------- ----- ---- -------<br>--- --- -- ----- -- you ---- -- --- ---- -- ------ ------<br>--- ----- -- ----,228384,228368,228005.7,228006,228005.96,228384.86,,44,you
screen,html.Screen,2_1_0_1_45,2022-05-03T11:51:56.680Z,,,,,,,,,,,,,,,,,53,,,,,,,,,,,,,,326.14000000001397,,response,,,,99,,,,,,,Space,keypress(Space),,,,,,,,---- -- ----- -- ------ - ------- --- ----------<br>------------- ------ ------ ---- ---- ------- ----- -- ----<br>-------- ------- -- ---------- --- - --- ----- ----- ----<br>---- --- --- ----- --- ---- ---- ------- ----- ---- -------<br>--- --- -- ----- -- --- want -- --- ---- -- ------ ------<br>--- ----- -- ----,228719,228711,228384.6,228385,228384.86,228719.62,,45,want
screen,html.Screen,2_1_0_1_46,2022-05-03T11:51:57.065Z,,,,,,,,,,,,,,,,,53,,,,,,,,,,,,,,366.38000000000466,,response,,,,99,,,,,,,Space,keypress(Space),,,,,,,,---- -- ----- -- ------ - ------- --- ----------<br>------------- ------ ------ ---- ---- ------- ----- -- ----<br>-------- ------- -- ---------- --- - --- ----- ----- ----<br>---- --- --- ----- --- ---- ---- ------- ----- ---- -------<br>--- --- -- ----- -- --- ---- to --- ---- -- ------ ------<br>--- ----- -- ----,229104,229086,228719.36,228719,228719.62,229104.86,,46,to
screen,html.Screen,2_1_0_1_47,2022-05-03T11:51:57.465Z,,,,,,,,,,,,,,,,,53,,,,,,,,,,,,,,389.14000000001397,,response,,,,99,,,,,,,Space,keypress(Space),,,,,,,,"---- -- ----- -- ------ - ------- --- ----------<br>------------- ------ ------ ---- ---- ------- ----- -- ----<br>-------- ------- -- ---------- --- - --- ----- ----- ----<br>---- --- --- ----- --- ---- ---- ------- ----- ---- -------<br>--- --- -- ----- -- --- ---- -- be, ---- -- ------ ------<br>--- ----- -- ----",229504,229494,229104.6,229105,229104.86,229504.32,,47,"be,"
screen,html.Screen,2_1_0_1_48,2022-05-03T11:51:57.870Z,,,,,,,,,,,,,,,,,53,,,,,,,,,,,,,,394.679999999993,,response,,,,99,,,,,,,Space,keypress(Space),,,,,,,,---- -- ----- -- ------ - ------- --- ----------<br>------------- ------ ------ ---- ---- ------- ----- -- ----<br>-------- ------- -- ---------- --- - --- ----- ----- ----<br>---- --- --- ----- --- ---- ---- ------- ----- ---- -------<br>--- --- -- ----- -- --- ---- -- --- even -- ------ ------<br>--- ----- -- ----,229908,229899,229504.06,229504,229504.32,229909.42,,48,even
screen,html.Screen,2_1_0_1_49,2022-05-03T11:51:58.375Z,,,,,,,,,,,,,,,,,53,,,,,,,,,,,,,,489.5799999999872,,response,,,,99,,,,,,,Space,keypress(Space),,,,,,,,---- -- ----- -- ------ - ------- --- ----------<br>------------- ------ ------ ---- ---- ------- ----- -- ----<br>-------- ------- -- ---------- --- - --- ----- ----- ----<br>---- --- --- ----- --- ---- ---- ------- ----- ---- -------<br>--- --- -- ----- -- --- ---- -- --- ---- if ------ ------<br>--- ----- -- ----,230414,230399,229909.16,229909,229909.42,230414.82,,49,if
screen,html.Screen,2_1_0_1_50,2022-05-03T11:51:58.782Z,,,,,,,,,,,,,,,,,53,,,,,,,,,,,,,,390.179999999993,,response,,,,99,,,,,,,Space,keypress(Space),,,,,,,,---- -- ----- -- ------ - ------- --- ----------<br>------------- ------ ------ ---- ---- ------- ----- -- ----<br>-------- ------- -- ---------- --- - --- ----- ----- ----<br>---- --- --- ----- --- ---- ---- ------- ----- ---- -------<br>--- --- -- ----- -- --- ---- -- --- ---- -- that's ------<br>--- ----- -- ----,230821,230805,230414.56,230414,230414.82,230820.92,,50,that's
screen,html.Screen,2_1_0_1_51,2022-05-03T11:51:59.149Z,,,,,,,,,,,,,,,,,53,,,,,,,,,,,,,,359.0799999999872,,response,,,,99,,,,,,,Space,keypress(Space),,,,,,,,---- -- ----- -- ------ - ------- --- ----------<br>------------- ------ ------ ---- ---- ------- ----- -- ----<br>-------- ------- -- ---------- --- - --- ----- ----- ----<br>---- --- --- ----- --- ---- ---- ------- ----- ---- -------<br>--- --- -- ----- -- --- ---- -- --- ---- -- ------ really<br>--- ----- -- ----,231187,231180,230820.78,230821,230820.92,231187.74,,51,really
screen,html.Screen,2_1_0_1_52,2022-05-03T11:51:59.527Z,,,,,,,,,,,,,,,,,53,,,,,,,,,,,,,,367.2600000000093,,response,,,,99,,,,,,,Space,keypress(Space),,,,,,,,---- -- ----- -- ------ - ------- --- ----------<br>------------- ------ ------ ---- ---- ------- ----- -- ----<br>-------- ------- -- ---------- --- - --- ----- ----- ----<br>---- --- --- ----- --- ---- ---- ------- ----- ---- -------<br>--- --- -- ----- -- --- ---- -- --- ---- -- ------ ------<br>not ----- -- ----,231565,231555,231187.48,231188,231187.74,231566,,52,not
screen,html.Screen,2_1_0_1_53,2022-05-03T11:51:59.890Z,,,,,,,,,,,,,,,,,53,,,,,,,,,,,,,,350,,response,,,,99,,,,,,,Space,keypress(Space),,,,,,,,---- -- ----- -- ------ - ------- --- ----------<br>------------- ------ ------ ---- ---- ------- ----- -- ----<br>-------- ------- -- ---------- --- - --- ----- ----- ----<br>---- --- --- ----- --- ---- ---- ------- ----- ---- -------<br>--- --- -- ----- -- --- ---- -- --- ---- -- ------ ------<br>--- close -- ----,231928,231916,231565.74,231565,231566,231928.76,,53,close
screen,html.Screen,2_1_0_1_54,2022-05-03T11:52:00.267Z,,,,,,,,,,,,,,,,,53,,,,,,,,,,,,,,361.2399999999907,,response,,,,99,,,,,,,Space,keypress(Space),,,,,,,,---- -- ----- -- ------ - ------- --- ----------<br>------------- ------ ------ ---- ---- ------- ----- -- ----<br>-------- ------- -- ---------- --- - --- ----- ----- ----<br>---- --- --- ----- --- ---- ---- ------- ----- ---- -------<br>--- --- -- ----- -- --- ---- -- --- ---- -- ------ ------<br>--- ----- at ----,232306,232290,231928.5,231928,231928.76,232306.46,,54,at
screen,html.Screen,2_1_0_1_55,2022-05-03T11:52:00.745Z,,,,,,,,,,,,,,,,,53,,,,,,,,,,,,,,468.54000000000815,,response,,,,99,,,,,,,Space,keypress(Space),,,,,,,,---- -- ----- -- ------ - ------- --- ----------<br>------------- ------ ------ ---- ---- ------- ----- -- ----<br>-------- ------- -- ---------- --- - --- ----- ----- ----<br>---- --- --- ----- --- ---- ---- ------- ----- ---- -------<br>--- --- -- ----- -- --- ---- -- --- ---- -- ------ ------<br>--- ----- -- all.,232785,232775,232306.2,232306,232306.46,232785.8,,55,all.
Item 99,flow.Loop,2_1_0_1,2022-05-03T11:52:00.746Z,,,,,,,,,,,,,,,,,,,,,,,,,,,,,,,28818.5,,completion,,,,,H,,,,,,,,,,,silence,,,,,232785,232775,203939.82,203943,203956.5,232785.8,,,
Question 1,html.Screen,2_1_0_2,2022-05-03T11:52:04.963Z,,,,,,,,,,,,,,,,,,,,,,,,,,,,true,FALSE,,4207.200000000012,,response,,,,99,H,,,,,,FALSE,click #choice-2,,,,silence,,,,,237002,236993,232785.52,232785,232785.8,237011.56,,,
Question 2,html.Screen,2_1_0_3,2022-05-03T11:52:09.571Z,,,,,,,,,,,,,,,,,,,,,,,,,,,,true,TRUE,,4591.440000000002,,response,,,,99,H,,,,,,TRUE,click #choice-1,,,,silence,,,,,241610,241603,236998.8,237002,237011.56,241613.6,,,
Item 99,flow.Sequence,2_1_0,2022-05-03T11:52:09.572Z,,,,,,,,,,,,,,,,,,,,,,,,,,,,,,,47649.82000000001,,completion,,,,,,,,,,,,,,,,,,,,,241610,241603,193948.7,193953,193953.18,241613.6,,,
Holding screen,html.Screen,2_1_1_0,2022-05-03T11:52:19.563Z,,,,,,,,,,,,,,,,,,,,,,,,,,,,,,,10003.320000000007,,timeout,,,,,,,,,,,,,,,,,,,,,251602,251600.24,241609.2,241611,241613.6,251616.92,,,
screen,html.Screen,2_1_1_1_0,2022-05-03T11:52:21.786Z,,,,,,,,,,,,,,,,,54,,,,,,,,,,,,,,2189.079999999987,,response,,,,100,,,,,,,Space,keypress(Space),,,,,,,,At --- ---- --- ------ ----- ------- ---- -- --- ------- --<br>------- ---------- ------ -- ----- -- ----- -- ---- ------<br>--- ----- --- --- ------ -------- ----- --- ------ ----- --<br>----- ----- ---------- --- --- ------ ------ ---- -- ------<br>------- --- ------ ----- --- ---- ------- -- ---- --- --<br>------- ------,253825,253806,251600.24,251603,251616.92,253825.7,,0,At
screen,html.Screen,2_1_1_1_1,2022-05-03T11:52:22.309Z,,,,,,,,,,,,,,,,,54,,,,,,,,,,,,,,510.29999999998836,,response,,,,100,,,,,,,Space,keypress(Space),,,,,,,,-- the ---- --- ------ ----- ------- ---- -- --- ------- --<br>------- ---------- ------ -- ----- -- ----- -- ---- ------<br>--- ----- --- --- ------ -------- ----- --- ------ ----- --<br>----- ----- ---------- --- --- ------ ------ ---- -- ------<br>------- --- ------ ----- --- ---- ------- -- ---- --- --<br>------- ------,254348,254336,253825.42,253825,253825.7,254348.56,,1,the
screen,html.Screen,2_1_1_1_2,2022-05-03T11:52:22.773Z,,,,,,,,,,,,,,,,,54,,,,,,,,,,,,,,457.4400000000023,,response,,,,100,,,,,,,Space,keypress(Space),,,,,,,,-- --- time --- ------ ----- ------- ---- -- --- ------- --<br>------- ---------- ------ -- ----- -- ----- -- ---- ------<br>--- ----- --- --- ------ -------- ----- --- ------ ----- --<br>----- ----- ---------- --- --- ------ ------ ---- -- ------<br>------- --- ------ ----- --- ---- ------- -- ---- --- --<br>------- ------,254813,254806,254348.3,254349,254348.56,254813.26,,2,time
screen,html.Screen,2_1_1_1_3,2022-05-03T11:52:23.199Z,,,,,,,,,,,,,,,,,54,,,,,,,,,,,,,,414.7399999999907,,response,,,,100,,,,,,,Space,keypress(Space),,,,,,,,-- --- ---- the ------ ----- ------- ---- -- --- ------- --<br>------- ---------- ------ -- ----- -- ----- -- ---- ------<br>--- ----- --- --- ------ -------- ----- --- ------ ----- --<br>----- ----- ---------- --- --- ------ ------ ---- -- ------<br>------- --- ------ ----- --- ---- ------- -- ---- --- --<br>------- ------,255238,255228,254813,254813,254813.26,255239,,3,the
screen,html.Screen,2_1_1_1_4,2022-05-03T11:52:23.658Z,,,,,,,,,,,,,,,,,54,,,,,,,,,,,,,,442,,response,,,,100,,,,,,,Space,keypress(Space),,,,,,,,-- --- ---- --- French ----- ------- ---- -- --- ------- --<br>------- ---------- ------ -- ----- -- ----- -- ---- ------<br>--- ----- --- --- ------ -------- ----- --- ------ ----- --<br>----- ----- ---------- --- --- ------ ------ ---- -- ------<br>------- --- ------ ----- --- ---- ------- -- ---- --- --<br>------- ------,255697,255681,255238.74,255238,255239,255699.32,,4,French
screen,html.Screen,2_1_1_1_5,2022-05-03T11:52:24.103Z,,,,,,,,,,,,,,,,,54,,,,,,,,,,,,,,433.679999999993,,response,,,,100,,,,,,,Space,keypress(Space),,,,,,,,-- --- ---- --- ------ crown ------- ---- -- --- ------- --<br>------- ---------- ------ -- ----- -- ----- -- ---- ------<br>--- ----- --- --- ------ -------- ----- --- ------ ----- --<br>----- ----- ---------- --- --- ------ ------ ---- -- ------<br>------- --- ------ ----- --- ---- ------- -- ---- --- --<br>------- ------,256142,256133,255697.36,255697,255699.32,256142.8,,5,crown
screen,html.Screen,2_1_1_1_6,2022-05-03T11:52:24.578Z,,,,,,,,,,,,,,,,,54,,,,,,,,,,,,,,460.20000000001164,,response,,,,100,,,,,,,Space,keypress(Space),,,,,,,,-- --- ---- --- ------ ----- secured ---- -- --- ------- --<br>------- ---------- ------ -- ----- -- ----- -- ---- ------<br>--- ----- --- --- ------ -------- ----- --- ------ ----- --<br>----- ----- ---------- --- --- ------ ------ ---- -- ------<br>------- --- ------ ----- --- ---- ------- -- ---- --- --<br>------- ------,256618,256603,256142.54,256142,256142.8,256618.4,,6,secured
screen,html.Screen,2_1_1_1_7,2022-05-03T11:52:25.065Z,,,,,,,,,,,,,,,,,54,,,,,,,,,,,,,,467.6000000000058,,response,,,,100,,,,,,,Space,keypress(Space),,,,,,,,-- --- ---- --- ------ ----- ------- much -- --- ------- --<br>------- ---------- ------ -- ----- -- ----- -- ---- ------<br>--- ----- --- --- ------ -------- ----- --- ------ ----- --<br>----- ----- ---------- --- --- ------ ------ ---- -- ------<br>------- --- ------ ----- --- ---- ------- -- ---- --- --<br>------- ------,257104,257086,256618.14,256618,256618.4,257104.56,,7,much
screen,html.Screen,2_1_1_1_8,2022-05-03T11:52:25.499Z,,,,,,,,,,,,,,,,,54,,,,,,,,,,,,,,420.4400000000023,,response,,,,100,,,,,,,Space,keypress(Space),,,,,,,,-- --- ---- --- ------ ----- ------- ---- of --- ------- --<br>------- ---------- ------ -- ----- -- ----- -- ---- ------<br>--- ----- --- --- ------ -------- ----- --- ------ ----- --<br>----- ----- ---------- --- --- ------ ------ ---- -- ------<br>------- --- ------ ----- --- ---- ------- -- ---- --- --<br>------- ------,257539,257525,257104.28,257104,257104.56,257539.26,,8,of
screen,html.Screen,2_1_1_1_9,2022-05-03T11:52:25.919Z,,,,,,,,,,,,,,,,,54,,,,,,,,,,,,,,406.7399999999907,,response,,,,100,,,,,,,Space,keypress(Space),,,,,,,,-- --- ---- --- ------ ----- ------- ---- -- its ------- --<br>------- ---------- ------ -- ----- -- ----- -- ---- ------<br>--- ----- --- --- ------ -------- ----- --- ------ ----- --<br>----- ----- ---------- --- --- ------ ------ ---- -- ------<br>------- --- ------ ----- --- ---- ------- -- ---- --- --<br>------- ------,257957,257946,257539,257539,257539.26,257958.28,,9,its
screen,html.Screen,2_1_1_1_10,2022-05-03T11:52:26.344Z,,,,,,,,,,,,,,,,,54,,,,,,,,,,,,,,409.72000000000116,,response,,,,100,,,,,,,Space,keypress(Space),,,,,,,,-- --- ---- --- ------ ----- ------- ---- -- --- revenue --<br>------- ---------- ------ -- ----- -- ----- -- ---- ------<br>--- ----- --- --- ------ -------- ----- --- ------ ----- --<br>----- ----- ---------- --- --- ------ ------ ---- -- ------<br>------- --- ------ ----- --- ---- ------- -- ---- --- --<br>------- ------,258382,258368,257958.04,257958,257958.28,258383.34,,10,revenue
screen,html.Screen,2_1_1_1_11,2022-05-03T11:52:26.856Z,,,,,,,,,,,,,,,,,54,,,,,,,,,,,,,,499.6600000000035,,response,,,,100,,,,,,,Space,keypress(Space),,,,,,,,-- --- ---- --- ------ ----- ------- ---- -- --- ------- by<br>------- ---------- ------ -- ----- -- ----- -- ---- ------<br>--- ----- --- --- ------ -------- ----- --- ------ ----- --<br>----- ----- ---------- --- --- ------ ------ ---- -- ------<br>------- --- ------ ----- --- ---- ------- -- ---- --- --<br>------- ------,258894,258883,258383.12,258383,258383.34,258895.08,,11,by
screen,html.Screen,2_1_1_1_12,2022-05-03T11:52:27.297Z,,,,,,,,,,,,,,,,,54,,,,,,,,,,,,,,426.9200000000128,,response,,,,100,,,,,,,Space,keypress(Space),,,,,,,,-- --- ---- --- ------ ----- ------- ---- -- --- ------- --<br>issuing ---------- ------ -- ----- -- ----- -- ---- ------<br>--- ----- --- --- ------ -------- ----- --- ------ ----- --<br>----- ----- ---------- --- --- ------ ------ ---- -- ------<br>------- --- ------ ----- --- ---- ------- -- ---- --- --<br>------- ------,259336,259322,258894.82,258895,258895.08,259336.76,,12,issuing
screen,html.Screen,2_1_1_1_13,2022-05-03T11:52:27.755Z,,,,,,,,,,,,,,,,,54,,,,,,,,,,,,,,453.2399999999907,,response,,,,100,,,,,,,Space,keypress(Space),,,,,,,,-- --- ---- --- ------ ----- ------- ---- -- --- ------- --<br>------- government ------ -- ----- -- ----- -- ---- ------<br>--- ----- --- --- ------ -------- ----- --- ------ ----- --<br>----- ----- ---------- --- --- ------ ------ ---- -- ------<br>------- --- ------ ----- --- ---- ------- -- ---- --- --<br>------- ------,259794,259790,259336.5,259336,259336.76,259794.66,,13,government
screen,html.Screen,2_1_1_1_14,2022-05-03T11:52:28.176Z,,,,,,,,,,,,,,,,,54,,,,,,,,,,,,,,402.3399999999965,,response,,,,100,,,,,,,Space,keypress(Space),,,,,,,,-- --- ---- --- ------ ----- ------- ---- -- --- ------- --<br>------- ---------- bonds. -- ----- -- ----- -- ---- ------<br>--- ----- --- --- ------ -------- ----- --- ------ ----- --<br>----- ----- ---------- --- --- ------ ------ ---- -- ------<br>------- --- ------ ----- --- ---- ------- -- ---- --- --<br>------- ------,260215,260197,259794.48,259794,259794.66,260215.96,,14,bonds.
screen,html.Screen,2_1_1_1_15,2022-05-03T11:52:28.707Z,,,,,,,,,,,,,,,,,54,,,,,,,,,,,,,,511.04000000000815,,response,,,,100,,,,,,,Space,keypress(Space),,,,,,,,-- --- ---- --- ------ ----- ------- ---- -- --- ------- --<br>------- ---------- ------ In ----- -- ----- -- ---- ------<br>--- ----- --- --- ------ -------- ----- --- ------ ----- --<br>----- ----- ---------- --- --- ------ ------ ---- -- ------<br>------- --- ------ ----- --- ---- ------- -- ---- --- --<br>------- ------,260745,260727,260215.72,260216,260215.96,260745.9,,15,In
screen,html.Screen,2_1_1_1_16,2022-05-03T11:52:29.080Z,,,,,,,,,,,,,,,,,54,,,,,,,,,,,,,,357.1000000000058,,response,,,,100,,,,,,,Space,keypress(Space),,,,,,,,"-- --- ---- --- ------ ----- ------- ---- -- --- ------- --<br>------- ---------- ------ -- 1727, -- ----- -- ---- ------<br>--- ----- --- --- ------ -------- ----- --- ------ ----- --<br>----- ----- ---------- --- --- ------ ------ ---- -- ------<br>------- --- ------ ----- --- ---- ------- -- ---- --- --<br>------- ------",261119,261103,260745.64,260746,260745.9,261119.86,,16,"1727,"
screen,html.Screen,2_1_1_1_17,2022-05-03T11:52:29.731Z,,,,,,,,,,,,,,,,,54,,,,,,,,,,,,,,638.140000000014,,response,,,,100,,,,,,,Space,keypress(Space),,,,,,,,-- --- ---- --- ------ ----- ------- ---- -- --- ------- --<br>------- ---------- ------ -- ----- in ----- -- ---- ------<br>--- ----- --- --- ------ -------- ----- --- ------ ----- --<br>----- ----- ---------- --- --- ------ ------ ---- -- ------<br>------- --- ------ ----- --- ---- ------- -- ---- --- --<br>------- ------,261770,261758,261119.6,261120,261119.86,261770.96,,17,in
screen,html.Screen,2_1_1_1_18,2022-05-03T11:52:30.202Z,,,,,,,,,,,,,,,,,54,,,,,,,,,,,,,,457.04000000000815,,response,,,,100,,,,,,,Space,keypress(Space),,,,,,,,-- --- ---- --- ------ ----- ------- ---- -- --- ------- --<br>------- ---------- ------ -- ----- -- order -- ---- ------<br>--- ----- --- --- ------ -------- ----- --- ------ ----- --<br>----- ----- ---------- --- --- ------ ------ ---- -- ------<br>------- --- ------ ----- --- ---- ------- -- ---- --- --<br>------- ------,262241,262228,261770.7,261770,261770.96,262241.08,,18,order
screen,html.Screen,2_1_1_1_19,2022-05-03T11:52:30.833Z,,,,,,,,,,,,,,,,,54,,,,,,,,,,,,,,627.9199999999837,,response,,,,100,,,,,,,Space,keypress(Space),,,,,,,,-- --- ---- --- ------ ----- ------- ---- -- --- ------- --<br>------- ---------- ------ -- ----- -- ----- to ---- ------<br>--- ----- --- --- ------ -------- ----- --- ------ ----- --<br>----- ----- ---------- --- --- ------ ------ ---- -- ------<br>------- --- ------ ----- --- ---- ------- -- ---- --- --<br>------- ------,262872,262869,262240.82,262241,262241.08,262872.42,,19,to
screen,html.Screen,2_1_1_1_20,2022-05-03T11:52:31.259Z,,,,,,,,,,,,,,,,,54,,,,,,,,,,,,,,417.5800000000163,,response,,,,100,,,,,,,Space,keypress(Space),,,,,,,,-- --- ---- --- ------ ----- ------- ---- -- --- ------- --<br>------- ---------- ------ -- ----- -- ----- -- save ------<br>--- ----- --- --- ------ -------- ----- --- ------ ----- --<br>----- ----- ---------- --- --- ------ ------ ---- -- ------<br>------- --- ------ ----- --- ---- ------- -- ---- --- --<br>------- ------,263298,263290,262872.18,262872,262872.42,263299.16,,20,save
screen,html.Screen,2_1_1_1_21,2022-05-03T11:52:31.612Z,,,,,,,,,,,,,,,,,54,,,,,,,,,,,,,,333.8400000000256,,response,,,,100,,,,,,,Space,keypress(Space),,,,,,,,"-- --- ---- --- ------ ----- ------- ---- -- --- ------- --<br>------- ---------- ------ -- ----- -- ----- -- ---- money,<br>--- ----- --- --- ------ -------- ----- --- ------ ----- --<br>----- ----- ---------- --- --- ------ ------ ---- -- ------<br>------- --- ------ ----- --- ---- ------- -- ---- --- --<br>------- ------",263650,263633,263298.82,263298,263299.16,263651.12,,21,"money,"
screen,html.Screen,2_1_1_1_22,2022-05-03T11:52:31.994Z,,,,,,,,,,,,,,,,,54,,,,,,,,,,,,,,372.88000000000466,,response,,,,100,,,,,,,Space,keypress(Space),,,,,,,,-- --- ---- --- ------ ----- ------- ---- -- --- ------- --<br>------- ---------- ------ -- ----- -- ----- -- ---- ------<br>the ----- --- --- ------ -------- ----- --- ------ ----- --<br>----- ----- ---------- --- --- ------ ------ ---- -- ------<br>------- --- ------ ----- --- ---- ------- -- ---- --- --<br>------- ------,264033,264024,263650.84,263650,263651.12,264033.28,,22,the
screen,html.Screen,2_1_1_1_23,2022-05-03T11:52:32.340Z,,,,,,,,,,,,,,,,,54,,,,,,,,,,,,,,334.71999999997206,,response,,,,100,,,,,,,Space,keypress(Space),,,,,,,,-- --- ---- --- ------ ----- ------- ---- -- --- ------- --<br>------- ---------- ------ -- ----- -- ----- -- ---- ------<br>--- state --- --- ------ -------- ----- --- ------ ----- --<br>----- ----- ---------- --- --- ------ ------ ---- -- ------<br>------- --- ------ ----- --- ---- ------- -- ---- --- --<br>------- ------,264379,264368,264033.02,264033,264033.28,264378.9,,23,state
screen,html.Screen,2_1_1_1_24,2022-05-03T11:52:32.704Z,,,,,,,,,,,,,,,,,54,,,,,,,,,,,,,,349.0999999999767,,response,,,,100,,,,,,,Space,keypress(Space),,,,,,,,-- --- ---- --- ------ ----- ------- ---- -- --- ------- --<br>------- ---------- ------ -- ----- -- ----- -- ---- ------<br>--- ----- cut --- ------ -------- ----- --- ------ ----- --<br>----- ----- ---------- --- --- ------ ------ ---- -- ------<br>------- --- ------ ----- --- ---- ------- -- ---- --- --<br>------- ------,264742,264728,264378.64,264379,264378.9,264743.78,,24,cut
screen,html.Screen,2_1_1_1_25,2022-05-03T11:52:33.091Z,,,,,,,,,,,,,,,,,54,,,,,,,,,,,,,,375.21999999997206,,response,,,,100,,,,,,,Space,keypress(Space),,,,,,,,-- --- ---- --- ------ ----- ------- ---- -- --- ------- --<br>------- ---------- ------ -- ----- -- ----- -- ---- ------<br>--- ----- --- the ------ -------- ----- --- ------ ----- --<br>----- ----- ---------- --- --- ------ ------ ---- -- ------<br>------- --- ------ ----- --- ---- ------- -- ---- --- --<br>------- ------,265130,265119,264743.48,264743,264743.78,265131,,25,the
screen,html.Screen,2_1_1_1_26,2022-05-03T11:52:33.462Z,,,,,,,,,,,,,,,,,54,,,,,,,,,,,,,,362,,response,,,,100,,,,,,,Space,keypress(Space),,,,,,,,-- --- ---- --- ------ ----- ------- ---- -- --- ------- --<br>------- ---------- ------ -- ----- -- ----- -- ---- ------<br>--- ----- --- --- bonds' -------- ----- --- ------ ----- --<br>----- ----- ---------- --- --- ------ ------ ---- -- ------<br>------- --- ------ ----- --- ---- ------- -- ---- --- --<br>------- ------,265501,265493,265130.72,265131,265131,265502.1,,26,bonds'
screen,html.Screen,2_1_1_1_27,2022-05-03T11:52:33.810Z,,,,,,,,,,,,,,,,,54,,,,,,,,,,,,,,333.9000000000233,,response,,,,100,,,,,,,Space,keypress(Space),,,,,,,,-- --- ---- --- ------ ----- ------- ---- -- --- ------- --<br>------- ---------- ------ -- ----- -- ----- -- ---- ------<br>--- ----- --- --- ------ interest ----- --- ------ ----- --<br>----- ----- ---------- --- --- ------ ------ ---- -- ------<br>------- --- ------ ----- --- ---- ------- -- ---- --- --<br>------- ------,265849,265836,265501.82,265502,265502.1,265849.24,,27,interest
screen,html.Screen,2_1_1_1_28,2022-05-03T11:52:34.233Z,,,,,,,,,,,,,,,,,54,,,,,,,,,,,,,,408.7600000000093,,response,,,,100,,,,,,,Space,keypress(Space),,,,,,,,-- --- ---- --- ------ ----- ------- ---- -- --- ------- --<br>------- ---------- ------ -- ----- -- ----- -- ---- ------<br>--- ----- --- --- ------ -------- rate. --- ------ ----- --<br>----- ----- ---------- --- --- ------ ------ ---- -- ------<br>------- --- ------ ----- --- ---- ------- -- ---- --- --<br>------- ------,266272,266258,265849,265849,265849.24,266276.26,,28,rate.
screen,html.Screen,2_1_1_1_29,2022-05-03T11:52:34.655Z,,,,,,,,,,,,,,,,,54,,,,,,,,,,,,,,404.7399999999907,,response,,,,100,,,,,,,Space,keypress(Space),,,,,,,,-- --- ---- --- ------ ----- ------- ---- -- --- ------- --<br>------- ---------- ------ -- ----- -- ----- -- ---- ------<br>--- ----- --- --- ------ -------- ----- The ------ ----- --<br>----- ----- ---------- --- --- ------ ------ ---- -- ------<br>------- --- ------ ----- --- ---- ------- -- ---- --- --<br>------- ------,266694,266681,266272.92,266273,266276.26,266694.22,,29,The
screen,html.Screen,2_1_1_1_30,2022-05-03T11:52:35.037Z,,,,,,,,,,,,,,,,,54,,,,,,,,,,,,,,360.78000000002794,,response,,,,100,,,,,,,Space,keypress(Space),,,,,,,,-- --- ---- --- ------ ----- ------- ---- -- --- ------- --<br>------- ---------- ------ -- ----- -- ----- -- ---- ------<br>--- ----- --- --- ------ -------- ----- --- market ----- --<br>----- ----- ---------- --- --- ------ ------ ---- -- ------<br>------- --- ------ ----- --- ---- ------- -- ---- --- --<br>------- ------,267075,267055,266693.96,266694,266694.22,267076.32,,30,market
screen,html.Screen,2_1_1_1_31,2022-05-03T11:52:35.351Z,,,,,,,,,,,,,,,,,54,,,,,,,,,,,,,,307.679999999993,,response,,,,100,,,,,,,Space,keypress(Space),,,,,,,,-- --- ---- --- ------ ----- ------- ---- -- --- ------- --<br>------- ---------- ------ -- ----- -- ----- -- ---- ------<br>--- ----- --- --- ------ -------- ----- --- ------ value --<br>----- ----- ---------- --- --- ------ ------ ---- -- ------<br>------- --- ------ ----- --- ---- ------- -- ---- --- --<br>------- ------,267389,267384,267076.06,267076,267076.32,267390.44,,31,value
screen,html.Screen,2_1_1_1_32,2022-05-03T11:52:35.751Z,,,,,,,,,,,,,,,,,54,,,,,,,,,,,,,,384.5599999999977,,response,,,,100,,,,,,,Space,keypress(Space),,,,,,,,-- --- ---- --- ------ ----- ------- ---- -- --- ------- --<br>------- ---------- ------ -- ----- -- ----- -- ---- ------<br>--- ----- --- --- ------ -------- ----- --- ------ ----- of<br>----- ----- ---------- --- --- ------ ------ ---- -- ------<br>------- --- ------ ----- --- ---- ------- -- ---- --- --<br>------- ------,267790,267775,267390.16,267390,267390.44,267790.16,,32,of
screen,html.Screen,2_1_1_1_33,2022-05-03T11:52:36.168Z,,,,,,,,,,,,,,,,,54,,,,,,,,,,,,,,406.8400000000256,,response,,,,100,,,,,,,Space,keypress(Space),,,,,,,,-- --- ---- --- ------ ----- ------- ---- -- --- ------- --<br>------- ---------- ------ -- ----- -- ----- -- ---- ------<br>--- ----- --- --- ------ -------- ----- --- ------ ----- --<br>these ----- ---------- --- --- ------ ------ ---- -- ------<br>------- --- ------ ----- --- ---- ------- -- ---- --- --<br>------- ------,268208,268197,267789.88,267790,267790.16,268208.06,,33,these
screen,html.Screen,2_1_1_1_34,2022-05-03T11:52:36.565Z,,,,,,,,,,,,,,,,,54,,,,,,,,,,,,,,377.9400000000023,,response,,,,100,,,,,,,Space,keypress(Space),,,,,,,,-- --- ---- --- ------ ----- ------- ---- -- --- ------- --<br>------- ---------- ------ -- ----- -- ----- -- ---- ------<br>--- ----- --- --- ------ -------- ----- --- ------ ----- --<br>----- bonds ---------- --- --- ------ ------ ---- -- ------<br>------- --- ------ ----- --- ---- ------- -- ---- --- --<br>------- ------,268604,268586,268207.78,268208,268208.06,268604.58,,34,bonds
screen,html.Screen,2_1_1_1_35,2022-05-03T11:52:36.938Z,,,,,,,,,,,,,,,,,54,,,,,,,,,,,,,,357.4199999999837,,response,,,,100,,,,,,,Space,keypress(Space),,,,,,,,"-- --- ---- --- ------ ----- ------- ---- -- --- ------- --<br>------- ---------- ------ -- ----- -- ----- -- ---- ------<br>--- ----- --- --- ------ -------- ----- --- ------ ----- --<br>----- ----- plummeted, --- --- ------ ------ ---- -- ------<br>------- --- ------ ----- --- ---- ------- -- ---- --- --<br>------- ------",268977,268962,268604.32,268604,268604.58,268977.52,,35,"plummeted,"
screen,html.Screen,2_1_1_1_36,2022-05-03T11:52:37.440Z,,,,,,,,,,,,,,,,,54,,,,,,,,,,,,,,483.4799999999814,,response,,,,100,,,,,,,Space,keypress(Space),,,,,,,,-- --- ---- --- ------ ----- ------- ---- -- --- ------- --<br>------- ---------- ------ -- ----- -- ----- -- ---- ------<br>--- ----- --- --- ------ -------- ----- --- ------ ----- --<br>----- ----- ---------- and --- ------ ------ ---- -- ------<br>------- --- ------ ----- --- ---- ------- -- ---- --- --<br>------- ------,269479,269461,268977.3,268977,268977.52,269479.94,,36,and
screen,html.Screen,2_1_1_1_37,2022-05-03T11:52:37.851Z,,,,,,,,,,,,,,,,,54,,,,,,,,,,,,,,404.0599999999977,,response,,,,100,,,,,,,Space,keypress(Space),,,,,,,,-- --- ---- --- ------ ----- ------- ---- -- --- ------- --<br>------- ---------- ------ -- ----- -- ----- -- ---- ------<br>--- ----- --- --- ------ -------- ----- --- ------ ----- --<br>----- ----- ---------- --- the ------ ------ ---- -- ------<br>------- --- ------ ----- --- ---- ------- -- ---- --- --<br>------- ------,269890,269884,269479.68,269480,269479.94,269890.38,,37,the
screen,html.Screen,2_1_1_1_38,2022-05-03T11:52:38.436Z,,,,,,,,,,,,,,,,,54,,,,,,,,,,,,,,571.6199999999953,,response,,,,100,,,,,,,Space,keypress(Space),,,,,,,,-- --- ---- --- ------ ----- ------- ---- -- --- ------- --<br>------- ---------- ------ -- ----- -- ----- -- ---- ------<br>--- ----- --- --- ------ -------- ----- --- ------ ----- --<br>----- ----- ---------- --- --- market ------ ---- -- ------<br>------- --- ------ ----- --- ---- ------- -- ---- --- --<br>------- ------,270474,270462,269890.12,269890,269890.38,270475.4,,38,market
screen,html.Screen,2_1_1_1_39,2022-05-03T11:52:38.856Z,,,,,,,,,,,,,,,,,54,,,,,,,,,,,,,,407.5999999999767,,response,,,,100,,,,,,,Space,keypress(Space),,,,,,,,-- --- ---- --- ------ ----- ------- ---- -- --- ------- --<br>------- ---------- ------ -- ----- -- ----- -- ---- ------<br>--- ----- --- --- ------ -------- ----- --- ------ ----- --<br>----- ----- ---------- --- --- ------ became ---- -- ------<br>------- --- ------ ----- --- ---- ------- -- ---- --- --<br>------- ------,270894,270883,270475.12,270475,270475.4,270894.94,,39,became
screen,html.Screen,2_1_1_1_40,2022-05-03T11:52:39.207Z,,,,,,,,,,,,,,,,,54,,,,,,,,,,,,,,332.0599999999977,,response,,,,100,,,,,,,Space,keypress(Space),,,,,,,,-- --- ---- --- ------ ----- ------- ---- -- --- ------- --<br>------- ---------- ------ -- ----- -- ----- -- ---- ------<br>--- ----- --- --- ------ -------- ----- --- ------ ----- --<br>----- ----- ---------- --- --- ------ ------ wary -- ------<br>------- --- ------ ----- --- ---- ------- -- ---- --- --<br>------- ------,271245,271227,270894.64,270895,270894.94,271246.16,,40,wary
screen,html.Screen,2_1_1_1_41,2022-05-03T11:52:39.618Z,,,,,,,,,,,,,,,,,54,,,,,,,,,,,,,,403.8400000000256,,response,,,,100,,,,,,,Space,keypress(Space),,,,,,,,-- --- ---- --- ------ ----- ------- ---- -- --- ------- --<br>------- ---------- ------ -- ----- -- ----- -- ---- ------<br>--- ----- --- --- ------ -------- ----- --- ------ ----- --<br>----- ----- ---------- --- --- ------ ------ ---- of ------<br>------- --- ------ ----- --- ---- ------- -- ---- --- --<br>------- ------,271656,271650,271245.9,271245,271246.16,271658.62,,41,of
screen,html.Screen,2_1_1_1_42,2022-05-03T11:52:39.962Z,,,,,,,,,,,,,,,,,54,,,,,,,,,,,,,,334.38000000000466,,response,,,,100,,,,,,,Space,keypress(Space),,,,,,,,-- --- ---- --- ------ ----- ------- ---- -- --- ------- --<br>------- ---------- ------ -- ----- -- ----- -- ---- ------<br>--- ----- --- --- ------ -------- ----- --- ------ ----- --<br>----- ----- ---------- --- --- ------ ------ ---- -- French<br>------- --- ------ ----- --- ---- ------- -- ---- --- --<br>------- ------,272001,271993,271657.14,271657,271658.62,272001.26,,42,French
screen,html.Screen,2_1_1_1_43,2022-05-03T11:52:40.356Z,,,,,,,,,,,,,,,,,54,,,,,,,,,,,,,,381.7399999999907,,response,,,,100,,,,,,,Space,keypress(Space),,,,,,,,-- --- ---- --- ------ ----- ------- ---- -- --- ------- --<br>------- ---------- ------ -- ----- -- ----- -- ---- ------<br>--- ----- --- --- ------ -------- ----- --- ------ ----- --<br>----- ----- ---------- --- --- ------ ------ ---- -- ------<br>credit. --- ------ ----- --- ---- ------- -- ---- --- --<br>------- ------,272395,272383,272001,272001,272001.26,272395.76,,43,credit.
screen,html.Screen,2_1_1_1_44,2022-05-03T11:52:40.766Z,,,,,,,,,,,,,,,,,54,,,,,,,,,,,,,,395.2399999999907,,response,,,,100,,,,,,,Space,keypress(Space),,,,,,,,-- --- ---- --- ------ ----- ------- ---- -- --- ------- --<br>------- ---------- ------ -- ----- -- ----- -- ---- ------<br>--- ----- --- --- ------ -------- ----- --- ------ ----- --<br>----- ----- ---------- --- --- ------ ------ ---- -- ------<br>------- The ------ ----- --- ---- ------- -- ---- --- --<br>------- ------,272805,272791,272395.4,272395,272395.76,272805.74,,44,The
screen,html.Screen,2_1_1_1_45,2022-05-03T11:52:41.205Z,,,,,,,,,,,,,,,,,54,,,,,,,,,,,,,,422.2600000000093,,response,,,,100,,,,,,,Space,keypress(Space),,,,,,,,-- --- ---- --- ------ ----- ------- ---- -- --- ------- --<br>------- ---------- ------ -- ----- -- ----- -- ---- ------<br>--- ----- --- --- ------ -------- ----- --- ------ ----- --<br>----- ----- ---------- --- --- ------ ------ ---- -- ------<br>------- --- French ----- --- ---- ------- -- ---- --- --<br>------- ------,273244,273228,272805.48,272806,272805.74,273244.58,,45,French
screen,html.Screen,2_1_1_1_46,2022-05-03T11:52:41.556Z,,,,,,,,,,,,,,,,,54,,,,,,,,,,,,,,342.4199999999837,,response,,,,100,,,,,,,Space,keypress(Space),,,,,,,,-- --- ---- --- ------ ----- ------- ---- -- --- ------- --<br>------- ---------- ------ -- ----- -- ----- -- ---- ------<br>--- ----- --- --- ------ -------- ----- --- ------ ----- --<br>----- ----- ---------- --- --- ------ ------ ---- -- ------<br>------- --- ------ state --- ---- ------- -- ---- --- --<br>------- ------,273595,273587,273244.32,273244,273244.58,273596.36,,46,state
screen,html.Screen,2_1_1_1_47,2022-05-03T11:52:41.935Z,,,,,,,,,,,,,,,,,54,,,,,,,,,,,,,,365.64000000001397,,response,,,,100,,,,,,,Space,keypress(Space),,,,,,,,-- --- ---- --- ------ ----- ------- ---- -- --- ------- --<br>------- ---------- ------ -- ----- -- ----- -- ---- ------<br>--- ----- --- --- ------ -------- ----- --- ------ ----- --<br>----- ----- ---------- --- --- ------ ------ ---- -- ------<br>------- --- ------ ----- was ---- ------- -- ---- --- --<br>------- ------,273974,273962,273595.46,273595,273596.36,273975.04,,47,was
screen,html.Screen,2_1_1_1_48,2022-05-03T11:52:42.310Z,,,,,,,,,,,,,,,,,54,,,,,,,,,,,,,,360.96000000002095,,response,,,,100,,,,,,,Space,keypress(Space),,,,,,,,-- --- ---- --- ------ ----- ------- ---- -- --- ------- --<br>------- ---------- ------ -- ----- -- ----- -- ---- ------<br>--- ----- --- --- ------ -------- ----- --- ------ ----- --<br>----- ----- ---------- --- --- ------ ------ ---- -- ------<br>------- --- ------ ----- --- left ------- -- ---- --- --<br>------- ------,274348,274336,273974.76,273974,273975.04,274348.96,,48,left
screen,html.Screen,2_1_1_1_49,2022-05-03T11:52:42.720Z,,,,,,,,,,,,,,,,,54,,,,,,,,,,,,,,394.03999999997905,,response,,,,100,,,,,,,Space,keypress(Space),,,,,,,,-- --- ---- --- ------ ----- ------- ---- -- --- ------- --<br>------- ---------- ------ -- ----- -- ----- -- ---- ------<br>--- ----- --- --- ------ -------- ----- --- ------ ----- --<br>----- ----- ---------- --- --- ------ ------ ---- -- ------<br>------- --- ------ ----- --- ---- without -- ---- --- --<br>------- ------,274760,274743,274348.7,274348,274348.96,274760.42,,49,without
screen,html.Screen,2_1_1_1_50,2022-05-03T11:52:43.058Z,,,,,,,,,,,,,,,,,54,,,,,,,,,,,,,,325.5800000000163,,response,,,,100,,,,,,,Space,keypress(Space),,,,,,,,-- --- ---- --- ------ ----- ------- ---- -- --- ------- --<br>------- ---------- ------ -- ----- -- ----- -- ---- ------<br>--- ----- --- --- ------ -------- ----- --- ------ ----- --<br>----- ----- ---------- --- --- ------ ------ ---- -- ------<br>------- --- ------ ----- --- ---- ------- an ---- --- --<br>------- ------,275097,275086,274760.16,274760,274760.42,275147.28,,50,an
screen,html.Screen,2_1_1_1_51,2022-05-03T11:52:43.471Z,,,,,,,,,,,,,,,,,54,,,,,,,,,,,,,,346.71999999997206,,response,,,,100,,,,,,,Space,keypress(Space),,,,,,,,-- --- ---- --- ------ ----- ------- ---- -- --- ------- --<br>------- ---------- ------ -- ----- -- ----- -- ---- ------<br>--- ----- --- --- ------ -------- ----- --- ------ ----- --<br>----- ----- ---------- --- --- ------ ------ ---- -- ------<br>------- --- ------ ----- --- ---- ------- -- easy --- --<br>------- ------,275510,275494,275097.7,275097,275147.28,275509.96,,51,easy
screen,html.Screen,2_1_1_1_52,2022-05-03T11:52:43.837Z,,,,,,,,,,,,,,,,,54,,,,,,,,,,,,,,359.03999999997905,,response,,,,100,,,,,,,Space,keypress(Space),,,,,,,,-- --- ---- --- ------ ----- ------- ---- -- --- ------- --<br>------- ---------- ------ -- ----- -- ----- -- ---- ------<br>--- ----- --- --- ------ -------- ----- --- ------ ----- --<br>----- ----- ---------- --- --- ------ ------ ---- -- ------<br>------- --- ------ ----- --- ---- ------- -- ---- way --<br>------- ------,275876,275869,275509.7,275510,275509.96,275876.8,,52,way
screen,html.Screen,2_1_1_1_53,2022-05-03T11:52:44.260Z,,,,,,,,,,,,,,,,,54,,,,,,,,,,,,,,414.20000000001164,,response,,,,100,,,,,,,Space,keypress(Space),,,,,,,,-- --- ---- --- ------ ----- ------- ---- -- --- ------- --<br>------- ---------- ------ -- ----- -- ----- -- ---- ------<br>--- ----- --- --- ------ -------- ----- --- ------ ----- --<br>----- ----- ---------- --- --- ------ ------ ---- -- ------<br>------- --- ------ ----- --- ---- ------- -- ---- --- of<br>------- ------,276298,276291,275876.54,275876,275876.8,276298.98,,53,of
screen,html.Screen,2_1_1_1_54,2022-05-03T11:52:44.649Z,,,,,,,,,,,,,,,,,54,,,,,,,,,,,,,,381.0200000000186,,response,,,,100,,,,,,,Space,keypress(Space),,,,,,,,-- --- ---- --- ------ ----- ------- ---- -- --- ------- --<br>------- ---------- ------ -- ----- -- ----- -- ---- ------<br>--- ----- --- --- ------ -------- ----- --- ------ ----- --<br>----- ----- ---------- --- --- ------ ------ ---- -- ------<br>------- --- ------ ----- --- ---- ------- -- ---- --- --<br>raising ------,276688,276680,276298.78,276298,276298.98,276688.6,,54,raising
screen,html.Screen,2_1_1_1_55,2022-05-03T11:52:45.064Z,,,,,,,,,,,,,,,,,54,,,,,,,,,,,,,,397.4000000000233,,response,,,,100,,,,,,,Space,keypress(Space),,,,,,,,-- --- ---- --- ------ ----- ------- ---- -- --- ------- --<br>------- ---------- ------ -- ----- -- ----- -- ---- ------<br>--- ----- --- --- ------ -------- ----- --- ------ ----- --<br>----- ----- ---------- --- --- ------ ------ ---- -- ------<br>------- --- ------ ----- --- ---- ------- -- ---- --- --<br>------- money.,277103,277086,276688.34,276688,276688.6,277103.9,,55,money.
Item 100,flow.Loop,2_1_1_1,2022-05-03T11:52:45.065Z,,,,,,,,,,,,,,,,,,,,,,,,,,,,,,,25469.079999999987,,completion,,,,,H,,,,,,,,,,,silence,,,,,277104,277086,251600.24,251602,251616.92,277103.9,,,
Question 1,html.Screen,2_1_1_2,2022-05-03T11:52:48.659Z,,,,,,,,,,,,,,,,,,,,,,,,,,,,true,TRUE,,3576.0999999999767,,response,,,,100,H,,,,,,TRUE,click #choice-1,,,,silence,,,,,280698,280680,277103.64,277104,277103.9,280708.9,,,
Question 2,html.Screen,2_1_1_3,2022-05-03T11:52:50.787Z,,,,,,,,,,,,,,,,,,,,,,,,,,,,false,FALSE,,2097.0999999999767,,response,,,,100,H,,,,,,TRUE,click #choice-1,,,,silence,,,,,282826,282806,280697.28,280698,280708.9,282833.08,,,
Item 100,flow.Sequence,2_1_1,2022-05-03T11:52:50.788Z,,,,,,,,,,,,,,,,,,,,,,,,,,,,,,,41192.399999999994,,completion,,,,,,,,,,,,,,,,,,,,,282827,282806,241609.2,241610,241613.6,282833.08,,,
End of Practice,html.Page,2_1_2,2022-05-03T11:52:53.308Z,,,,,,,,,,,,,,,,,,,,,,,,,,,,,,,2513.9199999999837,,form submission,,,,,,,,,,,,,,,,,,,,,285347,285347,282825.58,282827,282833.08,285358.54,,,
Practice,flow.Sequence,2_1,2022-05-03T11:52:53.309Z,,,,,,,,,,,,,,,,,,,,,,,,,,,,,,,91393.82,,completion,,,,,,,,,,,,,,,,,,,,,285347,285347,193948.7,193953,193953.18,285358.54,,,
Trap_instruction,html.Page,2_2_0,2022-05-03T11:52:56.463Z,,,,,,,,,,,,,,,,,,,,,,,,,,,,,,,3142.460000000021,,form submission,,,,,,,,,,,,,,,,,,,,,288502,288501,285344.9,285348,285358.54,288554.56,,,
trap_trial,html.Screen,2_2_1,2022-05-03T11:52:59.676Z,,,,,,,,,,,,,,,,,,,,,,,,,,,,true,1,,3142.4400000000023,,response,,,,,,,,,,,1,click #choice-1,,,,,,,,,291716,291697,288499.58,288502,288554.56,291716.46,,,
end of trap trial,html.Page,2_2_2,2022-05-03T11:53:01.122Z,,,,,,,,,,,,,,,,,,,,,,,,,,,,,,,1444.539999999979,,form submission,,,,,,,,,,,,,,,,,,,,,293161,293161,291714.98,291716,291716.46,293170.6,,,
Trap 1,flow.Sequence,2_2,2022-05-03T11:53:01.123Z,,,,,,,,,,,,,,,,,,,,,,,,,,,,,,,7802.460000000021,,completion,,,,,,,,,,,,,,,,,,,,,293161,293161,285344.9,285348,285358.54,293170.6,,,
Standby,html.Page,2_3_0,2022-05-03T11:53:09.114Z,,,,,,,,,,,,,,,,,,,,,,,,,,,,,,,7997.160000000033,,timeout,,,,,,,,,,,,,,,,,,,,,301153,301151.08,293156.46,293162,293170.6,301167.76,,,
Holding screen,html.Screen,2_3_1_0_0,2022-05-03T11:53:16.106Z,,,,,,,,,,,,,,,,,,,,,,,,,,,,,,,6992.700000000012,,timeout,,,,,,,,,,,,,,,,,,,,,308145,308143.8,301151.08,301153,301167.76,308160.46,,,
screen,html.Screen,2_3_1_0_1_0,2022-05-03T11:53:17.074Z,,,,,,,,,,,,,,,,,2,,,,,,,,,,,,,,942.539999999979,,response,,,,1,H,,,,,,Space,keypress(Space),,,,speech,,,,Two ---- ------ --- ------- ---------- ------- ----------<br>--- --------- --- ----------- ------- ----- ------- ---<br>--------- ---- -- --- ---- -- --------- -- ---- -------<br>-- --------- ------ --- ----- ------ ---- --- --------- --<br>------ - ---- -- --- ----------- ------- ---- ----- -----<br>--- -------- - ------ ---- -- ----- ---- --- --- -----------<br>-- -------,309113,309103,308143.8,308145,308160.46,309113.44,,0,Two
screen,html.Screen,2_3_1_0_1_1,2022-05-03T11:53:17.735Z,,,,,,,,,,,,,,,,,2,,,,,,,,,,,,,,644.5599999999977,,response,,,,1,H,,,,,,Space,keypress(Space),,,,speech,,,,--- days ------ --- ------- ---------- ------- ----------<br>--- --------- --- ----------- ------- ----- ------- ---<br>--------- ---- -- --- ---- -- --------- -- ---- -------<br>-- --------- ------ --- ----- ------ ---- --- --------- --<br>------ - ---- -- --- ----------- ------- ---- ----- -----<br>--- -------- - ------ ---- -- ----- ---- --- --- -----------<br>-- -------,309774,309758,309113.18,309114,309113.44,309774.2,,1,days
screen,html.Screen,2_3_1_0_1_2,2022-05-03T11:53:18.250Z,,,,,,,,,,,,,,,,,2,,,,,,,,,,,,,,499.79999999998836,,response,,,,1,H,,,,,,Space,keypress(Space),,,,speech,,,,"--- ---- later, --- ------- ---------- ------- ----------<br>--- --------- --- ----------- ------- ----- ------- ---<br>--------- ---- -- --- ---- -- --------- -- ---- -------<br>-- --------- ------ --- ----- ------ ---- --- --------- --<br>------ - ---- -- --- ----------- ------- ---- ----- -----<br>--- -------- - ------ ---- -- ----- ---- --- --- -----------<br>-- -------",310288,310274,309773.94,309774,309774.2,310289.34,,2,"later,"
screen,html.Screen,2_3_1_0_1_3,2022-05-03T11:53:18.715Z,,,,,,,,,,,,,,,,,2,,,,,,,,,,,,,,453.6599999999744,,response,,,,1,H,,,,,,Space,keypress(Space),,,,speech,,,,--- ---- ------ the ------- ---------- ------- ----------<br>--- --------- --- ----------- ------- ----- ------- ---<br>--------- ---- -- --- ---- -- --------- -- ---- -------<br>-- --------- ------ --- ----- ------ ---- --- --------- --<br>------ - ---- -- --- ----------- ------- ---- ----- -----<br>--- -------- - ------ ---- -- ----- ---- --- --- -----------<br>-- -------,310754,310743,310289.08,310289,310289.34,310754.56,,3,the
screen,html.Screen,2_3_1_0_1_4,2022-05-03T11:53:19.152Z,,,,,,,,,,,,,,,,,2,,,,,,,,,,,,,,426.4400000000023,,response,,,,1,H,,,,,,Space,keypress(Space),,,,speech,,,,--- ---- ------ --- British ---------- ------- ----------<br>--- --------- --- ----------- ------- ----- ------- ---<br>--------- ---- -- --- ---- -- --------- -- ---- -------<br>-- --------- ------ --- ----- ------ ---- --- --------- --<br>------ - ---- -- --- ----------- ------- ---- ----- -----<br>--- -------- - ------ ---- -- ----- ---- --- --- -----------<br>-- -------,311191,311181,310754.3,310755,310754.56,311191.7,,4,British
screen,html.Screen,2_3_1_0_1_5,2022-05-03T11:53:19.523Z,,,,,,,,,,,,,,,,,2,,,,,,,,,,,,,,348.29999999998836,,response,,,,1,H,,,,,,Space,keypress(Space),,,,speech,,,,--- ---- ------ --- ------- astronomer ------- ----------<br>--- --------- --- ----------- ------- ----- ------- ---<br>--------- ---- -- --- ---- -- --------- -- ---- -------<br>-- --------- ------ --- ----- ------ ---- --- --------- --<br>------ - ---- -- --- ----------- ------- ---- ----- -----<br>--- -------- - ------ ---- -- ----- ---- --- --- -----------<br>-- -------,311561,311540,311191.46,311191,311191.7,311562.48,,5,astronomer
screen,html.Screen,2_3_1_0_1_6,2022-05-03T11:53:20.193Z,,,,,,,,,,,,,,,,,2,,,,,,,,,,,,,,664.5200000000186,,response,,,,1,H,,,,,,Space,keypress(Space),,,,speech,,,,--- ---- ------ --- ------- ---------- Richard ----------<br>--- --------- --- ----------- ------- ----- ------- ---<br>--------- ---- -- --- ---- -- --------- -- ---- -------<br>-- --------- ------ --- ----- ------ ---- --- --------- --<br>------ - ---- -- --- ----------- ------- ---- ----- -----<br>--- -------- - ------ ---- -- ----- ---- --- --- -----------<br>-- -------,312232,312227,311562.14,311562,311562.48,312232.2,,6,Richard
screen,html.Screen,2_3_1_0_1_7,2022-05-03T11:53:20.609Z,,,,,,,,,,,,,,,,,2,,,,,,,,,,,,,,400.79999999998836,,response,,,,1,H,,,,,,Space,keypress(Space),,,,speech,,,,--- ---- ------ --- ------- ---------- ------- Carrington<br>--- --------- --- ----------- ------- ----- ------- ---<br>--------- ---- -- --- ---- -- --------- -- ---- -------<br>-- --------- ------ --- ----- ------ ---- --- --------- --<br>------ - ---- -- --- ----------- ------- ---- ----- -----<br>--- -------- - ------ ---- -- ----- ---- --- --- -----------<br>-- -------,312648,312633,312231.94,312232,312232.2,312648.04,,7,Carrington
screen,html.Screen,2_3_1_0_1_8,2022-05-03T11:53:21.093Z,,,,,,,,,,,,,,,,,2,,,,,,,,,,,,,,469.96000000002095,,response,,,,1,H,,,,,,Space,keypress(Space),,,,speech,,,,--- ---- ------ --- ------- ---------- ------- ----------<br>was --------- --- ----------- ------- ----- ------- ---<br>--------- ---- -- --- ---- -- --------- -- ---- -------<br>-- --------- ------ --- ----- ------ ---- --- --------- --<br>------ - ---- -- --- ----------- ------- ---- ----- -----<br>--- -------- - ------ ---- -- ----- ---- --- --- -----------<br>-- -------,313132,313118,312647.78,312648,312648.04,313133.14,,8,was
screen,html.Screen,2_3_1_0_1_9,2022-05-03T11:53:21.557Z,,,,,,,,,,,,,,,,,2,,,,,,,,,,,,,,452.85999999998603,,response,,,,1,H,,,,,,Space,keypress(Space),,,,speech,,,,--- ---- ------ --- ------- ---------- ------- ----------<br>--- observing --- ----------- ------- ----- ------- ---<br>--------- ---- -- --- ---- -- --------- -- ---- -------<br>-- --------- ------ --- ----- ------ ---- --- --------- --<br>------ - ---- -- --- ----------- ------- ---- ----- -----<br>--- -------- - ------ ---- -- ----- ---- --- --- -----------<br>-- -------,313597,313586,313132.88,313133,313133.14,313596.88,,9,observing
screen,html.Screen,2_3_1_0_1_10,2022-05-03T11:53:22.076Z,,,,,,,,,,,,,,,,,2,,,,,,,,,,,,,,505.11999999999534,,response,,,,1,H,,,,,,Space,keypress(Space),,,,speech,,,,--- ---- ------ --- ------- ---------- ------- ----------<br>--- --------- the ----------- ------- ----- ------- ---<br>--------- ---- -- --- ---- -- --------- -- ---- -------<br>-- --------- ------ --- ----- ------ ---- --- --------- --<br>------ - ---- -- --- ----------- ------- ---- ----- -----<br>--- -------- - ------ ---- -- ----- ---- --- --- -----------<br>-- -------,314115,314102,313596.62,313597,313596.88,314116.12,,10,the
screen,html.Screen,2_3_1_0_1_11,2022-05-03T11:53:22.569Z,,,,,,,,,,,,,,,,,2,,,,,,,,,,,,,,485.88000000000466,,response,,,,1,H,,,,,,Space,keypress(Space),,,,speech,,,,--- ---- ------ --- ------- ---------- ------- ----------<br>--- --------- --- interesting ------- ----- ------- ---<br>--------- ---- -- --- ---- -- --------- -- ---- -------<br>-- --------- ------ --- ----- ------ ---- --- --------- --<br>------ - ---- -- --- ----------- ------- ---- ----- -----<br>--- -------- - ------ ---- -- ----- ---- --- --- -----------<br>-- -------,314608,314602,314115.86,314115,314116.12,314608.62,,11,interesting
screen,html.Screen,2_3_1_0_1_12,2022-05-03T11:53:23.014Z,,,,,,,,,,,,,,,,,2,,,,,,,,,,,,,,432.38000000000466,,response,,,,1,H,,,,,,Space,keypress(Space),,,,speech,,,,--- ---- ------ --- ------- ---------- ------- ----------<br>--- --------- --- ----------- sunspot ----- ------- ---<br>--------- ---- -- --- ---- -- --------- -- ---- -------<br>-- --------- ------ --- ----- ------ ---- --- --------- --<br>------ - ---- -- --- ----------- ------- ---- ----- -----<br>--- -------- - ------ ---- -- ----- ---- --- --- -----------<br>-- -------,315053,315041,314608.36,314608,314608.62,315053.22,,12,sunspot
screen,html.Screen,2_3_1_0_1_13,2022-05-03T11:53:24.099Z,,,,,,,,,,,,,,,,,2,,,,,,,,,,,,,,1080.780000000028,,response,,,,1,H,,,,,,Space,keypress(Space),,,,speech,,,,--- ---- ------ --- ------- ---------- ------- ----------<br>--- --------- --- ----------- ------- group ------- ---<br>--------- ---- -- --- ---- -- --------- -- ---- -------<br>-- --------- ------ --- ----- ------ ---- --- --------- --<br>------ - ---- -- --- ----------- ------- ---- ----- -----<br>--- -------- - ------ ---- -- ----- ---- --- --- -----------<br>-- -------,316138,316134,315052.96,315053,315053.22,316140.54,,13,group
screen,html.Screen,2_3_1_0_1_14,2022-05-03T11:53:24.442Z,,,,,,,,,,,,,,,,,2,,,,,,,,,,,,,,337.46000000002095,,response,,,,1,H,,,,,,Space,keypress(Space),,,,speech,,,,--- ---- ------ --- ------- ---------- ------- ----------<br>--- --------- --- ----------- ------- ----- through ---<br>--------- ---- -- --- ---- -- --------- -- ---- -------<br>-- --------- ------ --- ----- ------ ---- --- --------- --<br>------ - ---- -- --- ----------- ------- ---- ----- -----<br>--- -------- - ------ ---- -- ----- ---- --- --- -----------<br>-- -------,316481,316478,316138.68,316138,316140.54,316481.88,,14,through
screen,html.Screen,2_3_1_0_1_15,2022-05-03T11:53:24.898Z,,,,,,,,,,,,,,,,,2,,,,,,,,,,,,,,448.11999999999534,,response,,,,1,H,,,,,,Space,keypress(Space),,,,speech,,,,--- ---- ------ --- ------- ---------- ------- ----------<br>--- --------- --- ----------- ------- ----- ------- his<br>--------- ---- -- --- ---- -- --------- -- ---- -------<br>-- --------- ------ --- ----- ------ ---- --- --------- --<br>------ - ---- -- --- ----------- ------- ---- ----- -----<br>--- -------- - ------ ---- -- ----- ---- --- --- -----------<br>-- -------,316937,316930,316481.64,316481,316481.88,316937.5,,15,his
screen,html.Screen,2_3_1_0_1_16,2022-05-03T11:53:25.289Z,,,,,,,,,,,,,,,,,2,,,,,,,,,,,,,,384.5,,response,,,,1,H,,,,,,Space,keypress(Space),,,,speech,,,,--- ---- ------ --- ------- ---------- ------- ----------<br>--- --------- --- ----------- ------- ----- ------- ---<br>telescope ---- -- --- ---- -- --------- -- ---- -------<br>-- --------- ------ --- ----- ------ ---- --- --------- --<br>------ - ---- -- --- ----------- ------- ---- ----- -----<br>--- -------- - ------ ---- -- ----- ---- --- --- -----------<br>-- -------,317328,317322,316937.24,316937,316937.5,317328.3,,16,telescope
screen,html.Screen,2_3_1_0_1_17,2022-05-03T11:53:25.711Z,,,,,,,,,,,,,,,,,2,,,,,,,,,,,,,,414.70000000001164,,response,,,,1,H,,,,,,Space,keypress(Space),,,,speech,,,,--- ---- ------ --- ------- ---------- ------- ----------<br>--- --------- --- ----------- ------- ----- ------- ---<br>--------- when -- --- ---- -- --------- -- ---- -------<br>-- --------- ------ --- ----- ------ ---- --- --------- --<br>------ - ---- -- --- ----------- ------- ---- ----- -----<br>--- -------- - ------ ---- -- ----- ---- --- --- -----------<br>-- -------,317750,317743,317328.16,317328,317328.3,317750.14,,17,when
screen,html.Screen,2_3_1_0_1_18,2022-05-03T11:53:26.101Z,,,,,,,,,,,,,,,,,2,,,,,,,,,,,,,,382.85999999998603,,response,,,,1,H,,,,,,Space,keypress(Space),,,,speech,,,,--- ---- ------ --- ------- ---------- ------- ----------<br>--- --------- --- ----------- ------- ----- ------- ---<br>--------- ---- he --- ---- -- --------- -- ---- -------<br>-- --------- ------ --- ----- ------ ---- --- --------- --<br>------ - ---- -- --- ----------- ------- ---- ----- -----<br>--- -------- - ------ ---- -- ----- ---- --- --- -----------<br>-- -------,318140,318133,317749.88,317750,317750.14,318140.92,,18,he
screen,html.Screen,2_3_1_0_1_19,2022-05-03T11:53:26.547Z,,,,,,,,,,,,,,,,,2,,,,,,,,,,,,,,430.0800000000163,,response,,,,1,H,,,,,,Space,keypress(Space),,,,speech,,,,--- ---- ------ --- ------- ---------- ------- ----------<br>--- --------- --- ----------- ------- ----- ------- ---<br>--------- ---- -- saw ---- -- --------- -- ---- -------<br>-- --------- ------ --- ----- ------ ---- --- --------- --<br>------ - ---- -- --- ----------- ------- ---- ----- -----<br>--- -------- - ------ ---- -- ----- ---- --- --- -----------<br>-- -------,318586,318571,318140.66,318140,318140.92,318586.76,,19,saw
screen,html.Screen,2_3_1_0_1_20,2022-05-03T11:53:26.943Z,,,,,,,,,,,,,,,,,2,,,,,,,,,,,,,,374.2399999999907,,response,,,,1,H,,,,,,Space,keypress(Space),,,,speech,,,,--- ---- ------ --- ------- ---------- ------- ----------<br>--- --------- --- ----------- ------- ----- ------- ---<br>--------- ---- -- --- what -- --------- -- ---- -------<br>-- --------- ------ --- ----- ------ ---- --- --------- --<br>------ - ---- -- --- ----------- ------- ---- ----- -----<br>--- -------- - ------ ---- -- ----- ---- --- --- -----------<br>-- -------,318982,318961,318586.54,318586,318586.76,318981.98,,20,what
screen,html.Screen,2_3_1_0_1_21,2022-05-03T11:53:27.356Z,,,,,,,,,,,,,,,,,2,,,,,,,,,,,,,,401.0200000000186,,response,,,,1,H,,,,,,Space,keypress(Space),,,,speech,,,,--- ---- ------ --- ------- ---------- ------- ----------<br>--- --------- --- ----------- ------- ----- ------- ---<br>--------- ---- -- --- ---- he --------- -- ---- -------<br>-- --------- ------ --- ----- ------ ---- --- --------- --<br>------ - ---- -- --- ----------- ------- ---- ----- -----<br>--- -------- - ------ ---- -- ----- ---- --- --- -----------<br>-- -------,319394,319383,318981.74,318982,318981.98,319395.26,,21,he
screen,html.Screen,2_3_1_0_1_22,2022-05-03T11:53:27.752Z,,,,,,,,,,,,,,,,,2,,,,,,,,,,,,,,378.7399999999907,,response,,,,1,H,,,,,,Space,keypress(Space),,,,speech,,,,--- ---- ------ --- ------- ---------- ------- ----------<br>--- --------- --- ----------- ------- ----- ------- ---<br>--------- ---- -- --- ---- -- described -- ---- -------<br>-- --------- ------ --- ----- ------ ---- --- --------- --<br>------ - ---- -- --- ----------- ------- ---- ----- -----<br>--- -------- - ------ ---- -- ----- ---- --- --- -----------<br>-- -------,319791,319774,319395,319395,319395.26,319791.42,,22,described
screen,html.Screen,2_3_1_0_1_23,2022-05-03T11:53:28.252Z,,,,,,,,,,,,,,,,,2,,,,,,,,,,,,,,483.5800000000163,,response,,,,1,H,,,,,,Space,keypress(Space),,,,speech,,,,--- ---- ------ --- ------- ---------- ------- ----------<br>--- --------- --- ----------- ------- ----- ------- ---<br>--------- ---- -- --- ---- -- --------- as ---- -------<br>-- --------- ------ --- ----- ------ ---- --- --------- --<br>------ - ---- -- --- ----------- ------- ---- ----- -----<br>--- -------- - ------ ---- -- ----- ---- --- --- -----------<br>-- -------,320291,320275,319791.18,319791,319791.42,320291.94,,23,as
screen,html.Screen,2_3_1_0_1_24,2022-05-03T11:53:28.683Z,,,,,,,,,,,,,,,,,2,,,,,,,,,,,,,,419.0599999999977,,response,,,,1,H,,,,,,Space,keypress(Space),,,,speech,,,,"--- ---- ------ --- ------- ---------- ------- ----------<br>--- --------- --- ----------- ------- ----- ------- ---<br>--------- ---- -- --- ---- -- --------- -- ""two -------<br>-- --------- ------ --- ----- ------ ---- --- --------- --<br>------ - ---- -- --- ----------- ------- ---- ----- -----<br>--- -------- - ------ ---- -- ----- ---- --- --- -----------<br>-- -------",320721,320711,320291.7,320291,320291.94,320724.24,,24,"""two"
screen,html.Screen,2_3_1_0_1_25,2022-05-03T11:53:29.157Z,,,,,,,,,,,,,,,,,2,,,,,,,,,,,,,,456.7600000000093,,response,,,,1,H,,,,,,Space,keypress(Space),,,,speech,,,,--- ---- ------ --- ------- ---------- ------- ----------<br>--- --------- --- ----------- ------- ----- ------- ---<br>--------- ---- -- --- ---- -- --------- -- ---- patches<br>-- --------- ------ --- ----- ------ ---- --- --------- --<br>------ - ---- -- --- ----------- ------- ---- ----- -----<br>--- -------- - ------ ---- -- ----- ---- --- --- -----------<br>-- -------,321195,321181,320721.66,320721,320724.24,321196.32,,25,patches
screen,html.Screen,2_3_1_0_1_26,2022-05-03T11:53:29.622Z,,,,,,,,,,,,,,,,,2,,,,,,,,,,,,,,452.679999999993,,response,,,,1,H,,,,,,Space,keypress(Space),,,,speech,,,,--- ---- ------ --- ------- ---------- ------- ----------<br>--- --------- --- ----------- ------- ----- ------- ---<br>--------- ---- -- --- ---- -- --------- -- ---- -------<br>of --------- ------ --- ----- ------ ---- --- --------- --<br>------ - ---- -- --- ----------- ------- ---- ----- -----<br>--- -------- - ------ ---- -- ----- ---- --- --- -----------<br>-- -------,321661,321649,321196.1,321196,321196.32,321661.9,,26,of
screen,html.Screen,2_3_1_0_1_27,2022-05-03T11:53:30.097Z,,,,,,,,,,,,,,,,,2,,,,,,,,,,,,,,457.0999999999767,,response,,,,1,H,,,,,,Space,keypress(Space),,,,speech,,,,--- ---- ------ --- ------- ---------- ------- ----------<br>--- --------- --- ----------- ------- ----- ------- ---<br>--------- ---- -- --- ---- -- --------- -- ---- -------<br>-- intensely ------ --- ----- ------ ---- --- --------- --<br>------ - ---- -- --- ----------- ------- ---- ----- -----<br>--- -------- - ------ ---- -- ----- ---- --- --- -----------<br>-- -------,322136,322119,321661.66,321661,321661.9,322136.56,,27,intensely
screen,html.Screen,2_3_1_0_1_28,2022-05-03T11:53:30.744Z,,,,,,,,,,,,,,,,,2,,,,,,,,,,,,,,638.4400000000023,,response,,,,1,H,,,,,,Space,keypress(Space),,,,speech,,,,--- ---- ------ --- ------- ---------- ------- ----------<br>--- --------- --- ----------- ------- ----- ------- ---<br>--------- ---- -- --- ---- -- --------- -- ---- -------<br>-- --------- bright --- ----- ------ ---- --- --------- --<br>------ - ---- -- --- ----------- ------- ---- ----- -----<br>--- -------- - ------ ---- -- ----- ---- --- --- -----------<br>-- -------,322783,322775,322136.3,322136,322136.56,322783.44,,28,bright
screen,html.Screen,2_3_1_0_1_29,2022-05-03T11:53:31.260Z,,,,,,,,,,,,,,,,,2,,,,,,,,,,,,,,506.5599999999977,,response,,,,1,H,,,,,,Space,keypress(Space),,,,speech,,,,--- ---- ------ --- ------- ---------- ------- ----------<br>--- --------- --- ----------- ------- ----- ------- ---<br>--------- ---- -- --- ---- -- --------- -- ---- -------<br>-- --------- ------ and ----- ------ ---- --- --------- --<br>------ - ---- -- --- ----------- ------- ---- ----- -----<br>--- -------- - ------ ---- -- ----- ---- --- --- -----------<br>-- -------,323299,323290,322783.16,322783,322783.44,323300.42,,29,and
screen,html.Screen,2_3_1_0_1_30,2022-05-03T11:53:31.894Z,,,,,,,,,,,,,,,,,2,,,,,,,,,,,,,,614.5800000000163,,response,,,,1,H,,,,,,Space,keypress(Space),,,,speech,,,,--- ---- ------ --- ------- ---------- ------- ----------<br>--- --------- --- ----------- ------- ----- ------- ---<br>--------- ---- -- --- ---- -- --------- -- ---- -------<br>-- --------- ------ --- white ------ ---- --- --------- --<br>------ - ---- -- --- ----------- ------- ---- ----- -----<br>--- -------- - ------ ---- -- ----- ---- --- --- -----------<br>-- -------,323933,323915,323300.16,323300,323300.42,323933.26,,30,white
screen,html.Screen,2_3_1_0_1_31,2022-05-03T11:53:32.268Z,,,,,,,,,,,,,,,,,2,,,,,,,,,,,,,,357.7399999999907,,response,,,,1,H,,,,,,Space,keypress(Space),,,,speech,,,,"--- ---- ------ --- ------- ---------- ------- ----------<br>--- --------- --- ----------- ------- ----- ------- ---<br>--------- ---- -- --- ---- -- --------- -- ---- -------<br>-- --------- ------ --- ----- light"" ---- --- --------- --<br>------ - ---- -- --- ----------- ------- ---- ----- -----<br>--- -------- - ------ ---- -- ----- ---- --- --- -----------<br>-- -------",324306,324291,323933,323933,323933.26,324307.34,,31,"light"""
screen,html.Screen,2_3_1_0_1_32,2022-05-03T11:53:32.718Z,,,,,,,,,,,,,,,,,2,,,,,,,,,,,,,,436.6599999999744,,response,,,,1,H,,,,,,Space,keypress(Space),,,,speech,,,,--- ---- ------ --- ------- ---------- ------- ----------<br>--- --------- --- ----------- ------- ----- ------- ---<br>--------- ---- -- --- ---- -- --------- -- ---- -------<br>-- --------- ------ --- ----- ------ over --- --------- --<br>------ - ---- -- --- ----------- ------- ---- ----- -----<br>--- -------- - ------ ---- -- ----- ---- --- --- -----------<br>-- -------,324757,324744,324307.08,324307,324307.34,324757.32,,32,over
screen,html.Screen,2_3_1_0_1_33,2022-05-03T11:53:33.208Z,,,,,,,,,,,,,,,,,2,,,,,,,,,,,,,,485.679999999993,,response,,,,1,H,,,,,,Space,keypress(Space),,,,speech,,,,--- ---- ------ --- ------- ---------- ------- ----------<br>--- --------- --- ----------- ------- ----- ------- ---<br>--------- ---- -- --- ---- -- --------- -- ---- -------<br>-- --------- ------ --- ----- ------ ---- the --------- --<br>------ - ---- -- --- ----------- ------- ---- ----- -----<br>--- -------- - ------ ---- -- ----- ---- --- --- -----------<br>-- -------,325247,325243,324757.08,324757,324757.32,325247.86,,33,the
screen,html.Screen,2_3_1_0_1_34,2022-05-03T11:53:33.589Z,,,,,,,,,,,,,,,,,2,,,,,,,,,,,,,,371.14000000001397,,response,,,,1,H,,,,,,Space,keypress(Space),,,,speech,,,,--- ---- ------ --- ------- ---------- ------- ----------<br>--- --------- --- ----------- ------- ----- ------- ---<br>--------- ---- -- --- ---- -- --------- -- ---- -------<br>-- --------- ------ --- ----- ------ ---- --- sunspots. --<br>------ - ---- -- --- ----------- ------- ---- ----- -----<br>--- -------- - ------ ---- -- ----- ---- --- --- -----------<br>-- -------,325628,325619,325247.6,325247,325247.86,325628.58,,34,sunspots.
screen,html.Screen,2_3_1_0_1_35,2022-05-03T11:53:33.962Z,,,,,,,,,,,,,,,,,2,,,,,,,,,,,,,,364.4199999999837,,response,,,,1,H,,,,,,Space,keypress(Space),,,,speech,,,,--- ---- ------ --- ------- ---------- ------- ----------<br>--- --------- --- ----------- ------- ----- ------- ---<br>--------- ---- -- --- ---- -- --------- -- ---- -------<br>-- --------- ------ --- ----- ------ ---- --- --------- He<br>------ - ---- -- --- ----------- ------- ---- ----- -----<br>--- -------- - ------ ---- -- ----- ---- --- --- -----------<br>-- -------,326001,325993,325628.32,325628,325628.58,326002.02,,35,He
screen,html.Screen,2_3_1_0_1_36,2022-05-03T11:53:34.426Z,,,,,,,,,,,,,,,,,2,,,,,,,,,,,,,,444.9799999999814,,response,,,,1,H,,,,,,Space,keypress(Space),,,,speech,,,,--- ---- ------ --- ------- ---------- ------- ----------<br>--- --------- --- ----------- ------- ----- ------- ---<br>--------- ---- -- --- ---- -- --------- -- ---- -------<br>-- --------- ------ --- ----- ------ ---- --- --------- --<br>jotted - ---- -- --- ----------- ------- ---- ----- -----<br>--- -------- - ------ ---- -- ----- ---- --- --- -----------<br>-- -------,326465,326447,326001.76,326002,326002.02,326465.68,,36,jotted
screen,html.Screen,2_3_1_0_1_37,2022-05-03T11:53:34.786Z,,,,,,,,,,,,,,,,,2,,,,,,,,,,,,,,355.320000000007,,response,,,,1,H,,,,,,Space,keypress(Space),,,,speech,,,,--- ---- ------ --- ------- ---------- ------- ----------<br>--- --------- --- ----------- ------- ----- ------- ---<br>--------- ---- -- --- ---- -- --------- -- ---- -------<br>-- --------- ------ --- ----- ------ ---- --- --------- --<br>------ a ---- -- --- ----------- ------- ---- ----- -----<br>--- -------- - ------ ---- -- ----- ---- --- --- -----------<br>-- -------,326824,326821,326465.42,326466,326465.68,326824.64,,37,a
screen,html.Screen,2_3_1_0_1_38,2022-05-03T11:53:35.388Z,,,,,,,,,,,,,,,,,2,,,,,,,,,,,,,,591.359999999986,,response,,,,1,H,,,,,,Space,keypress(Space),,,,speech,,,,--- ---- ------ --- ------- ---------- ------- ----------<br>--- --------- --- ----------- ------- ----- ------- ---<br>--------- ---- -- --- ---- -- --------- -- ---- -------<br>-- --------- ------ --- ----- ------ ---- --- --------- --<br>------ - note -- --- ----------- ------- ---- ----- -----<br>--- -------- - ------ ---- -- ----- ---- --- --- -----------<br>-- -------,327426,327416,326824.38,326825,326824.64,327426.96,,38,note
screen,html.Screen,2_3_1_0_1_39,2022-05-03T11:53:35.800Z,,,,,,,,,,,,,,,,,2,,,,,,,,,,,,,,394.03999999997905,,response,,,,1,H,,,,,,Space,keypress(Space),,,,speech,,,,--- ---- ------ --- ------- ---------- ------- ----------<br>--- --------- --- ----------- ------- ----- ------- ---<br>--------- ---- -- --- ---- -- --------- -- ---- -------<br>-- --------- ------ --- ----- ------ ---- --- --------- --<br>------ - ---- in --- ----------- ------- ---- ----- -----<br>--- -------- - ------ ---- -- ----- ---- --- --- -----------<br>-- -------,327839,327821,327426.7,327426,327426.96,327839.28,,39,in
screen,html.Screen,2_3_1_0_1_40,2022-05-03T11:53:36.203Z,,,,,,,,,,,,,,,,,2,,,,,,,,,,,,,,388.71999999997206,,response,,,,1,H,,,,,,Space,keypress(Space),,,,speech,,,,--- ---- ------ --- ------- ---------- ------- ----------<br>--- --------- --- ----------- ------- ----- ------- ---<br>--------- ---- -- --- ---- -- --------- -- ---- -------<br>-- --------- ------ --- ----- ------ ---- --- --------- --<br>------ - ---- -- his ----------- ------- ---- ----- -----<br>--- -------- - ------ ---- -- ----- ---- --- --- -----------<br>-- -------,328242,328228,327839.02,327839,327839.28,328242.88,,40,his
screen,html.Screen,2_3_1_0_1_41,2022-05-03T11:53:36.523Z,,,,,,,,,,,,,,,,,2,,,,,,,,,,,,,,312.11999999999534,,response,,,,1,H,,,,,,Space,keypress(Space),,,,speech,,,,--- ---- ------ --- ------- ---------- ------- ----------<br>--- --------- --- ----------- ------- ----- ------- ---<br>--------- ---- -- --- ---- -- --------- -- ---- -------<br>-- --------- ------ --- ----- ------ ---- --- --------- --<br>------ - ---- -- --- painstaking ------- ---- ----- -----<br>--- -------- - ------ ---- -- ----- ---- --- --- -----------<br>-- -------,328563,328555,328242.58,328243,328242.88,328563.24,,41,painstaking
screen,html.Screen,2_3_1_0_1_42,2022-05-03T11:53:37.173Z,,,,,,,,,,,,,,,,,2,,,,,,,,,,,,,,633.7600000000093,,response,,,,1,H,,,,,,Space,keypress(Space),,,,speech,,,,--- ---- ------ --- ------- ---------- ------- ----------<br>--- --------- --- ----------- ------- ----- ------- ---<br>--------- ---- -- --- ---- -- --------- -- ---- -------<br>-- --------- ------ --- ----- ------ ---- --- --------- --<br>------ - ---- -- --- ----------- record. ---- ----- -----<br>--- -------- - ------ ---- -- ----- ---- --- --- -----------<br>-- -------,329212,329197,328562.98,328563,328563.24,329212.28,,42,record.
screen,html.Screen,2_3_1_0_1_43,2022-05-03T11:53:37.678Z,,,,,,,,,,,,,,,,,2,,,,,,,,,,,,,,498.71999999997206,,response,,,,1,H,,,,,,Space,keypress(Space),,,,speech,,,,--- ---- ------ --- ------- ---------- ------- ----------<br>--- --------- --- ----------- ------- ----- ------- ---<br>--------- ---- -- --- ---- -- --------- -- ---- -------<br>-- --------- ------ --- ----- ------ ---- --- --------- --<br>------ - ---- -- --- ----------- ------- That ----- -----<br>--- -------- - ------ ---- -- ----- ---- --- --- -----------<br>-- -------,329717,329711,329212.02,329212,329212.28,329717.84,,43,That
screen,html.Screen,2_3_1_0_1_44,2022-05-03T11:53:39.041Z,,,,,,,,,,,,,,,,,2,,,,,,,,,,,,,,1354.1599999999744,,response,,,,1,H,,,,,,Space,keypress(Space),,,,speech,,,,--- ---- ------ --- ------- ---------- ------- ----------<br>--- --------- --- ----------- ------- ----- ------- ---<br>--------- ---- -- --- ---- -- --------- -- ---- -------<br>-- --------- ------ --- ----- ------ ---- --- --------- --<br>------ - ---- -- --- ----------- ------- ---- night -----<br>--- -------- - ------ ---- -- ----- ---- --- --- -----------<br>-- -------,331080,331072,329717.52,329717,329717.84,331080.56,,44,night
screen,html.Screen,2_3_1_0_1_45,2022-05-03T11:53:39.615Z,,,,,,,,,,,,,,,,,2,,,,,,,,,,,,,,569.4400000000023,,response,,,,1,H,,,,,,Space,keypress(Space),,,,speech,,,,--- ---- ------ --- ------- ---------- ------- ----------<br>--- --------- --- ----------- ------- ----- ------- ---<br>--------- ---- -- --- ---- -- --------- -- ---- -------<br>-- --------- ------ --- ----- ------ ---- --- --------- --<br>------ - ---- -- --- ----------- ------- ---- ----- there<br>--- -------- - ------ ---- -- ----- ---- --- --- -----------<br>-- -------,331654,331650,331080.26,331080,331080.56,331654.78,,45,there
screen,html.Screen,2_3_1_0_1_46,2022-05-03T11:53:40.021Z,,,,,,,,,,,,,,,,,2,,,,,,,,,,,,,,386.21999999997206,,response,,,,1,H,,,,,,Space,keypress(Space),,,,speech,,,,--- ---- ------ --- ------- ---------- ------- ----------<br>--- --------- --- ----------- ------- ----- ------- ---<br>--------- ---- -- --- ---- -- --------- -- ---- -------<br>-- --------- ------ --- ----- ------ ---- --- --------- --<br>------ - ---- -- --- ----------- ------- ---- ----- -----<br>was -------- - ------ ---- -- ----- ---- --- --- -----------<br>-- -------,332060,332041,331654.52,331654,331654.78,332060.14,,46,was
screen,html.Screen,2_3_1_0_1_47,2022-05-03T11:53:40.369Z,,,,,,,,,,,,,,,,,2,,,,,,,,,,,,,,338.85999999998603,,response,,,,1,H,,,,,,Space,keypress(Space),,,,speech,,,,--- ---- ------ --- ------- ---------- ------- ----------<br>--- --------- --- ----------- ------- ----- ------- ---<br>--------- ---- -- --- ---- -- --------- -- ---- -------<br>-- --------- ------ --- ----- ------ ---- --- --------- --<br>------ - ---- -- --- ----------- ------- ---- ----- -----<br>--- scarcely - ------ ---- -- ----- ---- --- --- -----------<br>-- -------,332408,332399,332059.88,332060,332060.14,332408.3,,47,scarcely
screen,html.Screen,2_3_1_0_1_48,2022-05-03T11:53:40.861Z,,,,,,,,,,,,,,,,,2,,,,,,,,,,,,,,475.70000000001164,,response,,,,1,H,,,,,,Space,keypress(Space),,,,speech,,,,--- ---- ------ --- ------- ---------- ------- ----------<br>--- --------- --- ----------- ------- ----- ------- ---<br>--------- ---- -- --- ---- -- --------- -- ---- -------<br>-- --------- ------ --- ----- ------ ---- --- --------- --<br>------ - ---- -- --- ----------- ------- ---- ----- -----<br>--- -------- a ------ ---- -- ----- ---- --- --- -----------<br>-- -------,332900,332884,332408.04,332408,332408.3,332902.84,,48,a
