sender,sender_type,sender_id,timestamp,meta,,Blues,Classical,Country,Dance,Electronic,Folk,Gospel,Hip-Hop,Jazz,Latin,Musical/Film,New-age,Pop,Prolific_id,Provo_ID,R&B,Rap,Reggae,Religious,Rock,Soul,Swing,Traditional,age,artist_name,correct,correctResponse,distraction,duration,education,ended_on,familiarity,gender,headphone_check_performance,item,list,music_frequency,offensiveness,pleasantness,position_correct,preference,response,response_action,snippet_file,song_name,song_rating,sound,stimulus_1,stimulus_2,stimulus_3,text,time_commit,time_end,time_render,time_run,time_show,time_switch,url,word,word_ID
Prolific ID,html.Form,0,2022-04-25T17:22:38.723Z,"{""labjs_version"":""20.2.2"",""labjs_build"":{""flavor"":""production"",""commit"":""a25486e0c714a0ae2ce03ff94b7bb6896854dcfa""},""location"":""https://run.pavlovia.org/mvasilev/prolific3_music_b/"",""userAgent"":""Mozilla/5.0 (Windows NT 10.0; Win64; x64; rv:99.0) Gecko/20100101 Firefox/99.0"",""platform"":""Win32"",""language"":""en-GB"",""locale"":""en-GB"",""timeZone"":""Europe/London"",""timezoneOffset"":-60,""screen_width"":1440,""screen_height"":900,""scroll_width"":1440,""scroll_height"":727,""window_innerWidth"":1440,""window_innerHeight"":775,""devicePixelRatio"":1}",,,,,,,,,,,,,,,5cc310bef457fc0013d42743,,,,,,,,,,,,,,,5185.780000000001,,form submission,,,,,,,,,,,,,,,,,,,,,13919,13919,8731,8731,8733.22,13919.72,{},,
Introduction,html.Screen,1_0,2022-04-25T17:22:42.240Z,,,,,,,,,,,,,,,,,,,,,,,,,,,,,,,3510.2800000000007,,response,,,,,,,,,,,continue,click button,,,,,,,,,17435,17430,13915.48,13920,13919.72,17439.56,,,
Volume calibration,html.Screen,1_1,2022-04-25T17:22:51.046Z,,,,,,,,,,,,,,,,,,,,,,,,,,,,,,,8787.439999999999,,response,,,,,,,,,,,continue,click button,,,,,,,,,26242,26227,17435.34,17437,17439.56,26252.64,,,
Task instructions,html.Screen,1_2,2022-04-25T17:22:59.854Z,,,,,,,,,,,,,,,,,,,,,,,,,,,,,,,8786.36,,response,,,,,,,,,,,continue,click button,,,,,,,,,35050,35039,26241.4,26242,26252.64,35052.32,,,
Sounds,html.Screen,1_3_0_0,2022-04-25T17:23:04.098Z,,,,,,,,,,,,,,,,,,,,,,,,,,,,,,,4253.239999999998,,timeout,,,,,,,,,3,,,,,,,,O,I,S,,39294,39292.22,35049.58,35050,35052.32,39305.56,,,
Judgement,html.Screen,1_3_0_1,2022-04-25T17:23:05.078Z,,,,,,,,,,,,,,,,,,,,,,,,,,,,true,3,,953.4400000000023,,response,,,,,,,,,3,,3,click #choice-3,,,,,O,I,S,,40274,40259,39292.22,39295,39305.56,40278.78,,,
Trial,flow.Sequence,1_3_0,2022-04-25T17:23:05.078Z,,,,,,,,,,,,,,,,,,,,,,,,,,,,,,,5206.68,,completion,,,,,,,,,3,,,,,,,,O,I,S,,40275,40259,35049.58,35050,35052.32,40278.78,,,
Sounds,html.Screen,1_3_1_0,2022-04-25T17:23:09.324Z,,,,,,,,,,,,,,,,,,,,,,,,,,,,,,,4253.18,,timeout,,,,,,,,,2,,,,,,,,I,S,O,,44521,44518.68,40273.56,40275,40278.78,44531.96,,,
Judgement,html.Screen,1_3_1_1,2022-04-25T17:23:10.069Z,,,,,,,,,,,,,,,,,,,,,,,,,,,,true,2,,726.0400000000009,,response,,,,,,,,,2,,2,click #choice-2,,,,,I,S,O,,45266,45258,44518.68,44523,44531.96,45278.6,,,
Trial,flow.Sequence,1_3_1,2022-04-25T17:23:10.069Z,,,,,,,,,,,,,,,,,,,,,,,,,,,,,,,4979.220000000001,,completion,,,,,,,,,2,,,,,,,,I,S,O,,45266,45258,40273.56,40275,40278.78,45278.6,,,
Sounds,html.Screen,1_3_2_0,2022-04-25T17:23:14.323Z,,,,,,,,,,,,,,,,,,,,,,,,,,,,,,,4253.260000000002,,timeout,,,,,,,,,1,,,,,,,,S,I,O,,49520,49518.52,45265.56,45266,45278.6,49531.86,,,
Judgement,html.Screen,1_3_2_1,2022-04-25T17:23:14.934Z,,,,,,,,,,,,,,,,,,,,,,,,,,,,true,1,,585.1399999999994,,response,,,,,,,,,1,,1,click #choice-1,,,,,S,I,O,,50130,50117,49518.52,49520,49531.86,50131.78,,,
Trial,flow.Sequence,1_3_2,2022-04-25T17:23:14.934Z,,,,,,,,,,,,,,,,,,,,,,,,,,,,,,,4838.4000000000015,,completion,,,,,,,,,1,,,,,,,,S,I,O,,50130,50117,45265.56,45266,45278.6,50131.78,,,
Sounds,html.Screen,1_3_3_0,2022-04-25T17:23:19.176Z,,,,,,,,,,,,,,,,,,,,,,,,,,,,,,,4253.260000000002,,timeout,,,,,,,,,1,,,,,,,,S,O,I,,54373,54371.72,50129.62,50130,50131.78,54385.04,,,
Judgement,html.Screen,1_3_3_1,2022-04-25T17:23:19.746Z,,,,,,,,,,,,,,,,,,,,,,,,,,,,true,1,,544.9599999999991,,response,,,,,,,,,1,,1,click #choice-1,,,,,S,O,I,,54943,54930,54371.72,54374,54385.04,54944.94,,,
Trial,flow.Sequence,1_3_3,2022-04-25T17:23:19.746Z,,,,,,,,,,,,,,,,,,,,,,,,,,,,,,,4798.220000000001,,completion,,,,,,,,,1,,,,,,,,S,O,I,,54943,54930,50129.62,50130,50131.78,54944.94,,,
Sounds,html.Screen,1_3_4_0,2022-04-25T17:23:23.989Z,,,,,,,,,,,,,,,,,,,,,,,,,,,,,,,4253.199999999997,,timeout,,,,,,,,,3,,,,,,,,I,O,S,,59186,59184.8,54941.54,54943,54944.94,59198.14,,,
Judgement,html.Screen,1_3_4_1,2022-04-25T17:23:24.661Z,,,,,,,,,,,,,,,,,,,,,,,,,,,,true,3,,653.8600000000006,,response,,,,,,,,,3,,3,click #choice-3,,,,,I,O,S,,59858,59852,59184.8,59186,59198.14,59864.78,,,
Trial,flow.Sequence,1_3_4,2022-04-25T17:23:24.662Z,,,,,,,,,,,,,,,,,,,,,,,,,,,,,,,4907.059999999998,,completion,,,,,,,,,3,,,,,,,,I,O,S,,59858,59852,54941.54,54943,54944.94,59864.78,,,
Sounds,html.Screen,1_3_5_0,2022-04-25T17:23:28.910Z,,,,,,,,,,,,,,,,,,,,,,,,,,,,,,,4253.1600000000035,,timeout,,,,,,,,,2,,,,,,,,O,S,I,,64107,64104.62,59857.6,59859,59864.78,64117.94,,,
Judgement,html.Screen,1_3_5_1,2022-04-25T17:23:29.405Z,,,,,,,,,,,,,,,,,,,,,,,,,,,,true,2,,468.0599999999977,,response,,,,,,,,,2,,2,click #choice-2,,,,,O,S,I,,64602,64586,64104.62,64107,64117.94,64611.34,,,
Trial,flow.Sequence,1_3_5,2022-04-25T17:23:29.406Z,,,,,,,,,,,,,,,,,,,,,,,,,,,,,,,4721.220000000001,,completion,,,,,,,,,2,,,,,,,,O,S,I,,64602,64586,59857.6,59858,59864.78,64611.34,,,
Task,flow.Loop,1_3,2022-04-25T17:23:29.406Z,,,,,,,,,,,,,,,,,,,,,,,,,,,,,,,29533.68,,completion,,,1,,,,,,,,,,,,,,,,,,64603,64586,35049.58,35050,35052.32,64611.34,,,
Trap,html.Screen,1_4,2022-04-25T17:23:29.408Z,,,,,,,,,,,,,,,,,,,,,,,,,,,,,,,NaN,,skipped,,,,,,,,,,,,,,,,,,,,,64604,64586,,64604,,64611.34,,,
Thanks,html.Screen,1_5,2022-04-25T17:23:31.807Z,,,,,,,,,,,,,,,,,,,,,,,,,,,,,,,2380.6600000000035,,response,,,,,,,,,,,continue,click button,,,,,,,,,67003,66992,64601.62,64604,64611.34,68957.78,,,
Headphone screening,flow.Sequence,1,2022-04-25T17:23:31.807Z,,,,,,,,,,,,,,,,,,,,,,,,,,,,,,,53072.28,,completion,,,,,,,,,,,,,,,,,,,,,67003,66992,13915.48,13920,13919.72,68957.78,,,
Instructions,html.Page,2_0,2022-04-25T17:23:44.863Z,,,,,,,,,,,,,,,,,,,,,,,,,,,,,,,11101.220000000001,,form submission,,,,,,,,,,,,,,,,,,,,,80060,80059,68944.46,68946,68957.78,80064.08,,,
Holding screen,html.Screen,2_1_0_0,2022-04-25T17:23:54.856Z,,,,,,,,,,,,,,,,,,,,,,,,,,,,,,,9999.699999999997,,timeout,,,,,,,,,,,,,,,,,,,,,90052,90050.44,80057.54,80061,80064.08,90063.78,,,
screen,html.Screen,2_1_0_1_0,2022-04-25T17:23:55.567Z,,,,,,,,,,,,,,,,,53,,,,,,,,,,,,,,694.2200000000012,,response,,,,99,,,,,,,Space,keypress(Space),,,,,,,,When -- ----- -- ------ - ------- --- ----------<br>------------- ------ ------ ---- ---- ------- ----- -- ----<br>-------- ------- -- ---------- --- - --- ----- ----- ----<br>---- --- --- ----- --- ---- ---- ------- ----- ---- -------<br>--- --- -- ----- -- --- ---- -- --- ---- -- ------ ------<br>--- ----- -- ----,90764,90758,90050.44,90054,90063.78,90765.46,,0,When
screen,html.Screen,2_1_0_1_1,2022-04-25T17:23:55.934Z,,,,,,,,,,,,,,,,,53,,,,,,,,,,,,,,351.5399999999936,,response,,,,99,,,,,,,Space,keypress(Space),,,,,,,,---- it ----- -- ------ - ------- --- ----------<br>------------- ------ ------ ---- ---- ------- ----- -- ----<br>-------- ------- -- ---------- --- - --- ----- ----- ----<br>---- --- --- ----- --- ---- ---- ------- ----- ---- -------<br>--- --- -- ----- -- --- ---- -- --- ---- -- ------ ------<br>--- ----- -- ----,91131,91117,90765.02,90765,90765.46,91132.28,,1,it
screen,html.Screen,2_1_0_1_2,2022-04-25T17:23:56.726Z,,,,,,,,,,,,,,,,,53,,,,,,,,,,,,,,781.7200000000012,,response,,,,99,,,,,,,Space,keypress(Space),,,,,,,,---- -- comes -- ------ - ------- --- ----------<br>------------- ------ ------ ---- ---- ------- ----- -- ----<br>-------- ------- -- ---------- --- - --- ----- ----- ----<br>---- --- --- ----- --- ---- ---- ------- ----- ---- -------<br>--- --- -- ----- -- --- ---- -- --- ---- -- ------ ------<br>--- ----- -- ----,91922,91914,91131.82,91132,91132.28,91923.22,,2,comes
screen,html.Screen,2_1_0_1_3,2022-04-25T17:23:57.151Z,,,,,,,,,,,,,,,,,53,,,,,,,,,,,,,,412.77999999999884,,response,,,,99,,,,,,,Space,keypress(Space),,,,,,,,---- -- ----- to ------ - ------- --- ----------<br>------------- ------ ------ ---- ---- ------- ----- -- ----<br>-------- ------- -- ---------- --- - --- ----- ----- ----<br>---- --- --- ----- --- ---- ---- ------- ----- ---- -------<br>--- --- -- ----- -- --- ---- -- --- ---- -- ------ ------<br>--- ----- -- ----,92347,92336,91922.84,91923,91923.22,92349.42,,3,to
screen,html.Screen,2_1_0_1_4,2022-04-25T17:23:57.616Z,,,,,,,,,,,,,,,,,53,,,,,,,,,,,,,,455.58000000000175,,response,,,,99,,,,,,,Space,keypress(Space),,,,,,,,---- -- ----- -- having - ------- --- ----------<br>------------- ------ ------ ---- ---- ------- ----- -- ----<br>-------- ------- -- ---------- --- - --- ----- ----- ----<br>---- --- --- ----- --- ---- ---- ------- ----- ---- -------<br>--- --- -- ----- -- --- ---- -- --- ---- -- ------ ------<br>--- ----- -- ----,92812,92805,92349.02,92349,92349.42,92813.32,,4,having
screen,html.Screen,2_1_0_1_5,2022-04-25T17:23:58.110Z,,,,,,,,,,,,,,,,,53,,,,,,,,,,,,,,475.679999999993,,response,,,,99,,,,,,,Space,keypress(Space),,,,,,,,---- -- ----- -- ------ a ------- --- ----------<br>------------- ------ ------ ---- ---- ------- ----- -- ----<br>-------- ------- -- ---------- --- - --- ----- ----- ----<br>---- --- --- ----- --- ---- ---- ------- ----- ---- -------<br>--- --- -- ----- -- --- ---- -- --- ---- -- ------ ------<br>--- ----- -- ----,93307,93289,92812.88,92813,92813.32,93308.42,,5,a
screen,html.Screen,2_1_0_1_6,2022-04-25T17:23:58.780Z,,,,,,,,,,,,,,,,,53,,,,,,,,,,,,,,652.5800000000017,,response,,,,99,,,,,,,Space,keypress(Space),,,,,,,,---- -- ----- -- ------ - lasting --- ----------<br>------------- ------ ------ ---- ---- ------- ----- -- ----<br>-------- ------- -- ---------- --- - --- ----- ----- ----<br>---- --- --- ----- --- ---- ---- ------- ----- ---- -------<br>--- --- -- ----- -- --- ---- -- --- ---- -- ------ ------<br>--- ----- -- ----,93976,93961,93307.96,93308,93308.42,93977.08,,6,lasting
screen,html.Screen,2_1_0_1_7,2022-04-25T17:23:59.214Z,,,,,,,,,,,,,,,,,53,,,,,,,,,,,,,,421.91999999999825,,response,,,,99,,,,,,,Space,keypress(Space),,,,,,,,---- -- ----- -- ------ - ------- and ----------<br>------------- ------ ------ ---- ---- ------- ----- -- ----<br>-------- ------- -- ---------- --- - --- ----- ----- ----<br>---- --- --- ----- --- ---- ---- ------- ----- ---- -------<br>--- --- -- ----- -- --- ---- -- --- ---- -- ------ ------<br>--- ----- -- ----,94410,94399,93976.88,93976,93977.08,94411.38,,7,and
screen,html.Screen,2_1_0_1_8,2022-04-25T17:23:59.695Z,,,,,,,,,,,,,,,,,53,,,,,,,,,,,,,,471.61999999999534,,response,,,,99,,,,,,,Space,keypress(Space),,,,,,,,---- -- ----- -- ------ - ------- --- fulfilling<br>------------- ------ ------ ---- ---- ------- ----- -- ----<br>-------- ------- -- ---------- --- - --- ----- ----- ----<br>---- --- --- ----- --- ---- ---- ------- ----- ---- -------<br>--- --- -- ----- -- --- ---- -- --- ---- -- ------ ------<br>--- ----- -- ----,94891,94883,94410.92,94411,94411.38,94892.7,,8,fulfilling
screen,html.Screen,2_1_0_1_9,2022-04-25T17:24:00.958Z,,,,,,,,,,,,,,,,,53,,,,,,,,,,,,,,1256.300000000003,,response,,,,99,,,,,,,Space,keypress(Space),,,,,,,,"---- -- ----- -- ------ - ------- --- ----------<br>relationship, ------ ------ ---- ---- ------- ----- -- ----<br>-------- ------- -- ---------- --- - --- ----- ----- ----<br>---- --- --- ----- --- ---- ---- ------- ----- ---- -------<br>--- --- -- ----- -- --- ---- -- --- ---- -- ------ ------<br>--- ----- -- ----",96155,96149,94892.24,94892,94892.7,96156.92,,9,"relationship,"
screen,html.Screen,2_1_0_1_10,2022-04-25T17:24:01.639Z,,,,,,,,,,,,,,,,,53,,,,,,,,,,,,,,663.0800000000017,,response,,,,99,,,,,,,Space,keypress(Space),,,,,,,,---- -- ----- -- ------ - ------- --- ----------<br>------------- common ------ ---- ---- ------- ----- -- ----<br>-------- ------- -- ---------- --- - --- ----- ----- ----<br>---- --- --- ----- --- ---- ---- ------- ----- ---- -------<br>--- --- -- ----- -- --- ---- -- --- ---- -- ------ ------<br>--- ----- -- ----,96835,96820,96155.12,96155,96156.92,96836.9,,10,common
screen,html.Screen,2_1_0_1_11,2022-04-25T17:24:02.182Z,,,,,,,,,,,,,,,,,53,,,,,,,,,,,,,,530.1000000000058,,response,,,,99,,,,,,,Space,keypress(Space),,,,,,,,---- -- ----- -- ------ - ------- --- ----------<br>------------- ------ wisdom ---- ---- ------- ----- -- ----<br>-------- ------- -- ---------- --- - --- ----- ----- ----<br>---- --- --- ----- --- ---- ---- ------- ----- ---- -------<br>--- --- -- ----- -- --- ---- -- --- ---- -- ------ ------<br>--- ----- -- ----,97379,97367,96835.3,96836,96836.9,97379.54,,11,wisdom
screen,html.Screen,2_1_0_1_12,2022-04-25T17:24:02.588Z,,,,,,,,,,,,,,,,,53,,,,,,,,,,,,,,394.4600000000064,,response,,,,99,,,,,,,Space,keypress(Space),,,,,,,,---- -- ----- -- ------ - ------- --- ----------<br>------------- ------ ------ says ---- ------- ----- -- ----<br>-------- ------- -- ---------- --- - --- ----- ----- ----<br>---- --- --- ----- --- ---- ---- ------- ----- ---- -------<br>--- --- -- ----- -- --- ---- -- --- ---- -- ------ ------<br>--- ----- -- ----,97785,97774,97379.12,97379,97379.54,97785.38,,12,says
screen,html.Screen,2_1_0_1_13,2022-04-25T17:24:03.222Z,,,,,,,,,,,,,,,,,53,,,,,,,,,,,,,,628.6199999999953,,response,,,,99,,,,,,,Space,keypress(Space),,,,,,,,---- -- ----- -- ------ - ------- --- ----------<br>------------- ------ ------ ---- that ------- ----- -- ----<br>-------- ------- -- ---------- --- - --- ----- ----- ----<br>---- --- --- ----- --- ---- ---- ------- ----- ---- -------<br>--- --- -- ----- -- --- ---- -- --- ---- -- ------ ------<br>--- ----- -- ----,98418,98414,97785.12,97785,97785.38,98419.24,,13,that
screen,html.Screen,2_1_0_1_14,2022-04-25T17:24:03.710Z,,,,,,,,,,,,,,,,,53,,,,,,,,,,,,,,480.75999999999476,,response,,,,99,,,,,,,Space,keypress(Space),,,,,,,,---- -- ----- -- ------ - ------- --- ----------<br>------------- ------ ------ ---- ---- feeling ----- -- ----<br>-------- ------- -- ---------- --- - --- ----- ----- ----<br>---- --- --- ----- --- ---- ---- ------- ----- ---- -------<br>--- --- -- ----- -- --- ---- -- --- ---- -- ------ ------<br>--- ----- -- ----,98906,98900,98418.84,98419,98419.24,98907.36,,14,feeling
screen,html.Screen,2_1_0_1_15,2022-04-25T17:24:04.094Z,,,,,,,,,,,,,,,,,53,,,,,,,,,,,,,,366.6399999999994,,response,,,,99,,,,,,,Space,keypress(Space),,,,,,,,---- -- ----- -- ------ - ------- --- ----------<br>------------- ------ ------ ---- ---- ------- close -- ----<br>-------- ------- -- ---------- --- - --- ----- ----- ----<br>---- --- --- ----- --- ---- ---- ------- ----- ---- -------<br>--- --- -- ----- -- --- ---- -- --- ---- -- ------ ------<br>--- ----- -- ----,99290,99274,98906.9,98906,98907.36,99291.3,,15,close
screen,html.Screen,2_1_0_1_16,2022-04-25T17:24:04.526Z,,,,,,,,,,,,,,,,,53,,,,,,,,,,,,,,419.6999999999971,,response,,,,99,,,,,,,Space,keypress(Space),,,,,,,,---- -- ----- -- ------ - ------- --- ----------<br>------------- ------ ------ ---- ---- ------- ----- to ----<br>-------- ------- -- ---------- --- - --- ----- ----- ----<br>---- --- --- ----- --- ---- ---- ------- ----- ---- -------<br>--- --- -- ----- -- --- ---- -- --- ---- -- ------ ------<br>--- ----- -- ----,99722,99711,99290.86,99291,99291.3,99723.42,,16,to
screen,html.Screen,2_1_0_1_17,2022-04-25T17:24:05.006Z,,,,,,,,,,,,,,,,,53,,,,,,,,,,,,,,471.58000000000175,,response,,,,99,,,,,,,Space,keypress(Space),,,,,,,,---- -- ----- -- ------ - ------- --- ----------<br>------------- ------ ------ ---- ---- ------- ----- -- your<br>-------- ------- -- ---------- --- - --- ----- ----- ----<br>---- --- --- ----- --- ---- ---- ------- ----- ---- -------<br>--- --- -- ----- -- --- ---- -- --- ---- -- ------ ------<br>--- ----- -- ----,100202,100195,99722.98,99723,99723.42,100203.24,,17,your
screen,html.Screen,2_1_0_1_18,2022-04-25T17:24:05.550Z,,,,,,,,,,,,,,,,,53,,,,,,,,,,,,,,538.7599999999948,,response,,,,99,,,,,,,Space,keypress(Space),,,,,,,,---- -- ----- -- ------ - ------- --- ----------<br>------------- ------ ------ ---- ---- ------- ----- -- ----<br>romantic ------- -- ---------- --- - --- ----- ----- ----<br>---- --- --- ----- --- ---- ---- ------- ----- ---- -------<br>--- --- -- ----- -- --- ---- -- --- ---- -- ------ ------<br>--- ----- -- ----,100746,100742,100202.82,100202,100203.24,100747.38,,18,romantic
screen,html.Screen,2_1_0_1_19,2022-04-25T17:24:06.166Z,,,,,,,,,,,,,,,,,53,,,,,,,,,,,,,,604.6199999999953,,response,,,,99,,,,,,,Space,keypress(Space),,,,,,,,---- -- ----- -- ------ - ------- --- ----------<br>------------- ------ ------ ---- ---- ------- ----- -- ----<br>-------- partner -- ---------- --- - --- ----- ----- ----<br>---- --- --- ----- --- ---- ---- ------- ----- ---- -------<br>--- --- -- ----- -- --- ---- -- --- ---- -- ------ ------<br>--- ----- -- ----,101362,101352,100746.92,100746,100747.38,101363.32,,19,partner
screen,html.Screen,2_1_0_1_20,2022-04-25T17:24:06.558Z,,,,,,,,,,,,,,,,,53,,,,,,,,,,,,,,378.679999999993,,response,,,,99,,,,,,,Space,keypress(Space),,,,,,,,---- -- ----- -- ------ - ------- --- ----------<br>------------- ------ ------ ---- ---- ------- ----- -- ----<br>-------- ------- is ---------- --- - --- ----- ----- ----<br>---- --- --- ----- --- ---- ---- ------- ----- ---- -------<br>--- --- -- ----- -- --- ---- -- --- ---- -- ------ ------<br>--- ----- -- ----,101754,101742,101362.86,101363,101363.32,101756.72,,20,is
screen,html.Screen,2_1_0_1_21,2022-04-25T17:24:07.182Z,,,,,,,,,,,,,,,,,53,,,,,,,,,,,,,,610.2799999999988,,response,,,,99,,,,,,,Space,keypress(Space),,,,,,,,---- -- ----- -- ------ - ------- --- ----------<br>------------- ------ ------ ---- ---- ------- ----- -- ----<br>-------- ------- -- paramount. --- - --- ----- ----- ----<br>---- --- --- ----- --- ---- ---- ------- ----- ---- -------<br>--- --- -- ----- -- --- ---- -- --- ---- -- ------ ------<br>--- ----- -- ----,102378,102367,101754.94,101755,101756.72,102379.18,,21,paramount.
screen,html.Screen,2_1_0_1_22,2022-04-25T17:24:07.838Z,,,,,,,,,,,,,,,,,53,,,,,,,,,,,,,,644.820000000007,,response,,,,99,,,,,,,Space,keypress(Space),,,,,,,,---- -- ----- -- ------ - ------- --- ----------<br>------------- ------ ------ ---- ---- ------- ----- -- ----<br>-------- ------- -- ---------- But - --- ----- ----- ----<br>---- --- --- ----- --- ---- ---- ------- ----- ---- -------<br>--- --- -- ----- -- --- ---- -- --- ---- -- ------ ------<br>--- ----- -- ----,103034,103024,102378.82,102378,102379.18,103036.68,,22,But
screen,html.Screen,2_1_0_1_23,2022-04-25T17:24:08.206Z,,,,,,,,,,,,,,,,,53,,,,,,,,,,,,,,362.320000000007,,response,,,,99,,,,,,,Space,keypress(Space),,,,,,,,---- -- ----- -- ------ - ------- --- ----------<br>------------- ------ ------ ---- ---- ------- ----- -- ----<br>-------- ------- -- ---------- --- a --- ----- ----- ----<br>---- --- --- ----- --- ---- ---- ------- ----- ---- -------<br>--- --- -- ----- -- --- ---- -- --- ---- -- ------ ------<br>--- ----- -- ----,103402,103399,103035.12,103035,103036.68,103403.58,,23,a
screen,html.Screen,2_1_0_1_24,2022-04-25T17:24:08.598Z,,,,,,,,,,,,,,,,,53,,,,,,,,,,,,,,385.41999999999825,,response,,,,99,,,,,,,Space,keypress(Space),,,,,,,,---- -- ----- -- ------ - ------- --- ----------<br>------------- ------ ------ ---- ---- ------- ----- -- ----<br>-------- ------- -- ---------- --- - new ----- ----- ----<br>---- --- --- ----- --- ---- ---- ------- ----- ---- -------<br>--- --- -- ----- -- --- ---- -- --- ---- -- ------ ------<br>--- ----- -- ----,103795,103789,103403.12,103403,103403.58,103796.68,,24,new
screen,html.Screen,2_1_0_1_25,2022-04-25T17:24:09.078Z,,,,,,,,,,,,,,,,,53,,,,,,,,,,,,,,461.320000000007,,response,,,,99,,,,,,,Space,keypress(Space),,,,,,,,---- -- ----- -- ------ - ------- --- ----------<br>------------- ------ ------ ---- ---- ------- ----- -- ----<br>-------- ------- -- ---------- --- - --- study ----- ----<br>---- --- --- ----- --- ---- ---- ------- ----- ---- -------<br>--- --- -- ----- -- --- ---- -- --- ---- -- ------ ------<br>--- ----- -- ----,104275,104258,103795.02,103795,103796.68,104276.64,,25,study
screen,html.Screen,2_1_0_1_26,2022-04-25T17:24:09.526Z,,,,,,,,,,,,,,,,,53,,,,,,,,,,,,,,434.3600000000006,,response,,,,99,,,,,,,Space,keypress(Space),,,,,,,,---- -- ----- -- ------ - ------- --- ----------<br>------------- ------ ------ ---- ---- ------- ----- -- ----<br>-------- ------- -- ---------- --- - --- ----- finds ----<br>---- --- --- ----- --- ---- ---- ------- ----- ---- -------<br>--- --- -- ----- -- --- ---- -- --- ---- -- ------ ------<br>--- ----- -- ----,104723,104711,104275.02,104275,104276.64,104723.22,,26,finds
screen,html.Screen,2_1_0_1_27,2022-04-25T17:24:10.039Z,,,,,,,,,,,,,,,,,53,,,,,,,,,,,,,,503.77999999999884,,response,,,,99,,,,,,,Space,keypress(Space),,,,,,,,---- -- ----- -- ------ - ------- --- ----------<br>------------- ------ ------ ---- ---- ------- ----- -- ----<br>-------- ------- -- ---------- --- - --- ----- ----- that<br>---- --- --- ----- --- ---- ---- ------- ----- ---- -------<br>--- --- -- ----- -- --- ---- -- --- ---- -- ------ ------<br>--- ----- -- ----,105236,105227,104722.78,104723,104723.22,105236.52,,27,that
screen,html.Screen,2_1_0_1_28,2022-04-25T17:24:10.462Z,,,,,,,,,,,,,,,,,53,,,,,,,,,,,,,,412.4799999999959,,response,,,,99,,,,,,,Space,keypress(Space),,,,,,,,---- -- ----- -- ------ - ------- --- ----------<br>------------- ------ ------ ---- ---- ------- ----- -- ----<br>-------- ------- -- ---------- --- - --- ----- ----- ----<br>it's --- --- ----- --- ---- ---- ------- ----- ---- -------<br>--- --- -- ----- -- --- ---- -- --- ---- -- ------ ------<br>--- ----- -- ----,105658,105649,105236.06,105236,105236.52,105659.2,,28,it's
screen,html.Screen,2_1_0_1_29,2022-04-25T17:24:10.821Z,,,,,,,,,,,,,,,,,53,,,,,,,,,,,,,,348.8000000000029,,response,,,,99,,,,,,,Space,keypress(Space),,,,,,,,---- -- ----- -- ------ - ------- --- ----------<br>------------- ------ ------ ---- ---- ------- ----- -- ----<br>-------- ------- -- ---------- --- - --- ----- ----- ----<br>---- not --- ----- --- ---- ---- ------- ----- ---- -------<br>--- --- -- ----- -- --- ---- -- --- ---- -- ------ ------<br>--- ----- -- ----,106018,106008,105658.76,105659,105659.2,106019.1,,29,not
screen,html.Screen,2_1_0_1_30,2022-04-25T17:24:11.183Z,,,,,,,,,,,,,,,,,53,,,,,,,,,,,,,,347.8999999999942,,response,,,,99,,,,,,,Space,keypress(Space),,,,,,,,---- -- ----- -- ------ - ------- --- ----------<br>------------- ------ ------ ---- ---- ------- ----- -- ----<br>-------- ------- -- ---------- --- - --- ----- ----- ----<br>---- --- how ----- --- ---- ---- ------- ----- ---- -------<br>--- --- -- ----- -- --- ---- -- --- ---- -- ------ ------<br>--- ----- -- ----,106378,106367,106018.66,106018,106019.1,106379.5,,30,how
screen,html.Screen,2_1_0_1_31,2022-04-25T17:24:11.751Z,,,,,,,,,,,,,,,,,53,,,,,,,,,,,,,,550.5,,response,,,,99,,,,,,,Space,keypress(Space),,,,,,,,---- -- ----- -- ------ - ------- --- ----------<br>------------- ------ ------ ---- ---- ------- ----- -- ----<br>-------- ------- -- ---------- --- - --- ----- ----- ----<br>---- --- --- close --- ---- ---- ------- ----- ---- -------<br>--- --- -- ----- -- --- ---- -- --- ---- -- ------ ------<br>--- ----- -- ----,106947,106930,106379.08,106379,106379.5,106947.66,,31,close
screen,html.Screen,2_1_0_1_32,2022-04-25T17:24:12.102Z,,,,,,,,,,,,,,,,,53,,,,,,,,,,,,,,341.3399999999965,,response,,,,99,,,,,,,Space,keypress(Space),,,,,,,,---- -- ----- -- ------ - ------- --- ----------<br>------------- ------ ------ ---- ---- ------- ----- -- ----<br>-------- ------- -- ---------- --- - --- ----- ----- ----<br>---- --- --- ----- you ---- ---- ------- ----- ---- -------<br>--- --- -- ----- -- --- ---- -- --- ---- -- ------ ------<br>--- ----- -- ----,107298,107289,106947.22,106947,106947.66,107299.22,,32,you
screen,html.Screen,2_1_0_1_33,2022-04-25T17:24:12.606Z,,,,,,,,,,,,,,,,,53,,,,,,,,,,,,,,489.77999999999884,,response,,,,99,,,,,,,Space,keypress(Space),,,,,,,,---- -- ----- -- ------ - ------- --- ----------<br>------------- ------ ------ ---- ---- ------- ----- -- ----<br>-------- ------- -- ---------- --- - --- ----- ----- ----<br>---- --- --- ----- --- feel ---- ------- ----- ---- -------<br>--- --- -- ----- -- --- ---- -- --- ---- -- ------ ------<br>--- ----- -- ----,107803,107789,107298.78,107299,107299.22,107803.36,,33,feel
screen,html.Screen,2_1_0_1_34,2022-04-25T17:24:12.966Z,,,,,,,,,,,,,,,,,53,,,,,,,,,,,,,,345.6399999999994,,response,,,,99,,,,,,,Space,keypress(Space),,,,,,,,---- -- ----- -- ------ - ------- --- ----------<br>------------- ------ ------ ---- ---- ------- ----- -- ----<br>-------- ------- -- ---------- --- - --- ----- ----- ----<br>---- --- --- ----- --- ---- that ------- ----- ---- -------<br>--- --- -- ----- -- --- ---- -- --- ---- -- ------ ------<br>--- ----- -- ----,108162,108149,107802.9,107803,107803.36,108163.26,,34,that
screen,html.Screen,2_1_0_1_35,2022-04-25T17:24:13.333Z,,,,,,,,,,,,,,,,,53,,,,,,,,,,,,,,360.74000000000524,,response,,,,99,,,,,,,Space,keypress(Space),,,,,,,,---- -- ----- -- ------ - ------- --- ----------<br>------------- ------ ------ ---- ---- ------- ----- -- ----<br>-------- ------- -- ---------- --- - --- ----- ----- ----<br>---- --- --- ----- --- ---- ---- matters ----- ---- -------<br>--- --- -- ----- -- --- ---- -- --- ---- -- ------ ------<br>--- ----- -- ----,108530,108524,108162.8,108163,108163.26,108531.54,,35,matters
screen,html.Screen,2_1_0_1_36,2022-04-25T17:24:13.726Z,,,,,,,,,,,,,,,,,53,,,,,,,,,,,,,,383.4600000000064,,response,,,,99,,,,,,,Space,keypress(Space),,,,,,,,"---- -- ----- -- ------ - ------- --- ----------<br>------------- ------ ------ ---- ---- ------- ----- -- ----<br>-------- ------- -- ---------- --- - --- ----- ----- ----<br>---- --- --- ----- --- ---- ---- ------- most, ---- -------<br>--- --- -- ----- -- --- ---- -- --- ---- -- ------ ------<br>--- ----- -- ----",108922,108915,108531.1,108531,108531.54,108923.26,,36,"most,"
screen,html.Screen,2_1_0_1_37,2022-04-25T17:24:14.182Z,,,,,,,,,,,,,,,,,53,,,,,,,,,,,,,,443.74000000000524,,response,,,,99,,,,,,,Space,keypress(Space),,,,,,,,---- -- ----- -- ------ - ------- --- ----------<br>------------- ------ ------ ---- ---- ------- ----- -- ----<br>-------- ------- -- ---------- --- - --- ----- ----- ----<br>---- --- --- ----- --- ---- ---- ------- ----- it's -------<br>--- --- -- ----- -- --- ---- -- --- ---- -- ------ ------<br>--- ----- -- ----,109378,109367,108922.82,108922,108923.26,109379.22,,37,it's
screen,html.Screen,2_1_0_1_38,2022-04-25T17:24:14.606Z,,,,,,,,,,,,,,,,,53,,,,,,,,,,,,,,409.77999999999884,,response,,,,99,,,,,,,Space,keypress(Space),,,,,,,,---- -- ----- -- ------ - ------- --- ----------<br>------------- ------ ------ ---- ---- ------- ----- -- ----<br>-------- ------- -- ---------- --- - --- ----- ----- ----<br>---- --- --- ----- --- ---- ---- ------- ----- ---- whether<br>--- --- -- ----- -- --- ---- -- --- ---- -- ------ ------<br>--- ----- -- ----,109802,109789,109378.8,109379,109379.22,109803.32,,38,whether
screen,html.Screen,2_1_0_1_39,2022-04-25T17:24:14.998Z,,,,,,,,,,,,,,,,,53,,,,,,,,,,,,,,376.679999999993,,response,,,,99,,,,,,,Space,keypress(Space),,,,,,,,---- -- ----- -- ------ - ------- --- ----------<br>------------- ------ ------ ---- ---- ------- ----- -- ----<br>-------- ------- -- ---------- --- - --- ----- ----- ----<br>---- --- --- ----- --- ---- ---- ------- ----- ---- -------<br>you --- -- ----- -- --- ---- -- --- ---- -- ------ ------<br>--- ----- -- ----,110194,110180,109802.9,109803,109803.32,110196.46,,39,you
screen,html.Screen,2_1_0_1_40,2022-04-25T17:24:15.398Z,,,,,,,,,,,,,,,,,53,,,,,,,,,,,,,,389.5399999999936,,response,,,,99,,,,,,,Space,keypress(Space),,,,,,,,---- -- ----- -- ------ - ------- --- ----------<br>------------- ------ ------ ---- ---- ------- ----- -- ----<br>-------- ------- -- ---------- --- - --- ----- ----- ----<br>---- --- --- ----- --- ---- ---- ------- ----- ---- -------<br>--- are -- ----- -- --- ---- -- --- ---- -- ------ ------<br>--- ----- -- ----,110594,110586,110194.64,110195,110196.46,110596.44,,40,are
screen,html.Screen,2_1_0_1_41,2022-04-25T17:24:15.766Z,,,,,,,,,,,,,,,,,53,,,,,,,,,,,,,,348.5599999999977,,response,,,,99,,,,,,,Space,keypress(Space),,,,,,,,---- -- ----- -- ------ - ------- --- ----------<br>------------- ------ ------ ---- ---- ------- ----- -- ----<br>-------- ------- -- ---------- --- - --- ----- ----- ----<br>---- --- --- ----- --- ---- ---- ------- ----- ---- -------<br>--- --- as ----- -- --- ---- -- --- ---- -- ------ ------<br>--- ----- -- ----,110962,110945,110594.74,110595,110596.44,110962.9,,41,as
screen,html.Screen,2_1_0_1_42,2022-04-25T17:24:16.118Z,,,,,,,,,,,,,,,,,53,,,,,,,,,,,,,,343.1000000000058,,response,,,,99,,,,,,,Space,keypress(Space),,,,,,,,---- -- ----- -- ------ - ------- --- ----------<br>------------- ------ ------ ---- ---- ------- ----- -- ----<br>-------- ------- -- ---------- --- - --- ----- ----- ----<br>---- --- --- ----- --- ---- ---- ------- ----- ---- -------<br>--- --- -- close -- --- ---- -- --- ---- -- ------ ------<br>--- ----- -- ----,111315,111306,110962.46,110962,110962.9,111316.42,,42,close
screen,html.Screen,2_1_0_1_43,2022-04-25T17:24:16.462Z,,,,,,,,,,,,,,,,,53,,,,,,,,,,,,,,332.58000000000175,,response,,,,99,,,,,,,Space,keypress(Space),,,,,,,,---- -- ----- -- ------ - ------- --- ----------<br>------------- ------ ------ ---- ---- ------- ----- -- ----<br>-------- ------- -- ---------- --- - --- ----- ----- ----<br>---- --- --- ----- --- ---- ---- ------- ----- ---- -------<br>--- --- -- ----- as --- ---- -- --- ---- -- ------ ------<br>--- ----- -- ----,111658,111649,111314.78,111315,111316.42,111659.26,,43,as
screen,html.Screen,2_1_0_1_44,2022-04-25T17:24:16.845Z,,,,,,,,,,,,,,,,,53,,,,,,,,,,,,,,364.74000000000524,,response,,,,99,,,,,,,Space,keypress(Space),,,,,,,,---- -- ----- -- ------ - ------- --- ----------<br>------------- ------ ------ ---- ---- ------- ----- -- ----<br>-------- ------- -- ---------- --- - --- ----- ----- ----<br>---- --- --- ----- --- ---- ---- ------- ----- ---- -------<br>--- --- -- ----- -- you ---- -- --- ---- -- ------ ------<br>--- ----- -- ----,112042,112024,111658.78,111658,111659.26,112043.16,,44,you
screen,html.Screen,2_1_0_1_45,2022-04-25T17:24:17.222Z,,,,,,,,,,,,,,,,,53,,,,,,,,,,,,,,370.8399999999965,,response,,,,99,,,,,,,Space,keypress(Space),,,,,,,,---- -- ----- -- ------ - ------- --- ----------<br>------------- ------ ------ ---- ---- ------- ----- -- ----<br>-------- ------- -- ---------- --- - --- ----- ----- ----<br>---- --- --- ----- --- ---- ---- ------- ----- ---- -------<br>--- --- -- ----- -- --- want -- --- ---- -- ------ ------<br>--- ----- -- ----,112419,112414,112042.82,112043,112043.16,112419.68,,45,want
screen,html.Screen,2_1_0_1_46,2022-04-25T17:24:17.566Z,,,,,,,,,,,,,,,,,53,,,,,,,,,,,,,,339.320000000007,,response,,,,99,,,,,,,Space,keypress(Space),,,,,,,,---- -- ----- -- ------ - ------- --- ----------<br>------------- ------ ------ ---- ---- ------- ----- -- ----<br>-------- ------- -- ---------- --- - --- ----- ----- ----<br>---- --- --- ----- --- ---- ---- ------- ----- ---- -------<br>--- --- -- ----- -- --- ---- to --- ---- -- ------ ------<br>--- ----- -- ----,112763,112759,112419.02,112419,112419.68,112763.26,,46,to
screen,html.Screen,2_1_0_1_47,2022-04-25T17:24:17.942Z,,,,,,,,,,,,,,,,,53,,,,,,,,,,,,,,369.74000000000524,,response,,,,99,,,,,,,Space,keypress(Space),,,,,,,,"---- -- ----- -- ------ - ------- --- ----------<br>------------- ------ ------ ---- ---- ------- ----- -- ----<br>-------- ------- -- ---------- --- - --- ----- ----- ----<br>---- --- --- ----- --- ---- ---- ------- ----- ---- -------<br>--- --- -- ----- -- --- ---- -- be, ---- -- ------ ------<br>--- ----- -- ----",113138,113133,112762.8,112763,112763.26,113139.74,,47,"be,"
screen,html.Screen,2_1_0_1_48,2022-04-25T17:24:18.294Z,,,,,,,,,,,,,,,,,53,,,,,,,,,,,,,,337.25999999999476,,response,,,,99,,,,,,,Space,keypress(Space),,,,,,,,---- -- ----- -- ------ - ------- --- ----------<br>------------- ------ ------ ---- ---- ------- ----- -- ----<br>-------- ------- -- ---------- --- - --- ----- ----- ----<br>---- --- --- ----- --- ---- ---- ------- ----- ---- -------<br>--- --- -- ----- -- --- ---- -- --- even -- ------ ------<br>--- ----- -- ----,113490,113477,113139.38,113139,113139.74,113491.34,,48,even
screen,html.Screen,2_1_0_1_49,2022-04-25T17:24:18.646Z,,,,,,,,,,,,,,,,,53,,,,,,,,,,,,,,345.6600000000035,,response,,,,99,,,,,,,Space,keypress(Space),,,,,,,,---- -- ----- -- ------ - ------- --- ----------<br>------------- ------ ------ ---- ---- ------- ----- -- ----<br>-------- ------- -- ---------- --- - --- ----- ----- ----<br>---- --- --- ----- --- ---- ---- ------- ----- ---- -------<br>--- --- -- ----- -- --- ---- -- --- ---- if ------ ------<br>--- ----- -- ----,113842,113837,113490.88,113491,113491.34,113843.16,,49,if
screen,html.Screen,2_1_0_1_50,2022-04-25T17:24:19.014Z,,,,,,,,,,,,,,,,,53,,,,,,,,,,,,,,351.8399999999965,,response,,,,99,,,,,,,Space,keypress(Space),,,,,,,,---- -- ----- -- ------ - ------- --- ----------<br>------------- ------ ------ ---- ---- ------- ----- -- ----<br>-------- ------- -- ---------- --- - --- ----- ----- ----<br>---- --- --- ----- --- ---- ---- ------- ----- ---- -------<br>--- --- -- ----- -- --- ---- -- --- ---- -- that's ------<br>--- ----- -- ----,114210,114195,113842.74,113843,113843.16,114211.3,,50,that's
screen,html.Screen,2_1_0_1_51,2022-04-25T17:24:19.438Z,,,,,,,,,,,,,,,,,53,,,,,,,,,,,,,,405.6999999999971,,response,,,,99,,,,,,,Space,keypress(Space),,,,,,,,---- -- ----- -- ------ - ------- --- ----------<br>------------- ------ ------ ---- ---- ------- ----- -- ----<br>-------- ------- -- ---------- --- - --- ----- ----- ----<br>---- --- --- ----- --- ---- ---- ------- ----- ---- -------<br>--- --- -- ----- -- --- ---- -- --- ---- -- ------ really<br>--- ----- -- ----,114634,114617,114210.86,114210,114211.3,114636.28,,51,really
screen,html.Screen,2_1_0_1_52,2022-04-25T17:24:19.822Z,,,,,,,,,,,,,,,,,53,,,,,,,,,,,,,,371.72000000000116,,response,,,,99,,,,,,,Space,keypress(Space),,,,,,,,---- -- ----- -- ------ - ------- --- ----------<br>------------- ------ ------ ---- ---- ------- ----- -- ----<br>-------- ------- -- ---------- --- - --- ----- ----- ----<br>---- --- --- ----- --- ---- ---- ------- ----- ---- -------<br>--- --- -- ----- -- --- ---- -- --- ---- -- ------ ------<br>not ----- -- ----,115018,115008,114634.74,114634,114636.28,115019.2,,52,not
screen,html.Screen,2_1_0_1_53,2022-04-25T17:24:20.174Z,,,,,,,,,,,,,,,,,53,,,,,,,,,,,,,,332.8000000000029,,response,,,,99,,,,,,,Space,keypress(Space),,,,,,,,---- -- ----- -- ------ - ------- --- ----------<br>------------- ------ ------ ---- ---- ------- ----- -- ----<br>-------- ------- -- ---------- --- - --- ----- ----- ----<br>---- --- --- ----- --- ---- ---- ------- ----- ---- -------<br>--- --- -- ----- -- --- ---- -- --- ---- -- ------ ------<br>--- close -- ----,115371,115352,115018.64,115019,115019.2,115371.08,,53,close
screen,html.Screen,2_1_0_1_54,2022-04-25T17:24:20.525Z,,,,,,,,,,,,,,,,,53,,,,,,,,,,,,,,339.91999999999825,,response,,,,99,,,,,,,Space,keypress(Space),,,,,,,,---- -- ----- -- ------ - ------- --- ----------<br>------------- ------ ------ ---- ---- ------- ----- -- ----<br>-------- ------- -- ---------- --- - --- ----- ----- ----<br>---- --- --- ----- --- ---- ---- ------- ----- ---- -------<br>--- --- -- ----- -- --- ---- -- --- ---- -- ------ ------<br>--- ----- at ----,115722,115711,115370.74,115371,115371.08,115723.02,,54,at
screen,html.Screen,2_1_0_1_55,2022-04-25T17:24:21.238Z,,,,,,,,,,,,,,,,,53,,,,,,,,,,,,,,706.9799999999959,,response,,,,99,,,,,,,Space,keypress(Space),,,,,,,,---- -- ----- -- ------ - ------- --- ----------<br>------------- ------ ------ ---- ---- ------- ----- -- ----<br>-------- ------- -- ---------- --- - --- ----- ----- ----<br>---- --- --- ----- --- ---- ---- ------- ----- ---- -------<br>--- --- -- ----- -- --- ---- -- --- ---- -- ------ ------<br>--- ----- -- all.,116434,116430,115722.58,115722,115723.02,116436.66,,55,all.
Item 99,flow.Loop,2_1_0_1,2022-04-25T17:24:21.239Z,,,,,,,,,,,,,,,,,,,,,,,,,,,,,,,26366.22,,completion,,,,,B,,,,,,,,,,,silence,,,,,116435,116430,90050.44,90054,90063.78,116436.66,,,
Question 1,html.Screen,2_1_0_2,2022-04-25T17:24:26.318Z,,,,,,,,,,,,,,,,,,,,,,,,,,,,true,FALSE,,5071.3399999999965,,response,,,,99,B,,,,,,FALSE,click #choice-2,,,,silence,,,,,121514,121508,116436.2,116436,116436.66,121515.96,,,
Question 2,html.Screen,2_1_0_3,2022-04-25T17:24:29.992Z,,,,,,,,,,,,,,,,,,,,,,,,,,,,true,TRUE,,3664.0399999999936,,response,,,,99,B,,,,,,TRUE,click #choice-1,,,,silence,,,,,125188,125180,121513.72,121514,121515.96,125195.84,,,
Item 99,flow.Sequence,2_1_0,2022-04-25T17:24:29.992Z,,,,,,,,,,,,,,,,,,,,,,,,,,,,,,,45115.92,,completion,,,,,,,,,,,,,,,,,,,,,125188,125180,80057.54,80061,80064.08,125195.84,,,
Holding screen,html.Screen,2_1_1_0,2022-04-25T17:24:39.987Z,,,,,,,,,,,,,,,,,,,,,,,,,,,,,,,9999.720000000001,,timeout,,,,,,,,,,,,,,,,,,,,,135183,135182.24,125187.66,125188,125195.84,135195.56,,,
screen,html.Screen,2_1_1_1_0,2022-04-25T17:24:41.006Z,,,,,,,,,,,,,,,,,54,,,,,,,,,,,,,,999.4400000000023,,response,,,,100,,,,,,,Space,keypress(Space),,,,,,,,At --- ---- --- ------ ----- ------- ---- -- --- ------- --<br>------- ---------- ------ -- ----- -- ----- -- ---- ------<br>--- ----- --- --- ------ -------- ----- --- ------ ----- --<br>----- ----- ---------- --- --- ------ ------ ---- -- ------<br>------- --- ------ ----- --- ---- ------- -- ---- --- --<br>------- ------,136202,136195,135182.24,135184,135195.56,136203.28,,0,At
screen,html.Screen,2_1_1_1_1,2022-04-25T17:24:41.421Z,,,,,,,,,,,,,,,,,54,,,,,,,,,,,,,,398.72000000000116,,response,,,,100,,,,,,,Space,keypress(Space),,,,,,,,-- the ---- --- ------ ----- ------- ---- -- --- ------- --<br>------- ---------- ------ -- ----- -- ----- -- ---- ------<br>--- ----- --- --- ------ -------- ----- --- ------ ----- --<br>----- ----- ---------- --- --- ------ ------ ---- -- ------<br>------- --- ------ ----- --- ---- ------- -- ---- --- --<br>------- ------,136619,136602,136202.82,136203,136203.28,136619.24,,1,the
screen,html.Screen,2_1_1_1_2,2022-04-25T17:24:41.773Z,,,,,,,,,,,,,,,,,54,,,,,,,,,,,,,,341.7600000000093,,response,,,,100,,,,,,,Space,keypress(Space),,,,,,,,-- --- time --- ------ ----- ------- ---- -- --- ------- --<br>------- ---------- ------ -- ----- -- ----- -- ---- ------<br>--- ----- --- --- ------ -------- ----- --- ------ ----- --<br>----- ----- ---------- --- --- ------ ------ ---- -- ------<br>------- --- ------ ----- --- ---- ------- -- ---- --- --<br>------- ------,136970,136961,136618.7,136619,136619.24,136971.22,,2,time
screen,html.Screen,2_1_1_1_3,2022-04-25T17:24:42.262Z,,,,,,,,,,,,,,,,,54,,,,,,,,,,,,,,473.77999999999884,,response,,,,100,,,,,,,Space,keypress(Space),,,,,,,,-- --- ---- the ------ ----- ------- ---- -- --- ------- --<br>------- ---------- ------ -- ----- -- ----- -- ---- ------<br>--- ----- --- --- ------ -------- ----- --- ------ ----- --<br>----- ----- ---------- --- --- ------ ------ ---- -- ------<br>------- --- ------ ----- --- ---- ------- -- ---- --- --<br>------- ------,137458,137445,136970.42,136971,136971.22,137459.04,,3,the
screen,html.Screen,2_1_1_1_4,2022-04-25T17:24:42.677Z,,,,,,,,,,,,,,,,,54,,,,,,,,,,,,,,407.95999999999185,,response,,,,100,,,,,,,Space,keypress(Space),,,,,,,,-- --- ---- --- French ----- ------- ---- -- --- ------- --<br>------- ---------- ------ -- ----- -- ----- -- ---- ------<br>--- ----- --- --- ------ -------- ----- --- ------ ----- --<br>----- ----- ---------- --- --- ------ ------ ---- -- ------<br>------- --- ------ ----- --- ---- ------- -- ---- --- --<br>------- ------,137875,137867,137458.62,137458,137459.04,137875.18,,4,French
screen,html.Screen,2_1_1_1_5,2022-04-25T17:24:43.126Z,,,,,,,,,,,,,,,,,54,,,,,,,,,,,,,,429.820000000007,,response,,,,100,,,,,,,Space,keypress(Space),,,,,,,,-- --- ---- --- ------ crown ------- ---- -- --- ------- --<br>------- ---------- ------ -- ----- -- ----- -- ---- ------<br>--- ----- --- --- ------ -------- ----- --- ------ ----- --<br>----- ----- ---------- --- --- ------ ------ ---- -- ------<br>------- --- ------ ----- --- ---- ------- -- ---- --- --<br>------- ------,138323,138305,137874.72,137875,137875.18,138323.16,,5,crown
screen,html.Screen,2_1_1_1_6,2022-04-25T17:24:43.646Z,,,,,,,,,,,,,,,,,54,,,,,,,,,,,,,,512.8399999999965,,response,,,,100,,,,,,,Space,keypress(Space),,,,,,,,-- --- ---- --- ------ ----- secured ---- -- --- ------- --<br>------- ---------- ------ -- ----- -- ----- -- ---- ------<br>--- ----- --- --- ------ -------- ----- --- ------ ----- --<br>----- ----- ---------- --- --- ------ ------ ---- -- ------<br>------- --- ------ ----- --- ---- ------- -- ---- --- --<br>------- ------,138842,138836,138322.68,138323,138323.16,138843.2,,6,secured
screen,html.Screen,2_1_1_1_7,2022-04-25T17:24:44.118Z,,,,,,,,,,,,,,,,,54,,,,,,,,,,,,,,461.79999999998836,,response,,,,100,,,,,,,Space,keypress(Space),,,,,,,,-- --- ---- --- ------ ----- ------- much -- --- ------- --<br>------- ---------- ------ -- ----- -- ----- -- ---- ------<br>--- ----- --- --- ------ -------- ----- --- ------ ----- --<br>----- ----- ---------- --- --- ------ ------ ---- -- ------<br>------- --- ------ ----- --- ---- ------- -- ---- --- --<br>------- ------,139314,139305,138842.8,138843,138843.2,139315.14,,7,much
screen,html.Screen,2_1_1_1_8,2022-04-25T17:24:44.565Z,,,,,,,,,,,,,,,,,54,,,,,,,,,,,,,,442.85999999998603,,response,,,,100,,,,,,,Space,keypress(Space),,,,,,,,-- --- ---- --- ------ ----- ------- ---- of --- ------- --<br>------- ---------- ------ -- ----- -- ----- -- ---- ------<br>--- ----- --- --- ------ -------- ----- --- ------ ----- --<br>----- ----- ---------- --- --- ------ ------ ---- -- ------<br>------- --- ------ ----- --- ---- ------- -- ---- --- --<br>------- ------,139762,139758,139314.68,139315,139315.14,139763.24,,8,of
screen,html.Screen,2_1_1_1_9,2022-04-25T17:24:44.950Z,,,,,,,,,,,,,,,,,54,,,,,,,,,,,,,,369.7600000000093,,response,,,,100,,,,,,,Space,keypress(Space),,,,,,,,-- --- ---- --- ------ ----- ------- ---- -- its ------- --<br>------- ---------- ------ -- ----- -- ----- -- ---- ------<br>--- ----- --- --- ------ -------- ----- --- ------ ----- --<br>----- ----- ---------- --- --- ------ ------ ---- -- ------<br>------- --- ------ ----- --- ---- ------- -- ---- --- --<br>------- ------,140146,140133,139762.8,139763,139763.24,140147.34,,9,its
screen,html.Screen,2_1_1_1_10,2022-04-25T17:24:45.390Z,,,,,,,,,,,,,,,,,54,,,,,,,,,,,,,,422.6600000000035,,response,,,,100,,,,,,,Space,keypress(Space),,,,,,,,-- --- ---- --- ------ ----- ------- ---- -- --- revenue --<br>------- ---------- ------ -- ----- -- ----- -- ---- ------<br>--- ----- --- --- ------ -------- ----- --- ------ ----- --<br>----- ----- ---------- --- --- ------ ------ ---- -- ------<br>------- --- ------ ----- --- ---- ------- -- ---- --- --<br>------- ------,140586,140570,140146.88,140147,140147.34,140587.18,,10,revenue
screen,html.Screen,2_1_1_1_11,2022-04-25T17:24:45.990Z,,,,,,,,,,,,,,,,,54,,,,,,,,,,,,,,592.820000000007,,response,,,,100,,,,,,,Space,keypress(Space),,,,,,,,-- --- ---- --- ------ ----- ------- ---- -- --- ------- by<br>------- ---------- ------ -- ----- -- ----- -- ---- ------<br>--- ----- --- --- ------ -------- ----- --- ------ ----- --<br>----- ----- ---------- --- --- ------ ------ ---- -- ------<br>------- --- ------ ----- --- ---- ------- -- ---- --- --<br>------- ------,141186,141180,140586.72,140586,140587.18,141187.58,,11,by
screen,html.Screen,2_1_1_1_12,2022-04-25T17:24:46.830Z,,,,,,,,,,,,,,,,,54,,,,,,,,,,,,,,820.4200000000128,,response,,,,100,,,,,,,Space,keypress(Space),,,,,,,,-- --- ---- --- ------ ----- ------- ---- -- --- ------- --<br>issuing ---------- ------ -- ----- -- ----- -- ---- ------<br>--- ----- --- --- ------ -------- ----- --- ------ ----- --<br>----- ----- ---------- --- --- ------ ------ ---- -- ------<br>------- --- ------ ----- --- ---- ------- -- ---- --- --<br>------- ------,142026,142008,141187.14,141187,141187.58,142027.76,,12,issuing
screen,html.Screen,2_1_1_1_13,2022-04-25T17:24:47.374Z,,,,,,,,,,,,,,,,,54,,,,,,,,,,,,,,527.2399999999907,,response,,,,100,,,,,,,Space,keypress(Space),,,,,,,,-- --- ---- --- ------ ----- ------- ---- -- --- ------- --<br>------- government ------ -- ----- -- ----- -- ---- ------<br>--- ----- --- --- ------ -------- ----- --- ------ ----- --<br>----- ----- ---------- --- --- ------ ------ ---- -- ------<br>------- --- ------ ----- --- ---- ------- -- ---- --- --<br>------- ------,142570,142555,142026.8,142027,142027.76,142571.26,,13,government
screen,html.Screen,2_1_1_1_14,2022-04-25T17:24:48.511Z,,,,,,,,,,,,,,,,,54,,,,,,,,,,,,,,1123.7399999999907,,response,,,,100,,,,,,,Space,keypress(Space),,,,,,,,-- --- ---- --- ------ ----- ------- ---- -- --- ------- --<br>------- ---------- bonds. -- ----- -- ----- -- ---- ------<br>--- ----- --- --- ------ -------- ----- --- ------ ----- --<br>----- ----- ---------- --- --- ------ ------ ---- -- ------<br>------- --- ------ ----- --- ---- ------- -- ---- --- --<br>------- ------,143707,143695,142570.8,142571,142571.26,143708.34,,14,bonds.
screen,html.Screen,2_1_1_1_15,2022-04-25T17:24:49.046Z,,,,,,,,,,,,,,,,,54,,,,,,,,,,,,,,519.6600000000035,,response,,,,100,,,,,,,Space,keypress(Space),,,,,,,,-- --- ---- --- ------ ----- ------- ---- -- --- ------- --<br>------- ---------- ------ In ----- -- ----- -- ---- ------<br>--- ----- --- --- ------ -------- ----- --- ------ ----- --<br>----- ----- ---------- --- --- ------ ------ ---- -- ------<br>------- --- ------ ----- --- ---- ------- -- ---- --- --<br>------- ------,144242,144228,143707.9,143707,143708.34,144243.28,,15,In
screen,html.Screen,2_1_1_1_16,2022-04-25T17:24:50.358Z,,,,,,,,,,,,,,,,,54,,,,,,,,,,,,,,1295.7200000000012,,response,,,,100,,,,,,,Space,keypress(Space),,,,,,,,"-- --- ---- --- ------ ----- ------- ---- -- --- ------- --<br>------- ---------- ------ -- 1727, -- ----- -- ---- ------<br>--- ----- --- --- ------ -------- ----- --- ------ ----- --<br>----- ----- ---------- --- --- ------ ------ ---- -- ------<br>------- --- ------ ----- --- ---- ------- -- ---- --- --<br>------- ------",145554,145539,144242.82,144243,144243.28,145555.66,,16,"1727,"
screen,html.Screen,2_1_1_1_17,2022-04-25T17:24:50.773Z,,,,,,,,,,,,,,,,,54,,,,,,,,,,,,,,405.3399999999965,,response,,,,100,,,,,,,Space,keypress(Space),,,,,,,,-- --- ---- --- ------ ----- ------- ---- -- --- ------- --<br>------- ---------- ------ -- ----- in ----- -- ---- ------<br>--- ----- --- --- ------ -------- ----- --- ------ ----- --<br>----- ----- ---------- --- --- ------ ------ ---- -- ------<br>------- --- ------ ----- --- ---- ------- -- ---- --- --<br>------- ------,145970,145961,145555.26,145555,145555.66,145970.88,,17,in
screen,html.Screen,2_1_1_1_18,2022-04-25T17:24:51.174Z,,,,,,,,,,,,,,,,,54,,,,,,,,,,,,,,396.11999999999534,,response,,,,100,,,,,,,Space,keypress(Space),,,,,,,,-- --- ---- --- ------ ----- ------- ---- -- --- ------- --<br>------- ---------- ------ -- ----- -- order -- ---- ------<br>--- ----- --- --- ------ -------- ----- --- ------ ----- --<br>----- ----- ---------- --- --- ------ ------ ---- -- ------<br>------- --- ------ ----- --- ---- ------- -- ---- --- --<br>------- ------,146370,146367,145970.44,145970,145970.88,146371.12,,18,order
screen,html.Screen,2_1_1_1_19,2022-04-25T17:24:51.542Z,,,,,,,,,,,,,,,,,54,,,,,,,,,,,,,,355.88000000000466,,response,,,,100,,,,,,,Space,keypress(Space),,,,,,,,-- --- ---- --- ------ ----- ------- ---- -- --- ------- --<br>------- ---------- ------ -- ----- -- ----- to ---- ------<br>--- ----- --- --- ------ -------- ----- --- ------ ----- --<br>----- ----- ---------- --- --- ------ ------ ---- -- ------<br>------- --- ------ ----- --- ---- ------- -- ---- --- --<br>------- ------,146738,146727,146370.68,146370,146371.12,146739.28,,19,to
screen,html.Screen,2_1_1_1_20,2022-04-25T17:24:51.927Z,,,,,,,,,,,,,,,,,54,,,,,,,,,,,,,,377.72000000000116,,response,,,,100,,,,,,,Space,keypress(Space),,,,,,,,-- --- ---- --- ------ ----- ------- ---- -- --- ------- --<br>------- ---------- ------ -- ----- -- ----- -- save ------<br>--- ----- --- --- ------ -------- ----- --- ------ ----- --<br>----- ----- ---------- --- --- ------ ------ ---- -- ------<br>------- --- ------ ----- --- ---- ------- -- ---- --- --<br>------- ------,147124,147117,146738.7,146739,146739.28,147125.2,,20,save
screen,html.Screen,2_1_1_1_21,2022-04-25T17:24:52.543Z,,,,,,,,,,,,,,,,,54,,,,,,,,,,,,,,601.7999999999884,,response,,,,100,,,,,,,Space,keypress(Space),,,,,,,,"-- --- ---- --- ------ ----- ------- ---- -- --- ------- --<br>------- ---------- ------ -- ----- -- ----- -- ---- money,<br>--- ----- --- --- ------ -------- ----- --- ------ ----- --<br>----- ----- ---------- --- --- ------ ------ ---- -- ------<br>------- --- ------ ----- --- ---- ------- -- ---- --- --<br>------- ------",147740,147727,147124.64,147124,147125.2,147740.96,,21,"money,"
screen,html.Screen,2_1_1_1_22,2022-04-25T17:24:53.014Z,,,,,,,,,,,,,,,,,54,,,,,,,,,,,,,,454.04000000000815,,response,,,,100,,,,,,,Space,keypress(Space),,,,,,,,-- --- ---- --- ------ ----- ------- ---- -- --- ------- --<br>------- ---------- ------ -- ----- -- ----- -- ---- ------<br>the ----- --- --- ------ -------- ----- --- ------ ----- --<br>----- ----- ---------- --- --- ------ ------ ---- -- ------<br>------- --- ------ ----- --- ---- ------- -- ---- --- --<br>------- ------,148210,148195,147740.5,147740,147740.96,148211.18,,22,the
screen,html.Screen,2_1_1_1_23,2022-04-25T17:24:53.382Z,,,,,,,,,,,,,,,,,54,,,,,,,,,,,,,,358.820000000007,,response,,,,100,,,,,,,Space,keypress(Space),,,,,,,,-- --- ---- --- ------ ----- ------- ---- -- --- ------- --<br>------- ---------- ------ -- ----- -- ----- -- ---- ------<br>--- state --- --- ------ -------- ----- --- ------ ----- --<br>----- ----- ---------- --- --- ------ ------ ---- -- ------<br>------- --- ------ ----- --- ---- ------- -- ---- --- --<br>------- ------,148578,148570,148210.74,148211,148211.18,148579.22,,23,state
screen,html.Screen,2_1_1_1_24,2022-04-25T17:24:53.886Z,,,,,,,,,,,,,,,,,54,,,,,,,,,,,,,,490.77999999999884,,response,,,,100,,,,,,,Space,keypress(Space),,,,,,,,-- --- ---- --- ------ ----- ------- ---- -- --- ------- --<br>------- ---------- ------ -- ----- -- ----- -- ---- ------<br>--- ----- cut --- ------ -------- ----- --- ------ ----- --<br>----- ----- ---------- --- --- ------ ------ ---- -- ------<br>------- --- ------ ----- --- ---- ------- -- ---- --- --<br>------- ------,149082,149070,148578.86,148579,148579.22,149082.84,,24,cut
screen,html.Screen,2_1_1_1_25,2022-04-25T17:24:54.254Z,,,,,,,,,,,,,,,,,54,,,,,,,,,,,,,,362.1600000000035,,response,,,,100,,,,,,,Space,keypress(Space),,,,,,,,-- --- ---- --- ------ ----- ------- ---- -- --- ------- --<br>------- ---------- ------ -- ----- -- ----- -- ---- ------<br>--- ----- --- the ------ -------- ----- --- ------ ----- --<br>----- ----- ---------- --- --- ------ ------ ---- -- ------<br>------- --- ------ ----- --- ---- ------- -- ---- --- --<br>------- ------,149450,149445,149082.38,149083,149082.84,149451.7,,25,the
screen,html.Screen,2_1_1_1_26,2022-04-25T17:24:54.812Z,,,,,,,,,,,,,,,,,54,,,,,,,,,,,,,,540.2999999999884,,response,,,,100,,,,,,,Space,keypress(Space),,,,,,,,-- --- ---- --- ------ ----- ------- ---- -- --- ------- --<br>------- ---------- ------ -- ----- -- ----- -- ---- ------<br>--- ----- --- --- bonds' -------- ----- --- ------ ----- --<br>----- ----- ---------- --- --- ------ ------ ---- -- ------<br>------- --- ------ ----- --- ---- ------- -- ---- --- --<br>------- ------,150009,149992,149450.68,149451,149451.7,150009.16,,26,bonds'
screen,html.Screen,2_1_1_1_27,2022-04-25T17:24:55.285Z,,,,,,,,,,,,,,,,,54,,,,,,,,,,,,,,467.8399999999965,,response,,,,100,,,,,,,Space,keypress(Space),,,,,,,,-- --- ---- --- ------ ----- ------- ---- -- --- ------- --<br>------- ---------- ------ -- ----- -- ----- -- ---- ------<br>--- ----- --- --- ------ interest ----- --- ------ ----- --<br>----- ----- ---------- --- --- ------ ------ ---- -- ------<br>------- --- ------ ----- --- ---- ------- -- ---- --- --<br>------- ------,150483,150477,150008.94,150009,150009.16,150483.16,,27,interest
screen,html.Screen,2_1_1_1_28,2022-04-25T17:24:55.726Z,,,,,,,,,,,,,,,,,54,,,,,,,,,,,,,,430.8399999999965,,response,,,,100,,,,,,,Space,keypress(Space),,,,,,,,-- --- ---- --- ------ ----- ------- ---- -- --- ------- --<br>------- ---------- ------ -- ----- -- ----- -- ---- ------<br>--- ----- --- --- ------ -------- rate. --- ------ ----- --<br>----- ----- ---------- --- --- ------ ------ ---- -- ------<br>------- --- ------ ----- --- ---- ------- -- ---- --- --<br>------- ------,150922,150914,150482.7,150483,150483.16,150923.08,,28,rate.
screen,html.Screen,2_1_1_1_29,2022-04-25T17:24:56.629Z,,,,,,,,,,,,,,,,,54,,,,,,,,,,,,,,896.9200000000128,,response,,,,100,,,,,,,Space,keypress(Space),,,,,,,,-- --- ---- --- ------ ----- ------- ---- -- --- ------- --<br>------- ---------- ------ -- ----- -- ----- -- ---- ------<br>--- ----- --- --- ------ -------- ----- The ------ ----- --<br>----- ----- ---------- --- --- ------ ------ ---- -- ------<br>------- --- ------ ----- --- ---- ------- -- ---- --- --<br>------- ------,151827,151820,150922.62,150922,150923.08,151827.2,,29,The
screen,html.Screen,2_1_1_1_30,2022-04-25T17:24:57.094Z,,,,,,,,,,,,,,,,,54,,,,,,,,,,,,,,446.79999999998836,,response,,,,100,,,,,,,Space,keypress(Space),,,,,,,,-- --- ---- --- ------ ----- ------- ---- -- --- ------- --<br>------- ---------- ------ -- ----- -- ----- -- ---- ------<br>--- ----- --- --- ------ -------- ----- --- market ----- --<br>----- ----- ---------- --- --- ------ ------ ---- -- ------<br>------- --- ------ ----- --- ---- ------- -- ---- --- --<br>------- ------,152290,152274,151826.66,151827,151827.2,152291.04,,30,market
screen,html.Screen,2_1_1_1_31,2022-04-25T17:24:57.446Z,,,,,,,,,,,,,,,,,54,,,,,,,,,,,,,,341.95999999999185,,response,,,,100,,,,,,,Space,keypress(Space),,,,,,,,-- --- ---- --- ------ ----- ------- ---- -- --- ------- --<br>------- ---------- ------ -- ----- -- ----- -- ---- ------<br>--- ----- --- --- ------ -------- ----- --- ------ value --<br>----- ----- ---------- --- --- ------ ------ ---- -- ------<br>------- --- ------ ----- --- ---- ------- -- ---- --- --<br>------- ------,152643,152633,152290.7,152291,152291.04,152643.62,,31,value
screen,html.Screen,2_1_1_1_32,2022-04-25T17:24:57.804Z,,,,,,,,,,,,,,,,,54,,,,,,,,,,,,,,348.38000000000466,,response,,,,100,,,,,,,Space,keypress(Space),,,,,,,,-- --- ---- --- ------ ----- ------- ---- -- --- ------- --<br>------- ---------- ------ -- ----- -- ----- -- ---- ------<br>--- ----- --- --- ------ -------- ----- --- ------ ----- of<br>----- ----- ---------- --- --- ------ ------ ---- -- ------<br>------- --- ------ ----- --- ---- ------- -- ---- --- --<br>------- ------,153001,152992,152643.18,152643,152643.62,153001.58,,32,of
screen,html.Screen,2_1_1_1_33,2022-04-25T17:24:58.214Z,,,,,,,,,,,,,,,,,54,,,,,,,,,,,,,,398.4200000000128,,response,,,,100,,,,,,,Space,keypress(Space),,,,,,,,-- --- ---- --- ------ ----- ------- ---- -- --- ------- --<br>------- ---------- ------ -- ----- -- ----- -- ---- ------<br>--- ----- --- --- ------ -------- ----- --- ------ ----- --<br>these ----- ---------- --- --- ------ ------ ---- -- ------<br>------- --- ------ ----- --- ---- ------- -- ---- --- --<br>------- ------,153410,153400,153001.3,153001,153001.58,153411.56,,33,these
screen,html.Screen,2_1_1_1_34,2022-04-25T17:24:58.582Z,,,,,,,,,,,,,,,,,54,,,,,,,,,,,,,,362.4400000000023,,response,,,,100,,,,,,,Space,keypress(Space),,,,,,,,-- --- ---- --- ------ ----- ------- ---- -- --- ------- --<br>------- ---------- ------ -- ----- -- ----- -- ---- ------<br>--- ----- --- --- ------ -------- ----- --- ------ ----- --<br>----- bonds ---------- --- --- ------ ------ ---- -- ------<br>------- --- ------ ----- --- ---- ------- -- ---- --- --<br>------- ------,153778,153774,153411.1,153411,153411.56,153779.48,,34,bonds
screen,html.Screen,2_1_1_1_35,2022-04-25T17:24:59.053Z,,,,,,,,,,,,,,,,,54,,,,,,,,,,,,,,463.5199999999895,,response,,,,100,,,,,,,Space,keypress(Space),,,,,,,,"-- --- ---- --- ------ ----- ------- ---- -- --- ------- --<br>------- ---------- ------ -- ----- -- ----- -- ---- ------<br>--- ----- --- --- ------ -------- ----- --- ------ ----- --<br>----- ----- plummeted, --- --- ------ ------ ---- -- ------<br>------- --- ------ ----- --- ---- ------- -- ---- --- --<br>------- ------",154250,154243,153778.7,153778,153779.48,154251.08,,35,"plummeted,"
screen,html.Screen,2_1_1_1_36,2022-04-25T17:24:59.503Z,,,,,,,,,,,,,,,,,54,,,,,,,,,,,,,,428.9200000000128,,response,,,,100,,,,,,,Space,keypress(Space),,,,,,,,-- --- ---- --- ------ ----- ------- ---- -- --- ------- --<br>------- ---------- ------ -- ----- -- ----- -- ---- ------<br>--- ----- --- --- ------ -------- ----- --- ------ ----- --<br>----- ----- ---------- and --- ------ ------ ---- -- ------<br>------- --- ------ ----- --- ---- ------- -- ---- --- --<br>------- ------,154699,154680,154250.64,154251,154251.08,154700.62,,36,and
screen,html.Screen,2_1_1_1_37,2022-04-25T17:24:59.886Z,,,,,,,,,,,,,,,,,54,,,,,,,,,,,,,,369.38000000000466,,response,,,,100,,,,,,,Space,keypress(Space),,,,,,,,-- --- ---- --- ------ ----- ------- ---- -- --- ------- --<br>------- ---------- ------ -- ----- -- ----- -- ---- ------<br>--- ----- --- --- ------ -------- ----- --- ------ ----- --<br>----- ----- ---------- --- the ------ ------ ---- -- ------<br>------- --- ------ ----- --- ---- ------- -- ---- --- --<br>------- ------,155082,155070,154700.18,154700,154700.62,155083.18,,37,the
screen,html.Screen,2_1_1_1_38,2022-04-25T17:25:00.286Z,,,,,,,,,,,,,,,,,54,,,,,,,,,,,,,,393.820000000007,,response,,,,100,,,,,,,Space,keypress(Space),,,,,,,,-- --- ---- --- ------ ----- ------- ---- -- --- ------- --<br>------- ---------- ------ -- ----- -- ----- -- ---- ------<br>--- ----- --- --- ------ -------- ----- --- ------ ----- --<br>----- ----- ---------- --- --- market ------ ---- -- ------<br>------- --- ------ ----- --- ---- ------- -- ---- --- --<br>------- ------,155482,155477,155082.7,155083,155083.18,155483.28,,38,market
screen,html.Screen,2_1_1_1_39,2022-04-25T17:25:00.694Z,,,,,,,,,,,,,,,,,54,,,,,,,,,,,,,,399.72000000000116,,response,,,,100,,,,,,,Space,keypress(Space),,,,,,,,-- --- ---- --- ------ ----- ------- ---- -- --- ------- --<br>------- ---------- ------ -- ----- -- ----- -- ---- ------<br>--- ----- --- --- ------ -------- ----- --- ------ ----- --<br>----- ----- ---------- --- --- ------ became ---- -- ------<br>------- --- ------ ----- --- ---- ------- -- ---- --- --<br>------- ------,155890,155883,155482.82,155483,155483.28,155891.2,,39,became
screen,html.Screen,2_1_1_1_40,2022-04-25T17:25:01.094Z,,,,,,,,,,,,,,,,,54,,,,,,,,,,,,,,382.79999999998836,,response,,,,100,,,,,,,Space,keypress(Space),,,,,,,,-- --- ---- --- ------ ----- ------- ---- -- --- ------- --<br>------- ---------- ------ -- ----- -- ----- -- ---- ------<br>--- ----- --- --- ------ -------- ----- --- ------ ----- --<br>----- ----- ---------- --- --- ------ ------ wary -- ------<br>------- --- ------ ----- --- ---- ------- -- ---- --- --<br>------- ------,156291,156274,155890.76,155890,155891.2,156291.4,,40,wary
screen,html.Screen,2_1_1_1_41,2022-04-25T17:25:01.509Z,,,,,,,,,,,,,,,,,54,,,,,,,,,,,,,,403.6000000000058,,response,,,,100,,,,,,,Space,keypress(Space),,,,,,,,-- --- ---- --- ------ ----- ------- ---- -- --- ------- --<br>------- ---------- ------ -- ----- -- ----- -- ---- ------<br>--- ----- --- --- ------ -------- ----- --- ------ ----- --<br>----- ----- ---------- --- --- ------ ------ ---- of ------<br>------- --- ------ ----- --- ---- ------- -- ---- --- --<br>------- ------,156706,156695,156290.98,156291,156291.4,156707.06,,41,of
screen,html.Screen,2_1_1_1_42,2022-04-25T17:25:01.950Z,,,,,,,,,,,,,,,,,54,,,,,,,,,,,,,,425.9400000000023,,response,,,,100,,,,,,,Space,keypress(Space),,,,,,,,-- --- ---- --- ------ ----- ------- ---- -- --- ------- --<br>------- ---------- ------ -- ----- -- ----- -- ---- ------<br>--- ----- --- --- ------ -------- ----- --- ------ ----- --<br>----- ----- ---------- --- --- ------ ------ ---- -- French<br>------- --- ------ ----- --- ---- ------- -- ---- --- --<br>------- ------,157146,157133,156706.64,156706,156707.06,157147.06,,42,French
screen,html.Screen,2_1_1_1_43,2022-04-25T17:25:02.718Z,,,,,,,,,,,,,,,,,54,,,,,,,,,,,,,,751.9400000000023,,response,,,,100,,,,,,,Space,keypress(Space),,,,,,,,-- --- ---- --- ------ ----- ------- ---- -- --- ------- --<br>------- ---------- ------ -- ----- -- ----- -- ---- ------<br>--- ----- --- --- ------ -------- ----- --- ------ ----- --<br>----- ----- ---------- --- --- ------ ------ ---- -- ------<br>credit. --- ------ ----- --- ---- ------- -- ---- --- --<br>------- ------,157914,157899,157146.6,157147,157147.06,157915.26,,43,credit.
screen,html.Screen,2_1_1_1_44,2022-04-25T17:25:03.149Z,,,,,,,,,,,,,,,,,54,,,,,,,,,,,,,,420.7399999999907,,response,,,,100,,,,,,,Space,keypress(Space),,,,,,,,-- --- ---- --- ------ ----- ------- ---- -- --- ------- --<br>------- ---------- ------ -- ----- -- ----- -- ---- ------<br>--- ----- --- --- ------ -------- ----- --- ------ ----- --<br>----- ----- ---------- --- --- ------ ------ ---- -- ------<br>------- The ------ ----- --- ---- ------- -- ---- --- --<br>------- ------,158346,158336,157914.82,157915,157915.26,158347.1,,44,The
screen,html.Screen,2_1_1_1_45,2022-04-25T17:25:03.550Z,,,,,,,,,,,,,,,,,54,,,,,,,,,,,,,,394.8999999999942,,response,,,,100,,,,,,,Space,keypress(Space),,,,,,,,-- --- ---- --- ------ ----- ------- ---- -- --- ------- --<br>------- ---------- ------ -- ----- -- ----- -- ---- ------<br>--- ----- --- --- ------ -------- ----- --- ------ ----- --<br>----- ----- ---------- --- --- ------ ------ ---- -- ------<br>------- --- French ----- --- ---- ------- -- ---- --- --<br>------- ------,158746,158742,158346.64,158347,158347.1,158747.44,,45,French
screen,html.Screen,2_1_1_1_46,2022-04-25T17:25:03.982Z,,,,,,,,,,,,,,,,,54,,,,,,,,,,,,,,416.5599999999977,,response,,,,100,,,,,,,Space,keypress(Space),,,,,,,,-- --- ---- --- ------ ----- ------- ---- -- --- ------- --<br>------- ---------- ------ -- ----- -- ----- -- ---- ------<br>--- ----- --- --- ------ -------- ----- --- ------ ----- --<br>----- ----- ---------- --- --- ------ ------ ---- -- ------<br>------- --- ------ state --- ---- ------- -- ---- --- --<br>------- ------,159179,159164,158746.98,158747,158747.44,159181.4,,46,state
screen,html.Screen,2_1_1_1_47,2022-04-25T17:25:04.390Z,,,,,,,,,,,,,,,,,54,,,,,,,,,,,,,,388.6000000000058,,response,,,,100,,,,,,,Space,keypress(Space),,,,,,,,-- --- ---- --- ------ ----- ------- ---- -- --- ------- --<br>------- ---------- ------ -- ----- -- ----- -- ---- ------<br>--- ----- --- --- ------ -------- ----- --- ------ ----- --<br>----- ----- ---------- --- --- ------ ------ ---- -- ------<br>------- --- ------ ----- was ---- ------- -- ---- --- --<br>------- ------,159587,159570,159178.88,159179,159181.4,159587.12,,47,was
screen,html.Screen,2_1_1_1_48,2022-04-25T17:25:04.782Z,,,,,,,,,,,,,,,,,54,,,,,,,,,,,,,,373.88000000000466,,response,,,,100,,,,,,,Space,keypress(Space),,,,,,,,-- --- ---- --- ------ ----- ------- ---- -- --- ------- --<br>------- ---------- ------ -- ----- -- ----- -- ---- ------<br>--- ----- --- --- ------ -------- ----- --- ------ ----- --<br>----- ----- ---------- --- --- ------ ------ ---- -- ------<br>------- --- ------ ----- --- left ------- -- ---- --- --<br>------- ------,159978,159961,159586.68,159587,159587.12,159979.04,,48,left
screen,html.Screen,2_1_1_1_49,2022-04-25T17:25:05.222Z,,,,,,,,,,,,,,,,,54,,,,,,,,,,,,,,434.95999999999185,,response,,,,100,,,,,,,Space,keypress(Space),,,,,,,,-- --- ---- --- ------ ----- ------- ---- -- --- ------- --<br>------- ---------- ------ -- ----- -- ----- -- ---- ------<br>--- ----- --- --- ------ -------- ----- --- ------ ----- --<br>----- ----- ---------- --- --- ------ ------ ---- -- ------<br>------- --- ------ ----- --- ---- without -- ---- --- --<br>------- ------,160418,160414,159978.6,159979,159979.04,160419.22,,49,without
screen,html.Screen,2_1_1_1_50,2022-04-25T17:25:05.622Z,,,,,,,,,,,,,,,,,54,,,,,,,,,,,,,,386.77999999999884,,response,,,,100,,,,,,,Space,keypress(Space),,,,,,,,-- --- ---- --- ------ ----- ------- ---- -- --- ------- --<br>------- ---------- ------ -- ----- -- ----- -- ---- ------<br>--- ----- --- --- ------ -------- ----- --- ------ ----- --<br>----- ----- ---------- --- --- ------ ------ ---- -- ------<br>------- --- ------ ----- --- ---- ------- an ---- --- --<br>------- ------,160818,160806,160418.64,160419,160419.22,160821.34,,50,an
screen,html.Screen,2_1_1_1_51,2022-04-25T17:25:05.909Z,,,,,,,,,,,,,,,,,54,,,,,,,,,,,,,,280.6600000000035,,response,,,,100,,,,,,,Space,keypress(Space),,,,,,,,-- --- ---- --- ------ ----- ------- ---- -- --- ------- --<br>------- ---------- ------ -- ----- -- ----- -- ---- ------<br>--- ----- --- --- ------ -------- ----- --- ------ ----- --<br>----- ----- ---------- --- --- ------ ------ ---- -- ------<br>------- --- ------ ----- --- ---- ------- -- easy --- --<br>------- ------,161106,161102,160818.68,160819,160821.34,161107.16,,51,easy
screen,html.Screen,2_1_1_1_52,2022-04-25T17:25:06.325Z,,,,,,,,,,,,,,,,,54,,,,,,,,,,,,,,400.8399999999965,,response,,,,100,,,,,,,Space,keypress(Space),,,,,,,,-- --- ---- --- ------ ----- ------- ---- -- --- ------- --<br>------- ---------- ------ -- ----- -- ----- -- ---- ------<br>--- ----- --- --- ------ -------- ----- --- ------ ----- --<br>----- ----- ---------- --- --- ------ ------ ---- -- ------<br>------- --- ------ ----- --- ---- ------- -- ---- way --<br>------- ------,161522,161508,161106.72,161106,161107.16,161523.2,,52,way
screen,html.Screen,2_1_1_1_53,2022-04-25T17:25:06.710Z,,,,,,,,,,,,,,,,,54,,,,,,,,,,,,,,375.79999999998836,,response,,,,100,,,,,,,Space,keypress(Space),,,,,,,,-- --- ---- --- ------ ----- ------- ---- -- --- ------- --<br>------- ---------- ------ -- ----- -- ----- -- ---- ------<br>--- ----- --- --- ------ -------- ----- --- ------ ----- --<br>----- ----- ---------- --- --- ------ ------ ---- -- ------<br>------- --- ------ ----- --- ---- ------- -- ---- --- of<br>------- ------,161906,161899,161522.72,161522,161523.2,161907.18,,53,of
screen,html.Screen,2_1_1_1_54,2022-04-25T17:25:07.158Z,,,,,,,,,,,,,,,,,54,,,,,,,,,,,,,,428.820000000007,,response,,,,100,,,,,,,Space,keypress(Space),,,,,,,,-- --- ---- --- ------ ----- ------- ---- -- --- ------- --<br>------- ---------- ------ -- ----- -- ----- -- ---- ------<br>--- ----- --- --- ------ -------- ----- --- ------ ----- --<br>----- ----- ---------- --- --- ------ ------ ---- -- ------<br>------- --- ------ ----- --- ---- ------- -- ---- --- --<br>raising ------,162354,162336,161906.72,161906,161907.18,162355.1,,54,raising
screen,html.Screen,2_1_1_1_55,2022-04-25T17:25:07.966Z,,,,,,,,,,,,,,,,,54,,,,,,,,,,,,,,793.8999999999942,,response,,,,100,,,,,,,Space,keypress(Space),,,,,,,,-- --- ---- --- ------ ----- ------- ---- -- --- ------- --<br>------- ---------- ------ -- ----- -- ----- -- ---- ------<br>--- ----- --- --- ------ -------- ----- --- ------ ----- --<br>----- ----- ---------- --- --- ------ ------ ---- -- ------<br>------- --- ------ ----- --- ---- ------- -- ---- --- --<br>------- money.,163162,163149,162354.64,162355,162355.1,163163.52,,55,money.
Item 100,flow.Loop,2_1_1_1,2022-04-25T17:25:07.966Z,,,,,,,,,,,,,,,,,,,,,,,,,,,,,,,27953.440000000002,,completion,,,,,B,,,,,,,,,,,silence,,,,,163163,163149,135182.24,135183,135195.56,163163.52,,,
Question 1,html.Screen,2_1_1_2,2022-04-25T17:25:10.134Z,,,,,,,,,,,,,,,,,,,,,,,,,,,,true,TRUE,,2156.4800000000105,,response,,,,100,B,,,,,,TRUE,click #choice-1,,,,silence,,,,,165330,165320,163163.06,163163,163163.52,165341.18,,,
Question 2,html.Screen,2_1_1_3,2022-04-25T17:25:11.965Z,,,,,,,,,,,,,,,,,,,,,,,,,,,,true,FALSE,,1807.820000000007,,response,,,,100,B,,,,,,FALSE,click #choice-2,,,,silence,,,,,167162,167149,165329.64,165330,165341.18,167167.74,,,
Item 100,flow.Sequence,2_1_1,2022-04-25T17:25:11.965Z,,,,,,,,,,,,,,,,,,,,,,,,,,,,,,,41953.16,,completion,,,,,,,,,,,,,,,,,,,,,167162,167149,125187.66,125188,125195.84,167167.74,,,
End of Practice,html.Page,2_1_2,2022-04-25T17:25:15.048Z,,,,,,,,,,,,,,,,,,,,,,,,,,,,,,,3077.2600000000093,,form submission,,,,,,,,,,,,,,,,,,,,,170245,170245,167161.7,167162,167167.74,170247.6,,,
Practice,flow.Sequence,2_1,2022-04-25T17:25:15.048Z,,,,,,,,,,,,,,,,,,,,,,,,,,,,,,,90180.92,,completion,,,,,,,,,,,,,,,,,,,,,170245,170245,80057.54,80060,80064.08,170247.6,,,
Trap_instruction,html.Page,2_2_0,2022-04-25T17:25:17.574Z,,,,,,,,,,,,,,,,,,,,,,,,,,,,,,,2523.399999999994,,form submission,,,,,,,,,,,,,,,,,,,,,172771,172771,170243.72,170245,170247.6,172780.88,,,
trap_trial,html.Screen,2_2_1,2022-04-25T17:25:21.406Z,,,,,,,,,,,,,,,,,,,,,,,,,,,,true,1,,3805.1199999999953,,response,,,,,,,,,,,1,click #choice-1,,,,,,,,,176602,176586,172769.72,172771,172780.88,176607.42,,,
end of trap trial,html.Page,2_2_2,2022-04-25T17:25:22.560Z,,,,,,,,,,,,,,,,,,,,,,,,,,,,,,,1149.5799999999872,,form submission,,,,,,,,,,,,,,,,,,,,,177757,177757,176601.72,176602,176607.42,177767.4,,,
Trap 1,flow.Sequence,2_2,2022-04-25T17:25:22.560Z,,,,,,,,,,,,,,,,,,,,,,,,,,,,,,,7509.399999999994,,completion,,,,,,,,,,,,,,,,,,,,,177757,177757,170243.72,170245,170247.6,177767.4,,,
Standby,html.Page,2_3_0,2022-04-25T17:25:30.559Z,,,,,,,,,,,,,,,,,,,,,,,,,,,,,,,7999.720000000001,,timeout,,,,,,,,,,,,,,,,,,,,,185755,185753.8,177755.74,177757,177767.4,185767.12,,,
Holding screen,html.Screen,2_3_1_0_0,2022-04-25T17:25:37.558Z,,,,,,,,,,,,,,,,,,,,,,,,,,,,,,,6999.779999999999,,timeout,,,,,,,,,,,,,,,,,,,,,192755,192753.6,185753.8,185755,185767.12,192766.9,,,
screen,html.Screen,2_3_1_0_1_0,2022-04-25T17:25:38.319Z,,,,,,,,,,,,,,,,,2,,,,,,,,,,,,,,741.1000000000058,,response,,,,1,B,,,,,,Space,keypress(Space),,,,lyrical,,,,Two ---- ------ --- ------- ---------- ------- ----------<br>--- --------- --- ----------- ------- ----- ------- ---<br>--------- ---- -- --- ---- -- --------- -- ---- -------<br>-- --------- ------ --- ----- ------ ---- --- --------- --<br>------ - ---- -- --- ----------- ------- ---- ----- -----<br>--- -------- - ------ ---- -- ----- ---- --- --- -----------<br>-- -------,193515,193508,192753.6,192755,192766.9,193516.26,,0,Two
screen,html.Screen,2_3_1_0_1_1,2022-04-25T17:25:38.797Z,,,,,,,,,,,,,,,,,2,,,,,,,,,,,,,,461.7399999999907,,response,,,,1,B,,,,,,Space,keypress(Space),,,,lyrical,,,,--- days ------ --- ------- ---------- ------- ----------<br>--- --------- --- ----------- ------- ----- ------- ---<br>--------- ---- -- --- ---- -- --------- -- ---- -------<br>-- --------- ------ --- ----- ------ ---- --- --------- --<br>------ - ---- -- --- ----------- ------- ---- ----- -----<br>--- -------- - ------ ---- -- ----- ---- --- --- -----------<br>-- -------,193993,193978,193515.82,193515,193516.26,193993.38,,1,days
screen,html.Screen,2_3_1_0_1_2,2022-04-25T17:25:39.405Z,,,,,,,,,,,,,,,,,2,,,,,,,,,,,,,,593.6199999999953,,response,,,,1,B,,,,,,Space,keypress(Space),,,,lyrical,,,,"--- ---- later, --- ------- ---------- ------- ----------<br>--- --------- --- ----------- ------- ----- ------- ---<br>--------- ---- -- --- ---- -- --------- -- ---- -------<br>-- --------- ------ --- ----- ------ ---- --- --------- --<br>------ - ---- -- --- ----------- ------- ---- ----- -----<br>--- -------- - ------ ---- -- ----- ---- --- --- -----------<br>-- -------",194602,194587,193993.14,193993,193993.38,194620.16,,2,"later,"
screen,html.Screen,2_3_1_0_1_3,2022-04-25T17:25:40.038Z,,,,,,,,,,,,,,,,,2,,,,,,,,,,,,,,607.8399999999965,,response,,,,1,B,,,,,,Space,keypress(Space),,,,lyrical,,,,--- ---- ------ the ------- ---------- ------- ----------<br>--- --------- --- ----------- ------- ----- ------- ---<br>--------- ---- -- --- ---- -- --------- -- ---- -------<br>-- --------- ------ --- ----- ------ ---- --- --------- --<br>------ - ---- -- --- ----------- ------- ---- ----- -----<br>--- -------- - ------ ---- -- ----- ---- --- --- -----------<br>-- -------,195234,195228,194606.84,194603,194620.16,195235.2,,3,the
screen,html.Screen,2_3_1_0_1_4,2022-04-25T17:25:40.678Z,,,,,,,,,,,,,,,,,2,,,,,,,,,,,,,,631.7999999999884,,response,,,,1,B,,,,,,Space,keypress(Space),,,,lyrical,,,,--- ---- ------ --- British ---------- ------- ----------<br>--- --------- --- ----------- ------- ----- ------- ---<br>--------- ---- -- --- ---- -- --------- -- ---- -------<br>-- --------- ------ --- ----- ------ ---- --- --------- --<br>------ - ---- -- --- ----------- ------- ---- ----- -----<br>--- -------- - ------ ---- -- ----- ---- --- --- -----------<br>-- -------,195874,195867,195234.74,195234,195235.2,195875.24,,4,British
screen,html.Screen,2_3_1_0_1_5,2022-04-25T17:25:41.262Z,,,,,,,,,,,,,,,,,2,,,,,,,,,,,,,,570.7600000000093,,response,,,,1,B,,,,,,Space,keypress(Space),,,,lyrical,,,,--- ---- ------ --- ------- astronomer ------- ----------<br>--- --------- --- ----------- ------- ----- ------- ---<br>--------- ---- -- --- ---- -- --------- -- ---- -------<br>-- --------- ------ --- ----- ------ ---- --- --------- --<br>------ - ---- -- --- ----------- ------- ---- ----- -----<br>--- -------- - ------ ---- -- ----- ---- --- --- -----------<br>-- -------,196459,196446,195874.78,195875,195875.24,196459.54,,5,astronomer
screen,html.Screen,2_3_1_0_1_6,2022-04-25T17:25:41.765Z,,,,,,,,,,,,,,,,,2,,,,,,,,,,,,,,485.45999999999185,,response,,,,1,B,,,,,,Space,keypress(Space),,,,lyrical,,,,--- ---- ------ --- ------- ---------- Richard ----------<br>--- --------- --- ----------- ------- ----- ------- ---<br>--------- ---- -- --- ---- -- --------- -- ---- -------<br>-- --------- ------ --- ----- ------ ---- --- --------- --<br>------ - ---- -- --- ----------- ------- ---- ----- -----<br>--- -------- - ------ ---- -- ----- ---- --- --- -----------<br>-- -------,196962,196945,196459.12,196459,196459.54,196962.88,,6,Richard
screen,html.Screen,2_3_1_0_1_7,2022-04-25T17:25:42.711Z,,,,,,,,,,,,,,,,,2,,,,,,,,,,,,,,936.1199999999953,,response,,,,1,B,,,,,,Space,keypress(Space),,,,lyrical,,,,--- ---- ------ --- ------- ---------- ------- Carrington<br>--- --------- --- ----------- ------- ----- ------- ---<br>--------- ---- -- --- ---- -- --------- -- ---- -------<br>-- --------- ------ --- ----- ------ ---- --- --------- --<br>------ - ---- -- --- ----------- ------- ---- ----- -----<br>--- -------- - ------ ---- -- ----- ---- --- --- -----------<br>-- -------,197907,197899,196962.44,196963,196962.88,197907.98,,7,Carrington
screen,html.Screen,2_3_1_0_1_8,2022-04-25T17:25:43.158Z,,,,,,,,,,,,,,,,,2,,,,,,,,,,,,,,428.0199999999895,,response,,,,1,B,,,,,,Space,keypress(Space),,,,lyrical,,,,--- ---- ------ --- ------- ---------- ------- ----------<br>was --------- --- ----------- ------- ----- ------- ---<br>--------- ---- -- --- ---- -- --------- -- ---- -------<br>-- --------- ------ --- ----- ------ ---- --- --------- --<br>------ - ---- -- --- ----------- ------- ---- ----- -----<br>--- -------- - ------ ---- -- ----- ---- --- --- -----------<br>-- -------,198355,198336,197907.54,197907,197907.98,198355.32,,8,was
screen,html.Screen,2_3_1_0_1_9,2022-04-25T17:25:43.726Z,,,,,,,,,,,,,,,,,2,,,,,,,,,,,,,,558.679999999993,,response,,,,1,B,,,,,,Space,keypress(Space),,,,lyrical,,,,--- ---- ------ --- ------- ---------- ------- ----------<br>--- observing --- ----------- ------- ----- ------- ---<br>--------- ---- -- --- ---- -- --------- -- ---- -------<br>-- --------- ------ --- ----- ------ ---- --- --------- --<br>------ - ---- -- --- ----------- ------- ---- ----- -----<br>--- -------- - ------ ---- -- ----- ---- --- --- -----------<br>-- -------,198922,198914,198354.86,198355,198355.32,198923.28,,9,observing
screen,html.Screen,2_3_1_0_1_10,2022-04-25T17:25:44.270Z,,,,,,,,,,,,,,,,,2,,,,,,,,,,,,,,537.7200000000012,,response,,,,1,B,,,,,,Space,keypress(Space),,,,lyrical,,,,--- ---- ------ --- ------- ---------- ------- ----------<br>--- --------- the ----------- ------- ----- ------- ---<br>--------- ---- -- --- ---- -- --------- -- ---- -------<br>-- --------- ------ --- ----- ------ ---- --- --------- --<br>------ - ---- -- --- ----------- ------- ---- ----- -----<br>--- -------- - ------ ---- -- ----- ---- --- --- -----------<br>-- -------,199466,199461,198922.84,198923,198923.28,199467.34,,10,the
screen,html.Screen,2_3_1_0_1_11,2022-04-25T17:25:44.952Z,,,,,,,,,,,,,,,,,2,,,,,,,,,,,,,,666.6600000000035,,response,,,,1,B,,,,,,Space,keypress(Space),,,,lyrical,,,,--- ---- ------ --- ------- ---------- ------- ----------<br>--- --------- --- interesting ------- ----- ------- ---<br>--------- ---- -- --- ---- -- --------- -- ---- -------<br>-- --------- ------ --- ----- ------ ---- --- --------- --<br>------ - ---- -- --- ----------- ------- ---- ----- -----<br>--- -------- - ------ ---- -- ----- ---- --- --- -----------<br>-- -------,200149,200134,199466.86,199466,199467.34,200166.62,,11,interesting
screen,html.Screen,2_3_1_0_1_12,2022-04-25T17:25:45.606Z,,,,,,,,,,,,,,,,,2,,,,,,,,,,,,,,622.3800000000047,,response,,,,1,B,,,,,,Space,keypress(Space),,,,lyrical,,,,--- ---- ------ --- ------- ---------- ------- ----------<br>--- --------- --- ----------- sunspot ----- ------- ---<br>--------- ---- -- --- ---- -- --------- -- ---- -------<br>-- --------- ------ --- ----- ------ ---- --- --------- --<br>------ - ---- -- --- ----------- ------- ---- ----- -----<br>--- -------- - ------ ---- -- ----- ---- --- --- -----------<br>-- -------,200802,200789,200153.3,200149,200166.62,200803.46,,12,sunspot
screen,html.Screen,2_3_1_0_1_13,2022-04-25T17:25:46.638Z,,,,,,,,,,,,,,,,,2,,,,,,,,,,,,,,1017.5400000000081,,response,,,,1,B,,,,,,Space,keypress(Space),,,,lyrical,,,,--- ---- ------ --- ------- ---------- ------- ----------<br>--- --------- --- ----------- ------- group ------- ---<br>--------- ---- -- --- ---- -- --------- -- ---- -------<br>-- --------- ------ --- ----- ------ ---- --- --------- --<br>------ - ---- -- --- ----------- ------- ---- ----- -----<br>--- -------- - ------ ---- -- ----- ---- --- --- -----------<br>-- -------,201834,201821,200803,200802,200803.46,201835.42,,13,group
screen,html.Screen,2_3_1_0_1_14,2022-04-25T17:25:47.270Z,,,,,,,,,,,,,,,,,2,,,,,,,,,,,,,,625.5799999999872,,response,,,,1,B,,,,,,Space,keypress(Space),,,,lyrical,,,,--- ---- ------ --- ------- ---------- ------- ----------<br>--- --------- --- ----------- ------- ----- through ---<br>--------- ---- -- --- ---- -- --------- -- ---- -------<br>-- --------- ------ --- ----- ------ ---- --- --------- --<br>------ - ---- -- --- ----------- ------- ---- ----- -----<br>--- -------- - ------ ---- -- ----- ---- --- --- -----------<br>-- -------,202466,202461,201834.96,201834,201835.42,202467.28,,14,through
screen,html.Screen,2_3_1_0_1_15,2022-04-25T17:25:47.654Z,,,,,,,,,,,,,,,,,2,,,,,,,,,,,,,,368.72000000000116,,response,,,,1,B,,,,,,Space,keypress(Space),,,,lyrical,,,,--- ---- ------ --- ------- ---------- ------- ----------<br>--- --------- --- ----------- ------- ----- ------- his<br>--------- ---- -- --- ---- -- --------- -- ---- -------<br>-- --------- ------ --- ----- ------ ---- --- --------- --<br>------ - ---- -- --- ----------- ------- ---- ----- -----<br>--- -------- - ------ ---- -- ----- ---- --- --- -----------<br>-- -------,202851,202836,202466.84,202467,202467.28,202851.4,,15,his
screen,html.Screen,2_3_1_0_1_16,2022-04-25T17:25:48.278Z,,,,,,,,,,,,,,,,,2,,,,,,,,,,,,,,609.6000000000058,,response,,,,1,B,,,,,,Space,keypress(Space),,,,lyrical,,,,--- ---- ------ --- ------- ---------- ------- ----------<br>--- --------- --- ----------- ------- ----- ------- ---<br>telescope ---- -- --- ---- -- --------- -- ---- -------<br>-- --------- ------ --- ----- ------ ---- --- --------- --<br>------ - ---- -- --- ----------- ------- ---- ----- -----<br>--- -------- - ------ ---- -- ----- ---- --- --- -----------<br>-- -------,203474,203461,202850.98,202851,202851.4,203475.28,,16,telescope
screen,html.Screen,2_3_1_0_1_17,2022-04-25T17:25:48.870Z,,,,,,,,,,,,,,,,,2,,,,,,,,,,,,,,579.7200000000012,,response,,,,1,B,,,,,,Space,keypress(Space),,,,lyrical,,,,--- ---- ------ --- ------- ---------- ------- ----------<br>--- --------- --- ----------- ------- ----- ------- ---<br>--------- when -- --- ---- -- --------- -- ---- -------<br>-- --------- ------ --- ----- ------ ---- --- --------- --<br>------ - ---- -- --- ----------- ------- ---- ----- -----<br>--- -------- - ------ ---- -- ----- ---- --- --- -----------<br>-- -------,204066,204055,203474.84,203475,203475.28,204067.26,,17,when
screen,html.Screen,2_3_1_0_1_18,2022-04-25T17:25:49.285Z,,,,,,,,,,,,,,,,,2,,,,,,,,,,,,,,409.7399999999907,,response,,,,1,B,,,,,,Space,keypress(Space),,,,lyrical,,,,--- ---- ------ --- ------- ---------- ------- ----------<br>--- --------- --- ----------- ------- ----- ------- ---<br>--------- ---- he --- ---- -- --------- -- ---- -------<br>-- --------- ------ --- ----- ------ ---- --- --------- --<br>------ - ---- -- --- ----------- ------- ---- ----- -----<br>--- -------- - ------ ---- -- ----- ---- --- --- -----------<br>-- -------,204483,204477,204066.8,204067,204067.26,204483.26,,18,he
screen,html.Screen,2_3_1_0_1_19,2022-04-25T17:25:49.780Z,,,,,,,,,,,,,,,,,2,,,,,,,,,,,,,,477.7399999999907,,response,,,,1,B,,,,,,Space,keypress(Space),,,,lyrical,,,,--- ---- ------ --- ------- ---------- ------- ----------<br>--- --------- --- ----------- ------- ----- ------- ---<br>--------- ---- -- saw ---- -- --------- -- ---- -------<br>-- --------- ------ --- ----- ------ ---- --- --------- --<br>------ - ---- -- --- ----------- ------- ---- ----- -----<br>--- -------- - ------ ---- -- ----- ---- --- --- -----------<br>-- -------,204977,204961,204482.72,204483,204483.26,204976.82,,19,saw
screen,html.Screen,2_3_1_0_1_20,2022-04-25T17:25:50.302Z,,,,,,,,,,,,,,,,,2,,,,,,,,,,,,,,515.179999999993,,response,,,,1,B,,,,,,Space,keypress(Space),,,,lyrical,,,,--- ---- ------ --- ------- ---------- ------- ----------<br>--- --------- --- ----------- ------- ----- ------- ---<br>--------- ---- -- --- what -- --------- -- ---- -------<br>-- --------- ------ --- ----- ------ ---- --- --------- --<br>------ - ---- -- --- ----------- ------- ---- ----- -----<br>--- -------- - ------ ---- -- ----- ---- --- --- -----------<br>-- -------,205499,205492,204976.66,204977,204976.82,205499.32,,20,what
screen,html.Screen,2_3_1_0_1_21,2022-04-25T17:25:50.790Z,,,,,,,,,,,,,,,,,2,,,,,,,,,,,,,,477.679999999993,,response,,,,1,B,,,,,,Space,keypress(Space),,,,lyrical,,,,--- ---- ------ --- ------- ---------- ------- ----------<br>--- --------- --- ----------- ------- ----- ------- ---<br>--------- ---- -- --- ---- he --------- -- ---- -------<br>-- --------- ------ --- ----- ------ ---- --- --------- --<br>------ - ---- -- --- ----------- ------- ---- ----- -----<br>--- -------- - ------ ---- -- ----- ---- --- --- -----------<br>-- -------,205986,205977,205498.8,205499,205499.32,205987.22,,21,he
screen,html.Screen,2_3_1_0_1_22,2022-04-25T17:25:51.214Z,,,,,,,,,,,,,,,,,2,,,,,,,,,,,,,,411.77999999999884,,response,,,,1,B,,,,,,Space,keypress(Space),,,,lyrical,,,,--- ---- ------ --- ------- ---------- ------- ----------<br>--- --------- --- ----------- ------- ----- ------- ---<br>--------- ---- -- --- ---- -- described -- ---- -------<br>-- --------- ------ --- ----- ------ ---- --- --------- --<br>------ - ---- -- --- ----------- ------- ---- ----- -----<br>--- -------- - ------ ---- -- ----- ---- --- --- -----------<br>-- -------,206410,206399,205986.76,205987,205987.22,206411.34,,22,described
screen,html.Screen,2_3_1_0_1_23,2022-04-25T17:25:51.646Z,,,,,,,,,,,,,,,,,2,,,,,,,,,,,,,,424.6600000000035,,response,,,,1,B,,,,,,Space,keypress(Space),,,,lyrical,,,,--- ---- ------ --- ------- ---------- ------- ----------<br>--- --------- --- ----------- ------- ----- ------- ---<br>--------- ---- -- --- ---- -- --------- as ---- -------<br>-- --------- ------ --- ----- ------ ---- --- --------- --<br>------ - ---- -- --- ----------- ------- ---- ----- -----<br>--- -------- - ------ ---- -- ----- ---- --- --- -----------<br>-- -------,206843,206836,206410.9,206411,206411.34,206843.34,,23,as
screen,html.Screen,2_3_1_0_1_24,2022-04-25T17:25:52.022Z,,,,,,,,,,,,,,,,,2,,,,,,,,,,,,,,367.6600000000035,,response,,,,1,B,,,,,,Space,keypress(Space),,,,lyrical,,,,"--- ---- ------ --- ------- ---------- ------- ----------<br>--- --------- --- ----------- ------- ----- ------- ---<br>--------- ---- -- --- ---- -- --------- -- ""two -------<br>-- --------- ------ --- ----- ------ ---- --- --------- --<br>------ - ---- -- --- ----------- ------- ---- ----- -----<br>--- -------- - ------ ---- -- ----- ---- --- --- -----------<br>-- -------",207218,207211,206842.9,206843,206843.34,207219.32,,24,"""two"
screen,html.Screen,2_3_1_0_1_25,2022-04-25T17:25:52.614Z,,,,,,,,,,,,,,,,,2,,,,,,,,,,,,,,585.679999999993,,response,,,,1,B,,,,,,Space,keypress(Space),,,,lyrical,,,,--- ---- ------ --- ------- ---------- ------- ----------<br>--- --------- --- ----------- ------- ----- ------- ---<br>--------- ---- -- --- ---- -- --------- -- ---- patches<br>-- --------- ------ --- ----- ------ ---- --- --------- --<br>------ - ---- -- --- ----------- ------- ---- ----- -----<br>--- -------- - ------ ---- -- ----- ---- --- --- -----------<br>-- -------,207810,207805,207218.76,207218,207219.32,207811.44,,25,patches
screen,html.Screen,2_3_1_0_1_26,2022-04-25T17:25:53.062Z,,,,,,,,,,,,,,,,,2,,,,,,,,,,,,,,430.5599999999977,,response,,,,1,B,,,,,,Space,keypress(Space),,,,lyrical,,,,--- ---- ------ --- ------- ---------- ------- ----------<br>--- --------- --- ----------- ------- ----- ------- ---<br>--------- ---- -- --- ---- -- --------- -- ---- -------<br>of --------- ------ --- ----- ------ ---- --- --------- --<br>------ - ---- -- --- ----------- ------- ---- ----- -----<br>--- -------- - ------ ---- -- ----- ---- --- --- -----------<br>-- -------,208258,208242,207811,207811,207811.44,208259.32,,26,of
screen,html.Screen,2_3_1_0_1_27,2022-04-25T17:25:53.670Z,,,,,,,,,,,,,,,,,2,,,,,,,,,,,,,,592.679999999993,,response,,,,1,B,,,,,,Space,keypress(Space),,,,lyrical,,,,--- ---- ------ --- ------- ---------- ------- ----------<br>--- --------- --- ----------- ------- ----- ------- ---<br>--------- ---- -- --- ---- -- --------- -- ---- -------<br>-- intensely ------ --- ----- ------ ---- --- --------- --<br>------ - ---- -- --- ----------- ------- ---- ----- -----<br>--- -------- - ------ ---- -- ----- ---- --- --- -----------<br>-- -------,208866,208852,208258.7,208259,208259.32,208867.18,,27,intensely
screen,html.Screen,2_3_1_0_1_28,2022-04-25T17:25:54.342Z,,,,,,,,,,,,,,,,,2,,,,,,,,,,,,,,657.820000000007,,response,,,,1,B,,,,,,Space,keypress(Space),,,,lyrical,,,,--- ---- ------ --- ------- ---------- ------- ----------<br>--- --------- --- ----------- ------- ----- ------- ---<br>--------- ---- -- --- ---- -- --------- -- ---- -------<br>-- --------- bright --- ----- ------ ---- --- --------- --<br>------ - ---- -- --- ----------- ------- ---- ----- -----<br>--- -------- - ------ ---- -- ----- ---- --- --- -----------<br>-- -------,209538,209525,208866.74,208867,208867.18,209539.44,,28,bright
screen,html.Screen,2_3_1_0_1_29,2022-04-25T17:25:54.734Z,,,,,,,,,,,,,,,,,2,,,,,,,,,,,,,,375.5599999999977,,response,,,,1,B,,,,,,Space,keypress(Space),,,,lyrical,,,,--- ---- ------ --- ------- ---------- ------- ----------<br>--- --------- --- ----------- ------- ----- ------- ---<br>--------- ---- -- --- ---- -- --------- -- ---- -------<br>-- --------- ------ and ----- ------ ---- --- --------- --<br>------ - ---- -- --- ----------- ------- ---- ----- -----<br>--- -------- - ------ ---- -- ----- ---- --- --- -----------<br>-- -------,209930,209915,209539.14,209539,209539.44,209931.18,,29,and
screen,html.Screen,2_3_1_0_1_30,2022-04-25T17:25:55.237Z,,,,,,,,,,,,,,,,,2,,,,,,,,,,,,,,498.820000000007,,response,,,,1,B,,,,,,Space,keypress(Space),,,,lyrical,,,,--- ---- ------ --- ------- ---------- ------- ----------<br>--- --------- --- ----------- ------- ----- ------- ---<br>--------- ---- -- --- ---- -- --------- -- ---- -------<br>-- --------- ------ --- white ------ ---- --- --------- --<br>------ - ---- -- --- ----------- ------- ---- ----- -----<br>--- -------- - ------ ---- -- ----- ---- --- --- -----------<br>-- -------,210434,210430,209930.76,209931,209931.18,210434.72,,30,white
screen,html.Screen,2_3_1_0_1_31,2022-04-25T17:25:55.886Z,,,,,,,,,,,,,,,,,2,,,,,,,,,,,,,,636.2799999999988,,response,,,,1,B,,,,,,Space,keypress(Space),,,,lyrical,,,,"--- ---- ------ --- ------- ---------- ------- ----------<br>--- --------- --- ----------- ------- ----- ------- ---<br>--------- ---- -- --- ---- -- --------- -- ---- -------<br>-- --------- ------ --- ----- light"" ---- --- --------- --<br>------ - ---- -- --- ----------- ------- ---- ----- -----<br>--- -------- - ------ ---- -- ----- ---- --- --- -----------<br>-- -------",211082,211071,210434.26,210434,210434.72,211083.3,,31,"light"""
screen,html.Screen,2_3_1_0_1_32,2022-04-25T17:25:56.334Z,,,,,,,,,,,,,,,,,2,,,,,,,,,,,,,,440.70000000001164,,response,,,,1,B,,,,,,Space,keypress(Space),,,,lyrical,,,,--- ---- ------ --- ------- ---------- ------- ----------<br>--- --------- --- ----------- ------- ----- ------- ---<br>--------- ---- -- --- ---- -- --------- -- ---- -------<br>-- --------- ------ --- ----- ------ over --- --------- --<br>------ - ---- -- --- ----------- ------- ---- ----- -----<br>--- -------- - ------ ---- -- ----- ---- --- --- -----------<br>-- -------,211530,211524,211082.86,211082,211083.3,211531.32,,32,over
screen,html.Screen,2_3_1_0_1_33,2022-04-25T17:25:56.734Z,,,,,,,,,,,,,,,,,2,,,,,,,,,,,,,,382.679999999993,,response,,,,1,B,,,,,,Space,keypress(Space),,,,lyrical,,,,--- ---- ------ --- ------- ---------- ------- ----------<br>--- --------- --- ----------- ------- ----- ------- ---<br>--------- ---- -- --- ---- -- --------- -- ---- -------<br>-- --------- ------ --- ----- ------ ---- the --------- --<br>------ - ---- -- --- ----------- ------- ---- ----- -----<br>--- -------- - ------ ---- -- ----- ---- --- --- -----------<br>-- -------,211930,211914,211530.88,211531,211531.32,211931.44,,33,the
screen,html.Screen,2_3_1_0_1_34,2022-04-25T17:25:57.670Z,,,,,,,,,,,,,,,,,2,,,,,,,,,,,,,,920.5599999999977,,response,,,,1,B,,,,,,Space,keypress(Space),,,,lyrical,,,,--- ---- ------ --- ------- ---------- ------- ----------<br>--- --------- --- ----------- ------- ----- ------- ---<br>--------- ---- -- --- ---- -- --------- -- ---- -------<br>-- --------- ------ --- ----- ------ ---- --- sunspots. --<br>------ - ---- -- --- ----------- ------- ---- ----- -----<br>--- -------- - ------ ---- -- ----- ---- --- --- -----------<br>-- -------,212866,212852,211931,211931,211931.44,212867.34,,34,sunspots.
screen,html.Screen,2_3_1_0_1_35,2022-04-25T17:25:58.046Z,,,,,,,,,,,,,,,,,2,,,,,,,,,,,,,,359.6600000000035,,response,,,,1,B,,,,,,Space,keypress(Space),,,,lyrical,,,,--- ---- ------ --- ------- ---------- ------- ----------<br>--- --------- --- ----------- ------- ----- ------- ---<br>--------- ---- -- --- ---- -- --------- -- ---- -------<br>-- --------- ------ --- ----- ------ ---- --- --------- He<br>------ - ---- -- --- ----------- ------- ---- ----- -----<br>--- -------- - ------ ---- -- ----- ---- --- --- -----------<br>-- -------,213242,213227,212866.78,212866,212867.34,213243.24,,35,He
screen,html.Screen,2_3_1_0_1_36,2022-04-25T17:25:58.796Z,,,,,,,,,,,,,,,,,2,,,,,,,,,,,,,,734.7600000000093,,response,,,,1,B,,,,,,Space,keypress(Space),,,,lyrical,,,,--- ---- ------ --- ------- ---------- ------- ----------<br>--- --------- --- ----------- ------- ----- ------- ---<br>--------- ---- -- --- ---- -- --------- -- ---- -------<br>-- --------- ------ --- ----- ------ ---- --- --------- --<br>jotted - ---- -- --- ----------- ------- ---- ----- -----<br>--- -------- - ------ ---- -- ----- ---- --- --- -----------<br>-- -------,213993,213978,213242.82,213243,213243.24,213993.32,,36,jotted
screen,html.Screen,2_3_1_0_1_37,2022-04-25T17:25:59.278Z,,,,,,,,,,,,,,,,,2,,,,,,,,,,,,,,467.679999999993,,response,,,,1,B,,,,,,Space,keypress(Space),,,,lyrical,,,,--- ---- ------ --- ------- ---------- ------- ----------<br>--- --------- --- ----------- ------- ----- ------- ---<br>--------- ---- -- --- ---- -- --------- -- ---- -------<br>-- --------- ------ --- ----- ------ ---- --- --------- --<br>------ a ---- -- --- ----------- ------- ---- ----- -----<br>--- -------- - ------ ---- -- ----- ---- --- --- -----------<br>-- -------,214474,214461,213993.08,213993,213993.32,214475.26,,37,a
screen,html.Screen,2_3_1_0_1_38,2022-04-25T17:25:59.709Z,,,,,,,,,,,,,,,,,2,,,,,,,,,,,,,,423.7399999999907,,response,,,,1,B,,,,,,Space,keypress(Space),,,,lyrical,,,,--- ---- ------ --- ------- ---------- ------- ----------<br>--- --------- --- ----------- ------- ----- ------- ---<br>--------- ---- -- --- ---- -- --------- -- ---- -------<br>-- --------- ------ --- ----- ------ ---- --- --------- --<br>------ - note -- --- ----------- ------- ---- ----- -----<br>--- -------- - ------ ---- -- ----- ---- --- --- -----------<br>-- -------,214906,214899,214474.82,214475,214475.26,214907.2,,38,note
screen,html.Screen,2_3_1_0_1_39,2022-04-25T17:26:00.214Z,,,,,,,,,,,,,,,,,2,,,,,,,,,,,,,,491.79999999998836,,response,,,,1,B,,,,,,Space,keypress(Space),,,,lyrical,,,,--- ---- ------ --- ------- ---------- ------- ----------<br>--- --------- --- ----------- ------- ----- ------- ---<br>--------- ---- -- --- ---- -- --------- -- ---- -------<br>-- --------- ------ --- ----- ------ ---- --- --------- --<br>------ - ---- in --- ----------- ------- ---- ----- -----<br>--- -------- - ------ ---- -- ----- ---- --- --- -----------<br>-- -------,215410,215399,214906.74,214906,214907.2,215411.48,,39,in
screen,html.Screen,2_3_1_0_1_40,2022-04-25T17:26:00.584Z,,,,,,,,,,,,,,,,,2,,,,,,,,,,,,,,362.5199999999895,,response,,,,1,B,,,,,,Space,keypress(Space),,,,lyrical,,,,--- ---- ------ --- ------- ---------- ------- ----------<br>--- --------- --- ----------- ------- ----- ------- ---<br>--------- ---- -- --- ---- -- --------- -- ---- -------<br>-- --------- ------ --- ----- ------ ---- --- --------- --<br>------ - ---- -- his ----------- ------- ---- ----- -----<br>--- -------- - ------ ---- -- ----- ---- --- --- -----------<br>-- -------,215781,215774,215411.08,215411,215411.48,215781.78,,40,his
screen,html.Screen,2_3_1_0_1_41,2022-04-25T17:26:01.262Z,,,,,,,,,,,,,,,,,2,,,,,,,,,,,,,,663.2200000000012,,response,,,,1,B,,,,,,Space,keypress(Space),,,,lyrical,,,,--- ---- ------ --- ------- ---------- ------- ----------<br>--- --------- --- ----------- ------- ----- ------- ---<br>--------- ---- -- --- ---- -- --------- -- ---- -------<br>-- --------- ------ --- ----- ------ ---- --- --------- --<br>------ - ---- -- --- painstaking ------- ---- ----- -----<br>--- -------- - ------ ---- -- ----- ---- --- --- -----------<br>-- -------,216458,216445,215781.36,215782,215781.78,216459.46,,41,painstaking
screen,html.Screen,2_3_1_0_1_42,2022-04-25T17:26:01.990Z,,,,,,,,,,,,,,,,,2,,,,,,,,,,,,,,720.5400000000081,,response,,,,1,B,,,,,,Space,keypress(Space),,,,lyrical,,,,--- ---- ------ --- ------- ---------- ------- ----------<br>--- --------- --- ----------- ------- ----- ------- ---<br>--------- ---- -- --- ---- -- --------- -- ---- -------<br>-- --------- ------ --- ----- ------ ---- --- --------- --<br>------ - ---- -- --- ----------- record. ---- ----- -----<br>--- -------- - ------ ---- -- ----- ---- --- --- -----------<br>-- -------,217187,217180,216459.04,216459,216459.46,217187.5,,42,record.
screen,html.Screen,2_3_1_0_1_43,2022-04-25T17:26:02.469Z,,,,,,,,,,,,,,,,,2,,,,,,,,,,,,,,462.5,,response,,,,1,B,,,,,,Space,keypress(Space),,,,lyrical,,,,--- ---- ------ --- ------- ---------- ------- ----------<br>--- --------- --- ----------- ------- ----- ------- ---<br>--------- ---- -- --- ---- -- --------- -- ---- -------<br>-- --------- ------ --- ----- ------ ---- --- --------- --<br>------ - ---- -- --- ----------- ------- That ----- -----<br>--- -------- - ------ ---- -- ----- ---- --- --- -----------<br>-- -------,217666,217650,217186.72,217187,217187.5,217667.2,,43,That
screen,html.Screen,2_3_1_0_1_44,2022-04-25T17:26:02.870Z,,,,,,,,,,,,,,,,,2,,,,,,,,,,,,,,387.79999999998836,,response,,,,1,B,,,,,,Space,keypress(Space),,,,lyrical,,,,--- ---- ------ --- ------- ---------- ------- ----------<br>--- --------- --- ----------- ------- ----- ------- ---<br>--------- ---- -- --- ---- -- --------- -- ---- -------<br>-- --------- ------ --- ----- ------ ---- --- --------- --<br>------ - ---- -- --- ----------- ------- ---- night -----<br>--- -------- - ------ ---- -- ----- ---- --- --- -----------<br>-- -------,218066,218055,217666.74,217666,217667.2,218067.08,,44,night
screen,html.Screen,2_3_1_0_1_45,2022-04-25T17:26:03.294Z,,,,,,,,,,,,,,,,,2,,,,,,,,,,,,,,409.9200000000128,,response,,,,1,B,,,,,,Space,keypress(Space),,,,lyrical,,,,--- ---- ------ --- ------- ---------- ------- ----------<br>--- --------- --- ----------- ------- ----- ------- ---<br>--------- ---- -- --- ---- -- --------- -- ---- -------<br>-- --------- ------ --- ----- ------ ---- --- --------- --<br>------ - ---- -- --- ----------- ------- ---- ----- there<br>--- -------- - ------ ---- -- ----- ---- --- --- -----------<br>-- -------,218490,218477,218066.68,218066,218067.08,218491.28,,45,there
screen,html.Screen,2_3_1_0_1_46,2022-04-25T17:26:03.742Z,,,,,,,,,,,,,,,,,2,,,,,,,,,,,,,,438.72000000000116,,response,,,,1,B,,,,,,Space,keypress(Space),,,,lyrical,,,,--- ---- ------ --- ------- ---------- ------- ----------<br>--- --------- --- ----------- ------- ----- ------- ---<br>--------- ---- -- --- ---- -- --------- -- ---- -------<br>-- --------- ------ --- ----- ------ ---- --- --------- --<br>------ - ---- -- --- ----------- ------- ---- ----- -----<br>was -------- - ------ ---- -- ----- ---- --- --- -----------<br>-- -------,218939,218930,218490.82,218490,218491.28,218939.6,,46,was
screen,html.Screen,2_3_1_0_1_47,2022-04-25T17:26:04.366Z,,,,,,,,,,,,,,,,,2,,,,,,,,,,,,,,615.3999999999942,,response,,,,1,B,,,,,,Space,keypress(Space),,,,lyrical,,,,--- ---- ------ --- ------- ---------- ------- ----------<br>--- --------- --- ----------- ------- ----- ------- ---<br>--------- ---- -- --- ---- -- --------- -- ---- -------<br>-- --------- ------ --- ----- ------ ---- --- --------- --<br>------ - ---- -- --- ----------- ------- ---- ----- -----<br>--- scarcely - ------ ---- -- ----- ---- --- --- -----------<br>-- -------,219562,219555,218939.18,218940,218939.6,219563.22,,47,scarcely
screen,html.Screen,2_3_1_0_1_48,2022-04-25T17:26:05.095Z,,,,,,,,,,,,,,,,,2,,,,,,,,,,,,,,710.7799999999988,,response,,,,1,B,,,,,,Space,keypress(Space),,,,lyrical,,,,--- ---- ------ --- ------- ---------- ------- ----------<br>--- --------- --- ----------- ------- ----- ------- ---<br>--------- ---- -- --- ---- -- --------- -- ---- -------<br>-- --------- ------ --- ----- ------ ---- --- --------- --<br>------ - ---- -- --- ----------- ------- ---- ----- -----<br>--- -------- a ------ ---- -- ----- ---- --- --- -----------<br>-- -------,220291,220274,219562.74,219562,219563.22,220291.68,,48,a
