sender,sender_type,sender_id,timestamp,meta,,Blues,Classical,Country,Dance,Electronic,Folk,Gospel,Hip-Hop,Jazz,Latin,Musical/Film,New-age,Pop,Prolific_id,Provo_ID,R&B,Rap,Reggae,Religious,Rock,Soul,Swing,Traditional,age,artist_name,correct,correctResponse,distraction,duration,education,ended_on,familiarity,gender,headphone_check_performance,item,list,music_frequency,offensiveness,pleasantness,position_correct,preference,response,response_action,snippet_file,song_name,song_rating,sound,stimulus_1,stimulus_2,stimulus_3,text,time_commit,time_end,time_render,time_run,time_show,time_switch,url,word,word_ID
Prolific ID,html.Form,0,2022-04-25T17:07:50.242Z,"{""labjs_version"":""20.2.2"",""labjs_build"":{""flavor"":""production"",""commit"":""a25486e0c714a0ae2ce03ff94b7bb6896854dcfa""},""location"":""https://run.pavlovia.org/mvasilev/prolific3_music_b/"",""userAgent"":""Mozilla/5.0 (Macintosh; Intel Mac OS X 10_15_7) AppleWebKit/605.1.15 (KHTML, like Gecko) Version/15.3 Safari/605.1.15"",""platform"":""MacIntel"",""language"":""en-GB"",""locale"":""en-GB"",""timeZone"":""Europe/London"",""timezoneOffset"":-60,""screen_width"":1280,""screen_height"":800,""scroll_width"":1231,""scroll_height"":647,""window_innerWidth"":1231,""window_innerHeight"":695,""devicePixelRatio"":2}",,,,,,,,,,,,,,,5db5f2196a72a3000cc54aa4,,,,,,,,,,,,,,,4237.999999999998,,form submission,,,,,,,,,,,,,,,,,,,,,16285,16283.999999999998,12035,12001,12046,16314,{},,
Introduction,html.Screen,1_0,2022-04-25T17:07:55.811Z,,,,,,,,,,,,,,,,,,,,,,,,,,,,,,,4832,,response,,,,,,,,,,,continue,click button,,,,,,,,,21851,21129,16297,16285,16314,21882,,,
Volume calibration,html.Screen,1_1,2022-04-25T17:08:15.162Z,,,,,,,,,,,,,,,,,,,,,,,,,,,,,,,18607.000000000007,,response,,,,,,,,,,,continue,click button,,,,,,,,,41199,40474.00000000001,21867,21851,21882,41226,,,
Task instructions,html.Screen,1_2,2022-04-25T17:08:28.915Z,,,,,,,,,,,,,,,,,,,,,,,,,,,,,,,13016.000000000007,,response,,,,,,,,,,,continue,click button,,,,,,,,,54950,54224.00000000001,41208,41199,41226,54982,,,
Sounds,html.Screen,1_3_0_0,2022-04-25T17:08:33.183Z,,,,,,,,,,,,,,,,,,,,,,,,,,,,,,,4252,,timeout,,,,,,,,,3,,,,,,,,O,I,S,,59218,59217,54966,54950,54982,59234,,,
Judgement,html.Screen,1_3_0_1,2022-04-25T17:08:35.601Z,,,,,,,,,,,,,,,,,,,,,,,,,,,,true,3,,1694,,response,,,,,,,,,3,,3,click #choice-3,,,,,O,I,S,,61635,60911,59217,59218,59234,61667,,,
Trial,flow.Sequence,1_3_0,2022-04-25T17:08:35.601Z,,,,,,,,,,,,,,,,,,,,,,,,,,,,,,,5929,,completion,,,,,,,,,3,,,,,,,,O,I,S,,61635,60911,54966,54950,54982,61667,,,
Sounds,html.Screen,1_3_1_0,2022-04-25T17:08:39.870Z,,,,,,,,,,,,,,,,,,,,,,,,,,,,,,,4254,,timeout,,,,,,,,,1,,,,,,,,S,O,I,,65904,65904,61651,61636,61667,65921,,,
Judgement,html.Screen,1_3_1_1,2022-04-25T17:08:41.188Z,,,,,,,,,,,,,,,,,,,,,,,,,,,,true,1,,604,,response,,,,,,,,,1,,1,click #choice-1,,,,,S,O,I,,67223,66508,65904,65904,65921,67253,,,
Trial,flow.Sequence,1_3_1,2022-04-25T17:08:41.188Z,,,,,,,,,,,,,,,,,,,,,,,,,,,,,,,4841,,completion,,,,,,,,,1,,,,,,,,S,O,I,,67223,66508,61651,61636,61667,67253,,,
Sounds,html.Screen,1_3_2_0,2022-04-25T17:08:45.457Z,,,,,,,,,,,,,,,,,,,,,,,,,,,,,,,4254,,timeout,,,,,,,,,2,,,,,,,,O,S,I,,71491,71490,67237,67223,67253,71507,,,
Judgement,html.Screen,1_3_2_1,2022-04-25T17:08:46.443Z,,,,,,,,,,,,,,,,,,,,,,,,,,,,true,2,,263,,response,,,,,,,,,2,,2,click #choice-2,,,,,O,S,I,,72477,71753,71490,71491,71507,72504,,,
Trial,flow.Sequence,1_3_2,2022-04-25T17:08:46.443Z,,,,,,,,,,,,,,,,,,,,,,,,,,,,,,,4500,,completion,,,,,,,,,2,,,,,,,,O,S,I,,72477,71753,67237,67223,67253,72504,,,
Sounds,html.Screen,1_3_3_0,2022-04-25T17:08:50.708Z,,,,,,,,,,,,,,,,,,,,,,,,,,,,,,,4255,,timeout,,,,,,,,,1,,,,,,,,S,I,O,,76742,76742,72490,72477,72504,76759,,,
Judgement,html.Screen,1_3_3_1,2022-04-25T17:08:51.634Z,,,,,,,,,,,,,,,,,,,,,,,,,,,,true,1,,210,,response,,,,,,,,,1,,1,click #choice-1,,,,,S,I,O,,77667,76952,76742,76742,76759,77691,,,
Trial,flow.Sequence,1_3_3,2022-04-25T17:08:51.634Z,,,,,,,,,,,,,,,,,,,,,,,,,,,,,,,4448,,completion,,,,,,,,,1,,,,,,,,S,I,O,,77668,76952,72490,72477,72504,77691,,,
Sounds,html.Screen,1_3_4_0,2022-04-25T17:08:55.895Z,,,,,,,,,,,,,,,,,,,,,,,,,,,,,,,4254,,timeout,,,,,,,,,2,,,,,,,,I,S,O,,81928,81928,77676,77668,77691,81945,,,
Judgement,html.Screen,1_3_4_1,2022-04-25T17:08:56.541Z,,,,,,,,,,,,,,,,,,,,,,,,,,,,true,2,,-69,,response,,,,,,,,,2,,2,click #choice-2,,,,,I,S,O,,82575,81859,81928,81928,81945,82611,,,
Trial,flow.Sequence,1_3_4,2022-04-25T17:08:56.541Z,,,,,,,,,,,,,,,,,,,,,,,,,,,,,,,4168,,completion,,,,,,,,,2,,,,,,,,I,S,O,,82575,81859,77676,77668,77691,82611,,,
Sounds,html.Screen,1_3_5_0,2022-04-25T17:09:00.814Z,,,,,,,,,,,,,,,,,,,,,,,,,,,,,,,4253,,timeout,,,,,,,,,3,,,,,,,,I,O,S,,86848,86848,82596,82575,82611,86864,,,
Judgement,html.Screen,1_3_5_1,2022-04-25T17:09:01.556Z,,,,,,,,,,,,,,,,,,,,,,,,,,,,true,3,,28,,response,,,,,,,,,3,,3,click #choice-3,,,,,I,O,S,,87589,86876,86848,86848,86864,87614,,,
Trial,flow.Sequence,1_3_5,2022-04-25T17:09:01.556Z,,,,,,,,,,,,,,,,,,,,,,,,,,,,,,,4265,,completion,,,,,,,,,3,,,,,,,,I,O,S,,87589,86876,82596,82575,82611,87614,,,
Task,flow.Loop,1_3,2022-04-25T17:09:01.558Z,,,,,,,,,,,,,,,,,,,,,,,,,,,,,,,31894,,completion,,,1,,,,,,,,,,,,,,,,,,87592,86876,54966,54950,54982,87614,,,
Trap,html.Screen,1_4,2022-04-25T17:09:01.559Z,,,,,,,,,,,,,,,,,,,,,,,,,,,,,,,NaN,,skipped,,,,,,,,,,,,,,,,,,,,,87593,86876,,87592,,87614,,,
Thanks,html.Screen,1_5,2022-04-25T17:09:05.075Z,,,,,,,,,,,,,,,,,,,,,,,,,,,,,,,2789,,response,,,,,,,,,,,continue,click button,,,,,,,,,91109.00000000001,90386,87597,87593,87614,93634,,,
Headphone screening,flow.Sequence,1,2022-04-25T17:09:05.076Z,,,,,,,,,,,,,,,,,,,,,,,,,,,,,,,74072,,completion,,,,,,,,,,,,,,,,,,,,,91109.00000000001,90386,16297,16285,16314,93634,,,
Instructions,html.Page,2_0,2022-04-25T17:09:29.090Z,,,,,,,,,,,,,,,,,,,,,,,,,,,,,,,21488,,form submission,,,,,,,,,,,,,,,,,,,,,115123,115122,93617,93613,93634,115161,,,
Holding screen,html.Screen,2_1_0_0,2022-04-25T17:09:39.117Z,,,,,,,,,,,,,,,,,,,,,,,,,,,,,,,10005,,timeout,,,,,,,,,,,,,,,,,,,,,125150,125149,115144,115123,115161,125166,,,
screen,html.Screen,2_1_0_1_0,2022-04-25T17:09:40.394Z,,,,,,,,,,,,,,,,,53,,,,,,,,,,,,,,566,,response,,,,99,,,,,,,Space,keypress(Space),,,,,,,,When -- ----- -- ------ - ------- --- ----------<br>------------- ------ ------ ---- ---- ------- ----- -- ----<br>-------- ------- -- ---------- --- - --- ----- ----- ----<br>---- --- --- ----- --- ---- ---- ------- ----- ---- -------<br>--- --- -- ----- -- --- ---- -- --- ---- -- ------ ------<br>--- ----- -- ----,126427,125715,125149,125150,125166,126449,,0,When
screen,html.Screen,2_1_0_1_1,2022-04-25T17:09:40.922Z,,,,,,,,,,,,,,,,,53,,,,,,,,,,,,,,-188.99999999998545,,response,,,,99,,,,,,,Space,keypress(Space),,,,,,,,---- it ----- -- ------ - ------- --- ----------<br>------------- ------ ------ ---- ---- ------- ----- -- ----<br>-------- ------- -- ---------- --- - --- ----- ----- ----<br>---- --- --- ----- --- ---- ---- ------- ----- ---- -------<br>--- --- -- ----- -- --- ---- -- --- ---- -- ------ ------<br>--- ----- -- ----,126954.00000000001,126243.00000000001,126432,126427,126449,126983,,1,it
screen,html.Screen,2_1_0_1_2,2022-04-25T17:09:41.506Z,,,,,,,,,,,,,,,,,53,,,,,,,,,,,,,,-139,,response,,,,99,,,,,,,Space,keypress(Space),,,,,,,,---- -- comes -- ------ - ------- --- ----------<br>------------- ------ ------ ---- ---- ------- ----- -- ----<br>-------- ------- -- ---------- --- - --- ----- ----- ----<br>---- --- --- ----- --- ---- ---- ------- ----- ---- -------<br>--- --- -- ----- -- --- ---- -- --- ---- -- ------ ------<br>--- ----- -- ----,127538,126827,126966,126954.00000000001,126983,127566,,2,comes
screen,html.Screen,2_1_0_1_3,2022-04-25T17:09:42.025Z,,,,,,,,,,,,,,,,,53,,,,,,,,,,,,,,-204,,response,,,,99,,,,,,,Space,keypress(Space),,,,,,,,---- -- ----- to ------ - ------- --- ----------<br>------------- ------ ------ ---- ---- ------- ----- -- ----<br>-------- ------- -- ---------- --- - --- ----- ----- ----<br>---- --- --- ----- --- ---- ---- ------- ----- ---- -------<br>--- --- -- ----- -- --- ---- -- --- ---- -- ------ ------<br>--- ----- -- ----,128057.00000000001,127346,127550,127538,127566,128083,,3,to
screen,html.Screen,2_1_0_1_4,2022-04-25T17:09:42.586Z,,,,,,,,,,,,,,,,,53,,,,,,,,,,,,,,-159,,response,,,,99,,,,,,,Space,keypress(Space),,,,,,,,---- -- ----- -- having - ------- --- ----------<br>------------- ------ ------ ---- ---- ------- ----- -- ----<br>-------- ------- -- ---------- --- - --- ----- ----- ----<br>---- --- --- ----- --- ---- ---- ------- ----- ---- -------<br>--- --- -- ----- -- --- ---- -- --- ---- -- ------ ------<br>--- ----- -- ----,128618,127907,128066,128057.00000000001,128083,128650,,4,having
screen,html.Screen,2_1_0_1_5,2022-04-25T17:09:43.086Z,,,,,,,,,,,,,,,,,53,,,,,,,,,,,,,,-225.99999999998545,,response,,,,99,,,,,,,Space,keypress(Space),,,,,,,,---- -- ----- -- ------ a ------- --- ----------<br>------------- ------ ------ ---- ---- ------- ----- -- ----<br>-------- ------- -- ---------- --- - --- ----- ----- ----<br>---- --- --- ----- --- ---- ---- ------- ----- ---- -------<br>--- --- -- ----- -- --- ---- -- --- ---- -- ------ ------<br>--- ----- -- ----,129118,128407.00000000001,128633,128618,128650,129151,,5,a
screen,html.Screen,2_1_0_1_6,2022-04-25T17:09:43.666Z,,,,,,,,,,,,,,,,,53,,,,,,,,,,,,,,-147,,response,,,,99,,,,,,,Space,keypress(Space),,,,,,,,---- -- ----- -- ------ - lasting --- ----------<br>------------- ------ ------ ---- ---- ------- ----- -- ----<br>-------- ------- -- ---------- --- - --- ----- ----- ----<br>---- --- --- ----- --- ---- ---- ------- ----- ---- -------<br>--- --- -- ----- -- --- ---- -- --- ---- -- ------ ------<br>--- ----- -- ----,129698.00000000001,128987,129134,129118,129151,129734,,6,lasting
screen,html.Screen,2_1_0_1_7,2022-04-25T17:09:44.156Z,,,,,,,,,,,,,,,,,53,,,,,,,,,,,,,,-241,,response,,,,99,,,,,,,Space,keypress(Space),,,,,,,,---- -- ----- -- ------ - ------- and ----------<br>------------- ------ ------ ---- ---- ------- ----- -- ----<br>-------- ------- -- ---------- --- - --- ----- ----- ----<br>---- --- --- ----- --- ---- ---- ------- ----- ---- -------<br>--- --- -- ----- -- --- ---- -- --- ---- -- ------ ------<br>--- ----- -- ----,130188.00000000001,129477,129718,129698.00000000001,129734,130217,,7,and
screen,html.Screen,2_1_0_1_8,2022-04-25T17:09:44.769Z,,,,,,,,,,,,,,,,,53,,,,,,,,,,,,,,-111,,response,,,,99,,,,,,,Space,keypress(Space),,,,,,,,---- -- ----- -- ------ - ------- --- fulfilling<br>------------- ------ ------ ---- ---- ------- ----- -- ----<br>-------- ------- -- ---------- --- - --- ----- ----- ----<br>---- --- --- ----- --- ---- ---- ------- ----- ---- -------<br>--- --- -- ----- -- --- ---- -- --- ---- -- ------ ------<br>--- ----- -- ----,130801.00000000001,130090,130201,130188.00000000001,130217,130835,,8,fulfilling
screen,html.Screen,2_1_0_1_9,2022-04-25T17:09:45.339Z,,,,,,,,,,,,,,,,,53,,,,,,,,,,,,,,-159.99999999998545,,response,,,,99,,,,,,,Space,keypress(Space),,,,,,,,"---- -- ----- -- ------ - ------- --- ----------<br>relationship, ------ ------ ---- ---- ------- ----- -- ----<br>-------- ------- -- ---------- --- - --- ----- ----- ----<br>---- --- --- ----- --- ---- ---- ------- ----- ---- -------<br>--- --- -- ----- -- --- ---- -- --- ---- -- ------ ------<br>--- ----- -- ----",131371,130658.00000000001,130818,130801.00000000001,130835,131401,,9,"relationship,"
screen,html.Screen,2_1_0_1_10,2022-04-25T17:09:45.840Z,,,,,,,,,,,,,,,,,53,,,,,,,,,,,,,,-224,,response,,,,99,,,,,,,Space,keypress(Space),,,,,,,,---- -- ----- -- ------ - ------- --- ----------<br>------------- common ------ ---- ---- ------- ----- -- ----<br>-------- ------- -- ---------- --- - --- ----- ----- ----<br>---- --- --- ----- --- ---- ---- ------- ----- ---- -------<br>--- --- -- ----- -- --- ---- -- --- ---- -- ------ ------<br>--- ----- -- ----,131872,131161,131385,131371,131401,131901,,10,common
screen,html.Screen,2_1_0_1_11,2022-04-25T17:09:46.461Z,,,,,,,,,,,,,,,,,53,,,,,,,,,,,,,,-106,,response,,,,99,,,,,,,Space,keypress(Space),,,,,,,,---- -- ----- -- ------ - ------- --- ----------<br>------------- ------ wisdom ---- ---- ------- ----- -- ----<br>-------- ------- -- ---------- --- - --- ----- ----- ----<br>---- --- --- ----- --- ---- ---- ------- ----- ---- -------<br>--- --- -- ----- -- --- ---- -- --- ---- -- ------ ------<br>--- ----- -- ----,132493,131780,131886,131872,131901,132518,,11,wisdom
screen,html.Screen,2_1_0_1_12,2022-04-25T17:09:47.056Z,,,,,,,,,,,,,,,,,53,,,,,,,,,,,,,,-125,,response,,,,99,,,,,,,Space,keypress(Space),,,,,,,,---- -- ----- -- ------ - ------- --- ----------<br>------------- ------ ------ says ---- ------- ----- -- ----<br>-------- ------- -- ---------- --- - --- ----- ----- ----<br>---- --- --- ----- --- ---- ---- ------- ----- ---- -------<br>--- --- -- ----- -- --- ---- -- --- ---- -- ------ ------<br>--- ----- -- ----,133088,132376,132501,132493,132518,133119,,12,says
screen,html.Screen,2_1_0_1_13,2022-04-25T17:09:47.519Z,,,,,,,,,,,,,,,,,53,,,,,,,,,,,,,,-263,,response,,,,99,,,,,,,Space,keypress(Space),,,,,,,,---- -- ----- -- ------ - ------- --- ----------<br>------------- ------ ------ ---- that ------- ----- -- ----<br>-------- ------- -- ---------- --- - --- ----- ----- ----<br>---- --- --- ----- --- ---- ---- ------- ----- ---- -------<br>--- --- -- ----- -- --- ---- -- --- ---- -- ------ ------<br>--- ----- -- ----,133551.00000000003,132839,133102,133088,133119,133586,,13,that
screen,html.Screen,2_1_0_1_14,2022-04-25T17:09:47.932Z,,,,,,,,,,,,,,,,,53,,,,,,,,,,,,,,-317,,response,,,,99,,,,,,,Space,keypress(Space),,,,,,,,---- -- ----- -- ------ - ------- --- ----------<br>------------- ------ ------ ---- ---- feeling ----- -- ----<br>-------- ------- -- ---------- --- - --- ----- ----- ----<br>---- --- --- ----- --- ---- ---- ------- ----- ---- -------<br>--- --- -- ----- -- --- ---- -- --- ---- -- ------ ------<br>--- ----- -- ----,133964,133252,133569,133551.00000000003,133586,133986,,14,feeling
screen,html.Screen,2_1_0_1_15,2022-04-25T17:09:48.456Z,,,,,,,,,,,,,,,,,53,,,,,,,,,,,,,,-191.9999999999709,,response,,,,99,,,,,,,Space,keypress(Space),,,,,,,,---- -- ----- -- ------ - ------- --- ----------<br>------------- ------ ------ ---- ---- ------- close -- ----<br>-------- ------- -- ---------- --- - --- ----- ----- ----<br>---- --- --- ----- --- ---- ---- ------- ----- ---- -------<br>--- --- -- ----- -- --- ---- -- --- ---- -- ------ ------<br>--- ----- -- ----,134488,133777.00000000003,133969,133964,133986,134520,,15,close
screen,html.Screen,2_1_0_1_16,2022-04-25T17:09:48.876Z,,,,,,,,,,,,,,,,,53,,,,,,,,,,,,,,-306,,response,,,,99,,,,,,,Space,keypress(Space),,,,,,,,---- -- ----- -- ------ - ------- --- ----------<br>------------- ------ ------ ---- ---- ------- ----- to ----<br>-------- ------- -- ---------- --- - --- ----- ----- ----<br>---- --- --- ----- --- ---- ---- ------- ----- ---- -------<br>--- --- -- ----- -- --- ---- -- --- ---- -- ------ ------<br>--- ----- -- ----,134908.00000000003,134197,134503,134489,134520,134937,,16,to
screen,html.Screen,2_1_0_1_17,2022-04-25T17:09:49.334Z,,,,,,,,,,,,,,,,,53,,,,,,,,,,,,,,-265,,response,,,,99,,,,,,,Space,keypress(Space),,,,,,,,---- -- ----- -- ------ - ------- --- ----------<br>------------- ------ ------ ---- ---- ------- ----- -- your<br>-------- ------- -- ---------- --- - --- ----- ----- ----<br>---- --- --- ----- --- ---- ---- ------- ----- ---- -------<br>--- --- -- ----- -- --- ---- -- --- ---- -- ------ ------<br>--- ----- -- ----,135366,134654,134919,134909,134937,135386,,17,your
screen,html.Screen,2_1_0_1_18,2022-04-25T17:09:49.865Z,,,,,,,,,,,,,,,,,53,,,,,,,,,,,,,,-185,,response,,,,99,,,,,,,Space,keypress(Space),,,,,,,,---- -- ----- -- ------ - ------- --- ----------<br>------------- ------ ------ ---- ---- ------- ----- -- ----<br>romantic ------- -- ---------- --- - --- ----- ----- ----<br>---- --- --- ----- --- ---- ---- ------- ----- ---- -------<br>--- --- -- ----- -- --- ---- -- --- ---- -- ------ ------<br>--- ----- -- ----,135897,135185,135370,135366,135386,135921,,18,romantic
screen,html.Screen,2_1_0_1_19,2022-04-25T17:09:50.373Z,,,,,,,,,,,,,,,,,53,,,,,,,,,,,,,,-208.9999999999709,,response,,,,99,,,,,,,Space,keypress(Space),,,,,,,,---- -- ----- -- ------ - ------- --- ----------<br>------------- ------ ------ ---- ---- ------- ----- -- ----<br>-------- partner -- ---------- --- - --- ----- ----- ----<br>---- --- --- ----- --- ---- ---- ------- ----- ---- -------<br>--- --- -- ----- -- --- ---- -- --- ---- -- ------ ------<br>--- ----- -- ----,136405,135694.00000000003,135903,135897,135921,136437,,19,partner
screen,html.Screen,2_1_0_1_20,2022-04-25T17:09:50.809Z,,,,,,,,,,,,,,,,,53,,,,,,,,,,,,,,-291,,response,,,,99,,,,,,,Space,keypress(Space),,,,,,,,---- -- ----- -- ------ - ------- --- ----------<br>------------- ------ ------ ---- ---- ------- ----- -- ----<br>-------- ------- is ---------- --- - --- ----- ----- ----<br>---- --- --- ----- --- ---- ---- ------- ----- ---- -------<br>--- --- -- ----- -- --- ---- -- --- ---- -- ------ ------<br>--- ----- -- ----,136841,136129,136420,136406,136437,136871,,20,is
screen,html.Screen,2_1_0_1_21,2022-04-25T17:09:51.365Z,,,,,,,,,,,,,,,,,53,,,,,,,,,,,,,,-169,,response,,,,99,,,,,,,Space,keypress(Space),,,,,,,,---- -- ----- -- ------ - ------- --- ----------<br>------------- ------ ------ ---- ---- ------- ----- -- ----<br>-------- ------- -- paramount. --- - --- ----- ----- ----<br>---- --- --- ----- --- ---- ---- ------- ----- ---- -------<br>--- --- -- ----- -- --- ---- -- --- ---- -- ------ ------<br>--- ----- -- ----,137397,136686,136855,136841,136871,137421,,21,paramount.
screen,html.Screen,2_1_0_1_22,2022-04-25T17:09:52.008Z,,,,,,,,,,,,,,,,,53,,,,,,,,,,,,,,-76,,response,,,,99,,,,,,,Space,keypress(Space),,,,,,,,---- -- ----- -- ------ - ------- --- ----------<br>------------- ------ ------ ---- ---- ------- ----- -- ----<br>-------- ------- -- ---------- But - --- ----- ----- ----<br>---- --- --- ----- --- ---- ---- ------- ----- ---- -------<br>--- --- -- ----- -- --- ---- -- --- ---- -- ------ ------<br>--- ----- -- ----,138040,137328,137404,137397,137421,138071,,22,But
screen,html.Screen,2_1_0_1_23,2022-04-25T17:09:52.438Z,,,,,,,,,,,,,,,,,53,,,,,,,,,,,,,,-296,,response,,,,99,,,,,,,Space,keypress(Space),,,,,,,,---- -- ----- -- ------ - ------- --- ----------<br>------------- ------ ------ ---- ---- ------- ----- -- ----<br>-------- ------- -- ---------- --- a --- ----- ----- ----<br>---- --- --- ----- --- ---- ---- ------- ----- ---- -------<br>--- --- -- ----- -- --- ---- -- --- ---- -- ------ ------<br>--- ----- -- ----,138469,137758,138054,138040,138071,138505,,23,a
screen,html.Screen,2_1_0_1_24,2022-04-25T17:09:52.891Z,,,,,,,,,,,,,,,,,53,,,,,,,,,,,,,,-277,,response,,,,99,,,,,,,Space,keypress(Space),,,,,,,,---- -- ----- -- ------ - ------- --- ----------<br>------------- ------ ------ ---- ---- ------- ----- -- ----<br>-------- ------- -- ---------- --- - new ----- ----- ----<br>---- --- --- ----- --- ---- ---- ------- ----- ---- -------<br>--- --- -- ----- -- --- ---- -- --- ---- -- ------ ------<br>--- ----- -- ----,138923,138212,138489,138470,138505,138955,,24,new
screen,html.Screen,2_1_0_1_25,2022-04-25T17:09:53.259Z,,,,,,,,,,,,,,,,,53,,,,,,,,,,,,,,-359,,response,,,,99,,,,,,,Space,keypress(Space),,,,,,,,---- -- ----- -- ------ - ------- --- ----------<br>------------- ------ ------ ---- ---- ------- ----- -- ----<br>-------- ------- -- ---------- --- - --- study ----- ----<br>---- --- --- ----- --- ---- ---- ------- ----- ---- -------<br>--- --- -- ----- -- --- ---- -- --- ---- -- ------ ------<br>--- ----- -- ----,139291,138580,138939,138923,138955,139322,,25,study
screen,html.Screen,2_1_0_1_26,2022-04-25T17:09:53.623Z,,,,,,,,,,,,,,,,,53,,,,,,,,,,,,,,-362,,response,,,,99,,,,,,,Space,keypress(Space),,,,,,,,---- -- ----- -- ------ - ------- --- ----------<br>------------- ------ ------ ---- ---- ------- ----- -- ----<br>-------- ------- -- ---------- --- - --- ----- finds ----<br>---- --- --- ----- --- ---- ---- ------- ----- ---- -------<br>--- --- -- ----- -- --- ---- -- --- ---- -- ------ ------<br>--- ----- -- ----,139654,138943,139305,139291,139322,139688,,26,finds
screen,html.Screen,2_1_0_1_27,2022-04-25T17:09:54.048Z,,,,,,,,,,,,,,,,,53,,,,,,,,,,,,,,-303,,response,,,,99,,,,,,,Space,keypress(Space),,,,,,,,---- -- ----- -- ------ - ------- --- ----------<br>------------- ------ ------ ---- ---- ------- ----- -- ----<br>-------- ------- -- ---------- --- - --- ----- ----- that<br>---- --- --- ----- --- ---- ---- ------- ----- ---- -------<br>--- --- -- ----- -- --- ---- -- --- ---- -- ------ ------<br>--- ----- -- ----,140080,139369,139672,139654,139688,140105,,27,that
screen,html.Screen,2_1_0_1_28,2022-04-25T17:09:54.468Z,,,,,,,,,,,,,,,,,53,,,,,,,,,,,,,,-301,,response,,,,99,,,,,,,Space,keypress(Space),,,,,,,,---- -- ----- -- ------ - ------- --- ----------<br>------------- ------ ------ ---- ---- ------- ----- -- ----<br>-------- ------- -- ---------- --- - --- ----- ----- ----<br>it's --- --- ----- --- ---- ---- ------- ----- ---- -------<br>--- --- -- ----- -- --- ---- -- --- ---- -- ------ ------<br>--- ----- -- ----,140499,139788,140089,140080,140105,140523,,28,it's
screen,html.Screen,2_1_0_1_29,2022-04-25T17:09:54.915Z,,,,,,,,,,,,,,,,,53,,,,,,,,,,,,,,-269,,response,,,,99,,,,,,,Space,keypress(Space),,,,,,,,---- -- ----- -- ------ - ------- --- ----------<br>------------- ------ ------ ---- ---- ------- ----- -- ----<br>-------- ------- -- ---------- --- - --- ----- ----- ----<br>---- not --- ----- --- ---- ---- ------- ----- ---- -------<br>--- --- -- ----- -- --- ---- -- --- ---- -- ------ ------<br>--- ----- -- ----,140947,140236,140505,140500,140523,140973,,29,not
screen,html.Screen,2_1_0_1_30,2022-04-25T17:09:55.337Z,,,,,,,,,,,,,,,,,53,,,,,,,,,,,,,,-299,,response,,,,99,,,,,,,Space,keypress(Space),,,,,,,,---- -- ----- -- ------ - ------- --- ----------<br>------------- ------ ------ ---- ---- ------- ----- -- ----<br>-------- ------- -- ---------- --- - --- ----- ----- ----<br>---- --- how ----- --- ---- ---- ------- ----- ---- -------<br>--- --- -- ----- -- --- ---- -- --- ---- -- ------ ------<br>--- ----- -- ----,141368,140657,140956,140947,140973,141390,,30,how
screen,html.Screen,2_1_0_1_31,2022-04-25T17:09:55.721Z,,,,,,,,,,,,,,,,,53,,,,,,,,,,,,,,-331,,response,,,,99,,,,,,,Space,keypress(Space),,,,,,,,---- -- ----- -- ------ - ------- --- ----------<br>------------- ------ ------ ---- ---- ------- ----- -- ----<br>-------- ------- -- ---------- --- - --- ----- ----- ----<br>---- --- --- close --- ---- ---- ------- ----- ---- -------<br>--- --- -- ----- -- --- ---- -- --- ---- -- ------ ------<br>--- ----- -- ----,141753,141042,141373,141368,141390,141773,,31,close
screen,html.Screen,2_1_0_1_32,2022-04-25T17:09:56.089Z,,,,,,,,,,,,,,,,,53,,,,,,,,,,,,,,-346,,response,,,,99,,,,,,,Space,keypress(Space),,,,,,,,---- -- ----- -- ------ - ------- --- ----------<br>------------- ------ ------ ---- ---- ------- ----- -- ----<br>-------- ------- -- ---------- --- - --- ----- ----- ----<br>---- --- --- ----- you ---- ---- ------- ----- ---- -------<br>--- --- -- ----- -- --- ---- -- --- ---- -- ------ ------<br>--- ----- -- ----,142121,141410,141756,141753,141773,142140,,32,you
screen,html.Screen,2_1_0_1_33,2022-04-25T17:09:56.458Z,,,,,,,,,,,,,,,,,53,,,,,,,,,,,,,,-345,,response,,,,99,,,,,,,Space,keypress(Space),,,,,,,,---- -- ----- -- ------ - ------- --- ----------<br>------------- ------ ------ ---- ---- ------- ----- -- ----<br>-------- ------- -- ---------- --- - --- ----- ----- ----<br>---- --- --- ----- --- feel ---- ------- ----- ---- -------<br>--- --- -- ----- -- --- ---- -- --- ---- -- ------ ------<br>--- ----- -- ----,142489,141778,142123,142121,142140,142523,,33,feel
screen,html.Screen,2_1_0_1_34,2022-04-25T17:09:56.931Z,,,,,,,,,,,,,,,,,53,,,,,,,,,,,,,,-254,,response,,,,99,,,,,,,Space,keypress(Space),,,,,,,,---- -- ----- -- ------ - ------- --- ----------<br>------------- ------ ------ ---- ---- ------- ----- -- ----<br>-------- ------- -- ---------- --- - --- ----- ----- ----<br>---- --- --- ----- --- ---- that ------- ----- ---- -------<br>--- --- -- ----- -- --- ---- -- --- ---- -- ------ ------<br>--- ----- -- ----,142963,142252,142506,142489,142523,142991,,34,that
screen,html.Screen,2_1_0_1_35,2022-04-25T17:09:57.306Z,,,,,,,,,,,,,,,,,53,,,,,,,,,,,,,,-347,,response,,,,99,,,,,,,Space,keypress(Space),,,,,,,,---- -- ----- -- ------ - ------- --- ----------<br>------------- ------ ------ ---- ---- ------- ----- -- ----<br>-------- ------- -- ---------- --- - --- ----- ----- ----<br>---- --- --- ----- --- ---- ---- matters ----- ---- -------<br>--- --- -- ----- -- --- ---- -- --- ---- -- ------ ------<br>--- ----- -- ----,143338,142627,142974,142963,142991,143357,,35,matters
screen,html.Screen,2_1_0_1_36,2022-04-25T17:09:57.912Z,,,,,,,,,,,,,,,,,53,,,,,,,,,,,,,,-108,,response,,,,99,,,,,,,Space,keypress(Space),,,,,,,,"---- -- ----- -- ------ - ------- --- ----------<br>------------- ------ ------ ---- ---- ------- ----- -- ----<br>-------- ------- -- ---------- --- - --- ----- ----- ----<br>---- --- --- ----- --- ---- ---- ------- most, ---- -------<br>--- --- -- ----- -- --- ---- -- --- ---- -- ------ ------<br>--- ----- -- ----",143944.00000000003,143233,143341,143338,143357,143973,,36,"most,"
screen,html.Screen,2_1_0_1_37,2022-04-25T17:09:58.443Z,,,,,,,,,,,,,,,,,53,,,,,,,,,,,,,,-195,,response,,,,99,,,,,,,Space,keypress(Space),,,,,,,,---- -- ----- -- ------ - ------- --- ----------<br>------------- ------ ------ ---- ---- ------- ----- -- ----<br>-------- ------- -- ---------- --- - --- ----- ----- ----<br>---- --- --- ----- --- ---- ---- ------- ----- it's -------<br>--- --- -- ----- -- --- ---- -- --- ---- -- ------ ------<br>--- ----- -- ----,144474,143763,143958,143944.00000000003,143973,144508,,37,it's
screen,html.Screen,2_1_0_1_38,2022-04-25T17:09:58.979Z,,,,,,,,,,,,,,,,,53,,,,,,,,,,,,,,-193,,response,,,,99,,,,,,,Space,keypress(Space),,,,,,,,---- -- ----- -- ------ - ------- --- ----------<br>------------- ------ ------ ---- ---- ------- ----- -- ----<br>-------- ------- -- ---------- --- - --- ----- ----- ----<br>---- --- --- ----- --- ---- ---- ------- ----- ---- whether<br>--- --- -- ----- -- --- ---- -- --- ---- -- ------ ------<br>--- ----- -- ----,145011,144299,144492,144474,144508,145041,,38,whether
screen,html.Screen,2_1_0_1_39,2022-04-25T17:09:59.442Z,,,,,,,,,,,,,,,,,53,,,,,,,,,,,,,,-263,,response,,,,99,,,,,,,Space,keypress(Space),,,,,,,,---- -- ----- -- ------ - ------- --- ----------<br>------------- ------ ------ ---- ---- ------- ----- -- ----<br>-------- ------- -- ---------- --- - --- ----- ----- ----<br>---- --- --- ----- --- ---- ---- ------- ----- ---- -------<br>you --- -- ----- -- --- ---- -- --- ---- -- ------ ------<br>--- ----- -- ----,145473,144762,145025,145011,145041,145509,,39,you
screen,html.Screen,2_1_0_1_40,2022-04-25T17:09:59.838Z,,,,,,,,,,,,,,,,,53,,,,,,,,,,,,,,-333,,response,,,,99,,,,,,,Space,keypress(Space),,,,,,,,---- -- ----- -- ------ - ------- --- ----------<br>------------- ------ ------ ---- ---- ------- ----- -- ----<br>-------- ------- -- ---------- --- - --- ----- ----- ----<br>---- --- --- ----- --- ---- ---- ------- ----- ---- -------<br>--- are -- ----- -- --- ---- -- --- ---- -- ------ ------<br>--- ----- -- ----,145870,145159,145492,145473,145509,145892,,40,are
screen,html.Screen,2_1_0_1_41,2022-04-25T17:10:00.188Z,,,,,,,,,,,,,,,,,53,,,,,,,,,,,,,,-367,,response,,,,99,,,,,,,Space,keypress(Space),,,,,,,,---- -- ----- -- ------ - ------- --- ----------<br>------------- ------ ------ ---- ---- ------- ----- -- ----<br>-------- ------- -- ---------- --- - --- ----- ----- ----<br>---- --- --- ----- --- ---- ---- ------- ----- ---- -------<br>--- --- as ----- -- --- ---- -- --- ---- -- ------ ------<br>--- ----- -- ----,146220,145508,145875,145870,145892,146242,,41,as
screen,html.Screen,2_1_0_1_42,2022-04-25T17:10:00.597Z,,,,,,,,,,,,,,,,,53,,,,,,,,,,,,,,-308,,response,,,,99,,,,,,,Space,keypress(Space),,,,,,,,---- -- ----- -- ------ - ------- --- ----------<br>------------- ------ ------ ---- ---- ------- ----- -- ----<br>-------- ------- -- ---------- --- - --- ----- ----- ----<br>---- --- --- ----- --- ---- ---- ------- ----- ---- -------<br>--- --- -- close -- --- ---- -- --- ---- -- ------ ------<br>--- ----- -- ----,146628,145916,146224,146220,146242,146659,,42,close
screen,html.Screen,2_1_0_1_43,2022-04-25T17:10:00.966Z,,,,,,,,,,,,,,,,,53,,,,,,,,,,,,,,-356,,response,,,,99,,,,,,,Space,keypress(Space),,,,,,,,---- -- ----- -- ------ - ------- --- ----------<br>------------- ------ ------ ---- ---- ------- ----- -- ----<br>-------- ------- -- ---------- --- - --- ----- ----- ----<br>---- --- --- ----- --- ---- ---- ------- ----- ---- -------<br>--- --- -- ----- as --- ---- -- --- ---- -- ------ ------<br>--- ----- -- ----,146998,146286,146642,146629,146659,147026,,43,as
screen,html.Screen,2_1_0_1_44,2022-04-25T17:10:01.356Z,,,,,,,,,,,,,,,,,53,,,,,,,,,,,,,,-332.9999999999709,,response,,,,99,,,,,,,Space,keypress(Space),,,,,,,,---- -- ----- -- ------ - ------- --- ----------<br>------------- ------ ------ ---- ---- ------- ----- -- ----<br>-------- ------- -- ---------- --- - --- ----- ----- ----<br>---- --- --- ----- --- ---- ---- ------- ----- ---- -------<br>--- --- -- ----- -- you ---- -- --- ---- -- ------ ------<br>--- ----- -- ----,147388,146676.00000000003,147009,146998,147026,147409,,44,you
screen,html.Screen,2_1_0_1_45,2022-04-25T17:10:01.715Z,,,,,,,,,,,,,,,,,53,,,,,,,,,,,,,,-358,,response,,,,99,,,,,,,Space,keypress(Space),,,,,,,,---- -- ----- -- ------ - ------- --- ----------<br>------------- ------ ------ ---- ---- ------- ----- -- ----<br>-------- ------- -- ---------- --- - --- ----- ----- ----<br>---- --- --- ----- --- ---- ---- ------- ----- ---- -------<br>--- --- -- ----- -- --- want -- --- ---- -- ------ ------<br>--- ----- -- ----,147747,147035,147393,147388,147409,147776,,45,want
screen,html.Screen,2_1_0_1_46,2022-04-25T17:10:02.088Z,,,,,,,,,,,,,,,,,53,,,,,,,,,,,,,,-351.9999999999709,,response,,,,99,,,,,,,Space,keypress(Space),,,,,,,,---- -- ----- -- ------ - ------- --- ----------<br>------------- ------ ------ ---- ---- ------- ----- -- ----<br>-------- ------- -- ---------- --- - --- ----- ----- ----<br>---- --- --- ----- --- ---- ---- ------- ----- ---- -------<br>--- --- -- ----- -- --- ---- to --- ---- -- ------ ------<br>--- ----- -- ----,148120,147408.00000000003,147760,147747,147776,148142,,46,to
screen,html.Screen,2_1_0_1_47,2022-04-25T17:10:02.540Z,,,,,,,,,,,,,,,,,53,,,,,,,,,,,,,,-265,,response,,,,99,,,,,,,Space,keypress(Space),,,,,,,,"---- -- ----- -- ------ - ------- --- ----------<br>------------- ------ ------ ---- ---- ------- ----- -- ----<br>-------- ------- -- ---------- --- - --- ----- ----- ----<br>---- --- --- ----- --- ---- ---- ------- ----- ---- -------<br>--- --- -- ----- -- --- ---- -- be, ---- -- ------ ------<br>--- ----- -- ----",148572,147860,148125,148120,148142,148593,,47,"be,"
screen,html.Screen,2_1_0_1_48,2022-04-25T17:10:03.027Z,,,,,,,,,,,,,,,,,53,,,,,,,,,,,,,,-229,,response,,,,99,,,,,,,Space,keypress(Space),,,,,,,,---- -- ----- -- ------ - ------- --- ----------<br>------------- ------ ------ ---- ---- ------- ----- -- ----<br>-------- ------- -- ---------- --- - --- ----- ----- ----<br>---- --- --- ----- --- ---- ---- ------- ----- ---- -------<br>--- --- -- ----- -- --- ---- -- --- even -- ------ ------<br>--- ----- -- ----,149059,148347,148576,148572,148593,149094,,48,even
screen,html.Screen,2_1_0_1_49,2022-04-25T17:10:03.412Z,,,,,,,,,,,,,,,,,53,,,,,,,,,,,,,,-345,,response,,,,99,,,,,,,Space,keypress(Space),,,,,,,,---- -- ----- -- ------ - ------- --- ----------<br>------------- ------ ------ ---- ---- ------- ----- -- ----<br>-------- ------- -- ---------- --- - --- ----- ----- ----<br>---- --- --- ----- --- ---- ---- ------- ----- ---- -------<br>--- --- -- ----- -- --- ---- -- --- ---- if ------ ------<br>--- ----- -- ----,149444.00000000003,148732,149077,149059,149094,149477,,49,if
screen,html.Screen,2_1_0_1_50,2022-04-25T17:10:03.883Z,,,,,,,,,,,,,,,,,53,,,,,,,,,,,,,,-257,,response,,,,99,,,,,,,Space,keypress(Space),,,,,,,,---- -- ----- -- ------ - ------- --- ----------<br>------------- ------ ------ ---- ---- ------- ----- -- ----<br>-------- ------- -- ---------- --- - --- ----- ----- ----<br>---- --- --- ----- --- ---- ---- ------- ----- ---- -------<br>--- --- -- ----- -- --- ---- -- --- ---- -- that's ------<br>--- ----- -- ----,149914.00000000003,149202,149459,149444.00000000003,149477,149943,,50,that's
screen,html.Screen,2_1_0_1_51,2022-04-25T17:10:04.460Z,,,,,,,,,,,,,,,,,53,,,,,,,,,,,,,,-147,,response,,,,99,,,,,,,Space,keypress(Space),,,,,,,,---- -- ----- -- ------ - ------- --- ----------<br>------------- ------ ------ ---- ---- ------- ----- -- ----<br>-------- ------- -- ---------- --- - --- ----- ----- ----<br>---- --- --- ----- --- ---- ---- ------- ----- ---- -------<br>--- --- -- ----- -- --- ---- -- --- ---- -- ------ really<br>--- ----- -- ----,150492,149780,149927,149914.00000000003,149943,150528,,51,really
screen,html.Screen,2_1_0_1_52,2022-04-25T17:10:04.902Z,,,,,,,,,,,,,,,,,53,,,,,,,,,,,,,,-289,,response,,,,99,,,,,,,Space,keypress(Space),,,,,,,,---- -- ----- -- ------ - ------- --- ----------<br>------------- ------ ------ ---- ---- ------- ----- -- ----<br>-------- ------- -- ---------- --- - --- ----- ----- ----<br>---- --- --- ----- --- ---- ---- ------- ----- ---- -------<br>--- --- -- ----- -- --- ---- -- --- ---- -- ------ ------<br>not ----- -- ----,150934,150222,150511,150492,150528,150961,,52,not
screen,html.Screen,2_1_0_1_53,2022-04-25T17:10:05.334Z,,,,,,,,,,,,,,,,,53,,,,,,,,,,,,,,-291,,response,,,,99,,,,,,,Space,keypress(Space),,,,,,,,---- -- ----- -- ------ - ------- --- ----------<br>------------- ------ ------ ---- ---- ------- ----- -- ----<br>-------- ------- -- ---------- --- - --- ----- ----- ----<br>---- --- --- ----- --- ---- ---- ------- ----- ---- -------<br>--- --- -- ----- -- --- ---- -- --- ---- -- ------ ------<br>--- close -- ----,151365,150653,150944,150934,150961,151394,,53,close
screen,html.Screen,2_1_0_1_54,2022-04-25T17:10:05.749Z,,,,,,,,,,,,,,,,,53,,,,,,,,,,,,,,-308.9999999999709,,response,,,,99,,,,,,,Space,keypress(Space),,,,,,,,---- -- ----- -- ------ - ------- --- ----------<br>------------- ------ ------ ---- ---- ------- ----- -- ----<br>-------- ------- -- ---------- --- - --- ----- ----- ----<br>---- --- --- ----- --- ---- ---- ------- ----- ---- -------<br>--- --- -- ----- -- --- ---- -- --- ---- -- ------ ------<br>--- ----- at ----,151781,151069.00000000003,151378,151366,151394,151811,,54,at
screen,html.Screen,2_1_0_1_55,2022-04-25T17:10:06.893Z,,,,,,,,,,,,,,,,,53,,,,,,,,,,,,,,418,,response,,,,99,,,,,,,Space,keypress(Space),,,,,,,,---- -- ----- -- ------ - ------- --- ----------<br>------------- ------ ------ ---- ---- ------- ----- -- ----<br>-------- ------- -- ---------- --- - --- ----- ----- ----<br>---- --- --- ----- --- ---- ---- ------- ----- ---- -------<br>--- --- -- ----- -- --- ---- -- --- ---- -- ------ ------<br>--- ----- -- all.,152924,152212,151794,151781,151811,152945,,55,all.
Item 99,flow.Loop,2_1_0_1,2022-04-25T17:10:06.893Z,,,,,,,,,,,,,,,,,,,,,,,,,,,,,,,27046,,completion,,,,,B,,,,,,,,,,,silence,,,,,152924,152212,125149,125150,125166,152945,,,
Question 1,html.Screen,2_1_0_2,2022-04-25T17:10:12.897Z,,,,,,,,,,,,,,,,,,,,,,,,,,,,true,FALSE,,5275,,response,,,,99,B,,,,,,FALSE,click #choice-2,,,,silence,,,,,158929,158204,152929,152924,152945,158964,,,
Question 2,html.Screen,2_1_0_3,2022-04-25T17:10:16.640Z,,,,,,,,,,,,,,,,,,,,,,,,,,,,true,TRUE,,2992,,response,,,,99,B,,,,,,TRUE,click #choice-1,,,,silence,,,,,162671,161940,158948,158929,158964,162699,,,
Item 99,flow.Sequence,2_1_0,2022-04-25T17:10:16.640Z,,,,,,,,,,,,,,,,,,,,,,,,,,,,,,,46779,,completion,,,,,,,,,,,,,,,,,,,,,162671,161940,115144,115123,115161,162699,,,
Holding screen,html.Screen,2_1_1_0,2022-04-25T17:10:26.658Z,,,,,,,,,,,,,,,,,,,,,,,,,,,,,,,10005,,timeout,,,,,,,,,,,,,,,,,,,,,172689,172688,162682,162672,162699,172704,,,
screen,html.Screen,2_1_1_1_0,2022-04-25T17:10:27.640Z,,,,,,,,,,,,,,,,,54,,,,,,,,,,,,,,268.0000000000291,,response,,,,100,,,,,,,Space,keypress(Space),,,,,,,,At --- ---- --- ------ ----- ------- ---- -- --- ------- --<br>------- ---------- ------ -- ----- -- ----- -- ---- ------<br>--- ----- --- --- ------ -------- ----- --- ------ ----- --<br>----- ----- ---------- --- --- ------ ------ ---- -- ------<br>------- --- ------ ----- --- ---- ------- -- ---- --- --<br>------- ------,173671,172956.00000000003,172688,172689,172704,173705,,0,At
screen,html.Screen,2_1_1_1_1,2022-04-25T17:10:27.994Z,,,,,,,,,,,,,,,,,54,,,,,,,,,,,,,,-376,,response,,,,100,,,,,,,Space,keypress(Space),,,,,,,,-- the ---- --- ------ ----- ------- ---- -- --- ------- --<br>------- ---------- ------ -- ----- -- ----- -- ---- ------<br>--- ----- --- --- ------ -------- ----- --- ------ ----- --<br>----- ----- ---------- --- --- ------ ------ ---- -- ------<br>------- --- ------ ----- --- ---- ------- -- ---- --- --<br>------- ------,174025,173312,173688,173671,173705,174055,,1,the
screen,html.Screen,2_1_1_1_2,2022-04-25T17:10:28.340Z,,,,,,,,,,,,,,,,,54,,,,,,,,,,,,,,-380,,response,,,,100,,,,,,,Space,keypress(Space),,,,,,,,-- --- time --- ------ ----- ------- ---- -- --- ------- --<br>------- ---------- ------ -- ----- -- ----- -- ---- ------<br>--- ----- --- --- ------ -------- ----- --- ------ ----- --<br>----- ----- ---------- --- --- ------ ------ ---- -- ------<br>------- --- ------ ----- --- ---- ------- -- ---- --- --<br>------- ------,174371,173659,174039,174025,174055,174405,,2,time
screen,html.Screen,2_1_1_1_3,2022-04-25T17:10:28.675Z,,,,,,,,,,,,,,,,,54,,,,,,,,,,,,,,-396,,response,,,,100,,,,,,,Space,keypress(Space),,,,,,,,-- --- ---- the ------ ----- ------- ---- -- --- ------- --<br>------- ---------- ------ -- ----- -- ----- -- ---- ------<br>--- ----- --- --- ------ -------- ----- --- ------ ----- --<br>----- ----- ---------- --- --- ------ ------ ---- -- ------<br>------- --- ------ ----- --- ---- ------- -- ---- --- --<br>------- ------,174705,173993,174389,174371,174405,174738,,3,the
screen,html.Screen,2_1_1_1_4,2022-04-25T17:10:29.074Z,,,,,,,,,,,,,,,,,54,,,,,,,,,,,,,,-330,,response,,,,100,,,,,,,Space,keypress(Space),,,,,,,,-- --- ---- --- French ----- ------- ---- -- --- ------- --<br>------- ---------- ------ -- ----- -- ----- -- ---- ------<br>--- ----- --- --- ------ -------- ----- --- ------ ----- --<br>----- ----- ---------- --- --- ------ ------ ---- -- ------<br>------- --- ------ ----- --- ---- ------- -- ---- --- --<br>------- ------,175105,174392,174722,174705,174738,175122,,4,French
screen,html.Screen,2_1_1_1_5,2022-04-25T17:10:29.488Z,,,,,,,,,,,,,,,,,54,,,,,,,,,,,,,,-300,,response,,,,100,,,,,,,Space,keypress(Space),,,,,,,,-- --- ---- --- ------ crown ------- ---- -- --- ------- --<br>------- ---------- ------ -- ----- -- ----- -- ---- ------<br>--- ----- --- --- ------ -------- ----- --- ------ ----- --<br>----- ----- ---------- --- --- ------ ------ ---- -- ------<br>------- --- ------ ----- --- ---- ------- -- ---- --- --<br>------- ------,175518,174806,175106,175105,175122,175556,,5,crown
screen,html.Screen,2_1_1_1_6,2022-04-25T17:10:30.049Z,,,,,,,,,,,,,,,,,54,,,,,,,,,,,,,,-173,,response,,,,100,,,,,,,Space,keypress(Space),,,,,,,,-- --- ---- --- ------ ----- secured ---- -- --- ------- --<br>------- ---------- ------ -- ----- -- ----- -- ---- ------<br>--- ----- --- --- ------ -------- ----- --- ------ ----- --<br>----- ----- ---------- --- --- ------ ------ ---- -- ------<br>------- --- ------ ----- --- ---- ------- -- ---- --- --<br>------- ------,176080,175367,175540,175518,175556,176107,,6,secured
screen,html.Screen,2_1_1_1_7,2022-04-25T17:10:30.552Z,,,,,,,,,,,,,,,,,54,,,,,,,,,,,,,,-219,,response,,,,100,,,,,,,Space,keypress(Space),,,,,,,,-- --- ---- --- ------ ----- ------- much -- --- ------- --<br>------- ---------- ------ -- ----- -- ----- -- ---- ------<br>--- ----- --- --- ------ -------- ----- --- ------ ----- --<br>----- ----- ---------- --- --- ------ ------ ---- -- ------<br>------- --- ------ ----- --- ---- ------- -- ---- --- --<br>------- ------,176583,175871,176090,176080,176107,176607,,7,much
screen,html.Screen,2_1_1_1_8,2022-04-25T17:10:31.020Z,,,,,,,,,,,,,,,,,54,,,,,,,,,,,,,,-251,,response,,,,100,,,,,,,Space,keypress(Space),,,,,,,,-- --- ---- --- ------ ----- ------- ---- of --- ------- --<br>------- ---------- ------ -- ----- -- ----- -- ---- ------<br>--- ----- --- --- ------ -------- ----- --- ------ ----- --<br>----- ----- ---------- --- --- ------ ------ ---- -- ------<br>------- --- ------ ----- --- ---- ------- -- ---- --- --<br>------- ------,177051.00000000003,176338,176589,176583,176607,177072,,8,of
screen,html.Screen,2_1_1_1_9,2022-04-25T17:10:31.437Z,,,,,,,,,,,,,,,,,54,,,,,,,,,,,,,,-301,,response,,,,100,,,,,,,Space,keypress(Space),,,,,,,,-- --- ---- --- ------ ----- ------- ---- -- its ------- --<br>------- ---------- ------ -- ----- -- ----- -- ---- ------<br>--- ----- --- --- ------ -------- ----- --- ------ ----- --<br>----- ----- ---------- --- --- ------ ------ ---- -- ------<br>------- --- ------ ----- --- ---- ------- -- ---- --- --<br>------- ------,177468.00000000003,176755,177056,177051.00000000003,177072,177490,,9,its
screen,html.Screen,2_1_1_1_10,2022-04-25T17:10:31.905Z,,,,,,,,,,,,,,,,,54,,,,,,,,,,,,,,-250,,response,,,,100,,,,,,,Space,keypress(Space),,,,,,,,-- --- ---- --- ------ ----- ------- ---- -- --- revenue --<br>------- ---------- ------ -- ----- -- ----- -- ---- ------<br>--- ----- --- --- ------ -------- ----- --- ------ ----- --<br>----- ----- ---------- --- --- ------ ------ ---- -- ------<br>------- --- ------ ----- --- ---- ------- -- ---- --- --<br>------- ------,177935,177223,177473,177468.00000000003,177490,177957,,10,revenue
screen,html.Screen,2_1_1_1_11,2022-04-25T17:10:32.350Z,,,,,,,,,,,,,,,,,54,,,,,,,,,,,,,,-272,,response,,,,100,,,,,,,Space,keypress(Space),,,,,,,,-- --- ---- --- ------ ----- ------- ---- -- --- ------- by<br>------- ---------- ------ -- ----- -- ----- -- ---- ------<br>--- ----- --- --- ------ -------- ----- --- ------ ----- --<br>----- ----- ---------- --- --- ------ ------ ---- -- ------<br>------- --- ------ ----- --- ---- ------- -- ---- --- --<br>------- ------,178381,177668,177940,177935,177957,178407,,11,by
screen,html.Screen,2_1_1_1_12,2022-04-25T17:10:32.803Z,,,,,,,,,,,,,,,,,54,,,,,,,,,,,,,,-269,,response,,,,100,,,,,,,Space,keypress(Space),,,,,,,,-- --- ---- --- ------ ----- ------- ---- -- --- ------- --<br>issuing ---------- ------ -- ----- -- ----- -- ---- ------<br>--- ----- --- --- ------ -------- ----- --- ------ ----- --<br>----- ----- ---------- --- --- ------ ------ ---- -- ------<br>------- --- ------ ----- --- ---- ------- -- ---- --- --<br>------- ------,178834,178121,178390,178381,178407,178857,,12,issuing
screen,html.Screen,2_1_1_1_13,2022-04-25T17:10:33.202Z,,,,,,,,,,,,,,,,,54,,,,,,,,,,,,,,-321,,response,,,,100,,,,,,,Space,keypress(Space),,,,,,,,-- --- ---- --- ------ ----- ------- ---- -- --- ------- --<br>------- government ------ -- ----- -- ----- -- ---- ------<br>--- ----- --- --- ------ -------- ----- --- ------ ----- --<br>----- ----- ---------- --- --- ------ ------ ---- -- ------<br>------- --- ------ ----- --- ---- ------- -- ---- --- --<br>------- ------,179232,178520,178841,178834,178857,179258,,13,government
screen,html.Screen,2_1_1_1_14,2022-04-25T17:10:33.590Z,,,,,,,,,,,,,,,,,54,,,,,,,,,,,,,,-331.9999999999709,,response,,,,100,,,,,,,Space,keypress(Space),,,,,,,,-- --- ---- --- ------ ----- ------- ---- -- --- ------- --<br>------- ---------- bonds. -- ----- -- ----- -- ---- ------<br>--- ----- --- --- ------ -------- ----- --- ------ ----- --<br>----- ----- ---------- --- --- ------ ------ ---- -- ------<br>------- --- ------ ----- --- ---- ------- -- ---- --- --<br>------- ------,179621,178908.00000000003,179240,179234,179258,179640,,14,bonds.
screen,html.Screen,2_1_1_1_15,2022-04-25T17:10:34.077Z,,,,,,,,,,,,,,,,,54,,,,,,,,,,,,,,-230,,response,,,,100,,,,,,,Space,keypress(Space),,,,,,,,-- --- ---- --- ------ ----- ------- ---- -- --- ------- --<br>------- ---------- ------ In ----- -- ----- -- ---- ------<br>--- ----- --- --- ------ -------- ----- --- ------ ----- --<br>----- ----- ---------- --- --- ------ ------ ---- -- ------<br>------- --- ------ ----- --- ---- ------- -- ---- --- --<br>------- ------,180108,179395,179625,179621,179640,180142,,15,In
screen,html.Screen,2_1_1_1_16,2022-04-25T17:10:34.990Z,,,,,,,,,,,,,,,,,54,,,,,,,,,,,,,,180,,response,,,,100,,,,,,,Space,keypress(Space),,,,,,,,"-- --- ---- --- ------ ----- ------- ---- -- --- ------- --<br>------- ---------- ------ -- 1727, -- ----- -- ---- ------<br>--- ----- --- --- ------ -------- ----- --- ------ ----- --<br>----- ----- ---------- --- --- ------ ------ ---- -- ------<br>------- --- ------ ----- --- ---- ------- -- ---- --- --<br>------- ------",181020,180305,180125,180108,180142,181042,,16,"1727,"
screen,html.Screen,2_1_1_1_17,2022-04-25T17:10:35.605Z,,,,,,,,,,,,,,,,,54,,,,,,,,,,,,,,-101,,response,,,,100,,,,,,,Space,keypress(Space),,,,,,,,-- --- ---- --- ------ ----- ------- ---- -- --- ------- --<br>------- ---------- ------ -- ----- in ----- -- ---- ------<br>--- ----- --- --- ------ -------- ----- --- ------ ----- --<br>----- ----- ---------- --- --- ------ ------ ---- -- ------<br>------- --- ------ ----- --- ---- ------- -- ---- --- --<br>------- ------,181635,180923,181024,181020,181042,181658,,17,in
screen,html.Screen,2_1_1_1_18,2022-04-25T17:10:36.060Z,,,,,,,,,,,,,,,,,54,,,,,,,,,,,,,,-263,,response,,,,100,,,,,,,Space,keypress(Space),,,,,,,,-- --- ---- --- ------ ----- ------- ---- -- --- ------- --<br>------- ---------- ------ -- ----- -- order -- ---- ------<br>--- ----- --- --- ------ -------- ----- --- ------ ----- --<br>----- ----- ---------- --- --- ------ ------ ---- -- ------<br>------- --- ------ ----- --- ---- ------- -- ---- --- --<br>------- ------,182091,181378,181641,181635,181658,182125,,18,order
screen,html.Screen,2_1_1_1_19,2022-04-25T17:10:36.426Z,,,,,,,,,,,,,,,,,54,,,,,,,,,,,,,,-364,,response,,,,100,,,,,,,Space,keypress(Space),,,,,,,,-- --- ---- --- ------ ----- ------- ---- -- --- ------- --<br>------- ---------- ------ -- ----- -- ----- to ---- ------<br>--- ----- --- --- ------ -------- ----- --- ------ ----- --<br>----- ----- ---------- --- --- ------ ------ ---- -- ------<br>------- --- ------ ----- --- ---- ------- -- ---- --- --<br>------- ------,182456.00000000003,181744,182108,182091,182125,182475,,19,to
screen,html.Screen,2_1_1_1_20,2022-04-25T17:10:36.860Z,,,,,,,,,,,,,,,,,54,,,,,,,,,,,,,,-281,,response,,,,100,,,,,,,Space,keypress(Space),,,,,,,,-- --- ---- --- ------ ----- ------- ---- -- --- ------- --<br>------- ---------- ------ -- ----- -- ----- -- save ------<br>--- ----- --- --- ------ -------- ----- --- ------ ----- --<br>----- ----- ---------- --- --- ------ ------ ---- -- ------<br>------- --- ------ ----- --- ---- ------- -- ---- --- --<br>------- ------,182890.00000000003,182178,182459,182456.00000000003,182475,182926,,20,save
screen,html.Screen,2_1_1_1_21,2022-04-25T17:10:37.370Z,,,,,,,,,,,,,,,,,54,,,,,,,,,,,,,,-220.9999999999709,,response,,,,100,,,,,,,Space,keypress(Space),,,,,,,,"-- --- ---- --- ------ ----- ------- ---- -- --- ------- --<br>------- ---------- ------ -- ----- -- ----- -- ---- money,<br>--- ----- --- --- ------ -------- ----- --- ------ ----- --<br>----- ----- ---------- --- --- ------ ------ ---- -- ------<br>------- --- ------ ----- --- ---- ------- -- ---- --- --<br>------- ------",183401,182688.00000000003,182909,182890.00000000003,182926,183426,,21,"money,"
screen,html.Screen,2_1_1_1_22,2022-04-25T17:10:37.828Z,,,,,,,,,,,,,,,,,54,,,,,,,,,,,,,,-263.9999999999709,,response,,,,100,,,,,,,Space,keypress(Space),,,,,,,,-- --- ---- --- ------ ----- ------- ---- -- --- ------- --<br>------- ---------- ------ -- ----- -- ----- -- ---- ------<br>the ----- --- --- ------ -------- ----- --- ------ ----- --<br>----- ----- ---------- --- --- ------ ------ ---- -- ------<br>------- --- ------ ----- --- ---- ------- -- ---- --- --<br>------- ------,183858,183146.00000000003,183410,183401,183426,183893,,22,the
screen,html.Screen,2_1_1_1_23,2022-04-25T17:10:38.272Z,,,,,,,,,,,,,,,,,54,,,,,,,,,,,,,,-289,,response,,,,100,,,,,,,Space,keypress(Space),,,,,,,,-- --- ---- --- ------ ----- ------- ---- -- --- ------- --<br>------- ---------- ------ -- ----- -- ----- -- ---- ------<br>--- state --- --- ------ -------- ----- --- ------ ----- --<br>----- ----- ---------- --- --- ------ ------ ---- -- ------<br>------- --- ------ ----- --- ---- ------- -- ---- --- --<br>------- ------,184302,183588,183877,183858,183893,184327,,23,state
screen,html.Screen,2_1_1_1_24,2022-04-25T17:10:38.667Z,,,,,,,,,,,,,,,,,54,,,,,,,,,,,,,,-326,,response,,,,100,,,,,,,Space,keypress(Space),,,,,,,,-- --- ---- --- ------ ----- ------- ---- -- --- ------- --<br>------- ---------- ------ -- ----- -- ----- -- ---- ------<br>--- ----- cut --- ------ -------- ----- --- ------ ----- --<br>----- ----- ---------- --- --- ------ ------ ---- -- ------<br>------- --- ------ ----- --- ---- ------- -- ---- --- --<br>------- ------,184697,183984,184310,184302,184327,184726,,24,cut
screen,html.Screen,2_1_1_1_25,2022-04-25T17:10:39.026Z,,,,,,,,,,,,,,,,,54,,,,,,,,,,,,,,-366.9999999999709,,response,,,,100,,,,,,,Space,keypress(Space),,,,,,,,-- --- ---- --- ------ ----- ------- ---- -- --- ------- --<br>------- ---------- ------ -- ----- -- ----- -- ---- ------<br>--- ----- --- the ------ -------- ----- --- ------ ----- --<br>----- ----- ---------- --- --- ------ ------ ---- -- ------<br>------- --- ------ ----- --- ---- ------- -- ---- --- --<br>------- ------,185056,184343.00000000003,184710,184697,184726,185076,,25,the
screen,html.Screen,2_1_1_1_26,2022-04-25T17:10:39.462Z,,,,,,,,,,,,,,,,,54,,,,,,,,,,,,,,-281,,response,,,,100,,,,,,,Space,keypress(Space),,,,,,,,-- --- ---- --- ------ ----- ------- ---- -- --- ------- --<br>------- ---------- ------ -- ----- -- ----- -- ---- ------<br>--- ----- --- --- bonds' -------- ----- --- ------ ----- --<br>----- ----- ---------- --- --- ------ ------ ---- -- ------<br>------- --- ------ ----- --- ---- ------- -- ---- --- --<br>------- ------,185492,184779,185060,185056,185076,185527,,26,bonds'
screen,html.Screen,2_1_1_1_27,2022-04-25T17:10:39.964Z,,,,,,,,,,,,,,,,,54,,,,,,,,,,,,,,-229,,response,,,,100,,,,,,,Space,keypress(Space),,,,,,,,-- --- ---- --- ------ ----- ------- ---- -- --- ------- --<br>------- ---------- ------ -- ----- -- ----- -- ---- ------<br>--- ----- --- --- ------ interest ----- --- ------ ----- --<br>----- ----- ---------- --- --- ------ ------ ---- -- ------<br>------- --- ------ ----- --- ---- ------- -- ---- --- --<br>------- ------,185994,185281,185510,185492,185527,186028,,27,interest
screen,html.Screen,2_1_1_1_28,2022-04-25T17:10:40.478Z,,,,,,,,,,,,,,,,,54,,,,,,,,,,,,,,-215.9999999999709,,response,,,,100,,,,,,,Space,keypress(Space),,,,,,,,-- --- ---- --- ------ ----- ------- ---- -- --- ------- --<br>------- ---------- ------ -- ----- -- ----- -- ---- ------<br>--- ----- --- --- ------ -------- rate. --- ------ ----- --<br>----- ----- ---------- --- --- ------ ------ ---- -- ------<br>------- --- ------ ----- --- ---- ------- -- ---- --- --<br>------- ------,186508,185795.00000000003,186011,185994,186028,186544,,28,rate.
screen,html.Screen,2_1_1_1_29,2022-04-25T17:10:41.247Z,,,,,,,,,,,,,,,,,54,,,,,,,,,,,,,,38,,response,,,,100,,,,,,,Space,keypress(Space),,,,,,,,-- --- ---- --- ------ ----- ------- ---- -- --- ------- --<br>------- ---------- ------ -- ----- -- ----- -- ---- ------<br>--- ----- --- --- ------ -------- ----- The ------ ----- --<br>----- ----- ---------- --- --- ------ ------ ---- -- ------<br>------- --- ------ ----- --- ---- ------- -- ---- --- --<br>------- ------,187278,186565,186527,186508,186544,187312,,29,The
screen,html.Screen,2_1_1_1_30,2022-04-25T17:10:41.698Z,,,,,,,,,,,,,,,,,54,,,,,,,,,,,,,,-279.9999999999709,,response,,,,100,,,,,,,Space,keypress(Space),,,,,,,,-- --- ---- --- ------ ----- ------- ---- -- --- ------- --<br>------- ---------- ------ -- ----- -- ----- -- ---- ------<br>--- ----- --- --- ------ -------- ----- --- market ----- --<br>----- ----- ---------- --- --- ------ ------ ---- -- ------<br>------- --- ------ ----- --- ---- ------- -- ---- --- --<br>------- ------,187728,187015.00000000003,187295,187278,187312,187762,,30,market
screen,html.Screen,2_1_1_1_31,2022-04-25T17:10:42.147Z,,,,,,,,,,,,,,,,,54,,,,,,,,,,,,,,-281,,response,,,,100,,,,,,,Space,keypress(Space),,,,,,,,-- --- ---- --- ------ ----- ------- ---- -- --- ------- --<br>------- ---------- ------ -- ----- -- ----- -- ---- ------<br>--- ----- --- --- ------ -------- ----- --- ------ value --<br>----- ----- ---------- --- --- ------ ------ ---- -- ------<br>------- --- ------ ----- --- ---- ------- -- ---- --- --<br>------- ------,188177,187464,187745,187728,187762,188212,,31,value
screen,html.Screen,2_1_1_1_32,2022-04-25T17:10:42.598Z,,,,,,,,,,,,,,,,,54,,,,,,,,,,,,,,-280,,response,,,,100,,,,,,,Space,keypress(Space),,,,,,,,-- --- ---- --- ------ ----- ------- ---- -- --- ------- --<br>------- ---------- ------ -- ----- -- ----- -- ---- ------<br>--- ----- --- --- ------ -------- ----- --- ------ ----- of<br>----- ----- ---------- --- --- ------ ------ ---- -- ------<br>------- --- ------ ----- --- ---- ------- -- ---- --- --<br>------- ------,188628,187915,188195,188177,188212,188662,,32,of
screen,html.Screen,2_1_1_1_33,2022-04-25T17:10:43.013Z,,,,,,,,,,,,,,,,,54,,,,,,,,,,,,,,-316,,response,,,,100,,,,,,,Space,keypress(Space),,,,,,,,-- --- ---- --- ------ ----- ------- ---- -- --- ------- --<br>------- ---------- ------ -- ----- -- ----- -- ---- ------<br>--- ----- --- --- ------ -------- ----- --- ------ ----- --<br>these ----- ---------- --- --- ------ ------ ---- -- ------<br>------- --- ------ ----- --- ---- ------- -- ---- --- --<br>------- ------,189043,188330,188646,188628,188662,189078,,33,these
screen,html.Screen,2_1_1_1_34,2022-04-25T17:10:43.459Z,,,,,,,,,,,,,,,,,54,,,,,,,,,,,,,,-286,,response,,,,100,,,,,,,Space,keypress(Space),,,,,,,,-- --- ---- --- ------ ----- ------- ---- -- --- ------- --<br>------- ---------- ------ -- ----- -- ----- -- ---- ------<br>--- ----- --- --- ------ -------- ----- --- ------ ----- --<br>----- bonds ---------- --- --- ------ ------ ---- -- ------<br>------- --- ------ ----- --- ---- ------- -- ---- --- --<br>------- ------,189489,188776,189062,189043,189078,189512,,34,bonds
screen,html.Screen,2_1_1_1_35,2022-04-25T17:10:43.835Z,,,,,,,,,,,,,,,,,54,,,,,,,,,,,,,,-343.9999999999709,,response,,,,100,,,,,,,Space,keypress(Space),,,,,,,,"-- --- ---- --- ------ ----- ------- ---- -- --- ------- --<br>------- ---------- ------ -- ----- -- ----- -- ---- ------<br>--- ----- --- --- ------ -------- ----- --- ------ ----- --<br>----- ----- plummeted, --- --- ------ ------ ---- -- ------<br>------- --- ------ ----- --- ---- ------- -- ---- --- --<br>------- ------",189866,189152.00000000003,189496,189489,189512,189896,,35,"plummeted,"
screen,html.Screen,2_1_1_1_36,2022-04-25T17:10:44.607Z,,,,,,,,,,,,,,,,,54,,,,,,,,,,,,,,44,,response,,,,100,,,,,,,Space,keypress(Space),,,,,,,,-- --- ---- --- ------ ----- ------- ---- -- --- ------- --<br>------- ---------- ------ -- ----- -- ----- -- ---- ------<br>--- ----- --- --- ------ -------- ----- --- ------ ----- --<br>----- ----- ---------- and --- ------ ------ ---- -- ------<br>------- --- ------ ----- --- ---- ------- -- ---- --- --<br>------- ------,190637,189924,189880,189866,189896,190663,,36,and
screen,html.Screen,2_1_1_1_37,2022-04-25T17:10:45.126Z,,,,,,,,,,,,,,,,,54,,,,,,,,,,,,,,-204,,response,,,,100,,,,,,,Space,keypress(Space),,,,,,,,-- --- ---- --- ------ ----- ------- ---- -- --- ------- --<br>------- ---------- ------ -- ----- -- ----- -- ---- ------<br>--- ----- --- --- ------ -------- ----- --- ------ ----- --<br>----- ----- ---------- --- the ------ ------ ---- -- ------<br>------- --- ------ ----- --- ---- ------- -- ---- --- --<br>------- ------,191156,190443,190647,190637,190663,191180,,37,the
screen,html.Screen,2_1_1_1_38,2022-04-25T17:10:45.585Z,,,,,,,,,,,,,,,,,54,,,,,,,,,,,,,,-260.9999999999709,,response,,,,100,,,,,,,Space,keypress(Space),,,,,,,,-- --- ---- --- ------ ----- ------- ---- -- --- ------- --<br>------- ---------- ------ -- ----- -- ----- -- ---- ------<br>--- ----- --- --- ------ -------- ----- --- ------ ----- --<br>----- ----- ---------- --- --- market ------ ---- -- ------<br>------- --- ------ ----- --- ---- ------- -- ---- --- --<br>------- ------,191615,190902.00000000003,191163,191156,191180,191647,,38,market
screen,html.Screen,2_1_1_1_39,2022-04-25T17:10:46.004Z,,,,,,,,,,,,,,,,,54,,,,,,,,,,,,,,-308,,response,,,,100,,,,,,,Space,keypress(Space),,,,,,,,-- --- ---- --- ------ ----- ------- ---- -- --- ------- --<br>------- ---------- ------ -- ----- -- ----- -- ---- ------<br>--- ----- --- --- ------ -------- ----- --- ------ ----- --<br>----- ----- ---------- --- --- ------ became ---- -- ------<br>------- --- ------ ----- --- ---- ------- -- ---- --- --<br>------- ------,192035,191322,191630,191615,191647,192063,,39,became
screen,html.Screen,2_1_1_1_40,2022-04-25T17:10:46.427Z,,,,,,,,,,,,,,,,,54,,,,,,,,,,,,,,-302,,response,,,,100,,,,,,,Space,keypress(Space),,,,,,,,-- --- ---- --- ------ ----- ------- ---- -- --- ------- --<br>------- ---------- ------ -- ----- -- ----- -- ---- ------<br>--- ----- --- --- ------ -------- ----- --- ------ ----- --<br>----- ----- ---------- --- --- ------ ------ wary -- ------<br>------- --- ------ ----- --- ---- ------- -- ---- --- --<br>------- ------,192458,191745,192047,192035,192063,192481,,40,wary
screen,html.Screen,2_1_1_1_41,2022-04-25T17:10:46.821Z,,,,,,,,,,,,,,,,,54,,,,,,,,,,,,,,-326,,response,,,,100,,,,,,,Space,keypress(Space),,,,,,,,-- --- ---- --- ------ ----- ------- ---- -- --- ------- --<br>------- ---------- ------ -- ----- -- ----- -- ---- ------<br>--- ----- --- --- ------ -------- ----- --- ------ ----- --<br>----- ----- ---------- --- --- ------ ------ ---- of ------<br>------- --- ------ ----- --- ---- ------- -- ---- --- --<br>------- ------,192851,192138,192464,192458,192481,192881,,41,of
screen,html.Screen,2_1_1_1_42,2022-04-25T17:10:47.297Z,,,,,,,,,,,,,,,,,54,,,,,,,,,,,,,,-249,,response,,,,100,,,,,,,Space,keypress(Space),,,,,,,,-- --- ---- --- ------ ----- ------- ---- -- --- ------- --<br>------- ---------- ------ -- ----- -- ----- -- ---- ------<br>--- ----- --- --- ------ -------- ----- --- ------ ----- --<br>----- ----- ---------- --- --- ------ ------ ---- -- French<br>------- --- ------ ----- --- ---- ------- -- ---- --- --<br>------- ------,193328,192615,192864,192851,192881,193364,,42,French
screen,html.Screen,2_1_1_1_43,2022-04-25T17:10:47.808Z,,,,,,,,,,,,,,,,,54,,,,,,,,,,,,,,-222,,response,,,,100,,,,,,,Space,keypress(Space),,,,,,,,-- --- ---- --- ------ ----- ------- ---- -- --- ------- --<br>------- ---------- ------ -- ----- -- ----- -- ---- ------<br>--- ----- --- --- ------ -------- ----- --- ------ ----- --<br>----- ----- ---------- --- --- ------ ------ ---- -- ------<br>credit. --- ------ ----- --- ---- ------- -- ---- --- --<br>------- ------,193838,193126,193348,193328,193364,193865,,43,credit.
screen,html.Screen,2_1_1_1_44,2022-04-25T17:10:48.351Z,,,,,,,,,,,,,,,,,54,,,,,,,,,,,,,,-179,,response,,,,100,,,,,,,Space,keypress(Space),,,,,,,,-- --- ---- --- ------ ----- ------- ---- -- --- ------- --<br>------- ---------- ------ -- ----- -- ----- -- ---- ------<br>--- ----- --- --- ------ -------- ----- --- ------ ----- --<br>----- ----- ---------- --- --- ------ ------ ---- -- ------<br>------- The ------ ----- --- ---- ------- -- ---- --- --<br>------- ------,194382,193669,193848,193839,193865,194414,,44,The
screen,html.Screen,2_1_1_1_45,2022-04-25T17:10:48.859Z,,,,,,,,,,,,,,,,,54,,,,,,,,,,,,,,-221,,response,,,,100,,,,,,,Space,keypress(Space),,,,,,,,-- --- ---- --- ------ ----- ------- ---- -- --- ------- --<br>------- ---------- ------ -- ----- -- ----- -- ---- ------<br>--- ----- --- --- ------ -------- ----- --- ------ ----- --<br>----- ----- ---------- --- --- ------ ------ ---- -- ------<br>------- --- French ----- --- ---- ------- -- ---- --- --<br>------- ------,194890.00000000003,194177,194398,194382,194414,194915,,45,French
screen,html.Screen,2_1_1_1_46,2022-04-25T17:10:49.400Z,,,,,,,,,,,,,,,,,54,,,,,,,,,,,,,,-180.9999999999709,,response,,,,100,,,,,,,Space,keypress(Space),,,,,,,,-- --- ---- --- ------ ----- ------- ---- -- --- ------- --<br>------- ---------- ------ -- ----- -- ----- -- ---- ------<br>--- ----- --- --- ------ -------- ----- --- ------ ----- --<br>----- ----- ---------- --- --- ------ ------ ---- -- ------<br>------- --- ------ state --- ---- ------- -- ---- --- --<br>------- ------,195431,194718.00000000003,194899,194890.00000000003,194915,195464,,46,state
screen,html.Screen,2_1_1_1_47,2022-04-25T17:10:49.883Z,,,,,,,,,,,,,,,,,54,,,,,,,,,,,,,,-247.9999999999709,,response,,,,100,,,,,,,Space,keypress(Space),,,,,,,,-- --- ---- --- ------ ----- ------- ---- -- --- ------- --<br>------- ---------- ------ -- ----- -- ----- -- ---- ------<br>--- ----- --- --- ------ -------- ----- --- ------ ----- --<br>----- ----- ---------- --- --- ------ ------ ---- -- ------<br>------- --- ------ ----- was ---- ------- -- ---- --- --<br>------- ------,195913,195200.00000000003,195448,195431,195464,195948,,47,was
screen,html.Screen,2_1_1_1_48,2022-04-25T17:10:50.300Z,,,,,,,,,,,,,,,,,54,,,,,,,,,,,,,,-314,,response,,,,100,,,,,,,Space,keypress(Space),,,,,,,,-- --- ---- --- ------ ----- ------- ---- -- --- ------- --<br>------- ---------- ------ -- ----- -- ----- -- ---- ------<br>--- ----- --- --- ------ -------- ----- --- ------ ----- --<br>----- ----- ---------- --- --- ------ ------ ---- -- ------<br>------- --- ------ ----- --- left ------- -- ---- --- --<br>------- ------,196331.00000000003,195618,195932,195913,195948,196366,,48,left
screen,html.Screen,2_1_1_1_49,2022-04-25T17:10:50.715Z,,,,,,,,,,,,,,,,,54,,,,,,,,,,,,,,-316,,response,,,,100,,,,,,,Space,keypress(Space),,,,,,,,-- --- ---- --- ------ ----- ------- ---- -- --- ------- --<br>------- ---------- ------ -- ----- -- ----- -- ---- ------<br>--- ----- --- --- ------ -------- ----- --- ------ ----- --<br>----- ----- ---------- --- --- ------ ------ ---- -- ------<br>------- --- ------ ----- --- ---- without -- ---- --- --<br>------- ------,196746,196032,196348,196331.00000000003,196366,196783,,49,without
screen,html.Screen,2_1_1_1_50,2022-04-25T17:10:51.108Z,,,,,,,,,,,,,,,,,54,,,,,,,,,,,,,,-341,,response,,,,100,,,,,,,Space,keypress(Space),,,,,,,,-- --- ---- --- ------ ----- ------- ---- -- --- ------- --<br>------- ---------- ------ -- ----- -- ----- -- ---- ------<br>--- ----- --- --- ------ -------- ----- --- ------ ----- --<br>----- ----- ---------- --- --- ------ ------ ---- -- ------<br>------- --- ------ ----- --- ---- ------- an ---- --- --<br>------- ------,197138,196425,196766,196746,196783,197167,,50,an
screen,html.Screen,2_1_1_1_51,2022-04-25T17:10:51.490Z,,,,,,,,,,,,,,,,,54,,,,,,,,,,,,,,-343,,response,,,,100,,,,,,,Space,keypress(Space),,,,,,,,-- --- ---- --- ------ ----- ------- ---- -- --- ------- --<br>------- ---------- ------ -- ----- -- ----- -- ---- ------<br>--- ----- --- --- ------ -------- ----- --- ------ ----- --<br>----- ----- ---------- --- --- ------ ------ ---- -- ------<br>------- --- ------ ----- --- ---- ------- -- easy --- --<br>------- ------,197520,196806,197149,197139,197167,197549,,51,easy
screen,html.Screen,2_1_1_1_52,2022-04-25T17:10:51.907Z,,,,,,,,,,,,,,,,,54,,,,,,,,,,,,,,-308.9999999999709,,response,,,,100,,,,,,,Space,keypress(Space),,,,,,,,-- --- ---- --- ------ ----- ------- ---- -- --- ------- --<br>------- ---------- ------ -- ----- -- ----- -- ---- ------<br>--- ----- --- --- ------ -------- ----- --- ------ ----- --<br>----- ----- ---------- --- --- ------ ------ ---- -- ------<br>------- --- ------ ----- --- ---- ------- -- ---- way --<br>------- ------,197937,197224.00000000003,197533,197521.00000000003,197549,197967,,52,way
screen,html.Screen,2_1_1_1_53,2022-04-25T17:10:52.291Z,,,,,,,,,,,,,,,,,54,,,,,,,,,,,,,,-343,,response,,,,100,,,,,,,Space,keypress(Space),,,,,,,,-- --- ---- --- ------ ----- ------- ---- -- --- ------- --<br>------- ---------- ------ -- ----- -- ----- -- ---- ------<br>--- ----- --- --- ------ -------- ----- --- ------ ----- --<br>----- ----- ---------- --- --- ------ ------ ---- -- ------<br>------- --- ------ ----- --- ---- ------- -- ---- --- of<br>------- ------,198321,197607,197950,197937,197967,198350,,53,of
screen,html.Screen,2_1_1_1_54,2022-04-25T17:10:52.873Z,,,,,,,,,,,,,,,,,54,,,,,,,,,,,,,,-143,,response,,,,100,,,,,,,Space,keypress(Space),,,,,,,,-- --- ---- --- ------ ----- ------- ---- -- --- ------- --<br>------- ---------- ------ -- ----- -- ----- -- ---- ------<br>--- ----- --- --- ------ -------- ----- --- ------ ----- --<br>----- ----- ---------- --- --- ------ ------ ---- -- ------<br>------- --- ------ ----- --- ---- ------- -- ---- --- --<br>raising ------,198903,198190,198333,198321,198350,198933,,54,raising
screen,html.Screen,2_1_1_1_55,2022-04-25T17:10:53.795Z,,,,,,,,,,,,,,,,,54,,,,,,,,,,,,,,195,,response,,,,100,,,,,,,Space,keypress(Space),,,,,,,,-- --- ---- --- ------ ----- ------- ---- -- --- ------- --<br>------- ---------- ------ -- ----- -- ----- -- ---- ------<br>--- ----- --- --- ------ -------- ----- --- ------ ----- --<br>----- ----- ---------- --- --- ------ ------ ---- -- ------<br>------- --- ------ ----- --- ---- ------- -- ---- --- --<br>------- money.,199825.00000000003,199111,198916,198903,198933,199851,,55,money.
Item 100,flow.Loop,2_1_1_1,2022-04-25T17:10:53.795Z,,,,,,,,,,,,,,,,,,,,,,,,,,,,,,,26407,,completion,,,,,B,,,,,,,,,,,silence,,,,,199825.00000000003,199111,172688,172689,172704,199851,,,
Question 1,html.Screen,2_1_1_2,2022-04-25T17:10:56.522Z,,,,,,,,,,,,,,,,,,,,,,,,,,,,true,TRUE,,2000,,response,,,,100,B,,,,,,TRUE,click #choice-1,,,,silence,,,,,202552,201833,199833,199825.00000000003,199851,202585,,,
Question 2,html.Screen,2_1_1_3,2022-04-25T17:10:58.652Z,,,,,,,,,,,,,,,,,,,,,,,,,,,,false,FALSE,,1381,,response,,,,100,B,,,,,,TRUE,click #choice-1,,,,silence,,,,,204681,203949,202568,202552,202585,204703,,,
Item 100,flow.Sequence,2_1_1,2022-04-25T17:10:58.652Z,,,,,,,,,,,,,,,,,,,,,,,,,,,,,,,41250,,completion,,,,,,,,,,,,,,,,,,,,,204682.00000000003,203949,162682,162671,162699,204703,,,
End of Practice,html.Page,2_1_2,2022-04-25T17:11:04.347Z,,,,,,,,,,,,,,,,,,,,,,,,,,,,,,,5673,,form submission,,,,,,,,,,,,,,,,,,,,,210377,210376,204691,204682.00000000003,204703,210405,,,
Practice,flow.Sequence,2_1,2022-04-25T17:11:04.347Z,,,,,,,,,,,,,,,,,,,,,,,,,,,,,,,95215,,completion,,,,,,,,,,,,,,,,,,,,,210377,210376,115144,115123,115161,210405,,,
Trap_instruction,html.Page,2_2_0,2022-04-25T17:11:08.470Z,,,,,,,,,,,,,,,,,,,,,,,,,,,,,,,4095,,form submission,,,,,,,,,,,,,,,,,,,,,214500,214500,210389,210377,210405,214524,,,
trap_trial,html.Screen,2_2_1,2022-04-25T17:11:11.490Z,,,,,,,,,,,,,,,,,,,,,,,,,,,,true,1,,2285,,response,,,,,,,,,,,1,click #choice-1,,,,,,,,,217520,216793,214508,214500,214524,217531,,,
end of trap trial,html.Page,2_2_2,2022-04-25T17:11:13.468Z,,,,,,,,,,,,,,,,,,,,,,,,,,,,,,,1966,,form submission,,,,,,,,,,,,,,,,,,,,,219498,219497,217529,217520,217531,219527,,,
Trap 1,flow.Sequence,2_2,2022-04-25T17:11:13.468Z,,,,,,,,,,,,,,,,,,,,,,,,,,,,,,,9092,,completion,,,,,,,,,,,,,,,,,,,,,219498,219497,210389,210377,210405,219527,,,
Standby,html.Page,2_3_0,2022-04-25T17:11:21.484Z,,,,,,,,,,,,,,,,,,,,,,,,,,,,,,,8004,,timeout,,,,,,,,,,,,,,,,,,,,,227513,227513,219510,219498,219527,227531,,,
Holding screen,html.Screen,2_3_1_0_0,2022-04-25T17:11:28.488Z,,,,,,,,,,,,,,,,,,,,,,,,,,,,,,,7002,,timeout,,,,,,,,,,,,,,,,,,,,,234517,234517,227513,227513,227531,234533,,,
screen,html.Screen,2_3_1_0_1_0,2022-04-25T17:11:29.762Z,,,,,,,,,,,,,,,,,12,,,,,,,,,,,,,,560,,response,,,,5,B,,,,,,Space,keypress(Space),,,,lyrical,,,,Some ------ ------ ------- ------ --- ------- -----------<br>-- ----- --- ---- -- --- ------ ---- - ---- -- ----------<br>-- ------ ---- --- ---- --- --- --- ----- -- -------- ---<br>------ ------- -------- --- ---- -- ------- ------------ --<br>------ -- ---- -- --- ---- -- -------- -- --- ------ ------,235791,235077,234517,234517,234533,235818,,0,Some
screen,html.Screen,2_3_1_0_1_1,2022-04-25T17:11:30.452Z,,,,,,,,,,,,,,,,,12,,,,,,,,,,,,,,-34,,response,,,,5,B,,,,,,Space,keypress(Space),,,,lyrical,,,,---- months ------ ------- ------ --- ------- -----------<br>-- ----- --- ---- -- --- ------ ---- - ---- -- ----------<br>-- ------ ---- --- ---- --- --- --- ----- -- -------- ---<br>------ ------- -------- --- ---- -- ------- ------------ --<br>------ -- ---- -- --- ---- -- -------- -- --- ------ ------,236481,235767,235801,235791,235818,236518,,1,months
screen,html.Screen,2_3_1_0_1_2,2022-04-25T17:11:31.233Z,,,,,,,,,,,,,,,,,12,,,,,,,,,,,,,,45,,response,,,,5,B,,,,,,Space,keypress(Space),,,,lyrical,,,,"---- ------ later, ------- ------ --- ------- -----------<br>-- ----- --- ---- -- --- ------ ---- - ---- -- ----------<br>-- ------ ---- --- ---- --- --- --- ----- -- -------- ---<br>------ ------- -------- --- ---- -- ------- ------------ --<br>------ -- ---- -- --- ---- -- -------- -- --- ------ ------",237262,236546,236501,236481,236518,237284,,2,"later,"
screen,html.Screen,2_3_1_0_1_3,2022-04-25T17:11:31.912Z,,,,,,,,,,,,,,,,,12,,,,,,,,,,,,,,-42,,response,,,,5,B,,,,,,Space,keypress(Space),,,,lyrical,,,,---- ------ ------ Michael ------ --- ------- -----------<br>-- ----- --- ---- -- --- ------ ---- - ---- -- ----------<br>-- ------ ---- --- ---- --- --- --- ----- -- -------- ---<br>------ ------- -------- --- ---- -- ------- ------------ --<br>------ -- ---- -- --- ---- -- -------- -- --- ------ ------,237941,237226,237268,237262,237284,237969,,3,Michael
screen,html.Screen,2_3_1_0_1_4,2022-04-25T17:11:32.556Z,,,,,,,,,,,,,,,,,12,,,,,,,,,,,,,,-83,,response,,,,5,B,,,,,,Space,keypress(Space),,,,lyrical,,,,---- ------ ------ ------- Larson --- ------- -----------<br>-- ----- --- ---- -- --- ------ ---- - ---- -- ----------<br>-- ------ ---- --- ---- --- --- --- ----- -- -------- ---<br>------ ------- -------- --- ---- -- ------- ------------ --<br>------ -- ---- -- --- ---- -- -------- -- --- ------ ------,238585,237869,237952,237941,237969,238619,,4,Larson
screen,html.Screen,2_3_1_0_1_5,2022-04-25T17:11:33.189Z,,,,,,,,,,,,,,,,,12,,,,,,,,,,,,,,-99,,response,,,,5,B,,,,,,Space,keypress(Space),,,,lyrical,,,,---- ------ ------ ------- ------ saw ------- -----------<br>-- ----- --- ---- -- --- ------ ---- - ---- -- ----------<br>-- ------ ---- --- ---- --- --- --- ----- -- -------- ---<br>------ ------- -------- --- ---- -- ------- ------------ --<br>------ -- ---- -- --- ---- -- -------- -- --- ------ ------,239218.00000000003,238503,238602,238588,238619,239252,,5,saw
screen,html.Screen,2_3_1_0_1_6,2022-04-25T17:11:33.782Z,,,,,,,,,,,,,,,,,12,,,,,,,,,,,,,,-140,,response,,,,5,B,,,,,,Space,keypress(Space),,,,lyrical,,,,---- ------ ------ ------- ------ --- another -----------<br>-- ----- --- ---- -- --- ------ ---- - ---- -- ----------<br>-- ------ ---- --- ---- --- --- --- ----- -- -------- ---<br>------ ------- -------- --- ---- -- ------- ------------ --<br>------ -- ---- -- --- ---- -- -------- -- --- ------ ------,239810,239096,239236,239218.00000000003,239252,239836,,6,another
screen,html.Screen,2_3_1_0_1_7,2022-04-25T17:11:34.411Z,,,,,,,,,,,,,,,,,12,,,,,,,,,,,,,,-95,,response,,,,5,B,,,,,,Space,keypress(Space),,,,lyrical,,,,---- ------ ------ ------- ------ --- ------- opportunity<br>-- ----- --- ---- -- --- ------ ---- - ---- -- ----------<br>-- ------ ---- --- ---- --- --- --- ----- -- -------- ---<br>------ ------- -------- --- ---- -- ------- ------------ --<br>------ -- ---- -- --- ---- -- -------- -- --- ------ ------,240440,239725,239820,239812,239836,240470,,7,opportunity
screen,html.Screen,2_3_1_0_1_8,2022-04-25T17:11:34.955Z,,,,,,,,,,,,,,,,,12,,,,,,,,,,,,,,-184,,response,,,,5,B,,,,,,Space,keypress(Space),,,,lyrical,,,,---- ------ ------ ------- ------ --- ------- -----------<br>to ----- --- ---- -- --- ------ ---- - ---- -- ----------<br>-- ------ ---- --- ---- --- --- --- ----- -- -------- ---<br>------ ------- -------- --- ---- -- ------- ------------ --<br>------ -- ---- -- --- ---- -- -------- -- --- ------ ------,240983,240269,240453,240440,240470,241020,,8,to
screen,html.Screen,2_3_1_0_1_9,2022-04-25T17:11:35.615Z,,,,,,,,,,,,,,,,,12,,,,,,,,,,,,,,-75,,response,,,,5,B,,,,,,Space,keypress(Space),,,,lyrical,,,,---- ------ ------ ------- ------ --- ------- -----------<br>-- stack --- ---- -- --- ------ ---- - ---- -- ----------<br>-- ------ ---- --- ---- --- --- --- ----- -- -------- ---<br>------ ------- -------- --- ---- -- ------- ------------ --<br>------ -- ---- -- --- ---- -- -------- -- --- ------ ------,241643,240929,241004,240984,241020,241670,,9,stack
screen,html.Screen,2_3_1_0_1_10,2022-04-25T17:11:36.111Z,,,,,,,,,,,,,,,,,12,,,,,,,,,,,,,,-229,,response,,,,5,B,,,,,,Space,keypress(Space),,,,lyrical,,,,---- ------ ------ ------- ------ --- ------- -----------<br>-- ----- the ---- -- --- ------ ---- - ---- -- ----------<br>-- ------ ---- --- ---- --- --- --- ----- -- -------- ---<br>------ ------- -------- --- ---- -- ------- ------------ --<br>------ -- ---- -- --- ---- -- -------- -- --- ------ ------,242139,241425,241654,241644,241670,242171,,10,the
screen,html.Screen,2_3_1_0_1_11,2022-04-25T17:11:36.665Z,,,,,,,,,,,,,,,,,12,,,,,,,,,,,,,,-175,,response,,,,5,B,,,,,,Space,keypress(Space),,,,lyrical,,,,---- ------ ------ ------- ------ --- ------- -----------<br>-- ----- --- odds -- --- ------ ---- - ---- -- ----------<br>-- ------ ---- --- ---- --- --- --- ----- -- -------- ---<br>------ ------- -------- --- ---- -- ------- ------------ --<br>------ -- ---- -- --- ---- -- -------- -- --- ------ ------,242694.00000000003,241979,242154,242140.00000000003,242171,242721,,11,odds
screen,html.Screen,2_3_1_0_1_12,2022-04-25T17:11:37.138Z,,,,,,,,,,,,,,,,,12,,,,,,,,,,,,,,-252,,response,,,,5,B,,,,,,Space,keypress(Space),,,,lyrical,,,,---- ------ ------ ------- ------ --- ------- -----------<br>-- ----- --- ---- in --- ------ ---- - ---- -- ----------<br>-- ------ ---- --- ---- --- --- --- ----- -- -------- ---<br>------ ------- -------- --- ---- -- ------- ------------ --<br>------ -- ---- -- --- ---- -- -------- -- --- ------ ------,243166,242452,242704,242694.00000000003,242721,243187,,12,in
screen,html.Screen,2_3_1_0_1_13,2022-04-25T17:11:37.576Z,,,,,,,,,,,,,,,,,12,,,,,,,,,,,,,,-280.9999999999709,,response,,,,5,B,,,,,,Space,keypress(Space),,,,lyrical,,,,---- ------ ------ ------- ------ --- ------- -----------<br>-- ----- --- ---- -- his ------ ---- - ---- -- ----------<br>-- ------ ---- --- ---- --- --- --- ----- -- -------- ---<br>------ ------- -------- --- ---- -- ------- ------------ --<br>------ -- ---- -- --- ---- -- -------- -- --- ------ ------,243604,242890.00000000003,243171,243166,243187,243638,,13,his
screen,html.Screen,2_3_1_0_1_14,2022-04-25T17:11:38.203Z,,,,,,,,,,,,,,,,,12,,,,,,,,,,,,,,-105,,response,,,,5,B,,,,,,Space,keypress(Space),,,,lyrical,,,,---- ------ ------ ------- ------ --- ------- -----------<br>-- ----- --- ---- -- --- favour ---- - ---- -- ----------<br>-- ------ ---- --- ---- --- --- --- ----- -- -------- ---<br>------ ------- -------- --- ---- -- ------- ------------ --<br>------ -- ---- -- --- ---- -- -------- -- --- ------ ------,244231,243516,243621,243605.00000000003,243638,244255,,14,favour
screen,html.Screen,2_3_1_0_1_15,2022-04-25T17:11:38.685Z,,,,,,,,,,,,,,,,,12,,,,,,,,,,,,,,-239,,response,,,,5,B,,,,,,Space,keypress(Space),,,,lyrical,,,,---- ------ ------ ------- ------ --- ------- -----------<br>-- ----- --- ---- -- --- ------ with - ---- -- ----------<br>-- ------ ---- --- ---- --- --- --- ----- -- -------- ---<br>------ ------- -------- --- ---- -- ------- ------------ --<br>------ -- ---- -- --- ---- -- -------- -- --- ------ ------,244713,243999,244238,244232,244255,244738,,15,with
screen,html.Screen,2_3_1_0_1_16,2022-04-25T17:11:39.092Z,,,,,,,,,,,,,,,,,12,,,,,,,,,,,,,,-316,,response,,,,5,B,,,,,,Space,keypress(Space),,,,lyrical,,,,---- ------ ------ ------- ------ --- ------- -----------<br>-- ----- --- ---- -- --- ------ ---- a ---- -- ----------<br>-- ------ ---- --- ---- --- --- --- ----- -- -------- ---<br>------ ------- -------- --- ---- -- ------- ------------ --<br>------ -- ---- -- --- ---- -- -------- -- --- ------ ------,245120,244406,244722,244713,244738,245156,,16,a
screen,html.Screen,2_3_1_0_1_17,2022-04-25T17:11:39.477Z,,,,,,,,,,,,,,,,,12,,,,,,,,,,,,,,-347,,response,,,,5,B,,,,,,Space,keypress(Space),,,,lyrical,,,,---- ------ ------ ------- ------ --- ------- -----------<br>-- ----- --- ---- -- --- ------ ---- - dash -- ----------<br>-- ------ ---- --- ---- --- --- --- ----- -- -------- ---<br>------ ------- -------- --- ---- -- ------- ------------ --<br>------ -- ---- -- --- ---- -- -------- -- --- ------ ------,245506,244791,245138,245120,245156,245538,,17,dash
screen,html.Screen,2_3_1_0_1_18,2022-04-25T17:11:39.992Z,,,,,,,,,,,,,,,,,12,,,,,,,,,,,,,,-216,,response,,,,5,B,,,,,,Space,keypress(Space),,,,lyrical,,,,---- ------ ------ ------- ------ --- ------- -----------<br>-- ----- --- ---- -- --- ------ ---- - ---- of ----------<br>-- ------ ---- --- ---- --- --- --- ----- -- -------- ---<br>------ ------- -------- --- ---- -- ------- ------------ --<br>------ -- ---- -- --- ---- -- -------- -- --- ------ ------,246021.00000000003,245306,245522,245506,245538,246056,,18,of
screen,html.Screen,2_3_1_0_1_19,2022-04-25T17:11:41.077Z,,,,,,,,,,,,,,,,,12,,,,,,,,,,,,,,352,,response,,,,5,B,,,,,,Space,keypress(Space),,,,lyrical,,,,---- ------ ------ ------- ------ --- ------- -----------<br>-- ----- --- ---- -- --- ------ ---- - ---- -- ingenuity.<br>-- ------ ---- --- ---- --- --- --- ----- -- -------- ---<br>------ ------- -------- --- ---- -- ------- ------------ --<br>------ -- ---- -- --- ---- -- -------- -- --- ------ ------,247105.00000000003,246391,246039,246021.00000000003,246056,247139,,19,ingenuity.
screen,html.Screen,2_3_1_0_1_20,2022-04-25T17:11:41.553Z,,,,,,,,,,,,,,,,,12,,,,,,,,,,,,,,-258,,response,,,,5,B,,,,,,Space,keypress(Space),,,,lyrical,,,,---- ------ ------ ------- ------ --- ------- -----------<br>-- ----- --- ---- -- --- ------ ---- - ---- -- ----------<br>He ------ ---- --- ---- --- --- --- ----- -- -------- ---<br>------ ------- -------- --- ---- -- ------- ------------ --<br>------ -- ---- -- --- ---- -- -------- -- --- ------ ------,247581.00000000003,246865,247123,247105.00000000003,247139,247606,,20,He
screen,html.Screen,2_3_1_0_1_21,2022-04-25T17:11:42.072Z,,,,,,,,,,,,,,,,,12,,,,,,,,,,,,,,-204,,response,,,,5,B,,,,,,Space,keypress(Space),,,,lyrical,,,,---- ------ ------ ------- ------ --- ------- -----------<br>-- ----- --- ---- -- --- ------ ---- - ---- -- ----------<br>-- walked ---- --- ---- --- --- --- ----- -- -------- ---<br>------ ------- -------- --- ---- -- ------- ------------ --<br>------ -- ---- -- --- ---- -- -------- -- --- ------ ------,248100,247386,247590,247581.00000000003,247606,248124,,21,walked
screen,html.Screen,2_3_1_0_1_22,2022-04-25T17:11:42.573Z,,,,,,,,,,,,,,,,,12,,,,,,,,,,,,,,-220,,response,,,,5,B,,,,,,Space,keypress(Space),,,,lyrical,,,,---- ------ ------ ------- ------ --- ------- -----------<br>-- ----- --- ---- -- --- ------ ---- - ---- -- ----------<br>-- ------ into --- ---- --- --- --- ----- -- -------- ---<br>------ ------- -------- --- ---- -- ------- ------------ --<br>------ -- ---- -- --- ---- -- -------- -- --- ------ ------,248602,247887,248107,248100,248124,248623,,22,into
screen,html.Screen,2_3_1_0_1_23,2022-04-25T17:11:43.057Z,,,,,,,,,,,,,,,,,12,,,,,,,,,,,,,,-239,,response,,,,5,B,,,,,,Space,keypress(Space),,,,lyrical,,,,---- ------ ------ ------- ------ --- ------- -----------<br>-- ----- --- ---- -- --- ------ ---- - ---- -- ----------<br>-- ------ ---- his ---- --- --- --- ----- -- -------- ---<br>------ ------- -------- --- ---- -- ------- ------------ --<br>------ -- ---- -- --- ---- -- -------- -- --- ------ ------,249085,248368,248607,248602,248623,249107,,23,his
screen,html.Screen,2_3_1_0_1_24,2022-04-25T17:11:43.715Z,,,,,,,,,,,,,,,,,12,,,,,,,,,,,,,,-62.999999999970896,,response,,,,5,B,,,,,,Space,keypress(Space),,,,lyrical,,,,---- ------ ------ ------- ------ --- ------- -----------<br>-- ----- --- ---- -- --- ------ ---- - ---- -- ----------<br>-- ------ ---- --- bank --- --- --- ----- -- -------- ---<br>------ ------- -------- --- ---- -- ------- ------------ --<br>------ -- ---- -- --- ---- -- -------- -- --- ------ ------,249744,249027.00000000003,249090,249085,249107,249774,,24,bank
screen,html.Screen,2_3_1_0_1_25,2022-04-25T17:11:44.208Z,,,,,,,,,,,,,,,,,12,,,,,,,,,,,,,,-235.9999999999709,,response,,,,5,B,,,,,,Space,keypress(Space),,,,lyrical,,,,---- ------ ------ ------- ------ --- ------- -----------<br>-- ----- --- ---- -- --- ------ ---- - ---- -- ----------<br>-- ------ ---- --- ---- one --- --- ----- -- -------- ---<br>------ ------- -------- --- ---- -- ------- ------------ --<br>------ -- ---- -- --- ---- -- -------- -- --- ------ ------,250237,249521.00000000003,249757,249744,249774,250275,,25,one
screen,html.Screen,2_3_1_0_1_26,2022-04-25T17:11:44.799Z,,,,,,,,,,,,,,,,,12,,,,,,,,,,,,,,-145,,response,,,,5,B,,,,,,Space,keypress(Space),,,,lyrical,,,,---- ------ ------ ------- ------ --- ------- -----------<br>-- ----- --- ---- -- --- ------ ---- - ---- -- ----------<br>-- ------ ---- --- ---- --- day --- ----- -- -------- ---<br>------ ------- -------- --- ---- -- ------- ------------ --<br>------ -- ---- -- --- ---- -- -------- -- --- ------ ------,250828,250112,250257,250238,250275,250858,,26,day
screen,html.Screen,2_3_1_0_1_27,2022-04-25T17:11:45.274Z,,,,,,,,,,,,,,,,,12,,,,,,,,,,,,,,-253,,response,,,,5,B,,,,,,Space,keypress(Space),,,,lyrical,,,,---- ------ ------ ------- ------ --- ------- -----------<br>-- ----- --- ---- -- --- ------ ---- - ---- -- ----------<br>-- ------ ---- --- ---- --- --- and ----- -- -------- ---<br>------ ------- -------- --- ---- -- ------- ------------ --<br>------ -- ---- -- --- ---- -- -------- -- --- ------ ------,251303,250588,250841,250828,250858,251325,,27,and
screen,html.Screen,2_3_1_0_1_28,2022-04-25T17:11:45.787Z,,,,,,,,,,,,,,,,,12,,,,,,,,,,,,,,-208,,response,,,,5,B,,,,,,Space,keypress(Space),,,,lyrical,,,,---- ------ ------ ------- ------ --- ------- -----------<br>-- ----- --- ---- -- --- ------ ---- - ---- -- ----------<br>-- ------ ---- --- ---- --- --- --- asked -- -------- ---<br>------ ------- -------- --- ---- -- ------- ------------ --<br>------ -- ---- -- --- ---- -- -------- -- --- ------ ------,251816,251100,251308,251303,251325,251842,,28,asked
screen,html.Screen,2_3_1_0_1_29,2022-04-25T17:11:46.254Z,,,,,,,,,,,,,,,,,12,,,,,,,,,,,,,,-260,,response,,,,5,B,,,,,,Space,keypress(Space),,,,lyrical,,,,---- ------ ------ ------- ------ --- ------- -----------<br>-- ----- --- ---- -- --- ------ ---- - ---- -- ----------<br>-- ------ ---- --- ---- --- --- --- ----- to -------- ---<br>------ ------- -------- --- ---- -- ------- ------------ --<br>------ -- ---- -- --- ---- -- -------- -- --- ------ ------,252283.00000000003,251565,251825,251816,251842,252310,,29,to
screen,html.Screen,2_3_1_0_1_30,2022-04-25T17:11:46.754Z,,,,,,,,,,,,,,,,,12,,,,,,,,,,,,,,-225,,response,,,,5,B,,,,,,Space,keypress(Space),,,,lyrical,,,,---- ------ ------ ------- ------ --- ------- -----------<br>-- ----- --- ---- -- --- ------ ---- - ---- -- ----------<br>-- ------ ---- --- ---- --- --- --- ----- -- withdraw ---<br>------ ------- -------- --- ---- -- ------- ------------ --<br>------ -- ---- -- --- ---- -- -------- -- --- ------ ------,252782,252067,252292,252283.00000000003,252310,252808,,30,withdraw
screen,html.Screen,2_3_1_0_1_31,2022-04-25T17:11:47.212Z,,,,,,,,,,,,,,,,,12,,,,,,,,,,,,,,-267,,response,,,,5,B,,,,,,Space,keypress(Space),,,,lyrical,,,,---- ------ ------ ------- ------ --- ------- -----------<br>-- ----- --- ---- -- --- ------ ---- - ---- -- ----------<br>-- ------ ---- --- ---- --- --- --- ----- -- -------- his<br>------ ------- -------- --- ---- -- ------- ------------ --<br>------ -- ---- -- --- ---- -- -------- -- --- ------ ------,253240,252525,252792,252782,252808,253275,,31,his
screen,html.Screen,2_3_1_0_1_32,2022-04-25T17:11:47.794Z,,,,,,,,,,,,,,,,,12,,,,,,,,,,,,,,-153.9999999999709,,response,,,,5,B,,,,,,Space,keypress(Space),,,,lyrical,,,,---- ------ ------ ------- ------ --- ------- -----------<br>-- ----- --- ---- -- --- ------ ---- - ---- -- ----------<br>-- ------ ---- --- ---- --- --- --- ----- -- -------- ---<br>entire ------- -------- --- ---- -- ------- ------------ --<br>------ -- ---- -- --- ---- -- -------- -- --- ------ ------,253822,253105.00000000003,253259,253240,253275,253859,,32,entire
screen,html.Screen,2_3_1_0_1_33,2022-04-25T17:11:48.283Z,,,,,,,,,,,,,,,,,12,,,,,,,,,,,,,,-247,,response,,,,5,B,,,,,,Space,keypress(Space),,,,lyrical,,,,---- ------ ------ ------- ------ --- ------- -----------<br>-- ----- --- ---- -- --- ------ ---- - ---- -- ----------<br>-- ------ ---- --- ---- --- --- --- ----- -- -------- ---<br>------ account -------- --- ---- -- ------- ------------ --<br>------ -- ---- -- --- ---- -- -------- -- --- ------ ------,254311,253596,253843,253822,253859,254342,,33,account
screen,html.Screen,2_3_1_0_1_34,2022-04-25T17:11:48.756Z,,,,,,,,,,,,,,,,,12,,,,,,,,,,,,,,-257.9999999999709,,response,,,,5,B,,,,,,Space,keypress(Space),,,,lyrical,,,,"---- ------ ------ ------- ------ --- ------- -----------<br>-- ----- --- ---- -- --- ------ ---- - ---- -- ----------<br>-- ------ ---- --- ---- --- --- --- ----- -- -------- ---<br>------ ------- balance, --- ---- -- ------- ------------ --<br>------ -- ---- -- --- ---- -- -------- -- --- ------ ------",254784,254069.00000000003,254327,254311,254342,254809,,34,"balance,"
screen,html.Screen,2_3_1_0_1_35,2022-04-25T17:11:49.720Z,,,,,,,,,,,,,,,,,12,,,,,,,,,,,,,,240.0000000000291,,response,,,,5,B,,,,,,Space,keypress(Space),,,,lyrical,,,,---- ------ ------ ------- ------ --- ------- -----------<br>-- ----- --- ---- -- --- ------ ---- - ---- -- ----------<br>-- ------ ---- --- ---- --- --- --- ----- -- -------- ---<br>------ ------- -------- but ---- -- ------- ------------ --<br>------ -- ---- -- --- ---- -- -------- -- --- ------ ------,255748.00000000003,255033.00000000003,254793,254784,254809,255777,,35,but
screen,html.Screen,2_3_1_0_1_36,2022-04-25T17:11:50.219Z,,,,,,,,,,,,,,,,,12,,,,,,,,,,,,,,-229,,response,,,,5,B,,,,,,Space,keypress(Space),,,,lyrical,,,,---- ------ ------ ------- ------ --- ------- -----------<br>-- ----- --- ---- -- --- ------ ---- - ---- -- ----------<br>-- ------ ---- --- ---- --- --- --- ----- -- -------- ---<br>------ ------- -------- --- with -- ------- ------------ --<br>------ -- ---- -- --- ---- -- -------- -- --- ------ ------,256247,255531,255760,255748.00000000003,255777,256277,,36,with
screen,html.Screen,2_3_1_0_1_37,2022-04-25T17:11:50.750Z,,,,,,,,,,,,,,,,,12,,,,,,,,,,,,,,-198,,response,,,,5,B,,,,,,Space,keypress(Space),,,,lyrical,,,,---- ------ ------ ------- ------ --- ------- -----------<br>-- ----- --- ---- -- --- ------ ---- - ---- -- ----------<br>-- ------ ---- --- ---- --- --- --- ----- -- -------- ---<br>------ ------- -------- --- ---- an ------- ------------ --<br>------ -- ---- -- --- ---- -- -------- -- --- ------ ------,256778.00000000003,256063,256261,256247,256277,256810,,37,an
screen,html.Screen,2_3_1_0_1_38,2022-04-25T17:11:51.275Z,,,,,,,,,,,,,,,,,12,,,,,,,,,,,,,,-205,,response,,,,5,B,,,,,,Space,keypress(Space),,,,lyrical,,,,---- ------ ------ ------- ------ --- ------- -----------<br>-- ----- --- ---- -- --- ------ ---- - ---- -- ----------<br>-- ------ ---- --- ---- --- --- --- ----- -- -------- ---<br>------ ------- -------- --- ---- -- unusual ------------ --<br>------ -- ---- -- --- ---- -- -------- -- --- ------ ------,257304.00000000003,256589,256794,256778.00000000003,256810,257327,,38,unusual
screen,html.Screen,2_3_1_0_1_39,2022-04-25T17:11:52.220Z,,,,,,,,,,,,,,,,,12,,,,,,,,,,,,,,222.0000000000291,,response,,,,5,B,,,,,,Space,keypress(Space),,,,lyrical,,,,---- ------ ------ ------- ------ --- ------- -----------<br>-- ----- --- ---- -- --- ------ ---- - ---- -- ----------<br>-- ------ ---- --- ---- --- --- --- ----- -- -------- ---<br>------ ------- -------- --- ---- -- ------- stipulation: --<br>------ -- ---- -- --- ---- -- -------- -- --- ------ ------,258248,257533.00000000003,257311,257304.00000000003,257327,258278,,39,stipulation:
screen,html.Screen,2_3_1_0_1_40,2022-04-25T17:11:52.907Z,,,,,,,,,,,,,,,,,12,,,,,,,,,,,,,,-41.999999999970896,,response,,,,5,B,,,,,,Space,keypress(Space),,,,lyrical,,,,---- ------ ------ ------- ------ --- ------- -----------<br>-- ----- --- ---- -- --- ------ ---- - ---- -- ----------<br>-- ------ ---- --- ---- --- --- --- ----- -- -------- ---<br>------ ------- -------- --- ---- -- ------- ------------ He<br>------ -- ---- -- --- ---- -- -------- -- --- ------ ------,258935.99999999997,258220.00000000003,258262,258248,258278,258961,,40,He
screen,html.Screen,2_3_1_0_1_41,2022-04-25T17:11:53.480Z,,,,,,,,,,,,,,,,,12,,,,,,,,,,,,,,-152,,response,,,,5,B,,,,,,Space,keypress(Space),,,,lyrical,,,,---- ------ ------ ------- ------ --- ------- -----------<br>-- ----- --- ---- -- --- ------ ---- - ---- -- ----------<br>-- ------ ---- --- ---- --- --- --- ----- -- -------- ---<br>------ ------- -------- --- ---- -- ------- ------------ --<br>wanted -- ---- -- --- ---- -- -------- -- --- ------ ------,259507.99999999997,258793,258945,258935.99999999997,258961,259546,,41,wanted
screen,html.Screen,2_3_1_0_1_42,2022-04-25T17:11:54.028Z,,,,,,,,,,,,,,,,,12,,,,,,,,,,,,,,-187,,response,,,,5,B,,,,,,Space,keypress(Space),,,,lyrical,,,,---- ------ ------ ------- ------ --- ------- -----------<br>-- ----- --- ---- -- --- ------ ---- - ---- -- ----------<br>-- ------ ---- --- ---- --- --- --- ----- -- -------- ---<br>------ ------- -------- --- ---- -- ------- ------------ --<br>------ as ---- -- --- ---- -- -------- -- --- ------ ------,260055.99999999997,259341,259528,259507.99999999997,259546,260079,,42,as
screen,html.Screen,2_3_1_0_1_43,2022-04-25T17:11:54.635Z,,,,,,,,,,,,,,,,,12,,,,,,,,,,,,,,-114.0000000000291,,response,,,,5,B,,,,,,Space,keypress(Space),,,,lyrical,,,,---- ------ ------ ------- ------ --- ------- -----------<br>-- ----- --- ---- -- --- ------ ---- - ---- -- ----------<br>-- ------ ---- --- ---- --- --- --- ----- -- -------- ---<br>------ ------- -------- --- ---- -- ------- ------------ --<br>------ -- much -- --- ---- -- -------- -- --- ------ ------,260663,259947.99999999997,260062,260055.99999999997,260079,260696,,43,much
screen,html.Screen,2_3_1_0_1_44,2022-04-25T17:11:55.103Z,,,,,,,,,,,,,,,,,12,,,,,,,,,,,,,,-264,,response,,,,5,B,,,,,,Space,keypress(Space),,,,lyrical,,,,---- ------ ------ ------- ------ --- ------- -----------<br>-- ----- --- ---- -- --- ------ ---- - ---- -- ----------<br>-- ------ ---- --- ---- --- --- --- ----- -- -------- ---<br>------ ------- -------- --- ---- -- ------- ------------ --<br>------ -- ---- of --- ---- -- -------- -- --- ------ ------,261131.00000000003,260416,260680,260663,260696,261163,,44,of
screen,html.Screen,2_3_1_0_1_45,2022-04-25T17:11:55.570Z,,,,,,,,,,,,,,,,,12,,,,,,,,,,,,,,-262,,response,,,,5,B,,,,,,Space,keypress(Space),,,,lyrical,,,,---- ------ ------ ------- ------ --- ------- -----------<br>-- ----- --- ---- -- --- ------ ---- - ---- -- ----------<br>-- ------ ---- --- ---- --- --- --- ----- -- -------- ---<br>------ ------- -------- --- ---- -- ------- ------------ --<br>------ -- ---- -- the ---- -- -------- -- --- ------ ------,261599,260884,261146,261131.00000000003,261163,261629,,45,the
screen,html.Screen,2_3_1_0_1_46,2022-04-25T17:11:56.026Z,,,,,,,,,,,,,,,,,12,,,,,,,,,,,,,,-274,,response,,,,5,B,,,,,,Space,keypress(Space),,,,lyrical,,,,---- ------ ------ ------- ------ --- ------- -----------<br>-- ----- --- ---- -- --- ------ ---- - ---- -- ----------<br>-- ------ ---- --- ---- --- --- --- ----- -- -------- ---<br>------ ------- -------- --- ---- -- ------- ------------ --<br>------ -- ---- -- --- cash -- -------- -- --- ------ ------,262055,261339,261613,261599,261629,262080,,46,cash
screen,html.Screen,2_3_1_0_1_47,2022-04-25T17:11:56.467Z,,,,,,,,,,,,,,,,,12,,,,,,,,,,,,,,-284,,response,,,,5,B,,,,,,Space,keypress(Space),,,,lyrical,,,,---- ------ ------ ------- ------ --- ------- -----------<br>-- ----- --- ---- -- --- ------ ---- - ---- -- ----------<br>-- ------ ---- --- ---- --- --- --- ----- -- -------- ---<br>------ ------- -------- --- ---- -- ------- ------------ --<br>------ -- ---- -- --- ---- as -------- -- --- ------ ------,262495,261779,262063,262055,262080,262530,,47,as
screen,html.Screen,2_3_1_0_1_48,2022-04-25T17:11:57.051Z,,,,,,,,,,,,,,,,,12,,,,,,,,,,,,,,-152,,response,,,,5,B,,,,,,Space,keypress(Space),,,,lyrical,,,,---- ------ ------ ------- ------ --- ------- -----------<br>-- ----- --- ---- -- --- ------ ---- - ---- -- ----------<br>-- ------ ---- --- ---- --- --- --- ----- -- -------- ---<br>------ ------- -------- --- ---- -- ------- ------------ --<br>------ -- ---- -- --- ---- -- possible -- --- ------ ------,263079,262362,262514,262495,262530,263113,,48,possible
screen,html.Screen,2_3_1_0_1_49,2022-04-25T17:11:57.533Z,,,,,,,,,,,,,,,,,12,,,,,,,,,,,,,,-252,,response,,,,5,B,,,,,,Space,keypress(Space),,,,lyrical,,,,---- ------ ------ ------- ------ --- ------- -----------<br>-- ----- --- ---- -- --- ------ ---- - ---- -- ----------<br>-- ------ ---- --- ---- --- --- --- ----- -- -------- ---<br>------ ------- -------- --- ---- -- ------- ------------ --<br>------ -- ---- -- --- ---- -- -------- in --- ------ ------,263561,262845,263097,263079,263113,263598,,49,in
screen,html.Screen,2_3_1_0_1_50,2022-04-25T17:11:58.026Z,,,,,,,,,,,,,,,,,12,,,,,,,,,,,,,,-244,,response,,,,5,B,,,,,,Space,keypress(Space),,,,lyrical,,,,---- ------ ------ ------- ------ --- ------- -----------<br>-- ----- --- ---- -- --- ------ ---- - ---- -- ----------<br>-- ------ ---- --- ---- --- --- --- ----- -- -------- ---<br>------ ------- -------- --- ---- -- ------- ------------ --<br>------ -- ---- -- --- ---- -- -------- -- one ------ ------,264054.00000000006,263337,263581,263561,263598,264082,,50,one
screen,html.Screen,2_3_1_0_1_51,2022-04-25T17:11:58.579Z,,,,,,,,,,,,,,,,,12,,,,,,,,,,,,,,-175,,response,,,,5,B,,,,,,Space,keypress(Space),,,,lyrical,,,,---- ------ ------ ------- ------ --- ------- -----------<br>-- ----- --- ---- -- --- ------ ---- - ---- -- ----------<br>-- ------ ---- --- ---- --- --- --- ----- -- -------- ---<br>------ ------- -------- --- ---- -- ------- ------------ --<br>------ -- ---- -- --- ---- -- -------- -- --- dollar ------,264607,263889,264064,264054.00000000006,264082,264638,,51,dollar
screen,html.Screen,2_3_1_0_1_52,2022-04-25T17:11:59.388Z,,,,,,,,,,,,,,,,,12,,,,,,,,,,,,,,87,,response,,,,5,B,,,,,,Space,keypress(Space),,,,lyrical,,,,---- ------ ------ ------- ------ --- ------- -----------<br>-- ----- --- ---- -- --- ------ ---- - ---- -- ----------<br>-- ------ ---- --- ---- --- --- --- ----- -- -------- ---<br>------ ------- -------- --- ---- -- ------- ------------ --<br>------ -- ---- -- --- ---- -- -------- -- --- ------ notes.,265416,264701,264614,264607,264638,265449,,52,notes.
Item 5,flow.Loop,2_3_1_0_1,2022-04-25T17:11:59.388Z,,,,,,,,,,,,,,,,,,,,,,,,,,,,,,,30168,,completion,,,,,,,,,,,,,,,,,,,,,265416,264701,234517,234517,234533,265449,,,
Question 1,html.Screen,2_3_1_0_2,2022-04-25T17:12:02.622Z,,,,,,,,,,,,,,,,,,,,,,,,,,,,true,TRUE,,2495,,response,,,,5,B,,,,,,TRUE,click #choice-1,,,,lyrical,,,,,268650,267927,265432,265416,265449,268683,,,
Question 2,html.Screen,2_3_1_0_3,2022-04-25T17:12:05.559Z,,,,,,,,,,,,,,,,,,,,,,,,,,,,true,TRUE,,2187,,response,,,,5,B,,,,,,TRUE,click #choice-1,,,,lyrical,,,,,271587,270853,268666,268650,268683,271618,,,
Item 5,flow.Sequence,2_3_1_0,2022-04-25T17:12:05.560Z,,,,,,,,,,,,,,,,,,,,,,,,,,,,,,,43322,,completion,,,,,,,,,,,,,,,,,,,,,271587,270853,227513,227513,227531,271618,,,
Holding screen,html.Screen,2_3_1_1_0,2022-04-25T17:12:12.577Z,,,,,,,,,,,,,,,,,,,,,,,,,,,,,,,7002,,timeout,,,,,,,,,,,,,,,,,,,,,278605,278604,271601,271588,271618,278620,,,
screen,html.Screen,2_3_1_1_1_0,2022-04-25T17:12:13.708Z,,,,,,,,,,,,,,,,,51,,,,,,,,,,,,,,415,,response,,,,13,B,,,,,,Space,keypress(Space),,,,lyrical,,,,American -------- --- --- ---- --- --- ------ -- --------<br>---- --------- --- ------- ------------ ---------- ---------<br>--- ---------- ------- ---------- ------- -- -------- ----<br>---- --- ------ ----- ------ -- ---- --- ----- -- - -------<br>-------- -- --- --- -- ----- ----------- ----- -----------<br>---- --- ---------- --- ---- --- -- ----------,279736,279019,278604,278605,278620,279771,,0,American
screen,html.Screen,2_3_1_1_1_1,2022-04-25T17:12:14.415Z,,,,,,,,,,,,,,,,,51,,,,,,,,,,,,,,-28.999999999941792,,response,,,,13,B,,,,,,Space,keypress(Space),,,,lyrical,,,,-------- industry --- --- ---- --- --- ------ -- --------<br>---- --------- --- ------- ------------ ---------- ---------<br>--- ---------- ------- ---------- ------- -- -------- ----<br>---- --- ------ ----- ------ -- ---- --- ----- -- - -------<br>-------- -- --- --- -- ----- ----------- ----- -----------<br>---- --- ---------- --- ---- --- -- ----------,280442,279727.00000000006,279756,279736,279771,280472,,1,industry
screen,html.Screen,2_3_1_1_1_2,2022-04-25T17:12:15.153Z,,,,,,,,,,,,,,,,,51,,,,,,,,,,,,,,10.000000000058208,,response,,,,13,B,,,,,,Space,keypress(Space),,,,lyrical,,,,-------- -------- may --- ---- --- --- ------ -- --------<br>---- --------- --- ------- ------------ ---------- ---------<br>--- ---------- ------- ---------- ------- -- -------- ----<br>---- --- ------ ----- ------ -- ---- --- ----- -- - -------<br>-------- -- --- --- -- ----- ----------- ----- -----------<br>---- --- ---------- --- ---- --- -- ----------,281180,280465.00000000006,280455,280442,280472,281206,,2,may
screen,html.Screen,2_3_1_1_1_3,2022-04-25T17:12:15.847Z,,,,,,,,,,,,,,,,,51,,,,,,,,,,,,,,-31,,response,,,,13,B,,,,,,Space,keypress(Space),,,,lyrical,,,,-------- -------- --- not ---- --- --- ------ -- --------<br>---- --------- --- ------- ------------ ---------- ---------<br>--- ---------- ------- ---------- ------- -- -------- ----<br>---- --- ------ ----- ------ -- ---- --- ----- -- - -------<br>-------- -- --- --- -- ----- ----------- ----- -----------<br>---- --- ---------- --- ---- --- -- ----------,281875,281158,281189,281181,281206,281906,,3,not
screen,html.Screen,2_3_1_1_1_4,2022-04-25T17:12:16.425Z,,,,,,,,,,,,,,,,,51,,,,,,,,,,,,,,-153,,response,,,,13,B,,,,,,Space,keypress(Space),,,,lyrical,,,,-------- -------- --- --- know --- --- ------ -- --------<br>---- --------- --- ------- ------------ ---------- ---------<br>--- ---------- ------- ---------- ------- -- -------- ----<br>---- --- ------ ----- ------ -- ---- --- ----- -- - -------<br>-------- -- --- --- -- ----- ----------- ----- -----------<br>---- --- ---------- --- ---- --- -- ----------,282452,281737,281890,281875,281906,282490,,4,know
screen,html.Screen,2_3_1_1_1_5,2022-04-25T17:12:16.984Z,,,,,,,,,,,,,,,,,51,,,,,,,,,,,,,,-177,,response,,,,13,B,,,,,,Space,keypress(Space),,,,lyrical,,,,"-------- -------- --- --- ---- it, --- ------ -- --------<br>---- --------- --- ------- ------------ ---------- ---------<br>--- ---------- ------- ---------- ------- -- -------- ----<br>---- --- ------ ----- ------ -- ---- --- ----- -- - -------<br>-------- -- --- --- -- ----- ----------- ----- -----------<br>---- --- ---------- --- ---- --- -- ----------",283011,282296,282473,282452,282490,283039,,5,"it,"
