sender,sender_type,sender_id,timestamp,meta,,Blues,Classical,Country,Dance,Electronic,Folk,Gospel,Hip-Hop,Jazz,Latin,Musical/Film,New-age,Pop,Prolific_id,Provo_ID,R&B,Rap,Reggae,Religious,Rock,Soul,Swing,Traditional,age,artist_name,correct,correctResponse,distraction,duration,education,ended_on,familiarity,gender,headphone_check_performance,item,list,music_frequency,offensiveness,pleasantness,position_correct,preference,response,response_action,snippet_file,song_name,song_rating,sound,stimulus_1,stimulus_2,stimulus_3,text,time_commit,time_end,time_render,time_run,time_show,time_switch,url,word,word_ID
Prolific ID,html.Form,0,2022-04-25T14:21:37.369Z,"{""labjs_version"":""20.2.2"",""labjs_build"":{""flavor"":""production"",""commit"":""a25486e0c714a0ae2ce03ff94b7bb6896854dcfa""},""location"":""https://run.pavlovia.org/mvasilev/prolific3_music_a/"",""userAgent"":""Mozilla/5.0 (Windows NT 10.0; Win64; x64) AppleWebKit/537.36 (KHTML, like Gecko) Chrome/100.0.4896.127 Safari/537.36"",""platform"":""Win32"",""language"":""en-GB"",""locale"":""en-GB"",""timeZone"":""Europe/London"",""timezoneOffset"":-60,""screen_width"":1366,""screen_height"":768,""scroll_width"":1366,""scroll_height"":615,""window_innerWidth"":1366,""window_innerHeight"":663,""devicePixelRatio"":1}",,,,,,,,,,,,,,,60d0a967955501a6a76b2bb7,,,,,,,,,,,,,,,18867.44500019074,,form submission,,,,,,,,,,,,,,,,,,,,,117333.40000009537,117331.30000019073,89055.615,85940.30000019073,98463.855,118790.458,{},,
Introduction,html.Screen,1_0,2022-04-25T14:21:41.983Z,,,,,,,,,,,,,,,,,,,,,,,,,,,,,,,3143.742000047685,,response,,,,,,,,,,,continue,click button,,,,,,,,,121940.70000004768,121934.20000004768,117158.921,117334.40000009537,118790.458,122169.883,,,
Volume calibration,html.Screen,1_1,2022-04-25T14:21:53.703Z,,,,,,,,,,,,,,,,,,,,,,,,,,,,,,,11484.116999999998,,response,,,,,,,,,,,continue,click button,,,,,,,,,133661.10000014305,133654,121936.896,121941.20000004768,122169.883,133656.709,,,
Task instructions,html.Screen,1_2,2022-04-25T14:22:00.373Z,,,,,,,,,,,,,,,,,,,,,,,,,,,,,,,6672.491000047681,,response,,,,,,,,,,,continue,click button,,,,,,,,,140331.20000004768,140329.20000004768,133640.317,133661.40000009537,133656.709,140332.336,,,
Sounds,html.Screen,1_3_0_0,2022-04-25T14:22:04.633Z,,,,,,,,,,,,,,,,,,,,,,,,,,,,,,,4261.794999999984,,timeout,,,,,,,,,1,,,,,,,,S,O,I,,144591.10000014305,144560.844,140315.805,140331.60000014305,140332.336,144594.131,,,
Judgement,html.Screen,1_3_0_1,2022-04-25T14:22:06.035Z,,,,,,,,,,,,,,,,,,,,,,,,,,,,true,1,,1396.169000190741,,response,,,,,,,,,1,,1,click #choice-1,,,,,S,O,I,,145992.70000004768,145990.30000019073,144560.844,144591.5,144594.131,145992.469,,,
Trial,flow.Sequence,1_3_0,2022-04-25T14:22:06.036Z,,,,,,,,,,,,,,,,,,,,,,,,,,,,,,,5657.964000190725,,completion,,,,,,,,,1,,,,,,,,S,O,I,,145993.70000004768,145990.30000019073,140315.805,140331.5,140332.336,145992.469,,,
Sounds,html.Screen,1_3_1_0,2022-04-25T14:22:10.264Z,,,,,,,,,,,,,,,,,,,,,,,,,,,,,,,4245.260999999999,,timeout,,,,,,,,,2,,,,,,,,I,S,O,,150222.30000019073,150221.043,145975.962,145994.20000004768,145992.469,150237.73,,,
Judgement,html.Screen,1_3_1_1,2022-04-25T14:22:10.671Z,,,,,,,,,,,,,,,,,,,,,,,,,,,,true,2,,388.97000004767324,,response,,,,,,,,,2,,2,click #choice-2,,,,,I,S,O,,150628.90000009537,150626.70000004768,150221.043,150222.70000004768,150237.73,150687.146,,,
Trial,flow.Sequence,1_3_1,2022-04-25T14:22:10.736Z,,,,,,,,,,,,,,,,,,,,,,,,,,,,,,,4634.231000047672,,completion,,,,,,,,,2,,,,,,,,I,S,O,,150694.10000014305,150626.70000004768,145975.962,145994.10000014305,145992.469,150687.146,,,
Sounds,html.Screen,1_3_2_0,2022-04-25T14:22:14.960Z,,,,,,,,,,,,,,,,,,,,,,,,,,,,,,,4245.063999999984,,timeout,,,,,,,,,3,,,,,,,,O,I,S,,154917.80000019073,154915.803,150620.552,150694.80000019073,150687.146,154932.21,,,
Judgement,html.Screen,1_3_2_1,2022-04-25T14:22:15.465Z,,,,,,,,,,,,,,,,,,,,,,,,,,,,true,3,,488.99000004769186,,response,,,,,,,,,3,,3,click #choice-3,,,,,O,I,S,,155423.20000004768,155421.20000004768,154915.803,154918.10000014305,154932.21,155431.642,,,
Trial,flow.Sequence,1_3_2,2022-04-25T14:22:15.466Z,,,,,,,,,,,,,,,,,,,,,,,,,,,,,,,4734.054000047676,,completion,,,,,,,,,3,,,,,,,,O,I,S,,155423.80000019073,155421.20000004768,150620.552,150694.60000014305,150687.146,155431.642,,,
Sounds,html.Screen,1_3_3_0,2022-04-25T14:22:19.704Z,,,,,,,,,,,,,,,,,,,,,,,,,,,,,,,4245.116000000009,,timeout,,,,,,,,,1,,,,,,,,S,I,O,,159661.5,159660.133,155415.167,155424.20000004768,155431.642,159676.758,,,
Judgement,html.Screen,1_3_3_1,2022-04-25T14:22:20.392Z,,,,,,,,,,,,,,,,,,,,,,,,,,,,true,1,,670.2419999999984,,response,,,,,,,,,1,,1,click #choice-1,,,,,S,I,O,,160349.90000009537,160347,159660.133,159661.70000004768,159676.758,160359.37,,,
Trial,flow.Sequence,1_3_3,2022-04-25T14:22:20.393Z,,,,,,,,,,,,,,,,,,,,,,,,,,,,,,,4915.358000000007,,completion,,,,,,,,,1,,,,,,,,S,I,O,,160350.5,160347,155415.167,155424.10000014305,155431.642,160359.37,,,
Sounds,html.Screen,1_3_4_0,2022-04-25T14:22:24.632Z,,,,,,,,,,,,,,,,,,,,,,,,,,,,,,,4245.004000000015,,timeout,,,,,,,,,3,,,,,,,,I,O,S,,164589.80000019073,164587.865,160342.931,160350.90000009537,160359.37,164604.374,,,
Judgement,html.Screen,1_3_4_1,2022-04-25T14:22:25.036Z,,,,,,,,,,,,,,,,,,,,,,,,,,,,true,3,,388.0260000953567,,response,,,,,,,,,3,,3,click #choice-3,,,,,I,O,S,,164994.20000004768,164992.40000009537,164587.865,164590,164604.374,165003.94,,,
Trial,flow.Sequence,1_3_4,2022-04-25T14:22:25.037Z,,,,,,,,,,,,,,,,,,,,,,,,,,,,,,,4633.030000095372,,completion,,,,,,,,,3,,,,,,,,I,O,S,,164994.60000014305,164992.40000009537,160342.931,160350.80000019073,160359.37,165003.94,,,
Sounds,html.Screen,1_3_5_0,2022-04-25T14:22:29.276Z,,,,,,,,,,,,,,,,,,,,,,,,,,,,,,,4245.641000000003,,timeout,,,,,,,,,2,,,,,,,,O,S,I,,169233.80000019073,169232.587,164987.648,164994.90000009537,165003.94,169249.581,,,
Judgement,html.Screen,1_3_5_1,2022-04-25T14:22:29.754Z,,,,,,,,,,,,,,,,,,,,,,,,,,,,true,2,,459.4189999999944,,response,,,,,,,,,2,,2,click #choice-2,,,,,O,S,I,,169711.90000009537,169709,169232.587,169234,169249.581,169815.139,,,
Trial,flow.Sequence,1_3_5,2022-04-25T14:22:29.754Z,,,,,,,,,,,,,,,,,,,,,,,,,,,,,,,4705.059999999998,,completion,,,,,,,,,2,,,,,,,,O,S,I,,169712.30000019073,169709,164987.648,164994.80000019073,165003.94,169815.139,,,
Task,flow.Loop,1_3,2022-04-25T14:22:29.766Z,,,,,,,,,,,,,,,,,,,,,,,,,,,,,,,29376.66399999999,,completion,,,1,,,,,,,,,,,,,,,,,,169723.5,169709,140315.805,140331.40000009537,140332.336,169815.139,,,
Trap,html.Screen,1_4,2022-04-25T14:22:29.823Z,,,,,,,,,,,,,,,,,,,,,,,,,,,,,,,NaN,,skipped,,,,,,,,,,,,,,,,,,,,,169780.70000004768,169709,,169780.30000019073,,169815.139,,,
Thanks,html.Screen,1_5,2022-04-25T14:22:33.573Z,,,,,,,,,,,,,,,,,,,,,,,,,,,,,,,3713.9610001430556,,response,,,,,,,,,,,continue,click button,,,,,,,,,173531.20000004768,173529.10000014305,169698.916,169781,169815.139,177173.834,,,
Headphone screening,flow.Sequence,1,2022-04-25T14:22:33.574Z,,,,,,,,,,,,,,,,,,,,,,,,,,,,,,,54738.64200014305,,completion,,,,,,,,,,,,,,,,,,,,,173531.60000014305,173529.10000014305,117158.921,117334.20000004768,118790.458,177173.834,,,
Instructions,html.Page,2_0,2022-04-25T14:22:46.263Z,,,,,,,,,,,,,,,,,,,,,,,,,,,,,,,9047.066000095365,,form submission,,,,,,,,,,,,,,,,,,,,,186221.80000019073,186220.90000009537,177140.351,177363,177173.834,186229.636,,,
Holding screen,html.Screen,2_1_0_0,2022-04-25T14:22:56.261Z,,,,,,,,,,,,,,,,,,,,,,,,,,,,,,,10820.883000000002,,timeout,,,,,,,,,,,,,,,,,,,,,196219.20000004768,196218.135,186196.591,186222.20000004768,186229.636,197050.519,,,
screen,html.Screen,2_1_0_1_0,2022-04-25T14:22:58.003Z,,,,,,,,,,,,,,,,,53,,,,,,,,,,,,,,886.0810001430509,,response,,,,99,,,,,,,Space,keypress(Space),,,,,,,,When -- ----- -- ------ - ------- --- ----------<br>------------- ------ ------ ---- ---- ------- ----- -- ----<br>-------- ------- -- ---------- --- - --- ----- ----- ----<br>---- --- --- ----- --- ---- ---- ------- ----- ---- -------<br>--- --- -- ----- -- --- ---- -- --- ---- -- ------ ------<br>--- ----- -- ----,197961.40000009537,197936.60000014305,196218.135,196219.80000019073,197050.519,197966.096,,0,When
screen,html.Screen,2_1_0_1_1,2022-04-25T14:22:58.361Z,,,,,,,,,,,,,,,,,53,,,,,,,,,,,,,,316.5040001430607,,response,,,,99,,,,,,,Space,keypress(Space),,,,,,,,---- it ----- -- ------ - ------- --- ----------<br>------------- ------ ------ ---- ---- ------- ----- -- ----<br>-------- ------- -- ---------- --- - --- ----- ----- ----<br>---- --- --- ----- --- ---- ---- ------- ----- ---- -------<br>--- --- -- ----- -- --- ---- -- --- ---- -- ------ ------<br>--- ----- -- ----,198319.70000004768,198282.60000014305,197950.473,197961.80000019073,197966.096,198332.367,,1,it
screen,html.Screen,2_1_0_1_2,2022-04-25T14:22:58.685Z,,,,,,,,,,,,,,,,,53,,,,,,,,,,,,,,309.9330001907365,,response,,,,99,,,,,,,Space,keypress(Space),,,,,,,,---- -- comes -- ------ - ------- --- ----------<br>------------- ------ ------ ---- ---- ------- ----- -- ----<br>-------- ------- -- ---------- --- - --- ----- ----- ----<br>---- --- --- ----- --- ---- ---- ------- ----- ---- -------<br>--- --- -- ----- -- --- ---- -- --- ---- -- ------ ------<br>--- ----- -- ----,198643.5,198642.30000019073,198316.019,198320.10000014305,198332.367,198648.642,,2,comes
screen,html.Screen,2_1_0_1_3,2022-04-25T14:22:59.002Z,,,,,,,,,,,,,,,,,53,,,,,,,,,,,,,,308.7580000953749,,response,,,,99,,,,,,,Space,keypress(Space),,,,,,,,---- -- ----- to ------ - ------- --- ----------<br>------------- ------ ------ ---- ---- ------- ----- -- ----<br>-------- ------- -- ---------- --- - --- ----- ----- ----<br>---- --- --- ----- --- ---- ---- ------- ----- ---- -------<br>--- --- -- ----- -- --- ---- -- --- ---- -- ------ ------<br>--- ----- -- ----,198960.20000004768,198957.40000009537,198632.426,198643.80000019073,198648.642,198965.009,,3,to
screen,html.Screen,2_1_0_1_4,2022-04-25T14:22:59.324Z,,,,,,,,,,,,,,,,,53,,,,,,,,,,,,,,315.8910000953765,,response,,,,99,,,,,,,Space,keypress(Space),,,,,,,,---- -- ----- -- having - ------- --- ----------<br>------------- ------ ------ ---- ---- ------- ----- -- ----<br>-------- ------- -- ---------- --- - --- ----- ----- ----<br>---- --- --- ----- --- ---- ---- ------- ----- ---- -------<br>--- --- -- ----- -- --- ---- -- --- ---- -- ------ ------<br>--- ----- -- ----,199282.30000019073,199280.90000009537,198948.613,198960.60000014305,198965.009,199297.932,,4,having
screen,html.Screen,2_1_0_1_5,2022-04-25T14:22:59.624Z,,,,,,,,,,,,,,,,,53,,,,,,,,,,,,,,282.86800019073416,,response,,,,99,,,,,,,Space,keypress(Space),,,,,,,,---- -- ----- -- ------ a ------- --- ----------<br>------------- ------ ------ ---- ---- ------- ----- -- ----<br>-------- ------- -- ---------- --- - --- ----- ----- ----<br>---- --- --- ----- --- ---- ---- ------- ----- ---- -------<br>--- --- -- ----- -- --- ---- -- --- ---- -- ------ ------<br>--- ----- -- ----,199582.5,199580.80000019073,199281.556,199282.60000014305,199297.932,199597.724,,5,a
screen,html.Screen,2_1_0_1_6,2022-04-25T14:22:59.939Z,,,,,,,,,,,,,,,,,53,,,,,,,,,,,,,,297.67600009538,,response,,,,99,,,,,,,Space,keypress(Space),,,,,,,,---- -- ----- -- ------ - lasting --- ----------<br>------------- ------ ------ ---- ---- ------- ----- -- ----<br>-------- ------- -- ---------- --- - --- ----- ----- ----<br>---- --- --- ----- --- ---- ---- ------- ----- ---- -------<br>--- --- -- ----- -- --- ---- -- --- ---- -- ------ ------<br>--- ----- -- ----,199897.60000014305,199895.40000009537,199581.235,199582.90000009537,199597.724,199914.154,,6,lasting
screen,html.Screen,2_1_0_1_7,2022-04-25T14:23:00.218Z,,,,,,,,,,,,,,,,,53,,,,,,,,,,,,,,260.34599999999045,,response,,,,99,,,,,,,Space,keypress(Space),,,,,,,,---- -- ----- -- ------ - ------- and ----------<br>------------- ------ ------ ---- ---- ------- ----- -- ----<br>-------- ------- -- ---------- --- - --- ----- ----- ----<br>---- --- --- ----- --- ---- ---- ------- ----- ---- -------<br>--- --- -- ----- -- --- ---- -- --- ---- -- ------ ------<br>--- ----- -- ----,200175.90000009537,200174.5,199897.75,199898,199914.154,200180.268,,7,and
screen,html.Screen,2_1_0_1_8,2022-04-25T14:23:00.482Z,,,,,,,,,,,,,,,,,53,,,,,,,,,,,,,,258.3320001430402,,response,,,,99,,,,,,,Space,keypress(Space),,,,,,,,---- -- ----- -- ------ - ------- --- fulfilling<br>------------- ------ ------ ---- ---- ------- ----- -- ----<br>-------- ------- -- ---------- --- - --- ----- ----- ----<br>---- --- --- ----- --- ---- ---- ------- ----- ---- -------<br>--- --- -- ----- -- --- ---- -- --- ---- -- ------ ------<br>--- ----- -- ----,200440,200438.60000014305,200164.09,200176.30000019073,200180.268,200446.618,,8,fulfilling
screen,html.Screen,2_1_0_1_9,2022-04-25T14:23:00.997Z,,,,,,,,,,,,,,,,,53,,,,,,,,,,,,,,506.7820000953798,,response,,,,99,,,,,,,Space,keypress(Space),,,,,,,,"---- -- ----- -- ------ - ------- --- ----------<br>relationship, ------ ------ ---- ---- ------- ----- -- ----<br>-------- ------- -- ---------- --- - --- ----- ----- ----<br>---- --- --- ----- --- ---- ---- ------- ----- ---- -------<br>--- --- -- ----- -- --- ---- -- --- ---- -- ------ ------<br>--- ----- -- ----",200955.5,200953.40000009537,200430.241,200440.20000004768,200446.618,200962.672,,9,"relationship,"
screen,html.Screen,2_1_0_1_10,2022-04-25T14:23:01.312Z,,,,,,,,,,,,,,,,,53,,,,,,,,,,,,,,305.6280001907435,,response,,,,99,,,,,,,Space,keypress(Space),,,,,,,,---- -- ----- -- ------ - ------- --- ----------<br>------------- common ------ ---- ---- ------- ----- -- ----<br>-------- ------- -- ---------- --- - --- ----- ----- ----<br>---- --- --- ----- --- ---- ---- ------- ----- ---- -------<br>--- --- -- ----- -- --- ---- -- --- ---- -- ------ ------<br>--- ----- -- ----,201270.5,201268.30000019073,200946.757,200955.70000004768,200962.672,201278.938,,10,common
screen,html.Screen,2_1_0_1_11,2022-04-25T14:23:01.591Z,,,,,,,,,,,,,,,,,53,,,,,,,,,,,,,,269.1620001430565,,response,,,,99,,,,,,,Space,keypress(Space),,,,,,,,---- -- ----- -- ------ - ------- --- ----------<br>------------- ------ wisdom ---- ---- ------- ----- -- ----<br>-------- ------- -- ---------- --- - --- ----- ----- ----<br>---- --- --- ----- --- ---- ---- ------- ----- ---- -------<br>--- --- -- ----- -- --- ---- -- --- ---- -- ------ ------<br>--- ----- -- ----,201549.80000019073,201548.10000014305,201262.633,201271,201278.938,201562.119,,11,wisdom
screen,html.Screen,2_1_0_1_12,2022-04-25T14:23:01.881Z,,,,,,,,,,,,,,,,,53,,,,,,,,,,,,,,274.7810000953614,,response,,,,99,,,,,,,Space,keypress(Space),,,,,,,,---- -- ----- -- ------ - ------- --- ----------<br>------------- ------ ------ says ---- ------- ----- -- ----<br>-------- ------- -- ---------- --- - --- ----- ----- ----<br>---- --- --- ----- --- ---- ---- ------- ----- ---- -------<br>--- --- -- ----- -- --- ---- -- --- ---- -- ------ ------<br>--- ----- -- ----,201839.40000009537,201836.90000009537,201545.585,201550.20000004768,201562.119,201845.016,,12,says
screen,html.Screen,2_1_0_1_13,2022-04-25T14:23:02.155Z,,,,,,,,,,,,,,,,,53,,,,,,,,,,,,,,266.18400004768046,,response,,,,99,,,,,,,Space,keypress(Space),,,,,,,,---- -- ----- -- ------ - ------- --- ----------<br>------------- ------ ------ ---- that ------- ----- -- ----<br>-------- ------- -- ---------- --- - --- ----- ----- ----<br>---- --- --- ----- --- ---- ---- ------- ----- ---- -------<br>--- --- -- ----- -- --- ---- -- --- ---- -- ------ ------<br>--- ----- -- ----,202113.20000004768,202111.20000004768,201828.696,201839.70000004768,201845.016,202128.28,,13,that
screen,html.Screen,2_1_0_1_14,2022-04-25T14:23:02.385Z,,,,,,,,,,,,,,,,,53,,,,,,,,,,,,,,212.22000000000116,,response,,,,99,,,,,,,Space,keypress(Space),,,,,,,,---- -- ----- -- ------ - ------- --- ----------<br>------------- ------ ------ ---- ---- feeling ----- -- ----<br>-------- ------- -- ---------- --- - --- ----- ----- ----<br>---- --- --- ----- --- ---- ---- ------- ----- ---- -------<br>--- --- -- ----- -- --- ---- -- --- ---- -- ------ ------<br>--- ----- -- ----,202342.90000009537,202340.5,202111.586,202113.60000014305,202128.28,202361.13,,14,feeling
screen,html.Screen,2_1_0_1_15,2022-04-25T14:23:02.749Z,,,,,,,,,,,,,,,,,53,,,,,,,,,,,,,,343.7700000953628,,response,,,,99,,,,,,,Space,keypress(Space),,,,,,,,---- -- ----- -- ------ - ------- --- ----------<br>------------- ------ ------ ---- ---- ------- close -- ----<br>-------- ------- -- ---------- --- - --- ----- ----- ----<br>---- --- --- ----- --- ---- ---- ------- ----- ---- -------<br>--- --- -- ----- -- --- ---- -- --- ---- -- ------ ------<br>--- ----- -- ----,202707.60000014305,202704.90000009537,202328.192,202343.30000019073,202361.13,202710.654,,15,close
screen,html.Screen,2_1_0_1_16,2022-04-25T14:23:03.019Z,,,,,,,,,,,,,,,,,53,,,,,,,,,,,,,,264.6460001907253,,response,,,,99,,,,,,,Space,keypress(Space),,,,,,,,---- -- ----- -- ------ - ------- --- ----------<br>------------- ------ ------ ---- ---- ------- ----- to ----<br>-------- ------- -- ---------- --- - --- ----- ----- ----<br>---- --- --- ----- --- ---- ---- ------- ----- ---- -------<br>--- --- -- ----- -- --- ---- -- --- ---- -- ------ ------<br>--- ----- -- ----,202977.70000004768,202975.30000019073,202694.348,202707.90000009537,202710.654,202993.935,,16,to
screen,html.Screen,2_1_0_1_17,2022-04-25T14:23:03.267Z,,,,,,,,,,,,,,,,,53,,,,,,,,,,,,,,229.8650001907372,,response,,,,99,,,,,,,Space,keypress(Space),,,,,,,,---- -- ----- -- ------ - ------- --- ----------<br>------------- ------ ------ ---- ---- ------- ----- -- your<br>-------- ------- -- ---------- --- - --- ----- ----- ----<br>---- --- --- ----- --- ---- ---- ------- ----- ---- -------<br>--- --- -- ----- -- --- ---- -- --- ---- -- ------ ------<br>--- ----- -- ----,203225.80000019073,203223.80000019073,202977.358,202978,202993.935,203243.619,,17,your
screen,html.Screen,2_1_0_1_18,2022-04-25T14:23:03.599Z,,,,,,,,,,,,,,,,,53,,,,,,,,,,,,,,310.08100004767766,,response,,,,99,,,,,,,Space,keypress(Space),,,,,,,,---- -- ----- -- ------ - ------- --- ----------<br>------------- ------ ------ ---- ---- ------- ----- -- ----<br>romantic ------- -- ---------- --- - --- ----- ----- ----<br>---- --- --- ----- --- ---- ---- ------- ----- ---- -------<br>--- --- -- ----- -- --- ---- -- --- ---- -- ------ ------<br>--- ----- -- ----,203557.40000009537,203553.70000004768,203227.146,203226.10000014305,203243.619,203582.379,,18,romantic
screen,html.Screen,2_1_0_1_19,2022-04-25T14:23:03.867Z,,,,,,,,,,,,,,,,,53,,,,,,,,,,,,,,240.22100014306488,,response,,,,99,,,,,,,Space,keypress(Space),,,,,,,,---- -- ----- -- ------ - ------- --- ----------<br>------------- ------ ------ ---- ---- ------- ----- -- ----<br>-------- partner -- ---------- --- - --- ----- ----- ----<br>---- --- --- ----- --- ---- ---- ------- ----- ---- -------<br>--- --- -- ----- -- --- ---- -- --- ---- -- ------ ------<br>--- ----- -- ----,203824.90000009537,203822.60000014305,203543.566,203557.60000014305,203582.379,203859.603,,19,partner
screen,html.Screen,2_1_0_1_20,2022-04-25T14:23:04.174Z,,,,,,,,,,,,,,,,,53,,,,,,,,,,,,,,271.99700014304835,,response,,,,99,,,,,,,Space,keypress(Space),,,,,,,,---- -- ----- -- ------ - ------- --- ----------<br>------------- ------ ------ ---- ---- ------- ----- -- ----<br>-------- ------- is ---------- --- - --- ----- ----- ----<br>---- --- --- ----- --- ---- ---- ------- ----- ---- -------<br>--- --- -- ----- -- --- ---- -- --- ---- -- ------ ------<br>--- ----- -- ----,204132.90000009537,204131.60000014305,203842.78,203825.30000019073,203859.603,204142.348,,20,is
screen,html.Screen,2_1_0_1_21,2022-04-25T14:23:04.464Z,,,,,,,,,,,,,,,,,53,,,,,,,,,,,,,,278.65200000000186,,response,,,,99,,,,,,,Space,keypress(Space),,,,,,,,---- -- ----- -- ------ - ------- --- ----------<br>------------- ------ ------ ---- ---- ------- ----- -- ----<br>-------- ------- -- paramount. --- - --- ----- ----- ----<br>---- --- --- ----- --- ---- ---- ------- ----- ---- -------<br>--- --- -- ----- -- --- ---- -- --- ---- -- ------ ------<br>--- ----- -- ----,204422.80000019073,204421,204125.991,204133.20000004768,204142.348,204425.352,,21,paramount.
screen,html.Screen,2_1_0_1_22,2022-04-25T14:23:04.948Z,,,,,,,,,,,,,,,,,53,,,,,,,,,,,,,,479.74800014303764,,response,,,,99,,,,,,,Space,keypress(Space),,,,,,,,---- -- ----- -- ------ - ------- --- ----------<br>------------- ------ ------ ---- ---- ------- ----- -- ----<br>-------- ------- -- ---------- But - --- ----- ----- ----<br>---- --- --- ----- --- ---- ---- ------- ----- ---- -------<br>--- --- -- ----- -- --- ---- -- --- ---- -- ------ ------<br>--- ----- -- ----,204906.80000019073,204905.10000014305,204408.953,204423.10000014305,204425.352,204924.753,,22,But
screen,html.Screen,2_1_0_1_23,2022-04-25T14:23:05.203Z,,,,,,,,,,,,,,,,,53,,,,,,,,,,,,,,235.24700000000303,,response,,,,99,,,,,,,Space,keypress(Space),,,,,,,,---- -- ----- -- ------ - ------- --- ----------<br>------------- ------ ------ ---- ---- ------- ----- -- ----<br>-------- ------- -- ---------- --- a --- ----- ----- ----<br>---- --- --- ----- --- ---- ---- ------- ----- ---- -------<br>--- --- -- ----- -- --- ---- -- --- ---- -- ------ ------<br>--- ----- -- ----,205161.90000009537,205160,204892.016,204907,204924.753,205174.782,,23,a
screen,html.Screen,2_1_0_1_24,2022-04-25T14:23:05.438Z,,,,,,,,,,,,,,,,,53,,,,,,,,,,,,,,219.51800019072834,,response,,,,99,,,,,,,Space,keypress(Space),,,,,,,,---- -- ----- -- ------ - ------- --- ----------<br>------------- ------ ------ ---- ---- ------- ----- -- ----<br>-------- ------- -- ---------- --- - new ----- ----- ----<br>---- --- --- ----- --- ---- ---- ------- ----- ---- -------<br>--- --- -- ----- -- --- ---- -- --- ---- -- ------ ------<br>--- ----- -- ----,205396,205394.30000019073,205158.058,205162.20000004768,205174.782,205407.566,,24,new
screen,html.Screen,2_1_0_1_25,2022-04-25T14:23:05.748Z,,,,,,,,,,,,,,,,,53,,,,,,,,,,,,,,296.23400019074325,,response,,,,99,,,,,,,Space,keypress(Space),,,,,,,,---- -- ----- -- ------ - ------- --- ----------<br>------------- ------ ------ ---- ---- ------- ----- -- ----<br>-------- ------- -- ---------- --- - --- study ----- ----<br>---- --- --- ----- --- ---- ---- ------- ----- ---- -------<br>--- --- -- ----- -- --- ---- -- --- ---- -- ------ ------<br>--- ----- -- ----,205706,205703.80000019073,205391.27,205397,205407.566,205724.109,,25,study
screen,html.Screen,2_1_0_1_26,2022-04-25T14:23:06.071Z,,,,,,,,,,,,,,,,,53,,,,,,,,,,,,,,303.7910000953707,,response,,,,99,,,,,,,Space,keypress(Space),,,,,,,,---- -- ----- -- ------ - ------- --- ----------<br>------------- ------ ------ ---- ---- ------- ----- -- ----<br>-------- ------- -- ---------- --- - --- ----- finds ----<br>---- --- --- ----- --- ---- ---- ------- ----- ---- -------<br>--- --- -- ----- -- --- ---- -- --- ---- -- ------ ------<br>--- ----- -- ----,206029.60000014305,206027.90000009537,205690.952,205706.20000004768,205724.109,206040.149,,26,finds
screen,html.Screen,2_1_0_1_27,2022-04-25T14:23:06.409Z,,,,,,,,,,,,,,,,,53,,,,,,,,,,,,,,323.25100009536254,,response,,,,99,,,,,,,Space,keypress(Space),,,,,,,,---- -- ----- -- ------ - ------- --- ----------<br>------------- ------ ------ ---- ---- ------- ----- -- ----<br>-------- ------- -- ---------- --- - --- ----- ----- that<br>---- --- --- ----- --- ---- ---- ------- ----- ---- -------<br>--- --- -- ----- -- --- ---- -- --- ---- -- ------ ------<br>--- ----- -- ----,206367.20000004768,206363.40000009537,206024.032,206029.80000019073,206040.149,206373.197,,27,that
screen,html.Screen,2_1_0_1_28,2022-04-25T14:23:07.109Z,,,,,,,,,,,,,,,,,53,,,,,,,,,,,,,,692.7030000953819,,response,,,,99,,,,,,,Space,keypress(Space),,,,,,,,---- -- ----- -- ------ - ------- --- ----------<br>------------- ------ ------ ---- ---- ------- ----- -- ----<br>-------- ------- -- ---------- --- - --- ----- ----- ----<br>it's --- --- ----- --- ---- ---- ------- ----- ---- -------<br>--- --- -- ----- -- --- ---- -- --- ---- -- ------ ------<br>--- ----- -- ----,207067.10000014305,207065.90000009537,206356.897,206367.5,206373.197,207072.271,,28,it's
screen,html.Screen,2_1_0_1_29,2022-04-25T14:23:07.534Z,,,,,,,,,,,,,,,,,53,,,,,,,,,,,,,,418.6290000953595,,response,,,,99,,,,,,,Space,keypress(Space),,,,,,,,---- -- ----- -- ------ - ------- --- ----------<br>------------- ------ ------ ---- ---- ------- ----- -- ----<br>-------- ------- -- ---------- --- - --- ----- ----- ----<br>---- not --- ----- --- ---- ---- ------- ----- ---- -------<br>--- --- -- ----- -- --- ---- -- --- ---- -- ------ ------<br>--- ----- -- ----,207492.60000014305,207490.90000009537,207056.344,207067.30000019073,207072.271,207505.408,,29,not
screen,html.Screen,2_1_0_1_30,2022-04-25T14:23:07.889Z,,,,,,,,,,,,,,,,,53,,,,,,,,,,,,,,339.69200014305534,,response,,,,99,,,,,,,Space,keypress(Space),,,,,,,,---- -- ----- -- ------ - ------- --- ----------<br>------------- ------ ------ ---- ---- ------- ----- -- ----<br>-------- ------- -- ---------- --- - --- ----- ----- ----<br>---- --- how ----- --- ---- ---- ------- ----- ---- -------<br>--- --- -- ----- -- --- ---- -- --- ---- -- ------ ------<br>--- ----- -- ----,207846.90000009537,207845.10000014305,207488.912,207492.90000009537,207505.408,207854.729,,30,how
screen,html.Screen,2_1_0_1_31,2022-04-25T14:23:08.243Z,,,,,,,,,,,,,,,,,53,,,,,,,,,,,,,,345.5710001907428,,response,,,,99,,,,,,,Space,keypress(Space),,,,,,,,---- -- ----- -- ------ - ------- --- ----------<br>------------- ------ ------ ---- ---- ------- ----- -- ----<br>-------- ------- -- ---------- --- - --- ----- ----- ----<br>---- --- --- close --- ---- ---- ------- ----- ---- -------<br>--- --- -- ----- -- --- ---- -- --- ---- -- ------ ------<br>--- ----- -- ----,208201.60000014305,208200.30000019073,207838.463,207847.20000004768,207854.729,208204.347,,31,close
screen,html.Screen,2_1_0_1_32,2022-04-25T14:23:08.594Z,,,,,,,,,,,,,,,,,53,,,,,,,,,,,,,,344.85300004767487,,response,,,,99,,,,,,,Space,keypress(Space),,,,,,,,---- -- ----- -- ------ - ------- --- ----------<br>------------- ------ ------ ---- ---- ------- ----- -- ----<br>-------- ------- -- ---------- --- - --- ----- ----- ----<br>---- --- --- ----- you ---- ---- ------- ----- ---- -------<br>--- --- -- ----- -- --- ---- -- --- ---- -- ------ ------<br>--- ----- -- ----,208552.70000004768,208549.20000004768,208188.026,208201.80000019073,208204.347,208587.647,,32,you
screen,html.Screen,2_1_0_1_33,2022-04-25T14:23:08.941Z,,,,,,,,,,,,,,,,,53,,,,,,,,,,,,,,310.0530000476865,,response,,,,99,,,,,,,Space,keypress(Space),,,,,,,,---- -- ----- -- ------ - ------- --- ----------<br>------------- ------ ------ ---- ---- ------- ----- -- ----<br>-------- ------- -- ---------- --- - --- ----- ----- ----<br>---- --- --- ----- --- feel ---- ------- ----- ---- -------<br>--- --- -- ----- -- --- ---- -- --- ---- -- ------ ------<br>--- ----- -- ----,208899.10000014305,208897.70000004768,208570.825,208553,208587.647,208903.549,,33,feel
screen,html.Screen,2_1_0_1_34,2022-04-25T14:23:09.375Z,,,,,,,,,,,,,,,,,53,,,,,,,,,,,,,,428.5510001430521,,response,,,,99,,,,,,,Space,keypress(Space),,,,,,,,---- -- ----- -- ------ - ------- --- ----------<br>------------- ------ ------ ---- ---- ------- ----- -- ----<br>-------- ------- -- ---------- --- - --- ----- ----- ----<br>---- --- --- ----- --- ---- that ------- ----- ---- -------<br>--- --- -- ----- -- --- ---- -- --- ---- -- ------ ------<br>--- ----- -- ----,209333.30000019073,209332.10000014305,208887.202,208899.30000019073,208903.549,209336.414,,34,that
screen,html.Screen,2_1_0_1_35,2022-04-25T14:23:09.679Z,,,,,,,,,,,,,,,,,53,,,,,,,,,,,,,,299.8860001907451,,response,,,,99,,,,,,,Space,keypress(Space),,,,,,,,---- -- ----- -- ------ - ------- --- ----------<br>------------- ------ ------ ---- ---- ------- ----- -- ----<br>-------- ------- -- ---------- --- - --- ----- ----- ----<br>---- --- --- ----- --- ---- ---- matters ----- ---- -------<br>--- --- -- ----- -- --- ---- -- --- ---- -- ------ ------<br>--- ----- -- ----,209637.90000009537,209636.30000019073,209320.144,209333.60000014305,209336.414,209652.761,,35,matters
screen,html.Screen,2_1_0_1_36,2022-04-25T14:23:10.060Z,,,,,,,,,,,,,,,,,53,,,,,,,,,,,,,,363.2390000000014,,response,,,,99,,,,,,,Space,keypress(Space),,,,,,,,"---- -- ----- -- ------ - ------- --- ----------<br>------------- ------ ------ ---- ---- ------- ----- -- ----<br>-------- ------- -- ---------- --- - --- ----- ----- ----<br>---- --- --- ----- --- ---- ---- ------- most, ---- -------<br>--- --- -- ----- -- --- ---- -- --- ---- -- ------ ------<br>--- ----- -- ----",210018.60000014305,210016,209636.282,209638.10000014305,209652.761,210035.878,,36,"most,"
screen,html.Screen,2_1_0_1_37,2022-04-25T14:23:10.492Z,,,,,,,,,,,,,,,,,53,,,,,,,,,,,,,,409.32200004768674,,response,,,,99,,,,,,,Space,keypress(Space),,,,,,,,---- -- ----- -- ------ - ------- --- ----------<br>------------- ------ ------ ---- ---- ------- ----- -- ----<br>-------- ------- -- ---------- --- - --- ----- ----- ----<br>---- --- --- ----- --- ---- ---- ------- ----- it's -------<br>--- --- -- ----- -- --- ---- -- --- ---- -- ------ ------<br>--- ----- -- ----,210450.5,210445.20000004768,210019.285,210019.10000014305,210035.878,210468.416,,37,it's
screen,html.Screen,2_1_0_1_38,2022-04-25T14:23:10.864Z,,,,,,,,,,,,,,,,,53,,,,,,,,,,,,,,351.08400000000256,,response,,,,99,,,,,,,Space,keypress(Space),,,,,,,,---- -- ----- -- ------ - ------- --- ----------<br>------------- ------ ------ ---- ---- ------- ----- -- ----<br>-------- ------- -- ---------- --- - --- ----- ----- ----<br>---- --- --- ----- --- ---- ---- ------- ----- ---- whether<br>--- --- -- ----- -- --- ---- -- --- ---- -- ------ ------<br>--- ----- -- ----,210822,210819.5,210435.738,210450.70000004768,210468.416,210834.947,,38,whether
screen,html.Screen,2_1_0_1_39,2022-04-25T14:23:11.219Z,,,,,,,,,,,,,,,,,53,,,,,,,,,,,,,,339.25300004769815,,response,,,,99,,,,,,,Space,keypress(Space),,,,,,,,---- -- ----- -- ------ - ------- --- ----------<br>------------- ------ ------ ---- ---- ------- ----- -- ----<br>-------- ------- -- ---------- --- - --- ----- ----- ----<br>---- --- --- ----- --- ---- ---- ------- ----- ---- -------<br>you --- -- ----- -- --- ---- -- --- ---- -- ------ ------<br>--- ----- -- ----,211177.70000004768,211174.20000004768,210818.316,210822.40000009537,210834.947,211184.392,,39,you
screen,html.Screen,2_1_0_1_40,2022-04-25T14:23:11.497Z,,,,,,,,,,,,,,,,,53,,,,,,,,,,,,,,268.9080001907423,,response,,,,99,,,,,,,Space,keypress(Space),,,,,,,,---- -- ----- -- ------ - ------- --- ----------<br>------------- ------ ------ ---- ---- ------- ----- -- ----<br>-------- ------- -- ---------- --- - --- ----- ----- ----<br>---- --- --- ----- --- ---- ---- ------- ----- ---- -------<br>--- are -- ----- -- --- ---- -- --- ---- -- ------ ------<br>--- ----- -- ----,211455.60000014305,211453.30000019073,211168.222,211178,211184.392,211467.688,,40,are
screen,html.Screen,2_1_0_1_41,2022-04-25T14:23:11.817Z,,,,,,,,,,,,,,,,,53,,,,,,,,,,,,,,305.31200000000536,,response,,,,99,,,,,,,Space,keypress(Space),,,,,,,,---- -- ----- -- ------ - ------- --- ----------<br>------------- ------ ------ ---- ---- ------- ----- -- ----<br>-------- ------- -- ---------- --- - --- ----- ----- ----<br>---- --- --- ----- --- ---- ---- ------- ----- ---- -------<br>--- --- as ----- -- --- ---- -- --- ---- -- ------ ------<br>--- ----- -- ----,211775.20000004768,211773,211450.914,211455.90000009537,211467.688,211783.542,,41,as
screen,html.Screen,2_1_0_1_42,2022-04-25T14:23:12.185Z,,,,,,,,,,,,,,,,,53,,,,,,,,,,,,,,358.5580001430644,,response,,,,99,,,,,,,Space,keypress(Space),,,,,,,,---- -- ----- -- ------ - ------- --- ----------<br>------------- ------ ------ ---- ---- ------- ----- -- ----<br>-------- ------- -- ---------- --- - --- ----- ----- ----<br>---- --- --- ----- --- ---- ---- ------- ----- ---- -------<br>--- --- -- close -- --- ---- -- --- ---- -- ------ ------<br>--- ----- -- ----,212143.60000014305,212142.10000014305,211767.415,211775.5,211783.542,212149.776,,42,close
screen,html.Screen,2_1_0_1_43,2022-04-25T14:23:12.494Z,,,,,,,,,,,,,,,,,53,,,,,,,,,,,,,,301.12400009535486,,response,,,,99,,,,,,,Space,keypress(Space),,,,,,,,---- -- ----- -- ------ - ------- --- ----------<br>------------- ------ ------ ---- ---- ------- ----- -- ----<br>-------- ------- -- ---------- --- - --- ----- ----- ----<br>---- --- --- ----- --- ---- ---- ------- ----- ---- -------<br>--- --- -- ----- as --- ---- -- --- ---- -- ------ ------<br>--- ----- -- ----,212452.10000014305,212450.90000009537,212133.472,212143.90000009537,212149.776,212466.165,,43,as
screen,html.Screen,2_1_0_1_44,2022-04-25T14:23:12.833Z,,,,,,,,,,,,,,,,,53,,,,,,,,,,,,,,324.03500004767557,,response,,,,99,,,,,,,Space,keypress(Space),,,,,,,,---- -- ----- -- ------ - ------- --- ----------<br>------------- ------ ------ ---- ---- ------- ----- -- ----<br>-------- ------- -- ---------- --- - --- ----- ----- ----<br>---- --- --- ----- --- ---- ---- ------- ----- ---- -------<br>--- --- -- ----- -- you ---- -- --- ---- -- ------ ------<br>--- ----- -- ----,212791.5,212790.20000004768,212449.773,212452.40000009537,212466.165,212799.068,,44,you
screen,html.Screen,2_1_0_1_45,2022-04-25T14:23:13.263Z,,,,,,,,,,,,,,,,,53,,,,,,,,,,,,,,420.73200019073556,,response,,,,99,,,,,,,Space,keypress(Space),,,,,,,,---- -- ----- -- ------ - ------- --- ----------<br>------------- ------ ------ ---- ---- ------- ----- -- ----<br>-------- ------- -- ---------- --- - --- ----- ----- ----<br>---- --- --- ----- --- ---- ---- ------- ----- ---- -------<br>--- --- -- ----- -- --- want -- --- ---- -- ------ ------<br>--- ----- -- ----,213221.30000019073,213219.80000019073,212782.769,212791.80000019073,212799.068,213231.874,,45,want
screen,html.Screen,2_1_0_1_46,2022-04-25T14:23:13.587Z,,,,,,,,,,,,,,,,,53,,,,,,,,,,,,,,311.5260000953567,,response,,,,99,,,,,,,Space,keypress(Space),,,,,,,,---- -- ----- -- ------ - ------- --- ----------<br>------------- ------ ------ ---- ---- ------- ----- -- ----<br>-------- ------- -- ---------- --- - --- ----- ----- ----<br>---- --- --- ----- --- ---- ---- ------- ----- ---- -------<br>--- --- -- ----- -- --- ---- to --- ---- -- ------ ------<br>--- ----- -- ----,213545,213543.40000009537,213215.7,213221.5,213231.874,213548.205,,46,to
screen,html.Screen,2_1_0_1_47,2022-04-25T14:23:14.325Z,,,,,,,,,,,,,,,,,53,,,,,,,,,,,,,,734.2950000000128,,response,,,,99,,,,,,,Space,keypress(Space),,,,,,,,"---- -- ----- -- ------ - ------- --- ----------<br>------------- ------ ------ ---- ---- ------- ----- -- ----<br>-------- ------- -- ---------- --- - --- ----- ----- ----<br>---- --- --- ----- --- ---- ---- ------- ----- ---- -------<br>--- --- -- ----- -- --- ---- -- be, ---- -- ------ ------<br>--- ----- -- ----",214283.70000004768,214282.5,213531.857,213545.30000019073,213548.205,214297.562,,47,"be,"
screen,html.Screen,2_1_0_1_48,2022-04-25T14:23:14.695Z,,,,,,,,,,,,,,,,,53,,,,,,,,,,,,,,354.63800004767836,,response,,,,99,,,,,,,Space,keypress(Space),,,,,,,,---- -- ----- -- ------ - ------- --- ----------<br>------------- ------ ------ ---- ---- ------- ----- -- ----<br>-------- ------- -- ---------- --- - --- ----- ----- ----<br>---- --- --- ----- --- ---- ---- ------- ----- ---- -------<br>--- --- -- ----- -- --- ---- -- --- even -- ------ ------<br>--- ----- -- ----,214653.80000019073,214652.20000004768,214281.423,214284.10000014305,214297.562,214663.519,,48,even
screen,html.Screen,2_1_0_1_49,2022-04-25T14:23:14.955Z,,,,,,,,,,,,,,,,,53,,,,,,,,,,,,,,248.08100014305091,,response,,,,99,,,,,,,Space,keypress(Space),,,,,,,,---- -- ----- -- ------ - ------- --- ----------<br>------------- ------ ------ ---- ---- ------- ----- -- ----<br>-------- ------- -- ---------- --- - --- ----- ----- ----<br>---- --- --- ----- --- ---- ---- ------- ----- ---- -------<br>--- --- -- ----- -- --- ---- -- --- ---- if ------ ------<br>--- ----- -- ----,214913.20000004768,214911.60000014305,214647.37,214654.10000014305,214663.519,214929.973,,49,if
screen,html.Screen,2_1_0_1_50,2022-04-25T14:23:15.285Z,,,,,,,,,,,,,,,,,53,,,,,,,,,,,,,,311.127000143053,,response,,,,99,,,,,,,Space,keypress(Space),,,,,,,,---- -- ----- -- ------ - ------- --- ----------<br>------------- ------ ------ ---- ---- ------- ----- -- ----<br>-------- ------- -- ---------- --- - --- ----- ----- ----<br>---- --- --- ----- --- ---- ---- ------- ----- ---- -------<br>--- --- -- ----- -- --- ---- -- --- ---- -- that's ------<br>--- ----- -- ----,215243.10000014305,215241.10000014305,214913.532,214913.60000014305,214929.973,215246.257,,50,that's
screen,html.Screen,2_1_0_1_51,2022-04-25T14:23:15.670Z,,,,,,,,,,,,,,,,,53,,,,,,,,,,,,,,379.9430000476714,,response,,,,99,,,,,,,Space,keypress(Space),,,,,,,,---- -- ----- -- ------ - ------- --- ----------<br>------------- ------ ------ ---- ---- ------- ----- -- ----<br>-------- ------- -- ---------- --- - --- ----- ----- ----<br>---- --- --- ----- --- ---- ---- ------- ----- ---- -------<br>--- --- -- ----- -- --- ---- -- --- ---- -- ------ really<br>--- ----- -- ----,215628.40000009537,215626.20000004768,215229.913,215243.40000009537,215246.257,215645.848,,51,really
screen,html.Screen,2_1_0_1_52,2022-04-25T14:23:16.009Z,,,,,,,,,,,,,,,,,53,,,,,,,,,,,,,,318.65200000000186,,response,,,,99,,,,,,,Space,keypress(Space),,,,,,,,---- -- ----- -- ------ - ------- --- ----------<br>------------- ------ ------ ---- ---- ------- ----- -- ----<br>-------- ------- -- ---------- --- - --- ----- ----- ----<br>---- --- --- ----- --- ---- ---- ------- ----- ---- -------<br>--- --- -- ----- -- --- ---- -- --- ---- -- ------ ------<br>not ----- -- ----,215966.90000009537,215964.5,215629.494,215628.80000019073,215645.848,215978.7,,52,not
screen,html.Screen,2_1_0_1_53,2022-04-25T14:23:16.337Z,,,,,,,,,,,,,,,,,53,,,,,,,,,,,,,,315.4000001430395,,response,,,,99,,,,,,,Space,keypress(Space),,,,,,,,---- -- ----- -- ------ - ------- --- ----------<br>------------- ------ ------ ---- ---- ------- ----- -- ----<br>-------- ------- -- ---------- --- - --- ----- ----- ----<br>---- --- --- ----- --- ---- ---- ------- ----- ---- -------<br>--- --- -- ----- -- --- ---- -- --- ---- -- ------ ------<br>--- close -- ----,216295.90000009537,216294.10000014305,215962.422,215967.30000019073,215978.7,216311.88,,53,close
screen,html.Screen,2_1_0_1_54,2022-04-25T14:23:16.636Z,,,,,,,,,,,,,,,,,53,,,,,,,,,,,,,,281.11999999999534,,response,,,,99,,,,,,,Space,keypress(Space),,,,,,,,---- -- ----- -- ------ - ------- --- ----------<br>------------- ------ ------ ---- ---- ------- ----- -- ----<br>-------- ------- -- ---------- --- - --- ----- ----- ----<br>---- --- --- ----- --- ---- ---- ------- ----- ---- -------<br>--- --- -- ----- -- --- ---- -- --- ---- -- ------ ------<br>--- ----- at ----,216594.30000019073,216593,216295.579,216296.20000004768,216311.88,216611.36,,54,at
screen,html.Screen,2_1_0_1_55,2022-04-25T14:23:16.940Z,,,,,,,,,,,,,,,,,53,,,,,,,,,,,,,,285.7400001430651,,response,,,,99,,,,,,,Space,keypress(Space),,,,,,,,---- -- ----- -- ------ - ------- --- ----------<br>------------- ------ ------ ---- ---- ------- ----- -- ----<br>-------- ------- -- ---------- --- - --- ----- ----- ----<br>---- --- --- ----- --- ---- ---- ------- ----- ---- -------<br>--- --- -- ----- -- --- ---- -- --- ---- -- ------ ------<br>--- ----- -- all.,216898.40000009537,216897.10000014305,216594.976,216594.60000014305,216611.36,216910.984,,55,all.
Item 99,flow.Loop,2_1_0_1,2022-04-25T14:23:16.940Z,,,,,,,,,,,,,,,,,,,,,,,,,,,,,,,19846.58100014305,,completion,,,,,A,,,,,,,,,,,silence,,,,,216898.90000009537,216897.10000014305,196218.135,196219.70000004768,197050.519,216910.984,,,
Question 1,html.Screen,2_1_0_2,2022-04-25T14:23:20.201Z,,,,,,,,,,,,,,,,,,,,,,,,,,,,true,FALSE,,3246.0160000000033,,response,,,,99,A,,,,,,FALSE,click #choice-2,,,,silence,,,,,220159.20000004768,220157,216894.62,216899.10000014305,216910.984,220174.116,,,
Question 2,html.Screen,2_1_0_3,2022-04-25T14:23:24.896Z,,,,,,,,,,,,,,,,,,,,,,,,,,,,true,TRUE,,4678.084000047675,,response,,,,99,A,,,,,,TRUE,click #choice-1,,,,silence,,,,,224854.5,224852.20000004768,220157.396,220159.5,220174.116,224869.472,,,
Item 99,flow.Sequence,2_1_0,2022-04-25T14:23:24.897Z,,,,,,,,,,,,,,,,,,,,,,,,,,,,,,,38622.564000047685,,completion,,,,,,,,,,,,,,,,,,,,,224855,224852.20000004768,186196.591,186222.10000014305,186229.636,224869.472,,,
Holding screen,html.Screen,2_1_1_0,2022-04-25T14:23:34.900Z,,,,,,,,,,,,,,,,,,,,,,,,,,,,,,,10004.23999999999,,timeout,,,,,,,,,,,,,,,,,,,,,234858.5,234857.141,224852.217,224855.60000014305,224869.472,234873.712,,,
screen,html.Screen,2_1_1_1_0,2022-04-25T14:23:35.783Z,,,,,,,,,,,,,,,,,54,,,,,,,,,,,,,,865.6880000953679,,response,,,,100,,,,,,,Space,keypress(Space),,,,,,,,At --- ---- --- ------ ----- ------- ---- -- --- ------- --<br>------- ---------- ------ -- ----- -- ----- -- ---- ------<br>--- ----- --- --- ------ -------- ----- --- ------ ----- --<br>----- ----- ---------- --- --- ------ ------ ---- -- ------<br>------- --- ------ ----- --- ---- ------- -- ---- --- --<br>------- ------,235741.10000014305,235739.40000009537,234857.141,234858.90000009537,234873.712,235756.042,,0,At
screen,html.Screen,2_1_1_1_1,2022-04-25T14:23:36.087Z,,,,,,,,,,,,,,,,,54,,,,,,,,,,,,,,286.45800000001327,,response,,,,100,,,,,,,Space,keypress(Space),,,,,,,,-- the ---- --- ------ ----- ------- ---- -- --- ------- --<br>------- ---------- ------ -- ----- -- ----- -- ---- ------<br>--- ----- --- --- ------ -------- ----- --- ------ ----- --<br>----- ----- ---------- --- --- ------ ------ ---- -- ------<br>------- --- ------ ----- --- ---- ------- -- ---- --- --<br>------- ------,236045.10000014305,236042.5,235740.496,235741.5,235756.042,236056.541,,1,the
screen,html.Screen,2_1_1_1_2,2022-04-25T14:23:36.385Z,,,,,,,,,,,,,,,,,54,,,,,,,,,,,,,,285.2590001907374,,response,,,,100,,,,,,,Space,keypress(Space),,,,,,,,-- --- time --- ------ ----- ------- ---- -- --- ------- --<br>------- ---------- ------ -- ----- -- ----- -- ---- ------<br>--- ----- --- --- ------ -------- ----- --- ------ ----- --<br>----- ----- ---------- --- --- ------ ------ ---- -- ------<br>------- --- ------ ----- --- ---- ------- -- ---- --- --<br>------- ------,236343.60000014305,236341.80000019073,236039.476,236045.30000019073,236056.541,236355.436,,2,time
screen,html.Screen,2_1_1_1_3,2022-04-25T14:23:36.651Z,,,,,,,,,,,,,,,,,54,,,,,,,,,,,,,,251.46400009538047,,response,,,,100,,,,,,,Space,keypress(Space),,,,,,,,-- --- ---- the ------ ----- ------- ---- -- --- ------- --<br>------- ---------- ------ -- ----- -- ----- -- ---- ------<br>--- ----- --- --- ------ -------- ----- --- ------ ----- --<br>----- ----- ---------- --- --- ------ ------ ---- -- ------<br>------- --- ------ ----- --- ---- ------- -- ---- --- --<br>------- ------,236609.60000014305,236606.90000009537,236339.003,236343.90000009537,236355.436,236621.924,,3,the
screen,html.Screen,2_1_1_1_4,2022-04-25T14:23:36.979Z,,,,,,,,,,,,,,,,,54,,,,,,,,,,,,,,313.8760001907358,,response,,,,100,,,,,,,Space,keypress(Space),,,,,,,,-- --- ---- --- French ----- ------- ---- -- --- ------- --<br>------- ---------- ------ -- ----- -- ----- -- ---- ------<br>--- ----- --- --- ------ -------- ----- --- ------ ----- --<br>----- ----- ---------- --- --- ------ ------ ---- -- ------<br>------- --- ------ ----- --- ---- ------- -- ---- --- --<br>------- ------,236937.5,236935.80000019073,236605.494,236610,236621.924,236954.636,,4,French
screen,html.Screen,2_1_1_1_5,2022-04-25T14:23:37.285Z,,,,,,,,,,,,,,,,,54,,,,,,,,,,,,,,285.96400014305254,,response,,,,100,,,,,,,Space,keypress(Space),,,,,,,,-- --- ---- --- ------ crown ------- ---- -- --- ------- --<br>------- ---------- ------ -- ----- -- ----- -- ---- ------<br>--- ----- --- --- ------ -------- ----- --- ------ ----- --<br>----- ----- ---------- --- --- ------ ------ ---- -- ------<br>------- --- ------ ----- --- ---- ------- -- ---- --- --<br>------- ------,237243.5,237240.60000014305,236938.399,236937.90000009537,236954.636,237254.598,,5,crown
screen,html.Screen,2_1_1_1_6,2022-04-25T14:23:37.689Z,,,,,,,,,,,,,,,,,54,,,,,,,,,,,,,,390.1020000476856,,response,,,,100,,,,,,,Space,keypress(Space),,,,,,,,-- --- ---- --- ------ ----- secured ---- -- --- ------- --<br>------- ---------- ------ -- ----- -- ----- -- ---- ------<br>--- ----- --- --- ------ -------- ----- --- ------ ----- --<br>----- ----- ---------- --- --- ------ ------ ---- -- ------<br>------- --- ------ ----- --- ---- ------- -- ---- --- --<br>------- ------,237647.10000014305,237644.70000004768,237238.126,237243.80000019073,237254.598,237653.917,,6,secured
screen,html.Screen,2_1_1_1_7,2022-04-25T14:23:38.007Z,,,,,,,,,,,,,,,,,54,,,,,,,,,,,,,,309.9830000953807,,response,,,,100,,,,,,,Space,keypress(Space),,,,,,,,-- --- ---- --- ------ ----- ------- much -- --- ------- --<br>------- ---------- ------ -- ----- -- ----- -- ---- ------<br>--- ----- --- --- ------ -------- ----- --- ------ ----- --<br>----- ----- ---------- --- --- ------ ------ ---- -- ------<br>------- --- ------ ----- --- ---- ------- -- ---- --- --<br>------- ------,237965.80000019073,237963.90000009537,237637.982,237647.40000009537,237653.917,237970.135,,7,much
screen,html.Screen,2_1_1_1_8,2022-04-25T14:23:38.386Z,,,,,,,,,,,,,,,,,54,,,,,,,,,,,,,,372.8649999999907,,response,,,,100,,,,,,,Space,keypress(Space),,,,,,,,-- --- ---- --- ------ ----- ------- ---- of --- ------- --<br>------- ---------- ------ -- ----- -- ----- -- ---- ------<br>--- ----- --- --- ------ -------- ----- --- ------ ----- --<br>----- ----- ---------- --- --- ------ ------ ---- -- ------<br>------- --- ------ ----- --- ---- ------- -- ---- --- --<br>------- ------,238344.80000019073,238343,237953.833,237966.10000014305,237970.135,238353.027,,8,of
screen,html.Screen,2_1_1_1_9,2022-04-25T14:23:38.671Z,,,,,,,,,,,,,,,,,54,,,,,,,,,,,,,,274.47299999999814,,response,,,,100,,,,,,,Space,keypress(Space),,,,,,,,-- --- ---- --- ------ ----- ------- ---- -- its ------- --<br>------- ---------- ------ -- ----- -- ----- -- ---- ------<br>--- ----- --- --- ------ -------- ----- --- ------ ----- --<br>----- ----- ---------- --- --- ------ ------ ---- -- ------<br>------- --- ------ ----- --- ---- ------- -- ---- --- --<br>------- ------,238629.40000009537,238627.5,238336.934,238345.20000004768,238353.027,238636.003,,9,its
screen,html.Screen,2_1_1_1_10,2022-04-25T14:23:38.986Z,,,,,,,,,,,,,,,,,54,,,,,,,,,,,,,,306.69700004768674,,response,,,,100,,,,,,,Space,keypress(Space),,,,,,,,-- --- ---- --- ------ ----- ------- ---- -- --- revenue --<br>------- ---------- ------ -- ----- -- ----- -- ---- ------<br>--- ----- --- --- ------ -------- ----- --- ------ ----- --<br>----- ----- ---------- --- --- ------ ------ ---- -- ------<br>------- --- ------ ----- --- ---- ------- -- ---- --- --<br>------- ------,238944.20000004768,238942.70000004768,238619.849,238629.60000014305,238636.003,238952.378,,10,revenue
screen,html.Screen,2_1_1_1_11,2022-04-25T14:23:39.331Z,,,,,,,,,,,,,,,,,54,,,,,,,,,,,,,,335.02200009537046,,response,,,,100,,,,,,,Space,keypress(Space),,,,,,,,-- --- ---- --- ------ ----- ------- ---- -- --- ------- by<br>------- ---------- ------ -- ----- -- ----- -- ---- ------<br>--- ----- --- --- ------ -------- ----- --- ------ ----- --<br>----- ----- ---------- --- --- ------ ------ ---- -- ------<br>------- --- ------ ----- --- ---- ------- -- ---- --- --<br>------- ------,239289.20000004768,239287.40000009537,238936.048,238944.40000009537,238952.378,239302.107,,11,by
screen,html.Screen,2_1_1_1_12,2022-04-25T14:23:39.690Z,,,,,,,,,,,,,,,,,54,,,,,,,,,,,,,,343.7930000953784,,response,,,,100,,,,,,,Space,keypress(Space),,,,,,,,-- --- ---- --- ------ ----- ------- ---- -- --- ------- --<br>issuing ---------- ------ -- ----- -- ----- -- ---- ------<br>--- ----- --- --- ------ -------- ----- --- ------ ----- --<br>----- ----- ---------- --- --- ------ ------ ---- -- ------<br>------- --- ------ ----- --- ---- ------- -- ---- --- --<br>------- ------,239648.20000004768,239645.90000009537,239285.849,239289.5,239302.107,239651.566,,12,issuing
screen,html.Screen,2_1_1_1_13,2022-04-25T14:23:40.487Z,,,,,,,,,,,,,,,,,54,,,,,,,,,,,,,,789.2340001907432,,response,,,,100,,,,,,,Space,keypress(Space),,,,,,,,-- --- ---- --- ------ ----- ------- ---- -- --- ------- --<br>------- government ------ -- ----- -- ----- -- ---- ------<br>--- ----- --- --- ------ -------- ----- --- ------ ----- --<br>----- ----- ---------- --- --- ------ ------ ---- -- ------<br>------- --- ------ ----- --- ---- ------- -- ---- --- --<br>------- ------,240445,240440.80000019073,239635.369,239648.60000014305,239651.566,240450.671,,13,government
screen,html.Screen,2_1_1_1_14,2022-04-25T14:23:41.776Z,,,,,,,,,,,,,,,,,54,,,,,,,,,,,,,,1281.328999999998,,response,,,,100,,,,,,,Space,keypress(Space),,,,,,,,-- --- ---- --- ------ ----- ------- ---- -- --- ------- --<br>------- ---------- bonds. -- ----- -- ----- -- ---- ------<br>--- ----- --- --- ------ -------- ----- --- ------ ----- --<br>----- ----- ---------- --- --- ------ ------ ---- -- ------<br>------- --- ------ ----- --- ---- ------- -- ---- --- --<br>------- ------,241734,241732,240434.76,240445.30000019073,240450.671,241749.345,,14,bonds.
screen,html.Screen,2_1_1_1_15,2022-04-25T14:23:42.085Z,,,,,,,,,,,,,,,,,54,,,,,,,,,,,,,,291.85500004768255,,response,,,,100,,,,,,,Space,keypress(Space),,,,,,,,-- --- ---- --- ------ ----- ------- ---- -- --- ------- --<br>------- ---------- ------ In ----- -- ----- -- ---- ------<br>--- ----- --- --- ------ -------- ----- --- ------ ----- --<br>----- ----- ---------- --- --- ------ ------ ---- -- ------<br>------- --- ------ ----- --- ---- ------- -- ---- --- --<br>------- ------,242043,242041.20000004768,241733.902,241734.40000009537,241749.345,242048.822,,15,In
screen,html.Screen,2_1_1_1_16,2022-04-25T14:23:42.370Z,,,,,,,,,,,,,,,,,54,,,,,,,,,,,,,,277.37800004769815,,response,,,,100,,,,,,,Space,keypress(Space),,,,,,,,"-- --- ---- --- ------ ----- ------- ---- -- --- ------- --<br>------- ---------- ------ -- 1727, -- ----- -- ---- ------<br>--- ----- --- --- ------ -------- ----- --- ------ ----- --<br>----- ----- ---------- --- --- ------ ------ ---- -- ------<br>------- --- ------ ----- --- ---- ------- -- ---- --- --<br>------- ------",242328.20000004768,242326.20000004768,242032.678,242043.30000019073,242048.822,242331.844,,16,"1727,"
screen,html.Screen,2_1_1_1_17,2022-04-25T14:23:43.044Z,,,,,,,,,,,,,,,,,54,,,,,,,,,,,,,,668.1559999999881,,response,,,,100,,,,,,,Space,keypress(Space),,,,,,,,-- --- ---- --- ------ ----- ------- ---- -- --- ------- --<br>------- ---------- ------ -- ----- in ----- -- ---- ------<br>--- ----- --- --- ------ -------- ----- --- ------ ----- --<br>----- ----- ---------- --- --- ------ ------ ---- -- ------<br>------- --- ------ ----- --- ---- ------- -- ---- --- --<br>------- ------,243002.30000019073,243000,242315.428,242328.5,242331.844,243014.58,,17,in
screen,html.Screen,2_1_1_1_18,2022-04-25T14:23:43.441Z,,,,,,,,,,,,,,,,,54,,,,,,,,,,,,,,380.82000009538024,,response,,,,100,,,,,,,Space,keypress(Space),,,,,,,,-- --- ---- --- ------ ----- ------- ---- -- --- ------- --<br>------- ---------- ------ -- ----- -- order -- ---- ------<br>--- ----- --- --- ------ -------- ----- --- ------ ----- --<br>----- ----- ---------- --- --- ------ ------ ---- -- ------<br>------- --- ------ ----- --- ---- ------- -- ---- --- --<br>------- ------,243398.90000009537,243395.40000009537,242998.502,243002.70000004768,243014.58,243414.276,,18,order
screen,html.Screen,2_1_1_1_19,2022-04-25T14:23:43.762Z,,,,,,,,,,,,,,,,,54,,,,,,,,,,,,,,304.3240001430386,,response,,,,100,,,,,,,Space,keypress(Space),,,,,,,,-- --- ---- --- ------ ----- ------- ---- -- --- ------- --<br>------- ---------- ------ -- ----- -- ----- to ---- ------<br>--- ----- --- --- ------ -------- ----- --- ------ ----- --<br>----- ----- ---------- --- --- ------ ------ ---- -- ------<br>------- --- ------ ----- --- ---- ------- -- ---- --- --<br>------- ------,243720.5,243718.60000014305,243397.86,243399.10000014305,243414.276,243730.14,,19,to
screen,html.Screen,2_1_1_1_20,2022-04-25T14:23:44.113Z,,,,,,,,,,,,,,,,,54,,,,,,,,,,,,,,338.9600001430372,,response,,,,100,,,,,,,Space,keypress(Space),,,,,,,,-- --- ---- --- ------ ----- ------- ---- -- --- ------- --<br>------- ---------- ------ -- ----- -- ----- -- save ------<br>--- ----- --- --- ------ -------- ----- --- ------ ----- --<br>----- ----- ---------- --- --- ------ ------ ---- -- ------<br>------- --- ------ ----- --- ---- ------- -- ---- --- --<br>------- ------,244071,244069.10000014305,243713.974,243720.80000019073,243730.14,244079.756,,20,save
screen,html.Screen,2_1_1_1_21,2022-04-25T14:23:44.895Z,,,,,,,,,,,,,,,,,54,,,,,,,,,,,,,,771.5440001907409,,response,,,,100,,,,,,,Space,keypress(Space),,,,,,,,"-- --- ---- --- ------ ----- ------- ---- -- --- ------- --<br>------- ---------- ------ -- ----- -- ----- -- ---- money,<br>--- ----- --- --- ------ -------- ----- --- ------ ----- --<br>----- ----- ---------- --- --- ------ ------ ---- -- ------<br>------- --- ------ ----- --- ---- ------- -- ---- --- --<br>------- ------",244852.90000009537,244851.30000019073,244063.668,244071.20000004768,244079.756,244862.263,,21,"money,"
screen,html.Screen,2_1_1_1_22,2022-04-25T14:23:45.337Z,,,,,,,,,,,,,,,,,54,,,,,,,,,,,,,,429.0370001907286,,response,,,,100,,,,,,,Space,keypress(Space),,,,,,,,-- --- ---- --- ------ ----- ------- ---- -- --- ------- --<br>------- ---------- ------ -- ----- -- ----- -- ---- ------<br>the ----- --- --- ------ -------- ----- --- ------ ----- --<br>----- ----- ---------- --- --- ------ ------ ---- -- ------<br>------- --- ------ ----- --- ---- ------- -- ---- --- --<br>------- ------,245295.10000014305,245291.30000019073,244846.588,244853.10000014305,244862.263,245311.864,,22,the
screen,html.Screen,2_1_1_1_23,2022-04-25T14:23:45.936Z,,,,,,,,,,,,,,,,,54,,,,,,,,,,,,,,579.7360001430498,,response,,,,100,,,,,,,Space,keypress(Space),,,,,,,,-- --- ---- --- ------ ----- ------- ---- -- --- ------- --<br>------- ---------- ------ -- ----- -- ----- -- ---- ------<br>--- state --- --- ------ -------- ----- --- ------ ----- --<br>----- ----- ---------- --- --- ------ ------ ---- -- ------<br>------- --- ------ ----- --- ---- ------- -- ---- --- --<br>------- ------,245893.70000004768,245891.60000014305,245295.588,245295.40000009537,245311.864,245927.705,,23,state
screen,html.Screen,2_1_1_1_24,2022-04-25T14:23:46.479Z,,,,,,,,,,,,,,,,,54,,,,,,,,,,,,,,506.2950000000128,,response,,,,100,,,,,,,Space,keypress(Space),,,,,,,,-- --- ---- --- ------ ----- ------- ---- -- --- ------- --<br>------- ---------- ------ -- ----- -- ----- -- ---- ------<br>--- ----- cut --- ------ -------- ----- --- ------ ----- --<br>----- ----- ---------- --- --- ------ ------ ---- -- ------<br>------- --- ------ ----- --- ---- ------- -- ---- --- --<br>------- ------,246437.40000009537,246434,245911.042,245893.90000009537,245927.705,246443.809,,24,cut
screen,html.Screen,2_1_1_1_25,2022-04-25T14:23:46.936Z,,,,,,,,,,,,,,,,,54,,,,,,,,,,,,,,449.09100009535905,,response,,,,100,,,,,,,Space,keypress(Space),,,,,,,,-- --- ---- --- ------ ----- ------- ---- -- --- ------- --<br>------- ---------- ------ -- ----- -- ----- -- ---- ------<br>--- ----- --- the ------ -------- ----- --- ------ ----- --<br>----- ----- ---------- --- --- ------ ------ ---- -- ------<br>------- --- ------ ----- --- ---- ------- -- ---- --- --<br>------- ------,246894.20000004768,246892.90000009537,246427.63,246437.60000014305,246443.809,246909.902,,25,the
screen,html.Screen,2_1_1_1_26,2022-04-25T14:23:47.538Z,,,,,,,,,,,,,,,,,54,,,,,,,,,,,,,,582.5979999999981,,response,,,,100,,,,,,,Space,keypress(Space),,,,,,,,-- --- ---- --- ------ ----- ------- ---- -- --- ------- --<br>------- ---------- ------ -- ----- -- ----- -- ---- ------<br>--- ----- --- --- bonds' -------- ----- --- ------ ----- --<br>----- ----- ---------- --- --- ------ ------ ---- -- ------<br>------- --- ------ ----- --- ---- ------- -- ---- --- --<br>------- ------,247496.5,247492.5,246893.799,246894.5,246909.902,247509.457,,26,bonds'
screen,html.Screen,2_1_1_1_27,2022-04-25T14:23:48.190Z,,,,,,,,,,,,,,,,,54,,,,,,,,,,,,,,631.9430000953726,,response,,,,100,,,,,,,Space,keypress(Space),,,,,,,,-- --- ---- --- ------ ----- ------- ---- -- --- ------- --<br>------- ---------- ------ -- ----- -- ----- -- ---- ------<br>--- ----- --- --- ------ interest ----- --- ------ ----- --<br>----- ----- ---------- --- --- ------ ------ ---- -- ------<br>------- --- ------ ----- --- ---- ------- -- ---- --- --<br>------- ------,248147.70000004768,248141.40000009537,247493.357,247496.80000019073,247509.457,248158.431,,27,interest
screen,html.Screen,2_1_1_1_28,2022-04-25T14:23:48.551Z,,,,,,,,,,,,,,,,,54,,,,,,,,,,,,,,347.2690000476723,,response,,,,100,,,,,,,Space,keypress(Space),,,,,,,,-- --- ---- --- ------ ----- ------- ---- -- --- ------- --<br>------- ---------- ------ -- ----- -- ----- -- ---- ------<br>--- ----- --- --- ------ -------- rate. --- ------ ----- --<br>----- ----- ---------- --- --- ------ ------ ---- -- ------<br>------- --- ------ ----- --- ---- ------- -- ---- --- --<br>------- ------,248509.10000014305,248505.70000004768,248142.659,248148,248158.431,248524.749,,28,rate.
screen,html.Screen,2_1_1_1_29,2022-04-25T14:23:49.589Z,,,,,,,,,,,,,,,,,54,,,,,,,,,,,,,,1014.7509999999893,,response,,,,100,,,,,,,Space,keypress(Space),,,,,,,,-- --- ---- --- ------ ----- ------- ---- -- --- ------- --<br>------- ---------- ------ -- ----- -- ----- -- ---- ------<br>--- ----- --- --- ------ -------- ----- The ------ ----- --<br>----- ----- ---------- --- --- ------ ------ ---- -- ------<br>------- --- ------ ----- --- ---- ------- -- ---- --- --<br>------- ------,249546.70000004768,249539.5,248508.52,248509.5,248524.749,249557.423,,29,The
screen,html.Screen,2_1_1_1_30,2022-04-25T14:23:50.019Z,,,,,,,,,,,,,,,,,54,,,,,,,,,,,,,,415.47700009535765,,response,,,,100,,,,,,,Space,keypress(Space),,,,,,,,-- --- ---- --- ------ ----- ------- ---- -- --- ------- --<br>------- ---------- ------ -- ----- -- ----- -- ---- ------<br>--- ----- --- --- ------ -------- ----- --- market ----- --<br>----- ----- ---------- --- --- ------ ------ ---- -- ------<br>------- --- ------ ----- --- ---- ------- -- ---- --- --<br>------- ------,249977.10000014305,249972.90000009537,249541.484,249547,249557.423,249989.897,,30,market
screen,html.Screen,2_1_1_1_31,2022-04-25T14:23:50.403Z,,,,,,,,,,,,,,,,,54,,,,,,,,,,,,,,367.70300014305394,,response,,,,100,,,,,,,Space,keypress(Space),,,,,,,,-- --- ---- --- ------ ----- ------- ---- -- --- ------- --<br>------- ---------- ------ -- ----- -- ----- -- ---- ------<br>--- ----- --- --- ------ -------- ----- --- ------ value --<br>----- ----- ---------- --- --- ------ ------ ---- -- ------<br>------- --- ------ ----- --- ---- ------- -- ---- --- --<br>------- ------,250361,250357.60000014305,249973.677,249977.40000009537,249989.897,250372.496,,31,value
screen,html.Screen,2_1_1_1_32,2022-04-25T14:23:50.746Z,,,,,,,,,,,,,,,,,54,,,,,,,,,,,,,,329.50399999998626,,response,,,,100,,,,,,,Space,keypress(Space),,,,,,,,-- --- ---- --- ------ ----- ------- ---- -- --- ------- --<br>------- ---------- ------ -- ----- -- ----- -- ---- ------<br>--- ----- --- --- ------ -------- ----- --- ------ ----- of<br>----- ----- ---------- --- --- ------ ------ ---- -- ------<br>------- --- ------ ----- --- ---- ------- -- ---- --- --<br>------- ------,250704,250702,250356.515,250361.30000019073,250372.496,250736.681,,32,of
screen,html.Screen,2_1_1_1_33,2022-04-25T14:23:51.137Z,,,,,,,,,,,,,,,,,54,,,,,,,,,,,,,,354.5190000476723,,response,,,,100,,,,,,,Space,keypress(Space),,,,,,,,-- --- ---- --- ------ ----- ------- ---- -- --- ------- --<br>------- ---------- ------ -- ----- -- ----- -- ---- ------<br>--- ----- --- --- ------ -------- ----- --- ------ ----- --<br>these ----- ---------- --- --- ------ ------ ---- -- ------<br>------- --- ------ ----- --- ---- ------- -- ---- --- --<br>------- ------,251094.70000004768,251091.20000004768,250689.206,250704.30000019073,250736.681,251104.987,,33,these
screen,html.Screen,2_1_1_1_34,2022-04-25T14:23:51.491Z,,,,,,,,,,,,,,,,,54,,,,,,,,,,,,,,340.71300004769,,response,,,,100,,,,,,,Space,keypress(Space),,,,,,,,-- --- ---- --- ------ ----- ------- ---- -- --- ------- --<br>------- ---------- ------ -- ----- -- ----- -- ---- ------<br>--- ----- --- --- ------ -------- ----- --- ------ ----- --<br>----- bonds ---------- --- --- ------ ------ ---- -- ------<br>------- --- ------ ----- --- ---- ------- -- ---- --- --<br>------- ------,251449,251445.70000004768,251088.994,251095,251104.987,251454.711,,34,bonds
screen,html.Screen,2_1_1_1_35,2022-04-25T14:23:55.330Z,,,,,,,,,,,,,,,,,54,,,,,,,,,,,,,,3829.2889999999898,,response,,,,100,,,,,,,Space,keypress(Space),,,,,,,,"-- --- ---- --- ------ ----- ------- ---- -- --- ------- --<br>------- ---------- ------ -- ----- -- ----- -- ---- ------<br>--- ----- --- --- ------ -------- ----- --- ------ ----- --<br>----- ----- plummeted, --- --- ------ ------ ---- -- ------<br>------- --- ------ ----- --- ---- ------- -- ---- --- --<br>------- ------",255287.70000004768,255284,251438.401,251449.20000004768,251454.711,255300.166,,35,"plummeted,"
screen,html.Screen,2_1_1_1_36,2022-04-25T14:23:55.713Z,,,,,,,,,,,,,,,,,54,,,,,,,,,,,,,,367.83400000000256,,response,,,,100,,,,,,,Space,keypress(Space),,,,,,,,-- --- ---- --- ------ ----- ------- ---- -- --- ------- --<br>------- ---------- ------ -- ----- -- ----- -- ---- ------<br>--- ----- --- --- ------ -------- ----- --- ------ ----- --<br>----- ----- ---------- and --- ------ ------ ---- -- ------<br>------- --- ------ ----- --- ---- ------- -- ---- --- --<br>------- ------,255671.30000019073,255668,255287.791,255288,255300.166,255683.846,,36,and
screen,html.Screen,2_1_1_1_37,2022-04-25T14:23:56.048Z,,,,,,,,,,,,,,,,,54,,,,,,,,,,,,,,319.85400004769326,,response,,,,100,,,,,,,Space,keypress(Space),,,,,,,,-- --- ---- --- ------ ----- ------- ---- -- --- ------- --<br>------- ---------- ------ -- ----- -- ----- -- ---- ------<br>--- ----- --- --- ------ -------- ----- --- ------ ----- --<br>----- ----- ---------- --- the ------ ------ ---- -- ------<br>------- --- ------ ----- --- ---- ------- -- ---- --- --<br>------- ------,256005.80000019073,256003.70000004768,255666.976,255671.70000004768,255683.846,256016.312,,37,the
screen,html.Screen,2_1_1_1_38,2022-04-25T14:23:56.452Z,,,,,,,,,,,,,,,,,54,,,,,,,,,,,,,,390.0880000953621,,response,,,,100,,,,,,,Space,keypress(Space),,,,,,,,-- --- ---- --- ------ ----- ------- ---- -- --- ------- --<br>------- ---------- ------ -- ----- -- ----- -- ---- ------<br>--- ----- --- --- ------ -------- ----- --- ------ ----- --<br>----- ----- ---------- --- --- market ------ ---- -- ------<br>------- --- ------ ----- --- ---- ------- -- ---- --- --<br>------- ------,256409.80000019073,256406.40000009537,255999.835,256006,256016.312,256415.599,,38,market
screen,html.Screen,2_1_1_1_39,2022-04-25T14:23:56.847Z,,,,,,,,,,,,,,,,,54,,,,,,,,,,,,,,385.6010000476963,,response,,,,100,,,,,,,Space,keypress(Space),,,,,,,,-- --- ---- --- ------ ----- ------- ---- -- --- ------- --<br>------- ---------- ------ -- ----- -- ----- -- ---- ------<br>--- ----- --- --- ------ -------- ----- --- ------ ----- --<br>----- ----- ---------- --- --- ------ became ---- -- ------<br>------- --- ------ ----- --- ---- ------- -- ---- --- --<br>------- ------,256804.60000014305,256801.20000004768,256399.564,256410.10000014305,256415.599,256815.465,,39,became
screen,html.Screen,2_1_1_1_40,2022-04-25T14:23:57.180Z,,,,,,,,,,,,,,,,,54,,,,,,,,,,,,,,319.63500014305464,,response,,,,100,,,,,,,Space,keypress(Space),,,,,,,,-- --- ---- --- ------ ----- ------- ---- -- --- ------- --<br>------- ---------- ------ -- ----- -- ----- -- ---- ------<br>--- ----- --- --- ------ -------- ----- --- ------ ----- --<br>----- ----- ---------- --- --- ------ ------ wary -- ------<br>------- --- ------ ----- --- ---- ------- -- ---- --- --<br>------- ------,257138.5,257135.10000014305,256798.918,256805,256815.465,257148.713,,40,wary
screen,html.Screen,2_1_1_1_41,2022-04-25T14:23:57.504Z,,,,,,,,,,,,,,,,,54,,,,,,,,,,,,,,310.7870000000112,,response,,,,100,,,,,,,Space,keypress(Space),,,,,,,,-- --- ---- --- ------ ----- ------- ---- -- --- ------- --<br>------- ---------- ------ -- ----- -- ----- -- ---- ------<br>--- ----- --- --- ------ -------- ----- --- ------ ----- --<br>----- ----- ---------- --- --- ------ ------ ---- of ------<br>------- --- ------ ----- --- ---- ------- -- ---- --- --<br>------- ------,257461.60000014305,257459.5,257131.977,257138.70000004768,257148.713,257464.404,,41,of
screen,html.Screen,2_1_1_1_42,2022-04-25T14:23:57.849Z,,,,,,,,,,,,,,,,,54,,,,,,,,,,,,,,339.59599999999045,,response,,,,100,,,,,,,Space,keypress(Space),,,,,,,,-- --- ---- --- ------ ----- ------- ---- -- --- ------- --<br>------- ---------- ------ -- ----- -- ----- -- ---- ------<br>--- ----- --- --- ------ -------- ----- --- ------ ----- --<br>----- ----- ---------- --- --- ------ ------ ---- -- French<br>------- --- ------ ----- --- ---- ------- -- ---- --- --<br>------- ------,257807.40000009537,257804,257448.252,257462,257464.404,257814.084,,42,French
screen,html.Screen,2_1_1_1_43,2022-04-25T14:23:58.207Z,,,,,,,,,,,,,,,,,54,,,,,,,,,,,,,,349.11600004768115,,response,,,,100,,,,,,,Space,keypress(Space),,,,,,,,-- --- ---- --- ------ ----- ------- ---- -- --- ------- --<br>------- ---------- ------ -- ----- -- ----- -- ---- ------<br>--- ----- --- --- ------ -------- ----- --- ------ ----- --<br>----- ----- ---------- --- --- ------ ------ ---- -- ------<br>credit. --- ------ ----- --- ---- ------- -- ---- --- --<br>------- ------,258165,258163.20000004768,257797.752,257807.60000014305,257814.084,258180.393,,43,credit.
screen,html.Screen,2_1_1_1_44,2022-04-25T14:23:58.619Z,,,,,,,,,,,,,,,,,54,,,,,,,,,,,,,,392.4070001907239,,response,,,,100,,,,,,,Space,keypress(Space),,,,,,,,-- --- ---- --- ------ ----- ------- ---- -- --- ------- --<br>------- ---------- ------ -- ----- -- ----- -- ---- ------<br>--- ----- --- --- ------ -------- ----- --- ------ ----- --<br>----- ----- ---------- --- --- ------ ------ ---- -- ------<br>------- The ------ ----- --- ---- ------- -- ---- --- --<br>------- ------,258576.60000014305,258572.80000019073,258164.293,258165.30000019073,258180.393,258579.829,,44,The
screen,html.Screen,2_1_1_1_45,2022-04-25T14:23:58.978Z,,,,,,,,,,,,,,,,,54,,,,,,,,,,,,,,352.3710000476858,,response,,,,100,,,,,,,Space,keypress(Space),,,,,,,,-- --- ---- --- ------ ----- ------- ---- -- --- ------- --<br>------- ---------- ------ -- ----- -- ----- -- ---- ------<br>--- ----- --- --- ------ -------- ----- --- ------ ----- --<br>----- ----- ---------- --- --- ------ ------ ---- -- ------<br>------- --- French ----- --- ---- ------- -- ---- --- --<br>------- ------,258935.70000004768,258932.20000004768,258563.718,258577,258579.829,258946.164,,45,French
screen,html.Screen,2_1_1_1_46,2022-04-25T14:23:59.306Z,,,,,,,,,,,,,,,,,54,,,,,,,,,,,,,,315.7360000953777,,response,,,,100,,,,,,,Space,keypress(Space),,,,,,,,-- --- ---- --- ------ ----- ------- ---- -- --- ------- --<br>------- ---------- ------ -- ----- -- ----- -- ---- ------<br>--- ----- --- --- ------ -------- ----- --- ------ ----- --<br>----- ----- ---------- --- --- ------ ------ ---- -- ------<br>------- --- ------ state --- ---- ------- -- ---- --- --<br>------- ------,259263.70000004768,259261.90000009537,258929.884,258936,258946.164,259279.082,,46,state
screen,html.Screen,2_1_1_1_47,2022-04-25T14:23:59.620Z,,,,,,,,,,,,,,,,,54,,,,,,,,,,,,,,296.9180000000051,,response,,,,100,,,,,,,Space,keypress(Space),,,,,,,,-- --- ---- --- ------ ----- ------- ---- -- --- ------- --<br>------- ---------- ------ -- ----- -- ----- -- ---- ------<br>--- ----- --- --- ------ -------- ----- --- ------ ----- --<br>----- ----- ---------- --- --- ------ ------ ---- -- ------<br>------- --- ------ ----- was ---- ------- -- ---- --- --<br>------- ------,259577.60000014305,259576,259262.741,259263.90000009537,259279.082,259595.381,,47,was
screen,html.Screen,2_1_1_1_48,2022-04-25T14:23:59.934Z,,,,,,,,,,,,,,,,,54,,,,,,,,,,,,,,294.5190000953735,,response,,,,100,,,,,,,Space,keypress(Space),,,,,,,,-- --- ---- --- ------ ----- ------- ---- -- --- ------- --<br>------- ---------- ------ -- ----- -- ----- -- ---- ------<br>--- ----- --- --- ------ -------- ----- --- ------ ----- --<br>----- ----- ---------- --- --- ------ ------ ---- -- ------<br>------- --- ------ ----- --- left ------- -- ---- --- --<br>------- ------,259891.5,259889.90000009537,259562.276,259578,259595.381,259894.955,,48,left
screen,html.Screen,2_1_1_1_49,2022-04-25T14:24:00.259Z,,,,,,,,,,,,,,,,,54,,,,,,,,,,,,,,319.84500019074767,,response,,,,100,,,,,,,Space,keypress(Space),,,,,,,,-- --- ---- --- ------ ----- ------- ---- -- --- ------- --<br>------- ---------- ------ -- ----- -- ----- -- ---- ------<br>--- ----- --- --- ------ -------- ----- --- ------ ----- --<br>----- ----- ---------- --- --- ------ ------ ---- -- ------<br>------- --- ------ ----- --- ---- without -- ---- --- --<br>------- ------,260216.60000014305,260214.80000019073,259878.733,259891.80000019073,259894.955,260228.023,,49,without
screen,html.Screen,2_1_1_1_50,2022-04-25T14:24:00.560Z,,,,,,,,,,,,,,,,,54,,,,,,,,,,,,,,286.37700009538094,,response,,,,100,,,,,,,Space,keypress(Space),,,,,,,,-- --- ---- --- ------ ----- ------- ---- -- --- ------- --<br>------- ---------- ------ -- ----- -- ----- -- ---- ------<br>--- ----- --- --- ------ -------- ----- --- ------ ----- --<br>----- ----- ---------- --- --- ------ ------ ---- -- ------<br>------- --- ------ ----- --- ---- ------- an ---- --- --<br>------- ------,260517.60000014305,260514.40000009537,260211.655,260216.90000009537,260228.023,260527.548,,50,an
screen,html.Screen,2_1_1_1_51,2022-04-25T14:24:00.847Z,,,,,,,,,,,,,,,,,54,,,,,,,,,,,,,,276.2520001907251,,response,,,,100,,,,,,,Space,keypress(Space),,,,,,,,-- --- ---- --- ------ ----- ------- ---- -- --- ------- --<br>------- ---------- ------ -- ----- -- ----- -- ---- ------<br>--- ----- --- --- ------ -------- ----- --- ------ ----- --<br>----- ----- ---------- --- --- ------ ------ ---- -- ------<br>------- --- ------ ----- --- ---- ------- -- easy --- --<br>------- ------,260805.30000019073,260803.80000019073,260511.394,260517.90000009537,260527.548,260810.585,,51,easy
screen,html.Screen,2_1_1_1_52,2022-04-25T14:24:01.164Z,,,,,,,,,,,,,,,,,54,,,,,,,,,,,,,,307.715000190743,,response,,,,100,,,,,,,Space,keypress(Space),,,,,,,,-- --- ---- --- ------ ----- ------- ---- -- --- ------- --<br>------- ---------- ------ -- ----- -- ----- -- ---- ------<br>--- ----- --- --- ------ -------- ----- --- ------ ----- --<br>----- ----- ---------- --- --- ------ ------ ---- -- ------<br>------- --- ------ ----- --- ---- ------- -- ---- way --<br>------- ------,261121.5,261118.30000019073,260794.385,260805.70000004768,260810.585,261126.865,,52,way
screen,html.Screen,2_1_1_1_53,2022-04-25T14:24:01.488Z,,,,,,,,,,,,,,,,,54,,,,,,,,,,,,,,316.03500009537674,,response,,,,100,,,,,,,Space,keypress(Space),,,,,,,,-- --- ---- --- ------ ----- ------- ---- -- --- ------- --<br>------- ---------- ------ -- ----- -- ----- -- ---- ------<br>--- ----- --- --- ------ -------- ----- --- ------ ----- --<br>----- ----- ---------- --- --- ------ ------ ---- -- ------<br>------- --- ------ ----- --- ---- ------- -- ---- --- of<br>------- ------,261446.5,261442.90000009537,261110.698,261121.90000009537,261126.865,261459.796,,53,of
screen,html.Screen,2_1_1_1_54,2022-04-25T14:24:01.826Z,,,,,,,,,,,,,,,,,54,,,,,,,,,,,,,,322.50400019073277,,response,,,,100,,,,,,,Space,keypress(Space),,,,,,,,-- --- ---- --- ------ ----- ------- ---- -- --- ------- --<br>------- ---------- ------ -- ----- -- ----- -- ---- ------<br>--- ----- --- --- ------ -------- ----- --- ------ ----- --<br>----- ----- ---------- --- --- ------ ------ ---- -- ------<br>------- --- ------ ----- --- ---- ------- -- ---- --- --<br>raising ------,261784.30000019073,261782.30000019073,261443.69,261446.80000019073,261459.796,261792.704,,54,raising
screen,html.Screen,2_1_1_1_55,2022-04-25T14:24:02.200Z,,,,,,,,,,,,,,,,,54,,,,,,,,,,,,,,363.59600019073696,,response,,,,100,,,,,,,Space,keypress(Space),,,,,,,,-- --- ---- --- ------ ----- ------- ---- -- --- ------- --<br>------- ---------- ------ -- ----- -- ----- -- ---- ------<br>--- ----- --- --- ------ -------- ----- --- ------ ----- --<br>----- ----- ---------- --- --- ------ ------ ---- -- ------<br>------- --- ------ ----- --- ---- ------- -- ---- --- --<br>------- money.,262158.10000014305,262156.30000019073,261776.626,261784.60000014305,261792.704,262175.665,,55,money.
Item 100,flow.Loop,2_1_1_1,2022-04-25T14:24:02.201Z,,,,,,,,,,,,,,,,,,,,,,,,,,,,,,,27282.588000190735,,completion,,,,,A,,,,,,,,,,,silence,,,,,262158.7000000477,262156.30000019073,234857.141,234858.70000004768,234873.712,262175.665,,,
Question 1,html.Screen,2_1_1_2,2022-04-25T14:24:04.628Z,,,,,,,,,,,,,,,,,,,,,,,,,,,,true,TRUE,,2408.0350000477047,,response,,,,100,A,,,,,,TRUE,click #choice-1,,,,silence,,,,,264586.2000000477,264583.7000000477,262159.472,262159,262175.665,264589.561,,,
Question 2,html.Screen,2_1_1_3,2022-04-25T14:24:06.487Z,,,,,,,,,,,,,,,,,,,,,,,,,,,,true,FALSE,,1854.0390001430642,,response,,,,100,A,,,,,,FALSE,click #choice-2,,,,silence,,,,,266445.10000014305,266443.60000014305,264573.026,264587.2000000477,264589.561,266454.067,,,
Item 100,flow.Sequence,2_1_1,2022-04-25T14:24:06.488Z,,,,,,,,,,,,,,,,,,,,,,,,,,,,,,,41574.12800014304,,completion,,,,,,,,,,,,,,,,,,,,,266445.5,266443.60000014305,224852.217,224855.10000014305,224869.472,266454.067,,,
End of Practice,html.Page,2_1_2,2022-04-25T14:24:09.125Z,,,,,,,,,,,,,,,,,,,,,,,,,,,,,,,2628.433000000019,,form submission,,,,,,,,,,,,,,,,,,,,,269083.2000000477,269082.5,266437.457,266445.80000019073,266454.067,269084.389,,,
Practice,flow.Sequence,2_1,2022-04-25T14:24:09.126Z,,,,,,,,,,,,,,,,,,,,,,,,,,,,,,,82852.864,,completion,,,,,,,,,,,,,,,,,,,,,269083.60000014305,269082.5,186196.591,186222.10000014305,186229.636,269084.389,,,
Trap_instruction,html.Page,2_2_0,2022-04-25T14:24:11.760Z,,,,,,,,,,,,,,,,,,,,,,,,,,,,,,,2633.1109999999753,,form submission,,,,,,,,,,,,,,,,,,,,,271718,271717.5,269067.777,269083.90000009537,269084.389,272014.464,,,
trap_trial,html.Screen,2_2_1,2022-04-25T14:24:15.269Z,,,,,,,,,,,,,,,,,,,,,,,,,,,,true,1,,3210.3360001907567,,response,,,,,,,,,,,1,click #choice-1,,,,,,,,,275227,275224.80000019073,271714.851,271718.30000019073,272014.464,275277.289,,,
end of trap trial,html.Page,2_2_2,2022-04-25T14:24:16.908Z,,,,,,,,,,,,,,,,,,,,,,,,,,,,,,,1587.911000047694,,form submission,,,,,,,,,,,,,,,,,,,,,276865.80000019073,276865.2000000477,275210.832,275228.10000014305,275277.289,276875.405,,,
Trap 1,flow.Sequence,2_2,2022-04-25T14:24:16.908Z,,,,,,,,,,,,,,,,,,,,,,,,,,,,,,,7780.811000047659,,completion,,,,,,,,,,,,,,,,,,,,,276866.2000000477,276865.2000000477,269067.777,269083.80000019073,269084.389,276875.405,,,
Standby,html.Page,2_3_0,2022-04-25T14:24:24.910Z,,,,,,,,,,,,,,,,,,,,,,,,,,,,,,,8007.435999999987,,timeout,,,,,,,,,,,,,,,,,,,,,284867.90000009537,284866.544,276858.885,276866.5,276875.405,284882.841,,,
Holding screen,html.Screen,2_3_1_0_0,2022-04-25T14:24:31.902Z,,,,,,,,,,,,,,,,,,,,,,,,,,,,,,,6991.975999999966,,timeout,,,,,,,,,,,,,,,,,,,,,291859.90000009537,291858.474,284866.544,284868.30000019073,284882.841,291874.817,,,
screen,html.Screen,2_3_1_0_1_0,2022-04-25T14:24:33.248Z,,,,,,,,,,,,,,,,,40,,,,,,,,,,,,,,1329.183000000019,,response,,,,9,A,,,,,,Space,keypress(Space),,,,silence,,,,Police -- ------- ---- ---- ---- - -------- ----- --- --<br>----- ----- ------ -- ---- -- --- - ---- -- - ----- -----<br>------ ---- ------ ---- - -------- ------- -- --- --------<br>-------- ----------- ---- ------ ---- ------ ---- --- ---<br>-------- --- -----,293205.90000009537,293204,291858.474,291860.40000009537,291874.817,293206.728,,0,Police
screen,html.Screen,2_3_1_0_1_1,2022-04-25T14:24:33.591Z,,,,,,,,,,,,,,,,,40,,,,,,,,,,,,,,340.2719999999972,,response,,,,9,A,,,,,,Space,keypress(Space),,,,silence,,,,------ in ------- ---- ---- ---- - -------- ----- --- --<br>----- ----- ------ -- ---- -- --- - ---- -- - ----- -----<br>------ ---- ------ ---- - -------- ------- -- --- --------<br>-------- ----------- ---- ------ ---- ------ ---- --- ---<br>-------- --- -----,293548.90000009537,293547,293191.697,293206.10000014305,293206.728,293556.265,,1,in
screen,html.Screen,2_3_1_0_1_2,2022-04-25T14:24:33.945Z,,,,,,,,,,,,,,,,,40,,,,,,,,,,,,,,345.13500009535346,,response,,,,9,A,,,,,,Space,keypress(Space),,,,silence,,,,------ -- Georgia ---- ---- ---- - -------- ----- --- --<br>----- ----- ------ -- ---- -- --- - ---- -- - ----- -----<br>------ ---- ------ ---- - -------- ------- -- --- --------<br>-------- ----------- ---- ------ ---- ------ ---- --- ---<br>-------- --- -----,293903.40000009537,293901.40000009537,293540.164,293549.30000019073,293556.265,293905.88,,2,Georgia
screen,html.Screen,2_3_1_0_1_3,2022-04-25T14:24:34.429Z,,,,,,,,,,,,,,,,,40,,,,,,,,,,,,,,479.61999999999534,,response,,,,9,A,,,,,,Space,keypress(Space),,,,silence,,,,------ -- ------- have ---- ---- - -------- ----- --- --<br>----- ----- ------ -- ---- -- --- - ---- -- - ----- -----<br>------ ---- ------ ---- - -------- ------- -- --- --------<br>-------- ----------- ---- ------ ---- ------ ---- --- ---<br>-------- --- -----,294387,294385.5,293889.616,293903.7000000477,293905.88,294411.828,,3,have
screen,html.Screen,2_3_1_0_1_4,2022-04-25T14:24:34.774Z,,,,,,,,,,,,,,,,,40,,,,,,,,,,,,,,317.97200019075535,,response,,,,9,A,,,,,,Space,keypress(Space),,,,silence,,,,------ -- ------- ---- shut ---- - -------- ----- --- --<br>----- ----- ------ -- ---- -- --- - ---- -- - ----- -----<br>------ ---- ------ ---- - -------- ------- -- --- --------<br>-------- ----------- ---- ------ ---- ------ ---- --- ---<br>-------- --- -----,294731.7000000477,294729.80000019073,294372.685,294387.30000019073,294411.828,294738.209,,4,shut
screen,html.Screen,2_3_1_0_1_5,2022-04-25T14:24:35.104Z,,,,,,,,,,,,,,,,,40,,,,,,,,,,,,,,321.3910001430777,,response,,,,9,A,,,,,,Space,keypress(Space),,,,silence,,,,------ -- ------- ---- ---- down - -------- ----- --- --<br>----- ----- ------ -- ---- -- --- - ---- -- - ----- -----<br>------ ---- ------ ---- - -------- ------- -- --- --------<br>-------- ----------- ---- ------ ---- ------ ---- --- ---<br>-------- --- -----,295061.90000009537,295059.60000014305,294722.103,294732,294738.209,295071.39,,5,down
screen,html.Screen,2_3_1_0_1_6,2022-04-25T14:24:35.387Z,,,,,,,,,,,,,,,,,40,,,,,,,,,,,,,,272.10999999998603,,response,,,,9,A,,,,,,Space,keypress(Space),,,,silence,,,,------ -- ------- ---- ---- ---- a -------- ----- --- --<br>----- ----- ------ -- ---- -- --- - ---- -- - ----- -----<br>------ ---- ------ ---- - -------- ------- -- --- --------<br>-------- ----------- ---- ------ ---- ------ ---- --- ---<br>-------- --- -----,295344.80000019073,295343.5,295054.958,295062.30000019073,295071.39,295354.327,,6,a
screen,html.Screen,2_3_1_0_1_7,2022-04-25T14:24:35.704Z,,,,,,,,,,,,,,,,,40,,,,,,,,,,,,,,305.3730000476935,,response,,,,9,A,,,,,,Space,keypress(Space),,,,silence,,,,------ -- ------- ---- ---- ---- - lemonade ----- --- --<br>----- ----- ------ -- ---- -- --- - ---- -- - ----- -----<br>------ ---- ------ ---- - -------- ------- -- --- --------<br>-------- ----------- ---- ------ ---- ------ ---- --- ---<br>-------- --- -----,295662.40000009537,295659.7000000477,295337.876,295345.10000014305,295354.327,295670.497,,7,lemonade
screen,html.Screen,2_3_1_0_1_8,2022-04-25T14:24:36.006Z,,,,,,,,,,,,,,,,,40,,,,,,,,,,,,,,291.7030000477098,,response,,,,9,A,,,,,,Space,keypress(Space),,,,silence,,,,------ -- ------- ---- ---- ---- - -------- stand --- --<br>----- ----- ------ -- ---- -- --- - ---- -- - ----- -----<br>------ ---- ------ ---- - -------- ------- -- --- --------<br>-------- ----------- ---- ------ ---- ------ ---- --- ---<br>-------- --- -----,295964.10000014305,295962.2000000477,295654.367,295662.60000014305,295670.497,295970.723,,8,stand
screen,html.Screen,2_3_1_0_1_9,2022-04-25T14:24:36.276Z,,,,,,,,,,,,,,,,,40,,,,,,,,,,,,,,261.77700000000186,,response,,,,9,A,,,,,,Space,keypress(Space),,,,silence,,,,------ -- ------- ---- ---- ---- - -------- ----- run --<br>----- ----- ------ -- ---- -- --- - ---- -- - ----- -----<br>------ ---- ------ ---- - -------- ------- -- --- --------<br>-------- ----------- ---- ------ ---- ------ ---- --- ---<br>-------- --- -----,296234.2000000477,296232.5,295953.879,295964.30000019073,295970.723,296266.11,,9,run
screen,html.Screen,2_3_1_0_1_10,2022-04-25T14:24:36.565Z,,,,,,,,,,,,,,,,,40,,,,,,,,,,,,,,255.39000000001397,,response,,,,9,A,,,,,,Space,keypress(Space),,,,silence,,,,------ -- ------- ---- ---- ---- - -------- ----- --- by<br>----- ----- ------ -- ---- -- --- - ---- -- - ----- -----<br>------ ---- ------ ---- - -------- ------- -- --- --------<br>-------- ----------- ---- ------ ---- ------ ---- --- ---<br>-------- --- -----,296523.10000014305,296521.5,296220.234,296234.5,296266.11,296536.346,,10,by
screen,html.Screen,2_3_1_0_1_11,2022-04-25T14:24:36.857Z,,,,,,,,,,,,,,,,,40,,,,,,,,,,,,,,275.0540000953479,,response,,,,9,A,,,,,,Space,keypress(Space),,,,silence,,,,------ -- ------- ---- ---- ---- - -------- ----- --- --<br>three ----- ------ -- ---- -- --- - ---- -- - ----- -----<br>------ ---- ------ ---- - -------- ------- -- --- --------<br>-------- ----------- ---- ------ ---- ------ ---- --- ---<br>-------- --- -----,296814.60000014305,296811.40000009537,296520.009,296523.40000009537,296536.346,296819.242,,11,three
screen,html.Screen,2_3_1_0_1_12,2022-04-25T14:24:37.149Z,,,,,,,,,,,,,,,,,40,,,,,,,,,,,,,,286.2579999999725,,response,,,,9,A,,,,,,Space,keypress(Space),,,,silence,,,,------ -- ------- ---- ---- ---- - -------- ----- --- --<br>----- girls ------ -- ---- -- --- - ---- -- - ----- -----<br>------ ---- ------ ---- - -------- ------- -- --- --------<br>-------- ----------- ---- ------ ---- ------ ---- --- ---<br>-------- --- -----,297107.2000000477,297105.5,296803.006,296814.90000009537,296819.242,297118.829,,12,girls
screen,html.Screen,2_3_1_0_1_13,2022-04-25T14:24:37.439Z,,,,,,,,,,,,,,,,,40,,,,,,,,,,,,,,276.47100019070785,,response,,,,9,A,,,,,,Space,keypress(Space),,,,silence,,,,------ -- ------- ---- ---- ---- - -------- ----- --- --<br>----- ----- trying -- ---- -- --- - ---- -- - ----- -----<br>------ ---- ------ ---- - -------- ------- -- --- --------<br>-------- ----------- ---- ------ ---- ------ ---- --- ---<br>-------- --- -----,297397.40000009537,297395.30000019073,297102.477,297107.5,297118.829,297401.8,,13,trying
screen,html.Screen,2_3_1_0_1_14,2022-04-25T14:24:37.729Z,,,,,,,,,,,,,,,,,40,,,,,,,,,,,,,,283.8000001430628,,response,,,,9,A,,,,,,Space,keypress(Space),,,,silence,,,,------ -- ------- ---- ---- ---- - -------- ----- --- --<br>----- ----- ------ to ---- -- --- - ---- -- - ----- -----<br>------ ---- ------ ---- - -------- ------- -- --- --------<br>-------- ----------- ---- ------ ---- ------ ---- --- ---<br>-------- --- -----,297687.2000000477,297685.60000014305,297385.716,297397.7000000477,297401.8,297701.628,,14,to
screen,html.Screen,2_3_1_0_1_15,2022-04-25T14:24:38.014Z,,,,,,,,,,,,,,,,,40,,,,,,,,,,,,,,267.8719999999739,,response,,,,9,A,,,,,,Space,keypress(Space),,,,silence,,,,------ -- ------- ---- ---- ---- - -------- ----- --- --<br>----- ----- ------ -- save -- --- - ---- -- - ----- -----<br>------ ---- ------ ---- - -------- ------- -- --- --------<br>-------- ----------- ---- ------ ---- ------ ---- --- ---<br>-------- --- -----,297971.60000014305,297969.5,297685.217,297687.40000009537,297701.628,297984.776,,15,save
screen,html.Screen,2_3_1_0_1_16,2022-04-25T14:24:38.287Z,,,,,,,,,,,,,,,,,40,,,,,,,,,,,,,,259.0240001907223,,response,,,,9,A,,,,,,Space,keypress(Space),,,,silence,,,,------ -- ------- ---- ---- ---- - -------- ----- --- --<br>----- ----- ------ -- ---- up --- - ---- -- - ----- -----<br>------ ---- ------ ---- - -------- ------- -- --- --------<br>-------- ----------- ---- ------ ---- ------ ---- --- ---<br>-------- --- -----,298245.5,298243.80000019073,297968.136,297971.80000019073,297984.776,298250.836,,16,up
screen,html.Screen,2_3_1_0_1_17,2022-04-25T14:24:38.622Z,,,,,,,,,,,,,,,,,40,,,,,,,,,,,,,,327.5640000953572,,response,,,,9,A,,,,,,Space,keypress(Space),,,,silence,,,,------ -- ------- ---- ---- ---- - -------- ----- --- --<br>----- ----- ------ -- ---- -- for - ---- -- - ----- -----<br>------ ---- ------ ---- - -------- ------- -- --- --------<br>-------- ----------- ---- ------ ---- ------ ---- --- ---<br>-------- --- -----,298580.40000009537,298578.40000009537,298234.677,298245.80000019073,298250.836,298583.873,,17,for
screen,html.Screen,2_3_1_0_1_18,2022-04-25T14:24:38.906Z,,,,,,,,,,,,,,,,,40,,,,,,,,,,,,,,278.6269999999786,,response,,,,9,A,,,,,,Space,keypress(Space),,,,silence,,,,------ -- ------- ---- ---- ---- - -------- ----- --- --<br>----- ----- ------ -- ---- -- --- a ---- -- - ----- -----<br>------ ---- ------ ---- - -------- ------- -- --- --------<br>-------- ----------- ---- ------ ---- ------ ---- --- ---<br>-------- --- -----,298864.2000000477,298862.5,298567.544,298580.7000000477,298583.873,298866.783,,18,a
screen,html.Screen,2_3_1_0_1_19,2022-04-25T14:24:39.252Z,,,,,,,,,,,,,,,,,40,,,,,,,,,,,,,,340.51700019073905,,response,,,,9,A,,,,,,Space,keypress(Space),,,,silence,,,,------ -- ------- ---- ---- ---- - -------- ----- --- --<br>----- ----- ------ -- ---- -- --- - trip -- - ----- -----<br>------ ---- ------ ---- - -------- ------- -- --- --------<br>-------- ----------- ---- ------ ---- ------ ---- --- ---<br>-------- --- -----,299209.60000014305,299207.30000019073,298850.649,298864.5,298866.783,299216.395,,19,trip
screen,html.Screen,2_3_1_0_1_20,2022-04-25T14:24:39.516Z,,,,,,,,,,,,,,,,,40,,,,,,,,,,,,,,255.5050000953488,,response,,,,9,A,,,,,,Space,keypress(Space),,,,silence,,,,------ -- ------- ---- ---- ---- - -------- ----- --- --<br>----- ----- ------ -- ---- -- --- - ---- to - ----- -----<br>------ ---- ------ ---- - -------- ------- -- --- --------<br>-------- ----------- ---- ------ ---- ------ ---- --- ---<br>-------- --- -----,299473.60000014305,299471.90000009537,299200.303,299209.90000009537,299216.395,299482.774,,20,to
screen,html.Screen,2_3_1_0_1_21,2022-04-25T14:24:39.785Z,,,,,,,,,,,,,,,,,40,,,,,,,,,,,,,,258.32600014307536,,response,,,,9,A,,,,,,Space,keypress(Space),,,,silence,,,,------ -- ------- ---- ---- ---- - -------- ----- --- --<br>----- ----- ------ -- ---- -- --- - ---- -- a ----- -----<br>------ ---- ------ ---- - -------- ------- -- --- --------<br>-------- ----------- ---- ------ ---- ------ ---- --- ---<br>-------- --- -----,299743.2000000477,299741.10000014305,299466.522,299473.90000009537,299482.774,299749.108,,21,a
screen,html.Screen,2_3_1_0_1_22,2022-04-25T14:24:40.117Z,,,,,,,,,,,,,,,,,40,,,,,,,,,,,,,,321.9920001430437,,response,,,,9,A,,,,,,Space,keypress(Space),,,,silence,,,,------ -- ------- ---- ---- ---- - -------- ----- --- --<br>----- ----- ------ -- ---- -- --- - ---- -- - water -----<br>------ ---- ------ ---- - -------- ------- -- --- --------<br>-------- ----------- ---- ------ ---- ------ ---- --- ---<br>-------- --- -----,300075.2000000477,300071.10000014305,299732.953,299743.5,299749.108,300082.111,,22,water
screen,html.Screen,2_3_1_0_1_23,2022-04-25T14:24:40.490Z,,,,,,,,,,,,,,,,,40,,,,,,,,,,,,,,363.18900019075954,,response,,,,9,A,,,,,,Space,keypress(Space),,,,silence,,,,"------ -- ------- ---- ---- ---- - -------- ----- --- --<br>----- ----- ------ -- ---- -- --- - ---- -- - ----- park,<br>------ ---- ------ ---- - -------- ------- -- --- --------<br>-------- ----------- ---- ------ ---- ------ ---- --- ---<br>-------- --- -----",300447.7000000477,300445.30000019073,300065.981,300075.40000009537,300082.111,300465.12,,23,"park,"
screen,html.Screen,2_3_1_0_1_24,2022-04-25T14:24:40.829Z,,,,,,,,,,,,,,,,,40,,,,,,,,,,,,,,319.38000000000466,,response,,,,9,A,,,,,,Space,keypress(Space),,,,silence,,,,------ -- ------- ---- ---- ---- - -------- ----- --- --<br>----- ----- ------ -- ---- -- --- - ---- -- - ----- -----<br>saying ---- ------ ---- - -------- ------- -- --- --------<br>-------- ----------- ---- ------ ---- ------ ---- --- ---<br>-------- --- -----,300786.80000019073,300784.5,300448.931,300448.10000014305,300465.12,300798.231,,24,saying
screen,html.Screen,2_3_1_0_1_25,2022-04-25T14:24:41.114Z,,,,,,,,,,,,,,,,,40,,,,,,,,,,,,,,270.96900004765484,,response,,,,9,A,,,,,,Space,keypress(Space),,,,silence,,,,------ -- ------- ---- ---- ---- - -------- ----- --- --<br>----- ----- ------ -- ---- -- --- - ---- -- - ----- -----<br>------ they ------ ---- - -------- ------- -- --- --------<br>-------- ----------- ---- ------ ---- ------ ---- --- ---<br>-------- --- -----,301071.60000014305,301069.2000000477,300781.835,300787.2000000477,300798.231,301080.916,,25,they
screen,html.Screen,2_3_1_0_1_26,2022-04-25T14:24:41.444Z,,,,,,,,,,,,,,,,,40,,,,,,,,,,,,,,318.4840000953409,,response,,,,9,A,,,,,,Space,keypress(Space),,,,silence,,,,------ -- ------- ---- ---- ---- - -------- ----- --- --<br>----- ----- ------ -- ---- -- --- - ---- -- - ----- -----<br>------ ---- didn't ---- - -------- ------- -- --- --------<br>-------- ----------- ---- ------ ---- ------ ---- --- ---<br>-------- --- -----,301401.7000000477,301399.40000009537,301064.564,301072,301080.916,301414.116,,26,didn't
screen,html.Screen,2_3_1_0_1_27,2022-04-25T14:24:41.966Z,,,,,,,,,,,,,,,,,40,,,,,,,,,,,,,,508.38400000002,,response,,,,9,A,,,,,,Space,keypress(Space),,,,silence,,,,------ -- ------- ---- ---- ---- - -------- ----- --- --<br>----- ----- ------ -- ---- -- --- - ---- -- - ----- -----<br>------ ---- ------ have - -------- ------- -- --- --------<br>-------- ----------- ---- ------ ---- ------ ---- --- ---<br>-------- --- -----,301924.7000000477,301922.5,301397.586,301402,301414.116,301929.978,,27,have
screen,html.Screen,2_3_1_0_1_28,2022-04-25T14:24:42.285Z,,,,,,,,,,,,,,,,,40,,,,,,,,,,,,,,312.32200019073207,,response,,,,9,A,,,,,,Space,keypress(Space),,,,silence,,,,------ -- ------- ---- ---- ---- - -------- ----- --- --<br>----- ----- ------ -- ---- -- --- - ---- -- - ----- -----<br>------ ---- ------ ---- a -------- ------- -- --- --------<br>-------- ----------- ---- ------ ---- ------ ---- --- ---<br>-------- --- -----,302244,302242.30000019073,301914.049,301925,301929.978,302266.727,,28,a
screen,html.Screen,2_3_1_0_1_29,2022-04-25T14:24:42.632Z,,,,,,,,,,,,,,,,,40,,,,,,,,,,,,,,320.1730000953539,,response,,,,9,A,,,,,,Space,keypress(Space),,,,silence,,,,------ -- ------- ---- ---- ---- - -------- ----- --- --<br>----- ----- ------ -- ---- -- --- - ---- -- - ----- -----<br>------ ---- ------ ---- - business ------- -- --- --------<br>-------- ----------- ---- ------ ---- ------ ---- --- ---<br>-------- --- -----,302590.30000019073,302586.90000009537,302230.054,302244.40000009537,302266.727,302595.942,,29,business
screen,html.Screen,2_3_1_0_1_30,2022-04-25T14:24:42.924Z,,,,,,,,,,,,,,,,,40,,,,,,,,,,,,,,285.0580000000191,,response,,,,9,A,,,,,,Space,keypress(Space),,,,silence,,,,------ -- ------- ---- ---- ---- - -------- ----- --- --<br>----- ----- ------ -- ---- -- --- - ---- -- - ----- -----<br>------ ---- ------ ---- - -------- license -- --- --------<br>-------- ----------- ---- ------ ---- ------ ---- --- ---<br>-------- --- -----,302882.7000000477,302881,302579.6,302590.60000014305,302595.942,302895.673,,30,license
screen,html.Screen,2_3_1_0_1_31,2022-04-25T14:24:43.196Z,,,,,,,,,,,,,,,,,40,,,,,,,,,,,,,,255.12700019072508,,response,,,,9,A,,,,,,Space,keypress(Space),,,,silence,,,,------ -- ------- ---- ---- ---- - -------- ----- --- --<br>----- ----- ------ -- ---- -- --- - ---- -- - ----- -----<br>------ ---- ------ ---- - -------- ------- or --- --------<br>-------- ----------- ---- ------ ---- ------ ---- --- ---<br>-------- --- -----,303154.2000000477,303150.80000019073,302879.398,302883,302895.673,303163.004,,31,or
screen,html.Screen,2_3_1_0_1_32,2022-04-25T14:24:43.415Z,,,,,,,,,,,,,,,,,40,,,,,,,,,,,,,,208.7960001907195,,response,,,,9,A,,,,,,Space,keypress(Space),,,,silence,,,,------ -- ------- ---- ---- ---- - -------- ----- --- --<br>----- ----- ------ -- ---- -- --- - ---- -- - ----- -----<br>------ ---- ------ ---- - -------- ------- -- the --------<br>-------- ----------- ---- ------ ---- ------ ---- --- ---<br>-------- --- -----,303373.90000009537,303371.80000019073,303145.699,303154.5,303163.004,303378.329,,32,the
screen,html.Screen,2_3_1_0_1_33,2022-04-25T14:24:43.713Z,,,,,,,,,,,,,,,,,40,,,,,,,,,,,,,,291.0710000953404,,response,,,,9,A,,,,,,Space,keypress(Space),,,,silence,,,,------ -- ------- ---- ---- ---- - -------- ----- --- --<br>----- ----- ------ -- ---- -- --- - ---- -- - ----- -----<br>------ ---- ------ ---- - -------- ------- -- --- required<br>-------- ----------- ---- ------ ---- ------ ---- --- ---<br>-------- --- -----,303671.10000014305,303669.40000009537,303361.928,303374.30000019073,303378.329,303677.932,,33,required
screen,html.Screen,2_3_1_0_1_34,2022-04-25T14:24:44.222Z,,,,,,,,,,,,,,,,,40,,,,,,,,,,,,,,500.16800014307955,,response,,,,9,A,,,,,,Space,keypress(Space),,,,silence,,,,------ -- ------- ---- ---- ---- - -------- ----- --- --<br>----- ----- ------ -- ---- -- --- - ---- -- - ----- -----<br>------ ---- ------ ---- - -------- ------- -- --- --------<br>permits. ----------- ---- ------ ---- ------ ---- --- ---<br>-------- --- -----,304180.30000019073,304178.10000014305,303661.819,303671.30000019073,303677.932,304193.996,,34,permits.
screen,html.Screen,2_3_1_0_1_35,2022-04-25T14:24:44.568Z,,,,,,,,,,,,,,,,,40,,,,,,,,,,,,,,328.9040000953828,,response,,,,9,A,,,,,,Space,keypress(Space),,,,silence,,,,------ -- ------- ---- ---- ---- - -------- ----- --- --<br>----- ----- ------ -- ---- -- --- - ---- -- - ----- -----<br>------ ---- ------ ---- - -------- ------- -- --- --------<br>-------- Morningstar ---- ------ ---- ------ ---- --- ---<br>-------- --- -----,304526.30000019073,304522.90000009537,304178.098,304180.60000014305,304193.996,304560.669,,35,Morningstar
screen,html.Screen,2_3_1_0_1_36,2022-04-25T14:24:44.953Z,,,,,,,,,,,,,,,,,40,,,,,,,,,,,,,,347.13100019074045,,response,,,,9,A,,,,,,Space,keypress(Space),,,,silence,,,,------ -- ------- ---- ---- ---- - -------- ----- --- --<br>----- ----- ------ -- ---- -- --- - ---- -- - ----- -----<br>------ ---- ------ ---- - -------- ------- -- --- --------<br>-------- ----------- says ------ ---- ------ ---- --- ---<br>-------- --- -----,304911.30000019073,304907.80000019073,304544.007,304526.5,304560.669,304926.919,,36,says
screen,html.Screen,2_3_1_0_1_37,2022-04-25T14:24:45.327Z,,,,,,,,,,,,,,,,,40,,,,,,,,,,,,,,355.38100019074045,,response,,,,9,A,,,,,,Space,keypress(Space),,,,silence,,,,------ -- ------- ---- ---- ---- - -------- ----- --- --<br>----- ----- ------ -- ---- -- --- - ---- -- - ----- -----<br>------ ---- ------ ---- - -------- ------- -- --- --------<br>-------- ----------- ---- police ---- ------ ---- --- ---<br>-------- --- -----,305285.7000000477,305282.30000019073,304910.326,304911.5,304926.919,305292.808,,37,police
screen,html.Screen,2_3_1_0_1_38,2022-04-25T14:24:45.650Z,,,,,,,,,,,,,,,,,40,,,,,,,,,,,,,,313.6919999999809,,response,,,,9,A,,,,,,Space,keypress(Space),,,,silence,,,,------ -- ------- ---- ---- ---- - -------- ----- --- --<br>----- ----- ------ -- ---- -- --- - ---- -- - ----- -----<br>------ ---- ------ ---- - -------- ------- -- --- --------<br>-------- ----------- ---- ------ also ------ ---- --- ---<br>-------- --- -----,305608.10000014305,305606.5,305276.692,305286,305292.808,305626.029,,38,also
screen,html.Screen,2_3_1_0_1_39,2022-04-25T14:24:45.926Z,,,,,,,,,,,,,,,,,40,,,,,,,,,,,,,,254.77100019075442,,response,,,,9,A,,,,,,Space,keypress(Space),,,,silence,,,,------ -- ------- ---- ---- ---- - -------- ----- --- --<br>----- ----- ------ -- ---- -- --- - ---- -- - ----- -----<br>------ ---- ------ ---- - -------- ------- -- --- --------<br>-------- ----------- ---- ------ ---- didn't ---- --- ---<br>-------- --- -----,305884.30000019073,305880.80000019073,305592.909,305608.40000009537,305626.029,305893.072,,39,didn't
screen,html.Screen,2_3_1_0_1_40,2022-04-25T14:24:46.391Z,,,,,,,,,,,,,,,,,40,,,,,,,,,,,,,,452.12800004769815,,response,,,,9,A,,,,,,Space,keypress(Space),,,,silence,,,,------ -- ------- ---- ---- ---- - -------- ----- --- --<br>----- ----- ------ -- ---- -- --- - ---- -- - ----- -----<br>------ ---- ------ ---- - -------- ------- -- --- --------<br>-------- ----------- ---- ------ ---- ------ know --- ---<br>-------- --- -----,306349.60000014305,306345.2000000477,305875.715,305884.5,305893.072,306359.061,,40,know
screen,html.Screen,2_3_1_0_1_41,2022-04-25T14:24:46.764Z,,,,,,,,,,,,,,,,,40,,,,,,,,,,,,,,360.13900004769675,,response,,,,9,A,,,,,,Space,keypress(Space),,,,silence,,,,------ -- ------- ---- ---- ---- - -------- ----- --- --<br>----- ----- ------ -- ---- -- --- - ---- -- - ----- -----<br>------ ---- ------ ---- - -------- ------- -- --- --------<br>-------- ----------- ---- ------ ---- ------ ---- how ---<br>-------- --- -----,306722.7000000477,306719.2000000477,306342.058,306350,306359.061,306744.927,,41,how
screen,html.Screen,2_3_1_0_1_42,2022-04-25T14:24:47.078Z,,,,,,,,,,,,,,,,,40,,,,,,,,,,,,,,289.57299999997485,,response,,,,9,A,,,,,,Space,keypress(Space),,,,silence,,,,------ -- ------- ---- ---- ---- - -------- ----- --- --<br>----- ----- ------ -- ---- -- --- - ---- -- - ----- -----<br>------ ---- ------ ---- - -------- ------- -- --- --------<br>-------- ----------- ---- ------ ---- ------ ---- --- the<br>-------- --- -----,307036.7000000477,307034.5,306708.423,306723,306744.927,307040.757,,42,the
screen,html.Screen,2_3_1_0_1_43,2022-04-25T14:24:47.398Z,,,,,,,,,,,,,,,,,40,,,,,,,,,,,,,,312.3430001430679,,response,,,,9,A,,,,,,Space,keypress(Space),,,,silence,,,,------ -- ------- ---- ---- ---- - -------- ----- --- --<br>----- ----- ------ -- ---- -- --- - ---- -- - ----- -----<br>------ ---- ------ ---- - -------- ------- -- --- --------<br>-------- ----------- ---- ------ ---- ------ ---- --- ---<br>lemonade --- -----,307356.60000014305,307353.10000014305,307024.398,307036.90000009537,307040.757,307373.842,,43,lemonade
screen,html.Screen,2_3_1_0_1_44,2022-04-25T14:24:47.676Z,,,,,,,,,,,,,,,,,40,,,,,,,,,,,,,,258.3580000476795,,response,,,,9,A,,,,,,Space,keypress(Space),,,,silence,,,,------ -- ------- ---- ---- ---- - -------- ----- --- --<br>----- ----- ------ -- ---- -- --- - ---- -- - ----- -----<br>------ ---- ------ ---- - -------- ------- -- --- --------<br>-------- ----------- ---- ------ ---- ------ ---- --- ---<br>-------- was -----,307634.30000019073,307632.2000000477,307357.56,307356.90000009537,307373.842,307640.067,,44,was
screen,html.Screen,2_3_1_0_1_45,2022-04-25T14:24:47.985Z,,,,,,,,,,,,,,,,,40,,,,,,,,,,,,,,301.8330000953865,,response,,,,9,A,,,,,,Space,keypress(Space),,,,silence,,,,------ -- ------- ---- ---- ---- - -------- ----- --- --<br>----- ----- ------ -- ---- -- --- - ---- -- - ----- -----<br>------ ---- ------ ---- - -------- ------- -- --- --------<br>-------- ----------- ---- ------ ---- ------ ---- --- ---<br>-------- --- made.,307943.40000009537,307941.90000009537,307623.88,307634.60000014305,307640.067,307956.326,,45,made.
Item 9,flow.Loop,2_3_1_0_1,2022-04-25T14:24:47.985Z,,,,,,,,,,,,,,,,,,,,,,,,,,,,,,,16067.083000095387,,completion,,,,,,,,,,,,,,,,,,,,,307944,307941.90000009537,291858.474,291860.2000000477,291874.817,307956.326,,,
Question 1,html.Screen,2_3_1_0_2,2022-04-25T14:24:50.215Z,,,,,,,,,,,,,,,,,,,,,,,,,,,,true,FALSE,,2213.673999999999,,response,,,,9,A,,,,,,FALSE,click #choice-2,,,,silence,,,,,310173.60000014305,310170,307940.077,307944.2000000477,307956.326,310187.158,,,
Question 2,html.Screen,2_3_1_0_3,2022-04-25T14:24:52.750Z,,,,,,,,,,,,,,,,,,,,,,,,,,,,true,FALSE,,2518.842000000004,,response,,,,9,A,,,,,,FALSE,click #choice-2,,,,silence,,,,,312708.40000009537,312706,310170.768,310173.90000009537,310187.158,312717.635,,,
