sender,sender_type,sender_id,timestamp,meta,,Blues,Classical,Country,Dance,Electronic,Folk,Gospel,Hip-Hop,Jazz,Latin,Musical/Film,New-age,Pop,Prolific_id,Provo_ID,R&B,Rap,Reggae,Religious,Rock,Soul,Swing,Traditional,age,artist_name,correct,correctResponse,distraction,duration,education,ended_on,familiarity,gender,headphone_check_performance,item,list,music_frequency,offensiveness,pleasantness,position_correct,preference,response,response_action,snippet_file,song_name,song_rating,sound,stimulus_1,stimulus_2,stimulus_3,text,time_commit,time_end,time_render,time_run,time_show,time_switch,url,word,word_ID
Prolific ID,html.Form,0,2022-05-03T10:18:20.271Z,"{""labjs_version"":""20.2.2"",""labjs_build"":{""flavor"":""production"",""commit"":""a25486e0c714a0ae2ce03ff94b7bb6896854dcfa""},""location"":""https://run.pavlovia.org/mvasilev/prolific3_music_h/"",""userAgent"":""Mozilla/5.0 (Windows NT 10.0; Win64; x64) AppleWebKit/537.36 (KHTML, like Gecko) Chrome/100.0.4896.127 Safari/537.36"",""platform"":""Win32"",""language"":""en-GB"",""locale"":""en-GB"",""timeZone"":""Europe/London"",""timezoneOffset"":-60,""screen_width"":1536,""screen_height"":864,""scroll_width"":1458,""scroll_height"":714,""window_innerWidth"":1458,""window_innerHeight"":762,""devicePixelRatio"":1.25}",,,,,,,,,,,,,,,5d53c753cdaa7a000101dd14,,,,,,,,,,,,,,,12033.846000047684,,form submission,,,,,,,,,,,,,,,,,,,,,36834,36833.200000047684,24682.75,24674.299999952316,24799.354,36863.701,{},,
Introduction,html.Screen,1_0,2022-05-03T10:19:23.284Z,,,,,,,,,,,,,,,,,,,,,,,,,,,,,,,62981.799,,response,,,,,,,,,,,continue,click button,,,,,,,,,99847.60000014305,99845.5,36813.8,36834.5,36863.701,99867.994,,,
Volume calibration,html.Screen,1_1,2022-05-03T10:20:01.815Z,,,,,,,,,,,,,,,,,,,,,,,,,,,,,,,38505.90600009536,,response,,,,,,,,,,,continue,click button,,,,,,,,,138378.5,138373.90000009537,99851.34,99847.79999995232,99867.994,138377.093,,,
Task instructions,html.Screen,1_2,2022-05-03T10:20:11.075Z,,,,,,,,,,,,,,,,,,,,,,,,,,,,,,,9260.60700004769,,response,,,,,,,,,,,continue,click button,,,,,,,,,147638.60000014305,147637.70000004768,138360.53,138378.60000014305,138377.093,147658.662,,,
Sounds,html.Screen,1_3_0_0,2022-05-03T10:20:15.336Z,,,,,,,,,,,,,,,,,,,,,,,,,,,,,,,4249.190999999992,,timeout,,,,,,,,,3,,,,,,,,O,I,S,,151899.20000004768,151891.185,147625.36,147644.70000004768,147658.662,151907.853,,,
Judgement,html.Screen,1_3_0_1,2022-05-03T10:20:16.557Z,,,,,,,,,,,,,,,,,,,,,,,,,,,,true,3,,1210.6469999999972,,response,,,,,,,,,3,,3,click #choice-3,,,,,O,I,S,,153120.60000014305,153118.5,151891.185,151899.5,151907.853,153124.194,,,
Trial,flow.Sequence,1_3_0,2022-05-03T10:20:16.557Z,,,,,,,,,,,,,,,,,,,,,,,,,,,,,,,5459.837999999989,,completion,,,,,,,,,3,,,,,,,,O,I,S,,153120.90000009537,153118.5,147625.36,147644.5,147658.662,153124.194,,,
Sounds,html.Screen,1_3_1_0,2022-05-03T10:20:20.796Z,,,,,,,,,,,,,,,,,,,,,,,,,,,,,,,4249.341000000015,,timeout,,,,,,,,,2,,,,,,,,I,S,O,,157358.70000004768,157356.799,153107.514,153122.60000014305,153124.194,157373.535,,,
Judgement,html.Screen,1_3_1_1,2022-05-03T10:20:21.445Z,,,,,,,,,,,,,,,,,,,,,,,,,,,,true,2,,632.3650000953639,,response,,,,,,,,,2,,2,click #choice-2,,,,,I,S,O,,158007.40000009537,158005.90000009537,157356.799,157359.40000009537,157373.535,158023.257,,,
Trial,flow.Sequence,1_3_1,2022-05-03T10:20:21.450Z,,,,,,,,,,,,,,,,,,,,,,,,,,,,,,,4881.706000095379,,completion,,,,,,,,,2,,,,,,,,I,S,O,,158013.40000009537,158005.90000009537,153107.514,153121,153124.194,158023.257,,,
Sounds,html.Screen,1_3_2_0,2022-05-03T10:20:25.694Z,,,,,,,,,,,,,,,,,,,,,,,,,,,,,,,4249.22199999998,,timeout,,,,,,,,,1,,,,,,,,S,I,O,,162256.40000009537,162255.805,157990.021,158013.70000004768,158023.257,162272.479,,,
Judgement,html.Screen,1_3_2_1,2022-05-03T10:20:26.292Z,,,,,,,,,,,,,,,,,,,,,,,,,,,,true,1,,581.3209999523242,,response,,,,,,,,,1,,1,click #choice-1,,,,,S,I,O,,162854.79999995232,162853.79999995232,162255.805,162256.60000014305,162272.479,162855.658,,,
Trial,flow.Sequence,1_3_2,2022-05-03T10:20:26.292Z,,,,,,,,,,,,,,,,,,,,,,,,,,,,,,,4830.542999952304,,completion,,,,,,,,,1,,,,,,,,S,I,O,,162855,162853.79999995232,157990.021,158013.60000014305,158023.257,162855.658,,,
Sounds,html.Screen,1_3_3_0,2022-05-03T10:20:30.526Z,,,,,,,,,,,,,,,,,,,,,,,,,,,,,,,4249.233000000007,,timeout,,,,,,,,,2,,,,,,,,O,S,I,,167089,167088.128,162839.051,162855.10000014305,162855.658,167104.891,,,
Judgement,html.Screen,1_3_3_1,2022-05-03T10:20:31.156Z,,,,,,,,,,,,,,,,,,,,,,,,,,,,true,2,,612.908999952313,,response,,,,,,,,,2,,2,click #choice-2,,,,,O,S,I,,167718.79999995232,167717.79999995232,167088.128,167089.10000014305,167104.891,167721.338,,,
Trial,flow.Sequence,1_3_3,2022-05-03T10:20:31.156Z,,,,,,,,,,,,,,,,,,,,,,,,,,,,,,,4862.1419999523205,,completion,,,,,,,,,2,,,,,,,,O,S,I,,167719,167717.79999995232,162839.051,162855.10000014305,162855.658,167721.338,,,
Sounds,html.Screen,1_3_4_0,2022-05-03T10:20:35.398Z,,,,,,,,,,,,,,,,,,,,,,,,,,,,,,,4249.233000000007,,timeout,,,,,,,,,1,,,,,,,,S,O,I,,171960.79999995232,171953.979,167704.747,167719.10000014305,167721.338,171970.571,,,
Judgement,html.Screen,1_3_4_1,2022-05-03T10:20:35.980Z,,,,,,,,,,,,,,,,,,,,,,,,,,,,true,1,,571.3290000953712,,response,,,,,,,,,1,,1,click #choice-1,,,,,S,O,I,,172543,172541.90000009537,171953.979,171961.20000004768,171970.571,172553.799,,,
Trial,flow.Sequence,1_3_4,2022-05-03T10:20:35.980Z,,,,,,,,,,,,,,,,,,,,,,,,,,,,,,,4820.562000095379,,completion,,,,,,,,,1,,,,,,,,S,O,I,,172543.10000014305,172541.90000009537,167704.747,167719,167721.338,172553.799,,,
Sounds,html.Screen,1_3_5_0,2022-05-03T10:20:40.225Z,,,,,,,,,,,,,,,,,,,,,,,,,,,,,,,4249.189000000013,,timeout,,,,,,,,,3,,,,,,,,I,O,S,,176788.40000009537,176786.423,172537.164,172543.29999995232,172553.799,176802.988,,,
Judgement,html.Screen,1_3_5_1,2022-05-03T10:20:40.812Z,,,,,,,,,,,,,,,,,,,,,,,,,,,,true,3,,570.8119999523042,,response,,,,,,,,,3,,3,click #choice-3,,,,,I,O,S,,177374.90000009537,177373.79999995232,176786.423,176788.70000004768,176802.988,177402.817,,,
Trial,flow.Sequence,1_3_5,2022-05-03T10:20:40.812Z,,,,,,,,,,,,,,,,,,,,,,,,,,,,,,,4820.000999952317,,completion,,,,,,,,,3,,,,,,,,I,O,S,,177375.10000014305,177373.79999995232,172537.164,172543.20000004768,172553.799,177402.817,,,
Task,flow.Loop,1_3,2022-05-03T10:20:40.818Z,,,,,,,,,,,,,,,,,,,,,,,,,,,,,,,29715.137999952305,,completion,,,1,,,,,,,,,,,,,,,,,,177381,177373.79999995232,147625.36,147644.20000004768,147658.662,177402.817,,,
Trap,html.Screen,1_4,2022-05-03T10:20:40.839Z,,,,,,,,,,,,,,,,,,,,,,,,,,,,,,,NaN,,skipped,,,,,,,,,,,,,,,,,,,,,177401.70000004768,177373.79999995232,,177401.5,,177402.817,,,
Thanks,html.Screen,1_5,2022-05-03T10:20:44.252Z,,,,,,,,,,,,,,,,,,,,,,,,,,,,,,,3411.0830000953574,,response,,,,,,,,,,,continue,click button,,,,,,,,,180814.90000009537,180813.90000009537,177369.476,177401.79999995232,177402.817,184468.053,,,
Headphone screening,flow.Sequence,1,2022-05-03T10:20:44.252Z,,,,,,,,,,,,,,,,,,,,,,,,,,,,,,,143950.19900009537,,completion,,,,,,,,,,,,,,,,,,,,,180815,180813.90000009537,36813.8,36834.40000009537,36863.701,184468.053,,,
Instructions,html.Page,2_0,2022-05-03T10:21:11.620Z,,,,,,,,,,,,,,,,,,,,,,,,,,,,,,,23714.047000143037,,form submission,,,,,,,,,,,,,,,,,,,,,208182.40000009537,208182.10000014305,184451.399,184473.5,184468.053,208180.128,,,
Holding screen,html.Screen,2_1_0_0,2022-05-03T10:21:21.599Z,,,,,,,,,,,,,,,,,,,,,,,,,,,,,,,10047.958000000013,,timeout,,,,,,,,,,,,,,,,,,,,,218162.60000014305,218161.564,208163.507,208182.60000014305,208180.128,218228.086,,,
screen,html.Screen,2_1_0_1_0,2022-05-03T10:21:22.617Z,,,,,,,,,,,,,,,,,53,,,,,,,,,,,,,,940.213999952306,,response,,,,99,,,,,,,Space,keypress(Space),,,,,,,,When -- ----- -- ------ - ------- --- ----------<br>------------- ------ ------ ---- ---- ------- ----- -- ----<br>-------- ------- -- ---------- --- - --- ----- ----- ----<br>---- --- --- ----- --- ---- ---- ------- ----- ---- -------<br>--- --- -- ----- -- --- ---- -- --- ---- -- ------ ------<br>--- ----- -- ----,219180.5,219168.29999995232,218161.564,218162.90000009537,218228.086,219177.953,,0,When
screen,html.Screen,2_1_0_1_1,2022-05-03T10:21:23.061Z,,,,,,,,,,,,,,,,,53,,,,,,,,,,,,,,444.9470000953588,,response,,,,99,,,,,,,Space,keypress(Space),,,,,,,,---- it ----- -- ------ - ------- --- ----------<br>------------- ------ ------ ---- ---- ------- ----- -- ----<br>-------- ------- -- ---------- --- - --- ----- ----- ----<br>---- --- --- ----- --- ---- ---- ------- ----- ---- -------<br>--- --- -- ----- -- --- ---- -- --- ---- -- ------ ------<br>--- ----- -- ----,219624,219622.90000009537,219161.34,219180.79999995232,219177.953,219627.862,,1,it
screen,html.Screen,2_1_0_1_2,2022-05-03T10:21:23.327Z,,,,,,,,,,,,,,,,,53,,,,,,,,,,,,,,261.0380000953737,,response,,,,99,,,,,,,Space,keypress(Space),,,,,,,,---- -- comes -- ------ - ------- --- ----------<br>------------- ------ ------ ---- ---- ------- ----- -- ----<br>-------- ------- -- ---------- --- - --- ----- ----- ----<br>---- --- --- ----- --- ---- ---- ------- ----- ---- -------<br>--- --- -- ----- -- --- ---- -- --- ---- -- ------ ------<br>--- ----- -- ----,219890,219888.90000009537,219611.246,219624.29999995232,219627.862,219894.468,,2,comes
screen,html.Screen,2_1_0_1_3,2022-05-03T10:21:23.822Z,,,,,,,,,,,,,,,,,53,,,,,,,,,,,,,,490.43200009537395,,response,,,,99,,,,,,,Space,keypress(Space),,,,,,,,---- -- ----- to ------ - ------- --- ----------<br>------------- ------ ------ ---- ---- ------- ----- -- ----<br>-------- ------- -- ---------- --- - --- ----- ----- ----<br>---- --- --- ----- --- ---- ---- ------- ----- ---- -------<br>--- --- -- ----- -- --- ---- -- --- ---- -- ------ ------<br>--- ----- -- ----,220385.40000009537,220384.90000009537,219877.852,219890.10000014305,219894.468,220394.33,,3,to
screen,html.Screen,2_1_0_1_4,2022-05-03T10:21:24.212Z,,,,,,,,,,,,,,,,,53,,,,,,,,,,,,,,380.4699999523291,,response,,,,99,,,,,,,Space,keypress(Space),,,,,,,,---- -- ----- -- having - ------- --- ----------<br>------------- ------ ------ ---- ---- ------- ----- -- ----<br>-------- ------- -- ---------- --- - --- ----- ----- ----<br>---- --- --- ----- --- ---- ---- ------- ----- ---- -------<br>--- --- -- ----- -- --- ---- -- --- ---- -- ------ ------<br>--- ----- -- ----,220775.79999995232,220774.79999995232,220377.782,220385.5,220394.33,220799.61,,4,having
screen,html.Screen,2_1_0_1_5,2022-05-03T10:21:24.722Z,,,,,,,,,,,,,,,,,53,,,,,,,,,,,,,,484.7900000953814,,response,,,,99,,,,,,,Space,keypress(Space),,,,,,,,---- -- ----- -- ------ a ------- --- ----------<br>------------- ------ ------ ---- ---- ------- ----- -- ----<br>-------- ------- -- ---------- --- - --- ----- ----- ----<br>---- --- --- ----- --- ---- ---- ------- ----- ---- -------<br>--- --- -- ----- -- --- ---- -- --- ---- -- ------ ------<br>--- ----- -- ----,221285.40000009537,221284.40000009537,220760.948,220776,220799.61,221294.259,,5,a
screen,html.Screen,2_1_0_1_6,2022-05-03T10:21:25.129Z,,,,,,,,,,,,,,,,,53,,,,,,,,,,,,,,397.4410000476928,,response,,,,99,,,,,,,Space,keypress(Space),,,,,,,,---- -- ----- -- ------ - lasting --- ----------<br>------------- ------ ------ ---- ---- ------- ----- -- ----<br>-------- ------- -- ---------- --- - --- ----- ----- ----<br>---- --- --- ----- --- ---- ---- ------- ----- ---- -------<br>--- --- -- ----- -- --- ---- -- --- ---- -- ------ ------<br>--- ----- -- ----,221692.60000014305,221691.70000004768,221277.608,221285.70000004768,221294.259,221724.885,,6,lasting
screen,html.Screen,2_1_0_1_7,2022-05-03T10:21:25.563Z,,,,,,,,,,,,,,,,,53,,,,,,,,,,,,,,400.41499995230697,,response,,,,99,,,,,,,Space,keypress(Space),,,,,,,,---- -- ----- -- ------ - ------- and ----------<br>------------- ------ ------ ---- ---- ------- ----- -- ----<br>-------- ------- -- ---------- --- - --- ----- ----- ----<br>---- --- --- ----- --- ---- ---- ------- ----- ---- -------<br>--- --- -- ----- -- --- ---- -- --- ---- -- ------ ------<br>--- ----- -- ----,222126.5,222125.29999995232,221677.481,221692.79999995232,221724.885,222160.733,,7,and
screen,html.Screen,2_1_0_1_8,2022-05-03T10:21:25.966Z,,,,,,,,,,,,,,,,,53,,,,,,,,,,,,,,367.3670001430437,,response,,,,99,,,,,,,Space,keypress(Space),,,,,,,,---- -- ----- -- ------ - ------- --- fulfilling<br>------------- ------ ------ ---- ---- ------- ----- -- ----<br>-------- ------- -- ---------- --- - --- ----- ----- ----<br>---- --- --- ----- --- ---- ---- ------- ----- ---- -------<br>--- --- -- ----- -- --- ---- -- --- ---- -- ------ ------<br>--- ----- -- ----,222529.40000009537,222528.10000014305,222144.094,222126.70000004768,222160.733,222544.014,,8,fulfilling
screen,html.Screen,2_1_0_1_9,2022-05-03T10:21:26.237Z,,,,,,,,,,,,,,,,,53,,,,,,,,,,,,,,254.58600014305557,,response,,,,99,,,,,,,Space,keypress(Space),,,,,,,,"---- -- ----- -- ------ - ------- --- ----------<br>relationship, ------ ------ ---- ---- ------- ----- -- ----<br>-------- ------- -- ---------- --- - --- ----- ----- ----<br>---- --- --- ----- --- ---- ---- ------- ----- ---- -------<br>--- --- -- ----- -- --- ---- -- --- ---- -- ------ ------<br>--- ----- -- ----",222800,222798.60000014305,222527.316,222529.60000014305,222544.014,222810.615,,9,"relationship,"
screen,html.Screen,2_1_0_1_10,2022-05-03T10:21:26.489Z,,,,,,,,,,,,,,,,,53,,,,,,,,,,,,,,239.98500014306046,,response,,,,99,,,,,,,Space,keypress(Space),,,,,,,,---- -- ----- -- ------ - ------- --- ----------<br>------------- common ------ ---- ---- ------- ----- -- ----<br>-------- ------- -- ---------- --- - --- ----- ----- ----<br>---- --- --- ----- --- ---- ---- ------- ----- ---- -------<br>--- --- -- ----- -- --- ---- -- --- ---- -- ------ ------<br>--- ----- -- ----,223051.90000009537,223050.60000014305,222793.981,222800.20000004768,222810.615,223060.534,,10,common
screen,html.Screen,2_1_0_1_11,2022-05-03T10:21:27.368Z,,,,,,,,,,,,,,,,,53,,,,,,,,,,,,,,869.3660000953532,,response,,,,99,,,,,,,Space,keypress(Space),,,,,,,,---- -- ----- -- ------ - ------- --- ----------<br>------------- ------ wisdom ---- ---- ------- ----- -- ----<br>-------- ------- -- ---------- --- - --- ----- ----- ----<br>---- --- --- ----- --- ---- ---- ------- ----- ---- -------<br>--- --- -- ----- -- --- ---- -- --- ---- -- ------ ------<br>--- ----- -- ----,223931.40000009537,223929.90000009537,223043.833,223052.20000004768,223060.534,223943.644,,11,wisdom
screen,html.Screen,2_1_0_1_12,2022-05-03T10:21:27.728Z,,,,,,,,,,,,,,,,,53,,,,,,,,,,,,,,346.5560000476835,,response,,,,99,,,,,,,Space,keypress(Space),,,,,,,,---- -- ----- -- ------ - ------- --- ----------<br>------------- ------ ------ says ---- ------- ----- -- ----<br>-------- ------- -- ---------- --- - --- ----- ----- ----<br>---- --- --- ----- --- ---- ---- ------- ----- ---- -------<br>--- --- -- ----- -- --- ---- -- --- ---- -- ------ ------<br>--- ----- -- ----,224291.40000009537,224290.20000004768,223926.999,223931.60000014305,223943.644,224293.559,,12,says
screen,html.Screen,2_1_0_1_13,2022-05-03T10:21:28.091Z,,,,,,,,,,,,,,,,,53,,,,,,,,,,,,,,359.4409999999916,,response,,,,99,,,,,,,Space,keypress(Space),,,,,,,,---- -- ----- -- ------ - ------- --- ----------<br>------------- ------ ------ ---- that ------- ----- -- ----<br>-------- ------- -- ---------- --- - --- ----- ----- ----<br>---- --- --- ----- --- ---- ---- ------- ----- ---- -------<br>--- --- -- ----- -- --- ---- -- --- ---- -- ------ ------<br>--- ----- -- ----,224654.40000009537,224653,224276.903,224291.60000014305,224293.559,224660.251,,13,that
screen,html.Screen,2_1_0_1_14,2022-05-03T10:21:28.408Z,,,,,,,,,,,,,,,,,53,,,,,,,,,,,,,,309.9490000476944,,response,,,,99,,,,,,,Space,keypress(Space),,,,,,,,---- -- ----- -- ------ - ------- --- ----------<br>------------- ------ ------ ---- ---- feeling ----- -- ----<br>-------- ------- -- ---------- --- - --- ----- ----- ----<br>---- --- --- ----- --- ---- ---- ------- ----- ---- -------<br>--- --- -- ----- -- --- ---- -- --- ---- -- ------ ------<br>--- ----- -- ----,224971.40000009537,224970.20000004768,224643.532,224654.5,224660.251,224976.862,,14,feeling
screen,html.Screen,2_1_0_1_15,2022-05-03T10:21:28.938Z,,,,,,,,,,,,,,,,,53,,,,,,,,,,,,,,523.1380000000063,,response,,,,99,,,,,,,Space,keypress(Space),,,,,,,,---- -- ----- -- ------ - ------- --- ----------<br>------------- ------ ------ ---- ---- ------- close -- ----<br>-------- ------- -- ---------- --- - --- ----- ----- ----<br>---- --- --- ----- --- ---- ---- ------- ----- ---- -------<br>--- --- -- ----- -- --- ---- -- --- ---- -- ------ ------<br>--- ----- -- ----,225501.40000009537,225500,224960.246,224971.60000014305,224976.862,225510.179,,15,close
screen,html.Screen,2_1_0_1_16,2022-05-03T10:21:29.346Z,,,,,,,,,,,,,,,,,53,,,,,,,,,,,,,,397.9210001430474,,response,,,,99,,,,,,,Space,keypress(Space),,,,,,,,---- -- ----- -- ------ - ------- --- ----------<br>------------- ------ ------ ---- ---- ------- ----- to ----<br>-------- ------- -- ---------- --- - --- ----- ----- ----<br>---- --- --- ----- --- ---- ---- ------- ----- ---- -------<br>--- --- -- ----- -- --- ---- -- --- ---- -- ------ ------<br>--- ----- -- ----,225909.40000009537,225908.10000014305,225493.508,225501.60000014305,225510.179,225926.686,,16,to
screen,html.Screen,2_1_0_1_17,2022-05-03T10:21:29.788Z,,,,,,,,,,,,,,,,,53,,,,,,,,,,,,,,423.51400004769675,,response,,,,99,,,,,,,Space,keypress(Space),,,,,,,,---- -- ----- -- ------ - ------- --- ----------<br>------------- ------ ------ ---- ---- ------- ----- -- your<br>-------- ------- -- ---------- --- - --- ----- ----- ----<br>---- --- --- ----- --- ---- ---- ------- ----- ---- -------<br>--- --- -- ----- -- --- ---- -- --- ---- -- ------ ------<br>--- ----- -- ----,226351.40000009537,226350.20000004768,225909.993,225909.60000014305,225926.686,226359.9,,17,your
screen,html.Screen,2_1_0_1_18,2022-05-03T10:21:30.371Z,,,,,,,,,,,,,,,,,53,,,,,,,,,,,,,,572.5000000953733,,response,,,,99,,,,,,,Space,keypress(Space),,,,,,,,---- -- ----- -- ------ - ------- --- ----------<br>------------- ------ ------ ---- ---- ------- ----- -- ----<br>romantic ------- -- ---------- --- - --- ----- ----- ----<br>---- --- --- ----- --- ---- ---- ------- ----- ---- -------<br>--- --- -- ----- -- --- ---- -- --- ---- -- ------ ------<br>--- ----- -- ----,226933.90000009537,226932.40000009537,226343.212,226351.70000004768,226359.9,226943.15,,18,romantic
screen,html.Screen,2_1_0_1_19,2022-05-03T10:21:30.817Z,,,,,,,,,,,,,,,,,53,,,,,,,,,,,,,,435.75000009537325,,response,,,,99,,,,,,,Space,keypress(Space),,,,,,,,---- -- ----- -- ------ - ------- --- ----------<br>------------- ------ ------ ---- ---- ------- ----- -- ----<br>-------- partner -- ---------- --- - --- ----- ----- ----<br>---- --- --- ----- --- ---- ---- ------- ----- ---- -------<br>--- --- -- ----- -- --- ---- -- --- ---- -- ------ ------<br>--- ----- -- ----,227380.10000014305,227378.90000009537,226926.508,226934.10000014305,226943.15,227393.077,,19,partner
screen,html.Screen,2_1_0_1_20,2022-05-03T10:21:31.209Z,,,,,,,,,,,,,,,,,53,,,,,,,,,,,,,,378.4230000000098,,response,,,,99,,,,,,,Space,keypress(Space),,,,,,,,---- -- ----- -- ------ - ------- --- ----------<br>------------- ------ ------ ---- ---- ------- ----- -- ----<br>-------- ------- is ---------- --- - --- ----- ----- ----<br>---- --- --- ----- --- ---- ---- ------- ----- ---- -------<br>--- --- -- ----- -- --- ---- -- --- ---- -- ------ ------<br>--- ----- -- ----,227772.10000014305,227771.5,227376.393,227380.5,227393.077,227776.256,,20,is
screen,html.Screen,2_1_0_1_21,2022-05-03T10:21:31.516Z,,,,,,,,,,,,,,,,,53,,,,,,,,,,,,,,301.54399995232234,,response,,,,99,,,,,,,Space,keypress(Space),,,,,,,,---- -- ----- -- ------ - ------- --- ----------<br>------------- ------ ------ ---- ---- ------- ----- -- ----<br>-------- ------- -- paramount. --- - --- ----- ----- ----<br>---- --- --- ----- --- ---- ---- ------- ----- ---- -------<br>--- --- -- ----- -- --- ---- -- --- ---- -- ------ ------<br>--- ----- -- ----,228078.90000009537,228077.79999995232,227759.607,227772.20000004768,227776.256,228092.934,,21,paramount.
screen,html.Screen,2_1_0_1_22,2022-05-03T10:21:32.113Z,,,,,,,,,,,,,,,,,53,,,,,,,,,,,,,,581.966000095359,,response,,,,99,,,,,,,Space,keypress(Space),,,,,,,,---- -- ----- -- ------ - ------- --- ----------<br>------------- ------ ------ ---- ---- ------- ----- -- ----<br>-------- ------- -- ---------- But - --- ----- ----- ----<br>---- --- --- ----- --- ---- ---- ------- ----- ---- -------<br>--- --- -- ----- -- --- ---- -- --- ---- -- ------ ------<br>--- ----- -- ----,228676.10000014305,228674.90000009537,228076.279,228079.10000014305,228092.934,228692.85,,22,But
screen,html.Screen,2_1_0_1_23,2022-05-03T10:21:32.767Z,,,,,,,,,,,,,,,,,53,,,,,,,,,,,,,,636.4499999523105,,response,,,,99,,,,,,,Space,keypress(Space),,,,,,,,---- -- ----- -- ------ - ------- --- ----------<br>------------- ------ ------ ---- ---- ------- ----- -- ----<br>-------- ------- -- ---------- --- a --- ----- ----- ----<br>---- --- --- ----- --- ---- ---- ------- ----- ---- -------<br>--- --- -- ----- -- --- ---- -- --- ---- -- ------ ------<br>--- ----- -- ----,229330.60000014305,229329.29999995232,228676.135,228676.40000009537,228692.85,229342.698,,23,a
screen,html.Screen,2_1_0_1_24,2022-05-03T10:21:33.226Z,,,,,,,,,,,,,,,,,53,,,,,,,,,,,,,,444.9020001430472,,response,,,,99,,,,,,,Space,keypress(Space),,,,,,,,---- -- ----- -- ------ - ------- --- ----------<br>------------- ------ ------ ---- ---- ------- ----- -- ----<br>-------- ------- -- ---------- --- - new ----- ----- ----<br>---- --- --- ----- --- ---- ---- ------- ----- ---- -------<br>--- --- -- ----- -- --- ---- -- --- ---- -- ------ ------<br>--- ----- -- ----,229788.90000009537,229787.60000014305,229325.999,229330.90000009537,229342.698,229792.537,,24,new
screen,html.Screen,2_1_0_1_25,2022-05-03T10:21:33.502Z,,,,,,,,,,,,,,,,,53,,,,,,,,,,,,,,271.56300014304,,response,,,,99,,,,,,,Space,keypress(Space),,,,,,,,---- -- ----- -- ------ - ------- --- ----------<br>------------- ------ ------ ---- ---- ------- ----- -- ----<br>-------- ------- -- ---------- --- - --- study ----- ----<br>---- --- --- ----- --- ---- ---- ------- ----- ---- -------<br>--- --- -- ----- -- --- ---- -- --- ---- -- ------ ------<br>--- ----- -- ----,230064.90000009537,230064.10000014305,229775.864,229789.20000004768,229792.537,230075.865,,25,study
screen,html.Screen,2_1_0_1_26,2022-05-03T10:21:33.849Z,,,,,,,,,,,,,,,,,53,,,,,,,,,,,,,,335.23500014306046,,response,,,,99,,,,,,,Space,keypress(Space),,,,,,,,---- -- ----- -- ------ - ------- --- ----------<br>------------- ------ ------ ---- ---- ------- ----- -- ----<br>-------- ------- -- ---------- --- - --- ----- finds ----<br>---- --- --- ----- --- ---- ---- ------- ----- ---- -------<br>--- --- -- ----- -- --- ---- -- --- ---- -- ------ ------<br>--- ----- -- ----,230412.29999995232,230411.10000014305,230059.229,230065.20000004768,230075.865,230425.82,,26,finds
screen,html.Screen,2_1_0_1_27,2022-05-03T10:21:34.248Z,,,,,,,,,,,,,,,,,53,,,,,,,,,,,,,,385.179999999993,,response,,,,99,,,,,,,Space,keypress(Space),,,,,,,,---- -- ----- -- ------ - ------- --- ----------<br>------------- ------ ------ ---- ---- ------- ----- -- ----<br>-------- ------- -- ---------- --- - --- ----- ----- that<br>---- --- --- ----- --- ---- ---- ------- ----- ---- -------<br>--- --- -- ----- -- --- ---- -- --- ---- -- ------ ------<br>--- ----- -- ----,230811.60000014305,230811,230409.108,230412.5,230425.82,230825.722,,27,that
screen,html.Screen,2_1_0_1_28,2022-05-03T10:21:34.833Z,,,,,,,,,,,,,,,,,53,,,,,,,,,,,,,,569.3780001430423,,response,,,,99,,,,,,,Space,keypress(Space),,,,,,,,---- -- ----- -- ------ - ------- --- ----------<br>------------- ------ ------ ---- ---- ------- ----- -- ----<br>-------- ------- -- ---------- --- - --- ----- ----- ----<br>it's --- --- ----- --- ---- ---- ------- ----- ---- -------<br>--- --- -- ----- -- --- ---- -- --- ---- -- ------ ------<br>--- ----- -- ----,231396.40000009537,231395.10000014305,230809.043,230811.70000004768,230825.722,231408.945,,28,it's
screen,html.Screen,2_1_0_1_29,2022-05-03T10:21:35.296Z,,,,,,,,,,,,,,,,,53,,,,,,,,,,,,,,449.45500009536045,,response,,,,99,,,,,,,Space,keypress(Space),,,,,,,,---- -- ----- -- ------ - ------- --- ----------<br>------------- ------ ------ ---- ---- ------- ----- -- ----<br>-------- ------- -- ---------- --- - --- ----- ----- ----<br>---- not --- ----- --- ---- ---- ------- ----- ---- -------<br>--- --- -- ----- -- --- ---- -- --- ---- -- ------ ------<br>--- ----- -- ----,231859.5,231858.40000009537,231392.205,231396.5,231408.945,231875.504,,29,not
screen,html.Screen,2_1_0_1_30,2022-05-03T10:21:35.544Z,,,,,,,,,,,,,,,,,53,,,,,,,,,,,,,,231.09600014306488,,response,,,,99,,,,,,,Space,keypress(Space),,,,,,,,---- -- ----- -- ------ - ------- --- ----------<br>------------- ------ ------ ---- ---- ------- ----- -- ----<br>-------- ------- -- ---------- --- - --- ----- ----- ----<br>---- --- how ----- --- ---- ---- ------- ----- ---- -------<br>--- --- -- ----- -- --- ---- -- --- ---- -- ------ ------<br>--- ----- -- ----,232107.79999995232,232106.60000014305,231858.824,231859.79999995232,231875.504,232142.131,,30,how
screen,html.Screen,2_1_0_1_31,2022-05-03T10:21:35.800Z,,,,,,,,,,,,,,,,,53,,,,,,,,,,,,,,219.9690001430572,,response,,,,99,,,,,,,Space,keypress(Space),,,,,,,,---- -- ----- -- ------ - ------- --- ----------<br>------------- ------ ------ ---- ---- ------- ----- -- ----<br>-------- ------- -- ---------- --- - --- ----- ----- ----<br>---- --- --- close --- ---- ---- ------- ----- ---- -------<br>--- --- -- ----- -- --- ---- -- --- ---- -- ------ ------<br>--- ----- -- ----,232363.20000004768,232362.10000014305,232125.479,232108,232142.131,232375.433,,31,close
screen,html.Screen,2_1_0_1_32,2022-05-03T10:21:36.228Z,,,,,,,,,,,,,,,,,53,,,,,,,,,,,,,,415.2670000476937,,response,,,,99,,,,,,,Space,keypress(Space),,,,,,,,---- -- ----- -- ------ - ------- --- ----------<br>------------- ------ ------ ---- ---- ------- ----- -- ----<br>-------- ------- -- ---------- --- - --- ----- ----- ----<br>---- --- --- ----- you ---- ---- ------- ----- ---- -------<br>--- --- -- ----- -- --- ---- -- --- ---- -- ------ ------<br>--- ----- -- ----,232791.20000004768,232790.70000004768,232358.708,232363.5,232375.433,232819.892,,32,you
screen,html.Screen,2_1_0_1_33,2022-05-03T10:21:36.541Z,,,,,,,,,,,,,,,,,53,,,,,,,,,,,,,,283.0080000953749,,response,,,,99,,,,,,,Space,keypress(Space),,,,,,,,---- -- ----- -- ------ - ------- --- ----------<br>------------- ------ ------ ---- ---- ------- ----- -- ----<br>-------- ------- -- ---------- --- - --- ----- ----- ----<br>---- --- --- ----- --- feel ---- ------- ----- ---- -------<br>--- --- -- ----- -- --- ---- -- --- ---- -- ------ ------<br>--- ----- -- ----,233104.10000014305,233102.90000009537,232775.323,232791.20000004768,232819.892,233108.561,,33,feel
screen,html.Screen,2_1_0_1_34,2022-05-03T10:21:37.076Z,,,,,,,,,,,,,,,,,53,,,,,,,,,,,,,,521.439000000013,,response,,,,99,,,,,,,Space,keypress(Space),,,,,,,,---- -- ----- -- ------ - ------- --- ----------<br>------------- ------ ------ ---- ---- ------- ----- -- ----<br>-------- ------- -- ---------- --- - --- ----- ----- ----<br>---- --- --- ----- --- ---- that ------- ----- ---- -------<br>--- --- -- ----- -- --- ---- -- --- ---- -- ------ ------<br>--- ----- -- ----,233638.90000009537,233630,233091.962,233104.29999995232,233108.561,233641.811,,34,that
screen,html.Screen,2_1_0_1_35,2022-05-03T10:21:37.458Z,,,,,,,,,,,,,,,,,53,,,,,,,,,,,,,,377.9889999523293,,response,,,,99,,,,,,,Space,keypress(Space),,,,,,,,---- -- ----- -- ------ - ------- --- ----------<br>------------- ------ ------ ---- ---- ------- ----- -- ----<br>-------- ------- -- ---------- --- - --- ----- ----- ----<br>---- --- --- ----- --- ---- ---- matters ----- ---- -------<br>--- --- -- ----- -- --- ---- -- --- ---- -- ------ ------<br>--- ----- -- ----,234021.20000004768,234019.79999995232,233625.165,233639.10000014305,233641.811,234025.098,,35,matters
screen,html.Screen,2_1_0_1_36,2022-05-03T10:21:37.738Z,,,,,,,,,,,,,,,,,53,,,,,,,,,,,,,,274.6020000476856,,response,,,,99,,,,,,,Space,keypress(Space),,,,,,,,"---- -- ----- -- ------ - ------- --- ----------<br>------------- ------ ------ ---- ---- ------- ----- -- ----<br>-------- ------- -- ---------- --- - --- ----- ----- ----<br>---- --- --- ----- --- ---- ---- ------- most, ---- -------<br>--- --- -- ----- -- --- ---- -- --- ---- -- ------ ------<br>--- ----- -- ----",234301,234299.70000004768,234008.422,234021.5,234025.098,234308.351,,36,"most,"
screen,html.Screen,2_1_0_1_37,2022-05-03T10:21:37.995Z,,,,,,,,,,,,,,,,,53,,,,,,,,,,,,,,248.8490000476886,,response,,,,99,,,,,,,Space,keypress(Space),,,,,,,,---- -- ----- -- ------ - ------- --- ----------<br>------------- ------ ------ ---- ---- ------- ----- -- ----<br>-------- ------- -- ---------- --- - --- ----- ----- ----<br>---- --- --- ----- --- ---- ---- ------- ----- it's -------<br>--- --- -- ----- -- --- ---- -- --- ---- -- ------ ------<br>--- ----- -- ----,234558.40000009537,234557.20000004768,234291.72,234301.29999995232,234308.351,234575.011,,37,it's
screen,html.Screen,2_1_0_1_38,2022-05-03T10:21:38.363Z,,,,,,,,,,,,,,,,,53,,,,,,,,,,,,,,350.58900014305254,,response,,,,99,,,,,,,Space,keypress(Space),,,,,,,,---- -- ----- -- ------ - ------- --- ----------<br>------------- ------ ------ ---- ---- ------- ----- -- ----<br>-------- ------- -- ---------- --- - --- ----- ----- ----<br>---- --- --- ----- --- ---- ---- ------- ----- ---- whether<br>--- --- -- ----- -- --- ---- -- --- ---- -- ------ ------<br>--- ----- -- ----,234926.79999995232,234925.60000014305,234558.332,234558.70000004768,234575.011,234941.594,,38,whether
screen,html.Screen,2_1_0_1_39,2022-05-03T10:21:38.747Z,,,,,,,,,,,,,,,,,53,,,,,,,,,,,,,,367.80600009535556,,response,,,,99,,,,,,,Space,keypress(Space),,,,,,,,---- -- ----- -- ------ - ------- --- ----------<br>------------- ------ ------ ---- ---- ------- ----- -- ----<br>-------- ------- -- ---------- --- - --- ----- ----- ----<br>---- --- --- ----- --- ---- ---- ------- ----- ---- -------<br>you --- -- ----- -- --- ---- -- --- ---- -- ------ ------<br>--- ----- -- ----,235310.70000004768,235309.40000009537,234924.829,234927,234941.594,235324.858,,39,you
screen,html.Screen,2_1_0_1_40,2022-05-03T10:21:39.013Z,,,,,,,,,,,,,,,,,53,,,,,,,,,,,,,,250.7420001430437,,response,,,,99,,,,,,,Space,keypress(Space),,,,,,,,---- -- ----- -- ------ - ------- --- ----------<br>------------- ------ ------ ---- ---- ------- ----- -- ----<br>-------- ------- -- ---------- --- - --- ----- ----- ----<br>---- --- --- ----- --- ---- ---- ------- ----- ---- -------<br>--- are -- ----- -- --- ---- -- --- ---- -- ------ ------<br>--- ----- -- ----,235576.70000004768,235575.60000014305,235308.17,235310.90000009537,235324.858,235591.476,,40,are
screen,html.Screen,2_1_0_1_41,2022-05-03T10:21:39.262Z,,,,,,,,,,,,,,,,,53,,,,,,,,,,,,,,233.7240000476886,,response,,,,99,,,,,,,Space,keypress(Space),,,,,,,,---- -- ----- -- ------ - ------- --- ----------<br>------------- ------ ------ ---- ---- ------- ----- -- ----<br>-------- ------- -- ---------- --- - --- ----- ----- ----<br>---- --- --- ----- --- ---- ---- ------- ----- ---- -------<br>--- --- as ----- -- --- ---- -- --- ---- -- ------ ------<br>--- ----- -- ----,235825.70000004768,235825.20000004768,235574.76,235577,235591.476,235841.425,,41,as
screen,html.Screen,2_1_0_1_42,2022-05-03T10:21:39.538Z,,,,,,,,,,,,,,,,,53,,,,,,,,,,,,,,258.6750001430628,,response,,,,99,,,,,,,Space,keypress(Space),,,,,,,,---- -- ----- -- ------ - ------- --- ----------<br>------------- ------ ------ ---- ---- ------- ----- -- ----<br>-------- ------- -- ---------- --- - --- ----- ----- ----<br>---- --- --- ----- --- ---- ---- ------- ----- ---- -------<br>--- --- -- close -- --- ---- -- --- ---- -- ------ ------<br>--- ----- -- ----,236101.29999995232,236100.10000014305,235824.72,235825.79999995232,235841.425,236107.98,,42,close
screen,html.Screen,2_1_0_1_43,2022-05-03T10:21:39.803Z,,,,,,,,,,,,,,,,,53,,,,,,,,,,,,,,257.3199999523058,,response,,,,99,,,,,,,Space,keypress(Space),,,,,,,,---- -- ----- -- ------ - ------- --- ----------<br>------------- ------ ------ ---- ---- ------- ----- -- ----<br>-------- ------- -- ---------- --- - --- ----- ----- ----<br>---- --- --- ----- --- ---- ---- ------- ----- ---- -------<br>--- --- -- ----- as --- ---- -- --- ---- -- ------ ------<br>--- ----- -- ----,236366.5,236365.29999995232,236091.275,236101.60000014305,236107.98,236374.612,,43,as
screen,html.Screen,2_1_0_1_44,2022-05-03T10:21:40.163Z,,,,,,,,,,,,,,,,,53,,,,,,,,,,,,,,350.7880000953737,,response,,,,99,,,,,,,Space,keypress(Space),,,,,,,,---- -- ----- -- ------ - ------- --- ----------<br>------------- ------ ------ ---- ---- ------- ----- -- ----<br>-------- ------- -- ---------- --- - --- ----- ----- ----<br>---- --- --- ----- --- ---- ---- ------- ----- ---- -------<br>--- --- -- ----- -- you ---- -- --- ---- -- ------ ------<br>--- ----- -- ----,236726.5,236725.40000009537,236357.975,236366.79999995232,236374.612,236741.23,,44,you
screen,html.Screen,2_1_0_1_45,2022-05-03T10:21:40.511Z,,,,,,,,,,,,,,,,,53,,,,,,,,,,,,,,332.17000009535695,,response,,,,99,,,,,,,Space,keypress(Space),,,,,,,,---- -- ----- -- ------ - ------- --- ----------<br>------------- ------ ------ ---- ---- ------- ----- -- ----<br>-------- ------- -- ---------- --- - --- ----- ----- ----<br>---- --- --- ----- --- ---- ---- ------- ----- ---- -------<br>--- --- -- ----- -- --- want -- --- ---- -- ------ ------<br>--- ----- -- ----,237074.10000014305,237073.40000009537,236724.536,236726.70000004768,236741.23,237107.84,,45,want
screen,html.Screen,2_1_0_1_46,2022-05-03T10:21:40.771Z,,,,,,,,,,,,,,,,,53,,,,,,,,,,,,,,225.1600000000035,,response,,,,99,,,,,,,Space,keypress(Space),,,,,,,,---- -- ----- -- ------ - ------- --- ----------<br>------------- ------ ------ ---- ---- ------- ----- -- ----<br>-------- ------- -- ---------- --- - --- ----- ----- ----<br>---- --- --- ----- --- ---- ---- ------- ----- ---- -------<br>--- --- -- ----- -- --- ---- to --- ---- -- ------ ------<br>--- ----- -- ----,237333.90000009537,237333,237091.153,237074.29999995232,237107.84,237341.059,,46,to
screen,html.Screen,2_1_0_1_47,2022-05-03T10:21:41.016Z,,,,,,,,,,,,,,,,,53,,,,,,,,,,,,,,236.7409999523079,,response,,,,99,,,,,,,Space,keypress(Space),,,,,,,,"---- -- ----- -- ------ - ------- --- ----------<br>------------- ------ ------ ---- ---- ------- ----- -- ----<br>-------- ------- -- ---------- --- - --- ----- ----- ----<br>---- --- --- ----- --- ---- ---- ------- ----- ---- -------<br>--- --- -- ----- -- --- ---- -- be, ---- -- ------ ------<br>--- ----- -- ----",237579.10000014305,237577.79999995232,237324.441,237334,237341.059,237591.075,,47,"be,"
screen,html.Screen,2_1_0_1_48,2022-05-03T10:21:41.282Z,,,,,,,,,,,,,,,,,53,,,,,,,,,,,,,,253.42499999998836,,response,,,,99,,,,,,,Space,keypress(Space),,,,,,,,---- -- ----- -- ------ - ------- --- ----------<br>------------- ------ ------ ---- ---- ------- ----- -- ----<br>-------- ------- -- ---------- --- - --- ----- ----- ----<br>---- --- --- ----- --- ---- ---- ------- ----- ---- -------<br>--- --- -- ----- -- --- ---- -- --- even -- ------ ------<br>--- ----- -- ----,237845.10000014305,237844.5,237574.389,237579.29999995232,237591.075,237857.645,,48,even
screen,html.Screen,2_1_0_1_49,2022-05-03T10:21:41.791Z,,,,,,,,,,,,,,,,,53,,,,,,,,,,,,,,495.65499995232676,,response,,,,99,,,,,,,Space,keypress(Space),,,,,,,,---- -- ----- -- ------ - ------- --- ----------<br>------------- ------ ------ ---- ---- ------- ----- -- ----<br>-------- ------- -- ---------- --- - --- ----- ----- ----<br>---- --- --- ----- --- ---- ---- ------- ----- ---- -------<br>--- --- -- ----- -- --- ---- -- --- ---- if ------ ------<br>--- ----- -- ----,238354.5,238353.29999995232,237840.984,237845.20000004768,237857.645,238357.469,,49,if
screen,html.Screen,2_1_0_1_50,2022-05-03T10:21:42.059Z,,,,,,,,,,,,,,,,,53,,,,,,,,,,,,,,263.8309999523044,,response,,,,99,,,,,,,Space,keypress(Space),,,,,,,,---- -- ----- -- ------ - ------- --- ----------<br>------------- ------ ------ ---- ---- ------- ----- -- ----<br>-------- ------- -- ---------- --- - --- ----- ----- ----<br>---- --- --- ----- --- ---- ---- ------- ----- ---- -------<br>--- --- -- ----- -- --- ---- -- --- ---- -- that's ------<br>--- ----- -- ----,238622.5,238621.29999995232,238340.898,238354.70000004768,238357.469,238655.572,,50,that's
screen,html.Screen,2_1_0_1_51,2022-05-03T10:21:42.322Z,,,,,,,,,,,,,,,,,53,,,,,,,,,,,,,,228.92800000001444,,response,,,,99,,,,,,,Space,keypress(Space),,,,,,,,---- -- ----- -- ------ - ------- --- ----------<br>------------- ------ ------ ---- ---- ------- ----- -- ----<br>-------- ------- -- ---------- --- - --- ----- ----- ----<br>---- --- --- ----- --- ---- ---- ------- ----- ---- -------<br>--- --- -- ----- -- --- ---- -- --- ---- -- ------ really<br>--- ----- -- ----,238885.79999995232,238884.5,238607.528,238622.70000004768,238655.572,238890.77,,51,really
screen,html.Screen,2_1_0_1_52,2022-05-03T10:21:42.798Z,,,,,,,,,,,,,,,,,53,,,,,,,,,,,,,,469.52999995232676,,response,,,,99,,,,,,,Space,keypress(Space),,,,,,,,---- -- ----- -- ------ - ------- --- ----------<br>------------- ------ ------ ---- ---- ------- ----- -- ----<br>-------- ------- -- ---------- --- - --- ----- ----- ----<br>---- --- --- ----- --- ---- ---- ------- ----- ---- -------<br>--- --- -- ----- -- --- ---- -- --- ---- -- ------ ------<br>not ----- -- ----,239361.60000014305,239360.29999995232,238874.17,238886.10000014305,238890.77,239374.057,,52,not
screen,html.Screen,2_1_0_1_53,2022-05-03T10:21:43.141Z,,,,,,,,,,,,,,,,,53,,,,,,,,,,,,,,328.9429999999993,,response,,,,99,,,,,,,Space,keypress(Space),,,,,,,,---- -- ----- -- ------ - ------- --- ----------<br>------------- ------ ------ ---- ---- ------- ----- -- ----<br>-------- ------- -- ---------- --- - --- ----- ----- ----<br>---- --- --- ----- --- ---- ---- ------- ----- ---- -------<br>--- --- -- ----- -- --- ---- -- --- ---- -- ------ ------<br>--- close -- ----,239704.20000004768,239703,239357.401,239361.90000009537,239374.057,239707.287,,53,close
screen,html.Screen,2_1_0_1_54,2022-05-03T10:21:43.569Z,,,,,,,,,,,,,,,,,53,,,,,,,,,,,,,,423.61300009535626,,response,,,,99,,,,,,,Space,keypress(Space),,,,,,,,---- -- ----- -- ------ - ------- --- ----------<br>------------- ------ ------ ---- ---- ------- ----- -- ----<br>-------- ------- -- ---------- --- - --- ----- ----- ----<br>---- --- --- ----- --- ---- ---- ------- ----- ---- -------<br>--- --- -- ----- -- --- ---- -- --- ---- -- ------ ------<br>--- ----- at ----,240132.29999995232,240130.90000009537,239690.624,239704.5,239707.287,240140.754,,54,at
screen,html.Screen,2_1_0_1_55,2022-05-03T10:21:44.272Z,,,,,,,,,,,,,,,,,53,,,,,,,,,,,,,,693.2460000000137,,response,,,,99,,,,,,,Space,keypress(Space),,,,,,,,---- -- ----- -- ------ - ------- --- ----------<br>------------- ------ ------ ---- ---- ------- ----- -- ----<br>-------- ------- -- ---------- --- - --- ----- ----- ----<br>---- --- --- ----- --- ---- ---- ------- ----- ---- -------<br>--- --- -- ----- -- --- ---- -- --- ---- -- ------ ------<br>--- ----- -- all.,240835.29999995232,240834,240123.9,240132.5,240140.754,240840.404,,55,all.
Item 99,flow.Loop,2_1_0_1,2022-05-03T10:21:44.272Z,,,,,,,,,,,,,,,,,,,,,,,,,,,,,,,22605.91399999999,,completion,,,,,H,,,,,,,,,,,silence,,,,,240835.79999995232,240834,218161.564,218162.90000009537,218228.086,240840.404,,,
Question 1,html.Screen,2_1_0_2,2022-05-03T10:21:49.843Z,,,,,,,,,,,,,,,,,,,,,,,,,,,,true,FALSE,,5565.496000095358,,response,,,,99,H,,,,,,FALSE,click #choice-2,,,,silence,,,,,246406.70000004768,246405.90000009537,240823.78,240835.90000009537,240840.404,246422.668,,,
Question 2,html.Screen,2_1_0_3,2022-05-03T10:21:55.467Z,,,,,,,,,,,,,,,,,,,,,,,,,,,,true,TRUE,,5607.131999952311,,response,,,,99,H,,,,,,TRUE,click #choice-1,,,,silence,,,,,252030.5,252029.79999995232,246406.008,246406.90000009537,246422.668,252054.877,,,
Item 99,flow.Sequence,2_1_0,2022-05-03T10:21:55.467Z,,,,,,,,,,,,,,,,,,,,,,,,,,,,,,,43849.67199995232,,completion,,,,,,,,,,,,,,,,,,,,,252030.70000004768,252029.79999995232,208163.507,208182.60000014305,208180.128,252054.877,,,
Holding screen,html.Screen,2_1_1_0,2022-05-03T10:22:05.473Z,,,,,,,,,,,,,,,,,,,,,,,,,,,,,,,9998.059999999998,,timeout,,,,,,,,,,,,,,,,,,,,,262036.70000004768,262036.222,252038.175,252030.79999995232,252054.877,262052.937,,,
screen,html.Screen,2_1_1_1_0,2022-05-03T10:22:06.233Z,,,,,,,,,,,,,,,,,54,,,,,,,,,,,,,,742.0629999999946,,response,,,,100,,,,,,,Space,keypress(Space),,,,,,,,At --- ---- --- ------ ----- ------- ---- -- --- ------- --<br>------- ---------- ------ -- ----- -- ----- -- ---- ------<br>--- ----- --- --- ------ -------- ----- --- ------ ----- --<br>----- ----- ---------- --- --- ------ ------ ---- -- ------<br>------- --- ------ ----- --- ---- ------- -- ---- --- --<br>------- ------,262796.2999999523,262795,262036.222,262036.79999995232,262052.937,262802.79,,0,At
screen,html.Screen,2_1_1_1_1,2022-05-03T10:22:06.558Z,,,,,,,,,,,,,,,,,54,,,,,,,,,,,,,,317.71000000002095,,response,,,,100,,,,,,,Space,keypress(Space),,,,,,,,-- the ---- --- ------ ----- ------- ---- -- --- ------- --<br>------- ---------- ------ -- ----- -- ----- -- ---- ------<br>--- ----- --- --- ------ -------- ----- --- ------ ----- --<br>----- ----- ---------- --- --- ------ ------ ---- -- ------<br>------- --- ------ ----- --- ---- ------- -- ---- --- --<br>------- ------,263121.7000000477,263120.5,262786.095,262796.7000000477,262802.79,263136.053,,1,the
screen,html.Screen,2_1_1_1_2,2022-05-03T10:22:06.812Z,,,,,,,,,,,,,,,,,54,,,,,,,,,,,,,,238.5470001430367,,response,,,,100,,,,,,,Space,keypress(Space),,,,,,,,-- --- time --- ------ ----- ------- ---- -- --- ------- --<br>------- ---------- ------ -- ----- -- ----- -- ---- ------<br>--- ----- --- --- ------ -------- ----- --- ------ ----- --<br>----- ----- ---------- --- --- ------ ------ ---- -- ------<br>------- --- ------ ----- --- ---- ------- -- ---- --- --<br>------- ------,263375.60000014305,263374.60000014305,263119.365,263121.90000009537,263136.053,263386.004,,2,time
screen,html.Screen,2_1_1_1_3,2022-05-03T10:22:07.084Z,,,,,,,,,,,,,,,,,54,,,,,,,,,,,,,,259.99599999998463,,response,,,,100,,,,,,,Space,keypress(Space),,,,,,,,-- --- ---- the ------ ----- ------- ---- -- --- ------- --<br>------- ---------- ------ -- ----- -- ----- -- ---- ------<br>--- ----- --- --- ------ -------- ----- --- ------ ----- --<br>----- ----- ---------- --- --- ------ ------ ---- -- ------<br>------- --- ------ ----- --- ---- ------- -- ---- --- --<br>------- ------,263647.10000014305,263646,263369.369,263375.7999999523,263386.004,263652.613,,3,the
screen,html.Screen,2_1_1_1_4,2022-05-03T10:22:07.561Z,,,,,,,,,,,,,,,,,54,,,,,,,,,,,,,,470.7870000953553,,response,,,,100,,,,,,,Space,keypress(Space),,,,,,,,-- --- ---- --- French ----- ------- ---- -- --- ------- --<br>------- ---------- ------ -- ----- -- ----- -- ---- ------<br>--- ----- --- --- ------ -------- ----- --- ------ ----- --<br>----- ----- ---------- --- --- ------ ------ ---- -- ------<br>------- --- ------ ----- --- ---- ------- -- ---- --- --<br>------- ------,264124.5,264123.40000009537,263635.923,263647.2999999523,263652.613,264135.869,,4,French
screen,html.Screen,2_1_1_1_5,2022-05-03T10:22:07.909Z,,,,,,,,,,,,,,,,,54,,,,,,,,,,,,,,335.5310000953614,,response,,,,100,,,,,,,Space,keypress(Space),,,,,,,,-- --- ---- --- ------ crown ------- ---- -- --- ------- --<br>------- ---------- ------ -- ----- -- ----- -- ---- ------<br>--- ----- --- --- ------ -------- ----- --- ------ ----- --<br>----- ----- ---------- --- --- ------ ------ ---- -- ------<br>------- --- ------ ----- --- ---- ------- -- ---- --- --<br>------- ------,264472.2999999523,264471.40000009537,264119.202,264124.7000000477,264135.869,264485.8,,5,crown
screen,html.Screen,2_1_1_1_6,2022-05-03T10:22:08.223Z,,,,,,,,,,,,,,,,,54,,,,,,,,,,,,,,299.1000000953791,,response,,,,100,,,,,,,Space,keypress(Space),,,,,,,,-- --- ---- --- ------ ----- secured ---- -- --- ------- --<br>------- ---------- ------ -- ----- -- ----- -- ---- ------<br>--- ----- --- --- ------ -------- ----- --- ------ ----- --<br>----- ----- ---------- --- --- ------ ------ ---- -- ------<br>------- --- ------ ----- --- ---- ------- -- ---- --- --<br>------- ------,264785.90000009537,264784.90000009537,264469.159,264472.60000014305,264485.8,264802.397,,6,secured
screen,html.Screen,2_1_1_1_7,2022-05-03T10:22:08.770Z,,,,,,,,,,,,,,,,,54,,,,,,,,,,,,,,529.3030000476865,,response,,,,100,,,,,,,Space,keypress(Space),,,,,,,,-- --- ---- --- ------ ----- ------- much -- --- ------- --<br>------- ---------- ------ -- ----- -- ----- -- ---- ------<br>--- ----- --- --- ------ -------- ----- --- ------ ----- --<br>----- ----- ---------- --- --- ------ ------ ---- -- ------<br>------- --- ------ ----- --- ---- ------- -- ---- --- --<br>------- ------,265332.90000009537,265331.7000000477,264785.72,264786.2000000477,264802.397,265335.598,,7,much
screen,html.Screen,2_1_1_1_8,2022-05-03T10:22:09.221Z,,,,,,,,,,,,,,,,,54,,,,,,,,,,,,,,447.6020000476856,,response,,,,100,,,,,,,Space,keypress(Space),,,,,,,,-- --- ---- --- ------ ----- ------- ---- of --- ------- --<br>------- ---------- ------ -- ----- -- ----- -- ---- ------<br>--- ----- --- --- ------ -------- ----- --- ------ ----- --<br>----- ----- ---------- --- --- ------ ------ ---- -- ------<br>------- --- ------ ----- --- ---- ------- -- ---- --- --<br>------- ------,265784.60000014305,265783.2000000477,265318.988,265333,265335.598,265818.831,,8,of
screen,html.Screen,2_1_1_1_9,2022-05-03T10:22:09.459Z,,,,,,,,,,,,,,,,,54,,,,,,,,,,,,,,202.36900004767813,,response,,,,100,,,,,,,Space,keypress(Space),,,,,,,,-- --- ---- --- ------ ----- ------- ---- -- its ------- --<br>------- ---------- ------ -- ----- -- ----- -- ---- ------<br>--- ----- --- --- ------ -------- ----- --- ------ ----- --<br>----- ----- ---------- --- --- ------ ------ ---- -- ------<br>------- --- ------ ----- --- ---- ------- -- ---- --- --<br>------- ------,266022.2999999523,266021.2000000477,265802.189,265784.90000009537,265818.831,266035.493,,9,its
screen,html.Screen,2_1_1_1_10,2022-05-03T10:22:09.694Z,,,,,,,,,,,,,,,,,54,,,,,,,,,,,,,,221.30699995229952,,response,,,,100,,,,,,,Space,keypress(Space),,,,,,,,-- --- ---- --- ------ ----- ------- ---- -- --- revenue --<br>------- ---------- ------ -- ----- -- ----- -- ---- ------<br>--- ----- --- --- ------ -------- ----- --- ------ ----- --<br>----- ----- ---------- --- --- ------ ------ ---- -- ------<br>------- --- ------ ----- --- ---- ------- -- ---- --- --<br>------- ------,266257.60000014305,266256.7999999523,266018.784,266025.10000014305,266035.493,266268.755,,10,revenue
screen,html.Screen,2_1_1_1_11,2022-05-03T10:22:10.007Z,,,,,,,,,,,,,,,,,54,,,,,,,,,,,,,,300.0449999523116,,response,,,,100,,,,,,,Space,keypress(Space),,,,,,,,-- --- ---- --- ------ ----- ------- ---- -- --- ------- by<br>------- ---------- ------ -- ----- -- ----- -- ---- ------<br>--- ----- --- --- ------ -------- ----- --- ------ ----- --<br>----- ----- ---------- --- --- ------ ------ ---- -- ------<br>------- --- ------ ----- --- ---- ------- -- ---- --- --<br>------- ------,266570,266568.7999999523,266252.047,266257.7000000477,266268.755,266585.391,,11,by
screen,html.Screen,2_1_1_1_12,2022-05-03T10:22:10.507Z,,,,,,,,,,,,,,,,,54,,,,,,,,,,,,,,483.60899999999674,,response,,,,100,,,,,,,Space,keypress(Space),,,,,,,,-- --- ---- --- ------ ----- ------- ---- -- --- ------- --<br>issuing ---------- ------ -- ----- -- ----- -- ---- ------<br>--- ----- --- --- ------ -------- ----- --- ------ ----- --<br>----- ----- ---------- --- --- ------ ------ ---- -- ------<br>------- --- ------ ----- --- ---- ------- -- ---- --- --<br>------- ------,267070.2999999523,267069,266568.699,266570.2999999523,266585.391,267085.294,,12,issuing
screen,html.Screen,2_1_1_1_13,2022-05-03T10:22:10.839Z,,,,,,,,,,,,,,,,,54,,,,,,,,,,,,,,316.2060000000056,,response,,,,100,,,,,,,Space,keypress(Space),,,,,,,,-- --- ---- --- ------ ----- ------- ---- -- --- ------- --<br>------- government ------ -- ----- -- ----- -- ---- ------<br>--- ----- --- --- ------ -------- ----- --- ------ ----- --<br>----- ----- ---------- --- --- ------ ------ ---- -- ------<br>------- --- ------ ----- --- ---- ------- -- ---- --- --<br>------- ------,267402.7000000477,267401.5,267068.563,267070.5,267085.294,267418.558,,13,government
screen,html.Screen,2_1_1_1_14,2022-05-03T10:22:11.113Z,,,,,,,,,,,,,,,,,54,,,,,,,,,,,,,,256.1420000476646,,response,,,,100,,,,,,,Space,keypress(Space),,,,,,,,-- --- ---- --- ------ ----- ------- ---- -- --- ------- --<br>------- ---------- bonds. -- ----- -- ----- -- ---- ------<br>--- ----- --- --- ------ -------- ----- --- ------ ----- --<br>----- ----- ---------- --- --- ------ ------ ---- -- ------<br>------- --- ------ ----- --- ---- ------- -- ---- --- --<br>------- ------,267675.90000009537,267674.7000000477,267401.831,267402.90000009537,267418.558,267685.131,,14,bonds.
screen,html.Screen,2_1_1_1_15,2022-05-03T10:22:11.796Z,,,,,,,,,,,,,,,,,54,,,,,,,,,,,,,,673.2690000953735,,response,,,,100,,,,,,,Space,keypress(Space),,,,,,,,-- --- ---- --- ------ ----- ------- ---- -- --- ------- --<br>------- ---------- ------ In ----- -- ----- -- ---- ------<br>--- ----- --- --- ------ -------- ----- --- ------ ----- --<br>----- ----- ---------- --- --- ------ ------ ---- -- ------<br>------- --- ------ ----- --- ---- ------- -- ---- --- --<br>------- ------,268359.60000014305,268358.40000009537,267668.412,267676.10000014305,267685.131,268368.312,,15,In
screen,html.Screen,2_1_1_1_16,2022-05-03T10:22:12.128Z,,,,,,,,,,,,,,,,,54,,,,,,,,,,,,,,321.38800004770746,,response,,,,100,,,,,,,Space,keypress(Space),,,,,,,,"-- --- ---- --- ------ ----- ------- ---- -- --- ------- --<br>------- ---------- ------ -- 1727, -- ----- -- ---- ------<br>--- ----- --- --- ------ -------- ----- --- ------ ----- --<br>----- ----- ---------- --- --- ------ ------ ---- -- ------<br>------- --- ------ ----- --- ---- ------- -- ---- --- --<br>------- ------",268690.7999999523,268689.7000000477,268351.736,268359.7999999523,268368.312,268701.642,,16,"1727,"
screen,html.Screen,2_1_1_1_17,2022-05-03T10:22:12.365Z,,,,,,,,,,,,,,,,,54,,,,,,,,,,,,,,225.35800000000745,,response,,,,100,,,,,,,Space,keypress(Space),,,,,,,,-- --- ---- --- ------ ----- ------- ---- -- --- ------- --<br>------- ---------- ------ -- ----- in ----- -- ---- ------<br>--- ----- --- --- ------ -------- ----- --- ------ ----- --<br>----- ----- ---------- --- --- ------ ------ ---- -- ------<br>------- --- ------ ----- --- ---- ------- -- ---- --- --<br>------- ------,268928.2999999523,268927,268684.972,268691.10000014305,268701.642,268934.864,,17,in
screen,html.Screen,2_1_1_1_18,2022-05-03T10:22:12.642Z,,,,,,,,,,,,,,,,,54,,,,,,,,,,,,,,268.8360000476823,,response,,,,100,,,,,,,Space,keypress(Space),,,,,,,,-- --- ---- --- ------ ----- ------- ---- -- --- ------- --<br>------- ---------- ------ -- ----- -- order -- ---- ------<br>--- ----- --- --- ------ -------- ----- --- ------ ----- --<br>----- ----- ---------- --- --- ------ ------ ---- -- ------<br>------- --- ------ ----- --- ---- ------- -- ---- --- --<br>------- ------,269204.90000009537,269203.7000000477,268918.213,268928.60000014305,268934.864,269218.205,,18,order
screen,html.Screen,2_1_1_1_19,2022-05-03T10:22:12.926Z,,,,,,,,,,,,,,,,,54,,,,,,,,,,,,,,269.7949999999837,,response,,,,100,,,,,,,Space,keypress(Space),,,,,,,,-- --- ---- --- ------ ----- ------- ---- -- --- ------- --<br>------- ---------- ------ -- ----- -- ----- to ---- ------<br>--- ----- --- --- ------ -------- ----- --- ------ ----- --<br>----- ----- ---------- --- --- ------ ------ ---- -- ------<br>------- --- ------ ----- --- ---- ------- -- ---- --- --<br>------- ------,269489.2000000477,269488,269201.507,269205.10000014305,269218.205,269501.478,,19,to
screen,html.Screen,2_1_1_1_20,2022-05-03T10:22:13.456Z,,,,,,,,,,,,,,,,,54,,,,,,,,,,,,,,516.9220000953646,,response,,,,100,,,,,,,Space,keypress(Space),,,,,,,,-- --- ---- --- ------ ----- ------- ---- -- --- ------- --<br>------- ---------- ------ -- ----- -- ----- -- save ------<br>--- ----- --- --- ------ -------- ----- --- ------ ----- --<br>----- ----- ---------- --- --- ------ ------ ---- -- ------<br>------- --- ------ ----- --- ---- ------- -- ---- --- --<br>------- ------,270019.5,270018.40000009537,269484.84,269489.40000009537,269501.478,270034.697,,20,save
screen,html.Screen,2_1_1_1_21,2022-05-03T10:22:13.824Z,,,,,,,,,,,,,,,,,54,,,,,,,,,,,,,,351.00300004769815,,response,,,,100,,,,,,,Space,keypress(Space),,,,,,,,"-- --- ---- --- ------ ----- ------- ---- -- --- ------- --<br>------- ---------- ------ -- ----- -- ----- -- ---- money,<br>--- ----- --- --- ------ -------- ----- --- ------ ----- --<br>----- ----- ---------- --- --- ------ ------ ---- -- ------<br>------- --- ------ ----- --- ---- ------- -- ---- --- --<br>------- ------",270386.90000009537,270385.7000000477,270018.025,270019.90000009537,270034.697,270401.301,,21,"money,"
screen,html.Screen,2_1_1_1_22,2022-05-03T10:22:14.478Z,,,,,,,,,,,,,,,,,54,,,,,,,,,,,,,,639.6990000000224,,response,,,,100,,,,,,,Space,keypress(Space),,,,,,,,-- --- ---- --- ------ ----- ------- ---- -- --- ------- --<br>------- ---------- ------ -- ----- -- ----- -- ---- ------<br>the ----- --- --- ------ -------- ----- --- ------ ----- --<br>----- ----- ---------- --- --- ------ ------ ---- -- ------<br>------- --- ------ ----- --- ---- ------- -- ---- --- --<br>------- ------,271041.60000014305,271041,270384.614,270387.10000014305,270401.301,271051.152,,22,the
screen,html.Screen,2_1_1_1_23,2022-05-03T10:22:14.735Z,,,,,,,,,,,,,,,,,54,,,,,,,,,,,,,,245.74800009536557,,response,,,,100,,,,,,,Space,keypress(Space),,,,,,,,-- --- ---- --- ------ ----- ------- ---- -- --- ------- --<br>------- ---------- ------ -- ----- -- ----- -- ---- ------<br>--- state --- --- ------ -------- ----- --- ------ ----- --<br>----- ----- ---------- --- --- ------ ------ ---- -- ------<br>------- --- ------ ----- --- ---- ------- -- ---- --- --<br>------- ------,271298.10000014305,271296.90000009537,271034.473,271041.7000000477,271051.152,271301.109,,23,state
screen,html.Screen,2_1_1_1_24,2022-05-03T10:22:15.004Z,,,,,,,,,,,,,,,,,54,,,,,,,,,,,,,,264.69099995231954,,response,,,,100,,,,,,,Space,keypress(Space),,,,,,,,-- --- ---- --- ------ ----- ------- ---- -- --- ------- --<br>------- ---------- ------ -- ----- -- ----- -- ---- ------<br>--- ----- cut --- ------ -------- ----- --- ------ ----- --<br>----- ----- ---------- --- --- ------ ------ ---- -- ------<br>------- --- ------ ----- --- ---- ------- -- ---- --- --<br>------- ------,271567.10000014305,271565.7999999523,271284.358,271298.2999999523,271301.109,271584.401,,24,cut
screen,html.Screen,2_1_1_1_25,2022-05-03T10:22:15.429Z,,,,,,,,,,,,,,,,,54,,,,,,,,,,,,,,406.6990001430386,,response,,,,100,,,,,,,Space,keypress(Space),,,,,,,,-- --- ---- --- ------ ----- ------- ---- -- --- ------- --<br>------- ---------- ------ -- ----- -- ----- -- ---- ------<br>--- ----- --- the ------ -------- ----- --- ------ ----- --<br>----- ----- ---------- --- --- ------ ------ ---- -- ------<br>------- --- ------ ----- --- ---- ------- -- ---- --- --<br>------- ------,271992.2999999523,271991.10000014305,271567.752,271567.2000000477,271584.401,272000.944,,25,the
screen,html.Screen,2_1_1_1_26,2022-05-03T10:22:15.719Z,,,,,,,,,,,,,,,,,54,,,,,,,,,,,,,,280.15600014303345,,response,,,,100,,,,,,,Space,keypress(Space),,,,,,,,-- --- ---- --- ------ ----- ------- ---- -- --- ------- --<br>------- ---------- ------ -- ----- -- ----- -- ---- ------<br>--- ----- --- --- bonds' -------- ----- --- ------ ----- --<br>----- ----- ---------- --- --- ------ ------ ---- -- ------<br>------- --- ------ ----- --- ---- ------- -- ---- --- --<br>------- ------,272282.2000000477,272281.10000014305,271984.301,271992.60000014305,272000.944,272302.056,,26,bonds'
screen,html.Screen,2_1_1_1_27,2022-05-03T10:22:16.148Z,,,,,,,,,,,,,,,,,54,,,,,,,,,,,,,,408.4440000000177,,response,,,,100,,,,,,,Space,keypress(Space),,,,,,,,-- --- ---- --- ------ ----- ------- ---- -- --- ------- --<br>------- ---------- ------ -- ----- -- ----- -- ---- ------<br>--- ----- --- --- ------ interest ----- --- ------ ----- --<br>----- ----- ---------- --- --- ------ ------ ---- -- ------<br>------- --- ------ ----- --- ---- ------- -- ---- --- --<br>------- ------,272711.7000000477,272710.5,272267.567,272282.5,272302.056,272717.455,,27,interest
screen,html.Screen,2_1_1_1_28,2022-05-03T10:22:16.739Z,,,,,,,,,,,,,,,,,54,,,,,,,,,,,,,,583.0449999999837,,response,,,,100,,,,,,,Space,keypress(Space),,,,,,,,-- --- ---- --- ------ ----- ------- ---- -- --- ------- --<br>------- ---------- ------ -- ----- -- ----- -- ---- ------<br>--- ----- --- --- ------ -------- rate. --- ------ ----- --<br>----- ----- ---------- --- --- ------ ------ ---- -- ------<br>------- --- ------ ----- --- ---- ------- -- ---- --- --<br>------- ------,273301.7999999523,273300.5,272700.819,272712,272717.455,273317.39,,28,rate.
screen,html.Screen,2_1_1_1_29,2022-05-03T10:22:18.115Z,,,,,,,,,,,,,,,,,54,,,,,,,,,,,,,,1359.3100000476697,,response,,,,100,,,,,,,Space,keypress(Space),,,,,,,,-- --- ---- --- ------ ----- ------- ---- -- --- ------- --<br>------- ---------- ------ -- ----- -- ----- -- ---- ------<br>--- ----- --- --- ------ -------- ----- The ------ ----- --<br>----- ----- ---------- --- --- ------ ------ ---- -- ------<br>------- --- ------ ----- --- ---- ------- -- ---- --- --<br>------- ------,274677.90000009537,274676.7000000477,273300.722,273302,273317.39,274683.72,,29,The
screen,html.Screen,2_1_1_1_30,2022-05-03T10:22:18.407Z,,,,,,,,,,,,,,,,,54,,,,,,,,,,,,,,285.68000009539537,,response,,,,100,,,,,,,Space,keypress(Space),,,,,,,,-- --- ---- --- ------ ----- ------- ---- -- --- ------- --<br>------- ---------- ------ -- ----- -- ----- -- ---- ------<br>--- ----- --- --- ------ -------- ----- --- market ----- --<br>----- ----- ---------- --- --- ------ ------ ---- -- ------<br>------- --- ------ ----- --- ---- ------- -- ---- --- --<br>------- ------,274970.7999999523,274969.40000009537,274667.072,274678.2000000477,274683.72,274983.741,,30,market
screen,html.Screen,2_1_1_1_31,2022-05-03T10:22:18.760Z,,,,,,,,,,,,,,,,,54,,,,,,,,,,,,,,338.85900014307117,,response,,,,100,,,,,,,Space,keypress(Space),,,,,,,,-- --- ---- --- ------ ----- ------- ---- -- --- ------- --<br>------- ---------- ------ -- ----- -- ----- -- ---- ------<br>--- ----- --- --- ------ -------- ----- --- ------ value --<br>----- ----- ---------- --- --- ------ ------ ---- -- ------<br>------- --- ------ ----- --- ---- ------- -- ---- --- --<br>------- ------,275323.7999999523,275322.60000014305,274967.055,274971,274983.741,275333.668,,31,value
screen,html.Screen,2_1_1_1_32,2022-05-03T10:22:19.200Z,,,,,,,,,,,,,,,,,54,,,,,,,,,,,,,,428.63199995231116,,response,,,,100,,,,,,,Space,keypress(Space),,,,,,,,-- --- ---- --- ------ ----- ------- ---- -- --- ------- --<br>------- ---------- ------ -- ----- -- ----- -- ---- ------<br>--- ----- --- --- ------ -------- ----- --- ------ ----- of<br>----- ----- ---------- --- --- ------ ------ ---- -- ------<br>------- --- ------ ----- --- ---- ------- -- ---- --- --<br>------- ------,275762.90000009537,275762.2999999523,275316.952,275324,275333.668,275766.897,,32,of
screen,html.Screen,2_1_1_1_33,2022-05-03T10:22:19.734Z,,,,,,,,,,,,,,,,,54,,,,,,,,,,,,,,529.6030000000028,,response,,,,100,,,,,,,Space,keypress(Space),,,,,,,,-- --- ---- --- ------ ----- ------- ---- -- --- ------- --<br>------- ---------- ------ -- ----- -- ----- -- ---- ------<br>--- ----- --- --- ------ -------- ----- --- ------ ----- --<br>these ----- ---------- --- --- ------ ------ ---- -- ------<br>------- --- ------ ----- --- ---- ------- -- ---- --- --<br>------- ------,276297.60000014305,276296.5,275750.232,275762.90000009537,275766.897,276300.12,,33,these
screen,html.Screen,2_1_1_1_34,2022-05-03T10:22:20.208Z,,,,,,,,,,,,,,,,,54,,,,,,,,,,,,,,469.7800000953721,,response,,,,100,,,,,,,Space,keypress(Space),,,,,,,,-- --- ---- --- ------ ----- ------- ---- -- --- ------- --<br>------- ---------- ------ -- ----- -- ----- -- ---- ------<br>--- ----- --- --- ------ -------- ----- --- ------ ----- --<br>----- bonds ---------- --- --- ------ ------ ---- -- ------<br>------- --- ------ ----- --- ---- ------- -- ---- --- --<br>------- ------,276771.10000014305,276769.90000009537,276283.476,276297.7999999523,276300.12,276783.388,,34,bonds
screen,html.Screen,2_1_1_1_35,2022-05-03T10:22:20.676Z,,,,,,,,,,,,,,,,,54,,,,,,,,,,,,,,454.21200014307396,,response,,,,100,,,,,,,Space,keypress(Space),,,,,,,,"-- --- ---- --- ------ ----- ------- ---- -- --- ------- --<br>------- ---------- ------ -- ----- -- ----- -- ---- ------<br>--- ----- --- --- ------ -------- ----- --- ------ ----- --<br>----- ----- plummeted, --- --- ------ ------ ---- -- ------<br>------- --- ------ ----- --- ---- ------- -- ---- --- --<br>------- ------",277238.7000000477,277237.60000014305,276766.696,276771.2999999523,276783.388,277249.96,,35,"plummeted,"
screen,html.Screen,2_1_1_1_36,2022-05-03T10:22:21.281Z,,,,,,,,,,,,,,,,,54,,,,,,,,,,,,,,592.9400000953465,,response,,,,100,,,,,,,Space,keypress(Space),,,,,,,,-- --- ---- --- ------ ----- ------- ---- -- --- ------- --<br>------- ---------- ------ -- ----- -- ----- -- ---- ------<br>--- ----- --- --- ------ -------- ----- --- ------ ----- --<br>----- ----- ---------- and --- ------ ------ ---- -- ------<br>------- --- ------ ----- --- ---- ------- -- ---- --- --<br>------- ------,277844.10000014305,277842.90000009537,277233.216,277239,277249.96,277849.802,,36,and
screen,html.Screen,2_1_1_1_37,2022-05-03T10:22:21.536Z,,,,,,,,,,,,,,,,,54,,,,,,,,,,,,,,247.19799999997485,,response,,,,100,,,,,,,Space,keypress(Space),,,,,,,,-- --- ---- --- ------ ----- ------- ---- -- --- ------- --<br>------- ---------- ------ -- ----- -- ----- -- ---- ------<br>--- ----- --- --- ------ -------- ----- --- ------ ----- --<br>----- ----- ---------- --- the ------ ------ ---- -- ------<br>------- --- ------ ----- --- ---- ------- -- ---- --- --<br>------- ------,278098.2999999523,278097,277833.177,277844.2999999523,277849.802,278129.013,,37,the
screen,html.Screen,2_1_1_1_38,2022-05-03T10:22:21.797Z,,,,,,,,,,,,,,,,,54,,,,,,,,,,,,,,230.08700014307396,,response,,,,100,,,,,,,Space,keypress(Space),,,,,,,,-- --- ---- --- ------ ----- ------- ---- -- --- ------- --<br>------- ---------- ------ -- ----- -- ----- -- ---- ------<br>--- ----- --- --- ------ -------- ----- --- ------ ----- --<br>----- ----- ---------- --- --- market ------ ---- -- ------<br>------- --- ------ ----- --- ---- ------- -- ---- --- --<br>------- ------,278359.7000000477,278359.10000014305,278083.156,278098.60000014305,278129.013,278366.388,,38,market
screen,html.Screen,2_1_1_1_39,2022-05-03T10:22:22.120Z,,,,,,,,,,,,,,,,,54,,,,,,,,,,,,,,314.9119999523391,,response,,,,100,,,,,,,Space,keypress(Space),,,,,,,,-- --- ---- --- ------ ----- ------- ---- -- --- ------- --<br>------- ---------- ------ -- ----- -- ----- -- ---- ------<br>--- ----- --- --- ------ -------- ----- --- ------ ----- --<br>----- ----- ---------- --- --- ------ became ---- -- ------<br>------- --- ------ ----- --- ---- ------- -- ---- --- --<br>------- ------,278682.5,278681.2999999523,278349.699,278359.7000000477,278366.388,278699.67,,39,became
screen,html.Screen,2_1_1_1_40,2022-05-03T10:22:22.451Z,,,,,,,,,,,,,,,,,54,,,,,,,,,,,,,,312.23000009538373,,response,,,,100,,,,,,,Space,keypress(Space),,,,,,,,-- --- ---- --- ------ ----- ------- ---- -- --- ------- --<br>------- ---------- ------ -- ----- -- ----- -- ---- ------<br>--- ----- --- --- ------ -------- ----- --- ------ ----- --<br>----- ----- ---------- --- --- ------ ------ wary -- ------<br>------- --- ------ ----- --- ---- ------- -- ---- --- --<br>------- ------,279013.2000000477,279011.90000009537,278682.958,278682.7000000477,278699.67,279016.255,,40,wary
screen,html.Screen,2_1_1_1_41,2022-05-03T10:22:22.795Z,,,,,,,,,,,,,,,,,54,,,,,,,,,,,,,,340.44500004767906,,response,,,,100,,,,,,,Space,keypress(Space),,,,,,,,-- --- ---- --- ------ ----- ------- ---- -- --- ------- --<br>------- ---------- ------ -- ----- -- ----- -- ---- ------<br>--- ----- --- --- ------ -------- ----- --- ------ ----- --<br>----- ----- ---------- --- --- ------ ------ ---- of ------<br>------- --- ------ ----- --- ---- ------- -- ---- --- --<br>------- ------,279358,279356.7000000477,278999.664,279013.40000009537,279016.255,279366.322,,41,of
screen,html.Screen,2_1_1_1_42,2022-05-03T10:22:23.141Z,,,,,,,,,,,,,,,,,54,,,,,,,,,,,,,,335.7780001430656,,response,,,,100,,,,,,,Space,keypress(Space),,,,,,,,-- --- ---- --- ------ ----- ------- ---- -- --- ------- --<br>------- ---------- ------ -- ----- -- ----- -- ---- ------<br>--- ----- --- --- ------ -------- ----- --- ------ ----- --<br>----- ----- ---------- --- --- ------ ------ ---- -- French<br>------- --- ------ ----- --- ---- ------- -- ---- --- --<br>------- ------,279703.40000009537,279702.10000014305,279349.561,279358.2000000477,279366.322,279716.158,,42,French
screen,html.Screen,2_1_1_1_43,2022-05-03T10:22:23.536Z,,,,,,,,,,,,,,,,,54,,,,,,,,,,,,,,381.2420000953716,,response,,,,100,,,,,,,Space,keypress(Space),,,,,,,,-- --- ---- --- ------ ----- ------- ---- -- --- ------- --<br>------- ---------- ------ -- ----- -- ----- -- ---- ------<br>--- ----- --- --- ------ -------- ----- --- ------ ----- --<br>----- ----- ---------- --- --- ------ ------ ---- -- ------<br>credit. --- ------ ----- --- ---- ------- -- ---- --- --<br>------- ------,280098.5,280097.40000009537,279699.517,279703.60000014305,279716.158,280116.019,,43,credit.
screen,html.Screen,2_1_1_1_44,2022-05-03T10:22:24.116Z,,,,,,,,,,,,,,,,,54,,,,,,,,,,,,,,561.8810000953963,,response,,,,100,,,,,,,Space,keypress(Space),,,,,,,,-- --- ---- --- ------ ----- ------- ---- -- --- ------- --<br>------- ---------- ------ -- ----- -- ----- -- ---- ------<br>--- ----- --- --- ------ -------- ----- --- ------ ----- --<br>----- ----- ---------- --- --- ------ ------ ---- -- ------<br>------- The ------ ----- --- ---- ------- -- ---- --- --<br>------- ------,280679,280677.90000009537,280099.361,280098.7999999523,280116.019,280682.603,,44,The
screen,html.Screen,2_1_1_1_45,2022-05-03T10:22:24.361Z,,,,,,,,,,,,,,,,,54,,,,,,,,,,,,,,239.1969999523135,,response,,,,100,,,,,,,Space,keypress(Space),,,,,,,,-- --- ---- --- ------ ----- ------- ---- -- --- ------- --<br>------- ---------- ------ -- ----- -- ----- -- ---- ------<br>--- ----- --- --- ------ -------- ----- --- ------ ----- --<br>----- ----- ---------- --- --- ------ ------ ---- -- ------<br>------- --- French ----- --- ---- ------- -- ---- --- --<br>------- ------,280923.40000009537,280921.7999999523,280665.915,280679.2999999523,280682.603,280932.565,,45,French
screen,html.Screen,2_1_1_1_46,2022-05-03T10:22:24.612Z,,,,,,,,,,,,,,,,,54,,,,,,,,,,,,,,240.53500014304882,,response,,,,100,,,,,,,Space,keypress(Space),,,,,,,,-- --- ---- --- ------ ----- ------- ---- -- --- ------- --<br>------- ---------- ------ -- ----- -- ----- -- ---- ------<br>--- ----- --- --- ------ -------- ----- --- ------ ----- --<br>----- ----- ---------- --- --- ------ ------ ---- -- ------<br>------- --- ------ state --- ---- ------- -- ---- --- --<br>------- ------,281174.2999999523,281173.10000014305,280915.92,280923.7000000477,280932.565,281182.544,,46,state
screen,html.Screen,2_1_1_1_47,2022-05-03T10:22:25.008Z,,,,,,,,,,,,,,,,,54,,,,,,,,,,,,,,386.856000095373,,response,,,,100,,,,,,,Space,keypress(Space),,,,,,,,-- --- ---- --- ------ ----- ------- ---- -- --- ------- --<br>------- ---------- ------ -- ----- -- ----- -- ---- ------<br>--- ----- --- --- ------ -------- ----- --- ------ ----- --<br>----- ----- ---------- --- --- ------ ------ ---- -- ------<br>------- --- ------ ----- was ---- ------- -- ---- --- --<br>------- ------,281570.7000000477,281569.40000009537,281165.832,281174.60000014305,281182.544,281582.459,,47,was
screen,html.Screen,2_1_1_1_48,2022-05-03T10:22:25.332Z,,,,,,,,,,,,,,,,,54,,,,,,,,,,,,,,311.3409999523428,,response,,,,100,,,,,,,Space,keypress(Space),,,,,,,,-- --- ---- --- ------ ----- ------- ---- -- --- ------- --<br>------- ---------- ------ -- ----- -- ----- -- ---- ------<br>--- ----- --- --- ------ -------- ----- --- ------ ----- --<br>----- ----- ---------- --- --- ------ ------ ---- -- ------<br>------- --- ------ ----- --- left ------- -- ---- --- --<br>------- ------,281895.10000014305,281893.7999999523,281565.792,281570.90000009537,281582.459,281898.98,,48,left
screen,html.Screen,2_1_1_1_49,2022-05-03T10:22:25.631Z,,,,,,,,,,,,,,,,,54,,,,,,,,,,,,,,293.6200001430698,,response,,,,100,,,,,,,Space,keypress(Space),,,,,,,,-- --- ---- --- ------ ----- ------- ---- -- --- ------- --<br>------- ---------- ------ -- ----- -- ----- -- ---- ------<br>--- ----- --- --- ------ -------- ----- --- ------ ----- --<br>----- ----- ---------- --- --- ------ ------ ---- -- ------<br>------- --- ------ ----- --- ---- without -- ---- --- --<br>------- ------,282193.90000009537,282192.60000014305,281882.341,281895.2000000477,281898.98,282198.94,,49,without
screen,html.Screen,2_1_1_1_50,2022-05-03T10:22:25.907Z,,,,,,,,,,,,,,,,,54,,,,,,,,,,,,,,269.2600000476814,,response,,,,100,,,,,,,Space,keypress(Space),,,,,,,,-- --- ---- --- ------ ----- ------- ---- -- --- ------- --<br>------- ---------- ------ -- ----- -- ----- -- ---- ------<br>--- ----- --- --- ------ -------- ----- --- ------ ----- --<br>----- ----- ---------- --- --- ------ ------ ---- -- ------<br>------- --- ------ ----- --- ---- ------- an ---- --- --<br>------- ------,282469.40000009537,282468.2000000477,282182.312,282194.2000000477,282198.94,282482.315,,50,an
screen,html.Screen,2_1_1_1_51,2022-05-03T10:22:26.143Z,,,,,,,,,,,,,,,,,54,,,,,,,,,,,,,,221.98499995231396,,response,,,,100,,,,,,,Space,keypress(Space),,,,,,,,-- --- ---- --- ------ ----- ------- ---- -- --- ------- --<br>------- ---------- ------ -- ----- -- ----- -- ---- ------<br>--- ----- --- --- ------ -------- ----- --- ------ ----- --<br>----- ----- ---------- --- --- ------ ------ ---- -- ------<br>------- --- ------ ----- --- ---- ------- -- easy --- --<br>------- ------,282705.2999999523,282704.2999999523,282465.628,282469.60000014305,282482.315,282715.543,,51,easy
screen,html.Screen,2_1_1_1_52,2022-05-03T10:22:26.363Z,,,,,,,,,,,,,,,,,54,,,,,,,,,,,,,,209.1570000476786,,response,,,,100,,,,,,,Space,keypress(Space),,,,,,,,-- --- ---- --- ------ ----- ------- ---- -- --- ------- --<br>------- ---------- ------ -- ----- -- ----- -- ---- ------<br>--- ----- --- --- ------ -------- ----- --- ------ ----- --<br>----- ----- ---------- --- --- ------ ------ ---- -- ------<br>------- --- ------ ----- --- ---- ------- -- ---- way --<br>------- ------,282926,282924.7000000477,282698.816,282705.5,282715.543,282932.126,,52,way
screen,html.Screen,2_1_1_1_53,2022-05-03T10:22:26.616Z,,,,,,,,,,,,,,,,,54,,,,,,,,,,,,,,245.8740000000107,,response,,,,100,,,,,,,Space,keypress(Space),,,,,,,,-- --- ---- --- ------ ----- ------- ---- -- --- ------- --<br>------- ---------- ------ -- ----- -- ----- -- ---- ------<br>--- ----- --- --- ------ -------- ----- --- ------ ----- --<br>----- ----- ---------- --- --- ------ ------ ---- -- ------<br>------- --- ------ ----- --- ---- ------- -- ---- --- of<br>------- ------,283178.7999999523,283178,282915.486,282926.2000000477,282932.126,283182.095,,53,of
screen,html.Screen,2_1_1_1_54,2022-05-03T10:22:27.070Z,,,,,,,,,,,,,,,,,54,,,,,,,,,,,,,,449.5050001430791,,response,,,,100,,,,,,,Space,keypress(Space),,,,,,,,-- --- ---- --- ------ ----- ------- ---- -- --- ------- --<br>------- ---------- ------ -- ----- -- ----- -- ---- ------<br>--- ----- --- --- ------ -------- ----- --- ------ ----- --<br>----- ----- ---------- --- --- ------ ------ ---- -- ------<br>------- --- ------ ----- --- ---- ------- -- ---- --- --<br>raising ------,283632.90000009537,283631.60000014305,283165.484,283178.90000009537,283182.095,283648.696,,54,raising
screen,html.Screen,2_1_1_1_55,2022-05-03T10:22:28.542Z,,,,,,,,,,,,,,,,,54,,,,,,,,,,,,,,1455.2040000953712,,response,,,,100,,,,,,,Space,keypress(Space),,,,,,,,-- --- ---- --- ------ ----- ------- ---- -- --- ------- --<br>------- ---------- ------ -- ----- -- ----- -- ---- ------<br>--- ----- --- --- ------ -------- ----- --- ------ ----- --<br>----- ----- ---------- --- --- ------ ------ ---- -- ------<br>------- --- ------ ----- --- ---- ------- -- ---- --- --<br>------- money.,285105.10000014305,285103.90000009537,283631.993,283633.10000014305,283648.696,285115.173,,55,money.
Item 100,flow.Loop,2_1_1_1,2022-05-03T10:22:28.543Z,,,,,,,,,,,,,,,,,,,,,,,,,,,,,,,23050.963000095362,,completion,,,,,H,,,,,,,,,,,silence,,,,,285105.5,285103.90000009537,262036.222,262036.70000004768,262052.937,285115.173,,,
Question 1,html.Screen,2_1_1_2,2022-05-03T10:22:32.020Z,,,,,,,,,,,,,,,,,,,,,,,,,,,,true,TRUE,,3466.6269999523065,,response,,,,100,H,,,,,,TRUE,click #choice-1,,,,silence,,,,,288582.7000000477,288581.7999999523,285098.335,285105.60000014305,285115.173,288597.698,,,
Question 2,html.Screen,2_1_1_3,2022-05-03T10:22:34.604Z,,,,,,,,,,,,,,,,,,,,,,,,,,,,false,FALSE,,2568.302000000025,,response,,,,100,H,,,,,,TRUE,click #choice-1,,,,silence,,,,,291166.7999999523,291166,288581.104,288582.7999999523,288597.698,291180.516,,,
Item 100,flow.Sequence,2_1_1,2022-05-03T10:22:34.604Z,,,,,,,,,,,,,,,,,,,,,,,,,,,,,,,39111.12299999999,,completion,,,,,,,,,,,,,,,,,,,,,291167,291166,252038.175,252030.79999995232,252054.877,291180.516,,,
End of Practice,html.Page,2_1_2,2022-05-03T10:22:39.748Z,,,,,,,,,,,,,,,,,,,,,,,,,,,,,,,5130.384000095364,,form submission,,,,,,,,,,,,,,,,,,,,,296311,296310.90000009537,291163.853,291167.10000014305,291180.516,296312.804,,,
Practice,flow.Sequence,2_1,2022-05-03T10:22:39.749Z,,,,,,,,,,,,,,,,,,,,,,,,,,,,,,,88130.77200009537,,completion,,,,,,,,,,,,,,,,,,,,,296311.2000000477,296310.90000009537,208163.507,208182.60000014305,208180.128,296312.804,,,
Trap_instruction,html.Page,2_2_0,2022-05-03T10:22:44.517Z,,,,,,,,,,,,,,,,,,,,,,,,,,,,,,,4766.596000095364,,form submission,,,,,,,,,,,,,,,,,,,,,301079.7000000477,301079.40000009537,296296.196,296311.40000009537,296312.804,301111.841,,,
trap_trial,html.Screen,2_2_1,2022-05-03T10:22:47.540Z,,,,,,,,,,,,,,,,,,,,,,,,,,,,true,1,,2989.9589999523014,,response,,,,,,,,,,,1,click #choice-1,,,,,,,,,304102.7000000477,304101.7999999523,301078.62,301079.7999999523,301111.841,304111.243,,,
end of trap trial,html.Page,2_2_2,2022-05-03T10:22:49.636Z,,,,,,,,,,,,,,,,,,,,,,,,,,,,,,,2087.6570000953507,,form submission,,,,,,,,,,,,,,,,,,,,,306199.10000014305,306198.90000009537,304094.688,304102.90000009537,304111.243,306210.908,,,
Trap 1,flow.Sequence,2_2,2022-05-03T10:22:49.637Z,,,,,,,,,,,,,,,,,,,,,,,,,,,,,,,9886.096000095364,,completion,,,,,,,,,,,,,,,,,,,,,306199.2000000477,306198.90000009537,296296.196,296311.2999999523,296312.804,306210.908,,,
Standby,html.Page,2_3_0,2022-05-03T10:22:57.631Z,,,,,,,,,,,,,,,,,,,,,,,,,,,,,,,7998.476000000024,,timeout,,,,,,,,,,,,,,,,,,,,,314193.90000009537,314192.692,306194.337,306199.2999999523,306210.908,314209.384,,,
Holding screen,html.Screen,2_3_1_0_0,2022-05-03T10:23:04.630Z,,,,,,,,,,,,,,,,,,,,,,,,,,,,,,,6998.61599999998,,timeout,,,,,,,,,,,,,,,,,,,,,321192.40000009537,321191.326,314192.692,314194.2999999523,314209.384,321208,,,
screen,html.Screen,2_3_1_0_1_0,2022-05-03T10:23:06.642Z,,,,,,,,,,,,,,,,,40,,,,,,,,,,,,,,1995.2999999523163,,response,,,,9,H,,,,,,Space,keypress(Space),,,,speech,,,,Police -- ------- ---- ---- ---- - -------- ----- --- --<br>----- ----- ------ -- ---- -- --- - ---- -- - ----- -----<br>------ ---- ------ ---- - -------- ------- -- --- --------<br>-------- ----------- ---- ------ ---- ------ ---- --- ---<br>-------- --- -----,323205.10000014305,323203.2999999523,321191.326,321192.90000009537,321208,323207.494,,0,Police
screen,html.Screen,2_3_1_0_1_1,2022-05-03T10:23:06.901Z,,,,,,,,,,,,,,,,,40,,,,,,,,,,,,,,254.6060001430451,,response,,,,9,H,,,,,,Space,keypress(Space),,,,speech,,,,------ in ------- ---- ---- ---- - -------- ----- --- --<br>----- ----- ------ -- ---- -- --- - ---- -- - ----- -----<br>------ ---- ------ ---- - -------- ------- -- --- --------<br>-------- ----------- ---- ------ ---- ------ ---- --- ---<br>-------- --- -----,323463.2000000477,323462.10000014305,323190.936,323205.2999999523,323207.494,323474.247,,1,in
screen,html.Screen,2_3_1_0_1_2,2022-05-03T10:23:07.153Z,,,,,,,,,,,,,,,,,40,,,,,,,,,,,,,,240.05299995234236,,response,,,,9,H,,,,,,Space,keypress(Space),,,,speech,,,,------ -- Georgia ---- ---- ---- - -------- ----- --- --<br>----- ----- ------ -- ---- -- --- - ---- -- - ----- -----<br>------ ---- ------ ---- - -------- ------- -- --- --------<br>-------- ----------- ---- ------ ---- ------ ---- --- ---<br>-------- --- -----,323715.40000009537,323714.2999999523,323457.55,323463.40000009537,323474.247,323724.238,,2,Georgia
screen,html.Screen,2_3_1_0_1_3,2022-05-03T10:23:07.412Z,,,,,,,,,,,,,,,,,40,,,,,,,,,,,,,,249.06199995230418,,response,,,,9,H,,,,,,Space,keypress(Space),,,,speech,,,,------ -- ------- have ---- ---- - -------- ----- --- --<br>----- ----- ------ -- ---- -- --- - ---- -- - ----- -----<br>------ ---- ------ ---- - -------- ------- -- --- --------<br>-------- ----------- ---- ------ ---- ------ ---- --- ---<br>-------- --- -----,323975,323973.2999999523,323707.476,323715.60000014305,323724.238,323990.787,,3,have
screen,html.Screen,2_3_1_0_1_4,2022-05-03T10:23:07.675Z,,,,,,,,,,,,,,,,,40,,,,,,,,,,,,,,245.61300009535626,,response,,,,9,H,,,,,,Space,keypress(Space),,,,speech,,,,------ -- ------- ---- shut ---- - -------- ----- --- --<br>----- ----- ------ -- ---- -- --- - ---- -- - ----- -----<br>------ ---- ------ ---- - -------- ------- -- --- --------<br>-------- ----------- ---- ------ ---- ------ ---- --- ---<br>-------- --- -----,324237.60000014305,324236.40000009537,323974.124,323975.2999999523,323990.787,324240.731,,4,shut
screen,html.Screen,2_3_1_0_1_5,2022-05-03T10:23:07.897Z,,,,,,,,,,,,,,,,,40,,,,,,,,,,,,,,217.46900004765484,,response,,,,9,H,,,,,,Space,keypress(Space),,,,speech,,,,------ -- ------- ---- ---- down - -------- ----- --- --<br>----- ----- ------ -- ---- -- --- - ---- -- - ----- -----<br>------ ---- ------ ---- - -------- ------- -- --- --------<br>-------- ----------- ---- ------ ---- ------ ---- --- ---<br>-------- --- -----,324459.40000009537,324458.2000000477,324224.048,324237.7000000477,324240.731,324473.952,,5,down
screen,html.Screen,2_3_1_0_1_6,2022-05-03T10:23:08.118Z,,,,,,,,,,,,,,,,,40,,,,,,,,,,,,,,205.9480000953772,,response,,,,9,H,,,,,,Space,keypress(Space),,,,speech,,,,------ -- ------- ---- ---- ---- a -------- ----- --- --<br>----- ----- ------ -- ---- -- --- - ---- -- - ----- -----<br>------ ---- ------ ---- - -------- ------- -- --- --------<br>-------- ----------- ---- ------ ---- ------ ---- --- ---<br>-------- --- -----,324681,324679.90000009537,324457.347,324459.7000000477,324473.952,324690.654,,6,a
screen,html.Screen,2_3_1_0_1_7,2022-05-03T10:23:08.339Z,,,,,,,,,,,,,,,,,40,,,,,,,,,,,,,,210.246000095387,,response,,,,9,H,,,,,,Space,keypress(Space),,,,speech,,,,------ -- ------- ---- ---- ---- - lemonade ----- --- --<br>----- ----- ------ -- ---- -- --- - ---- -- - ----- -----<br>------ ---- ------ ---- - -------- ------- -- --- --------<br>-------- ----------- ---- ------ ---- ------ ---- --- ---<br>-------- --- -----,324902,324900.90000009537,324673.945,324681.2000000477,324690.654,324907.265,,7,lemonade
screen,html.Screen,2_3_1_0_1_8,2022-05-03T10:23:08.565Z,,,,,,,,,,,,,,,,,40,,,,,,,,,,,,,,219.03499995230231,,response,,,,9,H,,,,,,Space,keypress(Space),,,,speech,,,,------ -- ------- ---- ---- ---- - -------- stand --- --<br>----- ----- ------ -- ---- -- --- - ---- -- - ----- -----<br>------ ---- ------ ---- - -------- ------- -- --- --------<br>-------- ----------- ---- ------ ---- ------ ---- --- ---<br>-------- --- -----,325127.60000014305,325126.2999999523,324890.599,324902.2000000477,324907.265,325140.576,,8,stand
screen,html.Screen,2_3_1_0_1_9,2022-05-03T10:23:08.808Z,,,,,,,,,,,,,,,,,40,,,,,,,,,,,,,,229.52400014305022,,response,,,,9,H,,,,,,Space,keypress(Space),,,,speech,,,,------ -- ------- ---- ---- ---- - -------- ----- run --<br>----- ----- ------ -- ---- -- --- - ---- -- - ----- -----<br>------ ---- ------ ---- - -------- ------- -- --- --------<br>-------- ----------- ---- ------ ---- ------ ---- --- ---<br>-------- --- -----,325370.7000000477,325370.10000014305,325123.921,325127.90000009537,325140.576,325373.817,,9,run
screen,html.Screen,2_3_1_0_1_10,2022-05-03T10:23:09.839Z,,,,,,,,,,,,,,,,,40,,,,,,,,,,,,,,1026.2830001430702,,response,,,,9,H,,,,,,Space,keypress(Space),,,,speech,,,,------ -- ------- ---- ---- ---- - -------- ----- --- by<br>----- ----- ------ -- ---- -- --- - ---- -- - ----- -----<br>------ ---- ------ ---- - -------- ------- -- --- --------<br>-------- ----------- ---- ------ ---- ------ ---- --- ---<br>-------- --- -----,326401.2000000477,326400.10000014305,325357.139,325370.7000000477,325373.817,326406.948,,10,by
screen,html.Screen,2_3_1_0_1_11,2022-05-03T10:23:10.114Z,,,,,,,,,,,,,,,,,40,,,,,,,,,,,,,,268.4520000953926,,response,,,,9,H,,,,,,Space,keypress(Space),,,,speech,,,,------ -- ------- ---- ---- ---- - -------- ----- --- --<br>three ----- ------ -- ---- -- --- - ---- -- - ----- -----<br>------ ---- ------ ---- - -------- ------- -- --- --------<br>-------- ----------- ---- ------ ---- ------ ---- --- ---<br>-------- --- -----,326676.5,326675.40000009537,326390.273,326401.5,326406.948,326690.259,,11,three
screen,html.Screen,2_3_1_0_1_12,2022-05-03T10:23:10.337Z,,,,,,,,,,,,,,,,,40,,,,,,,,,,,,,,208.54099995229626,,response,,,,9,H,,,,,,Space,keypress(Space),,,,speech,,,,------ -- ------- ---- ---- ---- - -------- ----- --- --<br>----- girls ------ -- ---- -- --- - ---- -- - ----- -----<br>------ ---- ------ ---- - -------- ------- -- --- --------<br>-------- ----------- ---- ------ ---- ------ ---- --- ---<br>-------- --- -----,326900,326898.7999999523,326673.62,326676.7999999523,326690.259,326906.861,,12,girls
screen,html.Screen,2_3_1_0_1_13,2022-05-03T10:23:10.574Z,,,,,,,,,,,,,,,,,40,,,,,,,,,,,,,,228.0390000953921,,response,,,,9,H,,,,,,Space,keypress(Space),,,,speech,,,,------ -- ------- ---- ---- ---- - -------- ----- --- --<br>----- ----- trying -- ---- -- --- - ---- -- - ----- -----<br>------ ---- ------ ---- - -------- ------- -- --- --------<br>-------- ----------- ---- ------ ---- ------ ---- --- ---<br>-------- --- -----,327136.2999999523,327134.90000009537,326890.17,326900.2000000477,326906.861,327140.163,,13,trying
screen,html.Screen,2_3_1_0_1_14,2022-05-03T10:23:12.457Z,,,,,,,,,,,,,,,,,40,,,,,,,,,,,,,,1878.0370000476833,,response,,,,9,H,,,,,,Space,keypress(Space),,,,speech,,,,------ -- ------- ---- ---- ---- - -------- ----- --- --<br>----- ----- ------ to ---- -- --- - ---- -- - ----- -----<br>------ ---- ------ ---- - -------- ------- -- --- --------<br>-------- ----------- ---- ------ ---- ------ ---- --- ---<br>-------- --- -----,329019.5,329018.2000000477,327123.558,327136.5,327140.163,329023.073,,14,to
screen,html.Screen,2_3_1_0_1_15,2022-05-03T10:23:12.792Z,,,,,,,,,,,,,,,,,40,,,,,,,,,,,,,,329.62700004770886,,response,,,,9,H,,,,,,Space,keypress(Space),,,,speech,,,,------ -- ------- ---- ---- ---- - -------- ----- --- --<br>----- ----- ------ -- save -- --- - ---- -- - ----- -----<br>------ ---- ------ ---- - -------- ------- -- --- --------<br>-------- ----------- ---- ------ ---- ------ ---- --- ---<br>-------- --- -----,329354.2999999523,329352.7000000477,329006.4,329019.7000000477,329023.073,329373.751,,15,save
screen,html.Screen,2_3_1_0_1_16,2022-05-03T10:23:13.055Z,,,,,,,,,,,,,,,,,40,,,,,,,,,,,,,,243.048999952327,,response,,,,9,H,,,,,,Space,keypress(Space),,,,speech,,,,------ -- ------- ---- ---- ---- - -------- ----- --- --<br>----- ----- ------ -- ---- up --- - ---- -- - ----- -----<br>------ ---- ------ ---- - -------- ------- -- --- --------<br>-------- ----------- ---- ------ ---- ------ ---- --- ---<br>-------- --- -----,329617.40000009537,329616.7999999523,329339.74,329354.5,329373.751,329622.919,,16,up
screen,html.Screen,2_3_1_0_1_17,2022-05-03T10:23:13.291Z,,,,,,,,,,,,,,,,,40,,,,,,,,,,,,,,230.2810000476893,,response,,,,9,H,,,,,,Space,keypress(Space),,,,speech,,,,------ -- ------- ---- ---- ---- - -------- ----- --- --<br>----- ----- ------ -- ---- -- for - ---- -- - ----- -----<br>------ ---- ------ ---- - -------- ------- -- --- --------<br>-------- ----------- ---- ------ ---- ------ ---- --- ---<br>-------- --- -----,329853.7000000477,329853.2000000477,329606.402,329617.5,329622.919,329856.171,,17,for
screen,html.Screen,2_3_1_0_1_18,2022-05-03T10:23:13.559Z,,,,,,,,,,,,,,,,,40,,,,,,,,,,,,,,264.22900009539444,,response,,,,9,H,,,,,,Space,keypress(Space),,,,speech,,,,------ -- ------- ---- ---- ---- - -------- ----- --- --<br>----- ----- ------ -- ---- -- --- a ---- -- - ----- -----<br>------ ---- ------ ---- - -------- ------- -- --- --------<br>-------- ----------- ---- ------ ---- ------ ---- --- ---<br>-------- --- -----,330121.60000014305,330120.40000009537,329839.575,329853.90000009537,329856.171,330156.255,,18,a
screen,html.Screen,2_3_1_0_1_19,2022-05-03T10:23:13.784Z,,,,,,,,,,,,,,,,,40,,,,,,,,,,,,,,189.54499995231163,,response,,,,9,H,,,,,,Space,keypress(Space),,,,speech,,,,------ -- ------- ---- ---- ---- - -------- ----- --- --<br>----- ----- ------ -- ---- -- --- - trip -- - ----- -----<br>------ ---- ------ ---- - -------- ------- -- --- --------<br>-------- ----------- ---- ------ ---- ------ ---- --- ---<br>-------- --- -----,330346.40000009537,330345.7999999523,330139.577,330121.90000009537,330156.255,330356.18,,19,trip
screen,html.Screen,2_3_1_0_1_20,2022-05-03T10:23:14.033Z,,,,,,,,,,,,,,,,,40,,,,,,,,,,,,,,237.72000009537442,,response,,,,9,H,,,,,,Space,keypress(Space),,,,speech,,,,------ -- ------- ---- ---- ---- - -------- ----- --- --<br>----- ----- ------ -- ---- -- --- - ---- to - ----- -----<br>------ ---- ------ ---- - -------- ------- -- --- --------<br>-------- ----------- ---- ------ ---- ------ ---- --- ---<br>-------- --- -----,330595.7999999523,330593.90000009537,330339.481,330346.5,330356.18,330606.061,,20,to
screen,html.Screen,2_3_1_0_1_21,2022-05-03T10:23:14.276Z,,,,,,,,,,,,,,,,,40,,,,,,,,,,,,,,231.0390001430642,,response,,,,9,H,,,,,,Space,keypress(Space),,,,speech,,,,------ -- ------- ---- ---- ---- - -------- ----- --- --<br>----- ----- ------ -- ---- -- --- - ---- -- a ----- -----<br>------ ---- ------ ---- - -------- ------- -- --- --------<br>-------- ----------- ---- ------ ---- ------ ---- --- ---<br>-------- --- -----,330838.40000009537,330837.10000014305,330589.534,330596.10000014305,330606.061,330856.113,,21,a
screen,html.Screen,2_3_1_0_1_22,2022-05-03T10:23:14.502Z,,,,,,,,,,,,,,,,,40,,,,,,,,,,,,,,207.48700014303904,,response,,,,9,H,,,,,,Space,keypress(Space),,,,speech,,,,------ -- ------- ---- ---- ---- - -------- ----- --- --<br>----- ----- ------ -- ---- -- --- - ---- -- - water -----<br>------ ---- ------ ---- - -------- ------- -- --- --------<br>-------- ----------- ---- ------ ---- ------ ---- --- ---<br>-------- --- -----,331065,331063.60000014305,330839.491,330838.7000000477,330856.113,331072.937,,22,water
screen,html.Screen,2_3_1_0_1_23,2022-05-03T10:23:14.749Z,,,,,,,,,,,,,,,,,40,,,,,,,,,,,,,,236.86299995234003,,response,,,,9,H,,,,,,Space,keypress(Space),,,,speech,,,,"------ -- ------- ---- ---- ---- - -------- ----- --- --<br>----- ----- ------ -- ---- -- --- - ---- -- - ----- park,<br>------ ---- ------ ---- - -------- ------- -- --- --------<br>-------- ----------- ---- ------ ---- ------ ---- --- ---<br>-------- --- -----",331311.2999999523,331309.7999999523,331056.026,331065.2000000477,331072.937,331322.688,,23,"park,"
screen,html.Screen,2_3_1_0_1_24,2022-05-03T10:23:15.133Z,,,,,,,,,,,,,,,,,40,,,,,,,,,,,,,,370.51200004765997,,response,,,,9,H,,,,,,Space,keypress(Space),,,,speech,,,,------ -- ------- ---- ---- ---- - -------- ----- --- --<br>----- ----- ------ -- ---- -- --- - ---- -- - ----- -----<br>saying ---- ------ ---- - -------- ------- -- --- --------<br>-------- ----------- ---- ------ ---- ------ ---- --- ---<br>-------- --- -----,331695.2999999523,331693.2000000477,331306.042,331311.5,331322.688,331705.947,,24,saying
screen,html.Screen,2_3_1_0_1_25,2022-05-03T10:23:15.466Z,,,,,,,,,,,,,,,,,40,,,,,,,,,,,,,,321.1530001430656,,response,,,,9,H,,,,,,Space,keypress(Space),,,,speech,,,,------ -- ------- ---- ---- ---- - -------- ----- --- --<br>----- ----- ------ -- ---- -- --- - ---- -- - ----- -----<br>------ they ------ ---- - -------- ------- -- --- --------<br>-------- ----------- ---- ------ ---- ------ ---- --- ---<br>-------- --- -----,332028.40000009537,332027.10000014305,331689.275,331695.60000014305,331705.947,332039.2,,25,they
screen,html.Screen,2_3_1_0_1_26,2022-05-03T10:23:15.740Z,,,,,,,,,,,,,,,,,40,,,,,,,,,,,,,,262.4000001430395,,response,,,,9,H,,,,,,Space,keypress(Space),,,,speech,,,,------ -- ------- ---- ---- ---- - -------- ----- --- --<br>----- ----- ------ -- ---- -- --- - ---- -- - ----- -----<br>------ ---- didn't ---- - -------- ------- -- --- --------<br>-------- ----------- ---- ------ ---- ------ ---- --- ---<br>-------- --- -----,332302.7000000477,332301.60000014305,332022.56,332028.5,332039.2,332305.787,,26,didn't
screen,html.Screen,2_3_1_0_1_27,2022-05-03T10:23:15.954Z,,,,,,,,,,,,,,,,,40,,,,,,,,,,,,,,209.5129999523051,,response,,,,9,H,,,,,,Space,keypress(Space),,,,speech,,,,------ -- ------- ---- ---- ---- - -------- ----- --- --<br>----- ----- ------ -- ---- -- --- - ---- -- - ----- -----<br>------ ---- ------ have - -------- ------- -- --- --------<br>-------- ----------- ---- ------ ---- ------ ---- --- ---<br>-------- --- -----,332516.7000000477,332515.2999999523,332289.182,332302.90000009537,332305.787,332522.351,,27,have
screen,html.Screen,2_3_1_0_1_28,2022-05-03T10:23:16.185Z,,,,,,,,,,,,,,,,,40,,,,,,,,,,,,,,223.64899999997579,,response,,,,9,H,,,,,,Space,keypress(Space),,,,speech,,,,------ -- ------- ---- ---- ---- - -------- ----- --- --<br>----- ----- ------ -- ---- -- --- - ---- -- - ----- -----<br>------ ---- ------ ---- a -------- ------- -- --- --------<br>-------- ----------- ---- ------ ---- ------ ---- --- ---<br>-------- --- -----,332747.2999999523,332746,332505.841,332516.90000009537,332522.351,332755.731,,28,a
screen,html.Screen,2_3_1_0_1_29,2022-05-03T10:23:16.390Z,,,,,,,,,,,,,,,,,40,,,,,,,,,,,,,,195.26899999997113,,response,,,,9,H,,,,,,Space,keypress(Space),,,,speech,,,,------ -- ------- ---- ---- ---- - -------- ----- --- --<br>----- ----- ------ -- ---- -- --- - ---- -- - ----- -----<br>------ ---- ------ ---- - business ------- -- --- --------<br>-------- ----------- ---- ------ ---- ------ ---- --- ---<br>-------- --- -----,332952.2999999523,332951,332739.061,332747.60000014305,332755.731,332955.685,,29,business
screen,html.Screen,2_3_1_0_1_30,2022-05-03T10:23:16.587Z,,,,,,,,,,,,,,,,,40,,,,,,,,,,,,,,192.41500014305348,,response,,,,9,H,,,,,,Space,keypress(Space),,,,speech,,,,------ -- ------- ---- ---- ---- - -------- ----- --- --<br>----- ----- ------ -- ---- -- --- - ---- -- - ----- -----<br>------ ---- ------ ---- - -------- license -- --- --------<br>-------- ----------- ---- ------ ---- ------ ---- --- ---<br>-------- --- -----,333149.40000009537,333148.10000014305,332939.014,332952.60000014305,332955.685,333155.735,,30,license
screen,html.Screen,2_3_1_0_1_31,2022-05-03T10:23:16.807Z,,,,,,,,,,,,,,,,,40,,,,,,,,,,,,,,211.96500004769769,,response,,,,9,H,,,,,,Space,keypress(Space),,,,speech,,,,------ -- ------- ---- ---- ---- - -------- ----- --- --<br>----- ----- ------ -- ---- -- --- - ---- -- - ----- -----<br>------ ---- ------ ---- - -------- ------- or --- --------<br>-------- ----------- ---- ------ ---- ------ ---- --- ---<br>-------- --- -----,333369.2000000477,333367.7000000477,333139.012,333149.60000014305,333155.735,333372.554,,31,or
screen,html.Screen,2_3_1_0_1_32,2022-05-03T10:23:17.318Z,,,,,,,,,,,,,,,,,40,,,,,,,,,,,,,,506.5460001430474,,response,,,,9,H,,,,,,Space,keypress(Space),,,,speech,,,,------ -- ------- ---- ---- ---- - -------- ----- --- --<br>----- ----- ------ -- ---- -- --- - ---- -- - ----- -----<br>------ ---- ------ ---- - -------- ------- -- the --------<br>-------- ----------- ---- ------ ---- ------ ---- --- ---<br>-------- --- -----,333880.40000009537,333879.10000014305,333355.66,333369.2999999523,333372.554,333888.729,,32,the
screen,html.Screen,2_3_1_0_1_33,2022-05-03T10:23:17.590Z,,,,,,,,,,,,,,,,,40,,,,,,,,,,,,,,263.17100009537535,,response,,,,9,H,,,,,,Space,keypress(Space),,,,speech,,,,------ -- ------- ---- ---- ---- - -------- ----- --- --<br>----- ----- ------ -- ---- -- --- - ---- -- - ----- -----<br>------ ---- ------ ---- - -------- ------- -- --- required<br>-------- ----------- ---- ------ ---- ------ ---- --- ---<br>-------- --- -----,334153.10000014305,334151.90000009537,333872.171,333880.60000014305,333888.729,334155.435,,33,required
screen,html.Screen,2_3_1_0_1_34,2022-05-03T10:23:17.840Z,,,,,,,,,,,,,,,,,40,,,,,,,,,,,,,,245.8649999523186,,response,,,,9,H,,,,,,Space,keypress(Space),,,,speech,,,,------ -- ------- ---- ---- ---- - -------- ----- --- --<br>----- ----- ------ -- ---- -- --- - ---- -- - ----- -----<br>------ ---- ------ ---- - -------- ------- -- --- --------<br>permits. ----------- ---- ------ ---- ------ ---- --- ---<br>-------- --- -----,334402.5,334401.2999999523,334138.797,334153.5,334155.435,334405.381,,34,permits.
screen,html.Screen,2_3_1_0_1_35,2022-05-03T10:23:18.087Z,,,,,,,,,,,,,,,,,40,,,,,,,,,,,,,,242.81900004768977,,response,,,,9,H,,,,,,Space,keypress(Space),,,,speech,,,,------ -- ------- ---- ---- ---- - -------- ----- --- --<br>----- ----- ------ -- ---- -- --- - ---- -- - ----- -----<br>------ ---- ------ ---- - -------- ------- -- --- --------<br>-------- Morningstar ---- ------ ---- ------ ---- --- ---<br>-------- --- -----,334649.60000014305,334648.2000000477,334388.755,334402.7000000477,334405.381,334655.498,,35,Morningstar
screen,html.Screen,2_3_1_0_1_36,2022-05-03T10:23:18.341Z,,,,,,,,,,,,,,,,,40,,,,,,,,,,,,,,247.00199999997858,,response,,,,9,H,,,,,,Space,keypress(Space),,,,speech,,,,------ -- ------- ---- ---- ---- - -------- ----- --- --<br>----- ----- ------ -- ---- -- --- - ---- -- - ----- -----<br>------ ---- ------ ---- - -------- ------- -- --- --------<br>-------- ----------- says ------ ---- ------ ---- --- ---<br>-------- --- -----,334903.7999999523,334902.5,334638.671,334649.90000009537,334655.498,334923.737,,36,says
screen,html.Screen,2_3_1_0_1_37,2022-05-03T10:23:19.137Z,,,,,,,,,,,,,,,,,40,,,,,,,,,,,,,,774.9630000476609,,response,,,,9,H,,,,,,Space,keypress(Space),,,,speech,,,,------ -- ------- ---- ---- ---- - -------- ----- --- --<br>----- ----- ------ -- ---- -- --- - ---- -- - ----- -----<br>------ ---- ------ ---- - -------- ------- -- --- --------<br>-------- ----------- ---- police ---- ------ ---- --- ---<br>-------- --- -----,335699.7999999523,335698.7000000477,334888.637,334904,334923.737,335705.119,,37,police
screen,html.Screen,2_3_1_0_1_38,2022-05-03T10:23:19.703Z,,,,,,,,,,,,,,,,,40,,,,,,,,,,,,,,559.0810000476777,,response,,,,9,H,,,,,,Space,keypress(Space),,,,speech,,,,------ -- ------- ---- ---- ---- - -------- ----- --- --<br>----- ----- ------ -- ---- -- --- - ---- -- - ----- -----<br>------ ---- ------ ---- - -------- ------- -- --- --------<br>-------- ----------- ---- ------ also ------ ---- --- ---<br>-------- --- -----,336265.7000000477,336264.2000000477,335688.482,335700,335705.119,336271.732,,38,also
screen,html.Screen,2_3_1_0_1_39,2022-05-03T10:23:19.976Z,,,,,,,,,,,,,,,,,40,,,,,,,,,,,,,,265.868000143033,,response,,,,9,H,,,,,,Space,keypress(Space),,,,speech,,,,------ -- ------- ---- ---- ---- - -------- ----- --- --<br>----- ----- ------ -- ---- -- --- - ---- -- - ----- -----<br>------ ---- ------ ---- - -------- ------- -- --- --------<br>-------- ----------- ---- ------ ---- didn't ---- --- ---<br>-------- --- -----,336538.90000009537,336537.60000014305,336254.951,336265.90000009537,336271.732,336554.947,,39,didn't
screen,html.Screen,2_3_1_0_1_40,2022-05-03T10:23:20.201Z,,,,,,,,,,,,,,,,,40,,,,,,,,,,,,,,207.45300009538187,,response,,,,9,H,,,,,,Space,keypress(Space),,,,speech,,,,------ -- ------- ---- ---- ---- - -------- ----- --- --<br>----- ----- ------ -- ---- -- --- - ---- -- - ----- -----<br>------ ---- ------ ---- - -------- ------- -- --- --------<br>-------- ----------- ---- ------ ---- ------ know --- ---<br>-------- --- -----,336763.60000014305,336762.40000009537,336538.344,336539,336554.947,336771.759,,40,know
screen,html.Screen,2_3_1_0_1_41,2022-05-03T10:23:20.441Z,,,,,,,,,,,,,,,,,40,,,,,,,,,,,,,,230.1410000953474,,response,,,,9,H,,,,,,Space,keypress(Space),,,,speech,,,,------ -- ------- ---- ---- ---- - -------- ----- --- --<br>----- ----- ------ -- ---- -- --- - ---- -- - ----- -----<br>------ ---- ------ ---- - -------- ------- -- --- --------<br>-------- ----------- ---- ------ ---- ------ ---- how ---<br>-------- --- -----,337003.2999999523,337001.90000009537,336754.943,336763.90000009537,336771.759,337023.669,,41,how
screen,html.Screen,2_3_1_0_1_42,2022-05-03T10:23:20.831Z,,,,,,,,,,,,,,,,,40,,,,,,,,,,,,,,370.6309999523219,,response,,,,9,H,,,,,,Space,keypress(Space),,,,speech,,,,------ -- ------- ---- ---- ---- - -------- ----- --- --<br>----- ----- ------ -- ---- -- --- - ---- -- - ----- -----<br>------ ---- ------ ---- - -------- ------- -- --- --------<br>-------- ----------- ---- ------ ---- ------ ---- --- the<br>-------- --- -----,337395.7000000477,337394.2999999523,336988.29,337003.60000014305,337023.669,337404.88,,42,the
screen,html.Screen,2_3_1_0_1_43,2022-05-03T10:23:21.266Z,,,,,,,,,,,,,,,,,40,,,,,,,,,,,,,,424.4199999523116,,response,,,,9,H,,,,,,Space,keypress(Space),,,,speech,,,,------ -- ------- ---- ---- ---- - -------- ----- --- --<br>----- ----- ------ -- ---- -- --- - ---- -- - ----- -----<br>------ ---- ------ ---- - -------- ------- -- --- --------<br>-------- ----------- ---- ------ ---- ------ ---- --- ---<br>lemonade --- -----,337830.5,337829.2999999523,337388.14,337395.90000009537,337404.88,337838.24,,43,lemonade
screen,html.Screen,2_3_1_0_1_44,2022-05-03T10:23:21.643Z,,,,,,,,,,,,,,,,,40,,,,,,,,,,,,,,368.2600000000093,,response,,,,9,H,,,,,,Space,keypress(Space),,,,speech,,,,------ -- ------- ---- ---- ---- - -------- ----- --- --<br>----- ----- ------ -- ---- -- --- - ---- -- - ----- -----<br>------ ---- ------ ---- - -------- ------- -- --- --------<br>-------- ----------- ---- ------ ---- ------ ---- --- ---<br>-------- was -----,338207.7999999523,338206.5,337821.391,337830.7000000477,337838.24,338221.328,,44,was
screen,html.Screen,2_3_1_0_1_45,2022-05-03T10:23:22.179Z,,,,,,,,,,,,,,,,,40,,,,,,,,,,,,,,520.9719999523368,,response,,,,9,H,,,,,,Space,keypress(Space),,,,speech,,,,------ -- ------- ---- ---- ---- - -------- ----- --- --<br>----- ----- ------ -- ---- -- --- - ---- -- - ----- -----<br>------ ---- ------ ---- - -------- ------- -- --- --------<br>-------- ----------- ---- ------ ---- ------ ---- --- ---<br>-------- --- made.,338743.5,338742.2999999523,338204.688,338208,338221.328,338754.534,,45,made.
Item 9,flow.Loop,2_3_1_0_1,2022-05-03T10:23:22.179Z,,,,,,,,,,,,,,,,,,,,,,,,,,,,,,,17534.299999952316,,completion,,,,,,,,,,,,,,,,,,,,,338743.90000009537,338742.2999999523,321191.326,321192.7999999523,321208,338754.534,,,
Question 1,html.Screen,2_3_1_0_2,2022-05-03T10:23:26.490Z,,,,,,,,,,,,,,,,,,,,,,,,,,,,false,FALSE,,4299.466000000015,,response,,,,9,H,,,,,,TRUE,click #choice-1,,,,speech,,,,,343055,343054,338737.857,338744.10000014305,338754.534,343070.374,,,
Question 2,html.Screen,2_3_1_0_3,2022-05-03T10:23:29.786Z,,,,,,,,,,,,,,,,,,,,,,,,,,,,false,FALSE,,3279.4259999523056,,response,,,,9,H,,,,,,TRUE,click #choice-1,,,,speech,,,,,346350.7999999523,346349.7999999523,343053.739,343055.2000000477,343070.374,346352.958,,,
