sender,sender_type,sender_id,timestamp,meta,,Blues,Classical,Country,Dance,Electronic,Folk,Gospel,Hip-Hop,Jazz,Latin,Musical/Film,New-age,Pop,Prolific_id,Provo_ID,R&B,Rap,Reggae,Religious,Rock,Soul,Swing,Traditional,age,artist_name,correct,correctResponse,distraction,duration,education,ended_on,familiarity,gender,headphone_check_performance,item,list,music_frequency,offensiveness,pleasantness,position_correct,preference,response,response_action,snippet_file,song_name,song_rating,sound,stimulus_1,stimulus_2,stimulus_3,text,time_commit,time_end,time_render,time_run,time_show,time_switch,url,word,word_ID
Prolific ID,html.Form,0,2022-05-11T11:33:09.143Z,"{""labjs_version"":""20.2.2"",""labjs_build"":{""flavor"":""production"",""commit"":""a25486e0c714a0ae2ce03ff94b7bb6896854dcfa""},""location"":""https://run.pavlovia.org/mvasilev/prolific3_music_c/"",""userAgent"":""Mozilla/5.0 (X11; Linux x86_64) AppleWebKit/537.36 (KHTML, like Gecko) Chrome/101.0.4951.54 Safari/537.36"",""platform"":""Linux x86_64"",""language"":""en-GB"",""locale"":""en-GB"",""timeZone"":""Europe/London"",""timezoneOffset"":-60,""screen_width"":1280,""screen_height"":800,""scroll_width"":1208,""scroll_height"":583,""window_innerWidth"":1208,""window_innerHeight"":631,""devicePixelRatio"":1}",,,,,,,,,,,,,,,5687d434369319000c269c03,,,,,,,,,,,,,,,16112.433000000186,,form submission,,,,,,,,,,,,,,,,,,,,,61728.10000000056,61726.700000000186,43598.891,42356.90000000037,45614.267,62320.235,{},,
Introduction,html.Screen,1_0,2022-05-11T11:33:15.391Z,,,,,,,,,,,,,,,,,,,,,,,,,,,,,,,5645.965000000186,,response,,,,,,,,,,,continue,click button,,,,,,,,,67976.60000000056,67966.20000000019,61720.619,61728.799999999814,62320.235,68083.211,,,
Volume calibration,html.Screen,1_1,2022-05-11T11:33:56.146Z,,,,,,,,,,,,,,,,,,,,,,,,,,,,,,,40635.98900000019,,response,,,,,,,,,,,continue,click button,,,,,,,,,108732,108719.20000000019,67966.619,67977,68083.211,108740.507,,,
Task instructions,html.Screen,1_2,2022-05-11T11:34:02.705Z,,,,,,,,,,,,,,,,,,,,,,,,,,,,,,,6546.6930000001885,,response,,,,,,,,,,,continue,click button,,,,,,,,,115290.79999999981,115287.20000000019,108707.195,108732.20000000019,108740.507,115302.971,,,
Sounds,html.Screen,1_3_0_0,2022-05-11T11:34:06.956Z,,,,,,,,,,,,,,,,,,,,,,,,,,,,,,,4247.279999999999,,timeout,,,,,,,,,1,,,,,,,,S,I,O,,119542,119533.595,115286.315,115291.40000000037,115302.971,119550.251,,,
Judgement,html.Screen,1_3_0_1,2022-05-11T11:34:08.121Z,,,,,,,,,,,,,,,,,,,,,,,,,,,,true,1,,1152.9490000001824,,response,,,,,,,,,1,,1,click #choice-1,,,,,S,I,O,,120706.40000000037,120703.20000000019,119533.595,119542.29999999981,119550.251,120716.171,,,
Trial,flow.Sequence,1_3_0,2022-05-11T11:34:08.122Z,,,,,,,,,,,,,,,,,,,,,,,,,,,,,,,5400.229000000181,,completion,,,,,,,,,1,,,,,,,,S,I,O,,120707.29999999981,120703.20000000019,115286.315,115291.29999999981,115302.971,120716.171,,,
Sounds,html.Screen,1_3_1_0,2022-05-11T11:34:12.364Z,,,,,,,,,,,,,,,,,,,,,,,,,,,,,,,4247.279999999999,,timeout,,,,,,,,,2,,,,,,,,I,S,O,,124949.60000000056,124946.795,120699.515,120707.70000000019,120716.171,124963.451,,,
Judgement,html.Screen,1_3_1_1,2022-05-11T11:34:12.873Z,,,,,,,,,,,,,,,,,,,,,,,,,,,,true,2,,491.74900000018533,,response,,,,,,,,,2,,2,click #choice-2,,,,,I,S,O,,125458.79999999981,125455.20000000019,124946.795,124950,124963.451,125463.131,,,
Trial,flow.Sequence,1_3_1,2022-05-11T11:34:12.874Z,,,,,,,,,,,,,,,,,,,,,,,,,,,,,,,4739.029000000184,,completion,,,,,,,,,2,,,,,,,,I,S,O,,125459.5,125455.20000000019,120699.515,120707.60000000056,120716.171,125463.131,,,
Sounds,html.Screen,1_3_2_0,2022-05-11T11:34:17.110Z,,,,,,,,,,,,,,,,,,,,,,,,,,,,,,,4247.279999999999,,timeout,,,,,,,,,2,,,,,,,,O,S,I,,129695.70000000019,129693.755,125446.475,125460.10000000056,125463.131,129710.411,,,
Judgement,html.Screen,1_3_2_1,2022-05-11T11:34:18.105Z,,,,,,,,,,,,,,,,,,,,,,,,,,,,true,2,,976.7890000001935,,response,,,,,,,,,2,,2,click #choice-2,,,,,O,S,I,,130690.29999999981,130687.20000000019,129693.755,129696,129710.411,130693.115,,,
Trial,flow.Sequence,1_3_2,2022-05-11T11:34:18.105Z,,,,,,,,,,,,,,,,,,,,,,,,,,,,,,,5224.069000000192,,completion,,,,,,,,,2,,,,,,,,O,S,I,,130690.70000000019,130687.20000000019,125446.475,125459.90000000037,125463.131,130693.115,,,
Sounds,html.Screen,1_3_3_0,2022-05-11T11:34:22.340Z,,,,,,,,,,,,,,,,,,,,,,,,,,,,,,,4247.279999999984,,timeout,,,,,,,,,3,,,,,,,,O,I,S,,134925.90000000037,134923.739,130676.459,130691.20000000019,130693.115,134940.395,,,
Judgement,html.Screen,1_3_3_1,2022-05-11T11:34:22.914Z,,,,,,,,,,,,,,,,,,,,,,,,,,,,true,3,,554.8050000001967,,response,,,,,,,,,3,,3,click #choice-3,,,,,O,I,S,,135499.2000000002,135495.2000000002,134923.739,134926.2000000002,134940.395,135506.699,,,
Trial,flow.Sequence,1_3_3,2022-05-11T11:34:22.914Z,,,,,,,,,,,,,,,,,,,,,,,,,,,,,,,4802.085000000181,,completion,,,,,,,,,3,,,,,,,,O,I,S,,135499.7999999998,135495.2000000002,130676.459,130691,130693.115,135506.699,,,
Sounds,html.Screen,1_3_4_0,2022-05-11T11:34:27.154Z,,,,,,,,,,,,,,,,,,,,,,,,,,,,,,,4247.279999999999,,timeout,,,,,,,,,3,,,,,,,,I,O,S,,139739.5,139737.323,135490.043,135500.2999999998,135506.699,139753.979,,,
Judgement,html.Screen,1_3_4_1,2022-05-11T11:34:27.577Z,,,,,,,,,,,,,,,,,,,,,,,,,,,,true,3,,405.2210000001942,,response,,,,,,,,,3,,3,click #choice-3,,,,,I,O,S,,140162.90000000037,140159.2000000002,139737.323,139739.7999999998,139753.979,140170.379,,,
Trial,flow.Sequence,1_3_4,2022-05-11T11:34:27.578Z,,,,,,,,,,,,,,,,,,,,,,,,,,,,,,,4652.501000000193,,completion,,,,,,,,,3,,,,,,,,I,O,S,,140163.40000000037,140159.2000000002,135490.043,135500.10000000056,135506.699,140170.379,,,
Sounds,html.Screen,1_3_5_0,2022-05-11T11:34:31.819Z,,,,,,,,,,,,,,,,,,,,,,,,,,,,,,,4247.280000000028,,timeout,,,,,,,,,1,,,,,,,,S,O,I,,144404.2000000002,144401.003,140153.723,140163.7000000002,140170.379,144417.659,,,
Judgement,html.Screen,1_3_5_1,2022-05-11T11:34:32.369Z,,,,,,,,,,,,,,,,,,,,,,,,,,,,true,1,,533.5410000001721,,response,,,,,,,,,1,,1,click #choice-1,,,,,S,O,I,,144955,144951.2000000002,144401.003,144404.5,144417.659,144983.963,,,
Trial,flow.Sequence,1_3_5,2022-05-11T11:34:32.370Z,,,,,,,,,,,,,,,,,,,,,,,,,,,,,,,4780.8210000002,,completion,,,,,,,,,1,,,,,,,,S,O,I,,144955.40000000037,144951.2000000002,140153.723,140163.7000000002,140170.379,144983.963,,,
Task,flow.Loop,1_3,2022-05-11T11:34:32.387Z,,,,,,,,,,,,,,,,,,,,,,,,,,,,,,,29648.22900000018,,completion,,,1,,,,,,,,,,,,,,,,,,144973,144951.2000000002,115286.315,115291.10000000056,115302.971,144983.963,,,
Trap,html.Screen,1_4,2022-05-11T11:34:32.390Z,,,,,,,,,,,,,,,,,,,,,,,,,,,,,,,NaN,,skipped,,,,,,,,,,,,,,,,,,,,,144975.2000000002,144951.2000000002,,144974.90000000037,,144983.963,,,
Thanks,html.Screen,1_5,2022-05-11T11:34:37.025Z,,,,,,,,,,,,,,,,,,,,,,,,,,,,,,,4623.237000000197,,response,,,,,,,,,,,continue,click button,,,,,,,,,149610.7999999998,149607.2000000002,144950.651,144975.5,144983.963,162722.603,,,
Headphone screening,flow.Sequence,1,2022-05-11T11:34:37.026Z,,,,,,,,,,,,,,,,,,,,,,,,,,,,,,,87286.96500000019,,completion,,,,,,,,,,,,,,,,,,,,,149611.2000000002,149607.2000000002,61720.619,61728.700000000186,62320.235,162722.603,,,
Instructions,html.Page,2_0,2022-05-11T11:35:12.731Z,,,,,,,,,,,,,,,,,,,,,,,,,,,,,,,22592.997000000556,,form submission,,,,,,,,,,,,,,,,,,,,,185316.40000000037,185315.60000000056,162572.699,162660.7000000002,162722.603,185341.451,,,
Holding screen,html.Screen,2_1_0_0,2022-05-11T11:35:22.735Z,,,,,,,,,,,,,,,,,,,,,,,,,,,,,,,10060.223999999987,,timeout,,,,,,,,,,,,,,,,,,,,,195320.2999999998,195318.395,185308.139,185317.10000000056,185341.451,195401.675,,,
screen,html.Screen,2_1_0_1_0,2022-05-11T11:35:23.904Z,,,,,,,,,,,,,,,,,53,,,,,,,,,,,,,,1078.525000000198,,response,,,,99,,,,,,,Space,keypress(Space),,,,,,,,When -- ----- -- ------ - ------- --- ----------<br>------------- ------ ------ ---- ---- ------- ----- -- ----<br>-------- ------- -- ---------- --- - --- ----- ----- ----<br>---- --- --- ----- --- ---- ---- ------- ----- ---- -------<br>--- --- -- ----- -- --- ---- -- --- ---- -- ------ ------<br>--- ----- -- ----,196489.7000000002,196480.2000000002,195318.395,195321,195401.675,196500.971,,0,When
screen,html.Screen,2_1_0_1_1,2022-05-11T11:35:24.340Z,,,,,,,,,,,,,,,,,53,,,,,,,,,,,,,,420.2290000001958,,response,,,,99,,,,,,,Space,keypress(Space),,,,,,,,---- it ----- -- ------ - ------- --- ----------<br>------------- ------ ------ ---- ---- ------- ----- -- ----<br>-------- ------- -- ---------- --- - --- ----- ----- ----<br>---- --- --- ----- --- ---- ---- ------- ----- ---- -------<br>--- --- -- ----- -- --- ---- -- --- ---- -- ------ ------<br>--- ----- -- ----,196925.5,196921.2000000002,196484.315,196490,196500.971,196934.027,,1,it
screen,html.Screen,2_1_0_1_2,2022-05-11T11:35:24.558Z,,,,,,,,,,,,,,,,,53,,,,,,,,,,,,,,205.1730000001844,,response,,,,99,,,,,,,Space,keypress(Space),,,,,,,,---- -- comes -- ------ - ------- --- ----------<br>------------- ------ ------ ---- ---- ------- ----- -- ----<br>-------- ------- -- ---------- --- - --- ----- ----- ----<br>---- --- --- ----- --- ---- ---- ------- ----- ---- -------<br>--- --- -- ----- -- --- ---- -- --- ---- -- ------ ------<br>--- ----- -- ----,197143.5,197139.2000000002,196917.371,196925.90000000037,196934.027,197150.555,,2,comes
screen,html.Screen,2_1_0_1_3,2022-05-11T11:35:24.846Z,,,,,,,,,,,,,,,,,53,,,,,,,,,,,,,,276.64500000019325,,response,,,,99,,,,,,,Space,keypress(Space),,,,,,,,---- -- ----- to ------ - ------- --- ----------<br>------------- ------ ------ ---- ---- ------- ----- -- ----<br>-------- ------- -- ---------- --- - --- ----- ----- ----<br>---- --- --- ----- --- ---- ---- ------- ----- ---- -------<br>--- --- -- ----- -- --- ---- -- --- ---- -- ------ ------<br>--- ----- -- ----,197431.60000000056,197427.2000000002,197133.899,197144,197150.555,197433.707,,3,to
screen,html.Screen,2_1_0_1_4,2022-05-11T11:35:25.124Z,,,,,,,,,,,,,,,,,53,,,,,,,,,,,,,,271.4930000001914,,response,,,,99,,,,,,,Space,keypress(Space),,,,,,,,---- -- ----- -- having - ------- --- ----------<br>------------- ------ ------ ---- ---- ------- ----- -- ----<br>-------- ------- -- ---------- --- - --- ----- ----- ----<br>---- --- --- ----- --- ---- ---- ------- ----- ---- -------<br>--- --- -- ----- -- --- ---- -- --- ---- -- ------ ------<br>--- ----- -- ----,197709.90000000037,197705.2000000002,197417.051,197431.90000000037,197433.707,197716.859,,4,having
screen,html.Screen,2_1_0_1_5,2022-05-11T11:35:25.354Z,,,,,,,,,,,,,,,,,53,,,,,,,,,,,,,,218.34100000018952,,response,,,,99,,,,,,,Space,keypress(Space),,,,,,,,---- -- ----- -- ------ a ------- --- ----------<br>------------- ------ ------ ---- ---- ------- ----- -- ----<br>-------- ------- -- ---------- --- - --- ----- ----- ----<br>---- --- --- ----- --- ---- ---- ------- ----- ---- -------<br>--- --- -- ----- -- --- ---- -- --- ---- -- ------ ------<br>--- ----- -- ----,197939.2999999998,197935.2000000002,197700.203,197710.2999999998,197716.859,197950.043,,5,a
screen,html.Screen,2_1_0_1_6,2022-05-11T11:35:25.588Z,,,,,,,,,,,,,,,,,53,,,,,,,,,,,,,,219.15700000018114,,response,,,,99,,,,,,,Space,keypress(Space),,,,,,,,---- -- ----- -- ------ - lasting --- ----------<br>------------- ------ ------ ---- ---- ------- ----- -- ----<br>-------- ------- -- ---------- --- - --- ----- ----- ----<br>---- --- --- ----- --- ---- ---- ------- ----- ---- -------<br>--- --- -- ----- -- --- ---- -- --- ---- -- ------ ------<br>--- ----- -- ----,198173.7999999998,198169.2000000002,197933.387,197939.60000000056,197950.043,198183.227,,6,lasting
screen,html.Screen,2_1_0_1_7,2022-05-11T11:35:25.832Z,,,,,,,,,,,,,,,,,53,,,,,,,,,,,,,,228.97300000017276,,response,,,,99,,,,,,,Space,keypress(Space),,,,,,,,---- -- ----- -- ------ - ------- and ----------<br>------------- ------ ------ ---- ---- ------- ----- -- ----<br>-------- ------- -- ---------- --- - --- ----- ----- ----<br>---- --- --- ----- --- ---- ---- ------- ----- ---- -------<br>--- --- -- ----- -- --- ---- -- --- ---- -- ------ ------<br>--- ----- -- ----,198417.2999999998,198412.2000000002,198166.571,198174.2000000002,198183.227,198433.067,,7,and
screen,html.Screen,2_1_0_1_8,2022-05-11T11:35:26.145Z,,,,,,,,,,,,,,,,,53,,,,,,,,,,,,,,293.13300000017625,,response,,,,99,,,,,,,Space,keypress(Space),,,,,,,,---- -- ----- -- ------ - ------- --- fulfilling<br>------------- ------ ------ ---- ---- ------- ----- -- ----<br>-------- ------- -- ---------- --- - --- ----- ----- ----<br>---- --- --- ----- --- ---- ---- ------- ----- ---- -------<br>--- --- -- ----- -- --- ---- -- --- ---- -- ------ ------<br>--- ----- -- ----,198730.40000000037,198726.2000000002,198416.411,198417.7000000002,198433.067,198732.875,,8,fulfilling
screen,html.Screen,2_1_0_1_9,2022-05-11T11:35:27.187Z,,,,,,,,,,,,,,,,,53,,,,,,,,,,,,,,1035.3250000001863,,response,,,,99,,,,,,,Space,keypress(Space),,,,,,,,"---- -- ----- -- ------ - ------- --- ----------<br>relationship, ------ ------ ---- ---- ------- ----- -- ----<br>-------- ------- -- ---------- --- - --- ----- ----- ----<br>---- --- --- ----- --- ---- ---- ------- ----- ---- -------<br>--- --- -- ----- -- --- ---- -- --- ---- -- ------ ------<br>--- ----- -- ----",199772.90000000037,199768.2000000002,198716.219,198730.7999999998,198732.875,199782.203,,9,"relationship,"
screen,html.Screen,2_1_0_1_10,2022-05-11T11:35:27.386Z,,,,,,,,,,,,,,,,,53,,,,,,,,,,,,,,183.99700000017765,,response,,,,99,,,,,,,Space,keypress(Space),,,,,,,,---- -- ----- -- ------ - ------- --- ----------<br>------------- common ------ ---- ---- ------- ----- -- ----<br>-------- ------- -- ---------- --- - --- ----- ----- ----<br>---- --- --- ----- --- ---- ---- ------- ----- ---- -------<br>--- --- -- ----- -- --- ---- -- --- ---- -- ------ ------<br>--- ----- -- ----,199971.5,199966.2000000002,199765.547,199773.2000000002,199782.203,199982.075,,10,common
screen,html.Screen,2_1_0_1_11,2022-05-11T11:35:27.589Z,,,,,,,,,,,,,,,,,53,,,,,,,,,,,,,,187.12500000017462,,response,,,,99,,,,,,,Space,keypress(Space),,,,,,,,---- -- ----- -- ------ - ------- --- ----------<br>------------- ------ wisdom ---- ---- ------- ----- -- ----<br>-------- ------- -- ---------- --- - --- ----- ----- ----<br>---- --- --- ----- --- ---- ---- ------- ----- ---- -------<br>--- --- -- ----- -- --- ---- -- --- ---- -- ------ ------<br>--- ----- -- ----,200174.40000000037,200169.2000000002,199965.419,199971.7999999998,199982.075,200181.947,,11,wisdom
screen,html.Screen,2_1_0_1_12,2022-05-11T11:35:28.632Z,,,,,,,,,,,,,,,,,53,,,,,,,,,,,,,,1032.2530000002007,,response,,,,99,,,,,,,Space,keypress(Space),,,,,,,,---- -- ----- -- ------ - ------- --- ----------<br>------------- ------ ------ says ---- ------- ----- -- ----<br>-------- ------- -- ---------- --- - --- ----- ----- ----<br>---- --- --- ----- --- ---- ---- ------- ----- ---- -------<br>--- --- -- ----- -- --- ---- -- --- ---- -- ------ ------<br>--- ----- -- ----,201217.7999999998,201214.2000000002,200165.291,200174.60000000056,200181.947,201231.275,,12,says
screen,html.Screen,2_1_0_1_13,2022-05-11T11:35:28.889Z,,,,,,,,,,,,,,,,,53,,,,,,,,,,,,,,238.92500000019209,,response,,,,99,,,,,,,Space,keypress(Space),,,,,,,,---- -- ----- -- ------ - ------- --- ----------<br>------------- ------ ------ ---- that ------- ----- -- ----<br>-------- ------- -- ---------- --- - --- ----- ----- ----<br>---- --- --- ----- --- ---- ---- ------- ----- ---- -------<br>--- --- -- ----- -- --- ---- -- --- ---- -- ------ ------<br>--- ----- -- ----,201474.7000000002,201470.2000000002,201214.619,201218.10000000056,201231.275,201481.115,,13,that
screen,html.Screen,2_1_0_1_14,2022-05-11T11:35:29.488Z,,,,,,,,,,,,,,,,,53,,,,,,,,,,,,,,588.0850000001956,,response,,,,99,,,,,,,Space,keypress(Space),,,,,,,,---- -- ----- -- ------ - ------- --- ----------<br>------------- ------ ------ ---- ---- feeling ----- -- ----<br>-------- ------- -- ---------- --- - --- ----- ----- ----<br>---- --- --- ----- --- ---- ---- ------- ----- ---- -------<br>--- --- -- ----- -- --- ---- -- --- ---- -- ------ ------<br>--- ----- -- ----,202073.7999999998,202069.2000000002,201464.459,201474.90000000037,201481.115,202080.731,,14,feeling
screen,html.Screen,2_1_0_1_15,2022-05-11T11:35:29.923Z,,,,,,,,,,,,,,,,,53,,,,,,,,,,,,,,422.4690000001865,,response,,,,99,,,,,,,Space,keypress(Space),,,,,,,,---- -- ----- -- ------ - ------- --- ----------<br>------------- ------ ------ ---- ---- ------- close -- ----<br>-------- ------- -- ---------- --- - --- ----- ----- ----<br>---- --- --- ----- --- ---- ---- ------- ----- ---- -------<br>--- --- -- ----- -- --- ---- -- --- ---- -- ------ ------<br>--- ----- -- ----,202508.40000000037,202503.2000000002,202064.075,202074.2000000002,202080.731,202513.787,,15,close
screen,html.Screen,2_1_0_1_16,2022-05-11T11:35:30.290Z,,,,,,,,,,,,,,,,,53,,,,,,,,,,,,,,357.4130000001751,,response,,,,99,,,,,,,Space,keypress(Space),,,,,,,,---- -- ----- -- ------ - ------- --- ----------<br>------------- ------ ------ ---- ---- ------- ----- to ----<br>-------- ------- -- ---------- --- - --- ----- ----- ----<br>---- --- --- ----- --- ---- ---- ------- ----- ---- -------<br>--- --- -- ----- -- --- ---- -- --- ---- -- ------ ------<br>--- ----- -- ----,202876,202871.2000000002,202497.131,202508.7999999998,202513.787,202880.219,,16,to
screen,html.Screen,2_1_0_1_17,2022-05-11T11:35:30.726Z,,,,,,,,,,,,,,,,,53,,,,,,,,,,,,,,426.9810000001744,,response,,,,99,,,,,,,Space,keypress(Space),,,,,,,,---- -- ----- -- ------ - ------- --- ----------<br>------------- ------ ------ ---- ---- ------- ----- -- your<br>-------- ------- -- ---------- --- - --- ----- ----- ----<br>---- --- --- ----- --- ---- ---- ------- ----- ---- -------<br>--- --- -- ----- -- --- ---- -- --- ---- -- ------ ------<br>--- ----- -- ----,203311.7000000002,203307.2000000002,202863.563,202876.2999999998,202880.219,203313.275,,17,your
screen,html.Screen,2_1_0_1_18,2022-05-11T11:35:31.347Z,,,,,,,,,,,,,,,,,53,,,,,,,,,,,,,,614.9250000001921,,response,,,,99,,,,,,,Space,keypress(Space),,,,,,,,---- -- ----- -- ------ - ------- --- ----------<br>------------- ------ ------ ---- ---- ------- ----- -- ----<br>romantic ------- -- ---------- --- - --- ----- ----- ----<br>---- --- --- ----- --- ---- ---- ------- ----- ---- -------<br>--- --- -- ----- -- --- ---- -- --- ---- -- ------ ------<br>--- ----- -- ----,203932.60000000056,203928.2000000002,203296.619,203311.90000000037,203313.275,203946.203,,18,romantic
screen,html.Screen,2_1_0_1_19,2022-05-11T11:35:31.851Z,,,,,,,,,,,,,,,,,53,,,,,,,,,,,,,,486.99700000017765,,response,,,,99,,,,,,,Space,keypress(Space),,,,,,,,---- -- ----- -- ------ - ------- --- ----------<br>------------- ------ ------ ---- ---- ------- ----- -- ----<br>-------- partner -- ---------- --- - --- ----- ----- ----<br>---- --- --- ----- --- ---- ---- ------- ----- ---- -------<br>--- --- -- ----- -- --- ---- -- --- ---- -- ------ ------<br>--- ----- -- ----,204436.7999999998,204433.2000000002,203929.547,203933.2000000002,203946.203,204445.883,,19,partner
screen,html.Screen,2_1_0_1_20,2022-05-11T11:35:32.397Z,,,,,,,,,,,,,,,,,53,,,,,,,,,,,,,,532.3170000001846,,response,,,,99,,,,,,,Space,keypress(Space),,,,,,,,---- -- ----- -- ------ - ------- --- ----------<br>------------- ------ ------ ---- ---- ------- ----- -- ----<br>-------- ------- is ---------- --- - --- ----- ----- ----<br>---- --- --- ----- --- ---- ---- ------- ----- ---- -------<br>--- --- -- ----- -- --- ---- -- --- ---- -- ------ ------<br>--- ----- -- ----,204982.40000000037,204978.2000000002,204429.227,204437.10000000056,204445.883,204995.531,,20,is
screen,html.Screen,2_1_0_1_21,2022-05-11T11:35:32.617Z,,,,,,,,,,,,,,,,,53,,,,,,,,,,,,,,202.66900000019814,,response,,,,99,,,,,,,Space,keypress(Space),,,,,,,,---- -- ----- -- ------ - ------- --- ----------<br>------------- ------ ------ ---- ---- ------- ----- -- ----<br>-------- ------- -- paramount. --- - --- ----- ----- ----<br>---- --- --- ----- --- ---- ---- ------- ----- ---- -------<br>--- --- -- ----- -- --- ---- -- --- ---- -- ------ ------<br>--- ----- -- ----,205202.40000000037,205198.2000000002,204978.875,204982.7999999998,204995.531,205212.059,,21,paramount.
screen,html.Screen,2_1_0_1_22,2022-05-11T11:35:33.221Z,,,,,,,,,,,,,,,,,53,,,,,,,,,,,,,,590.1410000001779,,response,,,,99,,,,,,,Space,keypress(Space),,,,,,,,---- -- ----- -- ------ - ------- --- ----------<br>------------- ------ ------ ---- ---- ------- ----- -- ----<br>-------- ------- -- ---------- But - --- ----- ----- ----<br>---- --- --- ----- --- ---- ---- ------- ----- ---- -------<br>--- --- -- ----- -- --- ---- -- --- ---- -- ------ ------<br>--- ----- -- ----,205806.40000000037,205802.2000000002,205195.403,205202.7000000002,205212.059,205811.675,,22,But
screen,html.Screen,2_1_0_1_23,2022-05-11T11:35:33.484Z,,,,,,,,,,,,,,,,,53,,,,,,,,,,,,,,254.5250000001979,,response,,,,99,,,,,,,Space,keypress(Space),,,,,,,,---- -- ----- -- ------ - ------- --- ----------<br>------------- ------ ------ ---- ---- ------- ----- -- ----<br>-------- ------- -- ---------- --- a --- ----- ----- ----<br>---- --- --- ----- --- ---- ---- ------- ----- ---- -------<br>--- --- -- ----- -- --- ---- -- --- ---- -- ------ ------<br>--- ----- -- ----,206070,206066.2000000002,205795.019,205806.7999999998,205811.675,206078.171,,23,a
screen,html.Screen,2_1_0_1_24,2022-05-11T11:35:33.704Z,,,,,,,,,,,,,,,,,53,,,,,,,,,,,,,,206.02900000018417,,response,,,,99,,,,,,,Space,keypress(Space),,,,,,,,---- -- ----- -- ------ - ------- --- ----------<br>------------- ------ ------ ---- ---- ------- ----- -- ----<br>-------- ------- -- ---------- --- - new ----- ----- ----<br>---- --- --- ----- --- ---- ---- ------- ----- ---- -------<br>--- --- -- ----- -- --- ---- -- --- ---- -- ------ ------<br>--- ----- -- ----,206289.2999999998,206284.2000000002,206061.515,206070.2999999998,206078.171,206294.699,,24,new
screen,html.Screen,2_1_0_1_25,2022-05-11T11:35:33.923Z,,,,,,,,,,,,,,,,,53,,,,,,,,,,,,,,207.50100000019302,,response,,,,99,,,,,,,Space,keypress(Space),,,,,,,,---- -- ----- -- ------ - ------- --- ----------<br>------------- ------ ------ ---- ---- ------- ----- -- ----<br>-------- ------- -- ---------- --- - --- study ----- ----<br>---- --- --- ----- --- ---- ---- ------- ----- ---- -------<br>--- --- -- ----- -- --- ---- -- --- ---- -- ------ ------<br>--- ----- -- ----,206508.40000000037,206502.2000000002,206278.043,206289.60000000056,206294.699,206511.227,,25,study
screen,html.Screen,2_1_0_1_26,2022-05-11T11:35:34.112Z,,,,,,,,,,,,,,,,,53,,,,,,,,,,,,,,180.97300000017276,,response,,,,99,,,,,,,Space,keypress(Space),,,,,,,,---- -- ----- -- ------ - ------- --- ----------<br>------------- ------ ------ ---- ---- ------- ----- -- ----<br>-------- ------- -- ---------- --- - --- ----- finds ----<br>---- --- --- ----- --- ---- ---- ------- ----- ---- -------<br>--- --- -- ----- -- --- ---- -- --- ---- -- ------ ------<br>--- ----- -- ----,206697.10000000056,206692.2000000002,206494.571,206508.60000000056,206511.227,206711.099,,26,finds
screen,html.Screen,2_1_0_1_27,2022-05-11T11:35:34.331Z,,,,,,,,,,,,,,,,,53,,,,,,,,,,,,,,200.10100000019884,,response,,,,99,,,,,,,Space,keypress(Space),,,,,,,,---- -- ----- -- ------ - ------- --- ----------<br>------------- ------ ------ ---- ---- ------- ----- -- ----<br>-------- ------- -- ---------- --- - --- ----- ----- that<br>---- --- --- ----- --- ---- ---- ------- ----- ---- -------<br>--- --- -- ----- -- --- ---- -- --- ---- -- ------ ------<br>--- ----- -- ----,206916.60000000056,206911.2000000002,206694.443,206697.7000000002,206711.099,206927.627,,27,that
screen,html.Screen,2_1_0_1_28,2022-05-11T11:35:34.962Z,,,,,,,,,,,,,,,,,53,,,,,,,,,,,,,,615.5730000001786,,response,,,,99,,,,,,,Space,keypress(Space),,,,,,,,---- -- ----- -- ------ - ------- --- ----------<br>------------- ------ ------ ---- ---- ------- ----- -- ----<br>-------- ------- -- ---------- --- - --- ----- ----- ----<br>it's --- --- ----- --- ---- ---- ------- ----- ---- -------<br>--- --- -- ----- -- --- ---- -- --- ---- -- ------ ------<br>--- ----- -- ----,207547.7000000002,207543.2000000002,206910.971,206916.90000000037,206927.627,207560.555,,28,it's
screen,html.Screen,2_1_0_1_29,2022-05-11T11:35:35.194Z,,,,,,,,,,,,,,,,,53,,,,,,,,,,,,,,214.64500000019325,,response,,,,99,,,,,,,Space,keypress(Space),,,,,,,,---- -- ----- -- ------ - ------- --- ----------<br>------------- ------ ------ ---- ---- ------- ----- -- ----<br>-------- ------- -- ---------- --- - --- ----- ----- ----<br>---- not --- ----- --- ---- ---- ------- ----- ---- -------<br>--- --- -- ----- -- --- ---- -- --- ---- -- ------ ------<br>--- ----- -- ----,207779.2000000002,207775.2000000002,207543.899,207548,207560.555,207793.739,,29,not
screen,html.Screen,2_1_0_1_30,2022-05-11T11:35:35.661Z,,,,,,,,,,,,,,,,,53,,,,,,,,,,,,,,448.46100000018487,,response,,,,99,,,,,,,Space,keypress(Space),,,,,,,,---- -- ----- -- ------ - ------- --- ----------<br>------------- ------ ------ ---- ---- ------- ----- -- ----<br>-------- ------- -- ---------- --- - --- ----- ----- ----<br>---- --- how ----- --- ---- ---- ------- ----- ---- -------<br>--- --- -- ----- -- --- ---- -- --- ---- -- ------ ------<br>--- ----- -- ----,208246.5,208242.2000000002,207777.083,207779.5,207793.739,208260.107,,30,how
screen,html.Screen,2_1_0_1_31,2022-05-11T11:35:35.875Z,,,,,,,,,,,,,,,,,53,,,,,,,,,,,,,,196.0930000001972,,response,,,,99,,,,,,,Space,keypress(Space),,,,,,,,---- -- ----- -- ------ - ------- --- ----------<br>------------- ------ ------ ---- ---- ------- ----- -- ----<br>-------- ------- -- ---------- --- - --- ----- ----- ----<br>---- --- --- close --- ---- ---- ------- ----- ---- -------<br>--- --- -- ----- -- --- ---- -- --- ---- -- ------ ------<br>--- ----- -- ----,208460.2999999998,208456.2000000002,208243.451,208246.7999999998,208260.107,208476.635,,31,close
screen,html.Screen,2_1_0_1_32,2022-05-11T11:35:36.105Z,,,,,,,,,,,,,,,,,53,,,,,,,,,,,,,,210.56500000017695,,response,,,,99,,,,,,,Space,keypress(Space),,,,,,,,---- -- ----- -- ------ - ------- --- ----------<br>------------- ------ ------ ---- ---- ------- ----- -- ----<br>-------- ------- -- ---------- --- - --- ----- ----- ----<br>---- --- --- ----- you ---- ---- ------- ----- ---- -------<br>--- --- -- ----- -- --- ---- -- --- ---- -- ------ ------<br>--- ----- -- ----,208690.2999999998,208687.2000000002,208459.979,208460.5,208476.635,208693.163,,32,you
screen,html.Screen,2_1_0_1_33,2022-05-11T11:35:36.350Z,,,,,,,,,,,,,,,,,53,,,,,,,,,,,,,,238.0370000001858,,response,,,,99,,,,,,,Space,keypress(Space),,,,,,,,---- -- ----- -- ------ - ------- --- ----------<br>------------- ------ ------ ---- ---- ------- ----- -- ----<br>-------- ------- -- ---------- --- - --- ----- ----- ----<br>---- --- --- ----- --- feel ---- ------- ----- ---- -------<br>--- --- -- ----- -- --- ---- -- --- ---- -- ------ ------<br>--- ----- -- ----,208935.60000000056,208931.2000000002,208676.507,208690.7000000002,208693.163,208943.003,,33,feel
screen,html.Screen,2_1_0_1_34,2022-05-11T11:35:36.655Z,,,,,,,,,,,,,,,,,53,,,,,,,,,,,,,,293.1970000001893,,response,,,,99,,,,,,,Space,keypress(Space),,,,,,,,---- -- ----- -- ------ - ------- --- ----------<br>------------- ------ ------ ---- ---- ------- ----- -- ----<br>-------- ------- -- ---------- --- - --- ----- ----- ----<br>---- --- --- ----- --- ---- that ------- ----- ---- -------<br>--- --- -- ----- -- --- ---- -- --- ---- -- ------ ------<br>--- ----- -- ----,209240.7999999998,209236.2000000002,208926.347,208936.2000000002,208943.003,209242.811,,34,that
screen,html.Screen,2_1_0_1_35,2022-05-11T11:35:36.904Z,,,,,,,,,,,,,,,,,53,,,,,,,,,,,,,,242.3890000001993,,response,,,,99,,,,,,,Space,keypress(Space),,,,,,,,---- -- ----- -- ------ - ------- --- ----------<br>------------- ------ ------ ---- ---- ------- ----- -- ----<br>-------- ------- -- ---------- --- - --- ----- ----- ----<br>---- --- --- ----- --- ---- ---- matters ----- ---- -------<br>--- --- -- ----- -- --- ---- -- --- ---- -- ------ ------<br>--- ----- -- ----,209489.90000000037,209485.2000000002,209226.155,209241.10000000056,209242.811,209492.651,,35,matters
screen,html.Screen,2_1_0_1_36,2022-05-11T11:35:37.475Z,,,,,,,,,,,,,,,,,53,,,,,,,,,,,,,,563.5490000001737,,response,,,,99,,,,,,,Space,keypress(Space),,,,,,,,"---- -- ----- -- ------ - ------- --- ----------<br>------------- ------ ------ ---- ---- ------- ----- -- ----<br>-------- ------- -- ---------- --- - --- ----- ----- ----<br>---- --- --- ----- --- ---- ---- ------- most, ---- -------<br>--- --- -- ----- -- --- ---- -- --- ---- -- ------ ------<br>--- ----- -- ----",210060.2999999998,210056.2000000002,209475.995,209490.2999999998,209492.651,210075.611,,36,"most,"
screen,html.Screen,2_1_0_1_37,2022-05-11T11:35:37.707Z,,,,,,,,,,,,,,,,,53,,,,,,,,,,,,,,212.58900000018184,,response,,,,99,,,,,,,Space,keypress(Space),,,,,,,,---- -- ----- -- ------ - ------- --- ----------<br>------------- ------ ------ ---- ---- ------- ----- -- ----<br>-------- ------- -- ---------- --- - --- ----- ----- ----<br>---- --- --- ----- --- ---- ---- ------- ----- it's -------<br>--- --- -- ----- -- --- ---- -- --- ---- -- ------ ------<br>--- ----- -- ----,210292.90000000037,210288.2000000002,210058.955,210060.60000000056,210075.611,210308.795,,37,it's
screen,html.Screen,2_1_0_1_38,2022-05-11T11:35:37.953Z,,,,,,,,,,,,,,,,,53,,,,,,,,,,,,,,224.40500000017346,,response,,,,99,,,,,,,Space,keypress(Space),,,,,,,,---- -- ----- -- ------ - ------- --- ----------<br>------------- ------ ------ ---- ---- ------- ----- -- ----<br>-------- ------- -- ---------- --- - --- ----- ----- ----<br>---- --- --- ----- --- ---- ---- ------- ----- ---- whether<br>--- --- -- ----- -- --- ---- -- --- ---- -- ------ ------<br>--- ----- -- ----,210538.40000000037,210533.2000000002,210292.139,210293.2000000002,210308.795,210541.979,,38,whether
screen,html.Screen,2_1_0_1_39,2022-05-11T11:35:38.475Z,,,,,,,,,,,,,,,,,53,,,,,,,,,,,,,,515.2210000001942,,response,,,,99,,,,,,,Space,keypress(Space),,,,,,,,---- -- ----- -- ------ - ------- --- ----------<br>------------- ------ ------ ---- ---- ------- ----- -- ----<br>-------- ------- -- ---------- --- - --- ----- ----- ----<br>---- --- --- ----- --- ---- ---- ------- ----- ---- -------<br>you --- -- ----- -- --- ---- -- --- ---- -- ------ ------<br>--- ----- -- ----,211060.60000000056,211057.2000000002,210525.323,210538.60000000056,210541.979,211074.971,,39,you
screen,html.Screen,2_1_0_1_40,2022-05-11T11:35:38.702Z,,,,,,,,,,,,,,,,,53,,,,,,,,,,,,,,208.2290000001958,,response,,,,99,,,,,,,Space,keypress(Space),,,,,,,,---- -- ----- -- ------ - ------- --- ----------<br>------------- ------ ------ ---- ---- ------- ----- -- ----<br>-------- ------- -- ---------- --- - --- ----- ----- ----<br>---- --- --- ----- --- ---- ---- ------- ----- ---- -------<br>--- are -- ----- -- --- ---- -- --- ---- -- ------ ------<br>--- ----- -- ----,211287.7000000002,211283.2000000002,211058.315,211060.90000000037,211074.971,211291.499,,40,are
screen,html.Screen,2_1_0_1_41,2022-05-11T11:35:38.948Z,,,,,,,,,,,,,,,,,53,,,,,,,,,,,,,,236.70100000017555,,response,,,,99,,,,,,,Space,keypress(Space),,,,,,,,---- -- ----- -- ------ - ------- --- ----------<br>------------- ------ ------ ---- ---- ------- ----- -- ----<br>-------- ------- -- ---------- --- - --- ----- ----- ----<br>---- --- --- ----- --- ---- ---- ------- ----- ---- -------<br>--- --- as ----- -- --- ---- -- --- ---- -- ------ ------<br>--- ----- -- ----,211533.40000000037,211528.2000000002,211274.843,211288,211291.499,211541.339,,41,as
screen,html.Screen,2_1_0_1_42,2022-05-11T11:35:39.156Z,,,,,,,,,,,,,,,,,53,,,,,,,,,,,,,,194.86100000017905,,response,,,,99,,,,,,,Space,keypress(Space),,,,,,,,---- -- ----- -- ------ - ------- --- ----------<br>------------- ------ ------ ---- ---- ------- ----- -- ----<br>-------- ------- -- ---------- --- - --- ----- ----- ----<br>---- --- --- ----- --- ---- ---- ------- ----- ---- -------<br>--- --- -- close -- --- ---- -- --- ---- -- ------ ------<br>--- ----- -- ----,211741.2999999998,211736.2000000002,211524.683,211533.7000000002,211541.339,211757.867,,42,close
screen,html.Screen,2_1_0_1_43,2022-05-11T11:35:39.363Z,,,,,,,,,,,,,,,,,53,,,,,,,,,,,,,,186.3330000001879,,response,,,,99,,,,,,,Space,keypress(Space),,,,,,,,---- -- ----- -- ------ - ------- --- ----------<br>------------- ------ ------ ---- ---- ------- ----- -- ----<br>-------- ------- -- ---------- --- - --- ----- ----- ----<br>---- --- --- ----- --- ---- ---- ------- ----- ---- -------<br>--- --- -- ----- as --- ---- -- --- ---- -- ------ ------<br>--- ----- -- ----,211948.90000000037,211944.2000000002,211741.211,211741.60000000056,211757.867,211957.739,,43,as
screen,html.Screen,2_1_0_1_44,2022-05-11T11:35:39.807Z,,,,,,,,,,,,,,,,,53,,,,,,,,,,,,,,429.46100000018487,,response,,,,99,,,,,,,Space,keypress(Space),,,,,,,,---- -- ----- -- ------ - ------- --- ----------<br>------------- ------ ------ ---- ---- ------- ----- -- ----<br>-------- ------- -- ---------- --- - --- ----- ----- ----<br>---- --- --- ----- --- ---- ---- ------- ----- ---- -------<br>--- --- -- ----- -- you ---- -- --- ---- -- ------ ------<br>--- ----- -- ----,212393,212387.2000000002,211941.083,211949.10000000056,211957.739,212407.451,,44,you
screen,html.Screen,2_1_0_1_45,2022-05-11T11:35:40.060Z,,,,,,,,,,,,,,,,,53,,,,,,,,,,,,,,233.74900000018533,,response,,,,99,,,,,,,Space,keypress(Space),,,,,,,,---- -- ----- -- ------ - ------- --- ----------<br>------------- ------ ------ ---- ---- ------- ----- -- ----<br>-------- ------- -- ---------- --- - --- ----- ----- ----<br>---- --- --- ----- --- ---- ---- ------- ----- ---- -------<br>--- --- -- ----- -- --- want -- --- ---- -- ------ ------<br>--- ----- -- ----,212645.2000000002,212641.2000000002,212390.795,212393.2999999998,212407.451,212657.291,,45,want
screen,html.Screen,2_1_0_1_46,2022-05-11T11:35:40.355Z,,,,,,,,,,,,,,,,,53,,,,,,,,,,,,,,278.9090000001888,,response,,,,99,,,,,,,Space,keypress(Space),,,,,,,,---- -- ----- -- ------ - ------- --- ----------<br>------------- ------ ------ ---- ---- ------- ----- -- ----<br>-------- ------- -- ---------- --- - --- ----- ----- ----<br>---- --- --- ----- --- ---- ---- ------- ----- ---- -------<br>--- --- -- ----- -- --- ---- to --- ---- -- ------ ------<br>--- ----- -- ----,212940.60000000056,212936.2000000002,212640.635,212645.60000000056,212657.291,212957.099,,46,to
screen,html.Screen,2_1_0_1_47,2022-05-11T11:35:40.728Z,,,,,,,,,,,,,,,,,53,,,,,,,,,,,,,,351.10100000019884,,response,,,,99,,,,,,,Space,keypress(Space),,,,,,,,"---- -- ----- -- ------ - ------- --- ----------<br>------------- ------ ------ ---- ---- ------- ----- -- ----<br>-------- ------- -- ---------- --- - --- ----- ----- ----<br>---- --- --- ----- --- ---- ---- ------- ----- ---- -------<br>--- --- -- ----- -- --- ---- -- be, ---- -- ------ ------<br>--- ----- -- ----",213313.2999999998,213308.2000000002,212940.443,212940.90000000037,212957.099,213323.531,,47,"be,"
screen,html.Screen,2_1_0_1_48,2022-05-11T11:35:41.580Z,,,,,,,,,,,,,,,,,53,,,,,,,,,,,,,,836.6690000001981,,response,,,,99,,,,,,,Space,keypress(Space),,,,,,,,---- -- ----- -- ------ - ------- --- ----------<br>------------- ------ ------ ---- ---- ------- ----- -- ----<br>-------- ------- -- ---------- --- - --- ----- ----- ----<br>---- --- --- ----- --- ---- ---- ------- ----- ---- -------<br>--- --- -- ----- -- --- ---- -- --- even -- ------ ------<br>--- ----- -- ----,214165.10000000056,214160.2000000002,213306.875,213313.60000000056,213323.531,214172.987,,48,even
screen,html.Screen,2_1_0_1_49,2022-05-11T11:35:41.823Z,,,,,,,,,,,,,,,,,53,,,,,,,,,,,,,,231.21300000019255,,response,,,,99,,,,,,,Space,keypress(Space),,,,,,,,---- -- ----- -- ------ - ------- --- ----------<br>------------- ------ ------ ---- ---- ------- ----- -- ----<br>-------- ------- -- ---------- --- - --- ----- ----- ----<br>---- --- --- ----- --- ---- ---- ------- ----- ---- -------<br>--- --- -- ----- -- --- ---- -- --- ---- if ------ ------<br>--- ----- -- ----,214408.5,214404.2000000002,214156.331,214165.5,214172.987,214422.827,,49,if
screen,html.Screen,2_1_0_1_50,2022-05-11T11:35:42.062Z,,,,,,,,,,,,,,,,,53,,,,,,,,,,,,,,220.37300000019604,,response,,,,99,,,,,,,Space,keypress(Space),,,,,,,,---- -- ----- -- ------ - ------- --- ----------<br>------------- ------ ------ ---- ---- ------- ----- -- ----<br>-------- ------- -- ---------- --- - --- ----- ----- ----<br>---- --- --- ----- --- ---- ---- ------- ----- ---- -------<br>--- --- -- ----- -- --- ---- -- --- ---- -- that's ------<br>--- ----- -- ----,214647.40000000037,214643.2000000002,214406.171,214408.7000000002,214422.827,214656.011,,50,that's
screen,html.Screen,2_1_0_1_51,2022-05-11T11:35:42.289Z,,,,,,,,,,,,,,,,,53,,,,,,,,,,,,,,214.18900000018766,,response,,,,99,,,,,,,Space,keypress(Space),,,,,,,,---- -- ----- -- ------ - ------- --- ----------<br>------------- ------ ------ ---- ---- ------- ----- -- ----<br>-------- ------- -- ---------- --- - --- ----- ----- ----<br>---- --- --- ----- --- ---- ---- ------- ----- ---- -------<br>--- --- -- ----- -- --- ---- -- --- ---- -- ------ really<br>--- ----- -- ----,214875,214870.2000000002,214639.355,214647.7000000002,214656.011,214889.195,,51,really
screen,html.Screen,2_1_0_1_52,2022-05-11T11:35:42.617Z,,,,,,,,,,,,,,,,,53,,,,,,,,,,,,,,308.0050000001793,,response,,,,99,,,,,,,Space,keypress(Space),,,,,,,,---- -- ----- -- ------ - ------- --- ----------<br>------------- ------ ------ ---- ---- ------- ----- -- ----<br>-------- ------- -- ---------- --- - --- ----- ----- ----<br>---- --- --- ----- --- ---- ---- ------- ----- ---- -------<br>--- --- -- ----- -- --- ---- -- --- ---- -- ------ ------<br>not ----- -- ----,215202.90000000037,215197.2000000002,214872.539,214875.40000000037,214889.195,215205.659,,52,not
screen,html.Screen,2_1_0_1_53,2022-05-11T11:35:42.863Z,,,,,,,,,,,,,,,,,53,,,,,,,,,,,,,,238.54100000017206,,response,,,,99,,,,,,,Space,keypress(Space),,,,,,,,---- -- ----- -- ------ - ------- --- ----------<br>------------- ------ ------ ---- ---- ------- ----- -- ----<br>-------- ------- -- ---------- --- - --- ----- ----- ----<br>---- --- --- ----- --- ---- ---- ------- ----- ---- -------<br>--- --- -- ----- -- --- ---- -- --- ---- -- ------ ------<br>--- close -- ----,215448.40000000037,215444.2000000002,215189.003,215203.2000000002,215205.659,215455.499,,53,close
screen,html.Screen,2_1_0_1_54,2022-05-11T11:35:43.066Z,,,,,,,,,,,,,,,,,53,,,,,,,,,,,,,,190.70100000017555,,response,,,,99,,,,,,,Space,keypress(Space),,,,,,,,---- -- ----- -- ------ - ------- --- ----------<br>------------- ------ ------ ---- ---- ------- ----- -- ----<br>-------- ------- -- ---------- --- - --- ----- ----- ----<br>---- --- --- ----- --- ---- ---- ------- ----- ---- -------<br>--- --- -- ----- -- --- ---- -- --- ---- -- ------ ------<br>--- ----- at ----,215651.2000000002,215646.2000000002,215438.843,215448.7000000002,215455.499,215655.371,,54,at
screen,html.Screen,2_1_0_1_55,2022-05-11T11:35:43.334Z,,,,,,,,,,,,,,,,,53,,,,,,,,,,,,,,260.8290000001725,,response,,,,99,,,,,,,Space,keypress(Space),,,,,,,,---- -- ----- -- ------ - ------- --- ----------<br>------------- ------ ------ ---- ---- ------- ----- -- ----<br>-------- ------- -- ---------- --- - --- ----- ----- ----<br>---- --- --- ----- --- ---- ---- ------- ----- ---- -------<br>--- --- -- ----- -- --- ---- -- --- ---- -- ------ ------<br>--- ----- -- all.,215919.2999999998,215916.2000000002,215638.715,215651.5,215655.371,215938.523,,55,all.
Item 99,flow.Loop,2_1_0_1,2022-05-11T11:35:43.334Z,,,,,,,,,,,,,,,,,,,,,,,,,,,,,,,20514.525000000198,,completion,,,,,C,,,,,,,,,,,silence,,,,,215919.7000000002,215916.2000000002,195318.395,195320.7000000002,195401.675,215938.523,,,
Question 1,html.Screen,2_1_0_2,2022-05-11T11:35:50.377Z,,,,,,,,,,,,,,,,,,,,,,,,,,,,true,FALSE,,7021.6770000002,,response,,,,99,C,,,,,,FALSE,click #choice-2,,,,silence,,,,,222962.60000000056,222960.2000000002,215905.211,215919.90000000037,215938.523,222984.011,,,
Question 2,html.Screen,2_1_0_3,2022-05-11T11:35:55.177Z,,,,,,,,,,,,,,,,,,,,,,,,,,,,false,TRUE,,4776.189000000188,,response,,,,99,C,,,,,,FALSE,click #choice-2,,,,silence,,,,,227763,227760.2000000002,222967.355,222963,222984.011,227764.283,,,
Item 99,flow.Sequence,2_1_0,2022-05-11T11:35:55.178Z,,,,,,,,,,,,,,,,,,,,,,,,,,,,,,,42418.749000000185,,completion,,,,,,,,,,,,,,,,,,,,,227763.2999999998,227760.2000000002,185308.139,185317,185341.451,227764.283,,,
Holding screen,html.Screen,2_1_1_0,2022-05-11T11:36:05.158Z,,,,,,,,,,,,,,,,,,,,,,,,,,,,,,,9993.600000000006,,timeout,,,,,,,,,,,,,,,,,,,,,237744,237741.227,227747.627,227763.60000000056,227764.283,237757.883,,,
screen,html.Screen,2_1_1_1_0,2022-05-11T11:36:06.069Z,,,,,,,,,,,,,,,,,54,,,,,,,,,,,,,,893.3170000001846,,response,,,,100,,,,,,,Space,keypress(Space),,,,,,,,At --- ---- --- ------ ----- ------- ---- -- --- ------- --<br>------- ---------- ------ -- ----- -- ----- -- ---- ------<br>--- ----- --- --- ------ -------- ----- --- ------ ----- --<br>----- ----- ---------- --- --- ------ ------ ---- -- ------<br>------- --- ------ ----- --- ---- ------- -- ---- --- --<br>------- ------,238654.90000000037,238651.2000000002,237741.227,237744.40000000037,237757.883,238657.307,,0,At
screen,html.Screen,2_1_1_1_1,2022-05-11T11:36:06.309Z,,,,,,,,,,,,,,,,,54,,,,,,,,,,,,,,233.89300000018557,,response,,,,100,,,,,,,Space,keypress(Space),,,,,,,,-- the ---- --- ------ ----- ------- ---- -- --- ------- --<br>------- ---------- ------ -- ----- -- ----- -- ---- ------<br>--- ----- --- --- ------ -------- ----- --- ------ ----- --<br>----- ----- ---------- --- --- ------ ------ ---- -- ------<br>------- --- ------ ----- --- ---- ------- -- ---- --- --<br>------- ------,238894.7000000002,238891.2000000002,238640.651,238655.2000000002,238657.307,238907.147,,1,the
screen,html.Screen,2_1_1_1_2,2022-05-11T11:36:06.580Z,,,,,,,,,,,,,,,,,54,,,,,,,,,,,,,,255.05300000018906,,response,,,,100,,,,,,,Space,keypress(Space),,,,,,,,-- --- time --- ------ ----- ------- ---- -- --- ------- --<br>------- ---------- ------ -- ----- -- ----- -- ---- ------<br>--- ----- --- --- ------ -------- ----- --- ------ ----- --<br>----- ----- ---------- --- --- ------ ------ ---- -- ------<br>------- --- ------ ----- --- ---- ------- -- ---- --- --<br>------- ------,239165.90000000037,239162.2000000002,238890.491,238894.90000000037,238907.147,239173.643,,2,time
screen,html.Screen,2_1_1_1_3,2022-05-11T11:36:06.795Z,,,,,,,,,,,,,,,,,54,,,,,,,,,,,,,,202.55700000017532,,response,,,,100,,,,,,,Space,keypress(Space),,,,,,,,-- --- ---- the ------ ----- ------- ---- -- --- ------- --<br>------- ---------- ------ -- ----- -- ----- -- ---- ------<br>--- ----- --- --- ------ -------- ----- --- ------ ----- --<br>----- ----- ---------- --- --- ------ ------ ---- -- ------<br>------- --- ------ ----- --- ---- ------- -- ---- --- --<br>------- ------,239381,239376.2000000002,239156.987,239166.2999999998,239173.643,239390.171,,3,the
screen,html.Screen,2_1_1_1_4,2022-05-11T11:36:07.001Z,,,,,,,,,,,,,,,,,54,,,,,,,,,,,,,,192.02900000018417,,response,,,,100,,,,,,,Space,keypress(Space),,,,,,,,-- --- ---- --- French ----- ------- ---- -- --- ------- --<br>------- ---------- ------ -- ----- -- ----- -- ---- ------<br>--- ----- --- --- ------ -------- ----- --- ------ ----- --<br>----- ----- ---------- --- --- ------ ------ ---- -- ------<br>------- --- ------ ----- --- ---- ------- -- ---- --- --<br>------- ------,239586.2999999998,239582.2000000002,239373.515,239381.2000000002,239390.171,239590.043,,4,French
screen,html.Screen,2_1_1_1_5,2022-05-11T11:36:07.233Z,,,,,,,,,,,,,,,,,54,,,,,,,,,,,,,,224.15700000018114,,response,,,,100,,,,,,,Space,keypress(Space),,,,,,,,-- --- ---- --- ------ crown ------- ---- -- --- ------- --<br>------- ---------- ------ -- ----- -- ----- -- ---- ------<br>--- ----- --- --- ------ -------- ----- --- ------ ----- --<br>----- ----- ---------- --- --- ------ ------ ---- -- ------<br>------- --- ------ ----- --- ---- ------- -- ---- --- --<br>------- ------,239819,239814.2000000002,239573.387,239586.7000000002,239590.043,239823.227,,5,crown
screen,html.Screen,2_1_1_1_6,2022-05-11T11:36:07.999Z,,,,,,,,,,,,,,,,,54,,,,,,,,,,,,,,756.9730000001728,,response,,,,100,,,,,,,Space,keypress(Space),,,,,,,,-- --- ---- --- ------ ----- secured ---- -- --- ------- --<br>------- ---------- ------ -- ----- -- ----- -- ---- ------<br>--- ----- --- --- ------ -------- ----- --- ------ ----- --<br>----- ----- ---------- --- --- ------ ------ ---- -- ------<br>------- --- ------ ----- --- ---- ------- -- ---- --- --<br>------- ------,240584.2999999998,240580.2000000002,239806.571,239819.2999999998,239823.227,240589.403,,6,secured
screen,html.Screen,2_1_1_1_7,2022-05-11T11:36:08.341Z,,,,,,,,,,,,,,,,,54,,,,,,,,,,,,,,333.7970000001951,,response,,,,100,,,,,,,Space,keypress(Space),,,,,,,,-- --- ---- --- ------ ----- ------- much -- --- ------- --<br>------- ---------- ------ -- ----- -- ----- -- ---- ------<br>--- ----- --- --- ------ -------- ----- --- ------ ----- --<br>----- ----- ---------- --- --- ------ ------ ---- -- ------<br>------- --- ------ ----- --- ---- ------- -- ---- --- --<br>------- ------,240927,240923.2000000002,240572.747,240584.60000000056,240589.403,240939.179,,7,much
screen,html.Screen,2_1_1_1_8,2022-05-11T11:36:08.649Z,,,,,,,,,,,,,,,,,54,,,,,,,,,,,,,,291.02100000018254,,response,,,,100,,,,,,,Space,keypress(Space),,,,,,,,-- --- ---- --- ------ ----- ------- ---- of --- ------- --<br>------- ---------- ------ -- ----- -- ----- -- ---- ------<br>--- ----- --- --- ------ -------- ----- --- ------ ----- --<br>----- ----- ---------- --- --- ------ ------ ---- -- ------<br>------- --- ------ ----- --- ---- ------- -- ---- --- --<br>------- ------,241234.40000000037,241230.2000000002,240922.523,240927.2000000002,240939.179,241238.987,,8,of
screen,html.Screen,2_1_1_1_9,2022-05-11T11:36:08.900Z,,,,,,,,,,,,,,,,,54,,,,,,,,,,,,,,242.21300000019255,,response,,,,100,,,,,,,Space,keypress(Space),,,,,,,,-- --- ---- --- ------ ----- ------- ---- -- its ------- --<br>------- ---------- ------ -- ----- -- ----- -- ---- ------<br>--- ----- --- --- ------ -------- ----- --- ------ ----- --<br>----- ----- ---------- --- --- ------ ------ ---- -- ------<br>------- --- ------ ----- --- ---- ------- -- ---- --- --<br>------- ------,241485.60000000056,241481.2000000002,241222.331,241234.7000000002,241238.987,241488.827,,9,its
screen,html.Screen,2_1_1_1_10,2022-05-11T11:36:09.242Z,,,,,,,,,,,,,,,,,54,,,,,,,,,,,,,,333.37300000019604,,response,,,,100,,,,,,,Space,keypress(Space),,,,,,,,-- --- ---- --- ------ ----- ------- ---- -- --- revenue --<br>------- ---------- ------ -- ----- -- ----- -- ---- ------<br>--- ----- --- --- ------ -------- ----- --- ------ ----- --<br>----- ----- ---------- --- --- ------ ------ ---- -- ------<br>------- --- ------ ----- --- ---- ------- -- ---- --- --<br>------- ------,241827.60000000056,241822.2000000002,241472.171,241485.90000000037,241488.827,241838.603,,10,revenue
screen,html.Screen,2_1_1_1_11,2022-05-11T11:36:09.685Z,,,,,,,,,,,,,,,,,54,,,,,,,,,,,,,,427.59700000018347,,response,,,,100,,,,,,,Space,keypress(Space),,,,,,,,-- --- ---- --- ------ ----- ------- ---- -- --- ------- by<br>------- ---------- ------ -- ----- -- ----- -- ---- ------<br>--- ----- --- --- ------ -------- ----- --- ------ ----- --<br>----- ----- ---------- --- --- ------ ------ ---- -- ------<br>------- --- ------ ----- --- ---- ------- -- ---- --- --<br>------- ------,242270.60000000056,242266.2000000002,241821.947,241827.7999999998,241838.603,242288.315,,11,by
screen,html.Screen,2_1_1_1_12,2022-05-11T11:36:10.024Z,,,,,,,,,,,,,,,,,54,,,,,,,,,,,,,,316.88500000018394,,response,,,,100,,,,,,,Space,keypress(Space),,,,,,,,-- --- ---- --- ------ ----- ------- ---- -- --- ------- --<br>issuing ---------- ------ -- ----- -- ----- -- ---- ------<br>--- ----- --- --- ------ -------- ----- --- ------ ----- --<br>----- ----- ---------- --- --- ------ ------ ---- -- ------<br>------- --- ------ ----- --- ---- ------- -- ---- --- --<br>------- ------,242609.40000000037,242605.2000000002,242271.659,242271,242288.315,242621.435,,12,issuing
screen,html.Screen,2_1_1_1_13,2022-05-11T11:36:10.308Z,,,,,,,,,,,,,,,,,54,,,,,,,,,,,,,,268.7650000001886,,response,,,,100,,,,,,,Space,keypress(Space),,,,,,,,-- --- ---- --- ------ ----- ------- ---- -- --- ------- --<br>------- government ------ -- ----- -- ----- -- ---- ------<br>--- ----- --- --- ------ -------- ----- --- ------ ----- --<br>----- ----- ---------- --- --- ------ ------ ---- -- ------<br>------- --- ------ ----- --- ---- ------- -- ---- --- --<br>------- ------,242893.2000000002,242890.2000000002,242604.779,242609.90000000037,242621.435,242904.587,,13,government
screen,html.Screen,2_1_1_1_14,2022-05-11T11:36:10.558Z,,,,,,,,,,,,,,,,,54,,,,,,,,,,,,,,234.61300000018673,,response,,,,100,,,,,,,Space,keypress(Space),,,,,,,,-- --- ---- --- ------ ----- ------- ---- -- --- ------- --<br>------- ---------- bonds. -- ----- -- ----- -- ---- ------<br>--- ----- --- --- ------ -------- ----- --- ------ ----- --<br>----- ----- ---------- --- --- ------ ------ ---- -- ------<br>------- --- ------ ----- --- ---- ------- -- ---- --- --<br>------- ------,243143.7999999998,243139.2000000002,242887.931,242893.5,242904.587,243154.427,,14,bonds.
screen,html.Screen,2_1_1_1_15,2022-05-11T11:36:10.811Z,,,,,,,,,,,,,,,,,54,,,,,,,,,,,,,,237.77300000019022,,response,,,,100,,,,,,,Space,keypress(Space),,,,,,,,-- --- ---- --- ------ ----- ------- ---- -- --- ------- --<br>------- ---------- ------ In ----- -- ----- -- ---- ------<br>--- ----- --- --- ------ -------- ----- --- ------ ----- --<br>----- ----- ---------- --- --- ------ ------ ---- -- ------<br>------- --- ------ ----- --- ---- ------- -- ---- --- --<br>------- ------,243396.7999999998,243392.2000000002,243137.771,243144,243154.427,243404.267,,15,In
screen,html.Screen,2_1_1_1_16,2022-05-11T11:36:12.672Z,,,,,,,,,,,,,,,,,54,,,,,,,,,,,,,,1848.9330000001937,,response,,,,100,,,,,,,Space,keypress(Space),,,,,,,,"-- --- ---- --- ------ ----- ------- ---- -- --- ------- --<br>------- ---------- ------ -- 1727, -- ----- -- ---- ------<br>--- ----- --- --- ------ -------- ----- --- ------ ----- --<br>----- ----- ---------- --- --- ------ ------ ---- -- ------<br>------- --- ------ ----- --- ---- ------- -- ---- --- --<br>------- ------",245257.2999999998,245253.2000000002,243387.611,243397.2000000002,243404.267,245269.739,,16,"1727,"
screen,html.Screen,2_1_1_1_17,2022-05-11T11:36:12.866Z,,,,,,,,,,,,,,,,,54,,,,,,,,,,,,,,176.46100000018487,,response,,,,100,,,,,,,Space,keypress(Space),,,,,,,,-- --- ---- --- ------ ----- ------- ---- -- --- ------- --<br>------- ---------- ------ -- ----- in ----- -- ---- ------<br>--- ----- --- --- ------ -------- ----- --- ------ ----- --<br>----- ----- ---------- --- --- ------ ------ ---- -- ------<br>------- --- ------ ----- --- ---- ------- -- ---- --- --<br>------- ------,245451.10000000056,245446.2000000002,245253.083,245257.60000000056,245269.739,245452.955,,17,in
screen,html.Screen,2_1_1_1_18,2022-05-11T11:36:13.089Z,,,,,,,,,,,,,,,,,54,,,,,,,,,,,,,,216.24500000019907,,response,,,,100,,,,,,,Space,keypress(Space),,,,,,,,-- --- ---- --- ------ ----- ------- ---- -- --- ------- --<br>------- ---------- ------ -- ----- -- order -- ---- ------<br>--- ----- --- --- ------ -------- ----- --- ------ ----- --<br>----- ----- ---------- --- --- ------ ------ ---- -- ------<br>------- --- ------ ----- --- ---- ------- -- ---- --- --<br>------- ------,245674.40000000037,245669.2000000002,245436.299,245451.5,245452.955,245686.139,,18,order
screen,html.Screen,2_1_1_1_19,2022-05-11T11:36:13.516Z,,,,,,,,,,,,,,,,,54,,,,,,,,,,,,,,411.0610000001907,,response,,,,100,,,,,,,Space,keypress(Space),,,,,,,,-- --- ---- --- ------ ----- ------- ---- -- --- ------- --<br>------- ---------- ------ -- ----- -- ----- to ---- ------<br>--- ----- --- --- ------ -------- ----- --- ------ ----- --<br>----- ----- ---------- --- --- ------ ------ ---- -- ------<br>------- --- ------ ----- --- ---- ------- -- ---- --- --<br>------- ------,246101.2999999998,246097.2000000002,245669.483,245674.60000000056,245686.139,246119.195,,19,to
screen,html.Screen,2_1_1_1_20,2022-05-11T11:36:13.723Z,,,,,,,,,,,,,,,,,54,,,,,,,,,,,,,,185.00500000017928,,response,,,,100,,,,,,,Space,keypress(Space),,,,,,,,-- --- ---- --- ------ ----- ------- ---- -- --- ------- --<br>------- ---------- ------ -- ----- -- ----- -- save ------<br>--- ----- --- --- ------ -------- ----- --- ------ ----- --<br>----- ----- ---------- --- --- ------ ------ ---- -- ------<br>------- --- ------ ----- --- ---- ------- -- ---- --- --<br>------- ------,246309,246304.2000000002,246102.539,246101.60000000056,246119.195,246319.067,,20,save
screen,html.Screen,2_1_1_1_21,2022-05-11T11:36:13.928Z,,,,,,,,,,,,,,,,,54,,,,,,,,,,,,,,190.13300000017625,,response,,,,100,,,,,,,Space,keypress(Space),,,,,,,,"-- --- ---- --- ------ ----- ------- ---- -- --- ------- --<br>------- ---------- ------ -- ----- -- ----- -- ---- money,<br>--- ----- --- --- ------ -------- ----- --- ------ ----- --<br>----- ----- ---------- --- --- ------ ------ ---- -- ------<br>------- --- ------ ----- --- ---- ------- -- ---- --- --<br>------- ------",246513.60000000056,246509.2000000002,246302.411,246309.2999999998,246319.067,246518.939,,21,"money,"
screen,html.Screen,2_1_1_1_22,2022-05-11T11:36:14.229Z,,,,,,,,,,,,,,,,,54,,,,,,,,,,,,,,291.2610000001732,,response,,,,100,,,,,,,Space,keypress(Space),,,,,,,,-- --- ---- --- ------ ----- ------- ---- -- --- ------- --<br>------- ---------- ------ -- ----- -- ----- -- ---- ------<br>the ----- --- --- ------ -------- ----- --- ------ ----- --<br>----- ----- ---------- --- --- ------ ------ ---- -- ------<br>------- --- ------ ----- --- ---- ------- -- ---- --- --<br>------- ------,246814.10000000056,246810.2000000002,246502.283,246514,246518.939,246818.747,,22,the
screen,html.Screen,2_1_1_1_23,2022-05-11T11:36:14.513Z,,,,,,,,,,,,,,,,,54,,,,,,,,,,,,,,275.45300000018324,,response,,,,100,,,,,,,Space,keypress(Space),,,,,,,,-- --- ---- --- ------ ----- ------- ---- -- --- ------- --<br>------- ---------- ------ -- ----- -- ----- -- ---- ------<br>--- state --- --- ------ -------- ----- --- ------ ----- --<br>----- ----- ---------- --- --- ------ ------ ---- -- ------<br>------- --- ------ ----- --- ---- ------- -- ---- --- --<br>------- ------,247098.60000000056,247094.2000000002,246802.091,246814.40000000037,246818.747,247101.899,,23,state
screen,html.Screen,2_1_1_1_24,2022-05-11T11:36:14.746Z,,,,,,,,,,,,,,,,,54,,,,,,,,,,,,,,224.30100000018138,,response,,,,100,,,,,,,Space,keypress(Space),,,,,,,,-- --- ---- --- ------ ----- ------- ---- -- --- ------- --<br>------- ---------- ------ -- ----- -- ----- -- ---- ------<br>--- ----- cut --- ------ -------- ----- --- ------ ----- --<br>----- ----- ---------- --- --- ------ ------ ---- -- ------<br>------- --- ------ ----- --- ---- ------- -- ---- --- --<br>------- ------,247331.40000000037,247326.2000000002,247085.243,247098.90000000037,247101.899,247335.083,,24,cut
screen,html.Screen,2_1_1_1_25,2022-05-11T11:36:14.980Z,,,,,,,,,,,,,,,,,54,,,,,,,,,,,,,,225.117000000173,,response,,,,100,,,,,,,Space,keypress(Space),,,,,,,,-- --- ---- --- ------ ----- ------- ---- -- --- ------- --<br>------- ---------- ------ -- ----- -- ----- -- ---- ------<br>--- ----- --- the ------ -------- ----- --- ------ ----- --<br>----- ----- ---------- --- --- ------ ------ ---- -- ------<br>------- --- ------ ----- --- ---- ------- -- ---- --- --<br>------- ------,247565.2000000002,247560.2000000002,247318.427,247331.7000000002,247335.083,247568.267,,25,the
screen,html.Screen,2_1_1_1_26,2022-05-11T11:36:15.234Z,,,,,,,,,,,,,,,,,54,,,,,,,,,,,,,,246.93300000019372,,response,,,,100,,,,,,,Space,keypress(Space),,,,,,,,-- --- ---- --- ------ ----- ------- ---- -- --- ------- --<br>------- ---------- ------ -- ----- -- ----- -- ---- ------<br>--- ----- --- --- bonds' -------- ----- --- ------ ----- --<br>----- ----- ---------- --- --- ------ ------ ---- -- ------<br>------- --- ------ ----- --- ---- ------- -- ---- --- --<br>------- ------,247820,247815.2000000002,247551.611,247565.60000000056,247568.267,247834.763,,26,bonds'
screen,html.Screen,2_1_1_1_27,2022-05-11T11:36:15.478Z,,,,,,,,,,,,,,,,,54,,,,,,,,,,,,,,224.43700000017998,,response,,,,100,,,,,,,Space,keypress(Space),,,,,,,,-- --- ---- --- ------ ----- ------- ---- -- --- ------- --<br>------- ---------- ------ -- ----- -- ----- -- ---- ------<br>--- ----- --- --- ------ interest ----- --- ------ ----- --<br>----- ----- ---------- --- --- ------ ------ ---- -- ------<br>------- --- ------ ----- --- ---- ------- -- ---- --- --<br>------- ------,248063.7000000002,248059.2000000002,247818.107,247820.2999999998,247834.763,248067.947,,27,interest
screen,html.Screen,2_1_1_1_28,2022-05-11T11:36:16.023Z,,,,,,,,,,,,,,,,,54,,,,,,,,,,,,,,536.2530000002007,,response,,,,100,,,,,,,Space,keypress(Space),,,,,,,,-- --- ---- --- ------ ----- ------- ---- -- --- ------- --<br>------- ---------- ------ -- ----- -- ----- -- ---- ------<br>--- ----- --- --- ------ -------- rate. --- ------ ----- --<br>----- ----- ---------- --- --- ------ ------ ---- -- ------<br>------- --- ------ ----- --- ---- ------- -- ---- --- --<br>------- ------,248608.7000000002,248604.2000000002,248051.291,248063.90000000037,248067.947,248617.595,,28,rate.
screen,html.Screen,2_1_1_1_29,2022-05-11T11:36:18.006Z,,,,,,,,,,,,,,,,,54,,,,,,,,,,,,,,1968.605000000185,,response,,,,100,,,,,,,Space,keypress(Space),,,,,,,,-- --- ---- --- ------ ----- ------- ---- -- --- ------- --<br>------- ---------- ------ -- ----- -- ----- -- ---- ------<br>--- ----- --- --- ------ -------- ----- The ------ ----- --<br>----- ----- ---------- --- --- ------ ------ ---- -- ------<br>------- --- ------ ----- --- ---- ------- -- ---- --- --<br>------- ------,250591.7000000002,250586.2000000002,248600.939,248609,248617.595,250599.659,,29,The
screen,html.Screen,2_1_1_1_30,2022-05-11T11:36:18.183Z,,,,,,,,,,,,,,,,,54,,,,,,,,,,,,,,165.54100000017206,,response,,,,100,,,,,,,Space,keypress(Space),,,,,,,,-- --- ---- --- ------ ----- ------- ---- -- --- ------- --<br>------- ---------- ------ -- ----- -- ----- -- ---- ------<br>--- ----- --- --- ------ -------- ----- --- market ----- --<br>----- ----- ---------- --- --- ------ ------ ---- -- ------<br>------- --- ------ ----- --- ---- ------- -- ---- --- --<br>------- ------,250768.7000000002,250765.2000000002,250583.003,250592,250599.659,250782.875,,30,market
screen,html.Screen,2_1_1_1_31,2022-05-11T11:36:18.542Z,,,,,,,,,,,,,,,,,54,,,,,,,,,,,,,,340.32500000018626,,response,,,,100,,,,,,,Space,keypress(Space),,,,,,,,-- --- ---- --- ------ ----- ------- ---- -- --- ------- --<br>------- ---------- ------ -- ----- -- ----- -- ---- ------<br>--- ----- --- --- ------ -------- ----- --- ------ value --<br>----- ----- ---------- --- --- ------ ------ ---- -- ------<br>------- --- ------ ----- --- ---- ------- -- ---- --- --<br>------- ------,251127.90000000037,251123.2000000002,250766.219,250768.90000000037,250782.875,251132.651,,31,value
screen,html.Screen,2_1_1_1_32,2022-05-11T11:36:18.837Z,,,,,,,,,,,,,,,,,54,,,,,,,,,,,,,,284.5490000001737,,response,,,,100,,,,,,,Space,keypress(Space),,,,,,,,-- --- ---- --- ------ ----- ------- ---- -- --- ------- --<br>------- ---------- ------ -- ----- -- ----- -- ---- ------<br>--- ----- --- --- ------ -------- ----- --- ------ ----- of<br>----- ----- ---------- --- --- ------ ------ ---- -- ------<br>------- --- ------ ----- --- ---- ------- -- ---- --- --<br>------- ------,251422.10000000056,251417.2000000002,251115.995,251128.2000000002,251132.651,251432.459,,32,of
screen,html.Screen,2_1_1_1_33,2022-05-11T11:36:19.217Z,,,,,,,,,,,,,,,,,54,,,,,,,,,,,,,,365.7410000001837,,response,,,,100,,,,,,,Space,keypress(Space),,,,,,,,-- --- ---- --- ------ ----- ------- ---- -- --- ------- --<br>------- ---------- ------ -- ----- -- ----- -- ---- ------<br>--- ----- --- --- ------ -------- ----- --- ------ ----- --<br>these ----- ---------- --- --- ------ ------ ---- -- ------<br>------- --- ------ ----- --- ---- ------- -- ---- --- --<br>------- ------,251802.40000000037,251798.2000000002,251415.803,251422.40000000037,251432.459,251815.547,,33,these
screen,html.Screen,2_1_1_1_34,2022-05-11T11:36:19.447Z,,,,,,,,,,,,,,,,,54,,,,,,,,,,,,,,212.65300000019488,,response,,,,100,,,,,,,Space,keypress(Space),,,,,,,,-- --- ---- --- ------ ----- ------- ---- -- --- ------- --<br>------- ---------- ------ -- ----- -- ----- -- ---- ------<br>--- ----- --- --- ------ -------- ----- --- ------ ----- --<br>----- bonds ---------- --- --- ------ ------ ---- -- ------<br>------- --- ------ ----- --- ---- ------- -- ---- --- --<br>------- ------,252032.5,252028.2000000002,251798.891,251802.7999999998,251815.547,252048.731,,34,bonds
screen,html.Screen,2_1_1_1_35,2022-05-11T11:36:19.658Z,,,,,,,,,,,,,,,,,54,,,,,,,,,,,,,,189.4690000001865,,response,,,,100,,,,,,,Space,keypress(Space),,,,,,,,"-- --- ---- --- ------ ----- ------- ---- -- --- ------- --<br>------- ---------- ------ -- ----- -- ----- -- ---- ------<br>--- ----- --- --- ------ -------- ----- --- ------ ----- --<br>----- ----- plummeted, --- --- ------ ------ ---- -- ------<br>------- --- ------ ----- --- ---- ------- -- ---- --- --<br>------- ------",252243.2000000002,252238.2000000002,252032.075,252032.90000000037,252048.731,252248.603,,35,"plummeted,"
screen,html.Screen,2_1_1_1_36,2022-05-11T11:36:19.862Z,,,,,,,,,,,,,,,,,54,,,,,,,,,,,,,,195.59700000018347,,response,,,,100,,,,,,,Space,keypress(Space),,,,,,,,-- --- ---- --- ------ ----- ------- ---- -- --- ------- --<br>------- ---------- ------ -- ----- -- ----- -- ---- ------<br>--- ----- --- --- ------ -------- ----- --- ------ ----- --<br>----- ----- ---------- and --- ------ ------ ---- -- ------<br>------- --- ------ ----- --- ---- ------- -- ---- --- --<br>------- ------,252447.7000000002,252444.2000000002,252231.947,252243.5,252248.603,252465.131,,36,and
screen,html.Screen,2_1_1_1_37,2022-05-11T11:36:20.712Z,,,,,,,,,,,,,,,,,54,,,,,,,,,,,,,,829.0690000001923,,response,,,,100,,,,,,,Space,keypress(Space),,,,,,,,-- --- ---- --- ------ ----- ------- ---- -- --- ------- --<br>------- ---------- ------ -- ----- -- ----- -- ---- ------<br>--- ----- --- --- ------ -------- ----- --- ------ ----- --<br>----- ----- ---------- --- the ------ ------ ---- -- ------<br>------- --- ------ ----- --- ---- ------- -- ---- --- --<br>------- ------,253298,253294.2000000002,252448.475,252447.90000000037,252465.131,253314.587,,37,the
screen,html.Screen,2_1_1_1_38,2022-05-11T11:36:21.229Z,,,,,,,,,,,,,,,,,54,,,,,,,,,,,,,,495.61300000018673,,response,,,,100,,,,,,,Space,keypress(Space),,,,,,,,-- --- ---- --- ------ ----- ------- ---- -- --- ------- --<br>------- ---------- ------ -- ----- -- ----- -- ---- ------<br>--- ----- --- --- ------ -------- ----- --- ------ ----- --<br>----- ----- ---------- --- --- market ------ ---- -- ------<br>------- --- ------ ----- --- ---- ------- -- ---- --- --<br>------- ------,253814.90000000037,253810.2000000002,253297.931,253298.40000000037,253314.587,253830.923,,38,market
screen,html.Screen,2_1_1_1_39,2022-05-11T11:36:21.454Z,,,,,,,,,,,,,,,,,54,,,,,,,,,,,,,,205.27700000017649,,response,,,,100,,,,,,,Space,keypress(Space),,,,,,,,-- --- ---- --- ------ ----- ------- ---- -- --- ------- --<br>------- ---------- ------ -- ----- -- ----- -- ---- ------<br>--- ----- --- --- ------ -------- ----- --- ------ ----- --<br>----- ----- ---------- --- --- ------ became ---- -- ------<br>------- --- ------ ----- --- ---- ------- -- ---- --- --<br>------- ------,254039.7000000002,254036.2000000002,253814.267,253815.10000000056,253830.923,254047.451,,39,became
screen,html.Screen,2_1_1_1_40,2022-05-11T11:36:21.692Z,,,,,,,,,,,,,,,,,54,,,,,,,,,,,,,,224.74900000018533,,response,,,,100,,,,,,,Space,keypress(Space),,,,,,,,-- --- ---- --- ------ ----- ------- ---- -- --- ------- --<br>------- ---------- ------ -- ----- -- ----- -- ---- ------<br>--- ----- --- --- ------ -------- ----- --- ------ ----- --<br>----- ----- ---------- --- --- ------ ------ wary -- ------<br>------- --- ------ ----- --- ---- ------- -- ---- --- --<br>------- ------,254277.2000000002,254272.2000000002,254030.795,254039.7999999998,254047.451,254280.635,,40,wary
screen,html.Screen,2_1_1_1_41,2022-05-11T11:36:22.022Z,,,,,,,,,,,,,,,,,54,,,,,,,,,,,,,,322.56500000017695,,response,,,,100,,,,,,,Space,keypress(Space),,,,,,,,-- --- ---- --- ------ ----- ------- ---- -- --- ------- --<br>------- ---------- ------ -- ----- -- ----- -- ---- ------<br>--- ----- --- --- ------ -------- ----- --- ------ ----- --<br>----- ----- ---------- --- --- ------ ------ ---- of ------<br>------- --- ------ ----- --- ---- ------- -- ---- --- --<br>------- ------,254607.2000000002,254603.2000000002,254263.979,254277.40000000037,254280.635,254613.755,,41,of
screen,html.Screen,2_1_1_1_42,2022-05-11T11:36:22.281Z,,,,,,,,,,,,,,,,,54,,,,,,,,,,,,,,249.4450000001816,,response,,,,100,,,,,,,Space,keypress(Space),,,,,,,,-- --- ---- --- ------ ----- ------- ---- -- --- ------- --<br>------- ---------- ------ -- ----- -- ----- -- ---- ------<br>--- ----- --- --- ------ -------- ----- --- ------ ----- --<br>----- ----- ---------- --- --- ------ ------ ---- -- French<br>------- --- ------ ----- --- ---- ------- -- ---- --- --<br>------- ------,254866.7999999998,254863.2000000002,254597.099,254607.5,254613.755,254880.251,,42,French
screen,html.Screen,2_1_1_1_43,2022-05-11T11:36:22.623Z,,,,,,,,,,,,,,,,,54,,,,,,,,,,,,,,324.949000000197,,response,,,,100,,,,,,,Space,keypress(Space),,,,,,,,-- --- ---- --- ------ ----- ------- ---- -- --- ------- --<br>------- ---------- ------ -- ----- -- ----- -- ---- ------<br>--- ----- --- --- ------ -------- ----- --- ------ ----- --<br>----- ----- ---------- --- --- ------ ------ ---- -- ------<br>credit. --- ------ ----- --- ---- ------- -- ---- --- --<br>------- ------,255208.90000000037,255205.2000000002,254863.595,254867,254880.251,255213.371,,43,credit.
screen,html.Screen,2_1_1_1_44,2022-05-11T11:36:23.373Z,,,,,,,,,,,,,,,,,54,,,,,,,,,,,,,,740.8290000001725,,response,,,,100,,,,,,,Space,keypress(Space),,,,,,,,-- --- ---- --- ------ ----- ------- ---- -- --- ------- --<br>------- ---------- ------ -- ----- -- ----- -- ---- ------<br>--- ----- --- --- ------ -------- ----- --- ------ ----- --<br>----- ----- ---------- --- --- ------ ------ ---- -- ------<br>------- The ------ ----- --- ---- ------- -- ---- --- --<br>------- ------,255958.2999999998,255954.2000000002,255196.715,255209.2000000002,255213.371,255962.891,,44,The
screen,html.Screen,2_1_1_1_45,2022-05-11T11:36:23.588Z,,,,,,,,,,,,,,,,,54,,,,,,,,,,,,,,205.309000000183,,response,,,,100,,,,,,,Space,keypress(Space),,,,,,,,-- --- ---- --- ------ ----- ------- ---- -- --- ------- --<br>------- ---------- ------ -- ----- -- ----- -- ---- ------<br>--- ----- --- --- ------ -------- ----- --- ------ ----- --<br>----- ----- ---------- --- --- ------ ------ ---- -- ------<br>------- --- French ----- --- ---- ------- -- ---- --- --<br>------- ------,256173.2999999998,256168.2000000002,255946.235,255958.60000000056,255962.891,256179.419,,45,French
screen,html.Screen,2_1_1_1_46,2022-05-11T11:36:23.826Z,,,,,,,,,,,,,,,,,54,,,,,,,,,,,,,,226.78100000019185,,response,,,,100,,,,,,,Space,keypress(Space),,,,,,,,-- --- ---- --- ------ ----- ------- ---- -- --- ------- --<br>------- ---------- ------ -- ----- -- ----- -- ---- ------<br>--- ----- --- --- ------ -------- ----- --- ------ ----- --<br>----- ----- ---------- --- --- ------ ------ ---- -- ------<br>------- --- ------ state --- ---- ------- -- ---- --- --<br>------- ------,256411.2000000002,256406.2000000002,256162.763,256173.60000000056,256179.419,256429.259,,46,state
screen,html.Screen,2_1_1_1_47,2022-05-11T11:36:24.085Z,,,,,,,,,,,,,,,,,54,,,,,,,,,,,,,,236.94100000019534,,response,,,,100,,,,,,,Space,keypress(Space),,,,,,,,-- --- ---- --- ------ ----- ------- ---- -- --- ------- --<br>------- ---------- ------ -- ----- -- ----- -- ---- ------<br>--- ----- --- --- ------ -------- ----- --- ------ ----- --<br>----- ----- ---------- --- --- ------ ------ ---- -- ------<br>------- --- ------ ----- was ---- ------- -- ---- --- --<br>------- ------,256670.7999999998,256666.2000000002,256412.603,256411.5,256429.259,256679.099,,47,was
screen,html.Screen,2_1_1_1_48,2022-05-11T11:36:24.878Z,,,,,,,,,,,,,,,,,54,,,,,,,,,,,,,,780.1010000001988,,response,,,,100,,,,,,,Space,keypress(Space),,,,,,,,-- --- ---- --- ------ ----- ------- ---- -- --- ------- --<br>------- ---------- ------ -- ----- -- ----- -- ---- ------<br>--- ----- --- --- ------ -------- ----- --- ------ ----- --<br>----- ----- ---------- --- --- ------ ------ ---- -- ------<br>------- --- ------ ----- --- left ------- -- ---- --- --<br>------- ------,257464,257459.2000000002,256662.443,256671.2000000002,256679.099,257478.587,,48,left
screen,html.Screen,2_1_1_1_49,2022-05-11T11:36:25.067Z,,,,,,,,,,,,,,,,,54,,,,,,,,,,,,,,168.61300000018673,,response,,,,100,,,,,,,Space,keypress(Space),,,,,,,,-- --- ---- --- ------ ----- ------- ---- -- --- ------- --<br>------- ---------- ------ -- ----- -- ----- -- ---- ------<br>--- ----- --- --- ------ -------- ----- --- ------ ----- --<br>----- ----- ---------- --- --- ------ ------ ---- -- ------<br>------- --- ------ ----- --- ---- without -- ---- --- --<br>------- ------,257652.2000000002,257647.2000000002,257461.931,257464.2999999998,257478.587,257661.803,,49,without
screen,html.Screen,2_1_1_1_50,2022-05-11T11:36:25.281Z,,,,,,,,,,,,,,,,,54,,,,,,,,,,,,,,199.39700000017183,,response,,,,100,,,,,,,Space,keypress(Space),,,,,,,,-- --- ---- --- ------ ----- ------- ---- -- --- ------- --<br>------- ---------- ------ -- ----- -- ----- -- ---- ------<br>--- ----- --- --- ------ -------- ----- --- ------ ----- --<br>----- ----- ---------- --- --- ------ ------ ---- -- ------<br>------- --- ------ ----- --- ---- ------- an ---- --- --<br>------- ------,257866.5,257861.2000000002,257645.147,257652.5,257661.803,257878.331,,50,an
screen,html.Screen,2_1_1_1_51,2022-05-11T11:36:25.601Z,,,,,,,,,,,,,,,,,54,,,,,,,,,,,,,,303.8690000001807,,response,,,,100,,,,,,,Space,keypress(Space),,,,,,,,-- --- ---- --- ------ ----- ------- ---- -- --- ------- --<br>------- ---------- ------ -- ----- -- ----- -- ---- ------<br>--- ----- --- --- ------ -------- ----- --- ------ ----- --<br>----- ----- ---------- --- --- ------ ------ ---- -- ------<br>------- --- ------ ----- --- ---- ------- -- easy --- --<br>------- ------,258186.5,258182.2000000002,257861.675,257866.7999999998,257878.331,258194.795,,51,easy
screen,html.Screen,2_1_1_1_52,2022-05-11T11:36:25.861Z,,,,,,,,,,,,,,,,,54,,,,,,,,,,,,,,246.40500000017346,,response,,,,100,,,,,,,Space,keypress(Space),,,,,,,,-- --- ---- --- ------ ----- ------- ---- -- --- ------- --<br>------- ---------- ------ -- ----- -- ----- -- ---- ------<br>--- ----- --- --- ------ -------- ----- --- ------ ----- --<br>----- ----- ---------- --- --- ------ ------ ---- -- ------<br>------- --- ------ ----- --- ---- ------- -- ---- way --<br>------- ------,258446.40000000037,258441.2000000002,258178.139,258186.7999999998,258194.795,258461.291,,52,way
screen,html.Screen,2_1_1_1_53,2022-05-11T11:36:26.192Z,,,,,,,,,,,,,,,,,54,,,,,,,,,,,,,,311.9090000001888,,response,,,,100,,,,,,,Space,keypress(Space),,,,,,,,-- --- ---- --- ------ ----- ------- ---- -- --- ------- --<br>------- ---------- ------ -- ----- -- ----- -- ---- ------<br>--- ----- --- --- ------ -------- ----- --- ------ ----- --<br>----- ----- ---------- --- --- ------ ------ ---- -- ------<br>------- --- ------ ----- --- ---- ------- -- ---- --- of<br>------- ------,258777.7000000002,258773.2000000002,258444.635,258446.7000000002,258461.291,258794.411,,53,of
screen,html.Screen,2_1_1_1_54,2022-05-11T11:36:26.601Z,,,,,,,,,,,,,,,,,54,,,,,,,,,,,,,,387.7890000001935,,response,,,,100,,,,,,,Space,keypress(Space),,,,,,,,-- --- ---- --- ------ ----- ------- ---- -- --- ------- --<br>------- ---------- ------ -- ----- -- ----- -- ---- ------<br>--- ----- --- --- ------ -------- ----- --- ------ ----- --<br>----- ----- ---------- --- --- ------ ------ ---- -- ------<br>------- --- ------ ----- --- ---- ------- -- ---- --- --<br>raising ------,259186.60000000056,259182.2000000002,258777.755,258778.10000000056,258794.411,259194.155,,54,raising
screen,html.Screen,2_1_1_1_55,2022-05-11T11:36:27.008Z,,,,,,,,,,,,,,,,,54,,,,,,,,,,,,,,395.04500000018743,,response,,,,100,,,,,,,Space,keypress(Space),,,,,,,,-- --- ---- --- ------ ----- ------- ---- -- --- ------- --<br>------- ---------- ------ -- ----- -- ----- -- ---- ------<br>--- ----- --- --- ------ -------- ----- --- ------ ----- --<br>----- ----- ---------- --- --- ------ ------ ---- -- ------<br>------- --- ------ ----- --- ---- ------- -- ---- --- --<br>------- money.,259593.10000000056,259589.2000000002,259177.499,259187,259194.155,259610.555,,55,money.
Item 100,flow.Loop,2_1_1_1,2022-05-11T11:36:27.008Z,,,,,,,,,,,,,,,,,,,,,,,,,,,,,,,21831.317000000185,,completion,,,,,C,,,,,,,,,,,silence,,,,,259593.7000000002,259589.2000000002,237741.227,237744.2999999998,237757.883,259610.555,,,
Question 1,html.Screen,2_1_1_2,2022-05-11T11:36:30.795Z,,,,,,,,,,,,,,,,,,,,,,,,,,,,true,TRUE,,3765.6450000001932,,response,,,,100,C,,,,,,TRUE,click #choice-1,,,,silence,,,,,263380.2000000002,263376.2000000002,259593.899,259594,259610.555,263391.467,,,
Question 2,html.Screen,2_1_1_3,2022-05-11T11:36:32.899Z,,,,,,,,,,,,,,,,,,,,,,,,,,,,false,FALSE,,2088.733000000182,,response,,,,100,C,,,,,,TRUE,click #choice-1,,,,silence,,,,,265484.4000000004,265480.2000000002,263374.811,263380.60000000056,263391.467,265490.123,,,
Item 100,flow.Sequence,2_1_1,2022-05-11T11:36:32.899Z,,,,,,,,,,,,,,,,,,,,,,,,,,,,,,,37715.91700000019,,completion,,,,,,,,,,,,,,,,,,,,,265485,265480.2000000002,227747.627,227763.5,227764.283,265490.123,,,
End of Practice,html.Page,2_1_2,2022-05-11T11:36:37.580Z,,,,,,,,,,,,,,,,,,,,,,,,,,,,,,,4674.277000000351,,form submission,,,,,,,,,,,,,,,,,,,,,270165.10000000056,270164.4000000004,265473.467,265485.2000000002,265490.123,270170.459,,,
Practice,flow.Sequence,2_1,2022-05-11T11:36:37.580Z,,,,,,,,,,,,,,,,,,,,,,,,,,,,,,,84822.94900000037,,completion,,,,,,,,,,,,,,,,,,,,,270165.60000000056,270164.4000000004,185308.139,185316.90000000037,185341.451,270170.459,,,
Trap_instruction,html.Page,2_2_0,2022-05-11T11:36:42.260Z,,,,,,,,,,,,,,,,,,,,,,,,,,,,,,,4673.941000000399,,form submission,,,,,,,,,,,,,,,,,,,,,274845.10000000056,274844.4000000004,270153.803,270166,270170.459,274934.075,,,
trap_trial,html.Screen,2_2_1,2022-05-11T11:36:46.204Z,,,,,,,,,,,,,,,,,,,,,,,,,,,,true,1,,3851.1250000001746,,response,,,,,,,,,,,1,click #choice-1,,,,,,,,,278789.5,278785.2000000002,274834.139,274845.5,274934.075,278798.267,,,
end of trap trial,html.Page,2_2_2,2022-05-11T11:36:49.292Z,,,,,,,,,,,,,,,,,,,,,,,,,,,,,,,3079.032999999821,,form submission,,,,,,,,,,,,,,,,,,,,,281877.7999999998,281877.2999999998,278781.611,278789.9000000004,278798.267,281879.627,,,
Trap 1,flow.Sequence,2_2,2022-05-11T11:36:49.293Z,,,,,,,,,,,,,,,,,,,,,,,,,,,,,,,11706.84099999984,,completion,,,,,,,,,,,,,,,,,,,,,281878.2999999998,281877.2999999998,270153.803,270165.9000000004,270170.459,281879.627,,,
Standby,html.Page,2_3_0,2022-05-11T11:36:57.274Z,,,,,,,,,,,,,,,,,,,,,,,,,,,,,,,7994.880000000005,,timeout,,,,,,,,,,,,,,,,,,,,,289859.4000000004,289857.851,281862.971,281878.5,281879.627,289874.507,,,
Holding screen,html.Screen,2_3_1_0_0,2022-05-11T11:37:04.270Z,,,,,,,,,,,,,,,,,,,,,,,,,,,,,,,6995.520000000019,,timeout,,,,,,,,,,,,,,,,,,,,,296855.60000000056,296853.371,289857.851,289859.9000000004,289874.507,296870.027,,,
screen,html.Screen,2_3_1_0_1_0,2022-05-11T11:37:05.214Z,,,,,,,,,,,,,,,,,12,,,,,,,,,,,,,,924.1730000001844,,response,,,,5,C,,,,,,Space,keypress(Space),,,,instrumental,,,,Some ------ ------ ------- ------ --- ------- -----------<br>-- ----- --- ---- -- --- ------ ---- - ---- -- ----------<br>-- ------ ---- --- ---- --- --- --- ----- -- -------- ---<br>------ ------- -------- --- ---- -- ------- ------------ --<br>------ -- ---- -- --- ---- -- -------- -- --- ------ ------,297799.60000000056,297794.2000000002,296853.371,296855.9000000004,296870.027,297802.763,,0,Some
screen,html.Screen,2_3_1_0_1_1,2022-05-11T11:37:05.418Z,,,,,,,,,,,,,,,,,12,,,,,,,,,,,,,,196.43700000020908,,response,,,,5,C,,,,,,Space,keypress(Space),,,,instrumental,,,,---- months ------ ------- ------ --- ------- -----------<br>-- ----- --- ---- -- --- ------ ---- - ---- -- ----------<br>-- ------ ---- --- ---- --- --- --- ----- -- -------- ---<br>------ ------- -------- --- ---- -- ------- ------------ --<br>------ -- ---- -- --- ---- -- -------- -- --- ------ ------,298004,297999.2000000002,297786.107,297799.7999999998,297802.763,298019.291,,1,months
screen,html.Screen,2_3_1_0_1_2,2022-05-11T11:37:06.424Z,,,,,,,,,,,,,,,,,12,,,,,,,,,,,,,,986.9090000001597,,response,,,,5,C,,,,,,Space,keypress(Space),,,,instrumental,,,,"---- ------ later, ------- ------ --- ------- -----------<br>-- ----- --- ---- -- --- ------ ---- - ---- -- ----------<br>-- ------ ---- --- ---- --- --- --- ----- -- -------- ---<br>------ ------- -------- --- ---- -- ------- ------------ --<br>------ -- ---- -- --- ---- -- -------- -- --- ------ ------",299009.5,299006.2000000002,298002.635,298004.60000000056,298019.291,299018.651,,2,"later,"
screen,html.Screen,2_3_1_0_1_3,2022-05-11T11:37:06.954Z,,,,,,,,,,,,,,,,,12,,,,,,,,,,,,,,517.5490000001737,,response,,,,5,C,,,,,,Space,keypress(Space),,,,instrumental,,,,---- ------ ------ Michael ------ --- ------- -----------<br>-- ----- --- ---- -- --- ------ ---- - ---- -- ----------<br>-- ------ ---- --- ---- --- --- --- ----- -- -------- ---<br>------ ------- -------- --- ---- -- ------- ------------ --<br>------ -- ---- -- --- ---- -- -------- -- --- ------ ------,299539.7999999998,299536.2000000002,299001.995,299009.9000000004,299018.651,299551.643,,3,Michael
screen,html.Screen,2_3_1_0_1_4,2022-05-11T11:37:07.302Z,,,,,,,,,,,,,,,,,12,,,,,,,,,,,,,,331.5570000002044,,response,,,,5,C,,,,,,Space,keypress(Space),,,,instrumental,,,,---- ------ ------ ------- Larson --- ------- -----------<br>-- ----- --- ---- -- --- ------ ---- - ---- -- ----------<br>-- ------ ---- --- ---- --- --- --- ----- -- -------- ---<br>------ ------- -------- --- ---- -- ------- ------------ --<br>------ -- ---- -- --- ---- -- -------- -- --- ------ ------,299887.2999999998,299883.2000000002,299534.987,299540.10000000056,299551.643,299901.419,,4,Larson
screen,html.Screen,2_3_1_0_1_5,2022-05-11T11:37:07.688Z,,,,,,,,,,,,,,,,,12,,,,,,,,,,,,,,367.78100000019185,,response,,,,5,C,,,,,,Space,keypress(Space),,,,instrumental,,,,---- ------ ------ ------- ------ saw ------- -----------<br>-- ----- --- ---- -- --- ------ ---- - ---- -- ----------<br>-- ------ ---- --- ---- --- --- --- ----- -- -------- ---<br>------ ------- -------- --- ---- -- ------- ------------ --<br>------ -- ---- -- --- ---- -- -------- -- --- ------ ------,300273.2999999998,300269.2000000002,299884.763,299887.60000000056,299901.419,300284.507,,5,saw
screen,html.Screen,2_3_1_0_1_6,2022-05-11T11:37:08.002Z,,,,,,,,,,,,,,,,,12,,,,,,,,,,,,,,298.693000000203,,response,,,,5,C,,,,,,Space,keypress(Space),,,,instrumental,,,,---- ------ ------ ------- ------ --- another -----------<br>-- ----- --- ---- -- --- ------ ---- - ---- -- ----------<br>-- ------ ---- --- ---- --- --- --- ----- -- -------- ---<br>------ ------- -------- --- ---- -- ------- ------------ --<br>------ -- ---- -- --- ---- -- -------- -- --- ------ ------,300587.10000000056,300583.2000000002,300267.851,300273.7000000002,300284.507,300600.971,,6,another
screen,html.Screen,2_3_1_0_1_7,2022-05-11T11:37:08.419Z,,,,,,,,,,,,,,,,,12,,,,,,,,,,,,,,400.2290000001667,,response,,,,5,C,,,,,,Space,keypress(Space),,,,instrumental,,,,---- ------ ------ ------- ------ --- ------- opportunity<br>-- ----- --- ---- -- --- ------ ---- - ---- -- ----------<br>-- ------ ---- --- ---- --- --- --- ----- -- -------- ---<br>------ ------- -------- --- ---- -- ------- ------------ --<br>------ -- ---- -- --- ---- -- -------- -- --- ------ ------,301004.4000000004,301001.2000000002,300584.315,300587.5,300600.971,301017.371,,7,opportunity
screen,html.Screen,2_3_1_0_1_8,2022-05-11T11:37:08.816Z,,,,,,,,,,,,,,,,,12,,,,,,,,,,,,,,379.82900000020163,,response,,,,5,C,,,,,,Space,keypress(Space),,,,instrumental,,,,---- ------ ------ ------- ------ --- ------- -----------<br>to ----- --- ---- -- --- ------ ---- - ---- -- ----------<br>-- ------ ---- --- ---- --- --- --- ----- -- -------- ---<br>------ ------- -------- --- ---- -- ------- ------------ --<br>------ -- ---- -- --- ---- -- -------- -- --- ------ ------,301401.5,301397.2000000002,301000.715,301004.7000000002,301017.371,301417.115,,8,to
screen,html.Screen,2_3_1_0_1_9,2022-05-11T11:37:09.082Z,,,,,,,,,,,,,,,,,12,,,,,,,,,,,,,,245.08500000019558,,response,,,,5,C,,,,,,Space,keypress(Space),,,,instrumental,,,,---- ------ ------ ------- ------ --- ------- -----------<br>-- stack --- ---- -- --- ------ ---- - ---- -- ----------<br>-- ------ ---- --- ---- --- --- --- ----- -- -------- ---<br>------ ------- -------- --- ---- -- ------- ------------ --<br>------ -- ---- -- --- ---- -- -------- -- --- ------ ------,301667.2999999998,301662.2000000002,301400.459,301401.9000000004,301417.115,301683.611,,9,stack
screen,html.Screen,2_3_1_0_1_10,2022-05-11T11:37:09.436Z,,,,,,,,,,,,,,,,,12,,,,,,,,,,,,,,332.58900000021094,,response,,,,5,C,,,,,,Space,keypress(Space),,,,instrumental,,,,---- ------ ------ ------- ------ --- ------- -----------<br>-- ----- the ---- -- --- ------ ---- - ---- -- ----------<br>-- ------ ---- --- ---- --- --- --- ----- -- -------- ---<br>------ ------- -------- --- ---- -- ------- ------------ --<br>------ -- ---- -- --- ---- -- -------- -- --- ------ ------,302021.4000000004,302016.2000000002,301666.955,301667.7000000002,301683.611,302033.387,,10,the
screen,html.Screen,2_3_1_0_1_11,2022-05-11T11:37:10.196Z,,,,,,,,,,,,,,,,,12,,,,,,,,,,,,,,743.8130000001984,,response,,,,5,C,,,,,,Space,keypress(Space),,,,instrumental,,,,---- ------ ------ ------- ------ --- ------- -----------<br>-- ----- --- odds -- --- ------ ---- - ---- -- ----------<br>-- ------ ---- --- ---- --- --- --- ----- -- -------- ---<br>------ ------- -------- --- ---- -- ------- ------------ --<br>------ -- ---- -- --- ---- -- -------- -- --- ------ ------,302781.2999999998,302777.2000000002,302016.731,302021.7000000002,302033.387,302782.907,,11,odds
screen,html.Screen,2_3_1_0_1_12,2022-05-11T11:37:10.672Z,,,,,,,,,,,,,,,,,12,,,,,,,,,,,,,,469.29300000017975,,response,,,,5,C,,,,,,Space,keypress(Space),,,,instrumental,,,,---- ------ ------ ------- ------ --- ------- -----------<br>-- ----- --- ---- in --- ------ ---- - ---- -- ----------<br>-- ------ ---- --- ---- --- --- --- ----- -- -------- ---<br>------ ------- -------- --- ---- -- ------- ------------ --<br>------ -- ---- -- --- ---- -- -------- -- --- ------ ------,303257.10000000056,303252.2000000002,302766.251,302781.7999999998,302782.907,303265.931,,12,in
screen,html.Screen,2_3_1_0_1_13,2022-05-11T11:37:11.002Z,,,,,,,,,,,,,,,,,12,,,,,,,,,,,,,,317.26900000020396,,response,,,,5,C,,,,,,Space,keypress(Space),,,,instrumental,,,,---- ------ ------ ------- ------ --- ------- -----------<br>-- ----- --- ---- -- his ------ ---- - ---- -- ----------<br>-- ------ ---- --- ---- --- --- --- ----- -- -------- ---<br>------ ------- -------- --- ---- -- ------- ------------ --<br>------ -- ---- -- --- ---- -- -------- -- --- ------ ------,303587.7000000002,303583.2000000002,303249.275,303257.60000000056,303265.931,303599.051,,13,his
screen,html.Screen,2_3_1_0_1_14,2022-05-11T11:37:12.035Z,,,,,,,,,,,,,,,,,12,,,,,,,,,,,,,,1017.1490000002086,,response,,,,5,C,,,,,,Space,keypress(Space),,,,instrumental,,,,---- ------ ------ ------- ------ --- ------- -----------<br>-- ----- --- ---- -- --- favour ---- - ---- -- ----------<br>-- ------ ---- --- ---- --- --- --- ----- -- -------- ---<br>------ ------- -------- --- ---- -- ------- ------------ --<br>------ -- ---- -- --- ---- -- -------- -- --- ------ ------,304620.7000000002,304616.2000000002,303582.395,303588.10000000056,303599.051,304631.723,,14,favour
screen,html.Screen,2_3_1_0_1_15,2022-05-11T11:37:12.388Z,,,,,,,,,,,,,,,,,12,,,,,,,,,,,,,,337.4770000001881,,response,,,,5,C,,,,,,Space,keypress(Space),,,,instrumental,,,,---- ------ ------ ------- ------ --- ------- -----------<br>-- ----- --- ---- -- --- ------ with - ---- -- ----------<br>-- ------ ---- --- ---- --- --- --- ----- -- -------- ---<br>------ ------- -------- --- ---- -- ------- ------------ --<br>------ -- ---- -- --- ---- -- -------- -- --- ------ ------,304973.7999999998,304969.2000000002,304615.067,304621.2000000002,304631.723,304981.499,,15,with
screen,html.Screen,2_3_1_0_1_16,2022-05-11T11:37:12.808Z,,,,,,,,,,,,,,,,,12,,,,,,,,,,,,,,408.70100000017555,,response,,,,5,C,,,,,,Space,keypress(Space),,,,instrumental,,,,---- ------ ------ ------- ------ --- ------- -----------<br>-- ----- --- ---- -- --- ------ ---- a ---- -- ----------<br>-- ------ ---- --- ---- --- --- --- ----- -- -------- ---<br>------ ------- -------- --- ---- -- ------- ------------ --<br>------ -- ---- -- --- ---- -- -------- -- --- ------ ------,305394,305390.2000000002,304964.843,304974.2000000002,304981.499,305397.899,,16,a
screen,html.Screen,2_3_1_0_1_17,2022-05-11T11:37:13.027Z,,,,,,,,,,,,,,,,,12,,,,,,,,,,,,,,210.30100000021048,,response,,,,5,C,,,,,,Space,keypress(Space),,,,instrumental,,,,---- ------ ------ ------- ------ --- ------- -----------<br>-- ----- --- ---- -- --- ------ ---- - dash -- ----------<br>-- ------ ---- --- ---- --- --- --- ----- -- -------- ---<br>------ ------- -------- --- ---- -- ------- ------------ --<br>------ -- ---- -- --- ---- -- -------- -- --- ------ ------,305612.7999999998,305608.2000000002,305381.243,305394.2999999998,305397.899,305614.427,,17,dash
screen,html.Screen,2_3_1_0_1_18,2022-05-11T11:37:13.253Z,,,,,,,,,,,,,,,,,12,,,,,,,,,,,,,,219.77300000016112,,response,,,,5,C,,,,,,Space,keypress(Space),,,,instrumental,,,,---- ------ ------ ------- ------ --- ------- -----------<br>-- ----- --- ---- -- --- ------ ---- - ---- of ----------<br>-- ------ ---- --- ---- --- --- --- ----- -- -------- ---<br>------ ------- -------- --- ---- -- ------- ------------ --<br>------ -- ---- -- --- ---- -- -------- -- --- ------ ------,305838.9000000004,305834.2000000002,305597.771,305613.10000000056,305614.427,305847.611,,18,of
screen,html.Screen,2_3_1_0_1_19,2022-05-11T11:37:13.767Z,,,,,,,,,,,,,,,,,12,,,,,,,,,,,,,,500.58900000021094,,response,,,,5,C,,,,,,Space,keypress(Space),,,,instrumental,,,,---- ------ ------ ------- ------ --- ------- -----------<br>-- ----- --- ---- -- --- ------ ---- - ---- -- ingenuity.<br>-- ------ ---- --- ---- --- --- --- ----- -- -------- ---<br>------ ------- -------- --- ---- -- ------- ------------ --<br>------ -- ---- -- --- ---- -- -------- -- --- ------ ------,306352.7999999998,306348.2000000002,305830.955,305839.2000000002,305847.611,306363.947,,19,ingenuity.
screen,html.Screen,2_3_1_0_1_20,2022-05-11T11:37:14.171Z,,,,,,,,,,,,,,,,,12,,,,,,,,,,,,,,388.2530000002007,,response,,,,5,C,,,,,,Space,keypress(Space),,,,instrumental,,,,---- ------ ------ ------- ------ --- ------- -----------<br>-- ----- --- ---- -- --- ------ ---- - ---- -- ----------<br>He ------ ---- --- ---- --- --- --- ----- -- -------- ---<br>------ ------- -------- --- ---- -- ------- ------------ --<br>------ -- ---- -- --- ---- -- -------- -- --- ------ ------,306756.9000000004,306752.2000000002,306347.291,306353.10000000056,306363.947,306763.691,,20,He
screen,html.Screen,2_3_1_0_1_21,2022-05-11T11:37:14.474Z,,,,,,,,,,,,,,,,,12,,,,,,,,,,,,,,291.50900000019465,,response,,,,5,C,,,,,,Space,keypress(Space),,,,instrumental,,,,---- ------ ------ ------- ------ --- ------- -----------<br>-- ----- --- ---- -- --- ------ ---- - ---- -- ----------<br>-- walked ---- --- ---- --- --- --- ----- -- -------- ---<br>------ ------- -------- --- ---- -- ------- ------------ --<br>------ -- ---- -- --- ---- -- -------- -- --- ------ ------,307059.60000000056,307055.2000000002,306747.035,306757.2000000002,306763.691,307063.499,,21,walked
screen,html.Screen,2_3_1_0_1_22,2022-05-11T11:37:14.794Z,,,,,,,,,,,,,,,,,12,,,,,,,,,,,,,,311.70100000017555,,response,,,,5,C,,,,,,Space,keypress(Space),,,,instrumental,,,,---- ------ ------ ------- ------ --- ------- -----------<br>-- ----- --- ---- -- --- ------ ---- - ---- -- ----------<br>-- ------ into --- ---- --- --- --- ----- -- -------- ---<br>------ ------- -------- --- ---- -- ------- ------------ --<br>------ -- ---- -- --- ---- -- -------- -- --- ------ ------,307379.2999999998,307375.2000000002,307046.843,307059.9000000004,307063.499,307396.619,,22,into
screen,html.Screen,2_3_1_0_1_23,2022-05-11T11:37:15.131Z,,,,,,,,,,,,,,,,,12,,,,,,,,,,,,,,315.5810000001802,,response,,,,5,C,,,,,,Space,keypress(Space),,,,instrumental,,,,---- ------ ------ ------- ------ --- ------- -----------<br>-- ----- --- ---- -- --- ------ ---- - ---- -- ----------<br>-- ------ ---- his ---- --- --- --- ----- -- -------- ---<br>------ ------- -------- --- ---- -- ------- ------------ --<br>------ -- ---- -- --- ---- -- -------- -- --- ------ ------,307716.7999999998,307712.2000000002,307379.963,307379.60000000056,307396.619,307729.739,,23,his
screen,html.Screen,2_3_1_0_1_24,2022-05-11T11:37:15.446Z,,,,,,,,,,,,,,,,,12,,,,,,,,,,,,,,296.46100000018487,,response,,,,5,C,,,,,,Space,keypress(Space),,,,instrumental,,,,---- ------ ------ ------- ------ --- ------- -----------<br>-- ----- --- ---- -- --- ------ ---- - ---- -- ----------<br>-- ------ ---- --- bank --- --- --- ----- -- -------- ---<br>------ ------- -------- --- ---- -- ------- ------------ --<br>------ -- ---- -- --- ---- -- -------- -- --- ------ ------,308031.2999999998,308026.2000000002,307713.083,307717.10000000056,307729.739,308046.203,,24,bank
screen,html.Screen,2_3_1_0_1_25,2022-05-11T11:37:15.929Z,,,,,,,,,,,,,,,,,12,,,,,,,,,,,,,,462.99700000020675,,response,,,,5,C,,,,,,Space,keypress(Space),,,,instrumental,,,,---- ------ ------ ------- ------ --- ------- -----------<br>-- ----- --- ---- -- --- ------ ---- - ---- -- ----------<br>-- ------ ---- --- ---- one --- --- ----- -- -------- ---<br>------ ------- -------- --- ---- -- ------- ------------ --<br>------ -- ---- -- --- ---- -- -------- -- --- ------ ------,308515,308509.2000000002,308029.547,308031.60000000056,308046.203,308529.227,,25,one
screen,html.Screen,2_3_1_0_1_26,2022-05-11T11:37:16.136Z,,,,,,,,,,,,,,,,,12,,,,,,,,,,,,,,187.97300000017276,,response,,,,5,C,,,,,,Space,keypress(Space),,,,instrumental,,,,---- ------ ------ ------- ------ --- ------- -----------<br>-- ----- --- ---- -- --- ------ ---- - ---- -- ----------<br>-- ------ ---- --- ---- --- day --- ----- -- -------- ---<br>------ ------- -------- --- ---- -- ------- ------------ --<br>------ -- ---- -- --- ---- -- -------- -- --- ------ ------,308721.60000000056,308717.2000000002,308512.571,308515.2999999998,308529.227,308729.099,,26,day
screen,html.Screen,2_3_1_0_1_27,2022-05-11T11:37:16.320Z,,,,,,,,,,,,,,,,,12,,,,,,,,,,,,,,172.10100000019884,,response,,,,5,C,,,,,,Space,keypress(Space),,,,instrumental,,,,---- ------ ------ ------- ------ --- ------- -----------<br>-- ----- --- ---- -- --- ------ ---- - ---- -- ----------<br>-- ------ ---- --- ---- --- --- and ----- -- -------- ---<br>------ ------- -------- --- ---- -- ------- ------------ --<br>------ -- ---- -- --- ---- -- -------- -- --- ------ ------,308905.7000000002,308901.2000000002,308712.443,308721.7999999998,308729.099,308912.315,,27,and
screen,html.Screen,2_3_1_0_1_28,2022-05-11T11:37:16.706Z,,,,,,,,,,,,,,,,,12,,,,,,,,,,,,,,374.88500000018394,,response,,,,5,C,,,,,,Space,keypress(Space),,,,instrumental,,,,---- ------ ------ ------- ------ --- ------- -----------<br>-- ----- --- ---- -- --- ------ ---- - ---- -- ----------<br>-- ------ ---- --- ---- --- --- --- asked -- -------- ---<br>------ ------- -------- --- ---- -- ------- ------------ --<br>------ -- ---- -- --- ---- -- -------- -- --- ------ ------,309291.4000000004,309287.2000000002,308895.659,308906.10000000056,308912.315,309295.403,,28,asked
screen,html.Screen,2_3_1_0_1_29,2022-05-11T11:37:16.911Z,,,,,,,,,,,,,,,,,12,,,,,,,,,,,,,,196.7970000001951,,response,,,,5,C,,,,,,Space,keypress(Space),,,,instrumental,,,,---- ------ ------ ------- ------ --- ------- -----------<br>-- ----- --- ---- -- --- ------ ---- - ---- -- ----------<br>-- ------ ---- --- ---- --- --- --- ----- to -------- ---<br>------ ------- -------- --- ---- -- ------- ------------ --<br>------ -- ---- -- --- ---- -- -------- -- --- ------ ------,309496.2999999998,309492.2000000002,309278.747,309291.7000000002,309295.403,309511.931,,29,to
screen,html.Screen,2_3_1_0_1_30,2022-05-11T11:37:17.157Z,,,,,,,,,,,,,,,,,12,,,,,,,,,,,,,,225.26900000020396,,response,,,,5,C,,,,,,Space,keypress(Space),,,,instrumental,,,,---- ------ ------ ------- ------ --- ------- -----------<br>-- ----- --- ---- -- --- ------ ---- - ---- -- ----------<br>-- ------ ---- --- ---- --- --- --- ----- -- withdraw ---<br>------ ------- -------- --- ---- -- ------- ------------ --<br>------ -- ---- -- --- ---- -- -------- -- --- ------ ------,309742.4000000004,309737.2000000002,309495.275,309498.2000000002,309511.931,309745.115,,30,withdraw
screen,html.Screen,2_3_1_0_1_31,2022-05-11T11:37:17.499Z,,,,,,,,,,,,,,,,,12,,,,,,,,,,,,,,335.0850000001956,,response,,,,5,C,,,,,,Space,keypress(Space),,,,instrumental,,,,---- ------ ------ ------- ------ --- ------- -----------<br>-- ----- --- ---- -- --- ------ ---- - ---- -- ----------<br>-- ------ ---- --- ---- --- --- --- ----- -- -------- his<br>------ ------- -------- --- ---- -- ------- ------------ --<br>------ -- ---- -- --- ---- -- -------- -- --- ------ ------,310084.7000000002,310080.2000000002,309728.459,309742.7000000002,309745.115,310094.891,,31,his
screen,html.Screen,2_3_1_0_1_32,2022-05-11T11:37:17.994Z,,,,,,,,,,,,,,,,,12,,,,,,,,,,,,,,480.309000000183,,response,,,,5,C,,,,,,Space,keypress(Space),,,,instrumental,,,,---- ------ ------ ------- ------ --- ------- -----------<br>-- ----- --- ---- -- --- ------ ---- - ---- -- ----------<br>-- ------ ---- --- ---- --- --- --- ----- -- -------- ---<br>entire ------- -------- --- ---- -- ------- ------------ --<br>------ -- ---- -- --- ---- -- -------- -- --- ------ ------,310579.7999999998,310575.2000000002,310078.235,310085.10000000056,310094.891,310594.571,,32,entire
screen,html.Screen,2_3_1_0_1_33,2022-05-11T11:37:18.196Z,,,,,,,,,,,,,,,,,12,,,,,,,,,,,,,,181.62900000019,,response,,,,5,C,,,,,,Space,keypress(Space),,,,instrumental,,,,---- ------ ------ ------- ------ --- ------- -----------<br>-- ----- --- ---- -- --- ------ ---- - ---- -- ----------<br>-- ------ ---- --- ---- --- --- --- ----- -- -------- ---<br>------ account -------- --- ---- -- ------- ------------ --<br>------ -- ---- -- --- ---- -- -------- -- --- ------ ------,310781.2000000002,310776.2000000002,310577.915,310580,310594.571,310794.443,,33,account
screen,html.Screen,2_3_1_0_1_34,2022-05-11T11:37:18.418Z,,,,,,,,,,,,,,,,,12,,,,,,,,,,,,,,204.75700000015786,,response,,,,5,C,,,,,,Space,keypress(Space),,,,instrumental,,,,"---- ------ ------ ------- ------ --- ------- -----------<br>-- ----- --- ---- -- --- ------ ---- - ---- -- ----------<br>-- ------ ---- --- ---- --- --- --- ----- -- -------- ---<br>------ ------- balance, --- ---- -- ------- ------------ --<br>------ -- ---- -- --- ---- -- -------- -- --- ------ ------",311003.2000000002,310999.2000000002,310777.787,310781.5,310794.443,311010.971,,34,"balance,"
screen,html.Screen,2_3_1_0_1_35,2022-05-11T11:37:19.224Z,,,,,,,,,,,,,,,,,12,,,,,,,,,,,,,,794.2290000001667,,response,,,,5,C,,,,,,Space,keypress(Space),,,,instrumental,,,,---- ------ ------ ------- ------ --- ------- -----------<br>-- ----- --- ---- -- --- ------ ---- - ---- -- ----------<br>-- ------ ---- --- ---- --- --- --- ----- -- -------- ---<br>------ ------- -------- but ---- -- ------- ------------ --<br>------ -- ---- -- --- ---- -- -------- -- --- ------ ------,311809.7999999998,311805.2000000002,310994.315,311003.60000000056,311010.971,311827.115,,35,but
screen,html.Screen,2_3_1_0_1_36,2022-05-11T11:37:19.392Z,,,,,,,,,,,,,,,,,12,,,,,,,,,,,,,,145.08500000019558,,response,,,,5,C,,,,,,Space,keypress(Space),,,,instrumental,,,,---- ------ ------ ------- ------ --- ------- -----------<br>-- ----- --- ---- -- --- ------ ---- - ---- -- ----------<br>-- ------ ---- --- ---- --- --- --- ----- -- -------- ---<br>------ ------- -------- --- with -- ------- ------------ --<br>------ -- ---- -- --- ---- -- -------- -- --- ------ ------,311977.7000000002,311972.2000000002,311810.459,311810.10000000056,311827.115,311993.675,,36,with
screen,html.Screen,2_3_1_0_1_37,2022-05-11T11:37:19.582Z,,,,,,,,,,,,,,,,,12,,,,,,,,,,,,,,169.5250000001979,,response,,,,5,C,,,,,,Space,keypress(Space),,,,instrumental,,,,---- ------ ------ ------- ------ --- ------- -----------<br>-- ----- --- ---- -- --- ------ ---- - ---- -- ----------<br>-- ------ ---- --- ---- --- --- --- ----- -- -------- ---<br>------ ------- -------- --- ---- an ------- ------------ --<br>------ -- ---- -- --- ---- -- -------- -- --- ------ ------,312168,312163.2000000002,311977.019,311978,311993.675,312176.891,,37,an
screen,html.Screen,2_3_1_0_1_38,2022-05-11T11:37:20.002Z,,,,,,,,,,,,,,,,,12,,,,,,,,,,,,,,406.309000000183,,response,,,,5,C,,,,,,Space,keypress(Space),,,,instrumental,,,,---- ------ ------ ------- ------ --- ------- -----------<br>-- ----- --- ---- -- --- ------ ---- - ---- -- ----------<br>-- ------ ---- --- ---- --- --- --- ----- -- -------- ---<br>------ ------- -------- --- ---- -- unusual ------------ --<br>------ -- ---- -- --- ---- -- -------- -- --- ------ ------,312587.7999999998,312583.2000000002,312160.235,312168.2999999998,312176.891,312593.291,,38,unusual
screen,html.Screen,2_3_1_0_1_39,2022-05-11T11:37:20.521Z,,,,,,,,,,,,,,,,,12,,,,,,,,,,,,,,508.9090000001597,,response,,,,5,C,,,,,,Space,keypress(Space),,,,instrumental,,,,---- ------ ------ ------- ------ --- ------- -----------<br>-- ----- --- ---- -- --- ------ ---- - ---- -- ----------<br>-- ------ ---- --- ---- --- --- --- ----- -- -------- ---<br>------ ------- -------- --- ---- -- ------- stipulation: --<br>------ -- ---- -- --- ---- -- -------- -- --- ------ ------,313107,313102.2000000002,312576.635,312588.2000000002,312593.291,313109.627,,39,stipulation:
screen,html.Screen,2_3_1_0_1_40,2022-05-11T11:37:20.858Z,,,,,,,,,,,,,,,,,12,,,,,,,,,,,,,,329.5730000002077,,response,,,,5,C,,,,,,Space,keypress(Space),,,,instrumental,,,,---- ------ ------ ------- ------ --- ------- -----------<br>-- ----- --- ---- -- --- ------ ---- - ---- -- ----------<br>-- ------ ---- --- ---- --- --- --- ----- -- -------- ---<br>------ ------- -------- --- ---- -- ------- ------------ He<br>------ -- ---- -- --- ---- -- -------- -- --- ------ ------,313443.5,313439.2000000002,313092.971,313107.4000000004,313109.627,313459.403,,40,He
screen,html.Screen,2_3_1_0_1_41,2022-05-11T11:37:21.195Z,,,,,,,,,,,,,,,,,12,,,,,,,,,,,,,,315.7970000001951,,response,,,,5,C,,,,,,Space,keypress(Space),,,,instrumental,,,,---- ------ ------ ------- ------ --- ------- -----------<br>-- ----- --- ---- -- --- ------ ---- - ---- -- ----------<br>-- ------ ---- --- ---- --- --- --- ----- -- -------- ---<br>------ ------- -------- --- ---- -- ------- ------------ --<br>wanted -- ---- -- --- ---- -- -------- -- --- ------ ------,313780.5,313775.2000000002,313442.747,313443.7999999998,313459.403,313792.523,,41,wanted
