sender,sender_type,sender_id,timestamp,meta,,Blues,Classical,Country,Dance,Electronic,Folk,Gospel,Hip-Hop,Jazz,Latin,Musical/Film,New-age,Pop,Prolific_id,Provo_ID,R&B,Rap,Reggae,Religious,Rock,Soul,Swing,Traditional,age,artist_name,correct,correctResponse,distraction,duration,education,ended_on,familiarity,gender,headphone_check_performance,item,list,music_frequency,offensiveness,pleasantness,position_correct,preference,response,response_action,snippet_file,song_name,song_rating,sound,stimulus_1,stimulus_2,stimulus_3,text,time_commit,time_end,time_render,time_run,time_show,time_switch,url,word,word_ID
Prolific ID,html.Form,0,2022-04-28T09:47:42.650Z,"{""labjs_version"":""20.2.2"",""labjs_build"":{""flavor"":""production"",""commit"":""a25486e0c714a0ae2ce03ff94b7bb6896854dcfa""},""location"":""https://run.pavlovia.org/mvasilev/prolific3_music_d/"",""userAgent"":""Mozilla/5.0 (Macintosh; Intel Mac OS X 10_15_7) AppleWebKit/537.36 (KHTML, like Gecko) Chrome/99.0.4844.51 Safari/537.36"",""platform"":""MacIntel"",""language"":""en-US"",""locale"":""en-GB"",""timeZone"":""Europe/London"",""timezoneOffset"":-60,""screen_width"":1280,""screen_height"":800,""scroll_width"":1280,""scroll_height"":596,""window_innerWidth"":1280,""window_innerHeight"":596,""devicePixelRatio"":2}",,,,,,,,,,,,,,,59e0be41d838ae0001850712,,,,,,,,,,,,,,,5691.270000005961,,form submission,,,,,,,,,,,,,,,,,,,,,21597.30000001192,21596.90000000596,15822.26,15823.300000011921,15905.63,21591.464,{},,
Introduction,html.Screen,1_0,2022-04-28T09:47:46.999Z,,,,,,,,,,,,,,,,,,,,,,,,,,,,,,,4350.336000011921,,response,,,,,,,,,,,continue,click button,,,,,,,,,25945.80000001192,25941.80000001192,21574.79,21597.59999999404,21591.464,25960.052,,,
Volume calibration,html.Screen,1_1,2022-04-28T09:48:14.876Z,,,,,,,,,,,,,,,,,,,,,,,,,,,,,,,27845.84800000596,,response,,,,,,,,,,,continue,click button,,,,,,,,,53822.59999999404,53805.90000000596,25943.378,25946,25960.052,53822.306,,,
Task instructions,html.Screen,1_2,2022-04-28T09:48:25.582Z,,,,,,,,,,,,,,,,,,,,,,,,,,,,,,,10609.694000000003,,response,,,,,,,,,,,continue,click button,,,,,,,,,64528.5,64432,53805.632,53822.80000001192,53822.306,64527.014,,,
Sounds,html.Screen,1_3_0_0,2022-04-28T09:48:29.820Z,,,,,,,,,,,,,,,,,,,,,,,,,,,,,,,4251.870000000003,,timeout,,,,,,,,,1,,,,,,,,S,O,I,,68767.30000001192,68762.21,64443.644,64528.69999998808,64527.014,68778.884,,,
Judgement,html.Screen,1_3_0_1,2022-04-28T09:48:31.359Z,,,,,,,,,,,,,,,,,,,,,,,,,,,,true,1,,1523.4160000119155,,response,,,,,,,,,1,,1,click #choice-1,,,,,S,O,I,,70306.30000001192,70302.30000001192,68762.21,68767.5,68778.884,70312.892,,,
Trial,flow.Sequence,1_3_0,2022-04-28T09:48:31.360Z,,,,,,,,,,,,,,,,,,,,,,,,,,,,,,,5775.286000011918,,completion,,,,,,,,,1,,,,,,,,S,O,I,,70306.90000000596,70302.30000001192,64443.644,64528.69999998808,64527.014,70312.892,,,
Sounds,html.Screen,1_3_1_0,2022-04-28T09:48:35.603Z,,,,,,,,,,,,,,,,,,,,,,,,,,,,,,,4251.869999999995,,timeout,,,,,,,,,3,,,,,,,,O,I,S,,74549.40000000596,74548.088,70296.218,70307.19999998808,70312.892,74564.762,,,
Judgement,html.Screen,1_3_1_1,2022-04-28T09:48:36.620Z,,,,,,,,,,,,,,,,,,,,,,,,,,,,true,3,,997.138000005958,,response,,,,,,,,,3,,3,click #choice-3,,,,,O,I,S,,75567.30000001192,75561.90000000596,74548.088,74549.59999999404,74564.762,75581.876,,,
Trial,flow.Sequence,1_3_1,2022-04-28T09:48:36.621Z,,,,,,,,,,,,,,,,,,,,,,,,,,,,,,,5249.008000005953,,completion,,,,,,,,,3,,,,,,,,O,I,S,,75567.5,75561.90000000596,70296.218,70307.09999999404,70312.892,75581.876,,,
Sounds,html.Screen,1_3_2_0,2022-04-28T09:48:40.873Z,,,,,,,,,,,,,,,,,,,,,,,,,,,,,,,4251.869999999995,,timeout,,,,,,,,,1,,,,,,,,S,I,O,,79819.30000001192,79817.072,75565.202,75567.59999999404,75581.876,79833.746,,,
Judgement,html.Screen,1_3_2_1,2022-04-28T09:48:41.446Z,,,,,,,,,,,,,,,,,,,,,,,,,,,,false,1,,556.3539999940404,,response,,,,,,,,,1,,3,click #choice-3,,,,,S,I,O,,80392.30000001192,80390.09999999404,79817.072,79819.5,79833.746,80417.336,,,
Trial,flow.Sequence,1_3_2,2022-04-28T09:48:41.446Z,,,,,,,,,,,,,,,,,,,,,,,,,,,,,,,4808.223999994036,,completion,,,,,,,,,1,,,,,,,,S,I,O,,80392.5,80390.09999999404,75565.202,75567.59999999404,75581.876,80417.336,,,
Sounds,html.Screen,1_3_3_0,2022-04-28T09:48:45.707Z,,,,,,,,,,,,,,,,,,,,,,,,,,,,,,,4251.87000000001,,timeout,,,,,,,,,2,,,,,,,,I,S,O,,84653.59999999404,84652.532,80400.662,80392.59999999404,80417.336,84669.206,,,
Judgement,html.Screen,1_3_3_1,2022-04-28T09:48:46.430Z,,,,,,,,,,,,,,,,,,,,,,,,,,,,true,2,,704.893999994034,,response,,,,,,,,,2,,2,click #choice-2,,,,,I,S,O,,85376.69999998808,85374.09999999404,84652.532,84653.80000001192,84669.206,85402.862,,,
Trial,flow.Sequence,1_3_3,2022-04-28T09:48:46.430Z,,,,,,,,,,,,,,,,,,,,,,,,,,,,,,,4956.763999994044,,completion,,,,,,,,,2,,,,,,,,I,S,O,,85376.90000000596,85374.09999999404,80400.662,80392.59999999404,80417.336,85402.862,,,
Sounds,html.Screen,1_3_4_0,2022-04-28T09:48:50.693Z,,,,,,,,,,,,,,,,,,,,,,,,,,,,,,,4251.87000000001,,timeout,,,,,,,,,3,,,,,,,,I,O,S,,89639.30000001192,89638.058,85386.188,85377,85402.862,89654.732,,,
Judgement,html.Screen,1_3_4_1,2022-04-28T09:48:51.436Z,,,,,,,,,,,,,,,,,,,,,,,,,,,,true,3,,725.7679999999964,,response,,,,,,,,,3,,3,click #choice-3,,,,,I,O,S,,90382.90000000596,90380.5,89638.058,89639.5,89654.732,90405.062,,,
Trial,flow.Sequence,1_3_4,2022-04-28T09:48:51.436Z,,,,,,,,,,,,,,,,,,,,,,,,,,,,,,,4977.638000000006,,completion,,,,,,,,,3,,,,,,,,I,O,S,,90383,90380.5,85386.188,85377,85402.862,90405.062,,,
Sounds,html.Screen,1_3_5_0,2022-04-28T09:48:55.696Z,,,,,,,,,,,,,,,,,,,,,,,,,,,,,,,4251.869999999995,,timeout,,,,,,,,,2,,,,,,,,O,S,I,,94642.19999998808,94640.258,90388.388,90383.09999999404,90405.062,94656.932,,,
Judgement,html.Screen,1_3_5_1,2022-04-28T09:48:56.495Z,,,,,,,,,,,,,,,,,,,,,,,,,,,,true,2,,780.9680000059598,,response,,,,,,,,,2,,2,click #choice-2,,,,,O,S,I,,95441.5,95437.90000000596,94640.258,94642.40000000596,94656.932,95457.284,,,
Trial,flow.Sequence,1_3_5,2022-04-28T09:48:56.495Z,,,,,,,,,,,,,,,,,,,,,,,,,,,,,,,5032.838000005955,,completion,,,,,,,,,2,,,,,,,,O,S,I,,95441.69999998808,95437.90000000596,90388.388,90383.09999999404,90405.062,95457.284,,,
Task,flow.Loop,1_3,2022-04-28T09:48:56.502Z,,,,,,,,,,,,,,,,,,,,,,,,,,,,,,,30910.886000005958,,completion,,,0.8333333333333334,,,,,,,,,,,,,,,,,,95448.5,95437.90000000596,64443.644,64528.5,64527.014,95457.284,,,
Trap,html.Screen,1_4,2022-04-28T09:48:56.504Z,,,,,,,,,,,,,,,,,,,,,,,,,,,,,,,NaN,,skipped,,,,,,,,,,,,,,,,,,,,,95450.19999998808,95437.90000000596,,95450,,95457.284,,,
Thanks,html.Screen,1_5,2022-04-28T09:49:01.595Z,,,,,,,,,,,,,,,,,,,,,,,,,,,,,,,5078.516000011921,,response,,,,,,,,,,,continue,click button,,,,,,,,,100541.5,100535.80000001192,95440.61,95450.30000001192,95457.284,106568.739,,,
Headphone screening,flow.Sequence,1,2022-04-28T09:49:01.595Z,,,,,,,,,,,,,,,,,,,,,,,,,,,,,,,78944.33600001191,,completion,,,,,,,,,,,,,,,,,,,,,100541.59999999404,100535.80000001192,21574.79,21597.59999999404,21591.464,106568.739,,,
Instructions,html.Page,2_0,2022-04-28T09:49:28.168Z,,,,,,,,,,,,,,,,,,,,,,,,,,,,,,,20545.360999994038,,form submission,,,,,,,,,,,,,,,,,,,,,127114.59999999404,127114.09999999404,106552.065,106569.80000001192,106568.739,127127.781,,,
Holding screen,html.Screen,2_1_0_0,2022-04-28T09:49:38.171Z,,,,,,,,,,,,,,,,,,,,,,,,,,,,,,,10004.400000000009,,timeout,,,,,,,,,,,,,,,,,,,,,137117.30000001192,137115.507,127111.107,127114.80000001192,127127.781,137132.181,,,
screen,html.Screen,2_1_0_1_0,2022-04-28T09:49:39.213Z,,,,,,,,,,,,,,,,,53,,,,,,,,,,,,,,1017.219000005949,,response,,,,99,,,,,,,Space,keypress(Space),,,,,,,,When -- ----- -- ------ - ------- --- ----------<br>------------- ------ ------ ---- ---- ------- ----- -- ----<br>-------- ------- -- ---------- --- - --- ----- ----- ----<br>---- --- --- ----- --- ---- ---- ------- ----- ---- -------<br>--- --- -- ----- -- --- ---- -- --- ---- -- ------ ------<br>--- ----- -- ----,138159.40000000596,138149.40000000596,137115.507,137117.59999999404,137132.181,138165.969,,0,When
screen,html.Screen,2_1_0_1_1,2022-04-28T09:49:39.728Z,,,,,,,,,,,,,,,,,53,,,,,,,,,,,,,,503.4310000059486,,response,,,,99,,,,,,,Space,keypress(Space),,,,,,,,---- it ----- -- ------ - ------- --- ----------<br>------------- ------ ------ ---- ---- ------- ----- -- ----<br>-------- ------- -- ---------- --- - --- ----- ----- ----<br>---- --- --- ----- --- ---- ---- ------- ----- ---- -------<br>--- --- -- ----- -- --- ---- -- --- ---- -- ------ ------<br>--- ----- -- ----,138674.09999999404,138669.40000000596,138149.295,138159.59999999404,138165.969,138682.863,,1,it
screen,html.Screen,2_1_0_1_2,2022-04-28T09:49:40.256Z,,,,,,,,,,,,,,,,,53,,,,,,,,,,,,,,514.5370000059484,,response,,,,99,,,,,,,Space,keypress(Space),,,,,,,,---- -- comes -- ------ - ------- --- ----------<br>------------- ------ ------ ---- ---- ------- ----- -- ----<br>-------- ------- -- ---------- --- - --- ----- ----- ----<br>---- --- --- ----- --- ---- ---- ------- ----- ---- -------<br>--- --- -- ----- -- --- ---- -- --- ---- -- ------ ------<br>--- ----- -- ----,139202.30000001192,139197.40000000596,138666.189,138674.19999998808,138682.863,139216.431,,2,comes
screen,html.Screen,2_1_0_1_3,2022-04-28T09:49:40.752Z,,,,,,,,,,,,,,,,,53,,,,,,,,,,,,,,476.96900000594906,,response,,,,99,,,,,,,Space,keypress(Space),,,,,,,,---- -- ----- to ------ - ------- --- ----------<br>------------- ------ ------ ---- ---- ------- ----- -- ----<br>-------- ------- -- ---------- --- - --- ----- ----- ----<br>---- --- --- ----- --- ---- ---- ------- ----- ---- -------<br>--- --- -- ----- -- --- ---- -- --- ---- -- ------ ------<br>--- ----- -- ----,139698.09999999404,139693.40000000596,139199.757,139202.30000001192,139216.431,139699.977,,3,to
screen,html.Screen,2_1_0_1_4,2022-04-28T09:49:41.310Z,,,,,,,,,,,,,,,,,53,,,,,,,,,,,,,,545.423000005947,,response,,,,99,,,,,,,Space,keypress(Space),,,,,,,,---- -- ----- -- having - ------- --- ----------<br>------------- ------ ------ ---- ---- ------- ----- -- ----<br>-------- ------- -- ---------- --- - --- ----- ----- ----<br>---- --- --- ----- --- ---- ---- ------- ----- ---- -------<br>--- --- -- ----- -- --- ---- -- --- ---- -- ------ ------<br>--- ----- -- ----,140256,140245.40000000596,139683.303,139698.30000001192,139699.977,140266.893,,4,having
screen,html.Screen,2_1_0_1_5,2022-04-28T09:49:41.775Z,,,,,,,,,,,,,,,,,53,,,,,,,,,,,,,,450.40700001191,,response,,,,99,,,,,,,Space,keypress(Space),,,,,,,,---- -- ----- -- ------ a ------- --- ----------<br>------------- ------ ------ ---- ---- ------- ----- -- ----<br>-------- ------- -- ---------- --- - --- ----- ----- ----<br>---- --- --- ----- --- ---- ---- ------- ----- ---- -------<br>--- --- -- ----- -- --- ---- -- --- ---- -- ------ ------<br>--- ----- -- ----,140720.80000001192,140717.30000001192,140250.219,140256.19999998808,140266.893,140733.765,,5,a
screen,html.Screen,2_1_0_1_6,2022-04-28T09:49:42.287Z,,,,,,,,,,,,,,,,,53,,,,,,,,,,,,,,495.6350000059465,,response,,,,99,,,,,,,Space,keypress(Space),,,,,,,,---- -- ----- -- ------ - lasting --- ----------<br>------------- ------ ------ ---- ---- ------- ----- -- ----<br>-------- ------- -- ---------- --- - --- ----- ----- ----<br>---- --- --- ----- --- ---- ---- ------- ----- ---- -------<br>--- --- -- ----- -- --- ---- -- --- ---- -- ------ ------<br>--- ----- -- ----,141233,141229.40000000596,140717.091,140720.80000001192,140733.765,141233.985,,6,lasting
screen,html.Screen,2_1_0_1_7,2022-04-28T09:49:42.840Z,,,,,,,,,,,,,,,,,53,,,,,,,,,,,,,,547.4150000059744,,response,,,,99,,,,,,,Space,keypress(Space),,,,,,,,---- -- ----- -- ------ - ------- and ----------<br>------------- ------ ------ ---- ---- ------- ----- -- ----<br>-------- ------- -- ---------- --- - --- ----- ----- ----<br>---- --- --- ----- --- ---- ---- ------- ----- ---- -------<br>--- --- -- ----- -- --- ---- -- --- ---- -- ------ ------<br>--- ----- -- ----,141785.90000000596,141781.40000000596,141217.311,141233.09999999404,141233.985,141800.901,,7,and
screen,html.Screen,2_1_0_1_8,2022-04-28T09:49:43.415Z,,,,,,,,,,,,,,,,,53,,,,,,,,,,,,,,556.3990000119084,,response,,,,99,,,,,,,Space,keypress(Space),,,,,,,,---- -- ----- -- ------ - ------- --- fulfilling<br>------------- ------ ------ ---- ---- ------- ----- -- ----<br>-------- ------- -- ---------- --- - --- ----- ----- ----<br>---- --- --- ----- --- ---- ---- ------- ----- ---- -------<br>--- --- -- ----- -- --- ---- -- --- ---- -- ------ ------<br>--- ----- -- ----,142361.40000000596,142357.30000001192,141784.227,141786,141800.901,142367.817,,8,fulfilling
screen,html.Screen,2_1_0_1_9,2022-04-28T09:49:44.024Z,,,,,,,,,,,,,,,,,53,,,,,,,,,,,,,,597.4830000119109,,response,,,,99,,,,,,,Space,keypress(Space),,,,,,,,"---- -- ----- -- ------ - ------- --- ----------<br>relationship, ------ ------ ---- ---- ------- ----- -- ----<br>-------- ------- -- ---------- --- - --- ----- ----- ----<br>---- --- --- ----- --- ---- ---- ------- ----- ---- -------<br>--- --- -- ----- -- --- ---- -- --- ---- -- ------ ------<br>--- ----- -- ----",142970.5,142965.30000001192,142351.143,142361.5,142367.817,142984.755,,9,"relationship,"
screen,html.Screen,2_1_0_1_10,2022-04-28T09:49:44.527Z,,,,,,,,,,,,,,,,,53,,,,,,,,,,,,,,484.6450000059558,,response,,,,99,,,,,,,Space,keypress(Space),,,,,,,,---- -- ----- -- ------ - ------- --- ----------<br>------------- common ------ ---- ---- ------- ----- -- ----<br>-------- ------- -- ---------- --- - --- ----- ----- ----<br>---- --- --- ----- --- ---- ---- ------- ----- ---- -------<br>--- --- -- ----- -- --- ---- -- --- ---- -- ------ ------<br>--- ----- -- ----,143472.90000000596,143469.40000000596,142968.081,142970.59999999404,142984.755,143484.975,,10,common
screen,html.Screen,2_1_0_1_11,2022-04-28T09:49:45.057Z,,,,,,,,,,,,,,,,,53,,,,,,,,,,,,,,512.5249999999942,,response,,,,99,,,,,,,Space,keypress(Space),,,,,,,,---- -- ----- -- ------ - ------- --- ----------<br>------------- ------ wisdom ---- ---- ------- ----- -- ----<br>-------- ------- -- ---------- --- - --- ----- ----- ----<br>---- --- --- ----- --- ---- ---- ------- ----- ---- -------<br>--- --- -- ----- -- --- ---- -- --- ---- -- ------ ------<br>--- ----- -- ----,144002.69999998808,143997.5,143468.301,143473,143484.975,144018.543,,11,wisdom
screen,html.Screen,2_1_0_1_12,2022-04-28T09:49:45.588Z,,,,,,,,,,,,,,,,,53,,,,,,,,,,,,,,506.85700000595534,,response,,,,99,,,,,,,Space,keypress(Space),,,,,,,,---- -- ----- -- ------ - ------- --- ----------<br>------------- ------ ------ says ---- ------- ----- -- ----<br>-------- ------- -- ---------- --- - --- ----- ----- ----<br>---- --- --- ----- --- ---- ---- ------- ----- ---- -------<br>--- --- -- ----- -- --- ---- -- --- ---- -- ------ ------<br>--- ----- -- ----,144534.30000001192,144525.40000000596,144001.869,144002.90000000596,144018.543,144535.437,,12,says
screen,html.Screen,2_1_0_1_13,2022-04-28T09:49:46.105Z,,,,,,,,,,,,,,,,,53,,,,,,,,,,,,,,509.7629999880737,,response,,,,99,,,,,,,Space,keypress(Space),,,,,,,,---- -- ----- -- ------ - ------- --- ----------<br>------------- ------ ------ ---- that ------- ----- -- ----<br>-------- ------- -- ---------- --- - --- ----- ----- ----<br>---- --- --- ----- --- ---- ---- ------- ----- ---- -------<br>--- --- -- ----- -- --- ---- -- --- ---- -- ------ ------<br>--- ----- -- ----,145051.09999999404,145045.19999998808,144518.763,144534.40000000596,144535.437,145069.005,,13,that
screen,html.Screen,2_1_0_1_14,2022-04-28T09:49:46.592Z,,,,,,,,,,,,,,,,,53,,,,,,,,,,,,,,464.3950000059558,,response,,,,99,,,,,,,Space,keypress(Space),,,,,,,,---- -- ----- -- ------ - ------- --- ----------<br>------------- ------ ------ ---- ---- feeling ----- -- ----<br>-------- ------- -- ---------- --- - --- ----- ----- ----<br>---- --- --- ----- --- ---- ---- ------- ----- ---- -------<br>--- --- -- ----- -- --- ---- -- --- ---- -- ------ ------<br>--- ----- -- ----,145538,145533.40000000596,145052.331,145051.09999999404,145069.005,145552.551,,14,feeling
screen,html.Screen,2_1_0_1_15,2022-04-28T09:49:47.048Z,,,,,,,,,,,,,,,,,53,,,,,,,,,,,,,,436.8490000059537,,response,,,,99,,,,,,,Space,keypress(Space),,,,,,,,---- -- ----- -- ------ - ------- --- ----------<br>------------- ------ ------ ---- ---- ------- close -- ----<br>-------- ------- -- ---------- --- - --- ----- ----- ----<br>---- --- --- ----- --- ---- ---- ------- ----- ---- -------<br>--- --- -- ----- -- --- ---- -- --- ---- -- ------ ------<br>--- ----- -- ----,145994.19999998808,145989.40000000596,145535.877,145538.09999999404,145552.551,146002.749,,15,close
screen,html.Screen,2_1_0_1_16,2022-04-28T09:49:47.464Z,,,,,,,,,,,,,,,,,53,,,,,,,,,,,,,,402.5510000119102,,response,,,,99,,,,,,,Space,keypress(Space),,,,,,,,---- -- ----- -- ------ - ------- --- ----------<br>------------- ------ ------ ---- ---- ------- ----- to ----<br>-------- ------- -- ---------- --- - --- ----- ----- ----<br>---- --- --- ----- --- ---- ---- ------- ----- ---- -------<br>--- --- -- ----- -- --- ---- -- --- ---- -- ------ ------<br>--- ----- -- ----,146410.5,146405.30000001192,145986.075,145994.30000001192,146002.749,146419.599,,16,to
screen,html.Screen,2_1_0_1_17,2022-04-28T09:49:47.927Z,,,,,,,,,,,,,,,,,53,,,,,,,,,,,,,,449.80100000597304,,response,,,,99,,,,,,,Space,keypress(Space),,,,,,,,---- -- ----- -- ------ - ------- --- ----------<br>------------- ------ ------ ---- ---- ------- ----- -- your<br>-------- ------- -- ---------- --- - --- ----- ----- ----<br>---- --- --- ----- --- ---- ---- ------- ----- ---- -------<br>--- --- -- ----- -- --- ---- -- --- ---- -- ------ ------<br>--- ----- -- ----,146872.90000000596,146869.40000000596,146402.925,146410.59999999404,146419.599,146886.471,,17,your
screen,html.Screen,2_1_0_1_18,2022-04-28T09:49:48.472Z,,,,,,,,,,,,,,,,,53,,,,,,,,,,,,,,527.0290000000095,,response,,,,99,,,,,,,Space,keypress(Space),,,,,,,,---- -- ----- -- ------ - ------- --- ----------<br>------------- ------ ------ ---- ---- ------- ----- -- ----<br>romantic ------- -- ---------- --- - --- ----- ----- ----<br>---- --- --- ----- --- ---- ---- ------- ----- ---- -------<br>--- --- -- ----- -- --- ---- -- --- ---- -- ------ ------<br>--- ----- -- ----,147418.09999999404,147413.5,146869.797,146873,146886.471,147420.039,,18,romantic
screen,html.Screen,2_1_0_1_19,2022-04-28T09:49:48.976Z,,,,,,,,,,,,,,,,,53,,,,,,,,,,,,,,497.3610000059707,,response,,,,99,,,,,,,Space,keypress(Space),,,,,,,,---- -- ----- -- ------ - ------- --- ----------<br>------------- ------ ------ ---- ---- ------- ----- -- ----<br>-------- partner -- ---------- --- - --- ----- ----- ----<br>---- --- --- ----- --- ---- ---- ------- ----- ---- -------<br>--- --- -- ----- -- --- ---- -- --- ---- -- ------ ------<br>--- ----- -- ----,147922,147917.40000000596,147403.365,147418.19999998808,147420.039,147936.933,,19,partner
screen,html.Screen,2_1_0_1_20,2022-04-28T09:49:49.520Z,,,,,,,,,,,,,,,,,53,,,,,,,,,,,,,,524.3670000119309,,response,,,,99,,,,,,,Space,keypress(Space),,,,,,,,---- -- ----- -- ------ - ------- --- ----------<br>------------- ------ ------ ---- ---- ------- ----- -- ----<br>-------- ------- is ---------- --- - --- ----- ----- ----<br>---- --- --- ----- --- ---- ---- ------- ----- ---- -------<br>--- --- -- ----- -- --- ---- -- --- ---- -- ------ ------<br>--- ----- -- ----,148466.59999999404,148461.30000001192,147920.259,147922.19999998808,147936.933,148470.501,,20,is
screen,html.Screen,2_1_0_1_21,2022-04-28T09:49:50.080Z,,,,,,,,,,,,,,,,,53,,,,,,,,,,,,,,550.8990000059712,,response,,,,99,,,,,,,Space,keypress(Space),,,,,,,,---- -- ----- -- ------ - ------- --- ----------<br>------------- ------ ------ ---- ---- ------- ----- -- ----<br>-------- ------- -- paramount. --- - --- ----- ----- ----<br>---- --- --- ----- --- ---- ---- ------- ----- ---- -------<br>--- --- -- ----- -- --- ---- -- --- ---- -- ------ ------<br>--- ----- -- ----,149025.80000001192,149021.40000000596,148453.827,148466.69999998808,148470.501,149037.417,,21,paramount.
screen,html.Screen,2_1_0_1_22,2022-04-28T09:49:50.607Z,,,,,,,,,,,,,,,,,53,,,,,,,,,,,,,,511.8830000119342,,response,,,,99,,,,,,,Space,keypress(Space),,,,,,,,---- -- ----- -- ------ - ------- --- ----------<br>------------- ------ ------ ---- ---- ------- ----- -- ----<br>-------- ------- -- ---------- But - --- ----- ----- ----<br>---- --- --- ----- --- ---- ---- ------- ----- ---- -------<br>--- --- -- ----- -- --- ---- -- --- ---- -- ------ ------<br>--- ----- -- ----,149553.5,149549.30000001192,149020.743,149026,149037.417,149570.985,,22,But
screen,html.Screen,2_1_0_1_23,2022-04-28T09:49:51.080Z,,,,,,,,,,,,,,,,,53,,,,,,,,,,,,,,450.41500000597443,,response,,,,99,,,,,,,Space,keypress(Space),,,,,,,,---- -- ----- -- ------ - ------- --- ----------<br>------------- ------ ------ ---- ---- ------- ----- -- ----<br>-------- ------- -- ---------- --- a --- ----- ----- ----<br>---- --- --- ----- --- ---- ---- ------- ----- ---- -------<br>--- --- -- ----- -- --- ---- -- --- ---- -- ------ ------<br>--- ----- -- ----,150026.19999998808,150021.40000000596,149554.311,149553.59999999404,149570.985,150037.857,,23,a
screen,html.Screen,2_1_0_1_24,2022-04-28T09:49:51.512Z,,,,,,,,,,,,,,,,,53,,,,,,,,,,,,,,415.5430000059714,,response,,,,99,,,,,,,Space,keypress(Space),,,,,,,,---- -- ----- -- ------ - ------- --- ----------<br>------------- ------ ------ ---- ---- ------- ----- -- ----<br>-------- ------- -- ---------- --- - new ----- ----- ----<br>---- --- --- ----- --- ---- ---- ------- ----- ---- -------<br>--- --- -- ----- -- --- ---- -- --- ---- -- ------ ------<br>--- ----- -- ----,150458.5,150453.40000000596,150021.183,150026.40000000596,150037.857,150471.381,,24,new
screen,html.Screen,2_1_0_1_25,2022-04-28T09:49:51.993Z,,,,,,,,,,,,,,,,,53,,,,,,,,,,,,,,454.0190000059665,,response,,,,99,,,,,,,Space,keypress(Space),,,,,,,,---- -- ----- -- ------ - ------- --- ----------<br>------------- ------ ------ ---- ---- ------- ----- -- ----<br>-------- ------- -- ---------- --- - --- study ----- ----<br>---- --- --- ----- --- ---- ---- ------- ----- ---- -------<br>--- --- -- ----- -- --- ---- -- --- ---- -- ------ ------<br>--- ----- -- ----,150939.40000000596,150925.40000000596,150454.707,150458.69999998808,150471.381,150954.927,,25,study
screen,html.Screen,2_1_0_1_26,2022-04-28T09:49:52.408Z,,,,,,,,,,,,,,,,,53,,,,,,,,,,,,,,394.4730000059644,,response,,,,99,,,,,,,Space,keypress(Space),,,,,,,,---- -- ----- -- ------ - ------- --- ----------<br>------------- ------ ------ ---- ---- ------- ----- -- ----<br>-------- ------- -- ---------- --- - --- ----- finds ----<br>---- --- --- ----- --- ---- ---- ------- ----- ---- -------<br>--- --- -- ----- -- --- ---- -- --- ---- -- ------ ------<br>--- ----- -- ----,151354.09999999404,151349.40000000596,150938.253,150939.69999998808,150954.927,151355.103,,26,finds
screen,html.Screen,2_1_0_1_27,2022-04-28T09:49:52.896Z,,,,,,,,,,,,,,,,,53,,,,,,,,,,,,,,482.19700001191813,,response,,,,99,,,,,,,Space,keypress(Space),,,,,,,,---- -- ----- -- ------ - ------- --- ----------<br>------------- ------ ------ ---- ---- ------- ----- -- ----<br>-------- ------- -- ---------- --- - --- ----- ----- that<br>---- --- --- ----- --- ---- ---- ------- ----- ---- -------<br>--- --- -- ----- -- --- ---- -- --- ---- -- ------ ------<br>--- ----- -- ----,151842,151837.30000001192,151338.429,151354.09999999404,151355.103,151855.323,,27,that
screen,html.Screen,2_1_0_1_28,2022-04-28T09:49:53.439Z,,,,,,,,,,,,,,,,,53,,,,,,,,,,,,,,526.0770000059565,,response,,,,99,,,,,,,Space,keypress(Space),,,,,,,,---- -- ----- -- ------ - ------- --- ----------<br>------------- ------ ------ ---- ---- ------- ----- -- ----<br>-------- ------- -- ---------- --- - --- ----- ----- ----<br>it's --- --- ----- --- ---- ---- ------- ----- ---- -------<br>--- --- -- ----- -- --- ---- -- --- ---- -- ------ ------<br>--- ----- -- ----,152385.19999998808,152381.40000000596,151838.649,151842,151855.323,152388.891,,28,it's
screen,html.Screen,2_1_0_1_29,2022-04-28T09:49:53.880Z,,,,,,,,,,,,,,,,,53,,,,,,,,,,,,,,432.60899999999674,,response,,,,99,,,,,,,Space,keypress(Space),,,,,,,,---- -- ----- -- ------ - ------- --- ----------<br>------------- ------ ------ ---- ---- ------- ----- -- ----<br>-------- ------- -- ---------- --- - --- ----- ----- ----<br>---- not --- ----- --- ---- ---- ------- ----- ---- -------<br>--- --- -- ----- -- --- ---- -- --- ---- -- ------ ------<br>--- ----- -- ----,152826.09999999404,152821.5,152372.217,152385.30000001192,152388.891,152839.089,,29,not
screen,html.Screen,2_1_0_1_30,2022-04-28T09:49:54.352Z,,,,,,,,,,,,,,,,,53,,,,,,,,,,,,,,454.31100000595325,,response,,,,99,,,,,,,Space,keypress(Space),,,,,,,,---- -- ----- -- ------ - ------- --- ----------<br>------------- ------ ------ ---- ---- ------- ----- -- ----<br>-------- ------- -- ---------- --- - --- ----- ----- ----<br>---- --- how ----- --- ---- ---- ------- ----- ---- -------<br>--- --- -- ----- -- --- ---- -- --- ---- -- ------ ------<br>--- ----- -- ----,153297.90000000596,153293.40000000596,152822.415,152826.30000001192,152839.089,153305.961,,30,how
screen,html.Screen,2_1_0_1_31,2022-04-28T09:49:54.823Z,,,,,,,,,,,,,,,,,53,,,,,,,,,,,,,,459.4390000059502,,response,,,,99,,,,,,,Space,keypress(Space),,,,,,,,---- -- ----- -- ------ - ------- --- ----------<br>------------- ------ ------ ---- ---- ------- ----- -- ----<br>-------- ------- -- ---------- --- - --- ----- ----- ----<br>---- --- --- close --- ---- ---- ------- ----- ---- -------<br>--- --- -- ----- -- --- ---- -- --- ---- -- ------ ------<br>--- ----- -- ----,153769,153765.40000000596,153289.287,153298.09999999404,153305.961,153772.833,,31,close
screen,html.Screen,2_1_0_1_32,2022-04-28T09:49:55.288Z,,,,,,,,,,,,,,,,,53,,,,,,,,,,,,,,456.5670000059472,,response,,,,99,,,,,,,Space,keypress(Space),,,,,,,,---- -- ----- -- ------ - ------- --- ----------<br>------------- ------ ------ ---- ---- ------- ----- -- ----<br>-------- ------- -- ---------- --- - --- ----- ----- ----<br>---- --- --- ----- you ---- ---- ------- ----- ---- -------<br>--- --- -- ----- -- --- ---- -- --- ---- -- ------ ------<br>--- ----- -- ----,154234.30000001192,154229.40000000596,153756.159,153769.09999999404,153772.833,154239.705,,32,you
screen,html.Screen,2_1_0_1_33,2022-04-28T09:49:55.807Z,,,,,,,,,,,,,,,,,53,,,,,,,,,,,,,,509.69500000597327,,response,,,,99,,,,,,,Space,keypress(Space),,,,,,,,---- -- ----- -- ------ - ------- --- ----------<br>------------- ------ ------ ---- ---- ------- ----- -- ----<br>-------- ------- -- ---------- --- - --- ----- ----- ----<br>---- --- --- ----- --- feel ---- ------- ----- ---- -------<br>--- --- -- ----- -- --- ---- -- --- ---- -- ------ ------<br>--- ----- -- ----,154753.09999999404,154749.40000000596,154223.031,154234.40000000596,154239.705,154756.599,,33,feel
screen,html.Screen,2_1_0_1_34,2022-04-28T09:49:56.352Z,,,,,,,,,,,,,,,,,53,,,,,,,,,,,,,,536.9010000000126,,response,,,,99,,,,,,,Space,keypress(Space),,,,,,,,---- -- ----- -- ------ - ------- --- ----------<br>------------- ------ ------ ---- ---- ------- ----- -- ----<br>-------- ------- -- ---------- --- - --- ----- ----- ----<br>---- --- --- ----- --- ---- that ------- ----- ---- -------<br>--- --- -- ----- -- --- ---- -- --- ---- -- ------ ------<br>--- ----- -- ----,155298.19999998808,155293.5,154739.925,154753.19999998808,154756.599,155306.841,,34,that
screen,html.Screen,2_1_0_1_35,2022-04-28T09:49:56.848Z,,,,,,,,,,,,,,,,,53,,,,,,,,,,,,,,482.55900000597467,,response,,,,99,,,,,,,Space,keypress(Space),,,,,,,,---- -- ----- -- ------ - ------- --- ----------<br>------------- ------ ------ ---- ---- ------- ----- -- ----<br>-------- ------- -- ---------- --- - --- ----- ----- ----<br>---- --- --- ----- --- ---- ---- matters ----- ---- -------<br>--- --- -- ----- -- --- ---- -- --- ---- -- ------ ------<br>--- ----- -- ----,155794,155789.40000000596,155290.167,155298.30000001192,155306.841,155807.061,,35,matters
screen,html.Screen,2_1_0_1_36,2022-04-28T09:49:57.416Z,,,,,,,,,,,,,,,,,53,,,,,,,,,,,,,,550.3390000059735,,response,,,,99,,,,,,,Space,keypress(Space),,,,,,,,"---- -- ----- -- ------ - ------- --- ----------<br>------------- ------ ------ ---- ---- ------- ----- -- ----<br>-------- ------- -- ---------- --- - --- ----- ----- ----<br>---- --- --- ----- --- ---- ---- ------- most, ---- -------<br>--- --- -- ----- -- --- ---- -- --- ---- -- ------ ------<br>--- ----- -- ----",156362.19999998808,156357.40000000596,155790.387,155794.09999999404,155807.061,156373.977,,36,"most,"
screen,html.Screen,2_1_0_1_37,2022-04-28T09:49:57.911Z,,,,,,,,,,,,,,,,,53,,,,,,,,,,,,,,479.3230000119074,,response,,,,99,,,,,,,Space,keypress(Space),,,,,,,,---- -- ----- -- ------ - ------- --- ----------<br>------------- ------ ------ ---- ---- ------- ----- -- ----<br>-------- ------- -- ---------- --- - --- ----- ----- ----<br>---- --- --- ----- --- ---- ---- ------- ----- it's -------<br>--- --- -- ----- -- --- ---- -- --- ---- -- ------ ------<br>--- ----- -- ----,156856.90000000596,156853.30000001192,156357.303,156362.30000001192,156373.977,156874.197,,37,it's
screen,html.Screen,2_1_0_1_38,2022-04-28T09:49:58.392Z,,,,,,,,,,,,,,,,,53,,,,,,,,,,,,,,459.2030000059749,,response,,,,99,,,,,,,Space,keypress(Space),,,,,,,,---- -- ----- -- ------ - ------- --- ----------<br>------------- ------ ------ ---- ---- ------- ----- -- ----<br>-------- ------- -- ---------- --- - --- ----- ----- ----<br>---- --- --- ----- --- ---- ---- ------- ----- ---- whether<br>--- --- -- ----- -- --- ---- -- --- ---- -- ------ ------<br>--- ----- -- ----,157338.19999998808,157333.40000000596,156857.523,156857.09999999404,156874.197,157341.069,,38,whether
screen,html.Screen,2_1_0_1_39,2022-04-28T09:49:58.896Z,,,,,,,,,,,,,,,,,53,,,,,,,,,,,,,,496.3310000059719,,response,,,,99,,,,,,,Space,keypress(Space),,,,,,,,---- -- ----- -- ------ - ------- --- ----------<br>------------- ------ ------ ---- ---- ------- ----- -- ----<br>-------- ------- -- ---------- --- - --- ----- ----- ----<br>---- --- --- ----- --- ---- ---- ------- ----- ---- -------<br>you --- -- ----- -- --- ---- -- --- ---- -- ------ ------<br>--- ----- -- ----,157842,157837.40000000596,157324.395,157338.19999998808,157341.069,157857.963,,39,you
screen,html.Screen,2_1_0_1_40,2022-04-28T09:49:59.344Z,,,,,,,,,,,,,,,,,53,,,,,,,,,,,,,,427.5370000000112,,response,,,,99,,,,,,,Space,keypress(Space),,,,,,,,---- -- ----- -- ------ - ------- --- ----------<br>------------- ------ ------ ---- ---- ------- ----- -- ----<br>-------- ------- -- ---------- --- - --- ----- ----- ----<br>---- --- --- ----- --- ---- ---- ------- ----- ---- -------<br>--- are -- ----- -- --- ---- -- --- ---- -- ------ ------<br>--- ----- -- ----,158289.90000000596,158285.5,157841.289,157842.19999998808,157857.963,158291.487,,40,are
screen,html.Screen,2_1_0_1_41,2022-04-28T09:49:59.823Z,,,,,,,,,,,,,,,,,53,,,,,,,,,,,,,,473.8130000119272,,response,,,,99,,,,,,,Space,keypress(Space),,,,,,,,---- -- ----- -- ------ - ------- --- ----------<br>------------- ------ ------ ---- ---- ------- ----- -- ----<br>-------- ------- -- ---------- --- - --- ----- ----- ----<br>---- --- --- ----- --- ---- ---- ------- ----- ---- -------<br>--- --- as ----- -- --- ---- -- --- ---- -- ------ ------<br>--- ----- -- ----,158769.40000000596,158765.30000001192,158274.813,158290,158291.487,158775.033,,41,as
screen,html.Screen,2_1_0_1_42,2022-04-28T09:50:00.280Z,,,,,,,,,,,,,,,,,53,,,,,,,,,,,,,,446.36700000596466,,response,,,,99,,,,,,,Space,keypress(Space),,,,,,,,---- -- ----- -- ------ - ------- --- ----------<br>------------- ------ ------ ---- ---- ------- ----- -- ----<br>-------- ------- -- ---------- --- - --- ----- ----- ----<br>---- --- --- ----- --- ---- ---- ------- ----- ---- -------<br>--- --- -- close -- --- ---- -- --- ---- -- ------ ------<br>--- ----- -- ----,159226.40000000596,159221.40000000596,158758.359,158769.40000000596,158775.033,159241.905,,42,close
screen,html.Screen,2_1_0_1_43,2022-04-28T09:50:00.728Z,,,,,,,,,,,,,,,,,53,,,,,,,,,,,,,,427.49500000596163,,response,,,,99,,,,,,,Space,keypress(Space),,,,,,,,---- -- ----- -- ------ - ------- --- ----------<br>------------- ------ ------ ---- ---- ------- ----- -- ----<br>-------- ------- -- ---------- --- - --- ----- ----- ----<br>---- --- --- ----- --- ---- ---- ------- ----- ---- -------<br>--- --- -- ----- as --- ---- -- --- ---- -- ------ ------<br>--- ----- -- ----,159674.09999999404,159669.40000000596,159225.231,159226.40000000596,159241.905,159675.429,,43,as
screen,html.Screen,2_1_0_1_44,2022-04-28T09:50:01.272Z,,,,,,,,,,,,,,,,,53,,,,,,,,,,,,,,538.0709999999963,,response,,,,99,,,,,,,Space,keypress(Space),,,,,,,,---- -- ----- -- ------ - ------- --- ----------<br>------------- ------ ------ ---- ---- ------- ----- -- ----<br>-------- ------- -- ---------- --- - --- ----- ----- ----<br>---- --- --- ----- --- ---- ---- ------- ----- ---- -------<br>--- --- -- ----- -- you ---- -- --- ---- -- ------ ------<br>--- ----- -- ----,160218.09999999404,160213.5,159658.755,159674.19999998808,159675.429,160225.671,,44,you
screen,html.Screen,2_1_0_1_45,2022-04-28T09:50:01.792Z,,,,,,,,,,,,,,,,,53,,,,,,,,,,,,,,507.72900000595837,,response,,,,99,,,,,,,Space,keypress(Space),,,,,,,,---- -- ----- -- ------ - ------- --- ----------<br>------------- ------ ------ ---- ---- ------- ----- -- ----<br>-------- ------- -- ---------- --- - --- ----- ----- ----<br>---- --- --- ----- --- ---- ---- ------- ----- ---- -------<br>--- --- -- ----- -- --- want -- --- ---- -- ------ ------<br>--- ----- -- ----,160738,160733.40000000596,160208.997,160218.09999999404,160225.671,160742.565,,45,want
screen,html.Screen,2_1_0_1_46,2022-04-28T09:50:02.264Z,,,,,,,,,,,,,,,,,53,,,,,,,,,,,,,,462.83500000595814,,response,,,,99,,,,,,,Space,keypress(Space),,,,,,,,---- -- ----- -- ------ - ------- --- ----------<br>------------- ------ ------ ---- ---- ------- ----- -- ----<br>-------- ------- -- ---------- --- - --- ----- ----- ----<br>---- --- --- ----- --- ---- ---- ------- ----- ---- -------<br>--- --- -- ----- -- --- ---- to --- ---- -- ------ ------<br>--- ----- -- ----,161210,161205.40000000596,160725.891,160738.09999999404,160742.565,161226.111,,46,to
screen,html.Screen,2_1_0_1_47,2022-04-28T09:50:02.744Z,,,,,,,,,,,,,,,,,53,,,,,,,,,,,,,,459.3889999999956,,response,,,,99,,,,,,,Space,keypress(Space),,,,,,,,"---- -- ----- -- ------ - ------- --- ----------<br>------------- ------ ------ ---- ---- ------- ----- -- ----<br>-------- ------- -- ---------- --- - --- ----- ----- ----<br>---- --- --- ----- --- ---- ---- ------- ----- ---- -------<br>--- --- -- ----- -- --- ---- -- be, ---- -- ------ ------<br>--- ----- -- ----",161690.09999999404,161685.5,161209.437,161210.09999999404,161226.111,161692.983,,47,"be,"
screen,html.Screen,2_1_0_1_48,2022-04-28T09:50:03.248Z,,,,,,,,,,,,,,,,,53,,,,,,,,,,,,,,496.417000005953,,response,,,,99,,,,,,,Space,keypress(Space),,,,,,,,---- -- ----- -- ------ - ------- --- ----------<br>------------- ------ ------ ---- ---- ------- ----- -- ----<br>-------- ------- -- ---------- --- - --- ----- ----- ----<br>---- --- --- ----- --- ---- ---- ------- ----- ---- -------<br>--- --- -- ----- -- --- ---- -- --- even -- ------ ------<br>--- ----- -- ----,162194.19999998808,162189.40000000596,161676.309,161690.19999998808,161692.983,162209.877,,48,even
screen,html.Screen,2_1_0_1_49,2022-04-28T09:50:03.727Z,,,,,,,,,,,,,,,,,53,,,,,,,,,,,,,,459.6229999999923,,response,,,,99,,,,,,,Space,keypress(Space),,,,,,,,---- -- ----- -- ------ - ------- --- ----------<br>------------- ------ ------ ---- ---- ------- ----- -- ----<br>-------- ------- -- ---------- --- - --- ----- ----- ----<br>---- --- --- ----- --- ---- ---- ------- ----- ---- -------<br>--- --- -- ----- -- --- ---- -- --- ---- if ------ ------<br>--- ----- -- ----,162673.5,162669.5,162193.203,162194.40000000596,162209.877,162676.749,,49,if
screen,html.Screen,2_1_0_1_50,2022-04-28T09:50:04.184Z,,,,,,,,,,,,,,,,,53,,,,,,,,,,,,,,448.65100000594975,,response,,,,99,,,,,,,Space,keypress(Space),,,,,,,,---- -- ----- -- ------ - ------- --- ----------<br>------------- ------ ------ ---- ---- ------- ----- -- ----<br>-------- ------- -- ---------- --- - --- ----- ----- ----<br>---- --- --- ----- --- ---- ---- ------- ----- ---- -------<br>--- --- -- ----- -- --- ---- -- --- ---- -- that's ------<br>--- ----- -- ----,163130,163125.40000000596,162660.075,162673.59999999404,162676.749,163143.621,,50,that's
screen,html.Screen,2_1_0_1_51,2022-04-28T09:50:04.663Z,,,,,,,,,,,,,,,,,53,,,,,,,,,,,,,,461.87899999998626,,response,,,,99,,,,,,,Space,keypress(Space),,,,,,,,---- -- ----- -- ------ - ------- --- ----------<br>------------- ------ ------ ---- ---- ------- ----- -- ----<br>-------- ------- -- ---------- --- - --- ----- ----- ----<br>---- --- --- ----- --- ---- ---- ------- ----- ---- -------<br>--- --- -- ----- -- --- ---- -- --- ---- -- ------ really<br>--- ----- -- ----,163609.09999999404,163605.5,163126.947,163130.09999999404,163143.621,163610.493,,51,really
screen,html.Screen,2_1_0_1_52,2022-04-28T09:50:05.152Z,,,,,,,,,,,,,,,,,53,,,,,,,,,,,,,,482.9070000059728,,response,,,,99,,,,,,,Space,keypress(Space),,,,,,,,---- -- ----- -- ------ - ------- --- ----------<br>------------- ------ ------ ---- ---- ------- ----- -- ----<br>-------- ------- -- ---------- --- - --- ----- ----- ----<br>---- --- --- ----- --- ---- ---- ------- ----- ---- -------<br>--- --- -- ----- -- --- ---- -- --- ---- -- ------ ------<br>not ----- -- ----,164098.30000001192,164093.40000000596,163593.819,163609.19999998808,163610.493,164110.713,,52,not
screen,html.Screen,2_1_0_1_53,2022-04-28T09:50:05.640Z,,,,,,,,,,,,,,,,,53,,,,,,,,,,,,,,470.68700000597164,,response,,,,99,,,,,,,Space,keypress(Space),,,,,,,,---- -- ----- -- ------ - ------- --- ----------<br>------------- ------ ------ ---- ---- ------- ----- -- ----<br>-------- ------- -- ---------- --- - --- ----- ----- ----<br>---- --- --- ----- --- ---- ---- ------- ----- ---- -------<br>--- --- -- ----- -- --- ---- -- --- ---- -- ------ ------<br>--- close -- ----,164586.09999999404,164581.40000000596,164094.039,164098.40000000596,164110.713,164594.259,,53,close
screen,html.Screen,2_1_0_1_54,2022-04-28T09:50:06.087Z,,,,,,,,,,,,,,,,,53,,,,,,,,,,,,,,435.14100000596954,,response,,,,99,,,,,,,Space,keypress(Space),,,,,,,,---- -- ----- -- ------ - ------- --- ----------<br>------------- ------ ------ ---- ---- ------- ----- -- ----<br>-------- ------- -- ---------- --- - --- ----- ----- ----<br>---- --- --- ----- --- ---- ---- ------- ----- ---- -------<br>--- --- -- ----- -- --- ---- -- --- ---- -- ------ ------<br>--- ----- at ----,165033.19999998808,165029.40000000596,164577.585,164586.19999998808,164594.259,165044.457,,54,at
screen,html.Screen,2_1_0_1_55,2022-04-28T09:50:06.640Z,,,,,,,,,,,,,,,,,53,,,,,,,,,,,,,,536.843000011926,,response,,,,99,,,,,,,Space,keypress(Space),,,,,,,,---- -- ----- -- ------ - ------- --- ----------<br>------------- ------ ------ ---- ---- ------- ----- -- ----<br>-------- ------- -- ---------- --- - --- ----- ----- ----<br>---- --- --- ----- --- ---- ---- ------- ----- ---- -------<br>--- --- -- ----- -- --- ---- -- --- ---- -- ------ ------<br>--- ----- -- all.,165585.90000000596,165581.30000001192,165027.783,165033.19999998808,165044.457,165594.699,,55,all.
Item 99,flow.Loop,2_1_0_1,2022-04-28T09:50:06.640Z,,,,,,,,,,,,,,,,,,,,,,,,,,,,,,,28449.11900001191,,completion,,,,,D,,,,,,,,,,,silence,,,,,165586.19999998808,165581.30000001192,137115.507,137117.40000000596,137132.181,165594.699,,,
Question 1,html.Screen,2_1_0_2,2022-04-28T09:50:10.011Z,,,,,,,,,,,,,,,,,,,,,,,,,,,,true,FALSE,,3359.6010000119277,,response,,,,99,D,,,,,,FALSE,click #choice-2,,,,silence,,,,,168957.30000001192,168954.30000001192,165578.025,165586.19999998808,165594.699,168979.521,,,
Question 2,html.Screen,2_1_0_3,2022-04-28T09:50:13.897Z,,,,,,,,,,,,,,,,,,,,,,,,,,,,true,TRUE,,3860.779000011913,,response,,,,99,D,,,,,,TRUE,click #choice-1,,,,silence,,,,,172843.19999998808,172840.30000001192,168962.847,168957.40000000596,168979.521,172864.563,,,
Item 99,flow.Sequence,2_1_0,2022-04-28T09:50:13.897Z,,,,,,,,,,,,,,,,,,,,,,,,,,,,,,,45712.51900001192,,completion,,,,,,,,,,,,,,,,,,,,,172843.40000000596,172840.30000001192,127111.107,127114.69999998808,127127.781,172864.563,,,
Holding screen,html.Screen,2_1_1_0,2022-04-28T09:50:23.908Z,,,,,,,,,,,,,,,,,,,,,,,,,,,,,,,10004.399999999994,,timeout,,,,,,,,,,,,,,,,,,,,,182853.59999999404,182852.289,172847.889,172843.59999999404,172864.563,182868.963,,,
screen,html.Screen,2_1_1_1_0,2022-04-28T09:50:24.752Z,,,,,,,,,,,,,,,,,54,,,,,,,,,,,,,,824.3370000119321,,response,,,,100,,,,,,,Space,keypress(Space),,,,,,,,At --- ---- --- ------ ----- ------- ---- -- --- ------- --<br>------- ---------- ------ -- ----- -- ----- -- ---- ------<br>--- ----- --- --- ------ -------- ----- --- ------ ----- --<br>----- ----- ---------- --- --- ------ ------ ---- -- ------<br>------- --- ------ ----- --- ---- ------- -- ---- --- --<br>------- ------,183698,183693.30000001192,182852.289,182853.80000001192,182868.963,183702.663,,0,At
screen,html.Screen,2_1_1_1_1,2022-04-28T09:50:25.240Z,,,,,,,,,,,,,,,,,54,,,,,,,,,,,,,,478.63700001192046,,response,,,,100,,,,,,,Space,keypress(Space),,,,,,,,-- the ---- --- ------ ----- ------- ---- -- --- ------- --<br>------- ---------- ------ -- ----- -- ----- -- ---- ------<br>--- ----- --- --- ------ -------- ----- --- ------ ----- --<br>----- ----- ---------- --- --- ------ ------ ---- -- ------<br>------- --- ------ ----- --- ---- ------- -- ---- --- --<br>------- ------,184185.40000000596,184181.30000001192,183685.989,183698.09999999404,183702.663,184202.883,,1,the
screen,html.Screen,2_1_1_1_2,2022-04-28T09:50:25.687Z,,,,,,,,,,,,,,,,,54,,,,,,,,,,,,,,426.4170000119193,,response,,,,100,,,,,,,Space,keypress(Space),,,,,,,,-- --- time --- ------ ----- ------- ---- -- --- ------- --<br>------- ---------- ------ -- ----- -- ----- -- ---- ------<br>--- ----- --- --- ------ -------- ----- --- ------ ----- --<br>----- ----- ---------- --- --- ------ ------ ---- -- ------<br>------- --- ------ ----- --- ---- ------- -- ---- --- --<br>------- ------,184632.90000000596,184629.30000001192,184186.209,184185.5,184202.883,184636.407,,2,time
screen,html.Screen,2_1_1_1_3,2022-04-28T09:50:26.143Z,,,,,,,,,,,,,,,,,54,,,,,,,,,,,,,,448.8930000119144,,response,,,,100,,,,,,,Space,keypress(Space),,,,,,,,-- --- ---- the ------ ----- ------- ---- -- --- ------- --<br>------- ---------- ------ -- ----- -- ----- -- ---- ------<br>--- ----- --- --- ------ -------- ----- --- ------ ----- --<br>----- ----- ---------- --- --- ------ ------ ---- -- ------<br>------- --- ------ ----- --- ---- ------- -- ---- --- --<br>------- ------,185088.80000001192,185085.30000001192,184619.733,184633,184636.407,185103.279,,3,the
screen,html.Screen,2_1_1_1_4,2022-04-28T09:50:26.664Z,,,,,,,,,,,,,,,,,54,,,,,,,,,,,,,,502.0210000119114,,response,,,,100,,,,,,,Space,keypress(Space),,,,,,,,-- --- ---- --- French ----- ------- ---- -- --- ------- --<br>------- ---------- ------ -- ----- -- ----- -- ---- ------<br>--- ----- --- --- ------ -------- ----- --- ------ ----- --<br>----- ----- ---------- --- --- ------ ------ ---- -- ------<br>------- --- ------ ----- --- ---- ------- -- ---- --- --<br>------- ------,185609.59999999404,185605.30000001192,185086.605,185088.80000001192,185103.279,185620.173,,4,French
screen,html.Screen,2_1_1_1_5,2022-04-28T09:50:27.136Z,,,,,,,,,,,,,,,,,54,,,,,,,,,,,,,,457.2270000059507,,response,,,,100,,,,,,,Space,keypress(Space),,,,,,,,-- --- ---- --- ------ crown ------- ---- -- --- ------- --<br>------- ---------- ------ -- ----- -- ----- -- ---- ------<br>--- ----- --- --- ------ -------- ----- --- ------ ----- --<br>----- ----- ---------- --- --- ------ ------ ---- -- ------<br>------- --- ------ ----- --- ---- ------- -- ---- --- --<br>------- ------,186082,186077.40000000596,185603.499,185609.69999998808,185620.173,186087.045,,5,crown
screen,html.Screen,2_1_1_1_6,2022-04-28T09:50:27.639Z,,,,,,,,,,,,,,,,,54,,,,,,,,,,,,,,494.15499998806627,,response,,,,100,,,,,,,Space,keypress(Space),,,,,,,,-- --- ---- --- ------ ----- secured ---- -- --- ------- --<br>------- ---------- ------ -- ----- -- ----- -- ---- ------<br>--- ----- --- --- ------ -------- ----- --- ------ ----- --<br>----- ----- ---------- --- --- ------ ------ ---- -- ------<br>------- --- ------ ----- --- ---- ------- -- ---- --- --<br>------- ------,186584.90000000596,186581.19999998808,186070.371,186082.09999999404,186087.045,186587.265,,6,secured
screen,html.Screen,2_1_1_1_7,2022-04-28T09:50:28.127Z,,,,,,,,,,,,,,,,,54,,,,,,,,,,,,,,482.03500001190696,,response,,,,100,,,,,,,Space,keypress(Space),,,,,,,,-- --- ---- --- ------ ----- ------- much -- --- ------- --<br>------- ---------- ------ -- ----- -- ----- -- ---- ------<br>--- ----- --- --- ------ -------- ----- --- ------ ----- --<br>----- ----- ---------- --- --- ------ ------ ---- -- ------<br>------- --- ------ ----- --- ---- ------- -- ---- --- --<br>------- ------,187073.19999998808,187069.30000001192,186570.591,186585.09999999404,186587.265,187087.485,,7,much
screen,html.Screen,2_1_1_1_8,2022-04-28T09:50:28.592Z,,,,,,,,,,,,,,,,,54,,,,,,,,,,,,,,445.91500000597443,,response,,,,100,,,,,,,Space,keypress(Space),,,,,,,,-- --- ---- --- ------ ----- ------- ---- of --- ------- --<br>------- ---------- ------ -- ----- -- ----- -- ---- ------<br>--- ----- --- --- ------ -------- ----- --- ------ ----- --<br>----- ----- ---------- --- --- ------ ------ ---- -- ------<br>------- --- ------ ----- --- ---- ------- -- ---- --- --<br>------- ------,187537.80000001192,187533.40000000596,187070.811,187073.30000001192,187087.485,187554.357,,8,of
screen,html.Screen,2_1_1_1_9,2022-04-28T09:50:29.065Z,,,,,,,,,,,,,,,,,54,,,,,,,,,,,,,,451.0430000059714,,response,,,,100,,,,,,,Space,keypress(Space),,,,,,,,-- --- ---- --- ------ ----- ------- ---- -- its ------- --<br>------- ---------- ------ -- ----- -- ----- -- ---- ------<br>--- ----- --- --- ------ -------- ----- --- ------ ----- --<br>----- ----- ---------- --- --- ------ ------ ---- -- ------<br>------- --- ------ ----- --- ---- ------- -- ---- --- --<br>------- ------,188010.40000000596,188005.40000000596,187537.683,187538,187554.357,188021.229,,9,its
screen,html.Screen,2_1_1_1_10,2022-04-28T09:50:29.528Z,,,,,,,,,,,,,,,,,54,,,,,,,,,,,,,,448.1710000059684,,response,,,,100,,,,,,,Space,keypress(Space),,,,,,,,-- --- ---- --- ------ ----- ------- ---- -- --- revenue --<br>------- ---------- ------ -- ----- -- ----- -- ---- ------<br>--- ----- --- --- ------ -------- ----- --- ------ ----- --<br>----- ----- ---------- --- --- ------ ------ ---- -- ------<br>------- --- ------ ----- --- ---- ------- -- ---- --- --<br>------- ------,188474.30000001192,188469.40000000596,188004.555,188010.40000000596,188021.229,188488.101,,10,revenue
screen,html.Screen,2_1_1_1_11,2022-04-28T09:50:29.968Z,,,,,,,,,,,,,,,,,54,,,,,,,,,,,,,,421.29900000596535,,response,,,,100,,,,,,,Space,keypress(Space),,,,,,,,-- --- ---- --- ------ ----- ------- ---- -- --- ------- by<br>------- ---------- ------ -- ----- -- ----- -- ---- ------<br>--- ----- --- --- ------ -------- ----- --- ------ ----- --<br>----- ----- ---------- --- --- ------ ------ ---- -- ------<br>------- --- ------ ----- --- ---- ------- -- ---- --- --<br>------- ------,188914.19999998808,188909.40000000596,188471.427,188474.30000001192,188488.101,188921.625,,11,by
screen,html.Screen,2_1_1_1_12,2022-04-28T09:50:30.472Z,,,,,,,,,,,,,,,,,54,,,,,,,,,,,,,,491.77500000596046,,response,,,,100,,,,,,,Space,keypress(Space),,,,,,,,-- --- ---- --- ------ ----- ------- ---- -- --- ------- --<br>issuing ---------- ------ -- ----- -- ----- -- ---- ------<br>--- ----- --- --- ------ -------- ----- --- ------ ----- --<br>----- ----- ---------- --- --- ------ ------ ---- -- ------<br>------- --- ------ ----- --- ---- ------- -- ---- --- --<br>------- ------,189418.30000001192,189413.40000000596,188904.951,188914.19999998808,188921.625,189421.845,,12,issuing
screen,html.Screen,2_1_1_1_13,2022-04-28T09:50:30.943Z,,,,,,,,,,,,,,,,,54,,,,,,,,,,,,,,463.5550000059593,,response,,,,100,,,,,,,Space,keypress(Space),,,,,,,,-- --- ---- --- ------ ----- ------- ---- -- --- ------- --<br>------- government ------ -- ----- -- ----- -- ---- ------<br>--- ----- --- --- ------ -------- ----- --- ------ ----- --<br>----- ----- ---------- --- --- ------ ------ ---- -- ------<br>------- --- ------ ----- --- ---- ------- -- ---- --- --<br>------- ------,189889.19999998808,189885.40000000596,189405.171,189418.40000000596,189421.845,189905.391,,13,government
screen,html.Screen,2_1_1_1_14,2022-04-28T09:50:31.480Z,,,,,,,,,,,,,,,,,54,,,,,,,,,,,,,,516.0090000059572,,response,,,,100,,,,,,,Space,keypress(Space),,,,,,,,-- --- ---- --- ------ ----- ------- ---- -- --- ------- --<br>------- ---------- bonds. -- ----- -- ----- -- ---- ------<br>--- ----- --- --- ------ -------- ----- --- ------ ----- --<br>----- ----- ---------- --- --- ------ ------ ---- -- ------<br>------- --- ------ ----- --- ---- ------- -- ---- --- --<br>------- ------,190426.19999998808,190421.40000000596,189888.717,189889.30000001192,189905.391,190438.959,,14,bonds.
screen,html.Screen,2_1_1_1_15,2022-04-28T09:50:31.944Z,,,,,,,,,,,,,,,,,54,,,,,,,,,,,,,,446.4410000059579,,response,,,,100,,,,,,,Space,keypress(Space),,,,,,,,-- --- ---- --- ------ ----- ------- ---- -- --- ------- --<br>------- ---------- ------ In ----- -- ----- -- ---- ------<br>--- ----- --- --- ------ -------- ----- --- ------ ----- --<br>----- ----- ---------- --- --- ------ ------ ---- -- ------<br>------- --- ------ ----- --- ---- ------- -- ---- --- --<br>------- ------,190890,190885.40000000596,190422.285,190426.30000001192,190438.959,190905.831,,15,In
screen,html.Screen,2_1_1_1_16,2022-04-28T09:50:32.487Z,,,,,,,,,,,,,,,,,54,,,,,,,,,,,,,,523.5690000059549,,response,,,,100,,,,,,,Space,keypress(Space),,,,,,,,"-- --- ---- --- ------ ----- ------- ---- -- --- ------- --<br>------- ---------- ------ -- 1727, -- ----- -- ---- ------<br>--- ----- --- --- ------ -------- ----- --- ------ ----- --<br>----- ----- ---------- --- --- ------ ------ ---- -- ------<br>------- --- ------ ----- --- ---- ------- -- ---- --- --<br>------- ------",191433.19999998808,191429.40000000596,190889.157,190890,190905.831,191439.399,,16,"1727,"
screen,html.Screen,2_1_1_1_17,2022-04-28T09:50:33.408Z,,,,,,,,,,,,,,,,,54,,,,,,,,,,,,,,910.0010000059556,,response,,,,100,,,,,,,Space,keypress(Space),,,,,,,,-- --- ---- --- ------ ----- ------- ---- -- --- ------- --<br>------- ---------- ------ -- ----- in ----- -- ---- ------<br>--- ----- --- --- ------ -------- ----- --- ------ ----- --<br>----- ----- ---------- --- --- ------ ------ ---- -- ------<br>------- --- ------ ----- --- ---- ------- -- ---- --- --<br>------- ------,192354.30000001192,192349.40000000596,191422.725,191433.30000001192,191439.399,192356.469,,17,in
screen,html.Screen,2_1_1_1_18,2022-04-28T09:50:33.944Z,,,,,,,,,,,,,,,,,54,,,,,,,,,,,,,,528.9310000059486,,response,,,,100,,,,,,,Space,keypress(Space),,,,,,,,-- --- ---- --- ------ ----- ------- ---- -- --- ------- --<br>------- ---------- ------ -- ----- -- order -- ---- ------<br>--- ----- --- --- ------ -------- ----- --- ------ ----- --<br>----- ----- ---------- --- --- ------ ------ ---- -- ------<br>------- --- ------ ----- --- ---- ------- -- ---- --- --<br>------- ------,192889.90000000596,192885.40000000596,192339.795,192354.30000001192,192356.469,192906.711,,18,order
screen,html.Screen,2_1_1_1_19,2022-04-28T09:50:34.392Z,,,,,,,,,,,,,,,,,54,,,,,,,,,,,,,,426.6890000059502,,response,,,,100,,,,,,,Space,keypress(Space),,,,,,,,-- --- ---- --- ------ ----- ------- ---- -- --- ------- --<br>------- ---------- ------ -- ----- -- ----- to ---- ------<br>--- ----- --- --- ------ -------- ----- --- ------ ----- --<br>----- ----- ---------- --- --- ------ ------ ---- -- ------<br>------- --- ------ ----- --- ---- ------- -- ---- --- --<br>------- ------,193338.09999999404,193333.40000000596,192890.037,192890,192906.711,193340.235,,19,to
screen,html.Screen,2_1_1_1_20,2022-04-28T09:50:34.945Z,,,,,,,,,,,,,,,,,54,,,,,,,,,,,,,,545.1650000059744,,response,,,,100,,,,,,,Space,keypress(Space),,,,,,,,-- --- ---- --- ------ ----- ------- ---- -- --- ------- --<br>------- ---------- ------ -- ----- -- ----- -- save ------<br>--- ----- --- --- ------ -------- ----- --- ------ ----- --<br>----- ----- ---------- --- --- ------ ------ ---- -- ------<br>------- --- ------ ----- --- ---- ------- -- ---- --- --<br>------- ------,193890.30000001192,193885.40000000596,193323.561,193338.09999999404,193340.235,193907.151,,20,save
screen,html.Screen,2_1_1_1_21,2022-04-28T09:50:35.464Z,,,,,,,,,,,,,,,,,54,,,,,,,,,,,,,,498.3489999999874,,response,,,,100,,,,,,,Space,keypress(Space),,,,,,,,"-- --- ---- --- ------ ----- ------- ---- -- --- ------- --<br>------- ---------- ------ -- ----- -- ----- -- ---- money,<br>--- ----- --- --- ------ -------- ----- --- ------ ----- --<br>----- ----- ---------- --- --- ------ ------ ---- -- ------<br>------- --- ------ ----- --- ---- ------- -- ---- --- --<br>------- ------",194410,194405.5,193890.477,193890.40000000596,193907.151,194424.045,,21,"money,"
screen,html.Screen,2_1_1_1_22,2022-04-28T09:50:35.977Z,,,,,,,,,,,,,,,,,54,,,,,,,,,,,,,,493.35500000594766,,response,,,,100,,,,,,,Space,keypress(Space),,,,,,,,-- --- ---- --- ------ ----- ------- ---- -- --- ------- --<br>------- ---------- ------ -- ----- -- ----- -- ---- ------<br>the ----- --- --- ------ -------- ----- --- ------ ----- --<br>----- ----- ---------- --- --- ------ ------ ---- -- ------<br>------- --- ------ ----- --- ---- ------- -- ---- --- --<br>------- ------,194923.09999999404,194917.40000000596,194407.371,194410.19999998808,194424.045,194940.939,,22,the
screen,html.Screen,2_1_1_1_23,2022-04-28T09:50:36.472Z,,,,,,,,,,,,,,,,,54,,,,,,,,,,,,,,472.4610000059474,,response,,,,100,,,,,,,Space,keypress(Space),,,,,,,,-- --- ---- --- ------ ----- ------- ---- -- --- ------- --<br>------- ---------- ------ -- ----- -- ----- -- ---- ------<br>--- state --- --- ------ -------- ----- --- ------ ----- --<br>----- ----- ---------- --- --- ------ ------ ---- -- ------<br>------- --- ------ ----- --- ---- ------- -- ---- --- --<br>------- ------,195418.09999999404,195413.40000000596,194924.265,194923.19999998808,194940.939,195424.485,,23,state
screen,html.Screen,2_1_1_1_24,2022-04-28T09:50:36.977Z,,,,,,,,,,,,,,,,,54,,,,,,,,,,,,,,492.91500000597443,,response,,,,100,,,,,,,Space,keypress(Space),,,,,,,,-- --- ---- --- ------ ----- ------- ---- -- --- ------- --<br>------- ---------- ------ -- ----- -- ----- -- ---- ------<br>--- ----- cut --- ------ -------- ----- --- ------ ----- --<br>----- ----- ---------- --- --- ------ ------ ---- -- ------<br>------- --- ------ ----- --- ---- ------- -- ---- --- --<br>------- ------,195922.30000001192,195917.40000000596,195407.811,195418.19999998808,195424.485,195924.705,,24,cut
screen,html.Screen,2_1_1_1_25,2022-04-28T09:50:37.456Z,,,,,,,,,,,,,,,,,54,,,,,,,,,,,,,,472.69500000597327,,response,,,,100,,,,,,,Space,keypress(Space),,,,,,,,-- --- ---- --- ------ ----- ------- ---- -- --- ------- --<br>------- ---------- ------ -- ----- -- ----- -- ---- ------<br>--- ----- --- the ------ -------- ----- --- ------ ----- --<br>----- ----- ---------- --- --- ------ ------ ---- -- ------<br>------- --- ------ ----- --- ---- ------- -- ---- --- --<br>------- ------,196402.09999999404,196397.40000000596,195908.031,195922.40000000596,195924.705,196408.251,,25,the
screen,html.Screen,2_1_1_1_26,2022-04-28T09:50:37.936Z,,,,,,,,,,,,,,,,,54,,,,,,,,,,,,,,469.1490000059712,,response,,,,100,,,,,,,Space,keypress(Space),,,,,,,,-- --- ---- --- ------ ----- ------- ---- -- --- ------- --<br>------- ---------- ------ -- ----- -- ----- -- ---- ------<br>--- ----- --- --- bonds' -------- ----- --- ------ ----- --<br>----- ----- ---------- --- --- ------ ------ ---- -- ------<br>------- --- ------ ----- --- ---- ------- -- ---- --- --<br>------- ------,196882,196877.40000000596,196391.577,196402.09999999404,196408.251,196891.797,,26,bonds'
screen,html.Screen,2_1_1_1_27,2022-04-28T09:50:38.432Z,,,,,,,,,,,,,,,,,54,,,,,,,,,,,,,,481.6030000059691,,response,,,,100,,,,,,,Space,keypress(Space),,,,,,,,-- --- ---- --- ------ ----- ------- ---- -- --- ------- --<br>------- ---------- ------ -- ----- -- ----- -- ---- ------<br>--- ----- --- --- ------ interest ----- --- ------ ----- --<br>----- ----- ---------- --- --- ------ ------ ---- -- ------<br>------- --- ------ ----- --- ---- ------- -- ---- --- --<br>------- ------,197378.19999998808,197373.40000000596,196875.123,196882,196891.797,197392.017,,27,interest
screen,html.Screen,2_1_1_1_28,2022-04-28T09:50:39.176Z,,,,,,,,,,,,,,,,,54,,,,,,,,,,,,,,725.3830000059679,,response,,,,100,,,,,,,Space,keypress(Space),,,,,,,,-- --- ---- --- ------ ----- ------- ---- -- --- ------- --<br>------- ---------- ------ -- ----- -- ----- -- ---- ------<br>--- ----- --- --- ------ -------- rate. --- ------ ----- --<br>----- ----- ---------- --- --- ------ ------ ---- -- ------<br>------- --- ------ ----- --- ---- ------- -- ---- --- --<br>------- ------,198122,198117.40000000596,197375.343,197378.30000001192,197392.017,198125.673,,28,rate.
screen,html.Screen,2_1_1_1_29,2022-04-28T09:50:39.753Z,,,,,,,,,,,,,,,,,54,,,,,,,,,,,,,,567.8269999999902,,response,,,,100,,,,,,,Space,keypress(Space),,,,,,,,-- --- ---- --- ------ ----- ------- ---- -- --- ------- --<br>------- ---------- ------ -- ----- -- ----- -- ---- ------<br>--- ----- --- --- ------ -------- ----- The ------ ----- --<br>----- ----- ---------- --- --- ------ ------ ---- -- ------<br>------- --- ------ ----- --- ---- ------- -- ---- --- --<br>------- ------,198698.30000001192,198693.5,198108.999,198122.09999999404,198125.673,198709.263,,29,The
screen,html.Screen,2_1_1_1_30,2022-04-28T09:50:40.272Z,,,,,,,,,,,,,,,,,54,,,,,,,,,,,,,,504.1370000059542,,response,,,,100,,,,,,,Space,keypress(Space),,,,,,,,-- --- ---- --- ------ ----- ------- ---- -- --- ------- --<br>------- ---------- ------ -- ----- -- ----- -- ---- ------<br>--- ----- --- --- ------ -------- ----- --- market ----- --<br>----- ----- ---------- --- --- ------ ------ ---- -- ------<br>------- --- ------ ----- --- ---- ------- -- ---- --- --<br>------- ------,199217.90000000596,199213.40000000596,198692.589,198698.40000000596,198709.263,199242.831,,30,market
screen,html.Screen,2_1_1_1_31,2022-04-28T09:50:40.768Z,,,,,,,,,,,,,,,,,54,,,,,,,,,,,,,,466.5690000059549,,response,,,,100,,,,,,,Space,keypress(Space),,,,,,,,-- --- ---- --- ------ ----- ------- ---- -- --- ------- --<br>------- ---------- ------ -- ----- -- ----- -- ---- ------<br>--- ----- --- --- ------ -------- ----- --- ------ value --<br>----- ----- ---------- --- --- ------ ------ ---- -- ------<br>------- --- ------ ----- --- ---- ------- -- ---- --- --<br>------- ------,199714,199709.40000000596,199209.483,199218,199242.831,199726.377,,31,value
screen,html.Screen,2_1_1_1_32,2022-04-28T09:50:41.288Z,,,,,,,,,,,,,,,,,54,,,,,,,,,,,,,,503.1229999999923,,response,,,,100,,,,,,,Space,keypress(Space),,,,,,,,-- --- ---- --- ------ ----- ------- ---- -- --- ------- --<br>------- ---------- ------ -- ----- -- ----- -- ---- ------<br>--- ----- --- --- ------ -------- ----- --- ------ ----- of<br>----- ----- ---------- --- --- ------ ------ ---- -- ------<br>------- --- ------ ----- --- ---- ------- -- ---- --- --<br>------- ------,200234.09999999404,200229.5,199709.703,199714.19999998808,199726.377,200243.271,,32,of
screen,html.Screen,2_1_1_1_33,2022-04-28T09:50:41.960Z,,,,,,,,,,,,,,,,,54,,,,,,,,,,,,,,658.1290000059525,,response,,,,100,,,,,,,Space,keypress(Space),,,,,,,,-- --- ---- --- ------ ----- ------- ---- -- --- ------- --<br>------- ---------- ------ -- ----- -- ----- -- ---- ------<br>--- ----- --- --- ------ -------- ----- --- ------ ----- --<br>these ----- ---------- --- --- ------ ------ ---- -- ------<br>------- --- ------ ----- --- ---- ------- -- ---- --- --<br>------- ------,200906,200901.40000000596,200226.597,200234.30000001192,200243.271,200910.231,,33,these
screen,html.Screen,2_1_1_1_34,2022-04-28T09:50:42.496Z,,,,,,,,,,,,,,,,,54,,,,,,,,,,,,,,527.1690000059607,,response,,,,100,,,,,,,Space,keypress(Space),,,,,,,,-- --- ---- --- ------ ----- ------- ---- -- --- ------- --<br>------- ---------- ------ -- ----- -- ----- -- ---- ------<br>--- ----- --- --- ------ -------- ----- --- ------ ----- --<br>----- bonds ---------- --- --- ------ ------ ---- -- ------<br>------- --- ------ ----- --- ---- ------- -- ---- --- --<br>------- ------,201442,201437.40000000596,200893.557,200906.09999999404,200910.231,201443.799,,34,bonds
screen,html.Screen,2_1_1_1_35,2022-04-28T09:50:43.135Z,,,,,,,,,,,,,,,,,54,,,,,,,,,,,,,,633.6010000059614,,response,,,,100,,,,,,,Space,keypress(Space),,,,,,,,"-- --- ---- --- ------ ----- ------- ---- -- --- ------- --<br>------- ---------- ------ -- ----- -- ----- -- ---- ------<br>--- ----- --- --- ------ -------- ----- --- ------ ----- --<br>----- ----- plummeted, --- --- ------ ------ ---- -- ------<br>------- --- ------ ----- --- ---- ------- -- ---- --- --<br>------- ------",202080.90000000596,202077.40000000596,201427.125,201442,201443.799,202094.085,,35,"plummeted,"
screen,html.Screen,2_1_1_1_36,2022-04-28T09:50:43.624Z,,,,,,,,,,,,,,,,,54,,,,,,,,,,,,,,471.3150000059686,,response,,,,100,,,,,,,Space,keypress(Space),,,,,,,,-- --- ---- --- ------ ----- ------- ---- -- --- ------- --<br>------- ---------- ------ -- ----- -- ----- -- ---- ------<br>--- ----- --- --- ------ -------- ----- --- ------ ----- --<br>----- ----- ---------- and --- ------ ------ ---- -- ------<br>------- --- ------ ----- --- ---- ------- -- ---- --- --<br>------- ------,202570.19999998808,202565.40000000596,202077.411,202081,202094.085,202577.631,,36,and
screen,html.Screen,2_1_1_1_37,2022-04-28T09:50:44.113Z,,,,,,,,,,,,,,,,,54,,,,,,,,,,,,,,475.7690000059665,,response,,,,100,,,,,,,Space,keypress(Space),,,,,,,,-- --- ---- --- ------ ----- ------- ---- -- --- ------- --<br>------- ---------- ------ -- ----- -- ----- -- ---- ------<br>--- ----- --- --- ------ -------- ----- --- ------ ----- --<br>----- ----- ---------- --- the ------ ------ ---- -- ------<br>------- --- ------ ----- --- ---- ------- -- ---- --- --<br>------- ------,203058.5,203053.40000000596,202560.957,202570.30000001192,202577.631,203077.851,,37,the
screen,html.Screen,2_1_1_1_38,2022-04-28T09:50:44.640Z,,,,,,,,,,,,,,,,,54,,,,,,,,,,,,,,503.54900000596535,,response,,,,100,,,,,,,Space,keypress(Space),,,,,,,,-- --- ---- --- ------ ----- ------- ---- -- --- ------- --<br>------- ---------- ------ -- ----- -- ----- -- ---- ------<br>--- ----- --- --- ------ -------- ----- --- ------ ----- --<br>----- ----- ---------- --- --- market ------ ---- -- ------<br>------- --- ------ ----- --- ---- ------- -- ---- --- --<br>------- ------,203586,203581.40000000596,203061.177,203058.80000001192,203077.851,203594.745,,38,market
screen,html.Screen,2_1_1_1_39,2022-04-28T09:50:45.137Z,,,,,,,,,,,,,,,,,54,,,,,,,,,,,,,,482.6550000059651,,response,,,,100,,,,,,,Space,keypress(Space),,,,,,,,-- --- ---- --- ------ ----- ------- ---- -- --- ------- --<br>------- ---------- ------ -- ----- -- ----- -- ---- ------<br>--- ----- --- --- ------ -------- ----- --- ------ ----- --<br>----- ----- ---------- --- --- ------ became ---- -- ------<br>------- --- ------ ----- --- ---- ------- -- ---- --- --<br>------- ------,204082.40000000596,204077.40000000596,203578.071,203586.09999999404,203594.745,204094.965,,39,became
screen,html.Screen,2_1_1_1_40,2022-04-28T09:50:45.832Z,,,,,,,,,,,,,,,,,54,,,,,,,,,,,,,,678.435000005964,,response,,,,100,,,,,,,Space,keypress(Space),,,,,,,,-- --- ---- --- ------ ----- ------- ---- -- --- ------- --<br>------- ---------- ------ -- ----- -- ----- -- ---- ------<br>--- ----- --- --- ------ -------- ----- --- ------ ----- --<br>----- ----- ---------- --- --- ------ ------ wary -- ------<br>------- --- ------ ----- --- ---- ------- -- ---- --- --<br>------- ------,204778.09999999404,204773.40000000596,204078.291,204082.40000000596,204094.965,204795.273,,40,wary
screen,html.Screen,2_1_1_1_41,2022-04-28T09:50:46.320Z,,,,,,,,,,,,,,,,,54,,,,,,,,,,,,,,466.12700000597397,,response,,,,100,,,,,,,Space,keypress(Space),,,,,,,,-- --- ---- --- ------ ----- ------- ---- -- --- ------- --<br>------- ---------- ------ -- ----- -- ----- -- ---- ------<br>--- ----- --- --- ------ -------- ----- --- ------ ----- --<br>----- ----- ---------- --- --- ------ ------ ---- of ------<br>------- --- ------ ----- --- ---- ------- -- ---- --- --<br>------- ------,205266.09999999404,205261.40000000596,204778.599,204778.30000001192,204795.273,205278.819,,41,of
screen,html.Screen,2_1_1_1_42,2022-04-28T09:50:46.864Z,,,,,,,,,,,,,,,,,54,,,,,,,,,,,,,,526.6810000000114,,response,,,,100,,,,,,,Space,keypress(Space),,,,,,,,-- --- ---- --- ------ ----- ------- ---- -- --- ------- --<br>------- ---------- ------ -- ----- -- ----- -- ---- ------<br>--- ----- --- --- ------ -------- ----- --- ------ ----- --<br>----- ----- ---------- --- --- ------ ------ ---- -- French<br>------- --- ------ ----- --- ---- ------- -- ---- --- --<br>------- ------,205810.09999999404,205805.5,205262.145,205266.09999999404,205278.819,205812.387,,42,French
screen,html.Screen,2_1_1_1_43,2022-04-28T09:50:47.488Z,,,,,,,,,,,,,,,,,54,,,,,,,,,,,,,,617.0130000059726,,response,,,,100,,,,,,,Space,keypress(Space),,,,,,,,-- --- ---- --- ------ ----- ------- ---- -- --- ------- --<br>------- ---------- ------ -- ----- -- ----- -- ---- ------<br>--- ----- --- --- ------ -------- ----- --- ------ ----- --<br>----- ----- ---------- --- --- ------ ------ ---- -- ------<br>credit. --- ------ ----- --- ---- ------- -- ---- --- --<br>------- ------,206433.5,206429.40000000596,205795.713,205810.09999999404,205812.387,206445.999,,43,credit.
screen,html.Screen,2_1_1_1_44,2022-04-28T09:50:47.984Z,,,,,,,,,,,,,,,,,54,,,,,,,,,,,,,,479.40100000594975,,response,,,,100,,,,,,,Space,keypress(Space),,,,,,,,-- --- ---- --- ------ ----- ------- ---- -- --- ------- --<br>------- ---------- ------ -- ----- -- ----- -- ---- ------<br>--- ----- --- --- ------ -------- ----- --- ------ ----- --<br>----- ----- ---------- --- --- ------ ------ ---- -- ------<br>------- The ------ ----- --- ---- ------- -- ---- --- --<br>------- ------,206930.09999999404,206925.40000000596,206429.325,206433.90000000596,206445.999,206946.219,,44,The
screen,html.Screen,2_1_1_1_45,2022-04-28T09:50:48.464Z,,,,,,,,,,,,,,,,,54,,,,,,,,,,,,,,459.1810000059486,,response,,,,100,,,,,,,Space,keypress(Space),,,,,,,,-- --- ---- --- ------ ----- ------- ---- -- --- ------- --<br>------- ---------- ------ -- ----- -- ----- -- ---- ------<br>--- ----- --- --- ------ -------- ----- --- ------ ----- --<br>----- ----- ---------- --- --- ------ ------ ---- -- ------<br>------- --- French ----- --- ---- ------- -- ---- --- --<br>------- ------,207409.40000000596,207405.40000000596,206929.545,206930.19999998808,206946.219,207413.091,,45,French
screen,html.Screen,2_1_1_1_46,2022-04-28T09:50:48.920Z,,,,,,,,,,,,,,,,,54,,,,,,,,,,,,,,448.4090000000142,,response,,,,100,,,,,,,Space,keypress(Space),,,,,,,,-- --- ---- --- ------ ----- ------- ---- -- --- ------- --<br>------- ---------- ------ -- ----- -- ----- -- ---- ------<br>--- ----- --- --- ------ -------- ----- --- ------ ----- --<br>----- ----- ---------- --- --- ------ ------ ---- -- ------<br>------- --- ------ state --- ---- ------- -- ---- --- --<br>------- ------,207866.09999999404,207861.5,207396.417,207409.5,207413.091,207879.963,,46,state
screen,html.Screen,2_1_1_1_47,2022-04-28T09:50:49.376Z,,,,,,,,,,,,,,,,,54,,,,,,,,,,,,,,437.43700000597164,,response,,,,100,,,,,,,Space,keypress(Space),,,,,,,,-- --- ---- --- ------ ----- ------- ---- -- --- ------- --<br>------- ---------- ------ -- ----- -- ----- -- ---- ------<br>--- ----- --- --- ------ -------- ----- --- ------ ----- --<br>----- ----- ---------- --- --- ------ ------ ---- -- ------<br>------- --- ------ ----- was ---- ------- -- ---- --- --<br>------- ------,208321.19999998808,208317.40000000596,207863.289,207866.19999998808,207879.963,208330.161,,47,was
screen,html.Screen,2_1_1_1_48,2022-04-28T09:50:49.840Z,,,,,,,,,,,,,,,,,54,,,,,,,,,,,,,,451.2390000059677,,response,,,,100,,,,,,,Space,keypress(Space),,,,,,,,-- --- ---- --- ------ ----- ------- ---- -- --- ------- --<br>------- ---------- ------ -- ----- -- ----- -- ---- ------<br>--- ----- --- --- ------ -------- ----- --- ------ ----- --<br>----- ----- ---------- --- --- ------ ------ ---- -- ------<br>------- --- ------ ----- --- left ------- -- ---- --- --<br>------- ------,208785.80000001192,208781.40000000596,208313.487,208321.30000001192,208330.161,208797.033,,48,left
screen,html.Screen,2_1_1_1_49,2022-04-28T09:50:50.336Z,,,,,,,,,,,,,,,,,54,,,,,,,,,,,,,,480.36700000596466,,response,,,,100,,,,,,,Space,keypress(Space),,,,,,,,-- --- ---- --- ------ ----- ------- ---- -- --- ------- --<br>------- ---------- ------ -- ----- -- ----- -- ---- ------<br>--- ----- --- --- ------ -------- ----- --- ------ ----- --<br>----- ----- ---------- --- --- ------ ------ ---- -- ------<br>------- --- ------ ----- --- ---- without -- ---- --- --<br>------- ------,209281.90000000596,209277.40000000596,208780.359,208785.90000000596,208797.033,209297.253,,49,without
screen,html.Screen,2_1_1_1_50,2022-04-28T09:50:50.800Z,,,,,,,,,,,,,,,,,54,,,,,,,,,,,,,,444.04700001192396,,response,,,,100,,,,,,,Space,keypress(Space),,,,,,,,-- --- ---- --- ------ ----- ------- ---- -- --- ------- --<br>------- ---------- ------ -- ----- -- ----- -- ---- ------<br>--- ----- --- --- ------ -------- ----- --- ------ ----- --<br>----- ----- ---------- --- --- ------ ------ ---- -- ------<br>------- --- ------ ----- --- ---- ------- an ---- --- --<br>------- ------,209745.69999998808,209741.30000001192,209280.579,209282,209297.253,209747.451,,50,an
screen,html.Screen,2_1_1_1_51,2022-04-28T09:50:51.248Z,,,,,,,,,,,,,,,,,54,,,,,,,,,,,,,,442.04899999999907,,response,,,,100,,,,,,,Space,keypress(Space),,,,,,,,-- --- ---- --- ------ ----- ------- ---- -- --- ------- --<br>------- ---------- ------ -- ----- -- ----- -- ---- ------<br>--- ----- --- --- ------ -------- ----- --- ------ ----- --<br>----- ----- ---------- --- --- ------ ------ ---- -- ------<br>------- --- ------ ----- --- ---- ------- -- easy --- --<br>------- ------,210194.09999999404,210189.5,209730.777,209745.69999998808,209747.451,210197.649,,51,easy
screen,html.Screen,2_1_1_1_52,2022-04-28T09:50:51.728Z,,,,,,,,,,,,,,,,,54,,,,,,,,,,,,,,471.8509999999951,,response,,,,100,,,,,,,Space,keypress(Space),,,,,,,,-- --- ---- --- ------ ----- ------- ---- -- --- ------- --<br>------- ---------- ------ -- ----- -- ----- -- ---- ------<br>--- ----- --- --- ------ -------- ----- --- ------ ----- --<br>----- ----- ---------- --- --- ------ ------ ---- -- ------<br>------- --- ------ ----- --- ---- ------- -- ---- way --<br>------- ------,210674.09999999404,210669.5,210180.975,210194.19999998808,210197.649,210681.195,,52,way
screen,html.Screen,2_1_1_1_53,2022-04-28T09:50:52.169Z,,,,,,,,,,,,,,,,,54,,,,,,,,,,,,,,428.2050000059535,,response,,,,100,,,,,,,Space,keypress(Space),,,,,,,,-- --- ---- --- ------ ----- ------- ---- -- --- ------- --<br>------- ---------- ------ -- ----- -- ----- -- ---- ------<br>--- ----- --- --- ------ -------- ----- --- ------ ----- --<br>----- ----- ---------- --- --- ------ ------ ---- -- ------<br>------- --- ------ ----- --- ---- ------- -- ---- --- of<br>------- ------,211114.30000001192,211109.40000000596,210664.521,210674.19999998808,210681.195,211131.393,,53,of
screen,html.Screen,2_1_1_1_54,2022-04-28T09:50:52.631Z,,,,,,,,,,,,,,,,,54,,,,,,,,,,,,,,442.0070000059495,,response,,,,100,,,,,,,Space,keypress(Space),,,,,,,,-- --- ---- --- ------ ----- ------- ---- -- --- ------- --<br>------- ---------- ------ -- ----- -- ----- -- ---- ------<br>--- ----- --- --- ------ -------- ----- --- ------ ----- --<br>----- ----- ---------- --- --- ------ ------ ---- -- ------<br>------- --- ------ ----- --- ---- ------- -- ---- --- --<br>raising ------,211576.80000001192,211573.40000000596,211114.719,211114.30000001192,211131.393,211581.591,,54,raising
screen,html.Screen,2_1_1_1_55,2022-04-28T09:50:53.088Z,,,,,,,,,,,,,,,,,54,,,,,,,,,,,,,,447.80900000597467,,response,,,,100,,,,,,,Space,keypress(Space),,,,,,,,-- --- ---- --- ------ ----- ------- ---- -- --- ------- --<br>------- ---------- ------ -- ----- -- ----- -- ---- ------<br>--- ----- --- --- ------ -------- ----- --- ------ ----- --<br>----- ----- ---------- --- --- ------ ------ ---- -- ------<br>------- --- ------ ----- --- ---- ------- -- ---- --- --<br>------- money.,212034.09999999404,212029.40000000596,211564.917,211576.90000000596,211581.591,212048.463,,55,money.
Item 100,flow.Loop,2_1_1_1,2022-04-28T09:50:53.089Z,,,,,,,,,,,,,,,,,,,,,,,,,,,,,,,29160.43700000597,,completion,,,,,D,,,,,,,,,,,silence,,,,,212034.30000001192,212029.40000000596,182852.289,182853.69999998808,182868.963,212048.463,,,
Question 1,html.Screen,2_1_1_2,2022-04-28T09:50:55.408Z,,,,,,,,,,,,,,,,,,,,,,,,,,,,true,TRUE,,2301.7369999880902,,response,,,,100,D,,,,,,TRUE,click #choice-1,,,,silence,,,,,214353.5,214350.19999998808,212031.789,212034.30000001192,212048.463,214366.149,,,
Question 2,html.Screen,2_1_1_3,2022-04-28T09:50:57.953Z,,,,,,,,,,,,,,,,,,,,,,,,,,,,false,FALSE,,2529.850999999995,,response,,,,100,D,,,,,,TRUE,click #choice-1,,,,silence,,,,,216898.30000001192,216896,214349.475,214353.5,214366.149,216917.271,,,
Item 100,flow.Sequence,2_1_1,2022-04-28T09:50:57.953Z,,,,,,,,,,,,,,,,,,,,,,,,,,,,,,,44031.437000000005,,completion,,,,,,,,,,,,,,,,,,,,,216898.5,216896,172847.889,172843.5,172864.563,216917.271,,,
End of Practice,html.Page,2_1_2,2022-04-28T09:51:02.651Z,,,,,,,,,,,,,,,,,,,,,,,,,,,,,,,4679.428999988071,,form submission,,,,,,,,,,,,,,,,,,,,,221596.90000000596,221596.69999998808,216900.597,216898.5,216917.271,221619.339,,,
Practice,flow.Sequence,2_1,2022-04-28T09:51:02.651Z,,,,,,,,,,,,,,,,,,,,,,,,,,,,,,,94468.91899998808,,completion,,,,,,,,,,,,,,,,,,,,,221597,221596.69999998808,127111.107,127114.69999998808,127127.781,221619.339,,,
Trap_instruction,html.Page,2_2_0,2022-04-28T09:51:07.003Z,,,,,,,,,,,,,,,,,,,,,,,,,,,,,,,4329.160999999993,,form submission,,,,,,,,,,,,,,,,,,,,,225948.69999998808,225948.5,221602.665,221597.09999999404,221619.339,225971.253,,,
trap_trial,html.Screen,2_2_1,2022-04-28T09:51:11.162Z,,,,,,,,,,,,,,,,,,,,,,,,,,,,true,1,,4133.446999988082,,response,,,,,,,,,,,1,click #choice-1,,,,,,,,,230107.19999998808,230104.69999998808,225954.579,225948.80000001192,225971.253,230123.079,,,
end of trap trial,html.Page,2_2_2,2022-04-28T09:51:12.818Z,,,,,,,,,,,,,,,,,,,,,,,,,,,,,,,1640.0209999940416,,form submission,,,,,,,,,,,,,,,,,,,,,231763.40000000596,231763.09999999404,230106.405,230107.30000001192,230123.079,231790.479,,,
Trap 1,flow.Sequence,2_2,2022-04-28T09:51:12.818Z,,,,,,,,,,,,,,,,,,,,,,,,,,,,,,,10143.760999994032,,completion,,,,,,,,,,,,,,,,,,,,,231763.59999999404,231763.09999999404,221602.665,221597,221619.339,231790.479,,,
Standby,html.Page,2_3_0,2022-04-28T09:51:20.834Z,,,,,,,,,,,,,,,,,,,,,,,,,,,,,,,8003.520000000019,,timeout,,,,,,,,,,,,,,,,,,,,,239779,239777.325,231773.805,231763.69999998808,231790.479,239793.999,,,
Holding screen,html.Screen,2_3_1_0_0,2022-04-28T09:51:27.836Z,,,,,,,,,,,,,,,,,,,,,,,,,,,,,,,7003.079999999987,,timeout,,,,,,,,,,,,,,,,,,,,,246781.59999999404,246780.405,239777.325,239779.09999999404,239793.999,246797.079,,,
screen,html.Screen,2_3_1_0_1_0,2022-04-28T09:51:28.698Z,,,,,,,,,,,,,,,,,2,,,,,,,,,,,,,,840.3210000059626,,response,,,,1,D,,,,,,Space,keypress(Space),,,,speech,,,,Two ---- ------ --- ------- ---------- ------- ----------<br>--- --------- --- ----------- ------- ----- ------- ---<br>--------- ---- -- --- ---- -- --------- -- ---- -------<br>-- --------- ------ --- ----- ------ ---- --- --------- --<br>------ - ---- -- --- ----------- ------- ---- ----- -----<br>--- -------- - ------ ---- -- ----- ---- --- --- -----------<br>-- -------,247643.30000001192,247637.40000000596,246780.405,246781.69999998808,246797.079,247647.453,,0,Two
screen,html.Screen,2_3_1_0_1_1,2022-04-28T09:51:29.209Z,,,,,,,,,,,,,,,,,2,,,,,,,,,,,,,,501.94700000595185,,response,,,,1,D,,,,,,Space,keypress(Space),,,,speech,,,,--- days ------ --- ------- ---------- ------- ----------<br>--- --------- --- ----------- ------- ----- ------- ---<br>--------- ---- -- --- ---- -- --------- -- ---- -------<br>-- --------- ------ --- ----- ------ ---- --- --------- --<br>------ - ---- -- --- ----------- ------- ---- ----- -----<br>--- -------- - ------ ---- -- ----- ---- --- --- -----------<br>-- -------,248154.09999999404,248149.40000000596,247630.779,247643.59999999404,247647.453,248164.347,,1,days
screen,html.Screen,2_3_1_0_1_2,2022-04-28T09:51:29.689Z,,,,,,,,,,,,,,,,,2,,,,,,,,,,,,,,465.15299999999115,,response,,,,1,D,,,,,,Space,keypress(Space),,,,speech,,,,"--- ---- later, --- ------- ---------- ------- ----------<br>--- --------- --- ----------- ------- ----- ------- ---<br>--------- ---- -- --- ---- -- --------- -- ---- -------<br>-- --------- ------ --- ----- ------ ---- --- --------- --<br>------ - ---- -- --- ----------- ------- ---- ----- -----<br>--- -------- - ------ ---- -- ----- ---- --- --- -----------<br>-- -------",248633.90000000596,248629.5,248147.673,248154.19999998808,248164.347,248647.893,,2,"later,"
screen,html.Screen,2_3_1_0_1_3,2022-04-28T09:51:30.201Z,,,,,,,,,,,,,,,,,2,,,,,,,,,,,,,,493.5070000059495,,response,,,,1,D,,,,,,Space,keypress(Space),,,,speech,,,,--- ---- ------ the ------- ---------- ------- ----------<br>--- --------- --- ----------- ------- ----- ------- ---<br>--------- ---- -- --- ---- -- --------- -- ---- -------<br>-- --------- ------ --- ----- ------ ---- --- --------- --<br>------ - ---- -- --- ----------- ------- ---- ----- -----<br>--- -------- - ------ ---- -- ----- ---- --- --- -----------<br>-- -------,249145.90000000596,249141.40000000596,248631.219,248634,248647.893,249148.113,,3,the
screen,html.Screen,2_3_1_0_1_4,2022-04-28T09:51:30.728Z,,,,,,,,,,,,,,,,,2,,,,,,,,,,,,,,521.2870000059484,,response,,,,1,D,,,,,,Space,keypress(Space),,,,speech,,,,--- ---- ------ --- British ---------- ------- ----------<br>--- --------- --- ----------- ------- ----- ------- ---<br>--------- ---- -- --- ---- -- --------- -- ---- -------<br>-- --------- ------ --- ----- ------ ---- --- --------- --<br>------ - ---- -- --- ----------- ------- ---- ----- -----<br>--- -------- - ------ ---- -- ----- ---- --- --- -----------<br>-- -------,249673,249669.40000000596,249131.439,249146,249148.113,249681.681,,4,British
screen,html.Screen,2_3_1_0_1_5,2022-04-28T09:51:31.601Z,,,,,,,,,,,,,,,,,2,,,,,,,,,,,,,,859.719000005949,,response,,,,1,D,,,,,,Space,keypress(Space),,,,speech,,,,--- ---- ------ --- ------- astronomer ------- ----------<br>--- --------- --- ----------- ------- ----- ------- ---<br>--------- ---- -- --- ---- -- --------- -- ---- -------<br>-- --------- ------ --- ----- ------ ---- --- --------- --<br>------ - ---- -- --- ----------- ------- ---- ----- -----<br>--- -------- - ------ ---- -- ----- ---- --- --- -----------<br>-- -------,250546,250541.40000000596,249665.007,249673.19999998808,249681.681,250548.729,,5,astronomer
screen,html.Screen,2_3_1_0_1_6,2022-04-28T09:51:32.169Z,,,,,,,,,,,,,,,,,2,,,,,,,,,,,,,,560.6710000059684,,response,,,,1,D,,,,,,Space,keypress(Space),,,,speech,,,,--- ---- ------ --- ------- ---------- Richard ----------<br>--- --------- --- ----------- ------- ----- ------- ---<br>--------- ---- -- --- ---- -- --------- -- ---- -------<br>-- --------- ------ --- ----- ------ ---- --- --------- --<br>------ - ---- -- --- ----------- ------- ---- ----- -----<br>--- -------- - ------ ---- -- ----- ---- --- --- -----------<br>-- -------,251114.19999998808,251109.40000000596,250532.055,250546.09999999404,250548.729,251115.645,,6,Richard
screen,html.Screen,2_3_1_0_1_7,2022-04-28T09:51:32.737Z,,,,,,,,,,,,,,,,,2,,,,,,,,,,,,,,561.6550000119314,,response,,,,1,D,,,,,,Space,keypress(Space),,,,speech,,,,--- ---- ------ --- ------- ---------- ------- Carrington<br>--- --------- --- ----------- ------- ----- ------- ---<br>--------- ---- -- --- ---- -- --------- -- ---- -------<br>-- --------- ------ --- ----- ------ ---- --- --------- --<br>------ - ---- -- --- ----------- ------- ---- ----- -----<br>--- -------- - ------ ---- -- ----- ---- --- --- -----------<br>-- -------,251682.40000000596,251677.30000001192,251098.971,251114.30000001192,251115.645,251699.235,,7,Carrington
screen,html.Screen,2_3_1_0_1_8,2022-04-28T09:51:33.217Z,,,,,,,,,,,,,,,,,2,,,,,,,,,,,,,,458.16500000597443,,response,,,,1,D,,,,,,Space,keypress(Space),,,,speech,,,,--- ---- ------ --- ------- ---------- ------- ----------<br>was --------- --- ----------- ------- ----- ------- ---<br>--------- ---- -- --- ---- -- --------- -- ---- -------<br>-- --------- ------ --- ----- ------ ---- --- --------- --<br>------ - ---- -- --- ----------- ------- ---- ----- -----<br>--- -------- - ------ ---- -- ----- ---- --- --- -----------<br>-- -------,252161.90000000596,252157.40000000596,251682.561,251682.5,251699.235,252166.107,,8,was
screen,html.Screen,2_3_1_0_1_9,2022-04-28T09:51:33.737Z,,,,,,,,,,,,,,,,,2,,,,,,,,,,,,,,511.2930000059714,,response,,,,1,D,,,,,,Space,keypress(Space),,,,speech,,,,--- ---- ------ --- ------- ---------- ------- ----------<br>--- observing --- ----------- ------- ----- ------- ---<br>--------- ---- -- --- ---- -- --------- -- ---- -------<br>-- --------- ------ --- ----- ------ ---- --- --------- --<br>------ - ---- -- --- ----------- ------- ---- ----- -----<br>--- -------- - ------ ---- -- ----- ---- --- --- -----------<br>-- -------,252682.30000001192,252677.40000000596,252149.433,252162,252166.107,252699.675,,9,observing
screen,html.Screen,2_3_1_0_1_10,2022-04-28T09:51:34.201Z,,,,,,,,,,,,,,,,,2,,,,,,,,,,,,,,441.82500000001164,,response,,,,1,D,,,,,,Space,keypress(Space),,,,speech,,,,--- ---- ------ --- ------- ---------- ------- ----------<br>--- --------- the ----------- ------- ----- ------- ---<br>--------- ---- -- --- ---- -- --------- -- ---- -------<br>-- --------- ------ --- ----- ------ ---- --- --------- --<br>------ - ---- -- --- ----------- ------- ---- ----- -----<br>--- -------- - ------ ---- -- ----- ---- --- --- -----------<br>-- -------,253146.09999999404,253141.5,252683.001,252682.5,252699.675,253149.873,,10,the
screen,html.Screen,2_3_1_0_1_11,2022-04-28T09:51:35.001Z,,,,,,,,,,,,,,,,,2,,,,,,,,,,,,,,791.6270000000077,,response,,,,1,D,,,,,,Space,keypress(Space),,,,speech,,,,--- ---- ------ --- ------- ---------- ------- ----------<br>--- --------- --- interesting ------- ----- ------- ---<br>--------- ---- -- --- ---- -- --------- -- ---- -------<br>-- --------- ------ --- ----- ------ ---- --- --------- --<br>------ - ---- -- --- ----------- ------- ---- ----- -----<br>--- -------- - ------ ---- -- ----- ---- --- --- -----------<br>-- -------,253946.09999999404,253941.5,253133.199,253146.19999998808,253149.873,253950.225,,11,interesting
screen,html.Screen,2_3_1_0_1_12,2022-04-28T09:51:35.921Z,,,,,,,,,,,,,,,,,2,,,,,,,,,,,,,,911.1750000059546,,response,,,,1,D,,,,,,Space,keypress(Space),,,,speech,,,,--- ---- ------ --- ------- ---------- ------- ----------<br>--- --------- --- ----------- sunspot ----- ------- ---<br>--------- ---- -- --- ---- -- --------- -- ---- -------<br>-- --------- ------ --- ----- ------ ---- --- --------- --<br>------ - ---- -- --- ----------- ------- ---- ----- -----<br>--- -------- - ------ ---- -- ----- ---- --- --- -----------<br>-- -------,254865.90000000596,254861.40000000596,253933.551,253946.30000001192,253950.225,254867.295,,12,sunspot
screen,html.Screen,2_3_1_0_1_13,2022-04-28T09:51:36.577Z,,,,,,,,,,,,,,,,,2,,,,,,,,,,,,,,650.0050000119081,,response,,,,1,D,,,,,,Space,keypress(Space),,,,speech,,,,--- ---- ------ --- ------- ---------- ------- ----------<br>--- --------- --- ----------- ------- group ------- ---<br>--------- ---- -- --- ---- -- --------- -- ---- -------<br>-- --------- ------ --- ----- ------ ---- --- --------- --<br>------ - ---- -- --- ----------- ------- ---- ----- -----<br>--- -------- - ------ ---- -- ----- ---- --- --- -----------<br>-- -------,255522.40000000596,255517.30000001192,254850.621,254866.09999999404,254867.295,255534.255,,13,group
screen,html.Screen,2_3_1_0_1_14,2022-04-28T09:51:37.129Z,,,,,,,,,,,,,,,,,2,,,,,,,,,,,,,,535.1450000059558,,response,,,,1,D,,,,,,Space,keypress(Space),,,,speech,,,,--- ---- ------ --- ------- ---------- ------- ----------<br>--- --------- --- ----------- ------- ----- through ---<br>--------- ---- -- --- ---- -- --------- -- ---- -------<br>-- --------- ------ --- ----- ------ ---- --- --------- --<br>------ - ---- -- --- ----------- ------- ---- ----- -----<br>--- -------- - ------ ---- -- ----- ---- --- --- -----------<br>-- -------,256074.30000001192,256069.40000000596,255517.581,255522.40000000596,255534.255,256084.497,,14,through
screen,html.Screen,2_3_1_0_1_15,2022-04-28T09:51:37.649Z,,,,,,,,,,,,,,,,,2,,,,,,,,,,,,,,504.90300000595744,,response,,,,1,D,,,,,,Space,keypress(Space),,,,speech,,,,--- ---- ------ --- ------- ---------- ------- ----------<br>--- --------- --- ----------- ------- ----- ------- his<br>--------- ---- -- --- ---- -- --------- -- ---- -------<br>-- --------- ------ --- ----- ------ ---- --- --------- --<br>------ - ---- -- --- ----------- ------- ---- ----- -----<br>--- -------- - ------ ---- -- ----- ---- --- --- -----------<br>-- -------,256593.80000001192,256589.40000000596,256067.823,256074.40000000596,256084.497,256601.391,,15,his
screen,html.Screen,2_3_1_0_1_16,2022-04-28T09:51:38.201Z,,,,,,,,,,,,,,,,,2,,,,,,,,,,,,,,540.0090000059572,,response,,,,1,D,,,,,,Space,keypress(Space),,,,speech,,,,--- ---- ------ --- ------- ---------- ------- ----------<br>--- --------- --- ----------- ------- ----- ------- ---<br>telescope ---- -- --- ---- -- --------- -- ---- -------<br>-- --------- ------ --- ----- ------ ---- --- --------- --<br>------ - ---- -- --- ----------- ------- ---- ----- -----<br>--- -------- - ------ ---- -- ----- ---- --- --- -----------<br>-- -------,257146,257141.40000000596,256584.717,256593.90000000596,256601.391,257151.633,,16,telescope
screen,html.Screen,2_3_1_0_1_17,2022-04-28T09:51:38.721Z,,,,,,,,,,,,,,,,,2,,,,,,,,,,,,,,509.76700000595883,,response,,,,1,D,,,,,,Space,keypress(Space),,,,speech,,,,--- ---- ------ --- ------- ---------- ------- ----------<br>--- --------- --- ----------- ------- ----- ------- ---<br>--------- when -- --- ---- -- --------- -- ---- -------<br>-- --------- ------ --- ----- ------ ---- --- --------- --<br>------ - ---- -- --- ----------- ------- ---- ----- -----<br>--- -------- - ------ ---- -- ----- ---- --- --- -----------<br>-- -------,257666.30000001192,257661.40000000596,257134.959,257146.19999998808,257151.633,257668.527,,17,when
screen,html.Screen,2_3_1_0_1_18,2022-04-28T09:51:39.257Z,,,,,,,,,,,,,,,,,2,,,,,,,,,,,,,,528.8730000059586,,response,,,,1,D,,,,,,Space,keypress(Space),,,,speech,,,,--- ---- ------ --- ------- ---------- ------- ----------<br>--- --------- --- ----------- ------- ----- ------- ---<br>--------- ---- he --- ---- -- --------- -- ---- -------<br>-- --------- ------ --- ----- ------ ---- --- --------- --<br>------ - ---- -- --- ----------- ------- ---- ----- -----<br>--- -------- - ------ ---- -- ----- ---- --- --- -----------<br>-- -------,258202.5,258197.40000000596,257651.853,257666.5,257668.527,258218.769,,18,he
screen,html.Screen,2_3_1_0_1_19,2022-04-28T09:51:39.761Z,,,,,,,,,,,,,,,,,2,,,,,,,,,,,,,,482.63100000596023,,response,,,,1,D,,,,,,Space,keypress(Space),,,,speech,,,,--- ---- ------ --- ------- ---------- ------- ----------<br>--- --------- --- ----------- ------- ----- ------- ---<br>--------- ---- -- saw ---- -- --------- -- ---- -------<br>-- --------- ------ --- ----- ------ ---- --- --------- --<br>------ - ---- -- --- ----------- ------- ---- ----- -----<br>--- -------- - ------ ---- -- ----- ---- --- --- -----------<br>-- -------,258706,258701.40000000596,258202.095,258202.69999998808,258218.769,258718.989,,19,saw
screen,html.Screen,2_3_1_0_1_20,2022-04-28T09:51:40.233Z,,,,,,,,,,,,,,,,,2,,,,,,,,,,,,,,454.41100000595907,,response,,,,1,D,,,,,,Space,keypress(Space),,,,speech,,,,--- ---- ------ --- ------- ---------- ------- ----------<br>--- --------- --- ----------- ------- ----- ------- ---<br>--------- ---- -- --- what -- --------- -- ---- -------<br>-- --------- ------ --- ----- ------ ---- --- --------- --<br>------ - ---- -- --- ----------- ------- ---- ----- -----<br>--- -------- - ------ ---- -- ----- ---- --- --- -----------<br>-- -------,259178.19999998808,259173.40000000596,258702.315,258706,258718.989,259185.861,,20,what
screen,html.Screen,2_3_1_0_1_21,2022-04-28T09:51:40.737Z,,,,,,,,,,,,,,,,,2,,,,,,,,,,,,,,491.4390000119165,,response,,,,1,D,,,,,,Space,keypress(Space),,,,speech,,,,--- ---- ------ --- ------- ---------- ------- ----------<br>--- --------- --- ----------- ------- ----- ------- ---<br>--------- ---- -- --- ---- he --------- -- ---- -------<br>-- --------- ------ --- ----- ------ ---- --- --------- --<br>------ - ---- -- --- ----------- ------- ---- ----- -----<br>--- -------- - ------ ---- -- ----- ---- --- --- -----------<br>-- -------,259682.40000000596,259677.30000001192,259169.187,259178.30000001192,259185.861,259686.081,,21,he
screen,html.Screen,2_3_1_0_1_22,2022-04-28T09:51:41.233Z,,,,,,,,,,,,,,,,,2,,,,,,,,,,,,,,487.3190000059549,,response,,,,1,D,,,,,,Space,keypress(Space),,,,speech,,,,--- ---- ------ --- ------- ---------- ------- ----------<br>--- --------- --- ----------- ------- ----- ------- ---<br>--------- ---- -- --- ---- -- described -- ---- -------<br>-- --------- ------ --- ----- ------ ---- --- --------- --<br>------ - ---- -- --- ----------- ------- ---- ----- -----<br>--- -------- - ------ ---- -- ----- ---- --- --- -----------<br>-- -------,260177.69999998808,260173.40000000596,259669.407,259682.5,259686.081,260186.301,,22,described
screen,html.Screen,2_3_1_0_1_23,2022-04-28T09:51:41.673Z,,,,,,,,,,,,,,,,,2,,,,,,,,,,,,,,427.0990000059537,,response,,,,1,D,,,,,,Space,keypress(Space),,,,speech,,,,--- ---- ------ --- ------- ---------- ------- ----------<br>--- --------- --- ----------- ------- ----- ------- ---<br>--------- ---- -- --- ---- -- --------- as ---- -------<br>-- --------- ------ --- ----- ------ ---- --- --------- --<br>------ - ---- -- --- ----------- ------- ---- ----- -----<br>--- -------- - ------ ---- -- ----- ---- --- --- -----------<br>-- -------,260618.30000001192,260613.40000000596,260169.627,260177.90000000596,260186.301,260619.825,,23,as
screen,html.Screen,2_3_1_0_1_24,2022-04-28T09:51:42.121Z,,,,,,,,,,,,,,,,,2,,,,,,,,,,,,,,441.5750000059488,,response,,,,1,D,,,,,,Space,keypress(Space),,,,speech,,,,"--- ---- ------ --- ------- ---------- ------- ----------<br>--- --------- --- ----------- ------- ----- ------- ---<br>--------- ---- -- --- ---- -- --------- -- ""two -------<br>-- --------- ------ --- ----- ------ ---- --- --------- --<br>------ - ---- -- --- ----------- ------- ---- ----- -----<br>--- -------- - ------ ---- -- ----- ---- --- --- -----------<br>-- -------",261066.30000001192,261061.40000000596,260603.151,260618.5,260619.825,261070.023,,24,"""two"
screen,html.Screen,2_3_1_0_1_25,2022-04-28T09:51:42.593Z,,,,,,,,,,,,,,,,,2,,,,,,,,,,,,,,463.27700001193443,,response,,,,1,D,,,,,,Space,keypress(Space),,,,speech,,,,--- ---- ------ --- ------- ---------- ------- ----------<br>--- --------- --- ----------- ------- ----- ------- ---<br>--------- ---- -- --- ---- -- --------- -- ---- patches<br>-- --------- ------ --- ----- ------ ---- --- --------- --<br>------ - ---- -- --- ----------- ------- ---- ----- -----<br>--- -------- - ------ ---- -- ----- ---- --- --- -----------<br>-- -------,261538,261533.30000001192,261053.349,261066.5,261070.023,261553.569,,25,patches
screen,html.Screen,2_3_1_0_1_26,2022-04-28T09:51:43.064Z,,,,,,,,,,,,,,,,,2,,,,,,,,,,,,,,451.8310000059719,,response,,,,1,D,,,,,,Space,keypress(Space),,,,speech,,,,--- ---- ------ --- ------- ---------- ------- ----------<br>--- --------- --- ----------- ------- ----- ------- ---<br>--------- ---- -- --- ---- -- --------- -- ---- -------<br>of --------- ------ --- ----- ------ ---- --- --------- --<br>------ - ---- -- --- ----------- ------- ---- ----- -----<br>--- -------- - ------ ---- -- ----- ---- --- --- -----------<br>-- -------,262009.19999998808,262005.40000000596,261536.895,261538.30000001192,261553.569,262020.441,,26,of
screen,html.Screen,2_3_1_0_1_27,2022-04-28T09:51:43.617Z,,,,,,,,,,,,,,,,,2,,,,,,,,,,,,,,536.8590000119293,,response,,,,1,D,,,,,,Space,keypress(Space),,,,speech,,,,--- ---- ------ --- ------- ---------- ------- ----------<br>--- --------- --- ----------- ------- ----- ------- ---<br>--------- ---- -- --- ---- -- --------- -- ---- -------<br>-- intensely ------ --- ----- ------ ---- --- --------- --<br>------ - ---- -- --- ----------- ------- ---- ----- -----<br>--- -------- - ------ ---- -- ----- ---- --- --- -----------<br>-- -------,262562.3000000119,262557.3000000119,262003.767,262009.19999998808,262020.441,262570.683,,27,intensely
screen,html.Screen,2_3_1_0_1_28,2022-04-28T09:51:44.081Z,,,,,,,,,,,,,,,,,2,,,,,,,,,,,,,,450.61700001190184,,response,,,,1,D,,,,,,Space,keypress(Space),,,,speech,,,,--- ---- ------ --- ------- ---------- ------- ----------<br>--- --------- --- ----------- ------- ----- ------- ---<br>--------- ---- -- --- ---- -- --------- -- ---- -------<br>-- --------- bright --- ----- ------ ---- --- --------- --<br>------ - ---- -- --- ----------- ------- ---- ----- -----<br>--- -------- - ------ ---- -- ----- ---- --- --- -----------<br>-- -------,263025.8000000119,263021.3000000119,262554.009,262562.5,262570.683,263037.555,,28,bright
screen,html.Screen,2_3_1_0_1_29,2022-04-28T09:51:44.545Z,,,,,,,,,,,,,,,,,2,,,,,,,,,,,,,,447.84500000596745,,response,,,,1,D,,,,,,Space,keypress(Space),,,,speech,,,,--- ---- ------ --- ------- ---------- ------- ----------<br>--- --------- --- ----------- ------- ----- ------- ---<br>--------- ---- -- --- ---- -- --------- -- ---- -------<br>-- --------- ------ and ----- ------ ---- --- --------- --<br>------ - ---- -- --- ----------- ------- ---- ----- -----<br>--- -------- - ------ ---- -- ----- ---- --- --- -----------<br>-- -------,263489.90000000596,263485.40000000596,263020.881,263025.90000000596,263037.555,263504.427,,29,and
screen,html.Screen,2_3_1_0_1_30,2022-04-28T09:51:45.097Z,,,,,,,,,,,,,,,,,2,,,,,,,,,,,,,,532.9730000059353,,response,,,,1,D,,,,,,Space,keypress(Space),,,,speech,,,,--- ---- ------ --- ------- ---------- ------- ----------<br>--- --------- --- ----------- ------- ----- ------- ---<br>--------- ---- -- --- ---- -- --------- -- ---- -------<br>-- --------- ------ --- white ------ ---- --- --------- --<br>------ - ---- -- --- ----------- ------- ---- ----- -----<br>--- -------- - ------ ---- -- ----- ---- --- --- -----------<br>-- -------,264042.3000000119,264037.40000000596,263487.753,263490,263504.427,264054.669,,30,white
screen,html.Screen,2_3_1_0_1_31,2022-04-28T09:51:46.833Z,,,,,,,,,,,,,,,,,2,,,,,,,,,,,,,,1718.6310000119265,,response,,,,1,D,,,,,,Space,keypress(Space),,,,speech,,,,"--- ---- ------ --- ------- ---------- ------- ----------<br>--- --------- --- ----------- ------- ----- ------- ---<br>--------- ---- -- --- ---- -- --------- -- ---- -------<br>-- --------- ------ --- ----- light"" ---- --- --------- --<br>------ - ---- -- --- ----------- ------- ---- ----- -----<br>--- -------- - ------ ---- -- ----- ---- --- --- -----------<br>-- -------",265778.3000000119,265773.3000000119,264037.995,264042.40000000596,264054.669,265788.765,,31,"light"""
screen,html.Screen,2_3_1_0_1_32,2022-04-28T09:51:47.305Z,,,,,,,,,,,,,,,,,2,,,,,,,,,,,,,,456.6350000059465,,response,,,,1,D,,,,,,Space,keypress(Space),,,,speech,,,,--- ---- ------ --- ------- ---------- ------- ----------<br>--- --------- --- ----------- ------- ----- ------- ---<br>--------- ---- -- --- ---- -- --------- -- ---- -------<br>-- --------- ------ --- ----- ------ over --- --------- --<br>------ - ---- -- --- ----------- ------- ---- ----- -----<br>--- -------- - ------ ---- -- ----- ---- --- --- -----------<br>-- -------,266250.3000000119,266245.40000000596,265772.091,265778.40000000596,265788.765,266255.637,,32,over
screen,html.Screen,2_3_1_0_1_33,2022-04-28T09:51:47.737Z,,,,,,,,,,,,,,,,,2,,,,,,,,,,,,,,421.8630000000121,,response,,,,1,D,,,,,,Space,keypress(Space),,,,speech,,,,--- ---- ------ --- ------- ---------- ------- ----------<br>--- --------- --- ----------- ------- ----- ------- ---<br>--------- ---- -- --- ---- -- --------- -- ---- -------<br>-- --------- ------ --- ----- ------ ---- the --------- --<br>------ - ---- -- --- ----------- ------- ---- ----- -----<br>--- -------- - ------ ---- -- ----- ---- --- --- -----------<br>-- -------,266681.90000000596,266677.5,266238.963,266250.3000000119,266255.637,266689.161,,33,the
screen,html.Screen,2_3_1_0_1_34,2022-04-28T09:51:48.265Z,,,,,,,,,,,,,,,,,2,,,,,,,,,,,,,,516.2390000059386,,response,,,,1,D,,,,,,Space,keypress(Space),,,,speech,,,,--- ---- ------ --- ------- ---------- ------- ----------<br>--- --------- --- ----------- ------- ----- ------- ---<br>--------- ---- -- --- ---- -- --------- -- ---- -------<br>-- --------- ------ --- ----- ------ ---- --- sunspots. --<br>------ - ---- -- --- ----------- ------- ---- ----- -----<br>--- -------- - ------ ---- -- ----- ---- --- --- -----------<br>-- -------,267210.5,267205.40000000596,266672.487,266682,266689.161,267222.729,,34,sunspots.
screen,html.Screen,2_3_1_0_1_35,2022-04-28T09:51:48.841Z,,,,,,,,,,,,,,,,,2,,,,,,,,,,,,,,558.6710000059684,,response,,,,1,D,,,,,,Space,keypress(Space),,,,speech,,,,--- ---- ------ --- ------- ---------- ------- ----------<br>--- --------- --- ----------- ------- ----- ------- ---<br>--------- ---- -- --- ---- -- --------- -- ---- -------<br>-- --------- ------ --- ----- ------ ---- --- --------- He<br>------ - ---- -- --- ----------- ------- ---- ----- -----<br>--- -------- - ------ ---- -- ----- ---- --- --- -----------<br>-- -------,267786.5,267781.40000000596,267206.055,267210.59999999404,267222.729,267789.645,,35,He
screen,html.Screen,2_3_1_0_1_36,2022-04-28T09:51:49.360Z,,,,,,,,,,,,,,,,,2,,,,,,,,,,,,,,511.75500000594184,,response,,,,1,D,,,,,,Space,keypress(Space),,,,speech,,,,--- ---- ------ --- ------- ---------- ------- ----------<br>--- --------- --- ----------- ------- ----- ------- ---<br>--------- ---- -- --- ---- -- --------- -- ---- -------<br>-- --------- ------ --- ----- ------ ---- --- --------- --<br>jotted - ---- -- --- ----------- ------- ---- ----- -----<br>--- -------- - ------ ---- -- ----- ---- --- --- -----------<br>-- -------,268305.59999999404,268301.40000000596,267772.971,267786.59999999404,267789.645,268323.213,,36,jotted
screen,html.Screen,2_3_1_0_1_37,2022-04-28T09:51:49.817Z,,,,,,,,,,,,,,,,,2,,,,,,,,,,,,,,434.18700000597164,,response,,,,1,D,,,,,,Space,keypress(Space),,,,speech,,,,--- ---- ------ --- ------- ---------- ------- ----------<br>--- --------- --- ----------- ------- ----- ------- ---<br>--------- ---- -- --- ---- -- --------- -- ---- -------<br>-- --------- ------ --- ----- ------ ---- --- --------- --<br>------ a ---- -- --- ----------- ------- ---- ----- -----<br>--- -------- - ------ ---- -- ----- ---- --- --- -----------<br>-- -------,268762.09999999404,268757.40000000596,268306.539,268305.8000000119,268323.213,268773.411,,37,a
