sender,sender_type,sender_id,timestamp,meta,,Blues,Classical,Country,Dance,Electronic,Folk,Gospel,Hip-Hop,Jazz,Latin,Musical/Film,New-age,Pop,Prolific_id,Provo_ID,R&B,Rap,Reggae,Religious,Rock,Soul,Swing,Traditional,age,artist_name,correct,correctResponse,distraction,duration,education,ended_on,familiarity,gender,headphone_check_performance,item,list,music_frequency,offensiveness,pleasantness,position_correct,preference,response,response_action,snippet_file,song_name,song_rating,sound,stimulus_1,stimulus_2,stimulus_3,text,time_commit,time_end,time_render,time_run,time_show,time_switch,url,word,word_ID
Prolific ID,html.Form,0,2022-05-03T12:49:05.052Z,"{""labjs_version"":""20.2.2"",""labjs_build"":{""flavor"":""production"",""commit"":""a25486e0c714a0ae2ce03ff94b7bb6896854dcfa""},""location"":""https://run.pavlovia.org/mvasilev/prolific3_music_h/"",""userAgent"":""Mozilla/5.0 (Windows NT 6.1; Win64; x64; rv:99.0) Gecko/20100101 Firefox/99.0"",""platform"":""Win32"",""language"":""en-GB"",""locale"":""en-GB"",""timeZone"":""Europe/London"",""timezoneOffset"":-60,""screen_width"":1700,""screen_height"":960,""scroll_width"":1700,""scroll_height"":722,""window_innerWidth"":1700,""window_innerHeight"":770,""devicePixelRatio"":0.8}",,,,,,,,,,,,,,,5e6a6d1f833f2d021f683ea7,,,,,,,,,,,,,,,62429.5,,form submission,,,,,,,,,,,,,,,,,,,,,75561,75560,13130.42,13131,13130.5,75570.1,{},,
Introduction,html.Screen,1_0,2022-05-03T12:49:10.923Z,,,,,,,,,,,,,,,,,,,,,,,,,,,,,,,5857.899999999994,,response,,,,,,,,,,,continue,click button,,,,,,,,,81432,81428,75550.8,75564,75570.1,81445.76,,,
Volume calibration,html.Screen,1_1,2022-05-03T12:49:52.937Z,,,,,,,,,,,,,,,,,,,,,,,,,,,,,,,41992.240000000005,,response,,,,,,,,,,,continue,click button,,,,,,,,,123446,123438,81430.66,81433,81445.76,123445.3,,,
Task instructions,html.Screen,1_2,2022-05-03T12:50:10.856Z,,,,,,,,,,,,,,,,,,,,,,,,,,,,,,,17917.699999999997,,response,,,,,,,,,,,continue,click button,,,,,,,,,141366,141363,123445.18,123447,123445.3,141379.84,,,
Sounds,html.Screen,1_3_0_0,2022-05-03T12:50:15.105Z,,,,,,,,,,,,,,,,,,,,,,,,,,,,,,,4250.140000000014,,timeout,,,,,,,,,2,,,,,,,,I,S,O,,145614,145613.02,141364.42,141366,141379.84,145629.98,,,
Judgement,html.Screen,1_3_0_1,2022-05-03T12:50:17.440Z,,,,,,,,,,,,,,,,,,,,,,,,,,,,true,2,,2316.0199999999895,,response,,,,,,,,,2,,2,click #choice-2,,,,,I,S,O,,147949,147946,145613.02,145615,145629.98,147961.06,,,
Trial,flow.Sequence,1_3_0,2022-05-03T12:50:17.441Z,,,,,,,,,,,,,,,,,,,,,,,,,,,,,,,6566.1600000000035,,completion,,,,,,,,,2,,,,,,,,I,S,O,,147951,147946,141364.42,141366,141379.84,147961.06,,,
Sounds,html.Screen,1_3_1_0,2022-05-03T12:50:21.689Z,,,,,,,,,,,,,,,,,,,,,,,,,,,,,,,4252.1600000000035,,timeout,,,,,,,,,2,,,,,,,,O,S,I,,152198,152196.22,147948.2,147952,147961.06,152213.22,,,
Judgement,html.Screen,1_3_1_1,2022-05-03T12:50:22.344Z,,,,,,,,,,,,,,,,,,,,,,,,,,,,true,2,,629.7799999999988,,response,,,,,,,,,2,,2,click #choice-2,,,,,O,S,I,,152853,152843,152196.22,152198,152213.22,152867.24,,,
Trial,flow.Sequence,1_3_1,2022-05-03T12:50:22.345Z,,,,,,,,,,,,,,,,,,,,,,,,,,,,,,,4881.940000000002,,completion,,,,,,,,,2,,,,,,,,O,S,I,,152853,152843,147948.2,147951,147961.06,152867.24,,,
Sounds,html.Screen,1_3_2_0,2022-05-03T12:50:26.595Z,,,,,,,,,,,,,,,,,,,,,,,,,,,,,,,4251.100000000006,,timeout,,,,,,,,,1,,,,,,,,S,I,O,,157103,157102.34,152852.1,152854,152867.24,157118.34,,,
Judgement,html.Screen,1_3_2_1,2022-05-03T12:50:27.768Z,,,,,,,,,,,,,,,,,,,,,,,,,,,,true,1,,1152.6600000000035,,response,,,,,,,,,1,,1,click #choice-1,,,,,S,I,O,,158277,158271,157102.34,157105,157118.34,158291.4,,,
Trial,flow.Sequence,1_3_2,2022-05-03T12:50:27.769Z,,,,,,,,,,,,,,,,,,,,,,,,,,,,,,,5403.760000000009,,completion,,,,,,,,,1,,,,,,,,S,I,O,,158277,158271,152852.1,152854,152867.24,158291.4,,,
Sounds,html.Screen,1_3_3_0,2022-05-03T12:50:32.017Z,,,,,,,,,,,,,,,,,,,,,,,,,,,,,,,4250.100000000006,,timeout,,,,,,,,,3,,,,,,,,I,O,S,,162526,162525.5,158275.82,158278,158291.4,162541.5,,,
Judgement,html.Screen,1_3_3_1,2022-05-03T12:50:32.568Z,,,,,,,,,,,,,,,,,,,,,,,,,,,,true,3,,519.5,,response,,,,,,,,,3,,3,click #choice-3,,,,,I,O,S,,163077,163061,162525.5,162527,162541.5,163091.52,,,
Trial,flow.Sequence,1_3_3,2022-05-03T12:50:32.568Z,,,,,,,,,,,,,,,,,,,,,,,,,,,,,,,4769.600000000006,,completion,,,,,,,,,3,,,,,,,,I,O,S,,163077,163061,158275.82,158278,158291.4,163091.52,,,
Sounds,html.Screen,1_3_4_0,2022-05-03T12:50:36.817Z,,,,,,,,,,,,,,,,,,,,,,,,,,,,,,,4251.140000000014,,timeout,,,,,,,,,1,,,,,,,,S,O,I,,167327,167325.68,163075.92,163078,163091.52,167342.66,,,
Judgement,html.Screen,1_3_4_1,2022-05-03T12:50:37.424Z,,,,,,,,,,,,,,,,,,,,,,,,,,,,false,1,,585.3399999999965,,response,,,,,,,,,1,,3,click #choice-3,,,,,S,O,I,,167933,167928,167325.68,167327,167342.66,167946.66,,,
Trial,flow.Sequence,1_3_4,2022-05-03T12:50:37.424Z,,,,,,,,,,,,,,,,,,,,,,,,,,,,,,,4836.4800000000105,,completion,,,,,,,,,1,,,,,,,,S,O,I,,167933,167928,163075.92,163078,163091.52,167946.66,,,
Sounds,html.Screen,1_3_5_0,2022-05-03T12:50:41.672Z,,,,,,,,,,,,,,,,,,,,,,,,,,,,,,,4250.419999999984,,timeout,,,,,,,,,3,,,,,,,,O,I,S,,172182,172180.84,167931.44,167934,167946.66,172197.08,,,
Judgement,html.Screen,1_3_5_1,2022-05-03T12:50:42.151Z,,,,,,,,,,,,,,,,,,,,,,,,,,,,true,3,,457.9200000000128,,response,,,,,,,,,3,,3,click #choice-3,,,,,O,I,S,,172660,172655,172180.84,172182,172197.08,172675.08,,,
Trial,flow.Sequence,1_3_5,2022-05-03T12:50:42.152Z,,,,,,,,,,,,,,,,,,,,,,,,,,,,,,,4708.3399999999965,,completion,,,,,,,,,3,,,,,,,,O,I,S,,172661,172655,167931.44,167934,167946.66,172675.08,,,
Task,flow.Loop,1_3,2022-05-03T12:50:42.153Z,,,,,,,,,,,,,,,,,,,,,,,,,,,,,,,31275.160000000003,,completion,,,0.8333333333333334,,,,,,,,,,,,,,,,,,172662,172655,141364.42,141366,141379.84,172675.08,,,
Trap,html.Screen,1_4,2022-05-03T12:50:42.158Z,,,,,,,,,,,,,,,,,,,,,,,,,,,,,,,NaN,,skipped,,,,,,,,,,,,,,,,,,,,,172666,172655,,172666,,172675.08,,,
Thanks,html.Screen,1_5,2022-05-03T12:50:51.935Z,,,,,,,,,,,,,,,,,,,,,,,,,,,,,,,9761.920000000013,,response,,,,,,,,,,,continue,click button,,,,,,,,,182444,182437,172659.54,172666,172675.08,184627.44,,,
Headphone screening,flow.Sequence,1,2022-05-03T12:50:51.935Z,,,,,,,,,,,,,,,,,,,,,,,,,,,,,,,106866.9,,completion,,,,,,,,,,,,,,,,,,,,,182445,182437,75550.8,75563,75570.1,184627.44,,,
Instructions,html.Page,2_0,2022-05-03T12:51:04.737Z,,,,,,,,,,,,,,,,,,,,,,,,,,,,,,,10617.559999999998,,form submission,,,,,,,,,,,,,,,,,,,,,195245,195245,184610.48,184606,184627.44,195257.74,,,
Holding screen,html.Screen,2_1_0_0,2022-05-03T12:51:14.737Z,,,,,,,,,,,,,,,,,,,,,,,,,,,,,,,10004.600000000006,,timeout,,,,,,,,,,,,,,,,,,,,,205246,205245.36,195242.7,195246,195257.74,205262.34,,,
screen,html.Screen,2_1_0_1_0,2022-05-03T12:51:15.538Z,,,,,,,,,,,,,,,,,53,,,,,,,,,,,,,,776.6600000000035,,response,,,,99,,,,,,,Space,keypress(Space),,,,,,,,When -- ----- -- ------ - ------- --- ----------<br>------------- ------ ------ ---- ---- ------- ----- -- ----<br>-------- ------- -- ---------- --- - --- ----- ----- ----<br>---- --- --- ----- --- ---- ---- ------- ----- ---- -------<br>--- --- -- ----- -- --- ---- -- --- ---- -- ------ ------<br>--- ----- -- ----,206048,206039,205245.36,205246,205262.34,206048.14,,0,When
screen,html.Screen,2_1_0_1_1,2022-05-03T12:51:15.778Z,,,,,,,,,,,,,,,,,53,,,,,,,,,,,,,,224.85999999998603,,response,,,,99,,,,,,,Space,keypress(Space),,,,,,,,---- it ----- -- ------ - ------- --- ----------<br>------------- ------ ------ ---- ---- ------- ----- -- ----<br>-------- ------- -- ---------- --- - --- ----- ----- ----<br>---- --- --- ----- --- ---- ---- ------- ----- ---- -------<br>--- --- -- ----- -- --- ---- -- --- ---- -- ------ ------<br>--- ----- -- ----,206287,206273,206047.9,206048,206048.14,206287.94,,1,it
screen,html.Screen,2_1_0_1_2,2022-05-03T12:51:16.034Z,,,,,,,,,,,,,,,,,53,,,,,,,,,,,,,,250.05999999999767,,response,,,,99,,,,,,,Space,keypress(Space),,,,,,,,---- -- comes -- ------ - ------- --- ----------<br>------------- ------ ------ ---- ---- ------- ----- -- ----<br>-------- ------- -- ---------- --- - --- ----- ----- ----<br>---- --- --- ----- --- ---- ---- ------- ----- ---- -------<br>--- --- -- ----- -- --- ---- -- --- ---- -- ------ ------<br>--- ----- -- ----,206543,206538,206287.72,206288,206287.94,206543.58,,2,comes
screen,html.Screen,2_1_0_1_3,2022-05-03T12:51:16.226Z,,,,,,,,,,,,,,,,,53,,,,,,,,,,,,,,181.4200000000128,,response,,,,99,,,,,,,Space,keypress(Space),,,,,,,,---- -- ----- to ------ - ------- --- ----------<br>------------- ------ ------ ---- ---- ------- ----- -- ----<br>-------- ------- -- ---------- --- - --- ----- ----- ----<br>---- --- --- ----- --- ---- ---- ------- ----- ---- -------<br>--- --- -- ----- -- --- ---- -- --- ---- -- ------ ------<br>--- ----- -- ----,206736,206725,206543.32,206544,206543.58,206743.4,,3,to
screen,html.Screen,2_1_0_1_4,2022-05-03T12:51:16.378Z,,,,,,,,,,,,,,,,,53,,,,,,,,,,,,,,137.60000000000582,,response,,,,99,,,,,,,Space,keypress(Space),,,,,,,,---- -- ----- -- having - ------- --- ----------<br>------------- ------ ------ ---- ---- ------- ----- -- ----<br>-------- ------- -- ---------- --- - --- ----- ----- ----<br>---- --- --- ----- --- ---- ---- ------- ----- ---- -------<br>--- --- -- ----- -- --- ---- -- --- ---- -- ------ ------<br>--- ----- -- ----,206887,206881,206735.54,206736,206743.4,206893.36,,4,having
screen,html.Screen,2_1_0_1_5,2022-05-03T12:51:16.538Z,,,,,,,,,,,,,,,,,53,,,,,,,,,,,,,,143.64000000001397,,response,,,,99,,,,,,,Space,keypress(Space),,,,,,,,---- -- ----- -- ------ a ------- --- ----------<br>------------- ------ ------ ---- ---- ------- ----- -- ----<br>-------- ------- -- ---------- --- - --- ----- ----- ----<br>---- --- --- ----- --- ---- ---- ------- ----- ---- -------<br>--- --- -- ----- -- --- ---- -- --- ---- -- ------ ------<br>--- ----- -- ----,207047,207037,206887.34,206887,206893.36,207059.4,,5,a
screen,html.Screen,2_1_0_1_6,2022-05-03T12:51:17.050Z,,,,,,,,,,,,,,,,,53,,,,,,,,,,,,,,492.6000000000058,,response,,,,99,,,,,,,Space,keypress(Space),,,,,,,,---- -- ----- -- ------ - lasting --- ----------<br>------------- ------ ------ ---- ---- ------- ----- -- ----<br>-------- ------- -- ---------- --- - --- ----- ----- ----<br>---- --- --- ----- --- ---- ---- ------- ----- ---- -------<br>--- --- -- ----- -- --- ---- -- --- ---- -- ------ ------<br>--- ----- -- ----,207559,207552,207047.62,207047,207059.4,207559.86,,6,lasting
screen,html.Screen,2_1_0_1_7,2022-05-03T12:51:17.274Z,,,,,,,,,,,,,,,,,53,,,,,,,,,,,,,,210.14000000001397,,response,,,,99,,,,,,,Space,keypress(Space),,,,,,,,---- -- ----- -- ------ - ------- and ----------<br>------------- ------ ------ ---- ---- ------- ----- -- ----<br>-------- ------- -- ---------- --- - --- ----- ----- ----<br>---- --- --- ----- --- ---- ---- ------- ----- ---- -------<br>--- --- -- ----- -- --- ---- -- --- ---- -- ------ ------<br>--- ----- -- ----,207783,207770,207559.64,207559,207559.86,207783.6,,7,and
screen,html.Screen,2_1_0_1_8,2022-05-03T12:51:17.490Z,,,,,,,,,,,,,,,,,53,,,,,,,,,,,,,,205.39999999999418,,response,,,,99,,,,,,,Space,keypress(Space),,,,,,,,---- -- ----- -- ------ - ------- --- fulfilling<br>------------- ------ ------ ---- ---- ------- ----- -- ----<br>-------- ------- -- ---------- --- - --- ----- ----- ----<br>---- --- --- ----- --- ---- ---- ------- ----- ---- -------<br>--- --- -- ----- -- --- ---- -- --- ---- -- ------ ------<br>--- ----- -- ----,207999,207989,207783.34,207783,207783.6,207999.64,,8,fulfilling
screen,html.Screen,2_1_0_1_9,2022-05-03T12:51:17.698Z,,,,,,,,,,,,,,,,,53,,,,,,,,,,,,,,192.35999999998603,,response,,,,99,,,,,,,Space,keypress(Space),,,,,,,,"---- -- ----- -- ------ - ------- --- ----------<br>relationship, ------ ------ ---- ---- ------- ----- -- ----<br>-------- ------- -- ---------- --- - --- ----- ----- ----<br>---- --- --- ----- --- ---- ---- ------- ----- ---- -------<br>--- --- -- ----- -- --- ---- -- --- ---- -- ------ ------<br>--- ----- -- ----",208206,208192,207999.42,207999,207999.64,208207.38,,9,"relationship,"
screen,html.Screen,2_1_0_1_10,2022-05-03T12:51:18.202Z,,,,,,,,,,,,,,,,,53,,,,,,,,,,,,,,498.61999999999534,,response,,,,99,,,,,,,Space,keypress(Space),,,,,,,,---- -- ----- -- ------ - ------- --- ----------<br>------------- common ------ ---- ---- ------- ----- -- ----<br>-------- ------- -- ---------- --- - --- ----- ----- ----<br>---- --- --- ----- --- ---- ---- ------- ----- ---- -------<br>--- --- -- ----- -- --- ---- -- --- ---- -- ------ ------<br>--- ----- -- ----,208712,208706,208207.2,208207,208207.38,208711.76,,10,common
screen,html.Screen,2_1_0_1_11,2022-05-03T12:51:18.409Z,,,,,,,,,,,,,,,,,53,,,,,,,,,,,,,,197.2399999999907,,response,,,,99,,,,,,,Space,keypress(Space),,,,,,,,---- -- ----- -- ------ - ------- --- ----------<br>------------- ------ wisdom ---- ---- ------- ----- -- ----<br>-------- ------- -- ---------- --- - --- ----- ----- ----<br>---- --- --- ----- --- ---- ---- ------- ----- ---- -------<br>--- --- -- ----- -- --- ---- -- --- ---- -- ------ ------<br>--- ----- -- ----,208919,208909,208711.56,208712,208711.76,208919.38,,11,wisdom
screen,html.Screen,2_1_0_1_12,2022-05-03T12:51:18.571Z,,,,,,,,,,,,,,,,,53,,,,,,,,,,,,,,145.61999999999534,,response,,,,99,,,,,,,Space,keypress(Space),,,,,,,,---- -- ----- -- ------ - ------- --- ----------<br>------------- ------ ------ says ---- ------- ----- -- ----<br>-------- ------- -- ---------- --- - --- ----- ----- ----<br>---- --- --- ----- --- ---- ---- ------- ----- ---- -------<br>--- --- -- ----- -- --- ---- -- --- ---- -- ------ ------<br>--- ----- -- ----,209079,209065,208919.22,208920,208919.38,209085.46,,12,says
screen,html.Screen,2_1_0_1_13,2022-05-03T12:51:18.770Z,,,,,,,,,,,,,,,,,53,,,,,,,,,,,,,,182.54000000000815,,response,,,,99,,,,,,,Space,keypress(Space),,,,,,,,---- -- ----- -- ------ - ------- --- ----------<br>------------- ------ ------ ---- that ------- ----- -- ----<br>-------- ------- -- ---------- --- - --- ----- ----- ----<br>---- --- --- ----- --- ---- ---- ------- ----- ---- -------<br>--- --- -- ----- -- --- ---- -- --- ---- -- ------ ------<br>--- ----- -- ----,209278,209268,209079.6,209079,209085.46,209285.44,,13,that
screen,html.Screen,2_1_0_1_14,2022-05-03T12:51:18.978Z,,,,,,,,,,,,,,,,,53,,,,,,,,,,,,,,185.55999999999767,,response,,,,99,,,,,,,Space,keypress(Space),,,,,,,,---- -- ----- -- ------ - ------- --- ----------<br>------------- ------ ------ ---- ---- feeling ----- -- ----<br>-------- ------- -- ---------- --- - --- ----- ----- ----<br>---- --- --- ----- --- ---- ---- ------- ----- ---- -------<br>--- --- -- ----- -- --- ---- -- --- ---- -- ------ ------<br>--- ----- -- ----,209487,209471,209279.24,209279,209285.44,209487.52,,14,feeling
screen,html.Screen,2_1_0_1_15,2022-05-03T12:51:19.282Z,,,,,,,,,,,,,,,,,53,,,,,,,,,,,,,,295.4800000000105,,response,,,,99,,,,,,,Space,keypress(Space),,,,,,,,---- -- ----- -- ------ - ------- --- ----------<br>------------- ------ ------ ---- ---- ------- close -- ----<br>-------- ------- -- ---------- --- - --- ----- ----- ----<br>---- --- --- ----- --- ---- ---- ------- ----- ---- -------<br>--- --- -- ----- -- --- ---- -- --- ---- -- ------ ------<br>--- ----- -- ----,209791,209783,209487.3,209488,209487.52,209791.7,,15,close
screen,html.Screen,2_1_0_1_16,2022-05-03T12:51:19.482Z,,,,,,,,,,,,,,,,,53,,,,,,,,,,,,,,194.29999999998836,,response,,,,99,,,,,,,Space,keypress(Space),,,,,,,,---- -- ----- -- ------ - ------- --- ----------<br>------------- ------ ------ ---- ---- ------- ----- to ----<br>-------- ------- -- ---------- --- - --- ----- ----- ----<br>---- --- --- ----- --- ---- ---- ------- ----- ---- -------<br>--- --- -- ----- -- --- ---- -- --- ---- -- ------ ------<br>--- ----- -- ----,209991,209986,209791.5,209792,209791.7,209991.44,,16,to
screen,html.Screen,2_1_0_1_17,2022-05-03T12:51:19.978Z,,,,,,,,,,,,,,,,,53,,,,,,,,,,,,,,493.5599999999977,,response,,,,99,,,,,,,Space,keypress(Space),,,,,,,,---- -- ----- -- ------ - ------- --- ----------<br>------------- ------ ------ ---- ---- ------- ----- -- your<br>-------- ------- -- ---------- --- - --- ----- ----- ----<br>---- --- --- ----- --- ---- ---- ------- ----- ---- -------<br>--- --- -- ----- -- --- ---- -- --- ---- -- ------ ------<br>--- ----- -- ----,210487,210485,209991.22,209991,209991.44,210487.6,,17,your
screen,html.Screen,2_1_0_1_18,2022-05-03T12:51:20.266Z,,,,,,,,,,,,,,,,,53,,,,,,,,,,,,,,278.3999999999942,,response,,,,99,,,,,,,Space,keypress(Space),,,,,,,,---- -- ----- -- ------ - ------- --- ----------<br>------------- ------ ------ ---- ---- ------- ----- -- ----<br>romantic ------- -- ---------- --- - --- ----- ----- ----<br>---- --- --- ----- --- ---- ---- ------- ----- ---- -------<br>--- --- -- ----- -- --- ---- -- --- ---- -- ------ ------<br>--- ----- -- ----,210775,210766,210487.32,210487,210487.6,210775.68,,18,romantic
screen,html.Screen,2_1_0_1_19,2022-05-03T12:51:20.474Z,,,,,,,,,,,,,,,,,53,,,,,,,,,,,,,,193.32000000000698,,response,,,,99,,,,,,,Space,keypress(Space),,,,,,,,---- -- ----- -- ------ - ------- --- ----------<br>------------- ------ ------ ---- ---- ------- ----- -- ----<br>-------- partner -- ---------- --- - --- ----- ----- ----<br>---- --- --- ----- --- ---- ---- ------- ----- ---- -------<br>--- --- -- ----- -- --- ---- -- --- ---- -- ------ ------<br>--- ----- -- ----,210983,210969,210775.5,210775,210775.68,210983.54,,19,partner
screen,html.Screen,2_1_0_1_20,2022-05-03T12:51:20.650Z,,,,,,,,,,,,,,,,,53,,,,,,,,,,,,,,172.45999999999185,,response,,,,99,,,,,,,Space,keypress(Space),,,,,,,,---- -- ----- -- ------ - ------- --- ----------<br>------------- ------ ------ ---- ---- ------- ----- -- ----<br>-------- ------- is ---------- --- - --- ----- ----- ----<br>---- --- --- ----- --- ---- ---- ------- ----- ---- -------<br>--- --- -- ----- -- --- ---- -- --- ---- -- ------ ------<br>--- ----- -- ----,211159,211156,210983.32,210983,210983.54,211166.52,,20,is
screen,html.Screen,2_1_0_1_21,2022-05-03T12:51:21.098Z,,,,,,,,,,,,,,,,,53,,,,,,,,,,,,,,426.4800000000105,,response,,,,99,,,,,,,Space,keypress(Space),,,,,,,,---- -- ----- -- ------ - ------- --- ----------<br>------------- ------ ------ ---- ---- ------- ----- -- ----<br>-------- ------- -- paramount. --- - --- ----- ----- ----<br>---- --- --- ----- --- ---- ---- ------- ----- ---- -------<br>--- --- -- ----- -- --- ---- -- --- ---- -- ------ ------<br>--- ----- -- ----,211607,211593,211159.28,211159,211166.52,211607.66,,21,paramount.
screen,html.Screen,2_1_0_1_22,2022-05-03T12:51:21.442Z,,,,,,,,,,,,,,,,,53,,,,,,,,,,,,,,328.3399999999965,,response,,,,99,,,,,,,Space,keypress(Space),,,,,,,,---- -- ----- -- ------ - ------- --- ----------<br>------------- ------ ------ ---- ---- ------- ----- -- ----<br>-------- ------- -- ---------- But - --- ----- ----- ----<br>---- --- --- ----- --- ---- ---- ------- ----- ---- -------<br>--- --- -- ----- -- --- ---- -- --- ---- -- ------ ------<br>--- ----- -- ----,211951,211936,211607.42,211608,211607.66,211951.42,,22,But
screen,html.Screen,2_1_0_1_23,2022-05-03T12:51:21.634Z,,,,,,,,,,,,,,,,,53,,,,,,,,,,,,,,186.5799999999872,,response,,,,99,,,,,,,Space,keypress(Space),,,,,,,,---- -- ----- -- ------ - ------- --- ----------<br>------------- ------ ------ ---- ---- ------- ----- -- ----<br>-------- ------- -- ---------- --- a --- ----- ----- ----<br>---- --- --- ----- --- ---- ---- ------- ----- ---- -------<br>--- --- -- ----- -- --- ---- -- --- ---- -- ------ ------<br>--- ----- -- ----,212143,212138,211951.28,211951,211951.42,212150.8,,23,a
screen,html.Screen,2_1_0_1_24,2022-05-03T12:51:21.849Z,,,,,,,,,,,,,,,,,53,,,,,,,,,,,,,,205.20000000001164,,response,,,,99,,,,,,,Space,keypress(Space),,,,,,,,---- -- ----- -- ------ - ------- --- ----------<br>------------- ------ ------ ---- ---- ------- ----- -- ----<br>-------- ------- -- ---------- --- - new ----- ----- ----<br>---- --- --- ----- --- ---- ---- ------- ----- ---- -------<br>--- --- -- ----- -- --- ---- -- --- ---- -- ------ ------<br>--- ----- -- ----,212358,212356,212143.06,212143,212150.8,212359.2,,24,new
screen,html.Screen,2_1_0_1_25,2022-05-03T12:51:22.105Z,,,,,,,,,,,,,,,,,53,,,,,,,,,,,,,,246.79999999998836,,response,,,,99,,,,,,,Space,keypress(Space),,,,,,,,---- -- ----- -- ------ - ------- --- ----------<br>------------- ------ ------ ---- ---- ------- ----- -- ----<br>-------- ------- -- ---------- --- - --- study ----- ----<br>---- --- --- ----- --- ---- ---- ------- ----- ---- -------<br>--- --- -- ----- -- --- ---- -- --- ---- -- ------ ------<br>--- ----- -- ----,212615,212606,212359.02,212359,212359.2,212615.32,,25,study
screen,html.Screen,2_1_0_1_26,2022-05-03T12:51:22.506Z,,,,,,,,,,,,,,,,,53,,,,,,,,,,,,,,395.679999999993,,response,,,,99,,,,,,,Space,keypress(Space),,,,,,,,---- -- ----- -- ------ - ------- --- ----------<br>------------- ------ ------ ---- ---- ------- ----- -- ----<br>-------- ------- -- ---------- --- - --- ----- finds ----<br>---- --- --- ----- --- ---- ---- ------- ----- ---- -------<br>--- --- -- ----- -- --- ---- -- --- ---- -- ------ ------<br>--- ----- -- ----,213015,213011,212615.1,212615,212615.32,213015.42,,26,finds
screen,html.Screen,2_1_0_1_27,2022-05-03T12:51:22.842Z,,,,,,,,,,,,,,,,,53,,,,,,,,,,,,,,323.5799999999872,,response,,,,99,,,,,,,Space,keypress(Space),,,,,,,,---- -- ----- -- ------ - ------- --- ----------<br>------------- ------ ------ ---- ---- ------- ----- -- ----<br>-------- ------- -- ---------- --- - --- ----- ----- that<br>---- --- --- ----- --- ---- ---- ------- ----- ---- -------<br>--- --- -- ----- -- --- ---- -- --- ---- -- ------ ------<br>--- ----- -- ----,213350,213339,213015.2,213015,213015.42,213351.4,,27,that
screen,html.Screen,2_1_0_1_28,2022-05-03T12:51:23.009Z,,,,,,,,,,,,,,,,,53,,,,,,,,,,,,,,158.60000000000582,,response,,,,99,,,,,,,Space,keypress(Space),,,,,,,,---- -- ----- -- ------ - ------- --- ----------<br>------------- ------ ------ ---- ---- ------- ----- -- ----<br>-------- ------- -- ---------- --- - --- ----- ----- ----<br>it's --- --- ----- --- ---- ---- ------- ----- ---- -------<br>--- --- -- ----- -- --- ---- -- --- ---- -- ------ ------<br>--- ----- -- ----,213519,213510,213351.24,213351,213351.4,213533.84,,28,it's
screen,html.Screen,2_1_0_1_29,2022-05-03T12:51:23.514Z,,,,,,,,,,,,,,,,,53,,,,,,,,,,,,,,476.1600000000035,,response,,,,99,,,,,,,Space,keypress(Space),,,,,,,,---- -- ----- -- ------ - ------- --- ----------<br>------------- ------ ------ ---- ---- ------- ----- -- ----<br>-------- ------- -- ---------- --- - --- ----- ----- ----<br>---- not --- ----- --- ---- ---- ------- ----- ---- -------<br>--- --- -- ----- -- --- ---- -- --- ---- -- ------ ------<br>--- ----- -- ----,214023,214010,213519.06,213519,213533.84,214023.54,,29,not
screen,html.Screen,2_1_0_1_30,2022-05-03T12:51:23.666Z,,,,,,,,,,,,,,,,,53,,,,,,,,,,,,,,142.45999999999185,,response,,,,99,,,,,,,Space,keypress(Space),,,,,,,,---- -- ----- -- ------ - ------- --- ----------<br>------------- ------ ------ ---- ---- ------- ----- -- ----<br>-------- ------- -- ---------- --- - --- ----- ----- ----<br>---- --- how ----- --- ---- ---- ------- ----- ---- -------<br>--- --- -- ----- -- --- ---- -- --- ---- -- ------ ------<br>--- ----- -- ----,214175,214166,214023.32,214024,214023.54,214189.86,,30,how
screen,html.Screen,2_1_0_1_31,2022-05-03T12:51:23.826Z,,,,,,,,,,,,,,,,,53,,,,,,,,,,,,,,133.14000000001397,,response,,,,99,,,,,,,Space,keypress(Space),,,,,,,,---- -- ----- -- ------ - ------- --- ----------<br>------------- ------ ------ ---- ---- ------- ----- -- ----<br>-------- ------- -- ---------- --- - --- ----- ----- ----<br>---- --- --- close --- ---- ---- ------- ----- ---- -------<br>--- --- -- ----- -- --- ---- -- --- ---- -- ------ ------<br>--- ----- -- ----,214335,214323,214174.94,214175,214189.86,214339.86,,31,close
screen,html.Screen,2_1_0_1_32,2022-05-03T12:51:24.010Z,,,,,,,,,,,,,,,,,53,,,,,,,,,,,,,,169.14000000001397,,response,,,,99,,,,,,,Space,keypress(Space),,,,,,,,---- -- ----- -- ------ - ------- --- ----------<br>------------- ------ ------ ---- ---- ------- ----- -- ----<br>-------- ------- -- ---------- --- - --- ----- ----- ----<br>---- --- --- ----- you ---- ---- ------- ----- ---- -------<br>--- --- -- ----- -- --- ---- -- --- ---- -- ------ ------<br>--- ----- -- ----,214519,214509,214334.94,214335,214339.86,214522.86,,32,you
screen,html.Screen,2_1_0_1_33,2022-05-03T12:51:24.162Z,,,,,,,,,,,,,,,,,53,,,,,,,,,,,,,,142.14000000001397,,response,,,,99,,,,,,,Space,keypress(Space),,,,,,,,---- -- ----- -- ------ - ------- --- ----------<br>------------- ------ ------ ---- ---- ------- ----- -- ----<br>-------- ------- -- ---------- --- - --- ----- ----- ----<br>---- --- --- ----- --- feel ---- ------- ----- ---- -------<br>--- --- -- ----- -- --- ---- -- --- ---- -- ------ ------<br>--- ----- -- ----,214671,214665,214518.9,214519,214522.86,214672.84,,33,feel
screen,html.Screen,2_1_0_1_34,2022-05-03T12:51:24.465Z,,,,,,,,,,,,,,,,,53,,,,,,,,,,,,,,288.1600000000035,,response,,,,99,,,,,,,Space,keypress(Space),,,,,,,,---- -- ----- -- ------ - ------- --- ----------<br>------------- ------ ------ ---- ---- ------- ----- -- ----<br>-------- ------- -- ---------- --- - --- ----- ----- ----<br>---- --- --- ----- --- ---- that ------- ----- ---- -------<br>--- --- -- ----- -- --- ---- -- --- ---- -- ------ ------<br>--- ----- -- ----,214974,214961,214671.14,214671,214672.84,214974.94,,34,that
screen,html.Screen,2_1_0_1_35,2022-05-03T12:51:24.682Z,,,,,,,,,,,,,,,,,53,,,,,,,,,,,,,,206.05999999999767,,response,,,,99,,,,,,,Space,keypress(Space),,,,,,,,---- -- ----- -- ------ - ------- --- ----------<br>------------- ------ ------ ---- ---- ------- ----- -- ----<br>-------- ------- -- ---------- --- - --- ----- ----- ----<br>---- --- --- ----- --- ---- ---- matters ----- ---- -------<br>--- --- -- ----- -- --- ---- -- --- ---- -- ------ ------<br>--- ----- -- ----,215191,215181,214974.82,214975,214974.94,215191.34,,35,matters
screen,html.Screen,2_1_0_1_36,2022-05-03T12:51:24.898Z,,,,,,,,,,,,,,,,,53,,,,,,,,,,,,,,206.6600000000035,,response,,,,99,,,,,,,Space,keypress(Space),,,,,,,,"---- -- ----- -- ------ - ------- --- ----------<br>------------- ------ ------ ---- ---- ------- ----- -- ----<br>-------- ------- -- ---------- --- - --- ----- ----- ----<br>---- --- --- ----- --- ---- ---- ------- most, ---- -------<br>--- --- -- ----- -- --- ---- -- --- ---- -- ------ ------<br>--- ----- -- ----",215407,215398,215191.12,215191,215191.34,215407.26,,36,"most,"
screen,html.Screen,2_1_0_1_37,2022-05-03T12:51:25.097Z,,,,,,,,,,,,,,,,,53,,,,,,,,,,,,,,193.7399999999907,,response,,,,99,,,,,,,Space,keypress(Space),,,,,,,,---- -- ----- -- ------ - ------- --- ----------<br>------------- ------ ------ ---- ---- ------- ----- -- ----<br>-------- ------- -- ---------- --- - --- ----- ----- ----<br>---- --- --- ----- --- ---- ---- ------- ----- it's -------<br>--- --- -- ----- -- --- ---- -- --- ---- -- ------ ------<br>--- ----- -- ----,215606,215601,215407,215407,215407.26,215623.88,,37,it's
screen,html.Screen,2_1_0_1_38,2022-05-03T12:51:25.338Z,,,,,,,,,,,,,,,,,53,,,,,,,,,,,,,,211.11999999999534,,response,,,,99,,,,,,,Space,keypress(Space),,,,,,,,---- -- ----- -- ------ - ------- --- ----------<br>------------- ------ ------ ---- ---- ------- ----- -- ----<br>-------- ------- -- ---------- --- - --- ----- ----- ----<br>---- --- --- ----- --- ---- ---- ------- ----- ---- whether<br>--- --- -- ----- -- --- ---- -- --- ---- -- ------ ------<br>--- ----- -- ----,215847,215835,215606.9,215607,215623.88,215847.3,,38,whether
screen,html.Screen,2_1_0_1_39,2022-05-03T12:51:25.546Z,,,,,,,,,,,,,,,,,53,,,,,,,,,,,,,,205.70000000001164,,response,,,,99,,,,,,,Space,keypress(Space),,,,,,,,---- -- ----- -- ------ - ------- --- ----------<br>------------- ------ ------ ---- ---- ------- ----- -- ----<br>-------- ------- -- ---------- --- - --- ----- ----- ----<br>---- --- --- ----- --- ---- ---- ------- ----- ---- -------<br>you --- -- ----- -- --- ---- -- --- ---- -- ------ ------<br>--- ----- -- ----,216054,216053,215847.06,215847,215847.3,216055.28,,39,you
screen,html.Screen,2_1_0_1_40,2022-05-03T12:51:26.114Z,,,,,,,,,,,,,,,,,53,,,,,,,,,,,,,,559.7200000000012,,response,,,,99,,,,,,,Space,keypress(Space),,,,,,,,---- -- ----- -- ------ - ------- --- ----------<br>------------- ------ ------ ---- ---- ------- ----- -- ----<br>-------- ------- -- ---------- --- - --- ----- ----- ----<br>---- --- --- ----- --- ---- ---- ------- ----- ---- -------<br>--- are -- ----- -- --- ---- -- --- ---- -- ------ ------<br>--- ----- -- ----,216623,216615,216055.1,216055,216055.28,216623.36,,40,are
screen,html.Screen,2_1_0_1_41,2022-05-03T12:51:26.297Z,,,,,,,,,,,,,,,,,53,,,,,,,,,,,,,,178.64000000001397,,response,,,,99,,,,,,,Space,keypress(Space),,,,,,,,---- -- ----- -- ------ - ------- --- ----------<br>------------- ------ ------ ---- ---- ------- ----- -- ----<br>-------- ------- -- ---------- --- - --- ----- ----- ----<br>---- --- --- ----- --- ---- ---- ------- ----- ---- -------<br>--- --- as ----- -- --- ---- -- --- ---- -- ------ ------<br>--- ----- -- ----,216806,216802,216623.16,216623,216623.36,216822.96,,41,as
screen,html.Screen,2_1_0_1_42,2022-05-03T12:51:26.714Z,,,,,,,,,,,,,,,,,53,,,,,,,,,,,,,,385.04000000000815,,response,,,,99,,,,,,,Space,keypress(Space),,,,,,,,---- -- ----- -- ------ - ------- --- ----------<br>------------- ------ ------ ---- ---- ------- ----- -- ----<br>-------- ------- -- ---------- --- - --- ----- ----- ----<br>---- --- --- ----- --- ---- ---- ------- ----- ---- -------<br>--- --- -- close -- --- ---- -- --- ---- -- ------ ------<br>--- ----- -- ----,217223,217208,216806.88,216807,216822.96,217223.18,,42,close
screen,html.Screen,2_1_0_1_43,2022-05-03T12:51:26.930Z,,,,,,,,,,,,,,,,,53,,,,,,,,,,,,,,202.82000000000698,,response,,,,99,,,,,,,Space,keypress(Space),,,,,,,,---- -- ----- -- ------ - ------- --- ----------<br>------------- ------ ------ ---- ---- ------- ----- -- ----<br>-------- ------- -- ---------- --- - --- ----- ----- ----<br>---- --- --- ----- --- ---- ---- ------- ----- ---- -------<br>--- --- -- ----- as --- ---- -- --- ---- -- ------ ------<br>--- ----- -- ----,217439,217426,217223,217223,217223.18,217438.96,,43,as
screen,html.Screen,2_1_0_1_44,2022-05-03T12:51:27.146Z,,,,,,,,,,,,,,,,,53,,,,,,,,,,,,,,205.04000000000815,,response,,,,99,,,,,,,Space,keypress(Space),,,,,,,,---- -- ----- -- ------ - ------- --- ----------<br>------------- ------ ------ ---- ---- ------- ----- -- ----<br>-------- ------- -- ---------- --- - --- ----- ----- ----<br>---- --- --- ----- --- ---- ---- ------- ----- ---- -------<br>--- --- -- ----- -- you ---- -- --- ---- -- ------ ------<br>--- ----- -- ----,217655,217644,217438.8,217439,217438.96,217655.34,,44,you
screen,html.Screen,2_1_0_1_45,2022-05-03T12:51:27.330Z,,,,,,,,,,,,,,,,,53,,,,,,,,,,,,,,176.6600000000035,,response,,,,99,,,,,,,Space,keypress(Space),,,,,,,,---- -- ----- -- ------ - ------- --- ----------<br>------------- ------ ------ ---- ---- ------- ----- -- ----<br>-------- ------- -- ---------- --- - --- ----- ----- ----<br>---- --- --- ----- --- ---- ---- ------- ----- ---- -------<br>--- --- -- ----- -- --- want -- --- ---- -- ------ ------<br>--- ----- -- ----,217839,217832,217655.12,217655,217655.34,217855,,45,want
screen,html.Screen,2_1_0_1_46,2022-05-03T12:51:27.513Z,,,,,,,,,,,,,,,,,53,,,,,,,,,,,,,,164,,response,,,,99,,,,,,,Space,keypress(Space),,,,,,,,---- -- ----- -- ------ - ------- --- ----------<br>------------- ------ ------ ---- ---- ------- ----- -- ----<br>-------- ------- -- ---------- --- - --- ----- ----- ----<br>---- --- --- ----- --- ---- ---- ------- ----- ---- -------<br>--- --- -- ----- -- --- ---- to --- ---- -- ------ ------<br>--- ----- -- ----,218023,218019,217838.94,217839,217855,218038,,46,to
screen,html.Screen,2_1_0_1_47,2022-05-03T12:51:27.713Z,,,,,,,,,,,,,,,,,53,,,,,,,,,,,,,,168,,response,,,,99,,,,,,,Space,keypress(Space),,,,,,,,"---- -- ----- -- ------ - ------- --- ----------<br>------------- ------ ------ ---- ---- ------- ----- -- ----<br>-------- ------- -- ---------- --- - --- ----- ----- ----<br>---- --- --- ----- --- ---- ---- ------- ----- ---- -------<br>--- --- -- ----- -- --- ---- -- be, ---- -- ------ ------<br>--- ----- -- ----",218223,218206,218022.9,218023,218038,218238.02,,47,"be,"
screen,html.Screen,2_1_0_1_48,2022-05-03T12:51:27.945Z,,,,,,,,,,,,,,,,,53,,,,,,,,,,,,,,201.98000000001048,,response,,,,99,,,,,,,Space,keypress(Space),,,,,,,,---- -- ----- -- ------ - ------- --- ----------<br>------------- ------ ------ ---- ---- ------- ----- -- ----<br>-------- ------- -- ---------- --- - --- ----- ----- ----<br>---- --- --- ----- --- ---- ---- ------- ----- ---- -------<br>--- --- -- ----- -- --- ---- -- --- even -- ------ ------<br>--- ----- -- ----,218454,218440,218223.04,218223,218238.02,218455.06,,48,even
screen,html.Screen,2_1_0_1_49,2022-05-03T12:51:28.186Z,,,,,,,,,,,,,,,,,53,,,,,,,,,,,,,,234.94000000000233,,response,,,,99,,,,,,,Space,keypress(Space),,,,,,,,---- -- ----- -- ------ - ------- --- ----------<br>------------- ------ ------ ---- ---- ------- ----- -- ----<br>-------- ------- -- ---------- --- - --- ----- ----- ----<br>---- --- --- ----- --- ---- ---- ------- ----- ---- -------<br>--- --- -- ----- -- --- ---- -- --- ---- if ------ ------<br>--- ----- -- ----,218694,218690,218454.86,218455,218455.06,218695.26,,49,if
screen,html.Screen,2_1_0_1_50,2022-05-03T12:51:28.401Z,,,,,,,,,,,,,,,,,53,,,,,,,,,,,,,,212.7399999999907,,response,,,,99,,,,,,,Space,keypress(Space),,,,,,,,---- -- ----- -- ------ - ------- --- ----------<br>------------- ------ ------ ---- ---- ------- ----- -- ----<br>-------- ------- -- ---------- --- - --- ----- ----- ----<br>---- --- --- ----- --- ---- ---- ------- ----- ---- -------<br>--- --- -- ----- -- --- ---- -- --- ---- -- that's ------<br>--- ----- -- ----,218910,218908,218695.04,218695,218695.26,218911.22,,50,that's
screen,html.Screen,2_1_0_1_51,2022-05-03T12:51:28.618Z,,,,,,,,,,,,,,,,,53,,,,,,,,,,,,,,199.77999999999884,,response,,,,99,,,,,,,Space,keypress(Space),,,,,,,,---- -- ----- -- ------ - ------- --- ----------<br>------------- ------ ------ ---- ---- ------- ----- -- ----<br>-------- ------- -- ---------- --- - --- ----- ----- ----<br>---- --- --- ----- --- ---- ---- ------- ----- ---- -------<br>--- --- -- ----- -- --- ---- -- --- ---- -- ------ really<br>--- ----- -- ----,219126,219111,218911.06,218911,218911.22,219127.18,,51,really
screen,html.Screen,2_1_0_1_52,2022-05-03T12:51:28.978Z,,,,,,,,,,,,,,,,,53,,,,,,,,,,,,,,342.820000000007,,response,,,,99,,,,,,,Space,keypress(Space),,,,,,,,---- -- ----- -- ------ - ------- --- ----------<br>------------- ------ ------ ---- ---- ------- ----- -- ----<br>-------- ------- -- ---------- --- - --- ----- ----- ----<br>---- --- --- ----- --- ---- ---- ------- ----- ---- -------<br>--- --- -- ----- -- --- ---- -- --- ---- -- ------ ------<br>not ----- -- ----,219486,219470,219127,219126,219127.18,219487.14,,52,not
screen,html.Screen,2_1_0_1_53,2022-05-03T12:51:29.177Z,,,,,,,,,,,,,,,,,53,,,,,,,,,,,,,,184.85999999998603,,response,,,,99,,,,,,,Space,keypress(Space),,,,,,,,---- -- ----- -- ------ - ------- --- ----------<br>------------- ------ ------ ---- ---- ------- ----- -- ----<br>-------- ------- -- ---------- --- - --- ----- ----- ----<br>---- --- --- ----- --- ---- ---- ------- ----- ---- -------<br>--- --- -- ----- -- --- ---- -- --- ---- -- ------ ------<br>--- close -- ----,219687,219672,219486.94,219487,219487.14,219703,,53,close
screen,html.Screen,2_1_0_1_54,2022-05-03T12:51:29.498Z,,,,,,,,,,,,,,,,,53,,,,,,,,,,,,,,297,,response,,,,99,,,,,,,Space,keypress(Space),,,,,,,,---- -- ----- -- ------ - ------- --- ----------<br>------------- ------ ------ ---- ---- ------- ----- -- ----<br>-------- ------- -- ---------- --- - --- ----- ----- ----<br>---- --- --- ----- --- ---- ---- ------- ----- ---- -------<br>--- --- -- ----- -- --- ---- -- --- ---- -- ------ ------<br>--- ----- at ----,220006,220000,219687.12,219687,219703,220007.14,,54,at
screen,html.Screen,2_1_0_1_55,2022-05-03T12:51:29.921Z,,,,,,,,,,,,,,,,,53,,,,,,,,,,,,,,413.85999999998603,,response,,,,99,,,,,,,Space,keypress(Space),,,,,,,,---- -- ----- -- ------ - ------- --- ----------<br>------------- ------ ------ ---- ---- ------- ----- -- ----<br>-------- ------- -- ---------- --- - --- ----- ----- ----<br>---- --- --- ----- --- ---- ---- ------- ----- ---- -------<br>--- --- -- ----- -- --- ---- -- --- ---- -- ------ ------<br>--- ----- -- all.,220430,220421,220006.88,220007,220007.14,220431.8,,55,all.
Item 99,flow.Loop,2_1_0_1,2022-05-03T12:51:29.922Z,,,,,,,,,,,,,,,,,,,,,,,,,,,,,,,15158.660000000003,,completion,,,,,H,,,,,,,,,,,silence,,,,,220431,220421,205245.36,205246,205262.34,220431.8,,,
Question 1,html.Screen,2_1_0_2,2022-05-03T12:51:34.013Z,,,,,,,,,,,,,,,,,,,,,,,,,,,,true,FALSE,,4076.2000000000116,,response,,,,99,H,,,,,,FALSE,click #choice-2,,,,silence,,,,,224522,224508,220431.6,220431,220431.8,224532.68,,,
Question 2,html.Screen,2_1_0_3,2022-05-03T12:51:37.989Z,,,,,,,,,,,,,,,,,,,,,,,,,,,,true,TRUE,,3954.320000000007,,response,,,,99,H,,,,,,TRUE,click #choice-1,,,,silence,,,,,228499,228487,224521.72,224522,224532.68,228512.8,,,
Item 99,flow.Sequence,2_1_0,2022-05-03T12:51:37.990Z,,,,,,,,,,,,,,,,,,,,,,,,,,,,,,,33229.26000000001,,completion,,,,,,,,,,,,,,,,,,,,,228499,228487,195242.7,195246,195257.74,228512.8,,,
Holding screen,html.Screen,2_1_1_0,2022-05-03T12:51:47.992Z,,,,,,,,,,,,,,,,,,,,,,,,,,,,,,,10004.340000000026,,timeout,,,,,,,,,,,,,,,,,,,,,238501,238500.16,228497.6,228500,228512.8,238517.14,,,
screen,html.Screen,2_1_1_1_0,2022-05-03T12:51:48.713Z,,,,,,,,,,,,,,,,,54,,,,,,,,,,,,,,701.859999999986,,response,,,,100,,,,,,,Space,keypress(Space),,,,,,,,At --- ---- --- ------ ----- ------- ---- -- --- ------- --<br>------- ---------- ------ -- ----- -- ----- -- ---- ------<br>--- ----- --- --- ------ -------- ----- --- ------ ----- --<br>----- ----- ---------- --- --- ------ ------ ---- -- ------<br>------- --- ------ ----- --- ---- ------- -- ---- --- --<br>------- ------,239222,239219,238500.16,238501,238517.14,239222.52,,0,At
screen,html.Screen,2_1_1_1_1,2022-05-03T12:51:48.985Z,,,,,,,,,,,,,,,,,54,,,,,,,,,,,,,,261.4800000000105,,response,,,,100,,,,,,,Space,keypress(Space),,,,,,,,-- the ---- --- ------ ----- ------- ---- -- --- ------- --<br>------- ---------- ------ -- ----- -- ----- -- ---- ------<br>--- ----- --- --- ------ -------- ----- --- ------ ----- --<br>----- ----- ---------- --- --- ------ ------ ---- -- ------<br>------- --- ------ ----- --- ---- ------- -- ---- --- --<br>------- ------,239493,239484,239222.32,239222,239222.52,239494.48,,1,the
screen,html.Screen,2_1_1_1_2,2022-05-03T12:51:49.425Z,,,,,,,,,,,,,,,,,54,,,,,,,,,,,,,,426.5199999999895,,response,,,,100,,,,,,,Space,keypress(Space),,,,,,,,-- --- time --- ------ ----- ------- ---- -- --- ------- --<br>------- ---------- ------ -- ----- -- ----- -- ---- ------<br>--- ----- --- --- ------ -------- ----- --- ------ ----- --<br>----- ----- ---------- --- --- ------ ------ ---- -- ------<br>------- --- ------ ----- --- ---- ------- -- ---- --- --<br>------- ------,239934,239921,239494.24,239494,239494.48,239934.76,,2,time
screen,html.Screen,2_1_1_1_3,2022-05-03T12:51:49.625Z,,,,,,,,,,,,,,,,,54,,,,,,,,,,,,,,189.2399999999907,,response,,,,100,,,,,,,Space,keypress(Space),,,,,,,,-- --- ---- the ------ ----- ------- ---- -- --- ------- --<br>------- ---------- ------ -- ----- -- ----- -- ---- ------<br>--- ----- --- --- ------ -------- ----- --- ------ ----- --<br>----- ----- ---------- --- --- ------ ------ ---- -- ------<br>------- --- ------ ----- --- ---- ------- -- ---- --- --<br>------- ------,240134,240124,239934.5,239935,239934.76,240151.14,,3,the
screen,html.Screen,2_1_1_1_4,2022-05-03T12:51:49.801Z,,,,,,,,,,,,,,,,,54,,,,,,,,,,,,,,144.85999999998603,,response,,,,100,,,,,,,Space,keypress(Space),,,,,,,,-- --- ---- --- French ----- ------- ---- -- --- ------- --<br>------- ---------- ------ -- ----- -- ----- -- ---- ------<br>--- ----- --- --- ------ -------- ----- --- ------ ----- --<br>----- ----- ---------- --- --- ------ ------ ---- -- ------<br>------- --- ------ ----- --- ---- ------- -- ---- --- --<br>------- ------,240310,240296,240134.2,240134,240151.14,240310.58,,4,French
screen,html.Screen,2_1_1_1_5,2022-05-03T12:51:50.017Z,,,,,,,,,,,,,,,,,54,,,,,,,,,,,,,,203.4200000000128,,response,,,,100,,,,,,,Space,keypress(Space),,,,,,,,-- --- ---- --- ------ crown ------- ---- -- --- ------- --<br>------- ---------- ------ -- ----- -- ----- -- ---- ------<br>--- ----- --- --- ------ -------- ----- --- ------ ----- --<br>----- ----- ---------- --- --- ------ ------ ---- -- ------<br>------- --- ------ ----- --- ---- ------- -- ---- --- --<br>------- ------,240525,240514,240310.32,240310,240310.58,240526.66,,5,crown
screen,html.Screen,2_1_1_1_6,2022-05-03T12:51:50.345Z,,,,,,,,,,,,,,,,,54,,,,,,,,,,,,,,315.3399999999965,,response,,,,100,,,,,,,Space,keypress(Space),,,,,,,,-- --- ---- --- ------ ----- secured ---- -- --- ------- --<br>------- ---------- ------ -- ----- -- ----- -- ---- ------<br>--- ----- --- --- ------ -------- ----- --- ------ ----- --<br>----- ----- ---------- --- --- ------ ------ ---- -- ------<br>------- --- ------ ----- --- ---- ------- -- ---- --- --<br>------- ------,240854,240842,240526.46,240527,240526.66,240854.52,,6,secured
screen,html.Screen,2_1_1_1_7,2022-05-03T12:51:50.529Z,,,,,,,,,,,,,,,,,54,,,,,,,,,,,,,,174.48000000001048,,response,,,,100,,,,,,,Space,keypress(Space),,,,,,,,-- --- ---- --- ------ ----- ------- much -- --- ------- --<br>------- ---------- ------ -- ----- -- ----- -- ---- ------<br>--- ----- --- --- ------ -------- ----- --- ------ ----- --<br>----- ----- ---------- --- --- ------ ------ ---- -- ------<br>------- --- ------ ----- --- ---- ------- -- ---- --- --<br>------- ------,241038,241029,240854.26,240855,240854.52,241054.16,,7,much
screen,html.Screen,2_1_1_1_8,2022-05-03T12:51:50.857Z,,,,,,,,,,,,,,,,,54,,,,,,,,,,,,,,302.8399999999965,,response,,,,100,,,,,,,Space,keypress(Space),,,,,,,,-- --- ---- --- ------ ----- ------- ---- of --- ------- --<br>------- ---------- ------ -- ----- -- ----- -- ---- ------<br>--- ----- --- --- ------ -------- ----- --- ------ ----- --<br>----- ----- ---------- --- --- ------ ------ ---- -- ------<br>------- --- ------ ----- --- ---- ------- -- ---- --- --<br>------- ------,241366,241357,241038.64,241038,241054.16,241366.72,,8,of
screen,html.Screen,2_1_1_1_9,2022-05-03T12:51:51.161Z,,,,,,,,,,,,,,,,,54,,,,,,,,,,,,,,301.27999999999884,,response,,,,100,,,,,,,Space,keypress(Space),,,,,,,,-- --- ---- --- ------ ----- ------- ---- -- its ------- --<br>------- ---------- ------ -- ----- -- ----- -- ---- ------<br>--- ----- --- --- ------ -------- ----- --- ------ ----- --<br>----- ----- ---------- --- --- ------ ------ ---- -- ------<br>------- --- ------ ----- --- ---- ------- -- ---- --- --<br>------- ------,241670,241668,241366.58,241366,241366.72,241670.52,,9,its
screen,html.Screen,2_1_1_1_10,2022-05-03T12:51:51.585Z,,,,,,,,,,,,,,,,,54,,,,,,,,,,,,,,419.4800000000105,,response,,,,100,,,,,,,Space,keypress(Space),,,,,,,,-- --- ---- --- ------ ----- ------- ---- -- --- revenue --<br>------- ---------- ------ -- ----- -- ----- -- ---- ------<br>--- ----- --- --- ------ -------- ----- --- ------ ----- --<br>----- ----- ---------- --- --- ------ ------ ---- -- ------<br>------- --- ------ ----- --- ---- ------- -- ---- --- --<br>------- ------,242095,242090,241670.36,241670,241670.52,242094.88,,10,revenue
screen,html.Screen,2_1_1_1_11,2022-05-03T12:51:51.817Z,,,,,,,,,,,,,,,,,54,,,,,,,,,,,,,,228.11999999999534,,response,,,,100,,,,,,,Space,keypress(Space),,,,,,,,-- --- ---- --- ------ ----- ------- ---- -- --- ------- by<br>------- ---------- ------ -- ----- -- ----- -- ---- ------<br>--- ----- --- --- ------ -------- ----- --- ------ ----- --<br>----- ----- ---------- --- --- ------ ------ ---- -- ------<br>------- --- ------ ----- --- ---- ------- -- ---- --- --<br>------- ------,242326,242323,242094.76,242095,242094.88,242326.26,,11,by
screen,html.Screen,2_1_1_1_12,2022-05-03T12:51:52.241Z,,,,,,,,,,,,,,,,,54,,,,,,,,,,,,,,417.7399999999907,,response,,,,100,,,,,,,Space,keypress(Space),,,,,,,,-- --- ---- --- ------ ----- ------- ---- -- --- ------- --<br>issuing ---------- ------ -- ----- -- ----- -- ---- ------<br>--- ----- --- --- ------ -------- ----- --- ------ ----- --<br>----- ----- ---------- --- --- ------ ------ ---- -- ------<br>------- --- ------ ----- --- ---- ------- -- ---- --- --<br>------- ------,242750,242744,242326,242326,242326.26,242750.32,,12,issuing
screen,html.Screen,2_1_1_1_13,2022-05-03T12:51:52.433Z,,,,,,,,,,,,,,,,,54,,,,,,,,,,,,,,180.67999999999302,,response,,,,100,,,,,,,Space,keypress(Space),,,,,,,,-- --- ---- --- ------ ----- ------- ---- -- --- ------- --<br>------- government ------ -- ----- -- ----- -- ---- ------<br>--- ----- --- --- ------ -------- ----- --- ------ ----- --<br>----- ----- ---------- --- --- ------ ------ ---- -- ------<br>------- --- ------ ----- --- ---- ------- -- ---- --- --<br>------- ------,242942,242931,242750.14,242750,242750.32,242949.5,,13,government
screen,html.Screen,2_1_1_1_14,2022-05-03T12:51:52.953Z,,,,,,,,,,,,,,,,,54,,,,,,,,,,,,,,496.5,,response,,,,100,,,,,,,Space,keypress(Space),,,,,,,,-- --- ---- --- ------ ----- ------- ---- -- --- ------- --<br>------- ---------- bonds. -- ----- -- ----- -- ---- ------<br>--- ----- --- --- ------ -------- ----- --- ------ ----- --<br>----- ----- ---------- --- --- ------ ------ ---- -- ------<br>------- --- ------ ----- --- ---- ------- -- ---- --- --<br>------- ------,243462,243446,242942,242942,242949.5,243462.34,,14,bonds.
screen,html.Screen,2_1_1_1_15,2022-05-03T12:51:53.161Z,,,,,,,,,,,,,,,,,54,,,,,,,,,,,,,,201.6600000000035,,response,,,,100,,,,,,,Space,keypress(Space),,,,,,,,-- --- ---- --- ------ ----- ------- ---- -- --- ------- --<br>------- ---------- ------ In ----- -- ----- -- ---- ------<br>--- ----- --- --- ------ -------- ----- --- ------ ----- --<br>----- ----- ---------- --- --- ------ ------ ---- -- ------<br>------- --- ------ ----- --- ---- ------- -- ---- --- --<br>------- ------,243669,243664,243462.14,243462,243462.34,243670.16,,15,In
screen,html.Screen,2_1_1_1_16,2022-05-03T12:51:53.808Z,,,,,,,,,,,,,,,,,54,,,,,,,,,,,,,,633.8399999999965,,response,,,,100,,,,,,,Space,keypress(Space),,,,,,,,"-- --- ---- --- ------ ----- ------- ---- -- --- ------- --<br>------- ---------- ------ -- 1727, -- ----- -- ---- ------<br>--- ----- --- --- ------ -------- ----- --- ------ ----- --<br>----- ----- ---------- --- --- ------ ------ ---- -- ------<br>------- --- ------ ----- --- ---- ------- -- ---- --- --<br>------- ------",244318,244304,243669.98,243670,243670.16,244318.32,,16,"1727,"
screen,html.Screen,2_1_1_1_17,2022-05-03T12:51:54.001Z,,,,,,,,,,,,,,,,,54,,,,,,,,,,,,,,188.67999999999302,,response,,,,100,,,,,,,Space,keypress(Space),,,,,,,,-- --- ---- --- ------ ----- ------- ---- -- --- ------- --<br>------- ---------- ------ -- ----- in ----- -- ---- ------<br>--- ----- --- --- ------ -------- ----- --- ------ ----- --<br>----- ----- ---------- --- --- ------ ------ ---- -- ------<br>------- --- ------ ----- --- ---- ------- -- ---- --- --<br>------- ------,244510,244507,244318.06,244318,244318.32,244517.78,,17,in
screen,html.Screen,2_1_1_1_18,2022-05-03T12:51:54.200Z,,,,,,,,,,,,,,,,,54,,,,,,,,,,,,,,176.22000000000116,,response,,,,100,,,,,,,Space,keypress(Space),,,,,,,,-- --- ---- --- ------ ----- ------- ---- -- --- ------- --<br>------- ---------- ------ -- ----- -- order -- ---- ------<br>--- ----- --- --- ------ -------- ----- --- ------ ----- --<br>----- ----- ---------- --- --- ------ ------ ---- -- ------<br>------- --- ------ ----- --- ---- ------- -- ---- --- --<br>------- ------,244710,244694,244509.94,244510,244517.78,244717.76,,18,order
screen,html.Screen,2_1_1_1_19,2022-05-03T12:51:55.057Z,,,,,,,,,,,,,,,,,54,,,,,,,,,,,,,,834.2399999999907,,response,,,,100,,,,,,,Space,keypress(Space),,,,,,,,-- --- ---- --- ------ ----- ------- ---- -- --- ------- --<br>------- ---------- ------ -- ----- -- ----- to ---- ------<br>--- ----- --- --- ------ -------- ----- --- ------ ----- --<br>----- ----- ---------- --- --- ------ ------ ---- -- ------<br>------- --- ------ ----- --- ---- ------- -- ---- --- --<br>------- ------,245566,245552,244709.72,244710,244717.76,245566.74,,19,to
screen,html.Screen,2_1_1_1_20,2022-05-03T12:51:55.601Z,,,,,,,,,,,,,,,,,54,,,,,,,,,,,,,,532.2600000000093,,response,,,,100,,,,,,,Space,keypress(Space),,,,,,,,-- --- ---- --- ------ ----- ------- ---- -- --- ------- --<br>------- ---------- ------ -- ----- -- ----- -- save ------<br>--- ----- --- --- ------ -------- ----- --- ------ ----- --<br>----- ----- ---------- --- --- ------ ------ ---- -- ------<br>------- --- ------ ----- --- ---- ------- -- ---- --- --<br>------- ------,246109,246099,245566.56,245566,245566.74,246110.18,,20,save
screen,html.Screen,2_1_1_1_21,2022-05-03T12:51:55.945Z,,,,,,,,,,,,,,,,,54,,,,,,,,,,,,,,331.820000000007,,response,,,,100,,,,,,,Space,keypress(Space),,,,,,,,"-- --- ---- --- ------ ----- ------- ---- -- --- ------- --<br>------- ---------- ------ -- ----- -- ----- -- ---- money,<br>--- ----- --- --- ------ -------- ----- --- ------ ----- --<br>----- ----- ---------- --- --- ------ ------ ---- -- ------<br>------- --- ------ ----- --- ---- ------- -- ---- --- --<br>------- ------",246454,246442,246110,246110,246110.18,246454.56,,21,"money,"
screen,html.Screen,2_1_1_1_22,2022-05-03T12:51:56.376Z,,,,,,,,,,,,,,,,,54,,,,,,,,,,,,,,423.4400000000023,,response,,,,100,,,,,,,Space,keypress(Space),,,,,,,,-- --- ---- --- ------ ----- ------- ---- -- --- ------- --<br>------- ---------- ------ -- ----- -- ----- -- ---- ------<br>the ----- --- --- ------ -------- ----- --- ------ ----- --<br>----- ----- ---------- --- --- ------ ------ ---- -- ------<br>------- --- ------ ----- --- ---- ------- -- ---- --- --<br>------- ------,246885,246878,246454.36,246455,246454.56,246886.2,,22,the
screen,html.Screen,2_1_1_1_23,2022-05-03T12:51:56.569Z,,,,,,,,,,,,,,,,,54,,,,,,,,,,,,,,178.79999999998836,,response,,,,100,,,,,,,Space,keypress(Space),,,,,,,,-- --- ---- --- ------ ----- ------- ---- -- --- ------- --<br>------- ---------- ------ -- ----- -- ----- -- ---- ------<br>--- state --- --- ------ -------- ----- --- ------ ----- --<br>----- ----- ---------- --- --- ------ ------ ---- -- ------<br>------- --- ------ ----- --- ---- ------- -- ---- --- --<br>------- ------,247078,247065,246886,246886,246886.2,247085.88,,23,state
screen,html.Screen,2_1_1_1_24,2022-05-03T12:51:56.849Z,,,,,,,,,,,,,,,,,54,,,,,,,,,,,,,,261.11999999999534,,response,,,,100,,,,,,,Space,keypress(Space),,,,,,,,-- --- ---- --- ------ ----- ------- ---- -- --- ------- --<br>------- ---------- ------ -- ----- -- ----- -- ---- ------<br>--- ----- cut --- ------ -------- ----- --- ------ ----- --<br>----- ----- ---------- --- --- ------ ------ ---- -- ------<br>------- --- ------ ----- --- ---- ------- -- ---- --- --<br>------- ------,247358,247347,247077.94,247078,247085.88,247358.34,,24,cut
screen,html.Screen,2_1_1_1_25,2022-05-03T12:51:57.073Z,,,,,,,,,,,,,,,,,54,,,,,,,,,,,,,,221.6600000000035,,response,,,,100,,,,,,,Space,keypress(Space),,,,,,,,-- --- ---- --- ------ ----- ------- ---- -- --- ------- --<br>------- ---------- ------ -- ----- -- ----- -- ---- ------<br>--- ----- --- the ------ -------- ----- --- ------ ----- --<br>----- ----- ---------- --- --- ------ ------ ---- -- ------<br>------- --- ------ ----- --- ---- ------- -- ---- --- --<br>------- ------,247581,247580,247358.16,247358,247358.34,247582.2,,25,the
screen,html.Screen,2_1_1_1_26,2022-05-03T12:51:57.313Z,,,,,,,,,,,,,,,,,54,,,,,,,,,,,,,,231.79999999998836,,response,,,,100,,,,,,,Space,keypress(Space),,,,,,,,-- --- ---- --- ------ ----- ------- ---- -- --- ------- --<br>------- ---------- ------ -- ----- -- ----- -- ---- ------<br>--- ----- --- --- bonds' -------- ----- --- ------ ----- --<br>----- ----- ---------- --- --- ------ ------ ---- -- ------<br>------- --- ------ ----- --- ---- ------- -- ---- --- --<br>------- ------,247822,247814,247582.04,247582,247582.2,247822.32,,26,bonds'
screen,html.Screen,2_1_1_1_27,2022-05-03T12:51:57.552Z,,,,,,,,,,,,,,,,,54,,,,,,,,,,,,,,225.67999999999302,,response,,,,100,,,,,,,Space,keypress(Space),,,,,,,,-- --- ---- --- ------ ----- ------- ---- -- --- ------- --<br>------- ---------- ------ -- ----- -- ----- -- ---- ------<br>--- ----- --- --- ------ interest ----- --- ------ ----- --<br>----- ----- ---------- --- --- ------ ------ ---- -- ------<br>------- --- ------ ----- --- ---- ------- -- ---- --- --<br>------- ------,248062,248048,247822.06,247822,247822.32,248062.18,,27,interest
screen,html.Screen,2_1_1_1_28,2022-05-03T12:51:57.753Z,,,,,,,,,,,,,,,,,54,,,,,,,,,,,,,,188.82000000000698,,response,,,,100,,,,,,,Space,keypress(Space),,,,,,,,-- --- ---- --- ------ ----- ------- ---- -- --- ------- --<br>------- ---------- ------ -- ----- -- ----- -- ---- ------<br>--- ----- --- --- ------ -------- rate. --- ------ ----- --<br>----- ----- ---------- --- --- ------ ------ ---- -- ------<br>------- --- ------ ----- --- ---- ------- -- ---- --- --<br>------- ------,248262,248251,248061.94,248062,248062.18,248277.92,,28,rate.
screen,html.Screen,2_1_1_1_29,2022-05-03T12:51:58.104Z,,,,,,,,,,,,,,,,,54,,,,,,,,,,,,,,332.0799999999872,,response,,,,100,,,,,,,Space,keypress(Space),,,,,,,,-- --- ---- --- ------ ----- ------- ---- -- --- ------- --<br>------- ---------- ------ -- ----- -- ----- -- ---- ------<br>--- ----- --- --- ------ -------- ----- The ------ ----- --<br>----- ----- ---------- --- --- ------ ------ ---- -- ------<br>------- --- ------ ----- --- ---- ------- -- ---- --- --<br>------- ------,248614,248610,248261.82,248262,248277.92,248614.1,,29,The
screen,html.Screen,2_1_1_1_30,2022-05-03T12:51:58.353Z,,,,,,,,,,,,,,,,,54,,,,,,,,,,,,,,244.89999999999418,,response,,,,100,,,,,,,Space,keypress(Space),,,,,,,,-- --- ---- --- ------ ----- ------- ---- -- --- ------- --<br>------- ---------- ------ -- ----- -- ----- -- ---- ------<br>--- ----- --- --- ------ -------- ----- --- market ----- --<br>----- ----- ---------- --- --- ------ ------ ---- -- ------<br>------- --- ------ ----- --- ---- ------- -- ---- --- --<br>------- ------,248862,248859,248613.88,248614,248614.1,248862.08,,30,market
screen,html.Screen,2_1_1_1_31,2022-05-03T12:51:58.513Z,,,,,,,,,,,,,,,,,54,,,,,,,,,,,,,,152.9200000000128,,response,,,,100,,,,,,,Space,keypress(Space),,,,,,,,-- --- ---- --- ------ ----- ------- ---- -- --- ------- --<br>------- ---------- ------ -- ----- -- ----- -- ---- ------<br>--- ----- --- --- ------ -------- ----- --- ------ value --<br>----- ----- ---------- --- --- ------ ------ ---- -- ------<br>------- --- ------ ----- --- ---- ------- -- ---- --- --<br>------- ------,249022,249015,248861.96,248862,248862.08,249027.92,,31,value
screen,html.Screen,2_1_1_1_32,2022-05-03T12:51:59.041Z,,,,,,,,,,,,,,,,,54,,,,,,,,,,,,,,518.0799999999872,,response,,,,100,,,,,,,Space,keypress(Space),,,,,,,,-- --- ---- --- ------ ----- ------- ---- -- --- ------- --<br>------- ---------- ------ -- ----- -- ----- -- ---- ------<br>--- ----- --- --- ------ -------- ----- --- ------ ----- of<br>----- ----- ---------- --- --- ------ ------ ---- -- ------<br>------- --- ------ ----- --- ---- ------- -- ---- --- --<br>------- ------,249550,249546,249022.1,249022,249027.92,249549.84,,32,of
screen,html.Screen,2_1_1_1_33,2022-05-03T12:51:59.240Z,,,,,,,,,,,,,,,,,54,,,,,,,,,,,,,,183.1600000000035,,response,,,,100,,,,,,,Space,keypress(Space),,,,,,,,-- --- ---- --- ------ ----- ------- ---- -- --- ------- --<br>------- ---------- ------ -- ----- -- ----- -- ---- ------<br>--- ----- --- --- ------ -------- ----- --- ------ ----- --<br>these ----- ---------- --- --- ------ ------ ---- -- ------<br>------- --- ------ ----- --- ---- ------- -- ---- --- --<br>------- ------,249749,249733,249549.64,249550,249549.84,249750,,33,these
screen,html.Screen,2_1_1_1_34,2022-05-03T12:51:59.465Z,,,,,,,,,,,,,,,,,54,,,,,,,,,,,,,,217,,response,,,,100,,,,,,,Space,keypress(Space),,,,,,,,-- --- ---- --- ------ ----- ------- ---- -- --- ------- --<br>------- ---------- ------ -- ----- -- ----- -- ---- ------<br>--- ----- --- --- ------ -------- ----- --- ------ ----- --<br>----- bonds ---------- --- --- ------ ------ ---- -- ------<br>------- --- ------ ----- --- ---- ------- -- ---- --- --<br>------- ------,249974,249967,249749.76,249750,249750,249973.62,,34,bonds
screen,html.Screen,2_1_1_1_35,2022-05-03T12:51:59.696Z,,,,,,,,,,,,,,,,,54,,,,,,,,,,,,,,227.38000000000466,,response,,,,100,,,,,,,Space,keypress(Space),,,,,,,,"-- --- ---- --- ------ ----- ------- ---- -- --- ------- --<br>------- ---------- ------ -- ----- -- ----- -- ---- ------<br>--- ----- --- --- ------ -------- ----- --- ------ ----- --<br>----- ----- plummeted, --- --- ------ ------ ---- -- ------<br>------- --- ------ ----- --- ---- ------- -- ---- --- --<br>------- ------",250205,250201,249973.52,249974,249973.62,250205.96,,35,"plummeted,"
screen,html.Screen,2_1_1_1_36,2022-05-03T12:51:59.888Z,,,,,,,,,,,,,,,,,54,,,,,,,,,,,,,,182.04000000000815,,response,,,,100,,,,,,,Space,keypress(Space),,,,,,,,-- --- ---- --- ------ ----- ------- ---- -- --- ------- --<br>------- ---------- ------ -- ----- -- ----- -- ---- ------<br>--- ----- --- --- ------ -------- ----- --- ------ ----- --<br>----- ----- ---------- and --- ------ ------ ---- -- ------<br>------- --- ------ ----- --- ---- ------- -- ---- --- --<br>------- ------,250397,250388,250205.78,250205,250205.96,250405,,36,and
screen,html.Screen,2_1_1_1_37,2022-05-03T12:52:00.377Z,,,,,,,,,,,,,,,,,54,,,,,,,,,,,,,,467,,response,,,,100,,,,,,,Space,keypress(Space),,,,,,,,-- --- ---- --- ------ ----- ------- ---- -- --- ------- --<br>------- ---------- ------ -- ----- -- ----- -- ---- ------<br>--- ----- --- --- ------ -------- ----- --- ------ ----- --<br>----- ----- ---------- --- the ------ ------ ---- -- ------<br>------- --- ------ ----- --- ---- ------- -- ---- --- --<br>------- ------,250886,250872,250397.98,250398,250405,250886.08,,37,the
screen,html.Screen,2_1_1_1_38,2022-05-03T12:52:00.777Z,,,,,,,,,,,,,,,,,54,,,,,,,,,,,,,,390.9200000000128,,response,,,,100,,,,,,,Space,keypress(Space),,,,,,,,-- --- ---- --- ------ ----- ------- ---- -- --- ------- --<br>------- ---------- ------ -- ----- -- ----- -- ---- ------<br>--- ----- --- --- ------ -------- ----- --- ------ ----- --<br>----- ----- ---------- --- --- market ------ ---- -- ------<br>------- --- ------ ----- --- ---- ------- -- ---- --- --<br>------- ------,251286,251277,250885.84,250886,250886.08,251285.9,,38,market
screen,html.Screen,2_1_1_1_39,2022-05-03T12:52:00.945Z,,,,,,,,,,,,,,,,,54,,,,,,,,,,,,,,163.10000000000582,,response,,,,100,,,,,,,Space,keypress(Space),,,,,,,,-- --- ---- --- ------ ----- ------- ---- -- --- ------- --<br>------- ---------- ------ -- ----- -- ----- -- ---- ------<br>--- ----- --- --- ------ -------- ----- --- ------ ----- --<br>----- ----- ---------- --- --- ------ became ---- -- ------<br>------- --- ------ ----- --- ---- ------- -- ---- --- --<br>------- ------,251453,251449,251285.72,251286,251285.9,251468.98,,39,became
screen,html.Screen,2_1_1_1_40,2022-05-03T12:52:01.144Z,,,,,,,,,,,,,,,,,54,,,,,,,,,,,,,,167.01999999998952,,response,,,,100,,,,,,,Space,keypress(Space),,,,,,,,-- --- ---- --- ------ ----- ------- ---- -- --- ------- --<br>------- ---------- ------ -- ----- -- ----- -- ---- ------<br>--- ----- --- --- ------ -------- ----- --- ------ ----- --<br>----- ----- ---------- --- --- ------ ------ wary -- ------<br>------- --- ------ ----- --- ---- ------- -- ---- --- --<br>------- ------,251653,251636,251453.7,251453,251468.98,251669.02,,40,wary
screen,html.Screen,2_1_1_1_41,2022-05-03T12:52:01.384Z,,,,,,,,,,,,,,,,,54,,,,,,,,,,,,,,216.98000000001048,,response,,,,100,,,,,,,Space,keypress(Space),,,,,,,,-- --- ---- --- ------ ----- ------- ---- -- --- ------- --<br>------- ---------- ------ -- ----- -- ----- -- ---- ------<br>--- ----- --- --- ------ -------- ----- --- ------ ----- --<br>----- ----- ---------- --- --- ------ ------ ---- of ------<br>------- --- ------ ----- --- ---- ------- -- ---- --- --<br>------- ------,251894,251886,251653.62,251654,251669.02,251893.92,,41,of
screen,html.Screen,2_1_1_1_42,2022-05-03T12:52:01.776Z,,,,,,,,,,,,,,,,,54,,,,,,,,,,,,,,382.0799999999872,,response,,,,100,,,,,,,Space,keypress(Space),,,,,,,,-- --- ---- --- ------ ----- ------- ---- -- --- ------- --<br>------- ---------- ------ -- ----- -- ----- -- ---- ------<br>--- ----- --- --- ------ -------- ----- --- ------ ----- --<br>----- ----- ---------- --- --- ------ ------ ---- -- French<br>------- --- ------ ----- --- ---- ------- -- ---- --- --<br>------- ------,252285,252276,251893.68,251894,251893.92,252285.32,,42,French
screen,html.Screen,2_1_1_1_43,2022-05-03T12:52:02.097Z,,,,,,,,,,,,,,,,,54,,,,,,,,,,,,,,317.679999999993,,response,,,,100,,,,,,,Space,keypress(Space),,,,,,,,-- --- ---- --- ------ ----- ------- ---- -- --- ------- --<br>------- ---------- ------ -- ----- -- ----- -- ---- ------<br>--- ----- --- --- ------ -------- ----- --- ------ ----- --<br>----- ----- ---------- --- --- ------ ------ ---- -- ------<br>credit. --- ------ ----- --- ---- ------- -- ---- --- --<br>------- ------,252606,252603,252285.26,252285,252285.32,252606.1,,43,credit.
screen,html.Screen,2_1_1_1_44,2022-05-03T12:52:02.409Z,,,,,,,,,,,,,,,,,54,,,,,,,,,,,,,,309.8999999999942,,response,,,,100,,,,,,,Space,keypress(Space),,,,,,,,-- --- ---- --- ------ ----- ------- ---- -- --- ------- --<br>------- ---------- ------ -- ----- -- ----- -- ---- ------<br>--- ----- --- --- ------ -------- ----- --- ------ ----- --<br>----- ----- ---------- --- --- ------ ------ ---- -- ------<br>------- The ------ ----- --- ---- ------- -- ---- --- --<br>------- ------,252917,252916,252605.88,252606,252606.1,252917.98,,44,The
screen,html.Screen,2_1_1_1_45,2022-05-03T12:52:02.600Z,,,,,,,,,,,,,,,,,54,,,,,,,,,,,,,,184.01999999998952,,response,,,,100,,,,,,,Space,keypress(Space),,,,,,,,-- --- ---- --- ------ ----- ------- ---- -- --- ------- --<br>------- ---------- ------ -- ----- -- ----- -- ---- ------<br>--- ----- --- --- ------ -------- ----- --- ------ ----- --<br>----- ----- ---------- --- --- ------ ------ ---- -- ------<br>------- --- French ----- --- ---- ------- -- ---- --- --<br>------- ------,253109,253102,252917.82,252917,252917.98,253117.04,,45,French
screen,html.Screen,2_1_1_1_46,2022-05-03T12:52:02.824Z,,,,,,,,,,,,,,,,,54,,,,,,,,,,,,,,203.95999999999185,,response,,,,100,,,,,,,Space,keypress(Space),,,,,,,,-- --- ---- --- ------ ----- ------- ---- -- --- ------- --<br>------- ---------- ------ -- ----- -- ----- -- ---- ------<br>--- ----- --- --- ------ -------- ----- --- ------ ----- --<br>----- ----- ---------- --- --- ------ ------ ---- -- ------<br>------- --- ------ state --- ---- ------- -- ---- --- --<br>------- ------,253334,253321,253109.54,253109,253117.04,253333.98,,46,state
screen,html.Screen,2_1_1_1_47,2022-05-03T12:52:03.000Z,,,,,,,,,,,,,,,,,54,,,,,,,,,,,,,,158.01999999998952,,response,,,,100,,,,,,,Space,keypress(Space),,,,,,,,-- --- ---- --- ------ ----- ------- ---- -- --- ------- --<br>------- ---------- ------ -- ----- -- ----- -- ---- ------<br>--- ----- --- --- ------ -------- ----- --- ------ ----- --<br>----- ----- ---------- --- --- ------ ------ ---- -- ------<br>------- --- ------ ----- was ---- ------- -- ---- --- --<br>------- ------,253509,253492,253333.76,253334,253333.98,253517.02,,47,was
screen,html.Screen,2_1_1_1_48,2022-05-03T12:52:03.200Z,,,,,,,,,,,,,,,,,54,,,,,,,,,,,,,,177.98000000001048,,response,,,,100,,,,,,,Space,keypress(Space),,,,,,,,-- --- ---- --- ------ ----- ------- ---- -- --- ------- --<br>------- ---------- ------ -- ----- -- ----- -- ---- ------<br>--- ----- --- --- ------ -------- ----- --- ------ ----- --<br>----- ----- ---------- --- --- ------ ------ ---- -- ------<br>------- --- ------ ----- --- left ------- -- ---- --- --<br>------- ------,253710,253695,253509.56,253509,253517.02,253717.06,,48,left
screen,html.Screen,2_1_1_1_49,2022-05-03T12:52:03.384Z,,,,,,,,,,,,,,,,,54,,,,,,,,,,,,,,164.94000000000233,,response,,,,100,,,,,,,Space,keypress(Space),,,,,,,,-- --- ---- --- ------ ----- ------- ---- -- --- ------- --<br>------- ---------- ------ -- ----- -- ----- -- ---- ------<br>--- ----- --- --- ------ -------- ----- --- ------ ----- --<br>----- ----- ---------- --- --- ------ ------ ---- -- ------<br>------- --- ------ ----- --- ---- without -- ---- --- --<br>------- ------,253893,253882,253709.76,253710,253717.06,253900.08,,49,without
screen,html.Screen,2_1_1_1_50,2022-05-03T12:52:03.761Z,,,,,,,,,,,,,,,,,54,,,,,,,,,,,,,,356.9200000000128,,response,,,,100,,,,,,,Space,keypress(Space),,,,,,,,-- --- ---- --- ------ ----- ------- ---- -- --- ------- --<br>------- ---------- ------ -- ----- -- ----- -- ---- ------<br>--- ----- --- --- ------ -------- ----- --- ------ ----- --<br>----- ----- ---------- --- --- ------ ------ ---- -- ------<br>------- --- ------ ----- --- ---- ------- an ---- --- --<br>------- ------,254270,254257,253893.62,253894,253900.08,254270.08,,50,an
screen,html.Screen,2_1_1_1_51,2022-05-03T12:52:04.080Z,,,,,,,,,,,,,,,,,54,,,,,,,,,,,,,,313.9200000000128,,response,,,,100,,,,,,,Space,keypress(Space),,,,,,,,-- --- ---- --- ------ ----- ------- ---- -- --- ------- --<br>------- ---------- ------ -- ----- -- ----- -- ---- ------<br>--- ----- --- --- ------ -------- ----- --- ------ ----- --<br>----- ----- ---------- --- --- ------ ------ ---- -- ------<br>------- --- ------ ----- --- ---- ------- -- easy --- --<br>------- ------,254589,254584,254269.88,254270,254270.08,254589.82,,51,easy
screen,html.Screen,2_1_1_1_52,2022-05-03T12:52:04.328Z,,,,,,,,,,,,,,,,,54,,,,,,,,,,,,,,244.17999999999302,,response,,,,100,,,,,,,Space,keypress(Space),,,,,,,,-- --- ---- --- ------ ----- ------- ---- -- --- ------- --<br>------- ---------- ------ -- ----- -- ----- -- ---- ------<br>--- ----- --- --- ------ -------- ----- --- ------ ----- --<br>----- ----- ---------- --- --- ------ ------ ---- -- ------<br>------- --- ------ ----- --- ---- ------- -- ---- way --<br>------- ------,254838,254834,254589.56,254589,254589.82,254837.84,,52,way
screen,html.Screen,2_1_1_1_53,2022-05-03T12:52:04.729Z,,,,,,,,,,,,,,,,,54,,,,,,,,,,,,,,386.1600000000035,,response,,,,100,,,,,,,Space,keypress(Space),,,,,,,,-- --- ---- --- ------ ----- ------- ---- -- --- ------- --<br>------- ---------- ------ -- ----- -- ----- -- ---- ------<br>--- ----- --- --- ------ -------- ----- --- ------ ----- --<br>----- ----- ---------- --- --- ------ ------ ---- -- ------<br>------- --- ------ ----- --- ---- ------- -- ---- --- of<br>------- ------,255237,255224,254837.66,254838,254837.84,255237.86,,53,of
screen,html.Screen,2_1_1_1_54,2022-05-03T12:52:05.096Z,,,,,,,,,,,,,,,,,54,,,,,,,,,,,,,,360.14000000001397,,response,,,,100,,,,,,,Space,keypress(Space),,,,,,,,-- --- ---- --- ------ ----- ------- ---- -- --- ------- --<br>------- ---------- ------ -- ----- -- ----- -- ---- ------<br>--- ----- --- --- ------ -------- ----- --- ------ ----- --<br>----- ----- ---------- --- --- ------ ------ ---- -- ------<br>------- --- ------ ----- --- ---- ------- -- ---- --- --<br>raising ------,255606,255598,255237.6,255237,255237.86,255605.76,,54,raising
screen,html.Screen,2_1_1_1_55,2022-05-03T12:52:05.448Z,,,,,,,,,,,,,,,,,54,,,,,,,,,,,,,,336.2399999999907,,response,,,,100,,,,,,,Space,keypress(Space),,,,,,,,-- --- ---- --- ------ ----- ------- ---- -- --- ------- --<br>------- ---------- ------ -- ----- -- ----- -- ---- ------<br>--- ----- --- --- ------ -------- ----- --- ------ ----- --<br>----- ----- ---------- --- --- ------ ------ ---- -- ------<br>------- --- ------ ----- --- ---- ------- -- ---- --- --<br>------- money.,255957,255942,255605.5,255606,255605.76,255957.26,,55,money.
Item 100,flow.Loop,2_1_1_1,2022-05-03T12:52:05.448Z,,,,,,,,,,,,,,,,,,,,,,,,,,,,,,,17424.859999999986,,completion,,,,,H,,,,,,,,,,,silence,,,,,255957,255942,238500.16,238501,238517.14,255957.26,,,
Question 1,html.Screen,2_1_1_2,2022-05-03T12:52:07.293Z,,,,,,,,,,,,,,,,,,,,,,,,,,,,true,TRUE,,1840.7399999999907,,response,,,,100,H,,,,,,TRUE,click #choice-1,,,,silence,,,,,257802,257798,255957.16,255957,255957.26,257816.48,,,
Question 2,html.Screen,2_1_1_3,2022-05-03T12:52:09.125Z,,,,,,,,,,,,,,,,,,,,,,,,,,,,true,FALSE,,1806.5199999999895,,response,,,,100,H,,,,,,FALSE,click #choice-2,,,,silence,,,,,259633,259623,257800.52,257802,257816.48,259647.48,,,
Item 100,flow.Sequence,2_1_1,2022-05-03T12:52:09.125Z,,,,,,,,,,,,,,,,,,,,,,,,,,,,,,,31110.20000000001,,completion,,,,,,,,,,,,,,,,,,,,,259634,259623,228497.6,228500,228512.8,259647.48,,,
End of Practice,html.Page,2_1_2,2022-05-03T12:52:12.790Z,,,,,,,,,,,,,,,,,,,,,,,,,,,,,,,3651.5199999999895,,form submission,,,,,,,,,,,,,,,,,,,,,263299,263299,259632.5,259634,259647.48,263311.62,,,
Practice,flow.Sequence,2_1,2022-05-03T12:52:12.790Z,,,,,,,,,,,,,,,,,,,,,,,,,,,,,,,68041.26000000001,,completion,,,,,,,,,,,,,,,,,,,,,263300,263299,195242.7,195246,195257.74,263311.62,,,
Trap_instruction,html.Page,2_2_0,2022-05-03T12:52:14.951Z,,,,,,,,,,,,,,,,,,,,,,,,,,,,,,,2146.3800000000047,,form submission,,,,,,,,,,,,,,,,,,,,,265459,265458,263296.48,263300,263311.62,265471.68,,,
trap_trial,html.Screen,2_2_1,2022-05-03T12:52:18.188Z,,,,,,,,,,,,,,,,,,,,,,,,,,,,true,1,,3215.320000000007,,response,,,,,,,,,,,1,click #choice-1,,,,,,,,,268697,268687,265456.38,265459,265471.68,268711.78,,,
end of trap trial,html.Page,2_2_2,2022-05-03T12:52:19.669Z,,,,,,,,,,,,,,,,,,,,,,,,,,,,,,,1466.219999999972,,form submission,,,,,,,,,,,,,,,,,,,,,270179,270178,268696.34,268698,268711.78,270178.8,,,
Trap 1,flow.Sequence,2_2,2022-05-03T12:52:19.670Z,,,,,,,,,,,,,,,,,,,,,,,,,,,,,,,6866.380000000005,,completion,,,,,,,,,,,,,,,,,,,,,270179,270178,263296.48,263300,263311.62,270178.8,,,
Standby,html.Page,2_3_0,2022-05-03T12:52:27.657Z,,,,,,,,,,,,,,,,,,,,,,,,,,,,,,,8003.280000000028,,timeout,,,,,,,,,,,,,,,,,,,,,278166,278166.08,270176.34,270179,270178.8,278182.08,,,
Holding screen,html.Screen,2_3_1_0_0,2022-05-03T12:52:34.652Z,,,,,,,,,,,,,,,,,,,,,,,,,,,,,,,6995.260000000009,,timeout,,,,,,,,,,,,,,,,,,,,,285161,285160.32,278166.08,278167,278182.08,285177.34,,,
screen,html.Screen,2_3_1_0_1_0,2022-05-03T12:52:35.288Z,,,,,,,,,,,,,,,,,2,,,,,,,,,,,,,,607.6599999999744,,response,,,,1,H,,,,,,Space,keypress(Space),,,,speech,,,,Two ---- ------ --- ------- ---------- ------- ----------<br>--- --------- --- ----------- ------- ----- ------- ---<br>--------- ---- -- --- ---- -- --------- -- ---- -------<br>-- --------- ------ --- ----- ------ ---- --- --------- --<br>------ - ---- -- --- ----------- ------- ---- ----- -----<br>--- -------- - ------ ---- -- ----- ---- --- --- -----------<br>-- -------,285797,285785,285160.32,285162,285177.34,285797.28,,0,Two
screen,html.Screen,2_3_1_0_1_1,2022-05-03T12:52:35.616Z,,,,,,,,,,,,,,,,,2,,,,,,,,,,,,,,314.71999999997206,,response,,,,1,H,,,,,,Space,keypress(Space),,,,speech,,,,--- days ------ --- ------- ---------- ------- ----------<br>--- --------- --- ----------- ------- ----- ------- ---<br>--------- ---- -- --- ---- -- --------- -- ---- -------<br>-- --------- ------ --- ----- ------ ---- --- --------- --<br>------ - ---- -- --- ----------- ------- ---- ----- -----<br>--- -------- - ------ ---- -- ----- ---- --- --- -----------<br>-- -------,286124,286112,285797.08,285797,285797.28,286124.94,,1,days
screen,html.Screen,2_3_1_0_1_2,2022-05-03T12:52:35.847Z,,,,,,,,,,,,,,,,,2,,,,,,,,,,,,,,221.05999999999767,,response,,,,1,H,,,,,,Space,keypress(Space),,,,speech,,,,"--- ---- later, --- ------- ---------- ------- ----------<br>--- --------- --- ----------- ------- ----- ------- ---<br>--------- ---- -- --- ---- -- --------- -- ---- -------<br>-- --------- ------ --- ----- ------ ---- --- --------- --<br>------ - ---- -- --- ----------- ------- ---- ----- -----<br>--- -------- - ------ ---- -- ----- ---- --- --- -----------<br>-- -------",286356,286346,286124.72,286125,286124.94,286356.64,,2,"later,"
screen,html.Screen,2_3_1_0_1_3,2022-05-03T12:52:36.087Z,,,,,,,,,,,,,,,,,2,,,,,,,,,,,,,,223.35999999998603,,response,,,,1,H,,,,,,Space,keypress(Space),,,,speech,,,,--- ---- ------ the ------- ---------- ------- ----------<br>--- --------- --- ----------- ------- ----- ------- ---<br>--------- ---- -- --- ---- -- --------- -- ---- -------<br>-- --------- ------ --- ----- ------ ---- --- --------- --<br>------ - ---- -- --- ----------- ------- ---- ----- -----<br>--- -------- - ------ ---- -- ----- ---- --- --- -----------<br>-- -------,286596,286580,286356.5,286356,286356.64,286596.7,,3,the
screen,html.Screen,2_3_1_0_1_4,2022-05-03T12:52:36.327Z,,,,,,,,,,,,,,,,,2,,,,,,,,,,,,,,233.29999999998836,,response,,,,1,H,,,,,,Space,keypress(Space),,,,speech,,,,--- ---- ------ --- British ---------- ------- ----------<br>--- --------- --- ----------- ------- ----- ------- ---<br>--------- ---- -- --- ---- -- --------- -- ---- -------<br>-- --------- ------ --- ----- ------ ---- --- --------- --<br>------ - ---- -- --- ----------- ------- ---- ----- -----<br>--- -------- - ------ ---- -- ----- ---- --- --- -----------<br>-- -------,286837,286830,286596.48,286597,286596.7,286836.72,,4,British
screen,html.Screen,2_3_1_0_1_5,2022-05-03T12:52:36.519Z,,,,,,,,,,,,,,,,,2,,,,,,,,,,,,,,179.28000000002794,,response,,,,1,H,,,,,,Space,keypress(Space),,,,speech,,,,--- ---- ------ --- ------- astronomer ------- ----------<br>--- --------- --- ----------- ------- ----- ------- ---<br>--------- ---- -- --- ---- -- --------- -- ---- -------<br>-- --------- ------ --- ----- ------ ---- --- --------- --<br>------ - ---- -- --- ----------- ------- ---- ----- -----<br>--- -------- - ------ ---- -- ----- ---- --- --- -----------<br>-- -------,287029,287016,286836.5,286837,286836.72,287036.34,,5,astronomer
screen,html.Screen,2_3_1_0_1_6,2022-05-03T12:52:36.928Z,,,,,,,,,,,,,,,,,2,,,,,,,,,,,,,,386.6599999999744,,response,,,,1,H,,,,,,Space,keypress(Space),,,,speech,,,,--- ---- ------ --- ------- ---------- Richard ----------<br>--- --------- --- ----------- ------- ----- ------- ---<br>--------- ---- -- --- ---- -- --------- -- ---- -------<br>-- --------- ------ --- ----- ------ ---- --- --------- --<br>------ - ---- -- --- ----------- ------- ---- ----- -----<br>--- -------- - ------ ---- -- ----- ---- --- --- -----------<br>-- -------,287436,287423,287028.58,287029,287036.34,287436.84,,6,Richard
screen,html.Screen,2_3_1_0_1_7,2022-05-03T12:52:37.223Z,,,,,,,,,,,,,,,,,2,,,,,,,,,,,,,,282.1599999999744,,response,,,,1,H,,,,,,Space,keypress(Space),,,,speech,,,,--- ---- ------ --- ------- ---------- ------- Carrington<br>--- --------- --- ----------- ------- ----- ------- ---<br>--------- ---- -- --- ---- -- --------- -- ---- -------<br>-- --------- ------ --- ----- ------ ---- --- --------- --<br>------ - ---- -- --- ----------- ------- ---- ----- -----<br>--- -------- - ------ ---- -- ----- ---- --- --- -----------<br>-- -------,287732,287719,287436.68,287437,287436.84,287732.68,,7,Carrington
screen,html.Screen,2_3_1_0_1_8,2022-05-03T12:52:37.832Z,,,,,,,,,,,,,,,,,2,,,,,,,,,,,,,,594.320000000007,,response,,,,1,H,,,,,,Space,keypress(Space),,,,speech,,,,--- ---- ------ --- ------- ---------- ------- ----------<br>was --------- --- ----------- ------- ----- ------- ---<br>--------- ---- -- --- ---- -- --------- -- ---- -------<br>-- --------- ------ --- ----- ------ ---- --- --------- --<br>------ - ---- -- --- ----------- ------- ---- ----- -----<br>--- -------- - ------ ---- -- ----- ---- --- --- -----------<br>-- -------,288340,288327,287732.4,287732,287732.68,288340.9,,8,was
screen,html.Screen,2_3_1_0_1_9,2022-05-03T12:52:38.111Z,,,,,,,,,,,,,,,,,2,,,,,,,,,,,,,,266.0999999999767,,response,,,,1,H,,,,,,Space,keypress(Space),,,,speech,,,,--- ---- ------ --- ------- ---------- ------- ----------<br>--- observing --- ----------- ------- ----- ------- ---<br>--------- ---- -- --- ---- -- --------- -- ---- -------<br>-- --------- ------ --- ----- ------ ---- --- --------- --<br>------ - ---- -- --- ----------- ------- ---- ----- -----<br>--- -------- - ------ ---- -- ----- ---- --- --- -----------<br>-- -------,288621,288607,288340.64,288341,288340.9,288620.78,,9,observing
screen,html.Screen,2_3_1_0_1_10,2022-05-03T12:52:38.407Z,,,,,,,,,,,,,,,,,2,,,,,,,,,,,,,,284.21999999997206,,response,,,,1,H,,,,,,Space,keypress(Space),,,,speech,,,,--- ---- ------ --- ------- ---------- ------- ----------<br>--- --------- the ----------- ------- ----- ------- ---<br>--------- ---- -- --- ---- -- --------- -- ---- -------<br>-- --------- ------ --- ----- ------ ---- --- --------- --<br>------ - ---- -- --- ----------- ------- ---- ----- -----<br>--- -------- - ------ ---- -- ----- ---- --- --- -----------<br>-- -------,288917,288905,288620.6,288621,288620.78,288916.56,,10,the
screen,html.Screen,2_3_1_0_1_11,2022-05-03T12:52:38.727Z,,,,,,,,,,,,,,,,,2,,,,,,,,,,,,,,315.4400000000023,,response,,,,1,H,,,,,,Space,keypress(Space),,,,speech,,,,--- ---- ------ --- ------- ---------- ------- ----------<br>--- --------- --- interesting ------- ----- ------- ---<br>--------- ---- -- --- ---- -- --------- -- ---- -------<br>-- --------- ------ --- ----- ------ ---- --- --------- --<br>------ - ---- -- --- ----------- ------- ---- ----- -----<br>--- -------- - ------ ---- -- ----- ---- --- --- -----------<br>-- -------,289236,289232,288916.36,288917,288916.56,289236.8,,11,interesting
screen,html.Screen,2_3_1_0_1_12,2022-05-03T12:52:39.287Z,,,,,,,,,,,,,,,,,2,,,,,,,,,,,,,,556.2000000000116,,response,,,,1,H,,,,,,Space,keypress(Space),,,,speech,,,,--- ---- ------ --- ------- ---------- ------- ----------<br>--- --------- --- ----------- sunspot ----- ------- ---<br>--------- ---- -- --- ---- -- --------- -- ---- -------<br>-- --------- ------ --- ----- ------ ---- --- --------- --<br>------ - ---- -- --- ----------- ------- ---- ----- -----<br>--- -------- - ------ ---- -- ----- ---- --- --- -----------<br>-- -------,289796,289793,289236.56,289236,289236.8,289796.74,,12,sunspot
screen,html.Screen,2_3_1_0_1_13,2022-05-03T12:52:39.560Z,,,,,,,,,,,,,,,,,2,,,,,,,,,,,,,,261.2600000000093,,response,,,,1,H,,,,,,Space,keypress(Space),,,,speech,,,,--- ---- ------ --- ------- ---------- ------- ----------<br>--- --------- --- ----------- ------- group ------- ---<br>--------- ---- -- --- ---- -- --------- -- ---- -------<br>-- --------- ------ --- ----- ------ ---- --- --------- --<br>------ - ---- -- --- ----------- ------- ---- ----- -----<br>--- -------- - ------ ---- -- ----- ---- --- --- -----------<br>-- -------,290069,290058,289796.52,289796,289796.74,290068.76,,13,group
screen,html.Screen,2_3_1_0_1_14,2022-05-03T12:52:40.247Z,,,,,,,,,,,,,,,,,2,,,,,,,,,,,,,,676.2399999999907,,response,,,,1,H,,,,,,Space,keypress(Space),,,,speech,,,,--- ---- ------ --- ------- ---------- ------- ----------<br>--- --------- --- ----------- ------- ----- through ---<br>--------- ---- -- --- ---- -- --------- -- ---- -------<br>-- --------- ------ --- ----- ------ ---- --- --------- --<br>------ - ---- -- --- ----------- ------- ---- ----- -----<br>--- -------- - ------ ---- -- ----- ---- --- --- -----------<br>-- -------,290756,290745,290068.6,290069,290068.76,290756.62,,14,through
screen,html.Screen,2_3_1_0_1_15,2022-05-03T12:52:40.503Z,,,,,,,,,,,,,,,,,2,,,,,,,,,,,,,,254.38000000000466,,response,,,,1,H,,,,,,Space,keypress(Space),,,,speech,,,,--- ---- ------ --- ------- ---------- ------- ----------<br>--- --------- --- ----------- ------- ----- ------- his<br>--------- ---- -- --- ---- -- --------- -- ---- -------<br>-- --------- ------ --- ----- ------ ---- --- --------- --<br>------ - ---- -- --- ----------- ------- ---- ----- -----<br>--- -------- - ------ ---- -- ----- ---- --- --- -----------<br>-- -------,291012,291011,290756.42,290757,290756.62,291012.68,,15,his
screen,html.Screen,2_3_1_0_1_16,2022-05-03T12:52:41.135Z,,,,,,,,,,,,,,,,,2,,,,,,,,,,,,,,622.320000000007,,response,,,,1,H,,,,,,Space,keypress(Space),,,,speech,,,,--- ---- ------ --- ------- ---------- ------- ----------<br>--- --------- --- ----------- ------- ----- ------- ---<br>telescope ---- -- --- ---- -- --------- -- ---- -------<br>-- --------- ------ --- ----- ------ ---- --- --------- --<br>------ - ---- -- --- ----------- ------- ---- ----- -----<br>--- -------- - ------ ---- -- ----- ---- --- --- -----------<br>-- -------,291644,291635,291012.48,291013,291012.68,291644.72,,16,telescope
screen,html.Screen,2_3_1_0_1_17,2022-05-03T12:52:41.359Z,,,,,,,,,,,,,,,,,2,,,,,,,,,,,,,,208.28000000002794,,response,,,,1,H,,,,,,Space,keypress(Space),,,,speech,,,,--- ---- ------ --- ------- ---------- ------- ----------<br>--- --------- --- ----------- ------- ----- ------- ---<br>--------- when -- --- ---- -- --------- -- ---- -------<br>-- --------- ------ --- ----- ------ ---- --- --------- --<br>------ - ---- -- --- ----------- ------- ---- ----- -----<br>--- -------- - ------ ---- -- ----- ---- --- --- -----------<br>-- -------,291868,291853,291644.5,291644,291644.72,291868.66,,17,when
screen,html.Screen,2_3_1_0_1_18,2022-05-03T12:52:41.688Z,,,,,,,,,,,,,,,,,2,,,,,,,,,,,,,,311.3400000000256,,response,,,,1,H,,,,,,Space,keypress(Space),,,,speech,,,,--- ---- ------ --- ------- ---------- ------- ----------<br>--- --------- --- ----------- ------- ----- ------- ---<br>--------- ---- he --- ---- -- --------- -- ---- -------<br>-- --------- ------ --- ----- ------ ---- --- --------- --<br>------ - ---- -- --- ----------- ------- ---- ----- -----<br>--- -------- - ------ ---- -- ----- ---- --- --- -----------<br>-- -------,292196,292180,291868.48,291868,291868.66,292196.64,,18,he
screen,html.Screen,2_3_1_0_1_19,2022-05-03T12:52:41.927Z,,,,,,,,,,,,,,,,,2,,,,,,,,,,,,,,232.35999999998603,,response,,,,1,H,,,,,,Space,keypress(Space),,,,speech,,,,--- ---- ------ --- ------- ---------- ------- ----------<br>--- --------- --- ----------- ------- ----- ------- ---<br>--------- ---- -- saw ---- -- --------- -- ---- -------<br>-- --------- ------ --- ----- ------ ---- --- --------- --<br>------ - ---- -- --- ----------- ------- ---- ----- -----<br>--- -------- - ------ ---- -- ----- ---- --- --- -----------<br>-- -------,292436,292429,292196.44,292197,292196.64,292436.48,,19,saw
screen,html.Screen,2_3_1_0_1_20,2022-05-03T12:52:42.495Z,,,,,,,,,,,,,,,,,2,,,,,,,,,,,,,,554.5200000000186,,response,,,,1,H,,,,,,Space,keypress(Space),,,,speech,,,,--- ---- ------ --- ------- ---------- ------- ----------<br>--- --------- --- ----------- ------- ----- ------- ---<br>--------- ---- -- --- what -- --------- -- ---- -------<br>-- --------- ------ --- ----- ------ ---- --- --------- --<br>------ - ---- -- --- ----------- ------- ---- ----- -----<br>--- -------- - ------ ---- -- ----- ---- --- --- -----------<br>-- -------,293004,292991,292436.28,292436,292436.48,293004.76,,20,what
screen,html.Screen,2_3_1_0_1_21,2022-05-03T12:52:42.823Z,,,,,,,,,,,,,,,,,2,,,,,,,,,,,,,,313.2399999999907,,response,,,,1,H,,,,,,Space,keypress(Space),,,,speech,,,,--- ---- ------ --- ------- ---------- ------- ----------<br>--- --------- --- ----------- ------- ----- ------- ---<br>--------- ---- -- --- ---- he --------- -- ---- -------<br>-- --------- ------ --- ----- ------ ---- --- --------- --<br>------ - ---- -- --- ----------- ------- ---- ----- -----<br>--- -------- - ------ ---- -- ----- ---- --- --- -----------<br>-- -------,293332,293318,293004.5,293004,293004.76,293332.46,,21,he
screen,html.Screen,2_3_1_0_1_22,2022-05-03T12:52:43.039Z,,,,,,,,,,,,,,,,,2,,,,,,,,,,,,,,204.53999999997905,,response,,,,1,H,,,,,,Space,keypress(Space),,,,speech,,,,--- ---- ------ --- ------- ---------- ------- ----------<br>--- --------- --- ----------- ------- ----- ------- ---<br>--------- ---- -- --- ---- -- described -- ---- -------<br>-- --------- ------ --- ----- ------ ---- --- --------- --<br>------ - ---- -- --- ----------- ------- ---- ----- -----<br>--- -------- - ------ ---- -- ----- ---- --- --- -----------<br>-- -------,293548,293537,293332.28,293332,293332.46,293548.56,,22,described
screen,html.Screen,2_3_1_0_1_23,2022-05-03T12:52:43.247Z,,,,,,,,,,,,,,,,,2,,,,,,,,,,,,,,191.44000000000233,,response,,,,1,H,,,,,,Space,keypress(Space),,,,speech,,,,--- ---- ------ --- ------- ---------- ------- ----------<br>--- --------- --- ----------- ------- ----- ------- ---<br>--------- ---- -- --- ---- -- --------- as ---- -------<br>-- --------- ------ --- ----- ------ ---- --- --------- --<br>------ - ---- -- --- ----------- ------- ---- ----- -----<br>--- -------- - ------ ---- -- ----- ---- --- --- -----------<br>-- -------,293756,293740,293548.4,293549,293548.56,293756.5,,23,as
screen,html.Screen,2_3_1_0_1_24,2022-05-03T12:52:43.567Z,,,,,,,,,,,,,,,,,2,,,,,,,,,,,,,,310.5,,response,,,,1,H,,,,,,Space,keypress(Space),,,,speech,,,,"--- ---- ------ --- ------- ---------- ------- ----------<br>--- --------- --- ----------- ------- ----- ------- ---<br>--------- ---- -- --- ---- -- --------- -- ""two -------<br>-- --------- ------ --- ----- ------ ---- --- --------- --<br>------ - ---- -- --- ----------- ------- ---- ----- -----<br>--- -------- - ------ ---- -- ----- ---- --- --- -----------<br>-- -------",294076,294067,293756.32,293756,293756.5,294076.6,,24,"""two"
screen,html.Screen,2_3_1_0_1_25,2022-05-03T12:52:43.783Z,,,,,,,,,,,,,,,,,2,,,,,,,,,,,,,,209.40000000002328,,response,,,,1,H,,,,,,Space,keypress(Space),,,,speech,,,,--- ---- ------ --- ------- ---------- ------- ----------<br>--- --------- --- ----------- ------- ----- ------- ---<br>--------- ---- -- --- ---- -- --------- -- ---- patches<br>-- --------- ------ --- ----- ------ ---- --- --------- --<br>------ - ---- -- --- ----------- ------- ---- ----- -----<br>--- -------- - ------ ---- -- ----- ---- --- --- -----------<br>-- -------,294292,294286,294076.4,294077,294076.6,294292.5,,25,patches
screen,html.Screen,2_3_1_0_1_26,2022-05-03T12:52:44.206Z,,,,,,,,,,,,,,,,,2,,,,,,,,,,,,,,415.5,,response,,,,1,H,,,,,,Space,keypress(Space),,,,speech,,,,--- ---- ------ --- ------- ---------- ------- ----------<br>--- --------- --- ----------- ------- ----- ------- ---<br>--------- ---- -- --- ---- -- --------- -- ---- -------<br>of --------- ------ --- ----- ------ ---- --- --------- --<br>------ - ---- -- --- ----------- ------- ---- ----- -----<br>--- -------- - ------ ---- -- ----- ---- --- --- -----------<br>-- -------,294716,294708,294292.24,294293,294292.5,294716.36,,26,of
screen,html.Screen,2_3_1_0_1_27,2022-05-03T12:52:44.415Z,,,,,,,,,,,,,,,,,2,,,,,,,,,,,,,,194.64000000001397,,response,,,,1,H,,,,,,Space,keypress(Space),,,,speech,,,,--- ---- ------ --- ------- ---------- ------- ----------<br>--- --------- --- ----------- ------- ----- ------- ---<br>--------- ---- -- --- ---- -- --------- -- ---- -------<br>-- intensely ------ --- ----- ------ ---- --- --------- --<br>------ - ---- -- --- ----------- ------- ---- ----- -----<br>--- -------- - ------ ---- -- ----- ---- --- --- -----------<br>-- -------,294924,294911,294716.2,294716,294716.36,294924.56,,27,intensely
screen,html.Screen,2_3_1_0_1_28,2022-05-03T12:52:44.663Z,,,,,,,,,,,,,,,,,2,,,,,,,,,,,,,,234.44000000000233,,response,,,,1,H,,,,,,Space,keypress(Space),,,,speech,,,,--- ---- ------ --- ------- ---------- ------- ----------<br>--- --------- --- ----------- ------- ----- ------- ---<br>--------- ---- -- --- ---- -- --------- -- ---- -------<br>-- --------- bright --- ----- ------ ---- --- --------- --<br>------ - ---- -- --- ----------- ------- ---- ----- -----<br>--- -------- - ------ ---- -- ----- ---- --- --- -----------<br>-- -------,295173,295159,294924.4,294924,294924.56,295172.58,,28,bright
screen,html.Screen,2_3_1_0_1_29,2022-05-03T12:52:44.863Z,,,,,,,,,,,,,,,,,2,,,,,,,,,,,,,,189.4199999999837,,response,,,,1,H,,,,,,Space,keypress(Space),,,,speech,,,,--- ---- ------ --- ------- ---------- ------- ----------<br>--- --------- --- ----------- ------- ----- ------- ---<br>--------- ---- -- --- ---- -- --------- -- ---- -------<br>-- --------- ------ and ----- ------ ---- --- --------- --<br>------ - ---- -- --- ----------- ------- ---- ----- -----<br>--- -------- - ------ ---- -- ----- ---- --- --- -----------<br>-- -------,295372,295362,295172.34,295173,295172.58,295372.48,,29,and
screen,html.Screen,2_3_1_0_1_30,2022-05-03T12:52:45.328Z,,,,,,,,,,,,,,,,,2,,,,,,,,,,,,,,458.5200000000186,,response,,,,1,H,,,,,,Space,keypress(Space),,,,speech,,,,--- ---- ------ --- ------- ---------- ------- ----------<br>--- --------- --- ----------- ------- ----- ------- ---<br>--------- ---- -- --- ---- -- --------- -- ---- -------<br>-- --------- ------ --- white ------ ---- --- --------- --<br>------ - ---- -- --- ----------- ------- ---- ----- -----<br>--- -------- - ------ ---- -- ----- ---- --- --- -----------<br>-- -------,295836,295831,295372.28,295372,295372.48,295836.74,,30,white
screen,html.Screen,2_3_1_0_1_31,2022-05-03T12:52:45.536Z,,,,,,,,,,,,,,,,,2,,,,,,,,,,,,,,196.2600000000093,,response,,,,1,H,,,,,,Space,keypress(Space),,,,speech,,,,"--- ---- ------ --- ------- ---------- ------- ----------<br>--- --------- --- ----------- ------- ----- ------- ---<br>--------- ---- -- --- ---- -- --------- -- ---- -------<br>-- --------- ------ --- ----- light"" ---- --- --------- --<br>------ - ---- -- --- ----------- ------- ---- ----- -----<br>--- -------- - ------ ---- -- ----- ---- --- --- -----------<br>-- -------",296044,296033,295836.6,295836,295836.74,296044.58,,31,"light"""
screen,html.Screen,2_3_1_0_1_32,2022-05-03T12:52:46.687Z,,,,,,,,,,,,,,,,,2,,,,,,,,,,,,,,1143.4199999999837,,response,,,,1,H,,,,,,Space,keypress(Space),,,,speech,,,,--- ---- ------ --- ------- ---------- ------- ----------<br>--- --------- --- ----------- ------- ----- ------- ---<br>--------- ---- -- --- ---- -- --------- -- ---- -------<br>-- --------- ------ --- ----- ------ over --- --------- --<br>------ - ---- -- --- ----------- ------- ---- ----- -----<br>--- -------- - ------ ---- -- ----- ---- --- --- -----------<br>-- -------,297196,297188,296044.32,296044,296044.58,297196.44,,32,over
screen,html.Screen,2_3_1_0_1_33,2022-05-03T12:52:46.983Z,,,,,,,,,,,,,,,,,2,,,,,,,,,,,,,,287.5599999999977,,response,,,,1,H,,,,,,Space,keypress(Space),,,,speech,,,,--- ---- ------ --- ------- ---------- ------- ----------<br>--- --------- --- ----------- ------- ----- ------- ---<br>--------- ---- -- --- ---- -- --------- -- ---- -------<br>-- --------- ------ --- ----- ------ ---- the --------- --<br>------ - ---- -- --- ----------- ------- ---- ----- -----<br>--- -------- - ------ ---- -- ----- ---- --- --- -----------<br>-- -------,297492,297484,297196.2,297196,297196.44,297492.42,,33,the
screen,html.Screen,2_3_1_0_1_34,2022-05-03T12:52:47.303Z,,,,,,,,,,,,,,,,,2,,,,,,,,,,,,,,303.5800000000163,,response,,,,1,H,,,,,,Space,keypress(Space),,,,speech,,,,--- ---- ------ --- ------- ---------- ------- ----------<br>--- --------- --- ----------- ------- ----- ------- ---<br>--------- ---- -- --- ---- -- --------- -- ---- -------<br>-- --------- ------ --- ----- ------ ---- --- sunspots. --<br>------ - ---- -- --- ----------- ------- ---- ----- -----<br>--- -------- - ------ ---- -- ----- ---- --- --- -----------<br>-- -------,297812,297796,297492.2,297492,297492.42,297812.44,,34,sunspots.
screen,html.Screen,2_3_1_0_1_35,2022-05-03T12:52:47.703Z,,,,,,,,,,,,,,,,,2,,,,,,,,,,,,,,389.5599999999977,,response,,,,1,H,,,,,,Space,keypress(Space),,,,speech,,,,--- ---- ------ --- ------- ---------- ------- ----------<br>--- --------- --- ----------- ------- ----- ------- ---<br>--------- ---- -- --- ---- -- --------- -- ---- -------<br>-- --------- ------ --- ----- ------ ---- --- --------- He<br>------ - ---- -- --- ----------- ------- ---- ----- -----<br>--- -------- - ------ ---- -- ----- ---- --- --- -----------<br>-- -------,298212,298202,297812.2,297813,297812.44,298212.36,,35,He
screen,html.Screen,2_3_1_0_1_36,2022-05-03T12:52:47.943Z,,,,,,,,,,,,,,,,,2,,,,,,,,,,,,,,223.64000000001397,,response,,,,1,H,,,,,,Space,keypress(Space),,,,speech,,,,--- ---- ------ --- ------- ---------- ------- ----------<br>--- --------- --- ----------- ------- ----- ------- ---<br>--------- ---- -- --- ---- -- --------- -- ---- -------<br>-- --------- ------ --- ----- ------ ---- --- --------- --<br>jotted - ---- -- --- ----------- ------- ---- ----- -----<br>--- -------- - ------ ---- -- ----- ---- --- --- -----------<br>-- -------,298452,298436,298212.18,298212,298212.36,298452.48,,36,jotted
screen,html.Screen,2_3_1_0_1_37,2022-05-03T12:52:48.151Z,,,,,,,,,,,,,,,,,2,,,,,,,,,,,,,,202.52000000001863,,response,,,,1,H,,,,,,Space,keypress(Space),,,,speech,,,,--- ---- ------ --- ------- ---------- ------- ----------<br>--- --------- --- ----------- ------- ----- ------- ---<br>--------- ---- -- --- ---- -- --------- -- ---- -------<br>-- --------- ------ --- ----- ------ ---- --- --------- --<br>------ a ---- -- --- ----------- ------- ---- ----- -----<br>--- -------- - ------ ---- -- ----- ---- --- --- -----------<br>-- -------,298660,298655,298452.24,298453,298452.48,298660.42,,37,a
screen,html.Screen,2_3_1_0_1_38,2022-05-03T12:52:48.359Z,,,,,,,,,,,,,,,,,2,,,,,,,,,,,,,,195.5800000000163,,response,,,,1,H,,,,,,Space,keypress(Space),,,,speech,,,,--- ---- ------ --- ------- ---------- ------- ----------<br>--- --------- --- ----------- ------- ----- ------- ---<br>--------- ---- -- --- ---- -- --------- -- ---- -------<br>-- --------- ------ --- ----- ------ ---- --- --------- --<br>------ - note -- --- ----------- ------- ---- ----- -----<br>--- -------- - ------ ---- -- ----- ---- --- --- -----------<br>-- -------,298868,298856,298660.18,298660,298660.42,298868.22,,38,note
screen,html.Screen,2_3_1_0_1_39,2022-05-03T12:52:48.575Z,,,,,,,,,,,,,,,,,2,,,,,,,,,,,,,,207.78000000002794,,response,,,,1,H,,,,,,Space,keypress(Space),,,,speech,,,,--- ---- ------ --- ------- ---------- ------- ----------<br>--- --------- --- ----------- ------- ----- ------- ---<br>--------- ---- -- --- ---- -- --------- -- ---- -------<br>-- --------- ------ --- ----- ------ ---- --- --------- --<br>------ - ---- in --- ----------- ------- ---- ----- -----<br>--- -------- - ------ ---- -- ----- ---- --- --- -----------<br>-- -------,299084,299076,298868,298868,298868.22,299084.54,,39,in
screen,html.Screen,2_3_1_0_1_40,2022-05-03T12:52:48.815Z,,,,,,,,,,,,,,,,,2,,,,,,,,,,,,,,224.46000000002095,,response,,,,1,H,,,,,,Space,keypress(Space),,,,speech,,,,--- ---- ------ --- ------- ---------- ------- ----------<br>--- --------- --- ----------- ------- ----- ------- ---<br>--------- ---- -- --- ---- -- --------- -- ---- -------<br>-- --------- ------ --- ----- ------ ---- --- --------- --<br>------ - ---- -- his ----------- ------- ---- ----- -----<br>--- -------- - ------ ---- -- ----- ---- --- --- -----------<br>-- -------,299324,299309,299084.36,299084,299084.54,299324.22,,40,his
screen,html.Screen,2_3_1_0_1_41,2022-05-03T12:52:49.063Z,,,,,,,,,,,,,,,,,2,,,,,,,,,,,,,,233.78000000002794,,response,,,,1,H,,,,,,Space,keypress(Space),,,,speech,,,,--- ---- ------ --- ------- ---------- ------- ----------<br>--- --------- --- ----------- ------- ----- ------- ---<br>--------- ---- -- --- ---- -- --------- -- ---- -------<br>-- --------- ------ --- ----- ------ ---- --- --------- --<br>------ - ---- -- --- painstaking ------- ---- ----- -----<br>--- -------- - ------ ---- -- ----- ---- --- --- -----------<br>-- -------,299572,299558,299324.04,299324,299324.22,299572.46,,41,painstaking
screen,html.Screen,2_3_1_0_1_42,2022-05-03T12:52:49.335Z,,,,,,,,,,,,,,,,,2,,,,,,,,,,,,,,267.53999999997905,,response,,,,1,H,,,,,,Space,keypress(Space),,,,speech,,,,--- ---- ------ --- ------- ---------- ------- ----------<br>--- --------- --- ----------- ------- ----- ------- ---<br>--------- ---- -- --- ---- -- --------- -- ---- -------<br>-- --------- ------ --- ----- ------ ---- --- --------- --<br>------ - ---- -- --- ----------- record. ---- ----- -----<br>--- -------- - ------ ---- -- ----- ---- --- --- -----------<br>-- -------,299844,299840,299572.28,299572,299572.46,299844.28,,42,record.
screen,html.Screen,2_3_1_0_1_43,2022-05-03T12:52:49.823Z,,,,,,,,,,,,,,,,,2,,,,,,,,,,,,,,479.71999999997206,,response,,,,1,H,,,,,,Space,keypress(Space),,,,speech,,,,--- ---- ------ --- ------- ---------- ------- ----------<br>--- --------- --- ----------- ------- ----- ------- ---<br>--------- ---- -- --- ---- -- --------- -- ---- -------<br>-- --------- ------ --- ----- ------ ---- --- --------- --<br>------ - ---- -- --- ----------- ------- That ----- -----<br>--- -------- - ------ ---- -- ----- ---- --- --- -----------<br>-- -------,300332,300324,299844.06,299844,299844.28,300332.48,,43,That
screen,html.Screen,2_3_1_0_1_44,2022-05-03T12:52:50.142Z,,,,,,,,,,,,,,,,,2,,,,,,,,,,,,,,303.5200000000186,,response,,,,1,H,,,,,,Space,keypress(Space),,,,speech,,,,--- ---- ------ --- ------- ---------- ------- ----------<br>--- --------- --- ----------- ------- ----- ------- ---<br>--------- ---- -- --- ---- -- --------- -- ---- -------<br>-- --------- ------ --- ----- ------ ---- --- --------- --<br>------ - ---- -- --- ----------- ------- ---- night -----<br>--- -------- - ------ ---- -- ----- ---- --- --- -----------<br>-- -------,300652,300636,300332.2,300332,300332.48,300652.28,,44,night
screen,html.Screen,2_3_1_0_1_45,2022-05-03T12:52:50.686Z,,,,,,,,,,,,,,,,,2,,,,,,,,,,,,,,528.7199999999721,,response,,,,1,H,,,,,,Space,keypress(Space),,,,speech,,,,--- ---- ------ --- ------- ---------- ------- ----------<br>--- --------- --- ----------- ------- ----- ------- ---<br>--------- ---- -- --- ---- -- --------- -- ---- -------<br>-- --------- ------ --- ----- ------ ---- --- --------- --<br>------ - ---- -- --- ----------- ------- ---- ----- there<br>--- -------- - ------ ---- -- ----- ---- --- --- -----------<br>-- -------,301196,301181,300652.02,300652,300652.28,301196.16,,45,there
screen,html.Screen,2_3_1_0_1_46,2022-05-03T12:52:50.951Z,,,,,,,,,,,,,,,,,2,,,,,,,,,,,,,,249.8400000000256,,response,,,,1,H,,,,,,Space,keypress(Space),,,,speech,,,,--- ---- ------ --- ------- ---------- ------- ----------<br>--- --------- --- ----------- ------- ----- ------- ---<br>--------- ---- -- --- ---- -- --------- -- ---- -------<br>-- --------- ------ --- ----- ------ ---- --- --------- --<br>------ - ---- -- --- ----------- ------- ---- ----- -----<br>was -------- - ------ ---- -- ----- ---- --- --- -----------<br>-- -------,301460,301446,301196,301196,301196.16,301460.38,,46,was
screen,html.Screen,2_3_1_0_1_47,2022-05-03T12:52:51.174Z,,,,,,,,,,,,,,,,,2,,,,,,,,,,,,,,219.61999999999534,,response,,,,1,H,,,,,,Space,keypress(Space),,,,speech,,,,--- ---- ------ --- ------- ---------- ------- ----------<br>--- --------- --- ----------- ------- ----- ------- ---<br>--------- ---- -- --- ---- -- --------- -- ---- -------<br>-- --------- ------ --- ----- ------ ---- --- --------- --<br>------ - ---- -- --- ----------- ------- ---- ----- -----<br>--- scarcely - ------ ---- -- ----- ---- --- --- -----------<br>-- -------,301683,301680,301460.12,301460,301460.38,301684.28,,47,scarcely
screen,html.Screen,2_3_1_0_1_48,2022-05-03T12:52:51.374Z,,,,,,,,,,,,,,,,,2,,,,,,,,,,,,,,182.71999999997206,,response,,,,1,H,,,,,,Space,keypress(Space),,,,speech,,,,--- ---- ------ --- ------- ---------- ------- ----------<br>--- --------- --- ----------- ------- ----- ------- ---<br>--------- ---- -- --- ---- -- --------- -- ---- -------<br>-- --------- ------ --- ----- ------ ---- --- --------- --<br>------ - ---- -- --- ----------- ------- ---- ----- -----<br>--- -------- a ------ ---- -- ----- ---- --- --- -----------<br>-- -------,301884,301867,301684.02,301684,301684.28,301884.22,,48,a
