sender,sender_type,sender_id,timestamp,meta,,Blues,Classical,Country,Dance,Electronic,Folk,Gospel,Hip-Hop,Jazz,Latin,Musical/Film,New-age,Pop,Prolific_id,Provo_ID,R&B,Rap,Reggae,Religious,Rock,Soul,Swing,Traditional,age,artist_name,correct,correctResponse,distraction,duration,education,ended_on,familiarity,gender,headphone_check_performance,item,list,music_frequency,offensiveness,pleasantness,position_correct,preference,response,response_action,snippet_file,song_name,song_rating,sound,stimulus_1,stimulus_2,stimulus_3,text,time_commit,time_end,time_render,time_run,time_show,time_switch,url,word,word_ID
Prolific ID,html.Form,0,2022-05-09T20:24:33.213Z,"{""labjs_version"":""20.2.2"",""labjs_build"":{""flavor"":""production"",""commit"":""a25486e0c714a0ae2ce03ff94b7bb6896854dcfa""},""location"":""https://run.pavlovia.org/mvasilev/prolific3_music_g/"",""userAgent"":""Mozilla/5.0 (Windows NT 10.0; Win64; x64) AppleWebKit/537.36 (KHTML, like Gecko) Chrome/101.0.4951.54 Safari/537.36"",""platform"":""Win32"",""language"":""en-US"",""locale"":""en-GB"",""timeZone"":""Europe/London"",""timezoneOffset"":-60,""screen_width"":1680,""screen_height"":1050,""scroll_width"":1680,""scroll_height"":891,""window_innerWidth"":1680,""window_innerHeight"":939,""devicePixelRatio"":1}",,,,,,,,,,,,,,,5efd22056ec55516587f32a6,,,,,,,,,,,,,,,7870.072000035762,,form submission,,,,,,,,,,,,,,,,,,,,,14502.100000023842,14501.900000035763,6615.015,6615.400000035763,6631.828,14564.275,{},,
Introduction,html.Screen,1_0,2022-05-09T20:24:41.628Z,,,,,,,,,,,,,,,,,,,,,,,,,,,,,,,8350.625000035763,,response,,,,,,,,,,,continue,click button,,,,,,,,,22917.5,22914.900000035763,14497.379,14502.300000011921,14564.275,22930.727,,,
Volume calibration,html.Screen,1_1,2022-05-09T20:25:00.637Z,,,,,,,,,,,,,,,,,,,,,,,,,,,,,,,18992.273,,response,,,,,,,,,,,continue,click button,,,,,,,,,41926.10000002384,41923,22914.385,22917.700000047684,22930.727,41935.029,,,
Task instructions,html.Screen,1_2,2022-05-09T20:25:12.563Z,,,,,,,,,,,,,,,,,,,,,,,,,,,,,,,11916.57100002384,,response,,,,,,,,,,,continue,click button,,,,,,,,,53853,53851.60000002384,41918.422,41926.30000001192,41935.029,53858.695,,,
Sounds,html.Screen,1_3_0_0,2022-05-09T20:25:16.798Z,,,,,,,,,,,,,,,,,,,,,,,,,,,,,,,4242.179000000004,,timeout,,,,,,,,,1,,,,,,,,S,O,I,,58087.200000047684,58083.931,53842.606,53853.10000002384,53858.695,58100.874,,,
Judgement,html.Screen,1_3_0_1,2022-05-09T20:25:20.827Z,,,,,,,,,,,,,,,,,,,,,,,,,,,,false,1,,4014.2260000238384,,response,,,,,,,,,1,,2,click #choice-2,,,,,S,O,I,,62116.60000002384,62115.10000002384,58083.931,58087.40000003576,58100.874,62125.049,,,
Trial,flow.Sequence,1_3_0,2022-05-09T20:25:20.828Z,,,,,,,,,,,,,,,,,,,,,,,,,,,,,,,8256.405000023842,,completion,,,,,,,,,1,,,,,,,,S,O,I,,62117.700000047684,62115.10000002384,53842.606,53853,53858.695,62125.049,,,
Sounds,html.Screen,1_3_1_0,2022-05-09T20:25:25.078Z,,,,,,,,,,,,,,,,,,,,,,,,,,,,,,,4259.047000000006,,timeout,,,,,,,,,2,,,,,,,,I,S,O,,66367.70000004768,66366.983,62108.429,62117.80000001192,62125.049,66384.096,,,
Judgement,html.Screen,1_3_1_1,2022-05-09T20:25:25.947Z,,,,,,,,,,,,,,,,,,,,,,,,,,,,true,2,,850.903999999995,,response,,,,,,,,,2,,2,click #choice-2,,,,,I,S,O,,67236.70000004768,67235,66366.983,66367.80000001192,66384.096,67251.969,,,
Trial,flow.Sequence,1_3_1,2022-05-09T20:25:25.947Z,,,,,,,,,,,,,,,,,,,,,,,,,,,,,,,5109.951000000001,,completion,,,,,,,,,2,,,,,,,,I,S,O,,67236.80000001192,67235,62108.429,62117.700000047684,62125.049,67251.969,,,
Sounds,html.Screen,1_3_2_0,2022-05-09T20:25:30.205Z,,,,,,,,,,,,,,,,,,,,,,,,,,,,,,,4258.459000000003,,timeout,,,,,,,,,2,,,,,,,,O,S,I,,71494.80000001192,71494.122,67235.209,67237,67251.969,71510.428,,,
Judgement,html.Screen,1_3_2_1,2022-05-09T20:25:30.867Z,,,,,,,,,,,,,,,,,,,,,,,,,,,,true,2,,644.672000023842,,response,,,,,,,,,2,,2,click #choice-2,,,,,O,S,I,,72156.40000003576,72155.10000002384,71494.122,71495,71510.428,72161.61,,,
Trial,flow.Sequence,1_3_2,2022-05-09T20:25:30.867Z,,,,,,,,,,,,,,,,,,,,,,,,,,,,,,,4903.1310000238445,,completion,,,,,,,,,2,,,,,,,,O,S,I,,72156.5,72155.10000002384,67235.209,67237,67251.969,72161.61,,,
Sounds,html.Screen,1_3_3_0,2022-05-09T20:25:35.098Z,,,,,,,,,,,,,,,,,,,,,,,,,,,,,,,4242.213000000003,,timeout,,,,,,,,,3,,,,,,,,I,O,S,,76387.10000002384,76386.69,72144.974,72156.60000002384,72161.61,76403.823,,,
Judgement,html.Screen,1_3_3_1,2022-05-09T20:25:36.987Z,,,,,,,,,,,,,,,,,,,,,,,,,,,,true,3,,1871.176999999996,,response,,,,,,,,,3,,3,click #choice-3,,,,,I,O,S,,78276.5,78275,76386.69,76387.30000001192,76403.823,78290.845,,,
Trial,flow.Sequence,1_3_3,2022-05-09T20:25:36.987Z,,,,,,,,,,,,,,,,,,,,,,,,,,,,,,,6113.389999999999,,completion,,,,,,,,,3,,,,,,,,I,O,S,,78276.60000002384,78275,72144.974,72156.60000002384,72161.61,78290.845,,,
Sounds,html.Screen,1_3_4_0,2022-05-09T20:25:41.243Z,,,,,,,,,,,,,,,,,,,,,,,,,,,,,,,4258.254000000001,,timeout,,,,,,,,,3,,,,,,,,O,I,S,,82532.70000004768,82532.204,78273.899,78276.70000004768,78290.845,82549.099,,,
Judgement,html.Screen,1_3_4_1,2022-05-09T20:25:42.211Z,,,,,,,,,,,,,,,,,,,,,,,,,,,,true,3,,950.1010000476817,,response,,,,,,,,,3,,3,click #choice-3,,,,,O,I,S,,83500.60000002384,83499.20000004768,82532.204,82532.80000001192,82549.099,83500.767,,,
Trial,flow.Sequence,1_3_4,2022-05-09T20:25:42.211Z,,,,,,,,,,,,,,,,,,,,,,,,,,,,,,,5208.355000047683,,completion,,,,,,,,,3,,,,,,,,O,I,S,,83500.80000001192,83499.20000004768,78273.899,78276.70000004768,78290.845,83500.767,,,
Sounds,html.Screen,1_3_5_0,2022-05-09T20:25:46.437Z,,,,,,,,,,,,,,,,,,,,,,,,,,,,,,,4241.744999999995,,timeout,,,,,,,,,1,,,,,,,,S,I,O,,87726.5,87725.938,83484.09,83500.90000003576,83500.767,87742.512,,,
Judgement,html.Screen,1_3_5_1,2022-05-09T20:25:47.373Z,,,,,,,,,,,,,,,,,,,,,,,,,,,,true,1,,916.5880000238394,,response,,,,,,,,,1,,1,click #choice-1,,,,,S,I,O,,88662.40000003576,88659.10000002384,87725.938,87726.60000002384,87742.512,88661.018,,,
Trial,flow.Sequence,1_3_5,2022-05-09T20:25:47.373Z,,,,,,,,,,,,,,,,,,,,,,,,,,,,,,,5158.333000023835,,completion,,,,,,,,,1,,,,,,,,S,I,O,,88662.60000002384,88659.10000002384,83484.09,83500.80000001192,83500.767,88661.018,,,
Task,flow.Loop,1_3,2022-05-09T20:25:47.377Z,,,,,,,,,,,,,,,,,,,,,,,,,,,,,,,34800.40500002384,,completion,,,0.8333333333333334,,,,,,,,,,,,,,,,,,88666.90000003576,88659.10000002384,53842.606,53853,53858.695,88661.018,,,
Trap,html.Screen,1_4,2022-05-09T20:25:47.379Z,,,,,,,,,,,,,,,,,,,,,,,,,,,,,,,NaN,,skipped,,,,,,,,,,,,,,,,,,,,,88668.20000004768,88659.10000002384,,88668.10000002384,,88661.018,,,
Thanks,html.Screen,1_5,2022-05-09T20:25:51.923Z,,,,,,,,,,,,,,,,,,,,,,,,,,,,,,,4549.7820000119245,,response,,,,,,,,,,,continue,click button,,,,,,,,,93212,93210.80000001192,88644.407,88668.30000001192,88661.018,97077.697,,,
Headphone screening,flow.Sequence,1,2022-05-09T20:25:51.923Z,,,,,,,,,,,,,,,,,,,,,,,,,,,,,,,78646.52500001193,,completion,,,,,,,,,,,,,,,,,,,,,93212,93210.80000001192,14497.379,14502.300000011921,14564.275,97077.697,,,
Instructions,html.Page,2_0,2022-05-09T20:27:03.644Z,,,,,,,,,,,,,,,,,,,,,,,,,,,,,,,67855.00300004768,,form submission,,,,,,,,,,,,,,,,,,,,,164933.20000004768,164932.70000004768,97061.186,97081.60000002384,97077.697,164945.52,,,
Holding screen,html.Screen,2_1_0_0,2022-05-09T20:27:13.644Z,,,,,,,,,,,,,,,,,,,,,,,,,,,,,,,10019.828999999998,,timeout,,,,,,,,,,,,,,,,,,,,,174933,174932.44,164928.922,164933.30000001192,164945.52,174965.349,,,
screen,html.Screen,2_1_0_1_0,2022-05-09T20:27:14.985Z,,,,,,,,,,,,,,,,,53,,,,,,,,,,,,,,1307.2510000238544,,response,,,,99,,,,,,,Space,keypress(Space),,,,,,,,When -- ----- -- ------ - ------- --- ----------<br>------------- ------ ------ ---- ---- ------- ----- -- ----<br>-------- ------- -- ---------- --- - --- ----- ----- ----<br>---- --- --- ----- --- ---- ---- ------- ----- ---- -------<br>--- --- -- ----- -- --- ---- -- --- ---- -- ------ ------<br>--- ----- -- ----,176274.30000001192,176272.60000002384,174932.44,174933.30000001192,174965.349,176284.642,,0,When
screen,html.Screen,2_1_0_1_1,2022-05-09T20:27:15.659Z,,,,,,,,,,,,,,,,,53,,,,,,,,,,,,,,663.1580000119284,,response,,,,99,,,,,,,Space,keypress(Space),,,,,,,,---- it ----- -- ------ - ------- --- ----------<br>------------- ------ ------ ---- ---- ------- ----- -- ----<br>-------- ------- -- ---------- --- - --- ----- ----- ----<br>---- --- --- ----- --- ---- ---- ------- ----- ---- -------<br>--- --- -- ----- -- --- ---- -- --- ---- -- ------ ------<br>--- ----- -- ----,176948.5,176947.80000001192,176268.06,176274.40000003576,176284.642,176952.657,,1,it
screen,html.Screen,2_1_0_1_2,2022-05-09T20:27:16.355Z,,,,,,,,,,,,,,,,,53,,,,,,,,,,,,,,691.1430000119144,,response,,,,99,,,,,,,Space,keypress(Space),,,,,,,,---- -- comes -- ------ - ------- --- ----------<br>------------- ------ ------ ---- ---- ------- ----- -- ----<br>-------- ------- -- ---------- --- - --- ----- ----- ----<br>---- --- --- ----- --- ---- ---- ------- ----- ---- -------<br>--- --- -- ----- -- --- ---- -- --- ---- -- ------ ------<br>--- ----- -- ----,177644.60000002384,177643.80000001192,176936.14,176948.60000002384,176952.657,177654.033,,2,comes
screen,html.Screen,2_1_0_1_3,2022-05-09T20:27:17.188Z,,,,,,,,,,,,,,,,,53,,,,,,,,,,,,,,822.6670000476879,,response,,,,99,,,,,,,Space,keypress(Space),,,,,,,,---- -- ----- to ------ - ------- --- ----------<br>------------- ------ ------ ---- ---- ------- ----- -- ----<br>-------- ------- -- ---------- --- - --- ----- ----- ----<br>---- --- --- ----- --- ---- ---- ------- ----- ---- -------<br>--- --- -- ----- -- --- ---- -- --- ---- -- ------ ------<br>--- ----- -- ----,178477.30000001192,178476.70000004768,177637.413,177644.60000002384,177654.033,178489.063,,3,to
screen,html.Screen,2_1_0_1_4,2022-05-09T20:27:18.030Z,,,,,,,,,,,,,,,,,53,,,,,,,,,,,,,,829.9370000000054,,response,,,,99,,,,,,,Space,keypress(Space),,,,,,,,---- -- ----- -- having - ------- --- ----------<br>------------- ------ ------ ---- ---- ------- ----- -- ----<br>-------- ------- -- ---------- --- - --- ----- ----- ----<br>---- --- --- ----- --- ---- ---- ------- ----- ---- -------<br>--- --- -- ----- -- --- ---- -- --- ---- -- ------ ------<br>--- ----- -- ----,179319.60000002384,179319,178472.406,178477.5,178489.063,179324.037,,4,having
screen,html.Screen,2_1_0_1_5,2022-05-09T20:27:18.817Z,,,,,,,,,,,,,,,,,53,,,,,,,,,,,,,,782.1630000476725,,response,,,,99,,,,,,,Space,keypress(Space),,,,,,,,---- -- ----- -- ------ a ------- --- ----------<br>------------- ------ ------ ---- ---- ------- ----- -- ----<br>-------- ------- -- ---------- --- - --- ----- ----- ----<br>---- --- --- ----- --- ---- ---- ------- ----- ---- -------<br>--- --- -- ----- -- --- ---- -- --- ---- -- ------ ------<br>--- ----- -- ----,180106.80000001192,180106.20000004768,179307.336,179319.80000001192,179324.037,180108.922,,5,a
screen,html.Screen,2_1_0_1_6,2022-05-09T20:27:19.695Z,,,,,,,,,,,,,,,,,53,,,,,,,,,,,,,,874.6780000238505,,response,,,,99,,,,,,,Space,keypress(Space),,,,,,,,---- -- ----- -- ------ - lasting --- ----------<br>------------- ------ ------ ---- ---- ------- ----- -- ----<br>-------- ------- -- ---------- --- - --- ----- ----- ----<br>---- --- --- ----- --- ---- ---- ------- ----- ---- -------<br>--- --- -- ----- -- --- ---- -- --- ---- -- ------ ------<br>--- ----- -- ----,180984.30000001192,180983.60000002384,180092.626,180106.90000003576,180108.922,180994.034,,6,lasting
screen,html.Screen,2_1_0_1_7,2022-05-09T20:27:20.491Z,,,,,,,,,,,,,,,,,53,,,,,,,,,,,,,,785.6660000476695,,response,,,,99,,,,,,,Space,keypress(Space),,,,,,,,---- -- ----- -- ------ - ------- and ----------<br>------------- ------ ------ ---- ---- ------- ----- -- ----<br>-------- ------- -- ---------- --- - --- ----- ----- ----<br>---- --- --- ----- --- ---- ---- ------- ----- ---- -------<br>--- --- -- ----- -- --- ---- -- --- ---- -- ------ ------<br>--- ----- -- ----,181780.20000004768,181779.70000004768,180977.389,180984.40000003576,180994.034,181795.526,,7,and
screen,html.Screen,2_1_0_1_8,2022-05-09T20:27:21.299Z,,,,,,,,,,,,,,,,,53,,,,,,,,,,,,,,792.1740000476711,,response,,,,99,,,,,,,Space,keypress(Space),,,,,,,,---- -- ----- -- ------ - ------- --- fulfilling<br>------------- ------ ------ ---- ---- ------- ----- -- ----<br>-------- ------- -- ---------- --- - --- ----- ----- ----<br>---- --- --- ----- --- ---- ---- ------- ----- ---- -------<br>--- --- -- ----- -- --- ---- -- --- ---- -- ------ ------<br>--- ----- -- ----,182588.30000001192,182587.70000004768,181778.909,181780.20000004768,181795.526,182597.156,,8,fulfilling
screen,html.Screen,2_1_0_1_9,2022-05-09T20:27:22.406Z,,,,,,,,,,,,,,,,,53,,,,,,,,,,,,,,1097.2440000357747,,response,,,,99,,,,,,,Space,keypress(Space),,,,,,,,"---- -- ----- -- ------ - ------- --- ----------<br>relationship, ------ ------ ---- ---- ------- ----- -- ----<br>-------- ------- -- ---------- --- - --- ----- ----- ----<br>---- --- --- ----- --- ---- ---- ------- ----- ---- -------<br>--- --- -- ----- -- --- ---- -- --- ---- -- ------ ------<br>--- ----- -- ----",183694.90000003576,183694.40000003576,182580.565,182588.40000003576,182597.156,183699.324,,9,"relationship,"
screen,html.Screen,2_1_0_1_10,2022-05-09T20:27:23.203Z,,,,,,,,,,,,,,,,,53,,,,,,,,,,,,,,792.5760000357695,,response,,,,99,,,,,,,Space,keypress(Space),,,,,,,,---- -- ----- -- ------ - ------- --- ----------<br>------------- common ------ ---- ---- ------- ----- -- ----<br>-------- ------- -- ---------- --- - --- ----- ----- ----<br>---- --- --- ----- --- ---- ---- ------- ----- ---- -------<br>--- --- -- ----- -- --- ---- -- --- ---- -- ------ ------<br>--- ----- -- ----,184492.60000002384,184491.90000003576,183683.071,183695.10000002384,183699.324,184501.067,,10,common
screen,html.Screen,2_1_0_1_11,2022-05-09T20:27:23.955Z,,,,,,,,,,,,,,,,,53,,,,,,,,,,,,,,742.6330000476737,,response,,,,99,,,,,,,Space,keypress(Space),,,,,,,,---- -- ----- -- ------ - ------- --- ----------<br>------------- ------ wisdom ---- ---- ------- ----- -- ----<br>-------- ------- -- ---------- --- - --- ----- ----- ----<br>---- --- --- ----- --- ---- ---- ------- ----- ---- -------<br>--- --- -- ----- -- --- ---- -- --- ---- -- ------ ------<br>--- ----- -- ----,185244.20000004768,185243.70000004768,184484.338,184492.70000004768,184501.067,185252.466,,11,wisdom
screen,html.Screen,2_1_0_1_12,2022-05-09T20:27:24.782Z,,,,,,,,,,,,,,,,,53,,,,,,,,,,,,,,818.2340000476979,,response,,,,99,,,,,,,Space,keypress(Space),,,,,,,,---- -- ----- -- ------ - ------- --- ----------<br>------------- ------ ------ says ---- ------- ----- -- ----<br>-------- ------- -- ---------- --- - --- ----- ----- ----<br>---- --- --- ----- --- ---- ---- ------- ----- ---- -------<br>--- --- -- ----- -- --- ---- -- --- ---- -- ------ ------<br>--- ----- -- ----,186071.40000003576,186070.70000004768,185236.047,185244.30000001192,185252.466,186087.425,,12,says
screen,html.Screen,2_1_0_1_13,2022-05-09T20:27:25.568Z,,,,,,,,,,,,,,,,,53,,,,,,,,,,,,,,768.9750000357744,,response,,,,99,,,,,,,Space,keypress(Space),,,,,,,,---- -- ----- -- ------ - ------- --- ----------<br>------------- ------ ------ ---- that ------- ----- -- ----<br>-------- ------- -- ---------- --- - --- ----- ----- ----<br>---- --- --- ----- --- ---- ---- ------- ----- ---- -------<br>--- --- -- ----- -- --- ---- -- --- ---- -- ------ ------<br>--- ----- -- ----,186856.90000003576,186856.40000003576,186070.755,186071.5,186087.425,186872.314,,13,that
screen,html.Screen,2_1_0_1_14,2022-05-09T20:27:26.254Z,,,,,,,,,,,,,,,,,53,,,,,,,,,,,,,,670.185999999987,,response,,,,99,,,,,,,Space,keypress(Space),,,,,,,,---- -- ----- -- ------ - ------- --- ----------<br>------------- ------ ------ ---- ---- feeling ----- -- ----<br>-------- ------- -- ---------- --- - --- ----- ----- ----<br>---- --- --- ----- --- ---- ---- ------- ----- ---- -------<br>--- --- -- ----- -- --- ---- -- --- ---- -- ------ ------<br>--- ----- -- ----,187543,187542.5,186855.662,186857.10000002384,186872.314,187557.063,,14,feeling
screen,html.Screen,2_1_0_1_15,2022-05-09T20:27:27.070Z,,,,,,,,,,,,,,,,,53,,,,,,,,,,,,,,802.1370000476891,,response,,,,99,,,,,,,Space,keypress(Space),,,,,,,,---- -- ----- -- ------ - ------- --- ----------<br>------------- ------ ------ ---- ---- ------- close -- ----<br>-------- ------- -- ---------- --- - --- ----- ----- ----<br>---- --- --- ----- --- ---- ---- ------- ----- ---- -------<br>--- --- -- ----- -- --- ---- -- --- ---- -- ------ ------<br>--- ----- -- ----,188359.70000004768,188359.20000004768,187540.39,187543.20000004768,187557.063,188375.259,,15,close
screen,html.Screen,2_1_0_1_16,2022-05-09T20:27:27.750Z,,,,,,,,,,,,,,,,,53,,,,,,,,,,,,,,663.3410000238509,,response,,,,99,,,,,,,Space,keypress(Space),,,,,,,,---- -- ----- -- ------ - ------- --- ----------<br>------------- ------ ------ ---- ---- ------- ----- to ----<br>-------- ------- -- ---------- --- - --- ----- ----- ----<br>---- --- --- ----- --- ---- ---- ------- ----- ---- -------<br>--- --- -- ----- -- --- ---- -- --- ---- -- ------ ------<br>--- ----- -- ----,189039.40000003576,189038.60000002384,188358.606,188359.90000003576,188375.259,189043.301,,16,to
screen,html.Screen,2_1_0_1_17,2022-05-09T20:27:28.774Z,,,,,,,,,,,,,,,,,53,,,,,,,,,,,,,,1019.899000047677,,response,,,,99,,,,,,,Space,keypress(Space),,,,,,,,---- -- ----- -- ------ - ------- --- ----------<br>------------- ------ ------ ---- ---- ------- ----- -- your<br>-------- ------- -- ---------- --- - --- ----- ----- ----<br>---- --- --- ----- --- ---- ---- ------- ----- ---- -------<br>--- --- -- ----- -- --- ---- -- --- ---- -- ------ ------<br>--- ----- -- ----,190063.80000001192,190063.20000004768,189026.619,189039.60000002384,189043.301,190078.618,,17,your
screen,html.Screen,2_1_0_1_18,2022-05-09T20:27:29.785Z,,,,,,,,,,,,,,,,,53,,,,,,,,,,,,,,995.1820000119333,,response,,,,99,,,,,,,Space,keypress(Space),,,,,,,,---- -- ----- -- ------ - ------- --- ----------<br>------------- ------ ------ ---- ---- ------- ----- -- ----<br>romantic ------- -- ---------- --- - --- ----- ----- ----<br>---- --- --- ----- --- ---- ---- ------- ----- ---- -------<br>--- --- -- ----- -- --- ---- -- --- ---- -- ------ ------<br>--- ----- -- ----,191074.40000003576,191073.80000001192,190062.598,190064,190078.618,191080.633,,18,romantic
screen,html.Screen,2_1_0_1_19,2022-05-09T20:27:30.568Z,,,,,,,,,,,,,,,,,53,,,,,,,,,,,,,,776.2670000357612,,response,,,,99,,,,,,,Space,keypress(Space),,,,,,,,---- -- ----- -- ------ - ------- --- ----------<br>------------- ------ ------ ---- ---- ------- ----- -- ----<br>-------- partner -- ---------- --- - --- ----- ----- ----<br>---- --- --- ----- --- ---- ---- ------- ----- ---- -------<br>--- --- -- ----- -- --- ---- -- --- ---- -- ------ ------<br>--- ----- -- ----,191857.60000002384,191856.90000003576,191064.018,191074.60000002384,191080.633,191865.481,,19,partner
screen,html.Screen,2_1_0_1_20,2022-05-09T20:27:31.463Z,,,,,,,,,,,,,,,,,53,,,,,,,,,,,,,,886.419000035763,,response,,,,99,,,,,,,Space,keypress(Space),,,,,,,,---- -- ----- -- ------ - ------- --- ----------<br>------------- ------ ------ ---- ---- ------- ----- -- ----<br>-------- ------- is ---------- --- - --- ----- ----- ----<br>---- --- --- ----- --- ---- ---- ------- ----- ---- -------<br>--- --- -- ----- -- --- ---- -- --- ---- -- ------ ------<br>--- ----- -- ----,192752.40000003576,192751.90000003576,191848.859,191857.70000004768,191865.481,192767.366,,20,is
screen,html.Screen,2_1_0_1_21,2022-05-09T20:27:32.288Z,,,,,,,,,,,,,,,,,53,,,,,,,,,,,,,,809.6339999999909,,response,,,,99,,,,,,,Space,keypress(Space),,,,,,,,---- -- ----- -- ------ - ------- --- ----------<br>------------- ------ ------ ---- ---- ------- ----- -- ----<br>-------- ------- -- paramount. --- - --- ----- ----- ----<br>---- --- --- ----- --- ---- ---- ------- ----- ---- -------<br>--- --- -- ----- -- --- ---- -- --- ---- -- ------ ------<br>--- ----- -- ----,193577.60000002384,193577,192750.646,192752.60000002384,192767.366,193585.868,,21,paramount.
screen,html.Screen,2_1_0_1_22,2022-05-09T20:27:33.117Z,,,,,,,,,,,,,,,,,53,,,,,,,,,,,,,,820.1320000000123,,response,,,,99,,,,,,,Space,keypress(Space),,,,,,,,---- -- ----- -- ------ - ------- --- ----------<br>------------- ------ ------ ---- ---- ------- ----- -- ----<br>-------- ------- -- ---------- But - --- ----- ----- ----<br>---- --- --- ----- --- ---- ---- ------- ----- ---- -------<br>--- --- -- ----- -- --- ---- -- --- ---- -- ------ ------<br>--- ----- -- ----,194406.60000002384,194406,193569.002,193577.70000004768,193585.868,194420.622,,22,But
screen,html.Screen,2_1_0_1_23,2022-05-09T20:27:33.940Z,,,,,,,,,,,,,,,,,53,,,,,,,,,,,,,,807.9780000238388,,response,,,,99,,,,,,,Space,keypress(Space),,,,,,,,---- -- ----- -- ------ - ------- --- ----------<br>------------- ------ ------ ---- ---- ------- ----- -- ----<br>-------- ------- -- ---------- --- a --- ----- ----- ----<br>---- --- --- ----- --- ---- ---- ------- ----- ---- -------<br>--- --- -- ----- -- --- ---- -- --- ---- -- ------ ------<br>--- ----- -- ----,195229.10000002384,195228.60000002384,194403.924,194406.80000001192,194420.622,195238.91,,23,a
screen,html.Screen,2_1_0_1_24,2022-05-09T20:27:34.681Z,,,,,,,,,,,,,,,,,53,,,,,,,,,,,,,,731.1900000238384,,response,,,,99,,,,,,,Space,keypress(Space),,,,,,,,---- -- ----- -- ------ - ------- --- ----------<br>------------- ------ ------ ---- ---- ------- ----- -- ----<br>-------- ------- -- ---------- --- - new ----- ----- ----<br>---- --- --- ----- --- ---- ---- ------- ----- ---- -------<br>--- --- -- ----- -- --- ---- -- --- ---- -- ------ ------<br>--- ----- -- ----,195970.80000001192,195970.10000002384,195222.273,195229.30000001192,195238.91,195973.677,,24,new
screen,html.Screen,2_1_0_1_25,2022-05-09T20:27:35.273Z,,,,,,,,,,,,,,,,,53,,,,,,,,,,,,,,587.9230000238458,,response,,,,99,,,,,,,Space,keypress(Space),,,,,,,,---- -- ----- -- ------ - ------- --- ----------<br>------------- ------ ------ ---- ---- ------- ----- -- ----<br>-------- ------- -- ---------- --- - --- study ----- ----<br>---- --- --- ----- --- ---- ---- ------- ----- ---- -------<br>--- --- -- ----- -- --- ---- -- --- ---- -- ------ ------<br>--- ----- -- ----,196562.30000001192,196561.60000002384,195957.065,195970.90000003576,195973.677,196575.276,,25,study
screen,html.Screen,2_1_0_1_26,2022-05-09T20:27:35.861Z,,,,,,,,,,,,,,,,,53,,,,,,,,,,,,,,574.7239999999874,,response,,,,99,,,,,,,Space,keypress(Space),,,,,,,,---- -- ----- -- ------ - ------- --- ----------<br>------------- ------ ------ ---- ---- ------- ----- -- ----<br>-------- ------- -- ---------- --- - --- ----- finds ----<br>---- --- --- ----- --- ---- ---- ------- ----- ---- -------<br>--- --- -- ----- -- --- ---- -- --- ---- -- ------ ------<br>--- ----- -- ----,197150.60000002384,197150,196558.252,196562.40000003576,196575.276,197159.38,,26,finds
screen,html.Screen,2_1_0_1_27,2022-05-09T20:27:36.415Z,,,,,,,,,,,,,,,,,53,,,,,,,,,,,,,,544.2200000238372,,response,,,,99,,,,,,,Space,keypress(Space),,,,,,,,---- -- ----- -- ------ - ------- --- ----------<br>------------- ------ ------ ---- ---- ------- ----- -- ----<br>-------- ------- -- ---------- --- - --- ----- ----- that<br>---- --- --- ----- --- ---- ---- ------- ----- ---- -------<br>--- --- -- ----- -- --- ---- -- --- ---- -- ------ ------<br>--- ----- -- ----,197704.30000001192,197703.60000002384,197142.708,197150.70000004768,197159.38,197710.416,,27,that
screen,html.Screen,2_1_0_1_28,2022-05-09T20:27:37.034Z,,,,,,,,,,,,,,,,,53,,,,,,,,,,,,,,611.6840000238444,,response,,,,99,,,,,,,Space,keypress(Space),,,,,,,,---- -- ----- -- ------ - ------- --- ----------<br>------------- ------ ------ ---- ---- ------- ----- -- ----<br>-------- ------- -- ---------- --- - --- ----- ----- ----<br>it's --- --- ----- --- ---- ---- ------- ----- ---- -------<br>--- --- -- ----- -- --- ---- -- --- ---- -- ------ ------<br>--- ----- -- ----,198323.60000002384,198322.10000002384,197694.154,197704.40000003576,197710.416,198328.307,,28,it's
screen,html.Screen,2_1_0_1_29,2022-05-09T20:27:37.706Z,,,,,,,,,,,,,,,,,53,,,,,,,,,,,,,,666.0930000357621,,response,,,,99,,,,,,,Space,keypress(Space),,,,,,,,---- -- ----- -- ------ - ------- --- ----------<br>------------- ------ ------ ---- ---- ------- ----- -- ----<br>-------- ------- -- ---------- --- - --- ----- ----- ----<br>---- not --- ----- --- ---- ---- ------- ----- ---- -------<br>--- --- -- ----- -- --- ---- -- --- ---- -- ------ ------<br>--- ----- -- ----,198995,198994.40000003576,198311.691,198323.70000004768,198328.307,198996.332,,29,not
screen,html.Screen,2_1_0_1_30,2022-05-09T20:27:38.321Z,,,,,,,,,,,,,,,,,53,,,,,,,,,,,,,,613.3680000476888,,response,,,,99,,,,,,,Space,keypress(Space),,,,,,,,---- -- ----- -- ------ - ------- --- ----------<br>------------- ------ ------ ---- ---- ------- ----- -- ----<br>-------- ------- -- ---------- --- - --- ----- ----- ----<br>---- --- how ----- --- ---- ---- ------- ----- ---- -------<br>--- --- -- ----- -- --- ---- -- --- ---- -- ------ ------<br>--- ----- -- ----,199610.30000001192,199609.70000004768,198979.718,198995.20000004768,198996.332,199614.209,,30,how
screen,html.Screen,2_1_0_1_31,2022-05-09T20:27:38.985Z,,,,,,,,,,,,,,,,,53,,,,,,,,,,,,,,659.1910000357602,,response,,,,99,,,,,,,Space,keypress(Space),,,,,,,,---- -- ----- -- ------ - ------- --- ----------<br>------------- ------ ------ ---- ---- ------- ----- -- ----<br>-------- ------- -- ---------- --- - --- ----- ----- ----<br>---- --- --- close --- ---- ---- ------- ----- ---- -------<br>--- --- -- ----- -- --- ---- -- --- ---- -- ------ ------<br>--- ----- -- ----,200274.10000002384,200273.40000003576,199597.608,199610.5,199614.209,200282.238,,31,close
screen,html.Screen,2_1_0_1_32,2022-05-09T20:27:39.514Z,,,,,,,,,,,,,,,,,53,,,,,,,,,,,,,,520.9620000476716,,response,,,,99,,,,,,,Space,keypress(Space),,,,,,,,---- -- ----- -- ------ - ------- --- ----------<br>------------- ------ ------ ---- ---- ------- ----- -- ----<br>-------- ------- -- ---------- --- - --- ----- ----- ----<br>---- --- --- ----- you ---- ---- ------- ----- ---- -------<br>--- --- -- ----- -- --- ---- -- --- ---- -- ------ ------<br>--- ----- -- ----,200803.80000001192,200803.20000004768,200265.581,200274.20000004768,200282.238,200816.615,,32,you
screen,html.Screen,2_1_0_1_33,2022-05-09T20:27:40.045Z,,,,,,,,,,,,,,,,,53,,,,,,,,,,,,,,516.8850000000093,,response,,,,99,,,,,,,Space,keypress(Space),,,,,,,,---- -- ----- -- ------ - ------- --- ----------<br>------------- ------ ------ ---- ---- ------- ----- -- ----<br>-------- ------- -- ---------- --- - --- ----- ----- ----<br>---- --- --- ----- --- feel ---- ------- ----- ---- -------<br>--- --- -- ----- -- --- ---- -- --- ---- -- ------ ------<br>--- ----- -- ----,201334,201333.5,200799.99,200804,200816.615,201351.007,,33,feel
screen,html.Screen,2_1_0_1_34,2022-05-09T20:27:40.614Z,,,,,,,,,,,,,,,,,53,,,,,,,,,,,,,,552.1930000476714,,response,,,,99,,,,,,,Space,keypress(Space),,,,,,,,---- -- ----- -- ------ - ------- --- ----------<br>------------- ------ ------ ---- ---- ------- ----- -- ----<br>-------- ------- -- ---------- --- - --- ----- ----- ----<br>---- --- --- ----- --- ---- that ------- ----- ---- -------<br>--- --- -- ----- -- --- ---- -- --- ---- -- ------ ------<br>--- ----- -- ----,201903.80000001192,201903.20000004768,201334.261,201334.10000002384,201351.007,201918.816,,34,that
screen,html.Screen,2_1_0_1_35,2022-05-09T20:27:41.179Z,,,,,,,,,,,,,,,,,53,,,,,,,,,,,,,,548.7840000238502,,response,,,,99,,,,,,,Space,keypress(Space),,,,,,,,---- -- ----- -- ------ - ------- --- ----------<br>------------- ------ ------ ---- ---- ------- ----- -- ----<br>-------- ------- -- ---------- --- - --- ----- ----- ----<br>---- --- --- ----- --- ---- ---- matters ----- ---- -------<br>--- --- -- ----- -- --- ---- -- --- ---- -- ------ ------<br>--- ----- -- ----,202468.10000002384,202467.60000002384,201902.592,201904,201918.816,202469.874,,35,matters
screen,html.Screen,2_1_0_1_36,2022-05-09T20:27:41.796Z,,,,,,,,,,,,,,,,,53,,,,,,,,,,,,,,615.0260000357521,,response,,,,99,,,,,,,Space,keypress(Space),,,,,,,,"---- -- ----- -- ------ - ------- --- ----------<br>------------- ------ ------ ---- ---- ------- ----- -- ----<br>-------- ------- -- ---------- --- - --- ----- ----- ----<br>---- --- --- ----- --- ---- ---- ------- most, ---- -------<br>--- --- -- ----- -- --- ---- -- --- ---- -- ------ ------<br>--- ----- -- ----",203085.5,203084.90000003576,202453.58,202468.30000001192,202469.874,203087.747,,36,"most,"
screen,html.Screen,2_1_0_1_37,2022-05-09T20:27:42.366Z,,,,,,,,,,,,,,,,,53,,,,,,,,,,,,,,566.9530000476807,,response,,,,99,,,,,,,Space,keypress(Space),,,,,,,,---- -- ----- -- ------ - ------- --- ----------<br>------------- ------ ------ ---- ---- ------- ----- -- ----<br>-------- ------- -- ---------- --- - --- ----- ----- ----<br>---- --- --- ----- --- ---- ---- ------- ----- it's -------<br>--- --- -- ----- -- --- ---- -- --- ---- -- ------ ------<br>--- ----- -- ----,203655.30000001192,203654.70000004768,203071.159,203085.60000002384,203087.747,203672.658,,37,it's
screen,html.Screen,2_1_0_1_38,2022-05-09T20:27:42.911Z,,,,,,,,,,,,,,,,,53,,,,,,,,,,,,,,527.242000035767,,response,,,,99,,,,,,,Space,keypress(Space),,,,,,,,---- -- ----- -- ------ - ------- --- ----------<br>------------- ------ ------ ---- ---- ------- ----- -- ----<br>-------- ------- -- ---------- --- - --- ----- ----- ----<br>---- --- --- ----- --- ---- ---- ------- ----- ---- whether<br>--- --- -- ----- -- --- ---- -- --- ---- -- ------ ------<br>--- ----- -- ----,204200.60000002384,204199.90000003576,203655.571,203655.5,203672.658,204206.646,,38,whether
screen,html.Screen,2_1_0_1_39,2022-05-09T20:27:43.402Z,,,,,,,,,,,,,,,,,53,,,,,,,,,,,,,,484.45400002383394,,response,,,,99,,,,,,,Space,keypress(Space),,,,,,,,---- -- ----- -- ------ - ------- --- ----------<br>------------- ------ ------ ---- ---- ------- ----- -- ----<br>-------- ------- -- ---------- --- - --- ----- ----- ----<br>---- --- --- ----- --- ---- ---- ------- ----- ---- -------<br>you --- -- ----- -- --- ---- -- --- ---- -- ------ ------<br>--- ----- -- ----,204691.60000002384,204691.10000002384,204189.971,204200.70000004768,204206.646,204707.708,,39,you
screen,html.Screen,2_1_0_1_40,2022-05-09T20:27:43.926Z,,,,,,,,,,,,,,,,,53,,,,,,,,,,,,,,506.8920000238286,,response,,,,99,,,,,,,Space,keypress(Space),,,,,,,,---- -- ----- -- ------ - ------- --- ----------<br>------------- ------ ------ ---- ---- ------- ----- -- ----<br>-------- ------- -- ---------- --- - --- ----- ----- ----<br>---- --- --- ----- --- ---- ---- ------- ----- ---- -------<br>--- are -- ----- -- --- ---- -- --- ---- -- ------ ------<br>--- ----- -- ----,205215.20000004768,205214.60000002384,204690.973,204691.80000001192,204707.708,205225.273,,40,are
screen,html.Screen,2_1_0_1_41,2022-05-09T20:27:44.427Z,,,,,,,,,,,,,,,,,53,,,,,,,,,,,,,,490.52700001193443,,response,,,,99,,,,,,,Space,keypress(Space),,,,,,,,---- -- ----- -- ------ - ------- --- ----------<br>------------- ------ ------ ---- ---- ------- ----- -- ----<br>-------- ------- -- ---------- --- - --- ----- ----- ----<br>---- --- --- ----- --- ---- ---- ------- ----- ---- -------<br>--- --- as ----- -- --- ---- -- --- ---- -- ------ ------<br>--- ----- -- ----,205716.30000001192,205715.80000001192,205208.725,205215.40000003576,205225.273,205726.283,,41,as
screen,html.Screen,2_1_0_1_42,2022-05-09T20:27:44.941Z,,,,,,,,,,,,,,,,,53,,,,,,,,,,,,,,503.9170000476879,,response,,,,99,,,,,,,Space,keypress(Space),,,,,,,,---- -- ----- -- ------ - ------- --- ----------<br>------------- ------ ------ ---- ---- ------- ----- -- ----<br>-------- ------- -- ---------- --- - --- ----- ----- ----<br>---- --- --- ----- --- ---- ---- ------- ----- ---- -------<br>--- --- -- close -- --- ---- -- --- ---- -- ------ ------<br>--- ----- -- ----,206230.90000003576,206230.20000004768,205709.715,205716.5,205726.283,206244.036,,42,close
screen,html.Screen,2_1_0_1_43,2022-05-09T20:27:45.428Z,,,,,,,,,,,,,,,,,53,,,,,,,,,,,,,,472.66400004769093,,response,,,,99,,,,,,,Space,keypress(Space),,,,,,,,---- -- ----- -- ------ - ------- --- ----------<br>------------- ------ ------ ---- ---- ------- ----- -- ----<br>-------- ------- -- ---------- --- - --- ----- ----- ----<br>---- --- --- ----- --- ---- ---- ------- ----- ---- -------<br>--- --- -- ----- as --- ---- -- --- ---- -- ------ ------<br>--- ----- -- ----,206717.40000003576,206716.70000004768,206227.37,206231.10000002384,206244.036,206728.282,,43,as
screen,html.Screen,2_1_0_1_44,2022-05-09T20:27:46.047Z,,,,,,,,,,,,,,,,,53,,,,,,,,,,,,,,607.3180000238353,,response,,,,99,,,,,,,Space,keypress(Space),,,,,,,,---- -- ----- -- ------ - ------- --- ----------<br>------------- ------ ------ ---- ---- ------- ----- -- ----<br>-------- ------- -- ---------- --- - --- ----- ----- ----<br>---- --- --- ----- --- ---- ---- ------- ----- ---- -------<br>--- --- -- ----- -- you ---- -- --- ---- -- ------ ------<br>--- ----- -- ----,207336.30000001192,207335.60000002384,206712.022,206717.5,206728.282,207346.212,,44,you
screen,html.Screen,2_1_0_1_45,2022-05-09T20:27:46.607Z,,,,,,,,,,,,,,,,,53,,,,,,,,,,,,,,549.3880000238423,,response,,,,99,,,,,,,Space,keypress(Space),,,,,,,,---- -- ----- -- ------ - ------- --- ----------<br>------------- ------ ------ ---- ---- ------- ----- -- ----<br>-------- ------- -- ---------- --- - --- ----- ----- ----<br>---- --- --- ----- --- ---- ---- ------- ----- ---- -------<br>--- --- -- ----- -- --- want -- --- ---- -- ------ ------<br>--- ----- -- ----,207896.30000001192,207895.60000002384,207329.566,207336.40000003576,207346.212,207897.308,,45,want
screen,html.Screen,2_1_0_1_46,2022-05-09T20:27:47.142Z,,,,,,,,,,,,,,,,,53,,,,,,,,,,,,,,533.4920000119309,,response,,,,99,,,,,,,Space,keypress(Space),,,,,,,,---- -- ----- -- ------ - ------- --- ----------<br>------------- ------ ------ ---- ---- ------- ----- -- ----<br>-------- ------- -- ---------- --- - --- ----- ----- ----<br>---- --- --- ----- --- ---- ---- ------- ----- ---- -------<br>--- --- -- ----- -- --- ---- to --- ---- -- ------ ------<br>--- ----- -- ----,208431.40000003576,208430.80000001192,207880.682,207896.5,207897.308,208448.478,,46,to
screen,html.Screen,2_1_0_1_47,2022-05-09T20:27:47.737Z,,,,,,,,,,,,,,,,,53,,,,,,,,,,,,,,576.8220000119181,,response,,,,99,,,,,,,Space,keypress(Space),,,,,,,,"---- -- ----- -- ------ - ------- --- ----------<br>------------- ------ ------ ---- ---- ------- ----- -- ----<br>-------- ------- -- ---------- --- - --- ----- ----- ----<br>---- --- --- ----- --- ---- ---- ------- ----- ---- -------<br>--- --- -- ----- -- --- ---- -- be, ---- -- ------ ------<br>--- ----- -- ----",209026,209025.30000001192,208431.657,208431.60000002384,208448.478,209032.859,,47,"be,"
screen,html.Screen,2_1_0_1_48,2022-05-09T20:27:48.330Z,,,,,,,,,,,,,,,,,53,,,,,,,,,,,,,,585.4410000119242,,response,,,,99,,,,,,,Space,keypress(Space),,,,,,,,---- -- ----- -- ------ - ------- --- ----------<br>------------- ------ ------ ---- ---- ------- ----- -- ----<br>-------- ------- -- ---------- --- - --- ----- ----- ----<br>---- --- --- ----- --- ---- ---- ------- ----- ---- -------<br>--- --- -- ----- -- --- ---- -- --- even -- ------ ------<br>--- ----- -- ----,209618.90000003576,209618.30000001192,209016.189,209026.10000002384,209032.859,209634.476,,48,even
screen,html.Screen,2_1_0_1_49,2022-05-09T20:27:48.833Z,,,,,,,,,,,,,,,,,53,,,,,,,,,,,,,,487.5240000000049,,response,,,,99,,,,,,,Space,keypress(Space),,,,,,,,---- -- ----- -- ------ - ------- --- ----------<br>------------- ------ ------ ---- ---- ------- ----- -- ----<br>-------- ------- -- ---------- --- - --- ----- ----- ----<br>---- --- --- ----- --- ---- ---- ------- ----- ---- -------<br>--- --- -- ----- -- --- ---- -- --- ---- if ------ ------<br>--- ----- -- ----,210122.70000004768,210122,209617.455,209619.10000002384,209634.476,210135.043,,49,if
screen,html.Screen,2_1_0_1_50,2022-05-09T20:27:49.679Z,,,,,,,,,,,,,,,,,53,,,,,,,,,,,,,,832.3570000357577,,response,,,,99,,,,,,,Space,keypress(Space),,,,,,,,---- -- ----- -- ------ - ------- --- ----------<br>------------- ------ ------ ---- ---- ------- ----- -- ----<br>-------- ------- -- ---------- --- - --- ----- ----- ----<br>---- --- --- ----- --- ---- ---- ------- ----- ---- -------<br>--- --- -- ----- -- --- ---- -- --- ---- -- that's ------<br>--- ----- -- ----,210968,210967.40000003576,210118.525,210122.80000001192,210135.043,210970.066,,50,that's
screen,html.Screen,2_1_0_1_51,2022-05-09T20:27:50.654Z,,,,,,,,,,,,,,,,,53,,,,,,,,,,,,,,972.3340000357712,,response,,,,99,,,,,,,Space,keypress(Space),,,,,,,,---- -- ----- -- ------ - ------- --- ----------<br>------------- ------ ------ ---- ---- ------- ----- -- ----<br>-------- ------- -- ---------- --- - --- ----- ----- ----<br>---- --- --- ----- --- ---- ---- ------- ----- ---- -------<br>--- --- -- ----- -- --- ---- -- --- ---- -- ------ really<br>--- ----- -- ----,211942.90000003576,211942.40000003576,210953.414,210968.20000004768,210970.066,211955.749,,51,really
screen,html.Screen,2_1_0_1_52,2022-05-09T20:27:51.265Z,,,,,,,,,,,,,,,,,53,,,,,,,,,,,,,,597.8510000238311,,response,,,,99,,,,,,,Space,keypress(Space),,,,,,,,---- -- ----- -- ------ - ------- --- ----------<br>------------- ------ ------ ---- ---- ------- ----- -- ----<br>-------- ------- -- ---------- --- - --- ----- ----- ----<br>---- --- --- ----- --- ---- ---- ------- ----- ---- -------<br>--- --- -- ----- -- --- ---- -- --- ---- -- ------ ------<br>not ----- -- ----,212554.20000004768,212553.60000002384,211938.707,211943.10000002384,211955.749,212556.521,,52,not
screen,html.Screen,2_1_0_1_53,2022-05-09T20:27:51.956Z,,,,,,,,,,,,,,,,,53,,,,,,,,,,,,,,688.0790000238339,,response,,,,99,,,,,,,Space,keypress(Space),,,,,,,,---- -- ----- -- ------ - ------- --- ----------<br>------------- ------ ------ ---- ---- ------- ----- -- ----<br>-------- ------- -- ---------- --- - --- ----- ----- ----<br>---- --- --- ----- --- ---- ---- ------- ----- ---- -------<br>--- --- -- ----- -- --- ---- -- --- ---- -- ------ ------<br>--- close -- ----,213245.20000004768,213244.60000002384,212539.848,212554.40000003576,212556.521,213257.882,,53,close
screen,html.Screen,2_1_0_1_54,2022-05-09T20:27:52.449Z,,,,,,,,,,,,,,,,,53,,,,,,,,,,,,,,479.7180000238295,,response,,,,99,,,,,,,Space,keypress(Space),,,,,,,,---- -- ----- -- ------ - ------- --- ----------<br>------------- ------ ------ ---- ---- ------- ----- -- ----<br>-------- ------- -- ---------- --- - --- ----- ----- ----<br>---- --- --- ----- --- ---- ---- ------- ----- ---- -------<br>--- --- -- ----- -- --- ---- -- --- ---- -- ------ ------<br>--- ----- at ----,213738.20000004768,213737.60000002384,213241.281,213245.40000003576,213257.882,213742.206,,54,at
screen,html.Screen,2_1_0_1_55,2022-05-09T20:27:53.180Z,,,,,,,,,,,,,,,,,53,,,,,,,,,,,,,,726.3940000238363,,response,,,,99,,,,,,,Space,keypress(Space),,,,,,,,---- -- ----- -- ------ - ------- --- ----------<br>------------- ------ ------ ---- ---- ------- ----- -- ----<br>-------- ------- -- ---------- --- - --- ----- ----- ----<br>---- --- --- ----- --- ---- ---- ------- ----- ---- -------<br>--- --- -- ----- -- --- ---- -- --- ---- -- ------ ------<br>--- ----- -- all.,214469.10000002384,214468.60000002384,213725.74,213738.40000003576,213742.206,214477.076,,55,all.
Item 99,flow.Loop,2_1_0_1,2022-05-09T20:27:53.180Z,,,,,,,,,,,,,,,,,,,,,,,,,,,,,,,39503.251000023854,,completion,,,,,G,,,,,,,,,,,silence,,,,,214469.40000003576,214468.60000002384,174932.44,174933.20000004768,174965.349,214477.076,,,
Question 1,html.Screen,2_1_0_2,2022-05-09T20:27:59.828Z,,,,,,,,,,,,,,,,,,,,,,,,,,,,true,FALSE,,6638.624000047683,,response,,,,99,G,,,,,,FALSE,click #choice-2,,,,silence,,,,,221117.10000002384,221115.70000004768,214460.363,214469.60000002384,214477.076,221123.439,,,
Question 2,html.Screen,2_1_0_3,2022-05-09T20:28:04.356Z,,,,,,,,,,,,,,,,,,,,,,,,,,,,true,TRUE,,4520.261000047671,,response,,,,99,G,,,,,,TRUE,click #choice-1,,,,silence,,,,,225645,225643.70000004768,221106.873,221117.20000004768,221123.439,225649.088,,,
Item 99,flow.Sequence,2_1_0,2022-05-09T20:28:04.356Z,,,,,,,,,,,,,,,,,,,,,,,,,,,,,,,60698.180000047694,,completion,,,,,,,,,,,,,,,,,,,,,225645.10000002384,225643.70000004768,164928.922,164933.30000001192,164945.52,225649.088,,,
Holding screen,html.Screen,2_1_1_0,2022-05-09T20:28:14.348Z,,,,,,,,,,,,,,,,,,,,,,,,,,,,,,,10003.152000000002,,timeout,,,,,,,,,,,,,,,,,,,,,235636.30000001192,235635.633,225632.484,225645.20000004768,225649.088,235652.24,,,
screen,html.Screen,2_1_1_1_0,2022-05-09T20:28:17.099Z,,,,,,,,,,,,,,,,,54,,,,,,,,,,,,,,2735.0600000119302,,response,,,,100,,,,,,,Space,keypress(Space),,,,,,,,At --- ---- --- ------ ----- ------- ---- -- --- ------- --<br>------- ---------- ------ -- ----- -- ----- -- ---- ------<br>--- ----- --- --- ------ -------- ----- --- ------ ----- --<br>----- ----- ---------- --- --- ------ ------ ---- -- ------<br>------- --- ------ ----- --- ---- ------- -- ---- --- --<br>------- ------,238388,238387.30000001192,235635.633,235636.5,235652.24,238391.028,,0,At
screen,html.Screen,2_1_1_1_1,2022-05-09T20:28:17.695Z,,,,,,,,,,,,,,,,,54,,,,,,,,,,,,,,591.7720000119298,,response,,,,100,,,,,,,Space,keypress(Space),,,,,,,,-- the ---- --- ------ ----- ------- ---- -- --- ------- --<br>------- ---------- ------ -- ----- -- ----- -- ---- ------<br>--- ----- --- --- ------ -------- ----- --- ------ ----- --<br>----- ----- ---------- --- --- ------ ------ ---- -- ------<br>------- --- ------ ----- --- ---- ------- -- ---- --- --<br>------- ------,238983.40000003576,238982.80000001192,238374.393,238388,238391.028,238992.185,,1,the
screen,html.Screen,2_1_1_1_2,2022-05-09T20:28:18.340Z,,,,,,,,,,,,,,,,,54,,,,,,,,,,,,,,636.015000047686,,response,,,,100,,,,,,,Space,keypress(Space),,,,,,,,-- --- time --- ------ ----- ------- ---- -- --- ------- --<br>------- ---------- ------ -- ----- -- ----- -- ---- ------<br>--- ----- --- --- ------ -------- ----- --- ------ ----- --<br>----- ----- ---------- --- --- ------ ------ ---- -- ------<br>------- --- ------ ----- --- ---- ------- -- ---- --- --<br>------- ------,239628.80000001192,239628.20000004768,238975.57,238983.60000002384,238992.185,239644.07,,2,time
screen,html.Screen,2_1_1_1_3,2022-05-09T20:28:19.059Z,,,,,,,,,,,,,,,,,54,,,,,,,,,,,,,,703.5300000238349,,response,,,,100,,,,,,,Space,keypress(Space),,,,,,,,-- --- ---- the ------ ----- ------- ---- -- --- ------- --<br>------- ---------- ------ -- ----- -- ----- -- ---- ------<br>--- ----- --- --- ------ -------- ----- --- ------ ----- --<br>----- ----- ---------- --- --- ------ ------ ---- -- ------<br>------- --- ------ ----- --- ---- ------- -- ---- --- --<br>------- ------,240348.10000002384,240347.60000002384,239626.824,239629,239644.07,240361.66,,3,the
screen,html.Screen,2_1_1_1_4,2022-05-09T20:28:19.687Z,,,,,,,,,,,,,,,,,54,,,,,,,,,,,,,,613.3399999999965,,response,,,,100,,,,,,,Space,keypress(Space),,,,,,,,-- --- ---- --- French ----- ------- ---- -- --- ------- --<br>------- ---------- ------ -- ----- -- ----- -- ---- ------<br>--- ----- --- --- ------ -------- ----- --- ------ ----- --<br>----- ----- ---------- --- --- ------ ------ ---- -- ------<br>------- --- ------ ----- --- ---- ------- -- ---- --- --<br>------- ------,240975.60000002384,240975,240344.972,240348.20000004768,240361.66,240979.503,,4,French
screen,html.Screen,2_1_1_1_5,2022-05-09T20:28:20.409Z,,,,,,,,,,,,,,,,,54,,,,,,,,,,,,,,717.5970000238449,,response,,,,100,,,,,,,Space,keypress(Space),,,,,,,,-- --- ---- --- ------ crown ------- ---- -- --- ------- --<br>------- ---------- ------ -- ----- -- ----- -- ---- ------<br>--- ----- --- --- ------ -------- ----- --- ------ ----- --<br>----- ----- ---------- --- --- ------ ------ ---- -- ------<br>------- --- ------ ----- --- ---- ------- -- ---- --- --<br>------- ------,241697.70000004768,241697.10000002384,240963.19,240975.70000004768,240979.503,241714.7,,5,crown
screen,html.Screen,2_1_1_1_6,2022-05-09T20:28:21.125Z,,,,,,,,,,,,,,,,,54,,,,,,,,,,,,,,698.4000000238302,,response,,,,100,,,,,,,Space,keypress(Space),,,,,,,,-- --- ---- --- ------ ----- secured ---- -- --- ------- --<br>------- ---------- ------ -- ----- -- ----- -- ---- ------<br>--- ----- --- --- ------ -------- ----- --- ------ ----- --<br>----- ----- ---------- --- --- ------ ------ ---- -- ------<br>------- --- ------ ----- --- ---- ------- -- ---- --- --<br>------- ------,242413.70000004768,242413.10000002384,241697.588,241697.90000003576,241714.7,242415.69,,6,secured
screen,html.Screen,2_1_1_1_7,2022-05-09T20:28:21.834Z,,,,,,,,,,,,,,,,,54,,,,,,,,,,,,,,706.8099999999977,,response,,,,100,,,,,,,Space,keypress(Space),,,,,,,,-- --- ---- --- ------ ----- ------- much -- --- ------- --<br>------- ---------- ------ -- ----- -- ----- -- ---- ------<br>--- ----- --- --- ------ -------- ----- --- ------ ----- --<br>----- ----- ---------- --- --- ------ ------ ---- -- ------<br>------- --- ------ ----- --- ---- ------- -- ---- --- --<br>------- ------,243123.20000004768,243122.5,242398.981,242413.80000001192,242415.69,243133.862,,7,much
screen,html.Screen,2_1_1_1_8,2022-05-09T20:28:22.701Z,,,,,,,,,,,,,,,,,54,,,,,,,,,,,,,,854.7380000238481,,response,,,,100,,,,,,,Space,keypress(Space),,,,,,,,-- --- ---- --- ------ ----- ------- ---- of --- ------- --<br>------- ---------- ------ -- ----- -- ----- -- ---- ------<br>--- ----- --- --- ------ -------- ----- --- ------ ----- --<br>----- ----- ---------- --- --- ------ ------ ---- -- ------<br>------- --- ------ ----- --- ---- ------- -- ---- --- --<br>------- ------,243989.30000001192,243988.60000002384,243117.072,243123.30000001192,243133.862,244002.545,,8,of
screen,html.Screen,2_1_1_1_9,2022-05-09T20:28:23.997Z,,,,,,,,,,,,,,,,,54,,,,,,,,,,,,,,1282.655000047671,,response,,,,100,,,,,,,Space,keypress(Space),,,,,,,,-- --- ---- --- ------ ----- ------- ---- -- its ------- --<br>------- ---------- ------ -- ----- -- ----- -- ---- ------<br>--- ----- --- --- ------ -------- ----- --- ------ ----- --<br>----- ----- ---------- --- --- ------ ------ ---- -- ------<br>------- --- ------ ----- --- ---- ------- -- ---- --- --<br>------- ------,245285.80000001192,245285.20000004768,243985.822,243989.5,244002.545,245288.022,,9,its
screen,html.Screen,2_1_1_1_10,2022-05-09T20:28:24.783Z,,,,,,,,,,,,,,,,,54,,,,,,,,,,,,,,782.9780000000028,,response,,,,100,,,,,,,Space,keypress(Space),,,,,,,,-- --- ---- --- ------ ----- ------- ---- -- --- revenue --<br>------- ---------- ------ -- ----- -- ----- -- ---- ------<br>--- ----- --- --- ------ -------- ----- --- ------ ----- --<br>----- ----- ---------- --- --- ------ ------ ---- -- ------<br>------- --- ------ ----- --- ---- ------- -- ---- --- --<br>------- ------,246071.70000004768,246071,245271.39,245285.90000003576,245288.022,246072.899,,10,revenue
screen,html.Screen,2_1_1_1_11,2022-05-09T20:28:25.457Z,,,,,,,,,,,,,,,,,54,,,,,,,,,,,,,,672.6009999999951,,response,,,,100,,,,,,,Space,keypress(Space),,,,,,,,-- --- ---- --- ------ ----- ------- ---- -- --- ------- by<br>------- ---------- ------ -- ----- -- ----- -- ---- ------<br>--- ----- --- --- ------ -------- ----- --- ------ ----- --<br>----- ----- ---------- --- --- ------ ------ ---- -- ------<br>------- --- ------ ----- --- ---- ------- -- ---- --- --<br>------- ------,246746.20000004768,246745.5,246056.258,246071.70000004768,246072.899,246757.618,,11,by
screen,html.Screen,2_1_1_1_12,2022-05-09T20:28:26.782Z,,,,,,,,,,,,,,,,,54,,,,,,,,,,,,,,1312.582000047696,,response,,,,100,,,,,,,Space,keypress(Space),,,,,,,,-- --- ---- --- ------ ----- ------- ---- -- --- ------- --<br>issuing ---------- ------ -- ----- -- ----- -- ---- ------<br>--- ----- --- --- ------ -------- ----- --- ------ ----- --<br>----- ----- ---------- --- --- ------ ------ ---- -- ------<br>------- --- ------ ----- --- ---- ------- -- ---- --- --<br>------- ------,248071,248070.20000004768,246740.957,246746.40000003576,246757.618,248076.851,,12,issuing
screen,html.Screen,2_1_1_1_13,2022-05-09T20:28:27.503Z,,,,,,,,,,,,,,,,,54,,,,,,,,,,,,,,713.9490000119258,,response,,,,100,,,,,,,Space,keypress(Space),,,,,,,,-- --- ---- --- ------ ----- ------- ---- -- --- ------- --<br>------- government ------ -- ----- -- ----- -- ---- ------<br>--- ----- --- --- ------ -------- ----- --- ------ ----- --<br>----- ----- ---------- --- --- ------ ------ ---- -- ------<br>------- --- ------ ----- --- ---- ------- -- ---- --- --<br>------- ------,248791.40000003576,248790.80000001192,248060.241,248071,248076.851,248794.959,,13,government
screen,html.Screen,2_1_1_1_14,2022-05-09T20:28:28.248Z,,,,,,,,,,,,,,,,,54,,,,,,,,,,,,,,741.0409999999974,,response,,,,100,,,,,,,Space,keypress(Space),,,,,,,,-- --- ---- --- ------ ----- ------- ---- -- --- ------- --<br>------- ---------- bonds. -- ----- -- ----- -- ---- ------<br>--- ----- --- --- ------ -------- ----- --- ------ ----- --<br>----- ----- ---------- --- --- ------ ------ ---- -- ------<br>------- --- ------ ----- --- ---- ------- -- ---- --- --<br>------- ------,249536.60000002384,249536,248778.346,248791.70000004768,248794.959,249546.473,,14,bonds.
screen,html.Screen,2_1_1_1_15,2022-05-09T20:28:28.776Z,,,,,,,,,,,,,,,,,54,,,,,,,,,,,,,,517.5270000000019,,response,,,,100,,,,,,,Space,keypress(Space),,,,,,,,-- --- ---- --- ------ ----- ------- ---- -- --- ------- --<br>------- ---------- ------ In ----- -- ----- -- ---- ------<br>--- ----- --- --- ------ -------- ----- --- ------ ----- --<br>----- ----- ---------- --- --- ------ ------ ---- -- ------<br>------- --- ------ ----- --- ---- ------- -- ---- --- --<br>------- ------,250064.90000003576,250064,249529.806,249536.80000001192,249546.473,250080.842,,15,In
screen,html.Screen,2_1_1_1_16,2022-05-09T20:28:29.561Z,,,,,,,,,,,,,,,,,54,,,,,,,,,,,,,,768.3580000476795,,response,,,,100,,,,,,,Space,keypress(Space),,,,,,,,"-- --- ---- --- ------ ----- ------- ---- -- --- ------- --<br>------- ---------- ------ -- 1727, -- ----- -- ---- ------<br>--- ----- --- --- ------ -------- ----- --- ------ ----- --<br>----- ----- ---------- --- --- ------ ------ ---- -- ------<br>------- --- ------ ----- --- ---- ------- -- ---- --- --<br>------- ------",250849.70000004768,250849.20000004768,250064.172,250065,250080.842,250866.098,,16,"1727,"
screen,html.Screen,2_1_1_1_17,2022-05-09T20:28:31.232Z,,,,,,,,,,,,,,,,,54,,,,,,,,,,,,,,1654.5020000238437,,response,,,,100,,,,,,,Space,keypress(Space),,,,,,,,-- --- ---- --- ------ ----- ------- ---- -- --- ------- --<br>------- ---------- ------ -- ----- in ----- -- ---- ------<br>--- ----- --- --- ------ -------- ----- --- ------ ----- --<br>----- ----- ---------- --- --- ------ ------ ---- -- ------<br>------- --- ------ ----- --- ---- ------- -- ---- --- --<br>------- ------,252521.20000004768,252520.60000002384,250849.041,250849.90000003576,250866.098,252535.647,,17,in
screen,html.Screen,2_1_1_1_18,2022-05-09T20:28:31.909Z,,,,,,,,,,,,,,,,,54,,,,,,,,,,,,,,661.3530000000028,,response,,,,100,,,,,,,Space,keypress(Space),,,,,,,,-- --- ---- --- ------ ----- ------- ---- -- --- ------- --<br>------- ---------- ------ -- ----- -- order -- ---- ------<br>--- ----- --- --- ------ -------- ----- --- ------ ----- --<br>----- ----- ---------- --- --- ------ ------ ---- -- ------<br>------- --- ------ ----- --- ---- ------- -- ---- --- --<br>------- ------,253197.70000004768,253197,252519.066,252521.30000001192,252535.647,253203.702,,18,order
screen,html.Screen,2_1_1_1_19,2022-05-09T20:28:32.587Z,,,,,,,,,,,,,,,,,54,,,,,,,,,,,,,,671.8980000238516,,response,,,,100,,,,,,,Space,keypress(Space),,,,,,,,-- --- ---- --- ------ ----- ------- ---- -- --- ------- --<br>------- ---------- ------ -- ----- -- ----- to ---- ------<br>--- ----- --- --- ------ -------- ----- --- ------ ----- --<br>----- ----- ---------- --- --- ------ ------ ---- -- ------<br>------- --- ------ ----- --- ---- ------- -- ---- --- --<br>------- ------,253876.30000001192,253875.60000002384,253187.078,253197.80000001192,253203.702,253888.382,,19,to
screen,html.Screen,2_1_1_1_20,2022-05-09T20:28:33.152Z,,,,,,,,,,,,,,,,,54,,,,,,,,,,,,,,552.1179999999877,,response,,,,100,,,,,,,Space,keypress(Space),,,,,,,,-- --- ---- --- ------ ----- ------- ---- -- --- ------- --<br>------- ---------- ------ -- ----- -- ----- -- save ------<br>--- ----- --- --- ------ -------- ----- --- ------ ----- --<br>----- ----- ---------- --- --- ------ ------ ---- -- ------<br>------- --- ------ ----- --- ---- ------- -- ---- --- --<br>------- ------,254441.10000002384,254440.5,253871.948,253876.40000003576,253888.382,254456.111,,20,save
screen,html.Screen,2_1_1_1_21,2022-05-09T20:28:33.724Z,,,,,,,,,,,,,,,,,54,,,,,,,,,,,,,,556.2890000357584,,response,,,,100,,,,,,,Space,keypress(Space),,,,,,,,"-- --- ---- --- ------ ----- ------- ---- -- --- ------- --<br>------- ---------- ------ -- ----- -- ----- -- ---- money,<br>--- ----- --- --- ------ -------- ----- --- ------ ----- --<br>----- ----- ---------- --- --- ------ ------ ---- -- ------<br>------- --- ------ ----- --- ---- ------- -- ---- --- --<br>------- ------",255013,255012.40000003576,254439.581,254441.30000001192,254456.111,255024.366,,21,"money,"
screen,html.Screen,2_1_1_1_22,2022-05-09T20:28:34.348Z,,,,,,,,,,,,,,,,,54,,,,,,,,,,,,,,612.0340000357537,,response,,,,100,,,,,,,Space,keypress(Space),,,,,,,,-- --- ---- --- ------ ----- ------- ---- -- --- ------- --<br>------- ---------- ------ -- ----- -- ----- -- ---- ------<br>the ----- --- --- ------ -------- ----- --- ------ ----- --<br>----- ----- ---------- --- --- ------ ------ ---- -- ------<br>------- --- ------ ----- --- ---- ------- -- ---- --- --<br>------- ------,255637,255636.40000003576,255007.348,255013.10000002384,255024.366,255641.821,,22,the
screen,html.Screen,2_1_1_1_23,2022-05-09T20:28:34.909Z,,,,,,,,,,,,,,,,,54,,,,,,,,,,,,,,555.3790000476874,,response,,,,100,,,,,,,Space,keypress(Space),,,,,,,,-- --- ---- --- ------ ----- ------- ---- -- --- ------- --<br>------- ---------- ------ -- ----- -- ----- -- ---- ------<br>--- state --- --- ------ -------- ----- --- ------ ----- --<br>----- ----- ---------- --- --- ------ ------ ---- -- ------<br>------- --- ------ ----- --- ---- ------- -- ---- --- --<br>------- ------,256197.70000004768,256197.20000004768,255625.238,255637.20000004768,255641.821,256209.667,,23,state
screen,html.Screen,2_1_1_1_24,2022-05-09T20:28:35.501Z,,,,,,,,,,,,,,,,,54,,,,,,,,,,,,,,579.3330000000133,,response,,,,100,,,,,,,Space,keypress(Space),,,,,,,,-- --- ---- --- ------ ----- ------- ---- -- --- ------- --<br>------- ---------- ------ -- ----- -- ----- -- ---- ------<br>--- ----- cut --- ------ -------- ----- --- ------ ----- --<br>----- ----- ---------- --- --- ------ ------ ---- -- ------<br>------- --- ------ ----- --- ---- ------- -- ---- --- --<br>------- ------,256789.60000002384,256789,256193.007,256197.90000003576,256209.667,256794.163,,24,cut
screen,html.Screen,2_1_1_1_25,2022-05-09T20:28:36.097Z,,,,,,,,,,,,,,,,,54,,,,,,,,,,,,,,590.9370000238414,,response,,,,100,,,,,,,Space,keypress(Space),,,,,,,,-- --- ---- --- ------ ----- ------- ---- -- --- ------- --<br>------- ---------- ------ -- ----- -- ----- -- ---- ------<br>--- ----- --- the ------ -------- ----- --- ------ ----- --<br>----- ----- ---------- --- --- ------ ------ ---- -- ------<br>------- --- ------ ----- --- ---- ------- -- ---- --- --<br>------- ------,257385.70000004768,257385.10000002384,256777.439,256789.80000001192,256794.163,257395.348,,25,the
screen,html.Screen,2_1_1_1_26,2022-05-09T20:28:36.662Z,,,,,,,,,,,,,,,,,54,,,,,,,,,,,,,,554.8520000476856,,response,,,,100,,,,,,,Space,keypress(Space),,,,,,,,-- --- ---- --- ------ ----- ------- ---- -- --- ------- --<br>------- ---------- ------ -- ----- -- ----- -- ---- ------<br>--- ----- --- --- bonds' -------- ----- --- ------ ----- --<br>----- ----- ---------- --- --- ------ ------ ---- -- ------<br>------- --- ------ ----- --- ---- ------- -- ---- --- --<br>------- ------,257950.90000003576,257950.20000004768,257378.712,257385.90000003576,257395.348,257963.556,,26,bonds'
screen,html.Screen,2_1_1_1_27,2022-05-09T20:28:37.297Z,,,,,,,,,,,,,,,,,54,,,,,,,,,,,,,,621.4439999999886,,response,,,,100,,,,,,,Space,keypress(Space),,,,,,,,-- --- ---- --- ------ ----- ------- ---- -- --- ------- --<br>------- ---------- ------ -- ----- -- ----- -- ---- ------<br>--- ----- --- --- ------ interest ----- --- ------ ----- --<br>----- ----- ---------- --- --- ------ ------ ---- -- ------<br>------- --- ------ ----- --- ---- ------- -- ---- --- --<br>------- ------,258585.80000001192,258585,257946.502,257951,257963.556,258597.676,,27,interest
screen,html.Screen,2_1_1_1_28,2022-05-09T20:28:37.911Z,,,,,,,,,,,,,,,,,54,,,,,,,,,,,,,,601.3239999999932,,response,,,,100,,,,,,,Space,keypress(Space),,,,,,,,-- --- ---- --- ------ ----- ------- ---- -- --- ------- --<br>------- ---------- ------ -- ----- -- ----- -- ---- ------<br>--- ----- --- --- ------ -------- rate. --- ------ ----- --<br>----- ----- ---------- --- --- ------ ------ ---- -- ------<br>------- --- ------ ----- --- ---- ------- -- ---- --- --<br>------- ------,259199.70000004768,259199,258581.694,258585.90000003576,258597.676,259215.809,,28,rate.
screen,html.Screen,2_1_1_1_29,2022-05-09T20:28:38.457Z,,,,,,,,,,,,,,,,,54,,,,,,,,,,,,,,529.2910000238335,,response,,,,100,,,,,,,Space,keypress(Space),,,,,,,,-- --- ---- --- ------ ----- ------- ---- -- --- ------- --<br>------- ---------- ------ -- ----- -- ----- -- ---- ------<br>--- ----- --- --- ------ -------- ----- The ------ ----- --<br>----- ----- ---------- --- --- ------ ------ ---- -- ------<br>------- --- ------ ----- --- ---- ------- -- ---- --- --<br>------- ------,259745.60000002384,259745.10000002384,259198.953,259199.80000001192,259215.809,259750.025,,29,The
screen,html.Screen,2_1_1_1_30,2022-05-09T20:28:39.032Z,,,,,,,,,,,,,,,,,54,,,,,,,,,,,,,,570.5750000238477,,response,,,,100,,,,,,,Space,keypress(Space),,,,,,,,-- --- ---- --- ------ ----- ------- ---- -- --- ------- --<br>------- ---------- ------ -- ----- -- ----- -- ---- ------<br>--- ----- --- --- ------ -------- ----- --- market ----- --<br>----- ----- ---------- --- --- ------ ------ ---- -- ------<br>------- --- ------ ----- --- ---- ------- -- ---- --- --<br>------- ------,260321.20000004768,260320.60000002384,259733.696,259745.80000001192,259750.025,260334.885,,30,market
screen,html.Screen,2_1_1_1_31,2022-05-09T20:28:39.620Z,,,,,,,,,,,,,,,,,54,,,,,,,,,,,,,,573.2150000238325,,response,,,,100,,,,,,,Space,keypress(Space),,,,,,,,-- --- ---- --- ------ ----- ------- ---- -- --- ------- --<br>------- ---------- ------ -- ----- -- ----- -- ---- ------<br>--- ----- --- --- ------ -------- ----- --- ------ value --<br>----- ----- ---------- --- --- ------ ------ ---- -- ------<br>------- --- ------ ----- --- ---- ------- -- ---- --- --<br>------- ------,260908.70000004768,260908.10000002384,260317.811,260321.30000001192,260334.885,260918.899,,31,value
screen,html.Screen,2_1_1_1_32,2022-05-09T20:28:40.560Z,,,,,,,,,,,,,,,,,54,,,,,,,,,,,,,,929.401000011916,,response,,,,100,,,,,,,Space,keypress(Space),,,,,,,,-- --- ---- --- ------ ----- ------- ---- -- --- ------- --<br>------- ---------- ------ -- ----- -- ----- -- ---- ------<br>--- ----- --- --- ------ -------- ----- --- ------ ----- of<br>----- ----- ---------- --- --- ------ ------ ---- -- ------<br>------- --- ------ ----- --- ---- ------- -- ---- --- --<br>------- ------,261848.90000003576,261848.30000001192,260902.329,260908.70000004768,260918.899,261854.126,,32,of
screen,html.Screen,2_1_1_1_33,2022-05-09T20:28:41.149Z,,,,,,,,,,,,,,,,,54,,,,,,,,,,,,,,582.9740000238526,,response,,,,100,,,,,,,Space,keypress(Space),,,,,,,,-- --- ---- --- ------ ----- ------- ---- -- --- ------- --<br>------- ---------- ------ -- ----- -- ----- -- ---- ------<br>--- ----- --- --- ------ -------- ----- --- ------ ----- --<br>these ----- ---------- --- --- ------ ------ ---- -- ------<br>------- --- ------ ----- --- ---- ------- -- ---- --- --<br>------- ------,262437.8000000119,262437.10000002384,261837.538,261849.10000002384,261854.126,262438.644,,33,these
screen,html.Screen,2_1_1_1_34,2022-05-09T20:28:41.703Z,,,,,,,,,,,,,,,,,54,,,,,,,,,,,,,,552.6560000119498,,response,,,,100,,,,,,,Space,keypress(Space),,,,,,,,-- --- ---- --- ------ ----- ------- ---- -- --- ------- --<br>------- ---------- ------ -- ----- -- ----- -- ---- ------<br>--- ----- --- --- ------ -------- ----- --- ------ ----- --<br>----- bonds ---------- --- --- ------ ------ ---- -- ------<br>------- --- ------ ----- --- ---- ------- -- ---- --- --<br>------- ------,262992,262991.3000000119,262422.344,262438,262438.644,263006.493,,34,bonds
screen,html.Screen,2_1_1_1_35,2022-05-09T20:28:42.386Z,,,,,,,,,,,,,,,,,54,,,,,,,,,,,,,,667.707000047667,,response,,,,100,,,,,,,Space,keypress(Space),,,,,,,,"-- --- ---- --- ------ ----- ------- ---- -- --- ------- --<br>------- ---------- ------ -- ----- -- ----- -- ---- ------<br>--- ----- --- --- ------ -------- ----- --- ------ ----- --<br>----- ----- plummeted, --- --- ------ ------ ---- -- ------<br>------- --- ------ ----- --- ---- ------- -- ---- --- --<br>------- ------",263674.90000003576,263674.2000000477,262989.822,262992.10000002384,263006.493,263691.134,,35,"plummeted,"
screen,html.Screen,2_1_1_1_36,2022-05-09T20:28:43.016Z,,,,,,,,,,,,,,,,,54,,,,,,,,,,,,,,613.1660000119009,,response,,,,100,,,,,,,Space,keypress(Space),,,,,,,,-- --- ---- --- ------ ----- ------- ---- -- --- ------- --<br>------- ---------- ------ -- ----- -- ----- -- ---- ------<br>--- ----- --- --- ------ -------- ----- --- ------ ----- --<br>----- ----- ---------- and --- ------ ------ ---- -- ------<br>------- --- ------ ----- --- ---- ------- -- ---- --- --<br>------- ------,264304.90000003576,264304.3000000119,263674.394,263675,263691.134,264308.977,,36,and
screen,html.Screen,2_1_1_1_37,2022-05-09T20:28:43.638Z,,,,,,,,,,,,,,,,,54,,,,,,,,,,,,,,617.1230000238284,,response,,,,100,,,,,,,Space,keypress(Space),,,,,,,,-- --- ---- --- ------ ----- ------- ---- -- --- ------- --<br>------- ---------- ------ -- ----- -- ----- -- ---- ------<br>--- ----- --- --- ------ -------- ----- --- ------ ----- --<br>----- ----- ---------- --- the ------ ------ ---- -- ------<br>------- --- ------ ----- --- ---- ------- -- ---- --- --<br>------- ------,264926.90000003576,264926.10000002384,264292.716,264305,264308.977,264944.012,,37,the
screen,html.Screen,2_1_1_1_38,2022-05-09T20:28:44.149Z,,,,,,,,,,,,,,,,,54,,,,,,,,,,,,,,492.6880000476958,,response,,,,100,,,,,,,Space,keypress(Space),,,,,,,,-- --- ---- --- ------ ----- ------- ---- -- --- ------- --<br>------- ---------- ------ -- ----- -- ----- -- ---- ------<br>--- ----- --- --- ------ -------- ----- --- ------ ----- --<br>----- ----- ---------- --- --- market ------ ---- -- ------<br>------- --- ------ ----- --- ---- ------- -- ---- --- --<br>------- ------,265437.40000003576,265436.7000000477,264926.91,264927.10000002384,264944.012,265444.622,,38,market
screen,html.Screen,2_1_1_1_39,2022-05-09T20:28:44.773Z,,,,,,,,,,,,,,,,,54,,,,,,,,,,,,,,616.5780000477098,,response,,,,100,,,,,,,Space,keypress(Space),,,,,,,,-- --- ---- --- ------ ----- ------- ---- -- --- ------- --<br>------- ---------- ------ -- ----- -- ----- -- ---- ------<br>--- ----- --- --- ------ -------- ----- --- ------ ----- --<br>----- ----- ---------- --- --- ------ became ---- -- ------<br>------- --- ------ ----- --- ---- ------- -- ---- --- --<br>------- ------,266061.90000003576,266061.2000000477,265427.966,265437.5,265444.622,266062.454,,39,became
screen,html.Screen,2_1_1_1_40,2022-05-09T20:28:45.426Z,,,,,,,,,,,,,,,,,54,,,,,,,,,,,,,,651.7460000476567,,response,,,,100,,,,,,,Space,keypress(Space),,,,,,,,-- --- ---- --- ------ ----- ------- ---- -- --- ------- --<br>------- ---------- ------ -- ----- -- ----- -- ---- ------<br>--- ----- --- --- ------ -------- ----- --- ------ ----- --<br>----- ----- ---------- --- --- ------ ------ wary -- ------<br>------- --- ------ ----- --- ---- ------- -- ---- --- --<br>------- ------,266714.8000000119,266714.2000000477,266045.982,266062,266062.454,266730.452,,40,wary
screen,html.Screen,2_1_1_1_41,2022-05-09T20:28:45.967Z,,,,,,,,,,,,,,,,,54,,,,,,,,,,,,,,524.5480000000098,,response,,,,100,,,,,,,Space,keypress(Space),,,,,,,,-- --- ---- --- ------ ----- ------- ---- -- --- ------- --<br>------- ---------- ------ -- ----- -- ----- -- ---- ------<br>--- ----- --- --- ------ -------- ----- --- ------ ----- --<br>----- ----- ---------- --- --- ------ ------ ---- of ------<br>------- --- ------ ----- --- ---- ------- -- ---- --- --<br>------- ------,267255.5,267255,266713.791,266714.90000003576,266730.452,267264.884,,41,of
screen,html.Screen,2_1_1_1_42,2022-05-09T20:28:46.548Z,,,,,,,,,,,,,,,,,54,,,,,,,,,,,,,,571.0160000357428,,response,,,,100,,,,,,,Space,keypress(Space),,,,,,,,-- --- ---- --- ------ ----- ------- ---- -- --- ------- --<br>------- ---------- ------ -- ----- -- ----- -- ---- ------<br>--- ----- --- --- ------ -------- ----- --- ------ ----- --<br>----- ----- ---------- --- --- ------ ------ ---- -- French<br>------- --- ------ ----- --- ---- ------- -- ---- --- --<br>------- ------,267836.40000003576,267835.90000003576,267248.244,267255.7000000477,267264.884,267849.388,,42,French
screen,html.Screen,2_1_1_1_43,2022-05-09T20:28:47.158Z,,,,,,,,,,,,,,,,,54,,,,,,,,,,,,,,597.3120000477065,,response,,,,100,,,,,,,Space,keypress(Space),,,,,,,,-- --- ---- --- ------ ----- ------- ---- -- --- ------- --<br>------- ---------- ------ -- ----- -- ----- -- ---- ------<br>--- ----- --- --- ------ -------- ----- --- ------ ----- --<br>----- ----- ---------- --- --- ------ ------ ---- -- ------<br>credit. --- ------ ----- --- ---- ------- -- ---- --- --<br>------- ------,268447.3000000119,268446.7000000477,267832.746,267836.60000002384,267849.388,268450.558,,43,credit.
screen,html.Screen,2_1_1_1_44,2022-05-09T20:28:47.732Z,,,,,,,,,,,,,,,,,54,,,,,,,,,,,,,,569.6420000476646,,response,,,,100,,,,,,,Space,keypress(Space),,,,,,,,-- --- ---- --- ------ ----- ------- ---- -- --- ------- --<br>------- ---------- ------ -- ----- -- ----- -- ---- ------<br>--- ----- --- --- ------ -------- ----- --- ------ ----- --<br>----- ----- ---------- --- --- ------ ------ ---- -- ------<br>------- The ------ ----- --- ---- ------- -- ---- --- --<br>------- ------,269020.60000002384,269020.2000000477,268433.915,268447.40000003576,268450.558,269035.119,,44,The
screen,html.Screen,2_1_1_1_45,2022-05-09T20:28:48.345Z,,,,,,,,,,,,,,,,,54,,,,,,,,,,,,,,597.9810000238358,,response,,,,100,,,,,,,Space,keypress(Space),,,,,,,,-- --- ---- --- ------ ----- ------- ---- -- --- ------- --<br>------- ---------- ------ -- ----- -- ----- -- ---- ------<br>--- ----- --- --- ------ -------- ----- --- ------ ----- --<br>----- ----- ---------- --- --- ------ ------ ---- -- ------<br>------- --- French ----- --- ---- ------- -- ---- --- --<br>------- ------,269633.7000000477,269633.10000002384,269018.296,269020.60000002384,269035.119,269636.213,,45,French
screen,html.Screen,2_1_1_1_46,2022-05-09T20:28:48.929Z,,,,,,,,,,,,,,,,,54,,,,,,,,,,,,,,580.4870000476949,,response,,,,100,,,,,,,Space,keypress(Space),,,,,,,,-- --- ---- --- ------ ----- ------- ---- -- --- ------- --<br>------- ---------- ------ -- ----- -- ----- -- ---- ------<br>--- ----- --- --- ------ -------- ----- --- ------ ----- --<br>----- ----- ---------- --- --- ------ ------ ---- -- ------<br>------- --- ------ state --- ---- ------- -- ---- --- --<br>------- ------,270217.2000000477,270216.7000000477,269619.618,269633.7000000477,269636.213,270220.72,,46,state
screen,html.Screen,2_1_1_1_47,2022-05-09T20:28:49.487Z,,,,,,,,,,,,,,,,,54,,,,,,,,,,,,,,554.7800000000279,,response,,,,100,,,,,,,Space,keypress(Space),,,,,,,,-- --- ---- --- ------ ----- ------- ---- -- --- ------- --<br>------- ---------- ------ -- ----- -- ----- -- ---- ------<br>--- ----- --- --- ------ -------- ----- --- ------ ----- --<br>----- ----- ---------- --- --- ------ ------ ---- -- ------<br>------- --- ------ ----- was ---- ------- -- ---- --- --<br>------- ------,270776.10000002384,270775.5,270204.426,270217.40000003576,270220.72,270788.509,,47,was
screen,html.Screen,2_1_1_1_48,2022-05-09T20:28:50.048Z,,,,,,,,,,,,,,,,,54,,,,,,,,,,,,,,547.2910000119009,,response,,,,100,,,,,,,Space,keypress(Space),,,,,,,,-- --- ---- --- ------ ----- ------- ---- -- --- ------- --<br>------- ---------- ------ -- ----- -- ----- -- ---- ------<br>--- ----- --- --- ------ -------- ----- --- ------ ----- --<br>----- ----- ---------- --- --- ------ ------ ---- -- ------<br>------- --- ------ ----- --- left ------- -- ---- --- --<br>------- ------,271336.40000003576,271335.8000000119,270771.886,270776.2000000477,270788.509,271339.575,,48,left
screen,html.Screen,2_1_1_1_49,2022-05-09T20:28:50.596Z,,,,,,,,,,,,,,,,,54,,,,,,,,,,,,,,544.1250000476721,,response,,,,100,,,,,,,Space,keypress(Space),,,,,,,,-- --- ---- --- ------ ----- ------- ---- -- --- ------- --<br>------- ---------- ------ -- ----- -- ----- -- ---- ------<br>--- ----- --- --- ------ -------- ----- --- ------ ----- --<br>----- ----- ---------- --- --- ------ ------ ---- -- ------<br>------- --- ------ ----- --- ---- without -- ---- --- --<br>------- ------,271884.40000003576,271883.7000000477,271322.961,271336.60000002384,271339.575,271890.711,,49,without
screen,html.Screen,2_1_1_1_50,2022-05-09T20:28:51.097Z,,,,,,,,,,,,,,,,,54,,,,,,,,,,,,,,494.3890000238316,,response,,,,100,,,,,,,Space,keypress(Space),,,,,,,,-- --- ---- --- ------ ----- ------- ---- -- --- ------- --<br>------- ---------- ------ -- ----- -- ----- -- ---- ------<br>--- ----- --- --- ------ -------- ----- --- ------ ----- --<br>----- ----- ---------- --- --- ------ ------ ---- -- ------<br>------- --- ------ ----- --- ---- ------- an ---- --- --<br>------- ------,272385.5,272385.10000002384,271874.406,271884.5,271890.711,272391.628,,50,an
screen,html.Screen,2_1_1_1_51,2022-05-09T20:28:51.591Z,,,,,,,,,,,,,,,,,54,,,,,,,,,,,,,,487.07200004765764,,response,,,,100,,,,,,,Space,keypress(Space),,,,,,,,-- --- ---- --- ------ ----- ------- ---- -- --- ------- --<br>------- ---------- ------ -- ----- -- ----- -- ---- ------<br>--- ----- --- --- ------ -------- ----- --- ------ ----- --<br>----- ----- ---------- --- --- ------ ------ ---- -- ------<br>------- --- ------ ----- --- ---- ------- -- easy --- --<br>------- ------,272879.3000000119,272878.7000000477,272374.934,272385.8000000119,272391.628,272893.083,,51,easy
screen,html.Screen,2_1_1_1_52,2022-05-09T20:28:52.057Z,,,,,,,,,,,,,,,,,54,,,,,,,,,,,,,,452.41700000001583,,response,,,,100,,,,,,,Space,keypress(Space),,,,,,,,-- --- ---- --- ------ ----- ------- ---- -- --- ------- --<br>------- ---------- ------ -- ----- -- ----- -- ---- ------<br>--- ----- --- --- ------ -------- ----- --- ------ ----- --<br>----- ----- ---------- --- --- ------ ------ ---- -- ------<br>------- --- ------ ----- --- ---- ------- -- ---- way --<br>------- ------,273346.10000002384,273345.5,272876.022,272879.5,272893.083,273360.69,,52,way
screen,html.Screen,2_1_1_1_53,2022-05-09T20:28:52.523Z,,,,,,,,,,,,,,,,,54,,,,,,,,,,,,,,450.1100000119186,,response,,,,100,,,,,,,Space,keypress(Space),,,,,,,,-- --- ---- --- ------ ----- ------- ---- -- --- ------- --<br>------- ---------- ------ -- ----- -- ----- -- ---- ------<br>--- ----- --- --- ------ -------- ----- --- ------ ----- --<br>----- ----- ---------- --- --- ------ ------ ---- -- ------<br>------- --- ------ ----- --- ---- ------- -- ---- --- of<br>------- ------,273811.60000002384,273810.8000000119,273343.636,273346.2000000477,273360.69,273827.929,,53,of
screen,html.Screen,2_1_1_1_54,2022-05-09T20:28:53.033Z,,,,,,,,,,,,,,,,,54,,,,,,,,,,,,,,493.47100003575906,,response,,,,100,,,,,,,Space,keypress(Space),,,,,,,,-- --- ---- --- ------ ----- ------- ---- -- --- ------- --<br>------- ---------- ------ -- ----- -- ----- -- ---- ------<br>--- ----- --- --- ------ -------- ----- --- ------ ----- --<br>----- ----- ---------- --- --- ------ ------ ---- -- ------<br>------- --- ------ ----- --- ---- ------- -- ---- --- --<br>raising ------,274321.90000003576,274321.40000003576,273811.185,273811.8000000119,273827.929,274328.816,,54,raising
screen,html.Screen,2_1_1_1_55,2022-05-09T20:28:53.609Z,,,,,,,,,,,,,,,,,54,,,,,,,,,,,,,,568.6840000000084,,response,,,,100,,,,,,,Space,keypress(Space),,,,,,,,-- --- ---- --- ------ ----- ------- ---- -- --- ------- --<br>------- ---------- ------ -- ----- -- ----- -- ---- ------<br>--- ----- --- --- ------ -------- ----- --- ------ ----- --<br>----- ----- ---------- --- --- ------ ------ ---- -- ------<br>------- --- ------ ----- --- ---- ------- -- ---- --- --<br>------- money.,274898,274897.5,274312.183,274322.10000002384,274328.816,274913.32,,55,money.
Item 100,flow.Loop,2_1_1_1,2022-05-09T20:28:53.610Z,,,,,,,,,,,,,,,,,,,,,,,,,,,,,,,39245.26000000001,,completion,,,,,G,,,,,,,,,,,silence,,,,,274898.3000000119,274897.5,235635.633,235636.5,235652.24,274913.32,,,
Question 1,html.Screen,2_1_1_2,2022-05-09T20:28:56.828Z,,,,,,,,,,,,,,,,,,,,,,,,,,,,true,TRUE,,3201.980000011914,,response,,,,100,G,,,,,,TRUE,click #choice-1,,,,silence,,,,,278116.60000002384,278115.3000000119,274896.676,274898.5,274913.32,278119.662,,,
Question 2,html.Screen,2_1_1_3,2022-05-09T20:29:01.452Z,,,,,,,,,,,,,,,,,,,,,,,,,,,,false,FALSE,,4619.738000035752,,response,,,,100,G,,,,,,TRUE,click #choice-1,,,,silence,,,,,282740.60000002384,282739.40000003576,278103.042,278116.7000000477,278119.662,282745.47,,,
Item 100,flow.Sequence,2_1_1,2022-05-09T20:29:01.452Z,,,,,,,,,,,,,,,,,,,,,,,,,,,,,,,57090.312000035774,,completion,,,,,,,,,,,,,,,,,,,,,282740.7000000477,282739.40000003576,225632.484,225645.20000004768,225649.088,282745.47,,,
End of Practice,html.Page,2_1_2,2022-05-09T20:29:07.476Z,,,,,,,,,,,,,,,,,,,,,,,,,,,,,,,6019.430000035791,,form submission,,,,,,,,,,,,,,,,,,,,,288765.2000000477,288764.90000003576,282728.908,282740.8000000119,282745.47,288774.062,,,
Practice,flow.Sequence,2_1,2022-05-09T20:29:07.476Z,,,,,,,,,,,,,,,,,,,,,,,,,,,,,,,123819.38000003577,,completion,,,,,,,,,,,,,,,,,,,,,288765.40000003576,288764.90000003576,164928.922,164933.30000001192,164945.52,288774.062,,,
Trap_instruction,html.Page,2_2_0,2022-05-09T20:29:12.557Z,,,,,,,,,,,,,,,,,,,,,,,,,,,,,,,5071.438000000024,,form submission,,,,,,,,,,,,,,,,,,,,,293845.90000003576,293845.5,288757.512,288765.40000003576,288774.062,293850.833,,,
trap_trial,html.Screen,2_2_1,2022-05-09T20:29:18.067Z,,,,,,,,,,,,,,,,,,,,,,,,,,,,true,1,,5504.767000023858,,response,,,,,,,,,,,1,click #choice-1,,,,,,,,,299356.8000000119,299355.60000002384,293834.207,293846,293850.833,299361.711,,,
end of trap trial,html.Page,2_2_2,2022-05-09T20:29:20.412Z,,,,,,,,,,,,,,,,,,,,,,,,,,,,,,,2339.0890000119107,,form submission,,,,,,,,,,,,,,,,,,,,,301701.10000002384,301700.8000000119,299345.036,299356.90000003576,299361.711,301699.653,,,
Trap 1,flow.Sequence,2_2,2022-05-09T20:29:20.412Z,,,,,,,,,,,,,,,,,,,,,,,,,,,,,,,12926.738000011945,,completion,,,,,,,,,,,,,,,,,,,,,301701.2000000477,301700.8000000119,288757.512,288765.40000003576,288774.062,301699.653,,,
Standby,html.Page,2_3_0,2022-05-09T20:29:28.394Z,,,,,,,,,,,,,,,,,,,,,,,,,,,,,,,7999.239999999991,,timeout,,,,,,,,,,,,,,,,,,,,,309682.90000003576,309682.206,301683.037,301701.3000000119,301699.653,309698.893,,,
Holding screen,html.Screen,2_3_1_0_0,2022-05-09T20:29:35.391Z,,,,,,,,,,,,,,,,,,,,,,,,,,,,,,,6997.271000000008,,timeout,,,,,,,,,,,,,,,,,,,,,316680.10000002384,316679.423,309682.206,309683.10000002384,309698.893,316696.164,,,
screen,html.Screen,2_3_1_0_1_0,2022-05-09T20:29:36.820Z,,,,,,,,,,,,,,,,,51,,,,,,,,,,,,,,1412.436000023852,,response,,,,13,G,,,,,,Space,keypress(Space),,,,instrumental,,,,American -------- --- --- ---- --- --- ------ -- --------<br>---- --------- --- ------- ------------ ---------- ---------<br>--- ---------- ------- ---------- ------- -- -------- ----<br>---- --- ------ ----- ------ -- ---- --- ----- -- - -------<br>-------- -- --- --- -- ----- ----------- ----- -----------<br>---- --- ---------- --- ---- --- -- ----------,318109.3000000119,318108.60000002384,316679.423,316680.3000000119,316696.164,318115.517,,0,American
screen,html.Screen,2_3_1_0_1_1,2022-05-09T20:29:37.643Z,,,,,,,,,,,,,,,,,51,,,,,,,,,,,,,,815.9830000000075,,response,,,,13,G,,,,,,Space,keypress(Space),,,,instrumental,,,,-------- industry --- --- ---- --- --- ------ -- --------<br>---- --------- --- ------- ------------ ---------- ---------<br>--- ---------- ------- ---------- ------- -- -------- ----<br>---- --- ------ ----- ------ -- ---- --- ----- -- - -------<br>-------- -- --- --- -- ----- ----------- ----- -----------<br>---- --- ---------- --- ---- --- -- ----------,318932.2000000477,318931.5,318098.919,318109.5,318115.517,318933.857,,1,industry
screen,html.Screen,2_3_1_0_1_2,2022-05-09T20:29:38.220Z,,,,,,,,,,,,,,,,,51,,,,,,,,,,,,,,574.9430000119028,,response,,,,13,G,,,,,,Space,keypress(Space),,,,instrumental,,,,-------- -------- may --- ---- --- --- ------ -- --------<br>---- --------- --- ------- ------------ ---------- ---------<br>--- ---------- ------- ---------- ------- -- -------- ----<br>---- --- ------ ----- ------ -- ---- --- ----- -- - -------<br>-------- -- --- --- -- ----- ----------- ----- -----------<br>---- --- ---------- --- ---- --- -- ----------,319509.40000003576,319508.8000000119,318917.178,318932.40000003576,318933.857,319518.304,,2,may
screen,html.Screen,2_3_1_0_1_3,2022-05-09T20:29:38.825Z,,,,,,,,,,,,,,,,,51,,,,,,,,,,,,,,595.2960000238381,,response,,,,13,G,,,,,,Space,keypress(Space),,,,instrumental,,,,-------- -------- --- not ---- --- --- ------ -- --------<br>---- --------- --- ------- ------------ ---------- ---------<br>--- ---------- ------- ---------- ------- -- -------- ----<br>---- --- ------ ----- ------ -- ---- --- ----- -- - -------<br>-------- -- --- --- -- ----- ----------- ----- -----------<br>---- --- ---------- --- ---- --- -- ----------,320114.10000002384,320113.60000002384,319501.788,319509.40000003576,319518.304,320119.496,,3,not
screen,html.Screen,2_3_1_0_1_4,2022-05-09T20:29:39.401Z,,,,,,,,,,,,,,,,,51,,,,,,,,,,,,,,570.5040000000154,,response,,,,13,G,,,,,,Space,keypress(Space),,,,instrumental,,,,-------- -------- --- --- know --- --- ------ -- --------<br>---- --------- --- ------- ------------ ---------- ---------<br>--- ---------- ------- ---------- ------- -- -------- ----<br>---- --- ------ ----- ------ -- ---- --- ----- -- - -------<br>-------- -- --- --- -- ----- ----------- ----- -----------<br>---- --- ---------- --- ---- --- -- ----------,320690.7000000477,320690,320102.815,320114.40000003576,320119.496,320704.413,,4,know
screen,html.Screen,2_3_1_0_1_5,2022-05-09T20:29:40.019Z,,,,,,,,,,,,,,,,,51,,,,,,,,,,,,,,603.2870000476833,,response,,,,13,G,,,,,,Space,keypress(Space),,,,instrumental,,,,"-------- -------- --- --- ---- it, --- ------ -- --------<br>---- --------- --- ------- ------------ ---------- ---------<br>--- ---------- ------- ---------- ------- -- -------- ----<br>---- --- ------ ----- ------ -- ---- --- ----- -- - -------<br>-------- -- --- --- -- ----- ----------- ----- -----------<br>---- --- ---------- --- ---- --- -- ----------",321308.3000000119,321307.7000000477,320687.494,320690.8000000119,320704.413,321321.934,,5,"it,"
screen,html.Screen,2_3_1_0_1_6,2022-05-09T20:29:40.669Z,,,,,,,,,,,,,,,,,51,,,,,,,,,,,,,,636.1660000238335,,response,,,,13,G,,,,,,Space,keypress(Space),,,,instrumental,,,,-------- -------- --- --- ---- --- but ------ -- --------<br>---- --------- --- ------- ------------ ---------- ---------<br>--- ---------- ------- ---------- ------- -- -------- ----<br>---- --- ------ ----- ------ -- ---- --- ----- -- - -------<br>-------- -- --- --- -- ----- ----------- ----- -----------<br>---- --- ---------- --- ---- --- -- ----------,321958.7000000477,321958.10000002384,321305.268,321308.40000003576,321321.934,321973.6,,6,but
screen,html.Screen,2_3_1_0_1_7,2022-05-09T20:29:41.232Z,,,,,,,,,,,,,,,,,51,,,,,,,,,,,,,,547.3000000357861,,response,,,,13,G,,,,,,Space,keypress(Space),,,,instrumental,,,,-------- -------- --- --- ---- --- --- debate -- --------<br>---- --------- --- ------- ------------ ---------- ---------<br>--- ---------- ------- ---------- ------- -- -------- ----<br>---- --- ------ ----- ------ -- ---- --- ----- -- - -------<br>-------- -- --- --- -- ----- ----------- ----- -----------<br>---- --- ---------- --- ---- --- -- ----------,322521.60000002384,322520.90000003576,321956.885,321958.90000003576,321973.6,322524.286,,7,debate
screen,html.Screen,2_3_1_0_1_8,2022-05-09T20:29:41.767Z,,,,,,,,,,,,,,,,,51,,,,,,,,,,,,,,531.9140000476618,,response,,,,13,G,,,,,,Space,keypress(Space),,,,instrumental,,,,-------- -------- --- --- ---- --- --- ------ in --------<br>---- --------- --- ------- ------------ ---------- ---------<br>--- ---------- ------- ---------- ------- -- -------- ----<br>---- --- ------ ----- ------ -- ---- --- ----- -- - -------<br>-------- -- --- --- -- ----- ----------- ----- -----------<br>---- --- ---------- --- ---- --- -- ----------,323056.90000003576,323056.2000000477,322507.658,322521.7000000477,322524.286,323058.743,,8,in
screen,html.Screen,2_3_1_0_1_9,2022-05-09T20:29:42.332Z,,,,,,,,,,,,,,,,,51,,,,,,,,,,,,,,561.657000035746,,response,,,,13,G,,,,,,Space,keypress(Space),,,,instrumental,,,,-------- -------- --- --- ---- --- --- ------ -- Congress<br>---- --------- --- ------- ------------ ---------- ---------<br>--- ---------- ------- ---------- ------- -- -------- ----<br>---- --- ------ ----- ------ -- ---- --- ----- -- - -------<br>-------- -- --- --- -- ----- ----------- ----- -----------<br>---- --- ---------- --- ---- --- -- ----------,323621.10000002384,323620.40000003576,323042.043,323057,323058.743,323626.442,,9,Congress
screen,html.Screen,2_3_1_0_1_10,2022-05-09T20:29:42.913Z,,,,,,,,,,,,,,,,,51,,,,,,,,,,,,,,574.7580000477028,,response,,,,13,G,,,,,,Space,keypress(Space),,,,instrumental,,,,-------- -------- --- --- ---- --- --- ------ -- --------<br>over --------- --- ------- ------------ ---------- ---------<br>--- ---------- ------- ---------- ------- -- -------- ----<br>---- --- ------ ----- ------ -- ---- --- ----- -- - -------<br>-------- -- --- --- -- ----- ----------- ----- -----------<br>---- --- ---------- --- ---- --- -- ----------,324201.90000003576,324201.2000000477,323609.838,323621.2000000477,323626.442,324210.985,,10,over
screen,html.Screen,2_3_1_0_1_11,2022-05-09T20:29:43.711Z,,,,,,,,,,,,,,,,,51,,,,,,,,,,,,,,789.1150000238558,,response,,,,13,G,,,,,,Space,keypress(Space),,,,instrumental,,,,-------- -------- --- --- ---- --- --- ------ -- --------<br>---- reforming --- ------- ------------ ---------- ---------<br>--- ---------- ------- ---------- ------- -- -------- ----<br>---- --- ------ ----- ------ -- ---- --- ----- -- - -------<br>-------- -- --- --- -- ----- ----------- ----- -----------<br>---- --- ---------- --- ---- --- -- ----------,325000.8000000119,325000.10000002384,324194.322,324202.10000002384,324210.985,325012.522,,11,reforming
screen,html.Screen,2_3_1_0_1_12,2022-05-09T20:29:44.191Z,,,,,,,,,,,,,,,,,51,,,,,,,,,,,,,,467.3780000357656,,response,,,,13,G,,,,,,Space,keypress(Space),,,,instrumental,,,,-------- -------- --- --- ---- --- --- ------ -- --------<br>---- --------- the ------- ------------ ---------- ---------<br>--- ---------- ------- ---------- ------- -- -------- ----<br>---- --- ------ ----- ------ -- ---- --- ----- -- - -------<br>-------- -- --- --- -- ----- ----------- ----- -----------<br>---- --- ---------- --- ---- --- -- ----------,325480.5,325479.90000003576,324996.241,325000.90000003576,325012.522,325497.039,,12,the
screen,html.Screen,2_3_1_0_1_13,2022-05-09T20:29:44.775Z,,,,,,,,,,,,,,,,,51,,,,,,,,,,,,,,566.5610000238521,,response,,,,13,G,,,,,,Space,keypress(Space),,,,instrumental,,,,-------- -------- --- --- ---- --- --- ------ -- --------<br>---- --------- --- federal ------------ ---------- ---------<br>--- ---------- ------- ---------- ------- -- -------- ----<br>---- --- ------ ----- ------ -- ---- --- ----- -- - -------<br>-------- -- --- --- -- ----- ----------- ----- -----------<br>---- --- ---------- --- ---- --- -- ----------,326064.3000000119,326063.60000002384,325480.122,325480.7000000477,325497.039,326081.336,,13,federal
screen,html.Screen,2_3_1_0_1_14,2022-05-09T20:29:45.371Z,,,,,,,,,,,,,,,,,51,,,,,,,,,,,,,,578.1639999999898,,response,,,,13,G,,,,,,Space,keypress(Space),,,,instrumental,,,,-------- -------- --- --- ---- --- --- ------ -- --------<br>---- --------- --- ------- government's ---------- ---------<br>--- ---------- ------- ---------- ------- -- -------- ----<br>---- --- ------ ----- ------ -- ---- --- ----- -- - -------<br>-------- -- --- --- -- ----- ----------- ----- -----------<br>---- --- ---------- --- ---- --- -- ----------,326660.10000002384,326659.5,326064.638,326064.5,326081.336,326665.828,,14,government's
screen,html.Screen,2_3_1_0_1_15,2022-05-09T20:29:46.019Z,,,,,,,,,,,,,,,,,51,,,,,,,,,,,,,,641.6720000000205,,response,,,,13,G,,,,,,Space,keypress(Space),,,,instrumental,,,,-------- -------- --- --- ---- --- --- ------ -- --------<br>---- --------- --- ------- ------------ regulatory ---------<br>--- ---------- ------- ---------- ------- -- -------- ----<br>---- --- ------ ----- ------ -- ---- --- ----- -- - -------<br>-------- -- --- --- -- ----- ----------- ----- -----------<br>---- --- ---------- --- ---- --- -- ----------,327307.90000003576,327307.5,326649.182,326660.2000000477,326665.828,327317.091,,15,regulatory
screen,html.Screen,2_3_1_0_1_16,2022-05-09T20:29:46.643Z,,,,,,,,,,,,,,,,,51,,,,,,,,,,,,,,614.1090000476688,,response,,,,13,G,,,,,,Space,keypress(Space),,,,instrumental,,,,-------- -------- --- --- ---- --- --- ------ -- --------<br>---- --------- --- ------- ------------ ---------- apparatus<br>--- ---------- ------- ---------- ------- -- -------- ----<br>---- --- ------ ----- ------ -- ---- --- ----- -- - -------<br>-------- -- --- --- -- ----- ----------- ----- -----------<br>---- --- ---------- --- ---- --- -- ----------,327932,327931.2000000477,327300.437,327308.10000002384,327317.091,327934.997,,16,apparatus
screen,html.Screen,2_3_1_0_1_17,2022-05-09T20:29:47.312Z,,,,,,,,,,,,,,,,,51,,,,,,,,,,,,,,665.9030000357889,,response,,,,13,G,,,,,,Space,keypress(Space),,,,instrumental,,,,-------- -------- --- --- ---- --- --- ------ -- --------<br>---- --------- --- ------- ------------ ---------- ---------<br>may ---------- ------- ---------- ------- -- -------- ----<br>---- --- ------ ----- ------ -- ---- --- ----- -- - -------<br>-------- -- --- --- -- ----- ----------- ----- -----------<br>---- --- ---------- --- ---- --- -- ----------,328601.60000002384,328600.90000003576,327918.31,327932.10000002384,327934.997,328602.973,,17,may
screen,html.Screen,2_3_1_0_1_18,2022-05-09T20:29:48.501Z,,,,,,,,,,,,,,,,,51,,,,,,,,,,,,,,1186.7270000476856,,response,,,,13,G,,,,,,Space,keypress(Space),,,,instrumental,,,,-------- -------- --- --- ---- --- --- ------ -- --------<br>---- --------- --- ------- ------------ ---------- ---------<br>--- profoundly ------- ---------- ------- -- -------- ----<br>---- --- ------ ----- ------ -- ---- --- ----- -- - -------<br>-------- -- --- --- -- ----- ----------- ----- -----------<br>---- --- ---------- --- ---- --- -- ----------,329790.3000000119,329789.7000000477,328586.351,328601.7000000477,328602.973,329805.761,,18,profoundly
screen,html.Screen,2_3_1_0_1_19,2022-05-09T20:29:49.165Z,,,,,,,,,,,,,,,,,51,,,,,,,,,,,,,,648.3390000238433,,response,,,,13,G,,,,,,Space,keypress(Space),,,,instrumental,,,,-------- -------- --- --- ---- --- --- ------ -- --------<br>---- --------- --- ------- ------------ ---------- ---------<br>--- ---------- improve ---------- ------- -- -------- ----<br>---- --- ------ ----- ------ -- ---- --- ----- -- - -------<br>-------- -- --- --- -- ----- ----------- ----- -----------<br>---- --- ---------- --- ---- --- -- ----------,330454.8000000119,330454.10000002384,329788.718,329790.60000002384,329805.761,330456.719,,19,improve
screen,html.Screen,2_3_1_0_1_20,2022-05-09T20:29:49.855Z,,,,,,,,,,,,,,,,,51,,,,,,,,,,,,,,686.981000047701,,response,,,,13,G,,,,,,Space,keypress(Space),,,,instrumental,,,,-------- -------- --- --- ---- --- --- ------ -- --------<br>---- --------- --- ------- ------------ ---------- ---------<br>--- ---------- ------- companies' ------- -- -------- ----<br>---- --- ------ ----- ------ -- ---- --- ----- -- - -------<br>-------- -- --- --- -- ----- ----------- ----- -----------<br>---- --- ---------- --- ---- --- -- ----------,331144.3000000119,331143.7000000477,330440.021,330455,330456.719,331158.022,,20,companies'
screen,html.Screen,2_3_1_0_1_21,2022-05-09T20:29:50.453Z,,,,,,,,,,,,,,,,,51,,,,,,,,,,,,,,583.9780000000028,,response,,,,13,G,,,,,,Space,keypress(Space),,,,instrumental,,,,-------- -------- --- --- ---- --- --- ------ -- --------<br>---- --------- --- ------- ------------ ---------- ---------<br>--- ---------- ------- ---------- ability -- -------- ----<br>---- --- ------ ----- ------ -- ---- --- ----- -- - -------<br>-------- -- --- --- -- ----- ----------- ----- -----------<br>---- --- ---------- --- ---- --- -- ----------,331742.60000002384,331742,331141.397,331144.5,331158.022,331759.23,,21,ability
screen,html.Screen,2_3_1_0_1_22,2022-05-09T20:29:50.969Z,,,,,,,,,,,,,,,,,51,,,,,,,,,,,,,,497.97000004770234,,response,,,,13,G,,,,,,Space,keypress(Space),,,,instrumental,,,,-------- -------- --- --- ---- --- --- ------ -- --------<br>---- --------- --- ------- ------------ ---------- ---------<br>--- ---------- ------- ---------- ------- to -------- ----<br>---- --- ------ ----- ------ -- ---- --- ----- -- - -------<br>-------- -- --- --- -- ----- ----------- ----- -----------<br>---- --- ---------- --- ---- --- -- ----------,332257.90000003576,332257.2000000477,331742.539,331742.8000000119,331759.23,332260.229,,22,to
screen,html.Screen,2_3_1_0_1_23,2022-05-09T20:29:51.576Z,,,,,,,,,,,,,,,,,51,,,,,,,,,,,,,,604.3710000238498,,response,,,,13,G,,,,,,Space,keypress(Space),,,,instrumental,,,,-------- -------- --- --- ---- --- --- ------ -- --------<br>---- --------- --- ------- ------------ ---------- ---------<br>--- ---------- ------- ---------- ------- -- survive. ----<br>---- --- ------ ----- ------ -- ---- --- ----- -- - -------<br>-------- -- --- --- -- ----- ----------- ----- -----------<br>---- --- ---------- --- ---- --- -- ----------,332865.2000000477,332864.60000002384,332243.657,332258,332260.229,332878.131,,23,survive.
screen,html.Screen,2_3_1_0_1_24,2022-05-09T20:29:52.255Z,,,,,,,,,,,,,,,,,51,,,,,,,,,,,,,,665.369000000006,,response,,,,13,G,,,,,,Space,keypress(Space),,,,instrumental,,,,-------- -------- --- --- ---- --- --- ------ -- --------<br>---- --------- --- ------- ------------ ---------- ---------<br>--- ---------- ------- ---------- ------- -- -------- This<br>---- --- ------ ----- ------ -- ---- --- ----- -- - -------<br>-------- -- --- --- -- ----- ----------- ----- -----------<br>---- --- ---------- --- ---- --- -- ----------,333544.10000002384,333543.5,332861.516,332865.40000003576,332878.131,333546.137,,24,This
screen,html.Screen,2_3_1_0_1_25,2022-05-09T20:29:52.923Z,,,,,,,,,,,,,,,,,51,,,,,,,,,,,,,,665.5630000476958,,response,,,,13,G,,,,,,Space,keypress(Space),,,,instrumental,,,,-------- -------- --- --- ---- --- --- ------ -- --------<br>---- --------- --- ------- ------------ ---------- ---------<br>--- ---------- ------- ---------- ------- -- -------- ----<br>week --- ------ ----- ------ -- ---- --- ----- -- - -------<br>-------- -- --- --- -- ----- ----------- ----- -----------<br>---- --- ---------- --- ---- --- -- ----------,334212.5,334211.7000000477,333529.459,333544.40000003576,333546.137,334214.13,,25,week
screen,html.Screen,2_3_1_0_1_26,2022-05-09T20:29:53.423Z,,,,,,,,,,,,,,,,,51,,,,,,,,,,,,,,497.36999999999534,,response,,,,13,G,,,,,,Space,keypress(Space),,,,instrumental,,,,-------- -------- --- --- ---- --- --- ------ -- --------<br>---- --------- --- ------- ------------ ---------- ---------<br>--- ---------- ------- ---------- ------- -- -------- ----<br>---- the ------ ----- ------ -- ---- --- ----- -- - -------<br>-------- -- --- --- -- ----- ----------- ----- -----------<br>---- --- ---------- --- ---- --- -- ----------,334712.2000000477,334711.5,334197.45,334212.60000002384,334214.13,334731.762,,26,the
screen,html.Screen,2_3_1_0_1_27,2022-05-09T20:29:54.131Z,,,,,,,,,,,,,,,,,51,,,,,,,,,,,,,,687.7380000000121,,response,,,,13,G,,,,,,Space,keypress(Space),,,,instrumental,,,,-------- -------- --- --- ---- --- --- ------ -- --------<br>---- --------- --- ------- ------------ ---------- ---------<br>--- ---------- ------- ---------- ------- -- -------- ----<br>---- --- Senate ----- ------ -- ---- --- ----- -- - -------<br>-------- -- --- --- -- ----- ----------- ----- -----------<br>---- --- ---------- --- ---- --- -- ----------,335420.2000000477,335419.5,334698.402,334712.3000000119,334731.762,335433.176,,27,Senate
screen,html.Screen,2_3_1_0_1_28,2022-05-09T20:29:54.801Z,,,,,,,,,,,,,,,,,51,,,,,,,,,,,,,,656.8240000000224,,response,,,,13,G,,,,,,Space,keypress(Space),,,,instrumental,,,,-------- -------- --- --- ---- --- --- ------ -- --------<br>---- --------- --- ------- ------------ ---------- ---------<br>--- ---------- ------- ---------- ------- -- -------- ----<br>---- --- ------ seems ------ -- ---- --- ----- -- - -------<br>-------- -- --- --- -- ----- ----------- ----- -----------<br>---- --- ---------- --- ---- --- -- ----------,336090.5,336090,335416.505,335420.3000000119,335433.176,336101.137,,28,seems
screen,html.Screen,2_3_1_0_1_29,2022-05-09T20:29:55.496Z,,,,,,,,,,,,,,,,,51,,,,,,,,,,,,,,683.3630000000121,,response,,,,13,G,,,,,,Space,keypress(Space),,,,instrumental,,,,-------- -------- --- --- ---- --- --- ------ -- --------<br>---- --------- --- ------- ------------ ---------- ---------<br>--- ---------- ------- ---------- ------- -- -------- ----<br>---- --- ------ ----- poised -- ---- --- ----- -- - -------<br>-------- -- --- --- -- ----- ----------- ----- -----------<br>---- --- ---------- --- ---- --- -- ----------,336785.2000000477,336784.5,336084.882,336090.7000000477,336101.137,336802.539,,29,poised
screen,html.Screen,2_3_1_0_1_30,2022-05-09T20:29:56.108Z,,,,,,,,,,,,,,,,,51,,,,,,,,,,,,,,593.9610000000102,,response,,,,13,G,,,,,,Space,keypress(Space),,,,instrumental,,,,-------- -------- --- --- ---- --- --- ------ -- --------<br>---- --------- --- ------- ------------ ---------- ---------<br>--- ---------- ------- ---------- ------- -- -------- ----<br>---- --- ------ ----- ------ to ---- --- ----- -- - -------<br>-------- -- --- --- -- ----- ----------- ----- -----------<br>---- --- ---------- --- ---- --- -- ----------,337397.10000002384,337396.5,336785.818,336785.40000003576,336802.539,337403.71,,30,to
screen,html.Screen,2_3_1_0_1_31,2022-05-09T20:29:56.796Z,,,,,,,,,,,,,,,,,51,,,,,,,,,,,,,,680.9900000476628,,response,,,,13,G,,,,,,Space,keypress(Space),,,,instrumental,,,,-------- -------- --- --- ---- --- --- ------ -- --------<br>---- --------- --- ------- ------------ ---------- ---------<br>--- ---------- ------- ---------- ------- -- -------- ----<br>---- --- ------ ----- ------ -- join --- ----- -- - -------<br>-------- -- --- --- -- ----- ----------- ----- -----------<br>---- --- ---------- --- ---- --- -- ----------,338085.3000000119,338084.7000000477,337387.092,337397.2000000477,337403.71,338088.437,,31,join
screen,html.Screen,2_3_1_0_1_32,2022-05-09T20:29:57.479Z,,,,,,,,,,,,,,,,,51,,,,,,,,,,,,,,678.7630000477075,,response,,,,13,G,,,,,,Space,keypress(Space),,,,instrumental,,,,-------- -------- --- --- ---- --- --- ------ -- --------<br>---- --------- --- ------- ------------ ---------- ---------<br>--- ---------- ------- ---------- ------- -- -------- ----<br>---- --- ------ ----- ------ -- ---- the ----- -- - -------<br>-------- -- --- --- -- ----- ----------- ----- -----------<br>---- --- ---------- --- ---- --- -- ----------,338767.8000000119,338767.2000000477,338071.783,338085.5,338088.437,338773.12,,32,the
screen,html.Screen,2_3_1_0_1_33,2022-05-09T20:29:58.027Z,,,,,,,,,,,,,,,,,51,,,,,,,,,,,,,,542.8800000000047,,response,,,,13,G,,,,,,Space,keypress(Space),,,,instrumental,,,,-------- -------- --- --- ---- --- --- ------ -- --------<br>---- --------- --- ------- ------------ ---------- ---------<br>--- ---------- ------- ---------- ------- -- -------- ----<br>---- --- ------ ----- ------ -- ---- --- House -- - -------<br>-------- -- --- --- -- ----- ----------- ----- -----------<br>---- --- ---------- --- ---- --- -- ----------,339316.5,339316,338756.828,338768.10000002384,338773.12,339324.2,,33,House
screen,html.Screen,2_3_1_0_1_34,2022-05-09T20:29:58.621Z,,,,,,,,,,,,,,,,,51,,,,,,,,,,,,,,585.0000000476721,,response,,,,13,G,,,,,,Space,keypress(Space),,,,instrumental,,,,-------- -------- --- --- ---- --- --- ------ -- --------<br>---- --------- --- ------- ------------ ---------- ---------<br>--- ---------- ------- ---------- ------- -- -------- ----<br>---- --- ------ ----- ------ -- ---- --- ----- in - -------<br>-------- -- --- --- -- ----- ----------- ----- -----------<br>---- --- ---------- --- ---- --- -- ----------,339909.90000003576,339909.2000000477,339307.559,339316.60000002384,339324.2,339925.374,,34,in
screen,html.Screen,2_3_1_0_1_35,2022-05-09T20:29:59.168Z,,,,,,,,,,,,,,,,,51,,,,,,,,,,,,,,530.9260000119102,,response,,,,13,G,,,,,,Space,keypress(Space),,,,instrumental,,,,-------- -------- --- --- ---- --- --- ------ -- --------<br>---- --------- --- ------- ------------ ---------- ---------<br>--- ---------- ------- ---------- ------- -- -------- ----<br>---- --- ------ ----- ------ -- ---- --- ----- -- a -------<br>-------- -- --- --- -- ----- ----------- ----- -----------<br>---- --- ---------- --- ---- --- -- ----------,340457.10000002384,340456.3000000119,339908.717,339910.10000002384,339925.374,340459.797,,35,a
screen,html.Screen,2_3_1_0_1_36,2022-05-09T20:29:59.819Z,,,,,,,,,,,,,,,,,51,,,,,,,,,,,,,,648.0030000119004,,response,,,,13,G,,,,,,Space,keypress(Space),,,,instrumental,,,,-------- -------- --- --- ---- --- --- ------ -- --------<br>---- --------- --- ------- ------------ ---------- ---------<br>--- ---------- ------- ---------- ------- -- -------- ----<br>---- --- ------ ----- ------ -- ---- --- ----- -- - massive<br>-------- -- --- --- -- ----- ----------- ----- -----------<br>---- --- ---------- --- ---- --- -- ----------,341108.5,341107.8000000119,340443.108,340457.2000000477,340459.797,341111.08,,36,massive
screen,html.Screen,2_3_1_0_1_37,2022-05-09T20:30:00.448Z,,,,,,,,,,,,,,,,,51,,,,,,,,,,,,,,625.6200000476674,,response,,,,13,G,,,,,,Space,keypress(Space),,,,instrumental,,,,-------- -------- --- --- ---- --- --- ------ -- --------<br>---- --------- --- ------- ------------ ---------- ---------<br>--- ---------- ------- ---------- ------- -- -------- ----<br>---- --- ------ ----- ------ -- ---- --- ----- -- - -------<br>overhaul -- --- --- -- ----- ----------- ----- -----------<br>---- --- ---------- --- ---- --- -- ----------,341737.3000000119,341736.7000000477,341094.438,341108.60000002384,341111.08,341745.699,,37,overhaul
screen,html.Screen,2_3_1_0_1_38,2022-05-09T20:30:01.074Z,,,,,,,,,,,,,,,,,51,,,,,,,,,,,,,,617.5010000476614,,response,,,,13,G,,,,,,Space,keypress(Space),,,,instrumental,,,,-------- -------- --- --- ---- --- --- ------ -- --------<br>---- --------- --- ------- ------------ ---------- ---------<br>--- ---------- ------- ---------- ------- -- -------- ----<br>---- --- ------ ----- ------ -- ---- --- ----- -- - -------<br>-------- of --- --- -- ----- ----------- ----- -----------<br>---- --- ---------- --- ---- --- -- ----------,342363.7000000477,342363.2000000477,341729.049,341737.5,341745.699,342380.232,,38,of
