sender,sender_type,sender_id,timestamp,meta,,Blues,Classical,Country,Dance,Electronic,Folk,Gospel,Hip-Hop,Jazz,Latin,Musical/Film,New-age,Pop,Prolific_id,Provo_ID,R&B,Rap,Reggae,Religious,Rock,Soul,Swing,Traditional,age,artist_name,correct,correctResponse,distraction,duration,education,ended_on,familiarity,gender,headphone_check_performance,item,list,music_frequency,offensiveness,pleasantness,position_correct,preference,response,response_action,snippet_file,song_name,song_rating,sound,stimulus_1,stimulus_2,stimulus_3,text,time_commit,time_end,time_render,time_run,time_show,time_switch,url,word,word_ID
Prolific ID,html.Form,0,2022-05-09T12:42:00.940Z,"{""labjs_version"":""20.2.2"",""labjs_build"":{""flavor"":""production"",""commit"":""a25486e0c714a0ae2ce03ff94b7bb6896854dcfa""},""location"":""https://run.pavlovia.org/mvasilev/prolific3_music_f/"",""userAgent"":""Mozilla/5.0 (Windows NT 10.0; Win64; x64; rv:100.0) Gecko/20100101 Firefox/100.0"",""platform"":""Win32"",""language"":""en-GB"",""locale"":""en-GB"",""timeZone"":""Europe/London"",""timezoneOffset"":-60,""screen_width"":1536,""screen_height"":864,""scroll_width"":1536,""scroll_height"":664,""window_innerWidth"":1536,""window_innerHeight"":712,""devicePixelRatio"":1.25}",,,,,,,,,,,,,,,59feed1da383a100011b3eaa,,,,,,,,,,,,,,,11056.119999999999,,form submission,,,,,,,,,,,,,,,,,,,,,28048,28046,15981.52,15981,16989.88,28055.5,{},,
Introduction,html.Screen,1_0,2022-05-09T12:42:04.093Z,,,,,,,,,,,,,,,,,,,,,,,,,,,,,,,3135.5,,response,,,,,,,,,,,continue,click button,,,,,,,,,31201,31191,28041.16,28051,28055.5,31205.48,,,
Volume calibration,html.Screen,1_1,2022-05-09T12:42:11.193Z,,,,,,,,,,,,,,,,,,,,,,,,,,,,,,,7080.52,,response,,,,,,,,,,,continue,click button,,,,,,,,,38300,38286,31199.62,31201,31205.48,38305.38,,,
Task instructions,html.Screen,1_2,2022-05-09T12:42:13.291Z,,,,,,,,,,,,,,,,,,,,,,,,,,,,,,,2088.6200000000026,,response,,,,,,,,,,,continue,click button,,,,,,,,,40398,40394,38299.62,38301,38305.38,40405.36,,,
Sounds,html.Screen,1_3_0_0,2022-05-09T12:42:17.532Z,,,,,,,,,,,,,,,,,,,,,,,,,,,,,,,4250,,timeout,,,,,,,,,1,,,,,,,,S,I,O,,44640,44638.7,40397.38,40399,40405.36,44655.36,,,
Judgement,html.Screen,1_3_0_1,2022-05-09T12:42:18.392Z,,,,,,,,,,,,,,,,,,,,,,,,,,,,true,1,,833.6399999999994,,response,,,,,,,,,1,,1,click #choice-1,,,,,S,I,O,,45500,45489,44638.7,44640,44655.36,45505.34,,,
Trial,flow.Sequence,1_3_0,2022-05-09T12:42:18.394Z,,,,,,,,,,,,,,,,,,,,,,,,,,,,,,,5083.639999999999,,completion,,,,,,,,,1,,,,,,,,S,I,O,,45501,45489,40397.38,40399,40405.36,45505.34,,,
Sounds,html.Screen,1_3_1_0,2022-05-09T12:42:22.632Z,,,,,,,,,,,,,,,,,,,,,,,,,,,,,,,4249.980000000003,,timeout,,,,,,,,,2,,,,,,,,I,S,O,,49739,49738.66,45499.28,45502,45505.34,49755.32,,,
Judgement,html.Screen,1_3_1_1,2022-05-09T12:42:23.199Z,,,,,,,,,,,,,,,,,,,,,,,,,,,,true,2,,546.6800000000003,,response,,,,,,,,,2,,2,click #choice-2,,,,,I,S,O,,50306,50302,49738.66,49740,49755.32,50321.96,,,
Trial,flow.Sequence,1_3_1,2022-05-09T12:42:23.199Z,,,,,,,,,,,,,,,,,,,,,,,,,,,,,,,4796.6600000000035,,completion,,,,,,,,,2,,,,,,,,I,S,O,,50307,50302,45499.28,45501,45505.34,50321.96,,,
Sounds,html.Screen,1_3_2_0,2022-05-09T12:42:27.449Z,,,,,,,,,,,,,,,,,,,,,,,,,,,,,,,4249.959999999999,,timeout,,,,,,,,,3,,,,,,,,O,I,S,,54556,54555.24,50305.34,50307,50321.96,54571.92,,,
Judgement,html.Screen,1_3_2_1,2022-05-09T12:42:28.167Z,,,,,,,,,,,,,,,,,,,,,,,,,,,,true,3,,697.0800000000017,,response,,,,,,,,,3,,3,click #choice-3,,,,,O,I,S,,55274,55269,54555.24,54557,54571.92,55288.66,,,
Trial,flow.Sequence,1_3_2,2022-05-09T12:42:28.167Z,,,,,,,,,,,,,,,,,,,,,,,,,,,,,,,4947.040000000001,,completion,,,,,,,,,3,,,,,,,,O,I,S,,55274,55269,50305.34,50307,50321.96,55288.66,,,
Sounds,html.Screen,1_3_3_0,2022-05-09T12:42:32.414Z,,,,,,,,,,,,,,,,,,,,,,,,,,,,,,,4249.919999999998,,timeout,,,,,,,,,1,,,,,,,,S,O,I,,59522,59521.9,55273.78,55274,55288.66,59538.58,,,
Judgement,html.Screen,1_3_3_1,2022-05-09T12:42:32.910Z,,,,,,,,,,,,,,,,,,,,,,,,,,,,true,1,,465.41999999999825,,response,,,,,,,,,1,,1,click #choice-1,,,,,S,O,I,,60017,60004,59521.9,59522,59538.58,60021.9,,,
Trial,flow.Sequence,1_3_3,2022-05-09T12:42:32.910Z,,,,,,,,,,,,,,,,,,,,,,,,,,,,,,,4715.3399999999965,,completion,,,,,,,,,1,,,,,,,,S,O,I,,60018,60004,55273.78,55274,55288.66,60021.9,,,
Sounds,html.Screen,1_3_4_0,2022-05-09T12:42:37.149Z,,,,,,,,,,,,,,,,,,,,,,,,,,,,,,,4249.959999999999,,timeout,,,,,,,,,3,,,,,,,,I,O,S,,64256,64255.18,60017,60018,60021.9,64271.86,,,
Judgement,html.Screen,1_3_4_1,2022-05-09T12:42:37.655Z,,,,,,,,,,,,,,,,,,,,,,,,,,,,true,3,,482.1399999999994,,response,,,,,,,,,3,,3,click #choice-3,,,,,I,O,S,,64762,64754,64255.18,64256,64271.86,64772.18,,,
Trial,flow.Sequence,1_3_4,2022-05-09T12:42:37.655Z,,,,,,,,,,,,,,,,,,,,,,,,,,,,,,,4732.0999999999985,,completion,,,,,,,,,3,,,,,,,,I,O,S,,64762,64754,60017,60018,60021.9,64772.18,,,
Sounds,html.Screen,1_3_5_0,2022-05-09T12:42:41.899Z,,,,,,,,,,,,,,,,,,,,,,,,,,,,,,,4249.5999999999985,,timeout,,,,,,,,,2,,,,,,,,O,S,I,,69006,69005.12,64762.06,64762,64772.18,69021.78,,,
Judgement,html.Screen,1_3_5_1,2022-05-09T12:42:44.083Z,,,,,,,,,,,,,,,,,,,,,,,,,,,,true,2,,2155.220000000001,,response,,,,,,,,,2,,2,click #choice-2,,,,,O,S,I,,71190,71177,69005.12,69006,69021.78,71205.12,,,
Trial,flow.Sequence,1_3_5,2022-05-09T12:42:44.083Z,,,,,,,,,,,,,,,,,,,,,,,,,,,,,,,6404.82,,completion,,,,,,,,,2,,,,,,,,O,S,I,,71191,71177,64762.06,64762,64772.18,71205.12,,,
Task,flow.Loop,1_3,2022-05-09T12:42:44.083Z,,,,,,,,,,,,,,,,,,,,,,,,,,,,,,,30771.64,,completion,,,1,,,,,,,,,,,,,,,,,,71191,71177,40397.38,40399,40405.36,71205.12,,,
Trap,html.Screen,1_4,2022-05-09T12:42:44.085Z,,,,,,,,,,,,,,,,,,,,,,,,,,,,,,,NaN,,skipped,,,,,,,,,,,,,,,,,,,,,71193,71177,,71193,,71205.12,,,
Thanks,html.Screen,1_5,2022-05-09T12:42:51.055Z,,,,,,,,,,,,,,,,,,,,,,,,,,,,,,,6939.880000000005,,response,,,,,,,,,,,continue,click button,,,,,,,,,78163,78145,71189.44,71193,71205.12,79705.1,,,
Headphone screening,flow.Sequence,1,2022-05-09T12:42:51.056Z,,,,,,,,,,,,,,,,,,,,,,,,,,,,,,,50089.5,,completion,,,,,,,,,,,,,,,,,,,,,78164,78145,28041.16,28050,28055.5,79705.1,,,
Instructions,html.Page,2_0,2022-05-09T12:43:18.394Z,,,,,,,,,,,,,,,,,,,,,,,,,,,,,,,25794.899999999994,,form submission,,,,,,,,,,,,,,,,,,,,,105502,105500,79688.44,79688,79705.1,105504.84,,,
Holding screen,html.Screen,2_1_0_0,2022-05-09T12:43:28.381Z,,,,,,,,,,,,,,,,,,,,,,,,,,,,,,,9999.900000000009,,timeout,,,,,,,,,,,,,,,,,,,,,115489,115488.06,105497.06,105502,105504.84,115504.74,,,
screen,html.Screen,2_1_0_1_0,2022-05-09T12:43:29.368Z,,,,,,,,,,,,,,,,,53,,,,,,,,,,,,,,968.2599999999948,,response,,,,99,,,,,,,Space,keypress(Space),,,,,,,,When -- ----- -- ------ - ------- --- ----------<br>------------- ------ ------ ---- ---- ------- ----- -- ----<br>-------- ------- -- ---------- --- - --- ----- ----- ----<br>---- --- --- ----- --- ---- ---- ------- ----- ---- -------<br>--- --- -- ----- -- --- ---- -- --- ---- -- ------ ------<br>--- ----- -- ----,116476,116473,115488.06,115489,115504.74,116476.18,,0,When
screen,html.Screen,2_1_0_1_1,2022-05-09T12:43:29.927Z,,,,,,,,,,,,,,,,,53,,,,,,,,,,,,,,542.820000000007,,response,,,,99,,,,,,,Space,keypress(Space),,,,,,,,---- it ----- -- ------ - ------- --- ----------<br>------------- ------ ------ ---- ---- ------- ----- -- ----<br>-------- ------- -- ---------- --- - --- ----- ----- ----<br>---- --- --- ----- --- ---- ---- ------- ----- ---- -------<br>--- --- -- ----- -- --- ---- -- --- ---- -- ------ ------<br>--- ----- -- ----,117035,117019,116475.92,116476,116476.18,117035.6,,1,it
screen,html.Screen,2_1_0_1_2,2022-05-09T12:43:30.559Z,,,,,,,,,,,,,,,,,53,,,,,,,,,,,,,,624.3999999999942,,response,,,,99,,,,,,,Space,keypress(Space),,,,,,,,---- -- comes -- ------ - ------- --- ----------<br>------------- ------ ------ ---- ---- ------- ----- -- ----<br>-------- ------- -- ---------- --- - --- ----- ----- ----<br>---- --- --- ----- --- ---- ---- ------- ----- ---- -------<br>--- --- -- ----- -- --- ---- -- --- ---- -- ------ ------<br>--- ----- -- ----,117667,117660,117035.48,117035,117035.6,117667.72,,2,comes
screen,html.Screen,2_1_0_1_3,2022-05-09T12:43:31.113Z,,,,,,,,,,,,,,,,,53,,,,,,,,,,,,,,540.2799999999988,,response,,,,99,,,,,,,Space,keypress(Space),,,,,,,,---- -- ----- to ------ - ------- --- ----------<br>------------- ------ ------ ---- ---- ------- ----- -- ----<br>-------- ------- -- ---------- --- - --- ----- ----- ----<br>---- --- --- ----- --- ---- ---- ------- ----- ---- -------<br>--- --- -- ----- -- --- ---- -- --- ---- -- ------ ------<br>--- ----- -- ----,118220,118208,117667.56,117667,117667.72,118221.34,,3,to
screen,html.Screen,2_1_0_1_4,2022-05-09T12:43:31.666Z,,,,,,,,,,,,,,,,,53,,,,,,,,,,,,,,548.6600000000035,,response,,,,99,,,,,,,Space,keypress(Space),,,,,,,,---- -- ----- -- having - ------- --- ----------<br>------------- ------ ------ ---- ---- ------- ----- -- ----<br>-------- ------- -- ---------- --- - --- ----- ----- ----<br>---- --- --- ----- --- ---- ---- ------- ----- ---- -------<br>--- --- -- ----- -- --- ---- -- --- ---- -- ------ ------<br>--- ----- -- ----,118774,118770,118221.16,118221,118221.34,118774.2,,4,having
screen,html.Screen,2_1_0_1_5,2022-05-09T12:43:32.143Z,,,,,,,,,,,,,,,,,53,,,,,,,,,,,,,,463.8000000000029,,response,,,,99,,,,,,,Space,keypress(Space),,,,,,,,---- -- ----- -- ------ a ------- --- ----------<br>------------- ------ ------ ---- ---- ------- ----- -- ----<br>-------- ------- -- ---------- --- - --- ----- ----- ----<br>---- --- --- ----- --- ---- ---- ------- ----- ---- -------<br>--- --- -- ----- -- --- ---- -- --- ---- -- ------ ------<br>--- ----- -- ----,119250,119238,118774.04,118774,118774.2,119250.94,,5,a
screen,html.Screen,2_1_0_1_6,2022-05-09T12:43:32.707Z,,,,,,,,,,,,,,,,,53,,,,,,,,,,,,,,551.0599999999977,,response,,,,99,,,,,,,Space,keypress(Space),,,,,,,,---- -- ----- -- ------ - lasting --- ----------<br>------------- ------ ------ ---- ---- ------- ----- -- ----<br>-------- ------- -- ---------- --- - --- ----- ----- ----<br>---- --- --- ----- --- ---- ---- ------- ----- ---- -------<br>--- --- -- ----- -- --- ---- -- --- ---- -- ------ ------<br>--- ----- -- ----,119814,119802,119250.72,119251,119250.94,119821.38,,6,lasting
screen,html.Screen,2_1_0_1_7,2022-05-09T12:43:33.287Z,,,,,,,,,,,,,,,,,53,,,,,,,,,,,,,,557.6199999999953,,response,,,,99,,,,,,,Space,keypress(Space),,,,,,,,---- -- ----- -- ------ - ------- and ----------<br>------------- ------ ------ ---- ---- ------- ----- -- ----<br>-------- ------- -- ---------- --- - --- ----- ----- ----<br>---- --- --- ----- --- ---- ---- ------- ----- ---- -------<br>--- --- -- ----- -- --- ---- -- --- ---- -- ------ ------<br>--- ----- -- ----,120395,120379,119815.32,119815,119821.38,120395.08,,7,and
screen,html.Screen,2_1_0_1_8,2022-05-09T12:43:33.907Z,,,,,,,,,,,,,,,,,53,,,,,,,,,,,,,,608.9199999999983,,response,,,,99,,,,,,,Space,keypress(Space),,,,,,,,---- -- ----- -- ------ - ------- --- fulfilling<br>------------- ------ ------ ---- ---- ------- ----- -- ----<br>-------- ------- -- ---------- --- - --- ----- ----- ----<br>---- --- --- ----- --- ---- ---- ------- ----- ---- -------<br>--- --- -- ----- -- --- ---- -- --- ---- -- ------ ------<br>--- ----- -- ----,121015,121004,120394.96,120395,120395.08,121015.08,,8,fulfilling
screen,html.Screen,2_1_0_1_9,2022-05-09T12:43:34.504Z,,,,,,,,,,,,,,,,,53,,,,,,,,,,,,,,582.9199999999983,,response,,,,99,,,,,,,Space,keypress(Space),,,,,,,,"---- -- ----- -- ------ - ------- --- ----------<br>relationship, ------ ------ ---- ---- ------- ----- -- ----<br>-------- ------- -- ---------- --- - --- ----- ----- ----<br>---- --- --- ----- --- ---- ---- ------- ----- ---- -------<br>--- --- -- ----- -- --- ---- -- --- ---- -- ------ ------<br>--- ----- -- ----",121611,121598,121014.94,121015,121015.08,121611.34,,9,"relationship,"
screen,html.Screen,2_1_0_1_10,2022-05-09T12:43:35.109Z,,,,,,,,,,,,,,,,,53,,,,,,,,,,,,,,595.6600000000035,,response,,,,99,,,,,,,Space,keypress(Space),,,,,,,,---- -- ----- -- ------ - ------- --- ----------<br>------------- common ------ ---- ---- ------- ----- -- ----<br>-------- ------- -- ---------- --- - --- ----- ----- ----<br>---- --- --- ----- --- ---- ---- ------- ----- ---- -------<br>--- --- -- ----- -- --- ---- -- --- ---- -- ------ ------<br>--- ----- -- ----,122216,122207,121611.18,121611,121611.34,122217.04,,10,common
screen,html.Screen,2_1_0_1_11,2022-05-09T12:43:35.689Z,,,,,,,,,,,,,,,,,53,,,,,,,,,,,,,,567.9600000000064,,response,,,,99,,,,,,,Space,keypress(Space),,,,,,,,---- -- ----- -- ------ - ------- --- ----------<br>------------- ------ wisdom ---- ---- ------- ----- -- ----<br>-------- ------- -- ---------- --- - --- ----- ----- ----<br>---- --- --- ----- --- ---- ---- ------- ----- ---- -------<br>--- --- -- ----- -- --- ---- -- --- ---- -- ------ ------<br>--- ----- -- ----,122797,122785,122216.8,122216,122217.04,122797.04,,11,wisdom
screen,html.Screen,2_1_0_1_12,2022-05-09T12:43:36.249Z,,,,,,,,,,,,,,,,,53,,,,,,,,,,,,,,549.9600000000064,,response,,,,99,,,,,,,Space,keypress(Space),,,,,,,,---- -- ----- -- ------ - ------- --- ----------<br>------------- ------ ------ says ---- ------- ----- -- ----<br>-------- ------- -- ---------- --- - --- ----- ----- ----<br>---- --- --- ----- --- ---- ---- ------- ----- ---- -------<br>--- --- -- ----- -- --- ---- -- --- ---- -- ------ ------<br>--- ----- -- ----,123356,123347,122796.9,122797,122797.04,123357.06,,12,says
screen,html.Screen,2_1_0_1_13,2022-05-09T12:43:36.783Z,,,,,,,,,,,,,,,,,53,,,,,,,,,,,,,,521.9400000000023,,response,,,,99,,,,,,,Space,keypress(Space),,,,,,,,---- -- ----- -- ------ - ------- --- ----------<br>------------- ------ ------ ---- that ------- ----- -- ----<br>-------- ------- -- ---------- --- - --- ----- ----- ----<br>---- --- --- ----- --- ---- ---- ------- ----- ---- -------<br>--- --- -- ----- -- --- ---- -- --- ---- -- ------ ------<br>--- ----- -- ----,123891,123879,123356.88,123357,123357.06,123891.16,,13,that
screen,html.Screen,2_1_0_1_14,2022-05-09T12:43:37.343Z,,,,,,,,,,,,,,,,,53,,,,,,,,,,,,,,549.8399999999965,,response,,,,99,,,,,,,Space,keypress(Space),,,,,,,,---- -- ----- -- ------ - ------- --- ----------<br>------------- ------ ------ ---- ---- feeling ----- -- ----<br>-------- ------- -- ---------- --- - --- ----- ----- ----<br>---- --- --- ----- --- ---- ---- ------- ----- ---- -------<br>--- --- -- ----- -- --- ---- -- --- ---- -- ------ ------<br>--- ----- -- ----,124451,124441,123891.04,123891,123891.16,124451.44,,14,feeling
screen,html.Screen,2_1_0_1_15,2022-05-09T12:43:37.866Z,,,,,,,,,,,,,,,,,53,,,,,,,,,,,,,,505.5599999999977,,response,,,,99,,,,,,,Space,keypress(Space),,,,,,,,---- -- ----- -- ------ - ------- --- ----------<br>------------- ------ ------ ---- ---- ------- close -- ----<br>-------- ------- -- ---------- --- - --- ----- ----- ----<br>---- --- --- ----- --- ---- ---- ------- ----- ---- -------<br>--- --- -- ----- -- --- ---- -- --- ---- -- ------ ------<br>--- ----- -- ----,124973,124957,124451.3,124451,124451.44,124973.86,,15,close
screen,html.Screen,2_1_0_1_16,2022-05-09T12:43:38.420Z,,,,,,,,,,,,,,,,,53,,,,,,,,,,,,,,545.1399999999994,,response,,,,99,,,,,,,Space,keypress(Space),,,,,,,,---- -- ----- -- ------ - ------- --- ----------<br>------------- ------ ------ ---- ---- ------- ----- to ----<br>-------- ------- -- ---------- --- - --- ----- ----- ----<br>---- --- --- ----- --- ---- ---- ------- ----- ---- -------<br>--- --- -- ----- -- --- ---- -- --- ---- -- ------ ------<br>--- ----- -- ----,125528,125519,124973.72,124974,124973.86,125528.34,,16,to
screen,html.Screen,2_1_0_1_17,2022-05-09T12:43:38.974Z,,,,,,,,,,,,,,,,,53,,,,,,,,,,,,,,538.6600000000035,,response,,,,99,,,,,,,Space,keypress(Space),,,,,,,,---- -- ----- -- ------ - ------- --- ----------<br>------------- ------ ------ ---- ---- ------- ----- -- your<br>-------- ------- -- ---------- --- - --- ----- ----- ----<br>---- --- --- ----- --- ---- ---- ------- ----- ---- -------<br>--- --- -- ----- -- --- ---- -- --- ---- -- ------ ------<br>--- ----- -- ----,126082,126067,125528.2,125529,125528.34,126082.32,,17,your
screen,html.Screen,2_1_0_1_18,2022-05-09T12:43:39.565Z,,,,,,,,,,,,,,,,,53,,,,,,,,,,,,,,577.679999999993,,response,,,,99,,,,,,,Space,keypress(Space),,,,,,,,---- -- ----- -- ------ - ------- --- ----------<br>------------- ------ ------ ---- ---- ------- ----- -- ----<br>romantic ------- -- ---------- --- - --- ----- ----- ----<br>---- --- --- ----- --- ---- ---- ------- ----- ---- -------<br>--- --- -- ----- -- --- ---- -- --- ---- -- ------ ------<br>--- ----- -- ----,126672,126660,126082.14,126082,126082.32,126672.98,,18,romantic
screen,html.Screen,2_1_0_1_19,2022-05-09T12:43:40.119Z,,,,,,,,,,,,,,,,,53,,,,,,,,,,,,,,534.0200000000041,,response,,,,99,,,,,,,Space,keypress(Space),,,,,,,,---- -- ----- -- ------ - ------- --- ----------<br>------------- ------ ------ ---- ---- ------- ----- -- ----<br>-------- partner -- ---------- --- - --- ----- ----- ----<br>---- --- --- ----- --- ---- ---- ------- ----- ---- -------<br>--- --- -- ----- -- --- ---- -- --- ---- -- ------ ------<br>--- ----- -- ----,127227,127207,126672.8,126673,126672.98,127226.92,,19,partner
screen,html.Screen,2_1_0_1_20,2022-05-09T12:43:40.644Z,,,,,,,,,,,,,,,,,53,,,,,,,,,,,,,,512.0800000000017,,response,,,,99,,,,,,,Space,keypress(Space),,,,,,,,---- -- ----- -- ------ - ------- --- ----------<br>------------- ------ ------ ---- ---- ------- ----- -- ----<br>-------- ------- is ---------- --- - --- ----- ----- ----<br>---- --- --- ----- --- ---- ---- ------- ----- ---- -------<br>--- --- -- ----- -- --- ---- -- --- ---- -- ------ ------<br>--- ----- -- ----,127752,127739,127226.78,127227,127226.92,127752.7,,20,is
screen,html.Screen,2_1_0_1_21,2022-05-09T12:43:41.234Z,,,,,,,,,,,,,,,,,53,,,,,,,,,,,,,,579.3000000000029,,response,,,,99,,,,,,,Space,keypress(Space),,,,,,,,---- -- ----- -- ------ - ------- --- ----------<br>------------- ------ ------ ---- ---- ------- ----- -- ----<br>-------- ------- -- paramount. --- - --- ----- ----- ----<br>---- --- --- ----- --- ---- ---- ------- ----- ---- -------<br>--- --- -- ----- -- --- ---- -- --- ---- -- ------ ------<br>--- ----- -- ----,128342,128332,127752.58,127753,127752.7,128342.78,,21,paramount.
screen,html.Screen,2_1_0_1_22,2022-05-09T12:43:41.786Z,,,,,,,,,,,,,,,,,53,,,,,,,,,,,,,,537.2200000000012,,response,,,,99,,,,,,,Space,keypress(Space),,,,,,,,---- -- ----- -- ------ - ------- --- ----------<br>------------- ------ ------ ---- ---- ------- ----- -- ----<br>-------- ------- -- ---------- But - --- ----- ----- ----<br>---- --- --- ----- --- ---- ---- ------- ----- ---- -------<br>--- --- -- ----- -- --- ---- -- --- ---- -- ------ ------<br>--- ----- -- ----,128894,128880,128342.62,128342,128342.78,128894.4,,22,But
screen,html.Screen,2_1_0_1_23,2022-05-09T12:43:42.299Z,,,,,,,,,,,,,,,,,53,,,,,,,,,,,,,,499.6000000000058,,response,,,,99,,,,,,,Space,keypress(Space),,,,,,,,---- -- ----- -- ------ - ------- --- ----------<br>------------- ------ ------ ---- ---- ------- ----- -- ----<br>-------- ------- -- ---------- --- a --- ----- ----- ----<br>---- --- --- ----- --- ---- ---- ------- ----- ---- -------<br>--- --- -- ----- -- --- ---- -- --- ---- -- ------ ------<br>--- ----- -- ----,129406,129394,128894.26,128894,128894.4,129406.92,,23,a
screen,html.Screen,2_1_0_1_24,2022-05-09T12:43:42.811Z,,,,,,,,,,,,,,,,,53,,,,,,,,,,,,,,487.08000000000175,,response,,,,99,,,,,,,Space,keypress(Space),,,,,,,,---- -- ----- -- ------ - ------- --- ----------<br>------------- ------ ------ ---- ---- ------- ----- -- ----<br>-------- ------- -- ---------- --- - new ----- ----- ----<br>---- --- --- ----- --- ---- ---- ------- ----- ---- -------<br>--- --- -- ----- -- --- ---- -- --- ---- -- ------ ------<br>--- ----- -- ----,129918,129894,129406.76,129407,129406.92,129918.72,,24,new
screen,html.Screen,2_1_0_1_25,2022-05-09T12:43:43.366Z,,,,,,,,,,,,,,,,,53,,,,,,,,,,,,,,538.2799999999988,,response,,,,99,,,,,,,Space,keypress(Space),,,,,,,,---- -- ----- -- ------ - ------- --- ----------<br>------------- ------ ------ ---- ---- ------- ----- -- ----<br>-------- ------- -- ---------- --- - --- study ----- ----<br>---- --- --- ----- --- ---- ---- ------- ----- ---- -------<br>--- --- -- ----- -- --- ---- -- --- ---- -- ------ ------<br>--- ----- -- ----,130474,130457,129918.56,129919,129918.72,130473.64,,25,study
screen,html.Screen,2_1_0_1_26,2022-05-09T12:43:43.847Z,,,,,,,,,,,,,,,,,53,,,,,,,,,,,,,,467.3600000000006,,response,,,,99,,,,,,,Space,keypress(Space),,,,,,,,---- -- ----- -- ------ - ------- --- ----------<br>------------- ------ ------ ---- ---- ------- ----- -- ----<br>-------- ------- -- ---------- --- - --- ----- finds ----<br>---- --- --- ----- --- ---- ---- ------- ----- ---- -------<br>--- --- -- ----- -- --- ---- -- --- ---- -- ------ ------<br>--- ----- -- ----,130955,130941,130473.52,130474,130473.64,130955.84,,26,finds
screen,html.Screen,2_1_0_1_27,2022-05-09T12:43:44.366Z,,,,,,,,,,,,,,,,,53,,,,,,,,,,,,,,501.1600000000035,,response,,,,99,,,,,,,Space,keypress(Space),,,,,,,,---- -- ----- -- ------ - ------- --- ----------<br>------------- ------ ------ ---- ---- ------- ----- -- ----<br>-------- ------- -- ---------- --- - --- ----- ----- that<br>---- --- --- ----- --- ---- ---- ------- ----- ---- -------<br>--- --- -- ----- -- --- ---- -- --- ---- -- ------ ------<br>--- ----- -- ----,131474,131457,130955.68,130955,130955.84,131474,,27,that
screen,html.Screen,2_1_0_1_28,2022-05-09T12:43:44.896Z,,,,,,,,,,,,,,,,,53,,,,,,,,,,,,,,514,,response,,,,99,,,,,,,Space,keypress(Space),,,,,,,,---- -- ----- -- ------ - ------- --- ----------<br>------------- ------ ------ ---- ---- ------- ----- -- ----<br>-------- ------- -- ---------- --- - --- ----- ----- ----<br>it's --- --- ----- --- ---- ---- ------- ----- ---- -------<br>--- --- -- ----- -- --- ---- -- --- ---- -- ------ ------<br>--- ----- -- ----,132003,131988,131473.78,131474,131474,132004.14,,28,it's
screen,html.Screen,2_1_0_1_29,2022-05-09T12:43:45.422Z,,,,,,,,,,,,,,,,,53,,,,,,,,,,,,,,514.859999999986,,response,,,,99,,,,,,,Space,keypress(Space),,,,,,,,---- -- ----- -- ------ - ------- --- ----------<br>------------- ------ ------ ---- ---- ------- ----- -- ----<br>-------- ------- -- ---------- --- - --- ----- ----- ----<br>---- not --- ----- --- ---- ---- ------- ----- ---- -------<br>--- --- -- ----- -- --- ---- -- --- ---- -- ------ ------<br>--- ----- -- ----,132530,132519,132003.94,132003,132004.14,132529.98,,29,not
screen,html.Screen,2_1_0_1_30,2022-05-09T12:43:45.915Z,,,,,,,,,,,,,,,,,53,,,,,,,,,,,,,,474.0199999999895,,response,,,,99,,,,,,,Space,keypress(Space),,,,,,,,---- -- ----- -- ------ - ------- --- ----------<br>------------- ------ ------ ---- ---- ------- ----- -- ----<br>-------- ------- -- ---------- --- - --- ----- ----- ----<br>---- --- how ----- --- ---- ---- ------- ----- ---- -------<br>--- --- -- ----- -- --- ---- -- --- ---- -- ------ ------<br>--- ----- -- ----,133023,133004,132529.82,132530,132529.98,133023.8,,30,how
screen,html.Screen,2_1_0_1_31,2022-05-09T12:43:46.472Z,,,,,,,,,,,,,,,,,53,,,,,,,,,,,,,,542.2000000000116,,response,,,,99,,,,,,,Space,keypress(Space),,,,,,,,---- -- ----- -- ------ - ------- --- ----------<br>------------- ------ ------ ---- ---- ------- ----- -- ----<br>-------- ------- -- ---------- --- - --- ----- ----- ----<br>---- --- --- close --- ---- ---- ------- ----- ---- -------<br>--- --- -- ----- -- --- ---- -- --- ---- -- ------ ------<br>--- ----- -- ----,133580,133566,133023.56,133024,133023.8,133579.9,,31,close
screen,html.Screen,2_1_0_1_32,2022-05-09T12:43:46.972Z,,,,,,,,,,,,,,,,,53,,,,,,,,,,,,,,486.1000000000058,,response,,,,99,,,,,,,Space,keypress(Space),,,,,,,,---- -- ----- -- ------ - ------- --- ----------<br>------------- ------ ------ ---- ---- ------- ----- -- ----<br>-------- ------- -- ---------- --- - --- ----- ----- ----<br>---- --- --- ----- you ---- ---- ------- ----- ---- -------<br>--- --- -- ----- -- --- ---- -- --- ---- -- ------ ------<br>--- ----- -- ----,134081,134066,133579.68,133580,133579.9,134080.72,,32,you
screen,html.Screen,2_1_0_1_33,2022-05-09T12:43:47.478Z,,,,,,,,,,,,,,,,,53,,,,,,,,,,,,,,486.27999999999884,,response,,,,99,,,,,,,Space,keypress(Space),,,,,,,,---- -- ----- -- ------ - ------- --- ----------<br>------------- ------ ------ ---- ---- ------- ----- -- ----<br>-------- ------- -- ---------- --- - --- ----- ----- ----<br>---- --- --- ----- --- feel ---- ------- ----- ---- -------<br>--- --- -- ----- -- --- ---- -- --- ---- -- ------ ------<br>--- ----- -- ----,134585,134567,134080.58,134081,134080.72,134585.56,,33,feel
screen,html.Screen,2_1_0_1_34,2022-05-09T12:43:47.984Z,,,,,,,,,,,,,,,,,53,,,,,,,,,,,,,,496.4400000000023,,response,,,,99,,,,,,,Space,keypress(Space),,,,,,,,---- -- ----- -- ------ - ------- --- ----------<br>------------- ------ ------ ---- ---- ------- ----- -- ----<br>-------- ------- -- ---------- --- - --- ----- ----- ----<br>---- --- --- ----- --- ---- that ------- ----- ---- -------<br>--- --- -- ----- -- --- ---- -- --- ---- -- ------ ------<br>--- ----- -- ----,135091,135082,134585.42,134585,134585.56,135091.82,,34,that
screen,html.Screen,2_1_0_1_35,2022-05-09T12:43:48.475Z,,,,,,,,,,,,,,,,,53,,,,,,,,,,,,,,474.179999999993,,response,,,,99,,,,,,,Space,keypress(Space),,,,,,,,---- -- ----- -- ------ - ------- --- ----------<br>------------- ------ ------ ---- ---- ------- ----- -- ----<br>-------- ------- -- ---------- --- - --- ----- ----- ----<br>---- --- --- ----- --- ---- ---- matters ----- ---- -------<br>--- --- -- ----- -- --- ---- -- --- ---- -- ------ ------<br>--- ----- -- ----,135583,135566,135091.66,135091,135091.82,135582.78,,35,matters
screen,html.Screen,2_1_0_1_36,2022-05-09T12:43:49.029Z,,,,,,,,,,,,,,,,,53,,,,,,,,,,,,,,531.2200000000012,,response,,,,99,,,,,,,Space,keypress(Space),,,,,,,,"---- -- ----- -- ------ - ------- --- ----------<br>------------- ------ ------ ---- ---- ------- ----- -- ----<br>-------- ------- -- ---------- --- - --- ----- ----- ----<br>---- --- --- ----- --- ---- ---- ------- most, ---- -------<br>--- --- -- ----- -- --- ---- -- --- ---- -- ------ ------<br>--- ----- -- ----",136136,136114,135582.66,135583,135582.78,136136.62,,36,"most,"
screen,html.Screen,2_1_0_1_37,2022-05-09T12:43:49.589Z,,,,,,,,,,,,,,,,,53,,,,,,,,,,,,,,554.3800000000047,,response,,,,99,,,,,,,Space,keypress(Space),,,,,,,,---- -- ----- -- ------ - ------- --- ----------<br>------------- ------ ------ ---- ---- ------- ----- -- ----<br>-------- ------- -- ---------- --- - --- ----- ----- ----<br>---- --- --- ----- --- ---- ---- ------- ----- it's -------<br>--- --- -- ----- -- --- ---- -- --- ---- -- ------ ------<br>--- ----- -- ----,136697,136691,136136.48,136137,136136.62,136697.42,,37,it's
screen,html.Screen,2_1_0_1_38,2022-05-09T12:43:50.246Z,,,,,,,,,,,,,,,,,53,,,,,,,,,,,,,,649.5799999999872,,response,,,,99,,,,,,,Space,keypress(Space),,,,,,,,---- -- ----- -- ------ - ------- --- ----------<br>------------- ------ ------ ---- ---- ------- ----- -- ----<br>-------- ------- -- ---------- --- - --- ----- ----- ----<br>---- --- --- ----- --- ---- ---- ------- ----- ---- whether<br>--- --- -- ----- -- --- ---- -- --- ---- -- ------ ------<br>--- ----- -- ----,137353,137347,136697.32,136697,136697.42,137353.38,,38,whether
screen,html.Screen,2_1_0_1_39,2022-05-09T12:43:50.712Z,,,,,,,,,,,,,,,,,53,,,,,,,,,,,,,,462.61999999999534,,response,,,,99,,,,,,,Space,keypress(Space),,,,,,,,---- -- ----- -- ------ - ------- --- ----------<br>------------- ------ ------ ---- ---- ------- ----- -- ----<br>-------- ------- -- ---------- --- - --- ----- ----- ----<br>---- --- --- ----- --- ---- ---- ------- ----- ---- -------<br>you --- -- ----- -- --- ---- -- --- ---- -- ------ ------<br>--- ----- -- ----,137819,137816,137353.22,137353,137353.38,137819.8,,39,you
screen,html.Screen,2_1_0_1_40,2022-05-09T12:43:51.258Z,,,,,,,,,,,,,,,,,53,,,,,,,,,,,,,,527.2000000000116,,response,,,,99,,,,,,,Space,keypress(Space),,,,,,,,---- -- ----- -- ------ - ------- --- ----------<br>------------- ------ ------ ---- ---- ------- ----- -- ----<br>-------- ------- -- ---------- --- - --- ----- ----- ----<br>---- --- --- ----- --- ---- ---- ------- ----- ---- -------<br>--- are -- ----- -- --- ---- -- --- ---- -- ------ ------<br>--- ----- -- ----,138366,138347,137819.66,137820,137819.8,138367.48,,40,are
screen,html.Screen,2_1_0_1_41,2022-05-09T12:43:51.822Z,,,,,,,,,,,,,,,,,53,,,,,,,,,,,,,,558.5199999999895,,response,,,,99,,,,,,,Space,keypress(Space),,,,,,,,---- -- ----- -- ------ - ------- --- ----------<br>------------- ------ ------ ---- ---- ------- ----- -- ----<br>-------- ------- -- ---------- --- - --- ----- ----- ----<br>---- --- --- ----- --- ---- ---- ------- ----- ---- -------<br>--- --- as ----- -- --- ---- -- --- ---- -- ------ ------<br>--- ----- -- ----,138929,138926,138367.28,138367,138367.48,138930.18,,41,as
screen,html.Screen,2_1_0_1_42,2022-05-09T12:43:52.295Z,,,,,,,,,,,,,,,,,53,,,,,,,,,,,,,,464.820000000007,,response,,,,99,,,,,,,Space,keypress(Space),,,,,,,,---- -- ----- -- ------ - ------- --- ----------<br>------------- ------ ------ ---- ---- ------- ----- -- ----<br>-------- ------- -- ---------- --- - --- ----- ----- ----<br>---- --- --- ----- --- ---- ---- ------- ----- ---- -------<br>--- --- -- close -- --- ---- -- --- ---- -- ------ ------<br>--- ----- -- ----,139403,139395,138930.02,138929,138930.18,139403,,42,close
screen,html.Screen,2_1_0_1_43,2022-05-09T12:43:52.856Z,,,,,,,,,,,,,,,,,53,,,,,,,,,,,,,,554,,response,,,,99,,,,,,,Space,keypress(Space),,,,,,,,---- -- ----- -- ------ - ------- --- ----------<br>------------- ------ ------ ---- ---- ------- ----- -- ----<br>-------- ------- -- ---------- --- - --- ----- ----- ----<br>---- --- --- ----- --- ---- ---- ------- ----- ---- -------<br>--- --- -- ----- as --- ---- -- --- ---- -- ------ ------<br>--- ----- -- ----,139965,139957,139402.84,139403,139403,139965.08,,43,as
screen,html.Screen,2_1_0_1_44,2022-05-09T12:43:53.362Z,,,,,,,,,,,,,,,,,53,,,,,,,,,,,,,,492.9200000000128,,response,,,,99,,,,,,,Space,keypress(Space),,,,,,,,---- -- ----- -- ------ - ------- --- ----------<br>------------- ------ ------ ---- ---- ------- ----- -- ----<br>-------- ------- -- ---------- --- - --- ----- ----- ----<br>---- --- --- ----- --- ---- ---- ------- ----- ---- -------<br>--- --- -- ----- -- you ---- -- --- ---- -- ------ ------<br>--- ----- -- ----,140470,140458,139964.94,139965,139965.08,140470.08,,44,you
screen,html.Screen,2_1_0_1_45,2022-05-09T12:43:53.888Z,,,,,,,,,,,,,,,,,53,,,,,,,,,,,,,,502.9200000000128,,response,,,,99,,,,,,,Space,keypress(Space),,,,,,,,---- -- ----- -- ------ - ------- --- ----------<br>------------- ------ ------ ---- ---- ------- ----- -- ----<br>-------- ------- -- ---------- --- - --- ----- ----- ----<br>---- --- --- ----- --- ---- ---- ------- ----- ---- -------<br>--- --- -- ----- -- --- want -- --- ---- -- ------ ------<br>--- ----- -- ----,140996,140973,140469.84,140470,140470.08,141004.54,,45,want
screen,html.Screen,2_1_0_1_46,2022-05-09T12:43:54.396Z,,,,,,,,,,,,,,,,,53,,,,,,,,,,,,,,484.45999999999185,,response,,,,99,,,,,,,Space,keypress(Space),,,,,,,,---- -- ----- -- ------ - ------- --- ----------<br>------------- ------ ------ ---- ---- ------- ----- -- ----<br>-------- ------- -- ---------- --- - --- ----- ----- ----<br>---- --- --- ----- --- ---- ---- ------- ----- ---- -------<br>--- --- -- ----- -- --- ---- to --- ---- -- ------ ------<br>--- ----- -- ----,141505,141489,140995.84,140996,141004.54,141504.48,,46,to
screen,html.Screen,2_1_0_1_47,2022-05-09T12:43:55.090Z,,,,,,,,,,,,,,,,,53,,,,,,,,,,,,,,672.5199999999895,,response,,,,99,,,,,,,Space,keypress(Space),,,,,,,,"---- -- ----- -- ------ - ------- --- ----------<br>------------- ------ ------ ---- ---- ------- ----- -- ----<br>-------- ------- -- ---------- --- - --- ----- ----- ----<br>---- --- --- ----- --- ---- ---- ------- ----- ---- -------<br>--- --- -- ----- -- --- ---- -- be, ---- -- ------ ------<br>--- ----- -- ----",142198,142177,141504.32,141505,141504.48,142198.06,,47,"be,"
screen,html.Screen,2_1_0_1_48,2022-05-09T12:43:55.554Z,,,,,,,,,,,,,,,,,53,,,,,,,,,,,,,,445.9400000000023,,response,,,,99,,,,,,,Space,keypress(Space),,,,,,,,---- -- ----- -- ------ - ------- --- ----------<br>------------- ------ ------ ---- ---- ------- ----- -- ----<br>-------- ------- -- ---------- --- - --- ----- ----- ----<br>---- --- --- ----- --- ---- ---- ------- ----- ---- -------<br>--- --- -- ----- -- --- ---- -- --- even -- ------ ------<br>--- ----- -- ----,142662,142644,142197.92,142198,142198.06,142662.72,,48,even
screen,html.Screen,2_1_0_1_49,2022-05-09T12:43:56.052Z,,,,,,,,,,,,,,,,,53,,,,,,,,,,,,,,481.27999999999884,,response,,,,99,,,,,,,Space,keypress(Space),,,,,,,,---- -- ----- -- ------ - ------- --- ----------<br>------------- ------ ------ ---- ---- ------- ----- -- ----<br>-------- ------- -- ---------- --- - --- ----- ----- ----<br>---- --- --- ----- --- ---- ---- ------- ----- ---- -------<br>--- --- -- ----- -- --- ---- -- --- ---- if ------ ------<br>--- ----- -- ----,143160,143144,142662.6,142663,142662.72,143160.66,,49,if
screen,html.Screen,2_1_0_1_50,2022-05-09T12:43:56.599Z,,,,,,,,,,,,,,,,,53,,,,,,,,,,,,,,530.3399999999965,,response,,,,99,,,,,,,Space,keypress(Space),,,,,,,,---- -- ----- -- ------ - ------- --- ----------<br>------------- ------ ------ ---- ---- ------- ----- -- ----<br>-------- ------- -- ---------- --- - --- ----- ----- ----<br>---- --- --- ----- --- ---- ---- ------- ----- ---- -------<br>--- --- -- ----- -- --- ---- -- --- ---- -- that's ------<br>--- ----- -- ----,143707,143691,143160.48,143160,143160.66,143707.32,,50,that's
screen,html.Screen,2_1_0_1_51,2022-05-09T12:43:57.144Z,,,,,,,,,,,,,,,,,53,,,,,,,,,,,,,,530.679999999993,,response,,,,99,,,,,,,Space,keypress(Space),,,,,,,,---- -- ----- -- ------ - ------- --- ----------<br>------------- ------ ------ ---- ---- ------- ----- -- ----<br>-------- ------- -- ---------- --- - --- ----- ----- ----<br>---- --- --- ----- --- ---- ---- ------- ----- ---- -------<br>--- --- -- ----- -- --- ---- -- --- ---- -- ------ really<br>--- ----- -- ----,144252,144238,143707.12,143707,143707.32,144251.98,,51,really
screen,html.Screen,2_1_0_1_52,2022-05-09T12:43:57.668Z,,,,,,,,,,,,,,,,,53,,,,,,,,,,,,,,503.0199999999895,,response,,,,99,,,,,,,Space,keypress(Space),,,,,,,,---- -- ----- -- ------ - ------- --- ----------<br>------------- ------ ------ ---- ---- ------- ----- -- ----<br>-------- ------- -- ---------- --- - --- ----- ----- ----<br>---- --- --- ----- --- ---- ---- ------- ----- ---- -------<br>--- --- -- ----- -- --- ---- -- --- ---- -- ------ ------<br>not ----- -- ----,144775,144755,144251.84,144252,144251.98,144775.58,,52,not
screen,html.Screen,2_1_0_1_53,2022-05-09T12:43:58.192Z,,,,,,,,,,,,,,,,,53,,,,,,,,,,,,,,509.4200000000128,,response,,,,99,,,,,,,Space,keypress(Space),,,,,,,,---- -- ----- -- ------ - ------- --- ----------<br>------------- ------ ------ ---- ---- ------- ----- -- ----<br>-------- ------- -- ---------- --- - --- ----- ----- ----<br>---- --- --- ----- --- ---- ---- ------- ----- ---- -------<br>--- --- -- ----- -- --- ---- -- --- ---- -- ------ ------<br>--- close -- ----,145299,145285,144775.44,144775,144775.58,145299.7,,53,close
screen,html.Screen,2_1_0_1_54,2022-05-09T12:43:58.702Z,,,,,,,,,,,,,,,,,53,,,,,,,,,,,,,,501.29999999998836,,response,,,,99,,,,,,,Space,keypress(Space),,,,,,,,---- -- ----- -- ------ - ------- --- ----------<br>------------- ------ ------ ---- ---- ------- ----- -- ----<br>-------- ------- -- ---------- --- - --- ----- ----- ----<br>---- --- --- ----- --- ---- ---- ------- ----- ---- -------<br>--- --- -- ----- -- --- ---- -- --- ---- -- ------ ------<br>--- ----- at ----,145809,145801,145299.54,145300,145299.7,145809.86,,54,at
screen,html.Screen,2_1_0_1_55,2022-05-09T12:43:59.719Z,,,,,,,,,,,,,,,,,53,,,,,,,,,,,,,,1007.140000000014,,response,,,,99,,,,,,,Space,keypress(Space),,,,,,,,---- -- ----- -- ------ - ------- --- ----------<br>------------- ------ ------ ---- ---- ------- ----- -- ----<br>-------- ------- -- ---------- --- - --- ----- ----- ----<br>---- --- --- ----- --- ---- ---- ------- ----- ---- -------<br>--- --- -- ----- -- --- ---- -- --- ---- -- ------ ------<br>--- ----- -- all.,146826,146817,145809.62,145810,145809.86,146827.14,,55,all.
Item 99,flow.Loop,2_1_0_1,2022-05-09T12:43:59.719Z,,,,,,,,,,,,,,,,,,,,,,,,,,,,,,,31312.259999999995,,completion,,,,,F,,,,,,,,,,,silence,,,,,146827,146817,115488.06,115489,115504.74,146827.14,,,
Question 1,html.Screen,2_1_0_2,2022-05-09T12:44:08.724Z,,,,,,,,,,,,,,,,,,,,,,,,,,,,true,FALSE,,8988.859999999986,,response,,,,99,F,,,,,,FALSE,click #choice-2,,,,silence,,,,,155832,155816,146826.98,146827,146827.14,155837.76,,,
Question 2,html.Screen,2_1_0_3,2022-05-09T12:44:13.335Z,,,,,,,,,,,,,,,,,,,,,,,,,,,,true,TRUE,,4588.239999999991,,response,,,,99,F,,,,,,TRUE,click #choice-1,,,,silence,,,,,160442,160426,155831.06,155832,155837.76,160454.38,,,
Item 99,flow.Sequence,2_1_0,2022-05-09T12:44:13.335Z,,,,,,,,,,,,,,,,,,,,,,,,,,,,,,,54921.16,,completion,,,,,,,,,,,,,,,,,,,,,160442,160426,105497.06,105502,105504.84,160454.38,,,
Holding screen,html.Screen,2_1_1_0,2022-05-09T12:44:23.330Z,,,,,,,,,,,,,,,,,,,,,,,,,,,,,,,9999.880000000005,,timeout,,,,,,,,,,,,,,,,,,,,,170438,170437.6,160441.6,160442,160454.38,170454.26,,,
screen,html.Screen,2_1_1_1_0,2022-05-09T12:44:23.966Z,,,,,,,,,,,,,,,,,54,,,,,,,,,,,,,,612.7399999999907,,response,,,,100,,,,,,,Space,keypress(Space),,,,,,,,At --- ---- --- ------ ----- ------- ---- -- --- ------- --<br>------- ---------- ------ -- ----- -- ----- -- ---- ------<br>--- ----- --- --- ------ -------- ----- --- ------ ----- --<br>----- ----- ---------- --- --- ------ ------ ---- -- ------<br>------- --- ------ ----- --- ---- ------- -- ---- --- --<br>------- ------,171073,171067,170437.6,170439,170454.26,171073.74,,0,At
screen,html.Screen,2_1_1_1_1,2022-05-09T12:44:24.383Z,,,,,,,,,,,,,,,,,54,,,,,,,,,,,,,,398.2600000000093,,response,,,,100,,,,,,,Space,keypress(Space),,,,,,,,-- the ---- --- ------ ----- ------- ---- -- --- ------- --<br>------- ---------- ------ -- ----- -- ----- -- ---- ------<br>--- ----- --- --- ------ -------- ----- --- ------ ----- --<br>----- ----- ---------- --- --- ------ ------ ---- -- ------<br>------- --- ------ ----- --- ---- ------- -- ---- --- --<br>------- ------,171490,171472,171073.6,171073,171073.74,171490.86,,1,the
screen,html.Screen,2_1_1_1_2,2022-05-09T12:44:24.880Z,,,,,,,,,,,,,,,,,54,,,,,,,,,,,,,,482.14000000001397,,response,,,,100,,,,,,,Space,keypress(Space),,,,,,,,-- --- time --- ------ ----- ------- ---- -- --- ------- --<br>------- ---------- ------ -- ----- -- ----- -- ---- ------<br>--- ----- --- --- ------ -------- ----- --- ------ ----- --<br>----- ----- ---------- --- --- ------ ------ ---- -- ------<br>------- --- ------ ----- --- ---- ------- -- ---- --- --<br>------- ------,171988,171973,171490.74,171490,171490.86,171988.32,,2,time
screen,html.Screen,2_1_1_1_3,2022-05-09T12:44:25.373Z,,,,,,,,,,,,,,,,,54,,,,,,,,,,,,,,483.679999999993,,response,,,,100,,,,,,,Space,keypress(Space),,,,,,,,-- --- ---- the ------ ----- ------- ---- -- --- ------- --<br>------- ---------- ------ -- ----- -- ----- -- ---- ------<br>--- ----- --- --- ------ -------- ----- --- ------ ----- --<br>----- ----- ---------- --- --- ------ ------ ---- -- ------<br>------- --- ------ ----- --- ---- ------- -- ---- --- --<br>------- ------,172481,172472,171988.16,171988,171988.32,172480.84,,3,the
screen,html.Screen,2_1_1_1_4,2022-05-09T12:44:25.829Z,,,,,,,,,,,,,,,,,54,,,,,,,,,,,,,,445.1600000000035,,response,,,,100,,,,,,,Space,keypress(Space),,,,,,,,-- --- ---- --- French ----- ------- ---- -- --- ------- --<br>------- ---------- ------ -- ----- -- ----- -- ---- ------<br>--- ----- --- --- ------ -------- ----- --- ------ ----- --<br>----- ----- ---------- --- --- ------ ------ ---- -- ------<br>------- --- ------ ----- --- ---- ------- -- ---- --- --<br>------- ------,172937,172926,172480.7,172481,172480.84,172937.36,,4,French
screen,html.Screen,2_1_1_1_5,2022-05-09T12:44:26.319Z,,,,,,,,,,,,,,,,,54,,,,,,,,,,,,,,473.64000000001397,,response,,,,100,,,,,,,Space,keypress(Space),,,,,,,,-- --- ---- --- ------ crown ------- ---- -- --- ------- --<br>------- ---------- ------ -- ----- -- ----- -- ---- ------<br>--- ----- --- --- ------ -------- ----- --- ------ ----- --<br>----- ----- ---------- --- --- ------ ------ ---- -- ------<br>------- --- ------ ----- --- ---- ------- -- ---- --- --<br>------- ------,173427,173411,172937.22,172937,172937.36,173427.66,,5,crown
screen,html.Screen,2_1_1_1_6,2022-05-09T12:44:26.787Z,,,,,,,,,,,,,,,,,54,,,,,,,,,,,,,,451.3399999999965,,response,,,,100,,,,,,,Space,keypress(Space),,,,,,,,-- --- ---- --- ------ ----- secured ---- -- --- ------- --<br>------- ---------- ------ -- ----- -- ----- -- ---- ------<br>--- ----- --- --- ------ -------- ----- --- ------ ----- --<br>----- ----- ---------- --- --- ------ ------ ---- -- ------<br>------- --- ------ ----- --- ---- ------- -- ---- --- --<br>------- ------,173895,173879,173427.52,173427,173427.66,173894.48,,6,secured
screen,html.Screen,2_1_1_1_7,2022-05-09T12:44:27.265Z,,,,,,,,,,,,,,,,,54,,,,,,,,,,,,,,468.5199999999895,,response,,,,100,,,,,,,Space,keypress(Space),,,,,,,,-- --- ---- --- ------ ----- ------- much -- --- ------- --<br>------- ---------- ------ -- ----- -- ----- -- ---- ------<br>--- ----- --- --- ------ -------- ----- --- ------ ----- --<br>----- ----- ---------- --- --- ------ ------ ---- -- ------<br>------- --- ------ ----- --- ---- ------- -- ---- --- --<br>------- ------,174372,174363,173894.34,173895,173894.48,174372.46,,7,much
screen,html.Screen,2_1_1_1_8,2022-05-09T12:44:27.696Z,,,,,,,,,,,,,,,,,54,,,,,,,,,,,,,,428.54000000000815,,response,,,,100,,,,,,,Space,keypress(Space),,,,,,,,-- --- ---- --- ------ ----- ------- ---- of --- ------- --<br>------- ---------- ------ -- ----- -- ----- -- ---- ------<br>--- ----- --- --- ------ -------- ----- --- ------ ----- --<br>----- ----- ---------- --- --- ------ ------ ---- -- ------<br>------- --- ------ ----- --- ---- ------- -- ---- --- --<br>------- ------,174804,174801,174372.32,174372,174372.46,174804.52,,8,of
screen,html.Screen,2_1_1_1_9,2022-05-09T12:44:28.123Z,,,,,,,,,,,,,,,,,54,,,,,,,,,,,,,,418.4800000000105,,response,,,,100,,,,,,,Space,keypress(Space),,,,,,,,-- --- ---- --- ------ ----- ------- ---- -- its ------- --<br>------- ---------- ------ -- ----- -- ----- -- ---- ------<br>--- ----- --- --- ------ -------- ----- --- ------ ----- --<br>----- ----- ---------- --- --- ------ ------ ---- -- ------<br>------- --- ------ ----- --- ---- ------- -- ---- --- --<br>------- ------,175230,175223,174804.38,174804,174804.52,175230.36,,9,its
screen,html.Screen,2_1_1_1_10,2022-05-09T12:44:28.625Z,,,,,,,,,,,,,,,,,54,,,,,,,,,,,,,,492.64000000001397,,response,,,,100,,,,,,,Space,keypress(Space),,,,,,,,-- --- ---- --- ------ ----- ------- ---- -- --- revenue --<br>------- ---------- ------ -- ----- -- ----- -- ---- ------<br>--- ----- --- --- ------ -------- ----- --- ------ ----- --<br>----- ----- ---------- --- --- ------ ------ ---- -- ------<br>------- --- ------ ----- --- ---- ------- -- ---- --- --<br>------- ------,175733,175723,175230.22,175230,175230.36,175733.6,,10,revenue
screen,html.Screen,2_1_1_1_11,2022-05-09T12:44:29.098Z,,,,,,,,,,,,,,,,,54,,,,,,,,,,,,,,457.3999999999942,,response,,,,100,,,,,,,Space,keypress(Space),,,,,,,,-- --- ---- --- ------ ----- ------- ---- -- --- ------- by<br>------- ---------- ------ -- ----- -- ----- -- ---- ------<br>--- ----- --- --- ------ -------- ----- --- ------ ----- --<br>----- ----- ---------- --- --- ------ ------ ---- -- ------<br>------- --- ------ ----- --- ---- ------- -- ---- --- --<br>------- ------,176205,176191,175733.48,175734,175733.6,176205.74,,11,by
screen,html.Screen,2_1_1_1_12,2022-05-09T12:44:29.579Z,,,,,,,,,,,,,,,,,54,,,,,,,,,,,,,,470.2600000000093,,response,,,,100,,,,,,,Space,keypress(Space),,,,,,,,-- --- ---- --- ------ ----- ------- ---- -- --- ------- --<br>issuing ---------- ------ -- ----- -- ----- -- ---- ------<br>--- ----- --- --- ------ -------- ----- --- ------ ----- --<br>----- ----- ---------- --- --- ------ ------ ---- -- ------<br>------- --- ------ ----- --- ---- ------- -- ---- --- --<br>------- ------,176687,176676,176205.58,176205,176205.74,176687.04,,12,issuing
screen,html.Screen,2_1_1_1_13,2022-05-09T12:44:30.095Z,,,,,,,,,,,,,,,,,54,,,,,,,,,,,,,,504.95999999999185,,response,,,,100,,,,,,,Space,keypress(Space),,,,,,,,-- --- ---- --- ------ ----- ------- ---- -- --- ------- --<br>------- government ------ -- ----- -- ----- -- ---- ------<br>--- ----- --- --- ------ -------- ----- --- ------ ----- --<br>----- ----- ---------- --- --- ------ ------ ---- -- ------<br>------- --- ------ ----- --- ---- ------- -- ---- --- --<br>------- ------,177203,177192,176686.86,176687,176687.04,177203.08,,13,government
screen,html.Screen,2_1_1_1_14,2022-05-09T12:44:30.621Z,,,,,,,,,,,,,,,,,54,,,,,,,,,,,,,,518.9200000000128,,response,,,,100,,,,,,,Space,keypress(Space),,,,,,,,-- --- ---- --- ------ ----- ------- ---- -- --- ------- --<br>------- ---------- bonds. -- ----- -- ----- -- ---- ------<br>--- ----- --- --- ------ -------- ----- --- ------ ----- --<br>----- ----- ---------- --- --- ------ ------ ---- -- ------<br>------- --- ------ ----- --- ---- ------- -- ---- --- --<br>------- ------,177728,177722,177202.98,177203,177203.08,177728.78,,14,bonds.
screen,html.Screen,2_1_1_1_15,2022-05-09T12:44:31.118Z,,,,,,,,,,,,,,,,,54,,,,,,,,,,,,,,479.22000000000116,,response,,,,100,,,,,,,Space,keypress(Space),,,,,,,,-- --- ---- --- ------ ----- ------- ---- -- --- ------- --<br>------- ---------- ------ In ----- -- ----- -- ---- ------<br>--- ----- --- --- ------ -------- ----- --- ------ ----- --<br>----- ----- ---------- --- --- ------ ------ ---- -- ------<br>------- --- ------ ----- --- ---- ------- -- ---- --- --<br>------- ------,178225,178208,177728.66,177728,177728.78,178225.28,,15,In
screen,html.Screen,2_1_1_1_16,2022-05-09T12:44:31.621Z,,,,,,,,,,,,,,,,,54,,,,,,,,,,,,,,497.72000000000116,,response,,,,100,,,,,,,Space,keypress(Space),,,,,,,,"-- --- ---- --- ------ ----- ------- ---- -- --- ------- --<br>------- ---------- ------ -- 1727, -- ----- -- ---- ------<br>--- ----- --- --- ------ -------- ----- --- ------ ----- --<br>----- ----- ---------- --- --- ------ ------ ---- -- ------<br>------- --- ------ ----- --- ---- ------- -- ---- --- --<br>------- ------",178729,178723,178225.1,178225,178225.28,178729.46,,16,"1727,"
screen,html.Screen,2_1_1_1_17,2022-05-09T12:44:32.143Z,,,,,,,,,,,,,,,,,54,,,,,,,,,,,,,,509.54000000000815,,response,,,,100,,,,,,,Space,keypress(Space),,,,,,,,-- --- ---- --- ------ ----- ------- ---- -- --- ------- --<br>------- ---------- ------ -- ----- in ----- -- ---- ------<br>--- ----- --- --- ------ -------- ----- --- ------ ----- --<br>----- ----- ---------- --- --- ------ ------ ---- -- ------<br>------- --- ------ ----- --- ---- ------- -- ---- --- --<br>------- ------,179250,179239,178729.24,178729,178729.46,179250.32,,17,in
screen,html.Screen,2_1_1_1_18,2022-05-09T12:44:32.615Z,,,,,,,,,,,,,,,,,54,,,,,,,,,,,,,,457.679999999993,,response,,,,100,,,,,,,Space,keypress(Space),,,,,,,,-- --- ---- --- ------ ----- ------- ---- -- --- ------- --<br>------- ---------- ------ -- ----- -- order -- ---- ------<br>--- ----- --- --- ------ -------- ----- --- ------ ----- --<br>----- ----- ---------- --- --- ------ ------ ---- -- ------<br>------- --- ------ ----- --- ---- ------- -- ---- --- --<br>------- ------,179724,179708,179250.08,179250,179250.32,179723.54,,18,order
screen,html.Screen,2_1_1_1_19,2022-05-09T12:44:33.080Z,,,,,,,,,,,,,,,,,54,,,,,,,,,,,,,,452.45999999999185,,response,,,,100,,,,,,,Space,keypress(Space),,,,,,,,-- --- ---- --- ------ ----- ------- ---- -- --- ------- --<br>------- ---------- ------ -- ----- -- ----- to ---- ------<br>--- ----- --- --- ------ -------- ----- --- ------ ----- --<br>----- ----- ---------- --- --- ------ ------ ---- -- ------<br>------- --- ------ ----- --- ---- ------- -- ---- --- --<br>------- ------,180187,180176,179723.3,179724,179723.54,180187.9,,19,to
screen,html.Screen,2_1_1_1_20,2022-05-09T12:44:33.534Z,,,,,,,,,,,,,,,,,54,,,,,,,,,,,,,,441.1000000000058,,response,,,,100,,,,,,,Space,keypress(Space),,,,,,,,-- --- ---- --- ------ ----- ------- ---- -- --- ------- --<br>------- ---------- ------ -- ----- -- ----- -- save ------<br>--- ----- --- --- ------ -------- ----- --- ------ ----- --<br>----- ----- ---------- --- --- ------ ------ ---- -- ------<br>------- --- ------ ----- --- ---- ------- -- ---- --- --<br>------- ------,180642,180629,180187.76,180188,180187.9,180641.88,,20,save
screen,html.Screen,2_1_1_1_21,2022-05-09T12:44:33.987Z,,,,,,,,,,,,,,,,,54,,,,,,,,,,,,,,441.11999999999534,,response,,,,100,,,,,,,Space,keypress(Space),,,,,,,,"-- --- ---- --- ------ ----- ------- ---- -- --- ------- --<br>------- ---------- ------ -- ----- -- ----- -- ---- money,<br>--- ----- --- --- ------ -------- ----- --- ------ ----- --<br>----- ----- ---------- --- --- ------ ------ ---- -- ------<br>------- --- ------ ----- --- ---- ------- -- ---- --- --<br>------- ------",181095,181083,180641.74,180642,180641.88,181095.62,,21,"money,"
screen,html.Screen,2_1_1_1_22,2022-05-09T12:44:34.523Z,,,,,,,,,,,,,,,,,54,,,,,,,,,,,,,,517.3800000000047,,response,,,,100,,,,,,,Space,keypress(Space),,,,,,,,-- --- ---- --- ------ ----- ------- ---- -- --- ------- --<br>------- ---------- ------ -- ----- -- ----- -- ---- ------<br>the ----- --- --- ------ -------- ----- --- ------ ----- --<br>----- ----- ---------- --- --- ------ ------ ---- -- ------<br>------- --- ------ ----- --- ---- ------- -- ---- --- --<br>------- ------,181631,181613,181095.44,181095,181095.62,181631.04,,22,the
screen,html.Screen,2_1_1_1_23,2022-05-09T12:44:34.995Z,,,,,,,,,,,,,,,,,54,,,,,,,,,,,,,,466.95999999999185,,response,,,,100,,,,,,,Space,keypress(Space),,,,,,,,-- --- ---- --- ------ ----- ------- ---- -- --- ------- --<br>------- ---------- ------ -- ----- -- ----- -- ---- ------<br>--- state --- --- ------ -------- ----- --- ------ ----- --<br>----- ----- ---------- --- --- ------ ------ ---- -- ------<br>------- --- ------ ----- --- ---- ------- -- ---- --- --<br>------- ------,182103,182098,181630.9,181631,181631.04,182103.46,,23,state
screen,html.Screen,2_1_1_1_24,2022-05-09T12:44:35.466Z,,,,,,,,,,,,,,,,,54,,,,,,,,,,,,,,462.54000000000815,,response,,,,100,,,,,,,Space,keypress(Space),,,,,,,,-- --- ---- --- ------ ----- ------- ---- -- --- ------- --<br>------- ---------- ------ -- ----- -- ----- -- ---- ------<br>--- ----- cut --- ------ -------- ----- --- ------ ----- --<br>----- ----- ---------- --- --- ------ ------ ---- -- ------<br>------- --- ------ ----- --- ---- ------- -- ---- --- --<br>------- ------,182574,182566,182103.3,182103,182103.46,182574.44,,24,cut
screen,html.Screen,2_1_1_1_25,2022-05-09T12:44:35.973Z,,,,,,,,,,,,,,,,,54,,,,,,,,,,,,,,492.5599999999977,,response,,,,100,,,,,,,Space,keypress(Space),,,,,,,,-- --- ---- --- ------ ----- ------- ---- -- --- ------- --<br>------- ---------- ------ -- ----- -- ----- -- ---- ------<br>--- ----- --- the ------ -------- ----- --- ------ ----- --<br>----- ----- ---------- --- --- ------ ------ ---- -- ------<br>------- --- ------ ----- --- ---- ------- -- ---- --- --<br>------- ------,183081,183067,182574.3,182574,182574.44,183081.06,,25,the
screen,html.Screen,2_1_1_1_26,2022-05-09T12:44:36.497Z,,,,,,,,,,,,,,,,,54,,,,,,,,,,,,,,516.9400000000023,,response,,,,100,,,,,,,Space,keypress(Space),,,,,,,,-- --- ---- --- ------ ----- ------- ---- -- --- ------- --<br>------- ---------- ------ -- ----- -- ----- -- ---- ------<br>--- ----- --- --- bonds' -------- ----- --- ------ ----- --<br>----- ----- ---------- --- --- ------ ------ ---- -- ------<br>------- --- ------ ----- --- ---- ------- -- ---- --- --<br>------- ------,183605,183598,183080.92,183081,183081.06,183605.46,,26,bonds'
screen,html.Screen,2_1_1_1_27,2022-05-09T12:44:36.981Z,,,,,,,,,,,,,,,,,54,,,,,,,,,,,,,,476.54000000000815,,response,,,,100,,,,,,,Space,keypress(Space),,,,,,,,-- --- ---- --- ------ ----- ------- ---- -- --- ------- --<br>------- ---------- ------ -- ----- -- ----- -- ---- ------<br>--- ----- --- --- ------ interest ----- --- ------ ----- --<br>----- ----- ---------- --- --- ------ ------ ---- -- ------<br>------- --- ------ ----- --- ---- ------- -- ---- --- --<br>------- ------,184088,184082,183605.3,183605,183605.46,184088.84,,27,interest
screen,html.Screen,2_1_1_1_28,2022-05-09T12:44:37.488Z,,,,,,,,,,,,,,,,,54,,,,,,,,,,,,,,493.1600000000035,,response,,,,100,,,,,,,Space,keypress(Space),,,,,,,,-- --- ---- --- ------ ----- ------- ---- -- --- ------- --<br>------- ---------- ------ -- ----- -- ----- -- ---- ------<br>--- ----- --- --- ------ -------- rate. --- ------ ----- --<br>----- ----- ---------- --- --- ------ ------ ---- -- ------<br>------- --- ------ ----- --- ---- ------- -- ---- --- --<br>------- ------,184596,184582,184088.7,184088,184088.84,184596.5,,28,rate.
screen,html.Screen,2_1_1_1_29,2022-05-09T12:44:37.999Z,,,,,,,,,,,,,,,,,54,,,,,,,,,,,,,,501.5,,response,,,,100,,,,,,,Space,keypress(Space),,,,,,,,-- --- ---- --- ------ ----- ------- ---- -- --- ------- --<br>------- ---------- ------ -- ----- -- ----- -- ---- ------<br>--- ----- --- --- ------ -------- ----- The ------ ----- --<br>----- ----- ---------- --- --- ------ ------ ---- -- ------<br>------- --- ------ ----- --- ---- ------- -- ---- --- --<br>------- ------,185107,185098,184596.34,184596,184596.5,185107.48,,29,The
screen,html.Screen,2_1_1_1_30,2022-05-09T12:44:38.480Z,,,,,,,,,,,,,,,,,54,,,,,,,,,,,,,,474.5199999999895,,response,,,,100,,,,,,,Space,keypress(Space),,,,,,,,-- --- ---- --- ------ ----- ------- ---- -- --- ------- --<br>------- ---------- ------ -- ----- -- ----- -- ---- ------<br>--- ----- --- --- ------ -------- ----- --- market ----- --<br>----- ----- ---------- --- --- ------ ------ ---- -- ------<br>------- --- ------ ----- --- ---- ------- -- ---- --- --<br>------- ------,185587,185582,185107.22,185107,185107.48,185588.02,,30,market
screen,html.Screen,2_1_1_1_31,2022-05-09T12:44:38.987Z,,,,,,,,,,,,,,,,,54,,,,,,,,,,,,,,493.9800000000105,,response,,,,100,,,,,,,Space,keypress(Space),,,,,,,,-- --- ---- --- ------ ----- ------- ---- -- --- ------- --<br>------- ---------- ------ -- ----- -- ----- -- ---- ------<br>--- ----- --- --- ------ -------- ----- --- ------ value --<br>----- ----- ---------- --- --- ------ ------ ---- -- ------<br>------- --- ------ ----- --- ---- ------- -- ---- --- --<br>------- ------,186095,186082,185587.88,185588,185588.02,186095.22,,31,value
screen,html.Screen,2_1_1_1_32,2022-05-09T12:44:39.471Z,,,,,,,,,,,,,,,,,54,,,,,,,,,,,,,,470.77999999999884,,response,,,,100,,,,,,,Space,keypress(Space),,,,,,,,-- --- ---- --- ------ ----- ------- ---- -- --- ------- --<br>------- ---------- ------ -- ----- -- ----- -- ---- ------<br>--- ----- --- --- ------ -------- ----- --- ------ ----- of<br>----- ----- ---------- --- --- ------ ------ ---- -- ------<br>------- --- ------ ----- --- ---- ------- -- ---- --- --<br>------- ------,186579,186566,186095.1,186095,186095.22,186579.7,,32,of
screen,html.Screen,2_1_1_1_33,2022-05-09T12:44:39.949Z,,,,,,,,,,,,,,,,,54,,,,,,,,,,,,,,471.29999999998836,,response,,,,100,,,,,,,Space,keypress(Space),,,,,,,,-- --- ---- --- ------ ----- ------- ---- -- --- ------- --<br>------- ---------- ------ -- ----- -- ----- -- ---- ------<br>--- ----- --- --- ------ -------- ----- --- ------ ----- --<br>these ----- ---------- --- --- ------ ------ ---- -- ------<br>------- --- ------ ----- --- ---- ------- -- ---- --- --<br>------- ------,187056,187051,186579.56,186579,186579.7,187056.6,,33,these
screen,html.Screen,2_1_1_1_34,2022-05-09T12:44:40.444Z,,,,,,,,,,,,,,,,,54,,,,,,,,,,,,,,478.3999999999942,,response,,,,100,,,,,,,Space,keypress(Space),,,,,,,,-- --- ---- --- ------ ----- ------- ---- -- --- ------- --<br>------- ---------- ------ -- ----- -- ----- -- ---- ------<br>--- ----- --- --- ------ -------- ----- --- ------ ----- --<br>----- bonds ---------- --- --- ------ ------ ---- -- ------<br>------- --- ------ ----- --- ---- ------- -- ---- --- --<br>------- ------,187551,187535,187056.44,187056,187056.6,187551.44,,34,bonds
screen,html.Screen,2_1_1_1_35,2022-05-09T12:44:41.090Z,,,,,,,,,,,,,,,,,54,,,,,,,,,,,,,,639.5599999999977,,response,,,,100,,,,,,,Space,keypress(Space),,,,,,,,"-- --- ---- --- ------ ----- ------- ---- -- --- ------- --<br>------- ---------- ------ -- ----- -- ----- -- ---- ------<br>--- ----- --- --- ------ -------- ----- --- ------ ----- --<br>----- ----- plummeted, --- --- ------ ------ ---- -- ------<br>------- --- ------ ----- --- ---- ------- -- ---- --- --<br>------- ------",188198,188191,187551.28,187551,187551.44,188197.84,,35,"plummeted,"
screen,html.Screen,2_1_1_1_36,2022-05-09T12:44:41.587Z,,,,,,,,,,,,,,,,,54,,,,,,,,,,,,,,494.1600000000035,,response,,,,100,,,,,,,Space,keypress(Space),,,,,,,,-- --- ---- --- ------ ----- ------- ---- -- --- ------- --<br>------- ---------- ------ -- ----- -- ----- -- ---- ------<br>--- ----- --- --- ------ -------- ----- --- ------ ----- --<br>----- ----- ---------- and --- ------ ------ ---- -- ------<br>------- --- ------ ----- --- ---- ------- -- ---- --- --<br>------- ------,188694,188692,188197.64,188198,188197.84,188694.22,,36,and
screen,html.Screen,2_1_1_1_37,2022-05-09T12:44:42.077Z,,,,,,,,,,,,,,,,,54,,,,,,,,,,,,,,481.77999999999884,,response,,,,100,,,,,,,Space,keypress(Space),,,,,,,,-- --- ---- --- ------ ----- ------- ---- -- --- ------- --<br>------- ---------- ------ -- ----- -- ----- -- ---- ------<br>--- ----- --- --- ------ -------- ----- --- ------ ----- --<br>----- ----- ---------- --- the ------ ------ ---- -- ------<br>------- --- ------ ----- --- ---- ------- -- ---- --- --<br>------- ------,189185,189176,188694.1,188694,188694.22,189184.76,,37,the
screen,html.Screen,2_1_1_1_38,2022-05-09T12:44:42.585Z,,,,,,,,,,,,,,,,,54,,,,,,,,,,,,,,491.2399999999907,,response,,,,100,,,,,,,Space,keypress(Space),,,,,,,,-- --- ---- --- ------ ----- ------- ---- -- --- ------- --<br>------- ---------- ------ -- ----- -- ----- -- ---- ------<br>--- ----- --- --- ------ -------- ----- --- ------ ----- --<br>----- ----- ---------- --- --- market ------ ---- -- ------<br>------- --- ------ ----- --- ---- ------- -- ---- --- --<br>------- ------,189692,189676,189184.62,189185,189184.76,189692.38,,38,market
screen,html.Screen,2_1_1_1_39,2022-05-09T12:44:43.080Z,,,,,,,,,,,,,,,,,54,,,,,,,,,,,,,,483.61999999999534,,response,,,,100,,,,,,,Space,keypress(Space),,,,,,,,-- --- ---- --- ------ ----- ------- ---- -- --- ------- --<br>------- ---------- ------ -- ----- -- ----- -- ---- ------<br>--- ----- --- --- ------ -------- ----- --- ------ ----- --<br>----- ----- ---------- --- --- ------ became ---- -- ------<br>------- --- ------ ----- --- ---- ------- -- ---- --- --<br>------- ------,190189,190176,189692.24,189692,189692.38,190188.82,,39,became
screen,html.Screen,2_1_1_1_40,2022-05-09T12:44:43.574Z,,,,,,,,,,,,,,,,,54,,,,,,,,,,,,,,488.179999999993,,response,,,,100,,,,,,,Space,keypress(Space),,,,,,,,-- --- ---- --- ------ ----- ------- ---- -- --- ------- --<br>------- ---------- ------ -- ----- -- ----- -- ---- ------<br>--- ----- --- --- ------ -------- ----- --- ------ ----- --<br>----- ----- ---------- --- --- ------ ------ wary -- ------<br>------- --- ------ ----- --- ---- ------- -- ---- --- --<br>------- ------,190682,190677,190188.66,190189,190188.82,190682.26,,40,wary
screen,html.Screen,2_1_1_1_41,2022-05-09T12:44:44.049Z,,,,,,,,,,,,,,,,,54,,,,,,,,,,,,,,461.7399999999907,,response,,,,100,,,,,,,Space,keypress(Space),,,,,,,,-- --- ---- --- ------ ----- ------- ---- -- --- ------- --<br>------- ---------- ------ -- ----- -- ----- -- ---- ------<br>--- ----- --- --- ------ -------- ----- --- ------ ----- --<br>----- ----- ---------- --- --- ------ ------ ---- of ------<br>------- --- ------ ----- --- ---- ------- -- ---- --- --<br>------- ------,191156,191144,190682.1,190682,190682.26,191156.6,,41,of
screen,html.Screen,2_1_1_1_42,2022-05-09T12:44:44.599Z,,,,,,,,,,,,,,,,,54,,,,,,,,,,,,,,534.3999999999942,,response,,,,100,,,,,,,Space,keypress(Space),,,,,,,,-- --- ---- --- ------ ----- ------- ---- -- --- ------- --<br>------- ---------- ------ -- ----- -- ----- -- ---- ------<br>--- ----- --- --- ------ -------- ----- --- ------ ----- --<br>----- ----- ---------- --- --- ------ ------ ---- -- French<br>------- --- ------ ----- --- ---- ------- -- ---- --- --<br>------- ------,191706,191691,191156.5,191156,191156.6,191706.26,,42,French
screen,html.Screen,2_1_1_1_43,2022-05-09T12:44:45.146Z,,,,,,,,,,,,,,,,,54,,,,,,,,,,,,,,531.7399999999907,,response,,,,100,,,,,,,Space,keypress(Space),,,,,,,,-- --- ---- --- ------ ----- ------- ---- -- --- ------- --<br>------- ---------- ------ -- ----- -- ----- -- ---- ------<br>--- ----- --- --- ------ -------- ----- --- ------ ----- --<br>----- ----- ---------- --- --- ------ ------ ---- -- ------<br>credit. --- ------ ----- --- ---- ------- -- ---- --- --<br>------- ------,192254,192238,191706.12,191706,191706.26,192254.28,,43,credit.
screen,html.Screen,2_1_1_1_44,2022-05-09T12:44:45.642Z,,,,,,,,,,,,,,,,,54,,,,,,,,,,,,,,483.72000000000116,,response,,,,100,,,,,,,Space,keypress(Space),,,,,,,,-- --- ---- --- ------ ----- ------- ---- -- --- ------- --<br>------- ---------- ------ -- ----- -- ----- -- ---- ------<br>--- ----- --- --- ------ -------- ----- --- ------ ----- --<br>----- ----- ---------- --- --- ------ ------ ---- -- ------<br>------- The ------ ----- --- ---- ------- -- ---- --- --<br>------- ------,192750,192738,192254.16,192254,192254.28,192750.18,,44,The
screen,html.Screen,2_1_1_1_45,2022-05-09T12:44:46.095Z,,,,,,,,,,,,,,,,,54,,,,,,,,,,,,,,441.820000000007,,response,,,,100,,,,,,,Space,keypress(Space),,,,,,,,-- --- ---- --- ------ ----- ------- ---- -- --- ------- --<br>------- ---------- ------ -- ----- -- ----- -- ---- ------<br>--- ----- --- --- ------ -------- ----- --- ------ ----- --<br>----- ----- ---------- --- --- ------ ------ ---- -- ------<br>------- --- French ----- --- ---- ------- -- ---- --- --<br>------- ------,193202,193192,192750.06,192750,192750.18,193202.48,,45,French
screen,html.Screen,2_1_1_1_46,2022-05-09T12:44:46.594Z,,,,,,,,,,,,,,,,,54,,,,,,,,,,,,,,488.5199999999895,,response,,,,100,,,,,,,Space,keypress(Space),,,,,,,,-- --- ---- --- ------ ----- ------- ---- -- --- ------- --<br>------- ---------- ------ -- ----- -- ----- -- ---- ------<br>--- ----- --- --- ------ -------- ----- --- ------ ----- --<br>----- ----- ---------- --- --- ------ ------ ---- -- ------<br>------- --- ------ state --- ---- ------- -- ---- --- --<br>------- ------,193702,193691,193202.32,193202,193202.48,193702.48,,46,state
screen,html.Screen,2_1_1_1_47,2022-05-09T12:44:47.076Z,,,,,,,,,,,,,,,,,54,,,,,,,,,,,,,,473.5199999999895,,response,,,,100,,,,,,,Space,keypress(Space),,,,,,,,-- --- ---- --- ------ ----- ------- ---- -- --- ------- --<br>------- ---------- ------ -- ----- -- ----- -- ---- ------<br>--- ----- --- --- ------ -------- ----- --- ------ ----- --<br>----- ----- ---------- --- --- ------ ------ ---- -- ------<br>------- --- ------ ----- was ---- ------- -- ---- --- --<br>------- ------,194184,194176,193702.32,193702,193702.48,194186.18,,47,was
screen,html.Screen,2_1_1_1_48,2022-05-09T12:44:47.601Z,,,,,,,,,,,,,,,,,54,,,,,,,,,,,,,,520.820000000007,,response,,,,100,,,,,,,Space,keypress(Space),,,,,,,,-- --- ---- --- ------ ----- ------- ---- -- --- ------- --<br>------- ---------- ------ -- ----- -- ----- -- ---- ------<br>--- ----- --- --- ------ -------- ----- --- ------ ----- --<br>----- ----- ---------- --- --- ------ ------ ---- -- ------<br>------- --- ------ ----- --- left ------- -- ---- --- --<br>------- ------,194709,194707,194186,194184,194186.18,194709.06,,48,left
screen,html.Screen,2_1_1_1_49,2022-05-09T12:44:48.077Z,,,,,,,,,,,,,,,,,54,,,,,,,,,,,,,,466.9400000000023,,response,,,,100,,,,,,,Space,keypress(Space),,,,,,,,-- --- ---- --- ------ ----- ------- ---- -- --- ------- --<br>------- ---------- ------ -- ----- -- ----- -- ---- ------<br>--- ----- --- --- ------ -------- ----- --- ------ ----- --<br>----- ----- ---------- --- --- ------ ------ ---- -- ------<br>------- --- ------ ----- --- ---- without -- ---- --- --<br>------- ------,195185,195176,194708.92,194709,194709.06,195184.76,,49,without
screen,html.Screen,2_1_1_1_50,2022-05-09T12:44:48.545Z,,,,,,,,,,,,,,,,,54,,,,,,,,,,,,,,459.2399999999907,,response,,,,100,,,,,,,Space,keypress(Space),,,,,,,,-- --- ---- --- ------ ----- ------- ---- -- --- ------- --<br>------- ---------- ------ -- ----- -- ----- -- ---- ------<br>--- ----- --- --- ------ -------- ----- --- ------ ----- --<br>----- ----- ---------- --- --- ------ ------ ---- -- ------<br>------- --- ------ ----- --- ---- ------- an ---- --- --<br>------- ------,195652,195644,195184.62,195185,195184.76,195652.68,,50,an
screen,html.Screen,2_1_1_1_51,2022-05-09T12:44:49.007Z,,,,,,,,,,,,,,,,,54,,,,,,,,,,,,,,460.320000000007,,response,,,,100,,,,,,,Space,keypress(Space),,,,,,,,-- --- ---- --- ------ ----- ------- ---- -- --- ------- --<br>------- ---------- ------ -- ----- -- ----- -- ---- ------<br>--- ----- --- --- ------ -------- ----- --- ------ ----- --<br>----- ----- ---------- --- --- ------ ------ ---- -- ------<br>------- --- ------ ----- --- ---- ------- -- easy --- --<br>------- ------,196115,196113,195652.5,195653,195652.68,196117.88,,51,easy
screen,html.Screen,2_1_1_1_52,2022-05-09T12:44:49.461Z,,,,,,,,,,,,,,,,,54,,,,,,,,,,,,,,449.11999999999534,,response,,,,100,,,,,,,Space,keypress(Space),,,,,,,,-- --- ---- --- ------ ----- ------- ---- -- --- ------- --<br>------- ---------- ------ -- ----- -- ----- -- ---- ------<br>--- ----- --- --- ------ -------- ----- --- ------ ----- --<br>----- ----- ---------- --- --- ------ ------ ---- -- ------<br>------- --- ------ ----- --- ---- ------- -- ---- way --<br>------- ------,196568,196567,196117.62,196117,196117.88,196568.62,,52,way
screen,html.Screen,2_1_1_1_53,2022-05-09T12:44:49.946Z,,,,,,,,,,,,,,,,,54,,,,,,,,,,,,,,482.38000000000466,,response,,,,100,,,,,,,Space,keypress(Space),,,,,,,,-- --- ---- --- ------ ----- ------- ---- -- --- ------- --<br>------- ---------- ------ -- ----- -- ----- -- ---- ------<br>--- ----- --- --- ------ -------- ----- --- ------ ----- --<br>----- ----- ---------- --- --- ------ ------ ---- -- ------<br>------- --- ------ ----- --- ---- ------- -- ---- --- of<br>------- ------,197053,197051,196568.48,196569,196568.62,197053.5,,53,of
screen,html.Screen,2_1_1_1_54,2022-05-09T12:44:50.504Z,,,,,,,,,,,,,,,,,54,,,,,,,,,,,,,,543.5,,response,,,,100,,,,,,,Space,keypress(Space),,,,,,,,-- --- ---- --- ------ ----- ------- ---- -- --- ------- --<br>------- ---------- ------ -- ----- -- ----- -- ---- ------<br>--- ----- --- --- ------ -------- ----- --- ------ ----- --<br>----- ----- ---------- --- --- ------ ------ ---- -- ------<br>------- --- ------ ----- --- ---- ------- -- ---- --- --<br>raising ------,197612,197597,197053.38,197053,197053.5,197612.08,,54,raising
screen,html.Screen,2_1_1_1_55,2022-05-09T12:44:51.092Z,,,,,,,,,,,,,,,,,54,,,,,,,,,,,,,,578.9200000000128,,response,,,,100,,,,,,,Space,keypress(Space),,,,,,,,-- --- ---- --- ------ ----- ------- ---- -- --- ------- --<br>------- ---------- ------ -- ----- -- ----- -- ---- ------<br>--- ----- --- --- ------ -------- ----- --- ------ ----- --<br>----- ----- ---------- --- --- ------ ------ ---- -- ------<br>------- --- ------ ----- --- ---- ------- -- ---- --- --<br>------- money.,198200,198191,197611.96,197612,197612.08,198200.92,,55,money.
Item 100,flow.Loop,2_1_1_1,2022-05-09T12:44:51.093Z,,,,,,,,,,,,,,,,,,,,,,,,,,,,,,,27736.73999999999,,completion,,,,,F,,,,,,,,,,,silence,,,,,198201,198191,170437.6,170439,170454.26,198200.92,,,
Question 1,html.Screen,2_1_1_2,2022-05-09T12:44:54.274Z,,,,,,,,,,,,,,,,,,,,,,,,,,,,true,TRUE,,3178.079999999987,,response,,,,100,F,,,,,,TRUE,click #choice-1,,,,silence,,,,,201381,201379,198200.74,198201,198200.92,201387.36,,,
Question 2,html.Screen,2_1_1_3,2022-05-09T12:44:56.186Z,,,,,,,,,,,,,,,,,,,,,,,,,,,,true,FALSE,,1897.640000000014,,response,,,,100,F,,,,,,FALSE,click #choice-2,,,,silence,,,,,203294,203285,201380.88,201381,201387.36,203304.3,,,
Item 100,flow.Sequence,2_1_1,2022-05-09T12:44:56.186Z,,,,,,,,,,,,,,,,,,,,,,,,,,,,,,,42830.619999999995,,completion,,,,,,,,,,,,,,,,,,,,,203294,203285,160441.6,160442,160454.38,203304.3,,,
End of Practice,html.Page,2_1_2,2022-05-09T12:45:10.837Z,,,,,,,,,,,,,,,,,,,,,,,,,,,,,,,14639.700000000012,,form submission,,,,,,,,,,,,,,,,,,,,,217944,217944,203293.48,203294,203304.3,217954.24,,,
Practice,flow.Sequence,2_1,2022-05-09T12:45:10.837Z,,,,,,,,,,,,,,,,,,,,,,,,,,,,,,,112439.16,,completion,,,,,,,,,,,,,,,,,,,,,217945,217944,105497.06,105502,105504.84,217954.24,,,
Trap_instruction,html.Page,2_2_0,2022-05-09T12:45:15.713Z,,,,,,,,,,,,,,,,,,,,,,,,,,,,,,,4866.760000000009,,form submission,,,,,,,,,,,,,,,,,,,,,222822,222821,217942.14,217945,217954.24,222853.84,,,
trap_trial,html.Screen,2_2_1,2022-05-09T12:45:21.821Z,,,,,,,,,,,,,,,,,,,,,,,,,,,,true,1,,6072.1600000000035,,response,,,,,,,,,,,1,click #choice-1,,,,,,,,,228928,228926,222818.08,222822,222853.84,228937.16,,,
end of trap trial,html.Page,2_2_2,2022-05-09T12:45:23.968Z,,,,,,,,,,,,,,,,,,,,,,,,,,,,,,,2137.8399999999965,,form submission,,,,,,,,,,,,,,,,,,,,,231075,231075,228927.58,228928,228937.16,231087.12,,,
Trap 1,flow.Sequence,2_2,2022-05-09T12:45:23.968Z,,,,,,,,,,,,,,,,,,,,,,,,,,,,,,,13120.76000000001,,completion,,,,,,,,,,,,,,,,,,,,,231075,231075,217942.14,217945,217954.24,231087.12,,,
Standby,html.Page,2_3_0,2022-05-09T12:45:31.964Z,,,,,,,,,,,,,,,,,,,,,,,,,,,,,,,7999.899999999994,,timeout,,,,,,,,,,,,,,,,,,,,,239072,239070.36,231073.52,231076,231087.12,239087.02,,,
Holding screen,html.Screen,2_3_1_0_0,2022-05-09T12:45:38.963Z,,,,,,,,,,,,,,,,,,,,,,,,,,,,,,,6999.960000000021,,timeout,,,,,,,,,,,,,,,,,,,,,246071,246070.3,239070.36,239072,239087.02,246086.98,,,
screen,html.Screen,2_3_1_0_1_0,2022-05-09T12:45:40.306Z,,,,,,,,,,,,,,,,,2,,,,,,,,,,,,,,1323.0199999999895,,response,,,,1,F,,,,,,Space,keypress(Space),,,,lyrical,,,,Two ---- ------ --- ------- ---------- ------- ----------<br>--- --------- --- ----------- ------- ----- ------- ---<br>--------- ---- -- --- ---- -- --------- -- ---- -------<br>-- --------- ------ --- ----- ------ ---- --- --------- --<br>------ - ---- -- --- ----------- ------- ---- ----- -----<br>--- -------- - ------ ---- -- ----- ---- --- --- -----------<br>-- -------,247414,247410,246070.3,246071,246086.98,247414.26,,0,Two
screen,html.Screen,2_3_1_0_1_1,2022-05-09T12:45:40.769Z,,,,,,,,,,,,,,,,,2,,,,,,,,,,,,,,448.7399999999907,,response,,,,1,F,,,,,,Space,keypress(Space),,,,lyrical,,,,--- days ------ --- ------- ---------- ------- ----------<br>--- --------- --- ----------- ------- ----- ------- ---<br>--------- ---- -- --- ---- -- --------- -- ---- -------<br>-- --------- ------ --- ----- ------ ---- --- --------- --<br>------ - ---- -- --- ----------- ------- ---- ----- -----<br>--- -------- - ------ ---- -- ----- ---- --- --- -----------<br>-- -------,247876,247863,247413.66,247414,247414.26,247876.24,,1,days
screen,html.Screen,2_3_1_0_1_2,2022-05-09T12:45:41.296Z,,,,,,,,,,,,,,,,,2,,,,,,,,,,,,,,517.7600000000093,,response,,,,1,F,,,,,,Space,keypress(Space),,,,lyrical,,,,"--- ---- later, --- ------- ---------- ------- ----------<br>--- --------- --- ----------- ------- ----- ------- ---<br>--------- ---- -- --- ---- -- --------- -- ---- -------<br>-- --------- ------ --- ----- ------ ---- --- --------- --<br>------ - ---- -- --- ----------- ------- ---- ----- -----<br>--- -------- - ------ ---- -- ----- ---- --- --- -----------<br>-- -------",248403,248394,247876.12,247876,247876.24,248403.78,,2,"later,"
screen,html.Screen,2_3_1_0_1_3,2022-05-09T12:45:41.817Z,,,,,,,,,,,,,,,,,2,,,,,,,,,,,,,,506.22000000000116,,response,,,,1,F,,,,,,Space,keypress(Space),,,,lyrical,,,,--- ---- ------ the ------- ---------- ------- ----------<br>--- --------- --- ----------- ------- ----- ------- ---<br>--------- ---- -- --- ---- -- --------- -- ---- -------<br>-- --------- ------ --- ----- ------ ---- --- --------- --<br>------ - ---- -- --- ----------- ------- ---- ----- -----<br>--- -------- - ------ ---- -- ----- ---- --- --- -----------<br>-- -------,248924,248910,248403.64,248403,248403.78,248924.92,,3,the
screen,html.Screen,2_3_1_0_1_4,2022-05-09T12:45:42.369Z,,,,,,,,,,,,,,,,,2,,,,,,,,,,,,,,547.0799999999872,,response,,,,1,F,,,,,,Space,keypress(Space),,,,lyrical,,,,--- ---- ------ --- British ---------- ------- ----------<br>--- --------- --- ----------- ------- ----- ------- ---<br>--------- ---- -- --- ---- -- --------- -- ---- -------<br>-- --------- ------ --- ----- ------ ---- --- --------- --<br>------ - ---- -- --- ----------- ------- ---- ----- -----<br>--- -------- - ------ ---- -- ----- ---- --- --- -----------<br>-- -------,249477,249472,248924.76,248924,248924.92,249476.58,,4,British
screen,html.Screen,2_3_1_0_1_5,2022-05-09T12:45:42.909Z,,,,,,,,,,,,,,,,,2,,,,,,,,,,,,,,528.4200000000128,,response,,,,1,F,,,,,,Space,keypress(Space),,,,lyrical,,,,--- ---- ------ --- ------- astronomer ------- ----------<br>--- --------- --- ----------- ------- ----- ------- ---<br>--------- ---- -- --- ---- -- --------- -- ---- -------<br>-- --------- ------ --- ----- ------ ---- --- --------- --<br>------ - ---- -- --- ----------- ------- ---- ----- -----<br>--- -------- - ------ ---- -- ----- ---- --- --- -----------<br>-- -------,250017,250005,249476.46,249477,249476.58,250017.54,,5,astronomer
screen,html.Screen,2_3_1_0_1_6,2022-05-09T12:45:43.433Z,,,,,,,,,,,,,,,,,2,,,,,,,,,,,,,,518.4599999999919,,response,,,,1,F,,,,,,Space,keypress(Space),,,,lyrical,,,,--- ---- ------ --- ------- ---------- Richard ----------<br>--- --------- --- ----------- ------- ----- ------- ---<br>--------- ---- -- --- ---- -- --------- -- ---- -------<br>-- --------- ------ --- ----- ------ ---- --- --------- --<br>------ - ---- -- --- ----------- ------- ---- ----- -----<br>--- -------- - ------ ---- -- ----- ---- --- --- -----------<br>-- -------,250540,250536,250017.4,250017,250017.54,250540.96,,6,Richard
screen,html.Screen,2_3_1_0_1_7,2022-05-09T12:45:43.976Z,,,,,,,,,,,,,,,,,2,,,,,,,,,,,,,,525.0400000000081,,response,,,,1,F,,,,,,Space,keypress(Space),,,,lyrical,,,,--- ---- ------ --- ------- ---------- ------- Carrington<br>--- --------- --- ----------- ------- ----- ------- ---<br>--------- ---- -- --- ---- -- --------- -- ---- -------<br>-- --------- ------ --- ----- ------ ---- --- --------- --<br>------ - ---- -- --- ----------- ------- ---- ----- -----<br>--- -------- - ------ ---- -- ----- ---- --- --- -----------<br>-- -------,251083,251066,250540.74,250540,250540.96,251083.46,,7,Carrington
screen,html.Screen,2_3_1_0_1_8,2022-05-09T12:45:44.538Z,,,,,,,,,,,,,,,,,2,,,,,,,,,,,,,,545.5400000000081,,response,,,,1,F,,,,,,Space,keypress(Space),,,,lyrical,,,,--- ---- ------ --- ------- ---------- ------- ----------<br>was --------- --- ----------- ------- ----- ------- ---<br>--------- ---- -- --- ---- -- --------- -- ---- -------<br>-- --------- ------ --- ----- ------ ---- --- --------- --<br>------ - ---- -- --- ----------- ------- ---- ----- -----<br>--- -------- - ------ ---- -- ----- ---- --- --- -----------<br>-- -------,251645,251629,251083.18,251083,251083.46,251645.76,,8,was
screen,html.Screen,2_3_1_0_1_9,2022-05-09T12:45:44.942Z,,,,,,,,,,,,,,,,,2,,,,,,,,,,,,,,390.2399999999907,,response,,,,1,F,,,,,,Space,keypress(Space),,,,lyrical,,,,--- ---- ------ --- ------- ---------- ------- ----------<br>--- observing --- ----------- ------- ----- ------- ---<br>--------- ---- -- --- ---- -- --------- -- ---- -------<br>-- --------- ------ --- ----- ------ ---- --- --------- --<br>------ - ---- -- --- ----------- ------- ---- ----- -----<br>--- -------- - ------ ---- -- ----- ---- --- --- -----------<br>-- -------,252050,252036,251645.64,251645,251645.76,252050.9,,9,observing
screen,html.Screen,2_3_1_0_1_10,2022-05-09T12:45:45.412Z,,,,,,,,,,,,,,,,,2,,,,,,,,,,,,,,453.1000000000058,,response,,,,1,F,,,,,,Space,keypress(Space),,,,lyrical,,,,--- ---- ------ --- ------- ---------- ------- ----------<br>--- --------- the ----------- ------- ----- ------- ---<br>--------- ---- -- --- ---- -- --------- -- ---- -------<br>-- --------- ------ --- ----- ------ ---- --- --------- --<br>------ - ---- -- --- ----------- ------- ---- ----- -----<br>--- -------- - ------ ---- -- ----- ---- --- --- -----------<br>-- -------,252520,252504,252050.64,252051,252050.9,252520.36,,10,the
screen,html.Screen,2_3_1_0_1_11,2022-05-09T12:45:46.043Z,,,,,,,,,,,,,,,,,2,,,,,,,,,,,,,,623.640000000014,,response,,,,1,F,,,,,,Space,keypress(Space),,,,lyrical,,,,--- ---- ------ --- ------- ---------- ------- ----------<br>--- --------- --- interesting ------- ----- ------- ---<br>--------- ---- -- --- ---- -- --------- -- ---- -------<br>-- --------- ------ --- ----- ------ ---- --- --------- --<br>------ - ---- -- --- ----------- ------- ---- ----- -----<br>--- -------- - ------ ---- -- ----- ---- --- --- -----------<br>-- -------,253150,253144,252520.14,252520,252520.36,253150.44,,11,interesting
screen,html.Screen,2_3_1_0_1_12,2022-05-09T12:45:46.487Z,,,,,,,,,,,,,,,,,2,,,,,,,,,,,,,,431.5599999999977,,response,,,,1,F,,,,,,Space,keypress(Space),,,,lyrical,,,,--- ---- ------ --- ------- ---------- ------- ----------<br>--- --------- --- ----------- sunspot ----- ------- ---<br>--------- ---- -- --- ---- -- --------- -- ---- -------<br>-- --------- ------ --- ----- ------ ---- --- --------- --<br>------ - ---- -- --- ----------- ------- ---- ----- -----<br>--- -------- - ------ ---- -- ----- ---- --- --- -----------<br>-- -------,253595,253582,253150.24,253150,253150.44,253595.24,,12,sunspot
screen,html.Screen,2_3_1_0_1_13,2022-05-09T12:45:46.905Z,,,,,,,,,,,,,,,,,2,,,,,,,,,,,,,,408.7600000000093,,response,,,,1,F,,,,,,Space,keypress(Space),,,,lyrical,,,,--- ---- ------ --- ------- ---------- ------- ----------<br>--- --------- --- ----------- ------- group ------- ---<br>--------- ---- -- --- ---- -- --------- -- ---- -------<br>-- --------- ------ --- ----- ------ ---- --- --------- --<br>------ - ---- -- --- ----------- ------- ---- ----- -----<br>--- -------- - ------ ---- -- ----- ---- --- --- -----------<br>-- -------,254013,254004,253595.12,253595,253595.24,254013.08,,13,group
screen,html.Screen,2_3_1_0_1_14,2022-05-09T12:45:47.369Z,,,,,,,,,,,,,,,,,2,,,,,,,,,,,,,,458.9200000000128,,response,,,,1,F,,,,,,Space,keypress(Space),,,,lyrical,,,,--- ---- ------ --- ------- ---------- ------- ----------<br>--- --------- --- ----------- ------- ----- through ---<br>--------- ---- -- --- ---- -- --------- -- ---- -------<br>-- --------- ------ --- ----- ------ ---- --- --------- --<br>------ - ---- -- --- ----------- ------- ---- ----- -----<br>--- -------- - ------ ---- -- ----- ---- --- --- -----------<br>-- -------,254477,254472,254012.92,254013,254013.08,254477.32,,14,through
screen,html.Screen,2_3_1_0_1_15,2022-05-09T12:45:47.843Z,,,,,,,,,,,,,,,,,2,,,,,,,,,,,,,,464.679999999993,,response,,,,1,F,,,,,,Space,keypress(Space),,,,lyrical,,,,--- ---- ------ --- ------- ---------- ------- ----------<br>--- --------- --- ----------- ------- ----- ------- his<br>--------- ---- -- --- ---- -- --------- -- ---- -------<br>-- --------- ------ --- ----- ------ ---- --- --------- --<br>------ - ---- -- --- ----------- ------- ---- ----- -----<br>--- -------- - ------ ---- -- ----- ---- --- --- -----------<br>-- -------,254950,254942,254477.16,254477,254477.32,254950.9,,15,his
screen,html.Screen,2_3_1_0_1_16,2022-05-09T12:45:48.481Z,,,,,,,,,,,,,,,,,2,,,,,,,,,,,,,,631.1000000000058,,response,,,,1,F,,,,,,Space,keypress(Space),,,,lyrical,,,,--- ---- ------ --- ------- ---------- ------- ----------<br>--- --------- --- ----------- ------- ----- ------- ---<br>telescope ---- -- --- ---- -- --------- -- ---- -------<br>-- --------- ------ --- ----- ------ ---- --- --------- --<br>------ - ---- -- --- ----------- ------- ---- ----- -----<br>--- -------- - ------ ---- -- ----- ---- --- --- -----------<br>-- -------,255588,255582,254950.74,254950,254950.9,255588.5,,16,telescope
screen,html.Screen,2_3_1_0_1_17,2022-05-09T12:45:48.904Z,,,,,,,,,,,,,,,,,2,,,,,,,,,,,,,,415.5,,response,,,,1,F,,,,,,Space,keypress(Space),,,,lyrical,,,,--- ---- ------ --- ------- ---------- ------- ----------<br>--- --------- --- ----------- ------- ----- ------- ---<br>--------- when -- --- ---- -- --------- -- ---- -------<br>-- --------- ------ --- ----- ------ ---- --- --------- --<br>------ - ---- -- --- ----------- ------- ---- ----- -----<br>--- -------- - ------ ---- -- ----- ---- --- --- -----------<br>-- -------,256011,256004,255588.26,255588,255588.5,256011.48,,17,when
screen,html.Screen,2_3_1_0_1_18,2022-05-09T12:45:49.309Z,,,,,,,,,,,,,,,,,2,,,,,,,,,,,,,,398.5199999999895,,response,,,,1,F,,,,,,Space,keypress(Space),,,,lyrical,,,,--- ---- ------ --- ------- ---------- ------- ----------<br>--- --------- --- ----------- ------- ----- ------- ---<br>--------- ---- he --- ---- -- --------- -- ---- -------<br>-- --------- ------ --- ----- ------ ---- --- --------- --<br>------ - ---- -- --- ----------- ------- ---- ----- -----<br>--- -------- - ------ ---- -- ----- ---- --- --- -----------<br>-- -------,256418,256410,256011.34,256012,256011.48,256417.78,,18,he
screen,html.Screen,2_3_1_0_1_19,2022-05-09T12:45:49.716Z,,,,,,,,,,,,,,,,,2,,,,,,,,,,,,,,398.22000000000116,,response,,,,1,F,,,,,,Space,keypress(Space),,,,lyrical,,,,--- ---- ------ --- ------- ---------- ------- ----------<br>--- --------- --- ----------- ------- ----- ------- ---<br>--------- ---- -- saw ---- -- --------- -- ---- -------<br>-- --------- ------ --- ----- ------ ---- --- --------- --<br>------ - ---- -- --- ----------- ------- ---- ----- -----<br>--- -------- - ------ ---- -- ----- ---- --- --- -----------<br>-- -------,256824,256816,256417.64,256418,256417.78,256824.68,,19,saw
screen,html.Screen,2_3_1_0_1_20,2022-05-09T12:45:50.120Z,,,,,,,,,,,,,,,,,2,,,,,,,,,,,,,,398.320000000007,,response,,,,1,F,,,,,,Space,keypress(Space),,,,lyrical,,,,--- ---- ------ --- ------- ---------- ------- ----------<br>--- --------- --- ----------- ------- ----- ------- ---<br>--------- ---- -- --- what -- --------- -- ---- -------<br>-- --------- ------ --- ----- ------ ---- --- --------- --<br>------ - ---- -- --- ----------- ------- ---- ----- -----<br>--- -------- - ------ ---- -- ----- ---- --- --- -----------<br>-- -------,257227,257223,256824.44,256824,256824.68,257227.44,,20,what
screen,html.Screen,2_3_1_0_1_21,2022-05-09T12:45:50.525Z,,,,,,,,,,,,,,,,,2,,,,,,,,,,,,,,401.5599999999977,,response,,,,1,F,,,,,,Space,keypress(Space),,,,lyrical,,,,--- ---- ------ --- ------- ---------- ------- ----------<br>--- --------- --- ----------- ------- ----- ------- ---<br>--------- ---- -- --- ---- he --------- -- ---- -------<br>-- --------- ------ --- ----- ------ ---- --- --------- --<br>------ - ---- -- --- ----------- ------- ---- ----- -----<br>--- -------- - ------ ---- -- ----- ---- --- --- -----------<br>-- -------,257632,257629,257227.3,257227,257227.44,257632.84,,21,he
screen,html.Screen,2_3_1_0_1_22,2022-05-09T12:45:50.980Z,,,,,,,,,,,,,,,,,2,,,,,,,,,,,,,,449.1600000000035,,response,,,,1,F,,,,,,Space,keypress(Space),,,,lyrical,,,,--- ---- ------ --- ------- ---------- ------- ----------<br>--- --------- --- ----------- ------- ----- ------- ---<br>--------- ---- -- --- ---- -- described -- ---- -------<br>-- --------- ------ --- ----- ------ ---- --- --------- --<br>------ - ---- -- --- ----------- ------- ---- ----- -----<br>--- -------- - ------ ---- -- ----- ---- --- --- -----------<br>-- -------,258088,258082,257632.72,257632,257632.84,258087.76,,22,described
screen,html.Screen,2_3_1_0_1_23,2022-05-09T12:45:51.485Z,,,,,,,,,,,,,,,,,2,,,,,,,,,,,,,,495.2399999999907,,response,,,,1,F,,,,,,Space,keypress(Space),,,,lyrical,,,,--- ---- ------ --- ------- ---------- ------- ----------<br>--- --------- --- ----------- ------- ----- ------- ---<br>--------- ---- -- --- ---- -- --------- as ---- -------<br>-- --------- ------ --- ----- ------ ---- --- --------- --<br>------ - ---- -- --- ----------- ------- ---- ----- -----<br>--- -------- - ------ ---- -- ----- ---- --- --- -----------<br>-- -------,258592,258583,258087.58,258088,258087.76,258592.5,,23,as
screen,html.Screen,2_3_1_0_1_24,2022-05-09T12:45:51.744Z,,,,,,,,,,,,,,,,,2,,,,,,,,,,,,,,254.5,,response,,,,1,F,,,,,,Space,keypress(Space),,,,lyrical,,,,"--- ---- ------ --- ------- ---------- ------- ----------<br>--- --------- --- ----------- ------- ----- ------- ---<br>--------- ---- -- --- ---- -- --------- -- ""two -------<br>-- --------- ------ --- ----- ------ ---- --- --------- --<br>------ - ---- -- --- ----------- ------- ---- ----- -----<br>--- -------- - ------ ---- -- ----- ---- --- --- -----------<br>-- -------",258852,258847,258592.36,258592,258592.5,258851.78,,24,"""two"
screen,html.Screen,2_3_1_0_1_25,2022-05-09T12:45:52.320Z,,,,,,,,,,,,,,,,,2,,,,,,,,,,,,,,575.2200000000012,,response,,,,1,F,,,,,,Space,keypress(Space),,,,lyrical,,,,--- ---- ------ --- ------- ---------- ------- ----------<br>--- --------- --- ----------- ------- ----- ------- ---<br>--------- ---- -- --- ---- -- --------- -- ---- patches<br>-- --------- ------ --- ----- ------ ---- --- --------- --<br>------ - ---- -- --- ----------- ------- ---- ----- -----<br>--- -------- - ------ ---- -- ----- ---- --- --- -----------<br>-- -------,259428,259427,258851.66,258852,258851.78,259427.82,,25,patches
screen,html.Screen,2_3_1_0_1_26,2022-05-09T12:45:52.789Z,,,,,,,,,,,,,,,,,2,,,,,,,,,,,,,,466.179999999993,,response,,,,1,F,,,,,,Space,keypress(Space),,,,lyrical,,,,--- ---- ------ --- ------- ---------- ------- ----------<br>--- --------- --- ----------- ------- ----- ------- ---<br>--------- ---- -- --- ---- -- --------- -- ---- -------<br>of --------- ------ --- ----- ------ ---- --- --------- --<br>------ - ---- -- --- ----------- ------- ---- ----- -----<br>--- -------- - ------ ---- -- ----- ---- --- --- -----------<br>-- -------,259897,259894,259427.68,259428,259427.82,259903.96,,26,of
screen,html.Screen,2_3_1_0_1_27,2022-05-09T12:45:53.280Z,,,,,,,,,,,,,,,,,2,,,,,,,,,,,,,,476.04000000000815,,response,,,,1,F,,,,,,Space,keypress(Space),,,,lyrical,,,,--- ---- ------ --- ------- ---------- ------- ----------<br>--- --------- --- ----------- ------- ----- ------- ---<br>--------- ---- -- --- ---- -- --------- -- ---- -------<br>-- intensely ------ --- ----- ------ ---- --- --------- --<br>------ - ---- -- --- ----------- ------- ---- ----- -----<br>--- -------- - ------ ---- -- ----- ---- --- --- -----------<br>-- -------,260388,260380,259897.1,259897,259903.96,260387.4,,27,intensely
screen,html.Screen,2_3_1_0_1_28,2022-05-09T12:45:53.786Z,,,,,,,,,,,,,,,,,2,,,,,,,,,,,,,,491.6000000000058,,response,,,,1,F,,,,,,Space,keypress(Space),,,,lyrical,,,,--- ---- ------ --- ------- ---------- ------- ----------<br>--- --------- --- ----------- ------- ----- ------- ---<br>--------- ---- -- --- ---- -- --------- -- ---- -------<br>-- --------- bright --- ----- ------ ---- --- --------- --<br>------ - ---- -- --- ----------- ------- ---- ----- -----<br>--- -------- - ------ ---- -- ----- ---- --- --- -----------<br>-- -------,260893,260879,260387.22,260388,260387.4,260903.86,,28,bright
screen,html.Screen,2_3_1_0_1_29,2022-05-09T12:45:54.405Z,,,,,,,,,,,,,,,,,2,,,,,,,,,,,,,,601.140000000014,,response,,,,1,F,,,,,,Space,keypress(Space),,,,lyrical,,,,--- ---- ------ --- ------- ---------- ------- ----------<br>--- --------- --- ----------- ------- ----- ------- ---<br>--------- ---- -- --- ---- -- --------- -- ---- -------<br>-- --------- ------ and ----- ------ ---- --- --------- --<br>------ - ---- -- --- ----------- ------- ---- ----- -----<br>--- -------- - ------ ---- -- ----- ---- --- --- -----------<br>-- -------,261513,261505,260893.74,260893,260903.86,261513.02,,29,and
screen,html.Screen,2_3_1_0_1_30,2022-05-09T12:45:55.087Z,,,,,,,,,,,,,,,,,2,,,,,,,,,,,,,,678.9800000000105,,response,,,,1,F,,,,,,Space,keypress(Space),,,,lyrical,,,,--- ---- ------ --- ------- ---------- ------- ----------<br>--- --------- --- ----------- ------- ----- ------- ---<br>--------- ---- -- --- ---- -- --------- -- ---- -------<br>-- --------- ------ --- white ------ ---- --- --------- --<br>------ - ---- -- --- ----------- ------- ---- ----- -----<br>--- -------- - ------ ---- -- ----- ---- --- --- -----------<br>-- -------,262195,262192,261512.9,261513,261513.02,262194.98,,30,white
screen,html.Screen,2_3_1_0_1_31,2022-05-09T12:45:55.845Z,,,,,,,,,,,,,,,,,2,,,,,,,,,,,,,,747.0200000000186,,response,,,,1,F,,,,,,Space,keypress(Space),,,,lyrical,,,,"--- ---- ------ --- ------- ---------- ------- ----------<br>--- --------- --- ----------- ------- ----- ------- ---<br>--------- ---- -- --- ---- -- --------- -- ---- -------<br>-- --------- ------ --- ----- light"" ---- --- --------- --<br>------ - ---- -- --- ----------- ------- ---- ----- -----<br>--- -------- - ------ ---- -- ----- ---- --- --- -----------<br>-- -------",262953,262942,262194.78,262195,262194.98,262953.52,,31,"light"""
screen,html.Screen,2_3_1_0_1_32,2022-05-09T12:45:56.266Z,,,,,,,,,,,,,,,,,2,,,,,,,,,,,,,,409.4799999999814,,response,,,,1,F,,,,,,Space,keypress(Space),,,,lyrical,,,,--- ---- ------ --- ------- ---------- ------- ----------<br>--- --------- --- ----------- ------- ----- ------- ---<br>--------- ---- -- --- ---- -- --------- -- ---- -------<br>-- --------- ------ --- ----- ------ over --- --------- --<br>------ - ---- -- --- ----------- ------- ---- ----- -----<br>--- -------- - ------ ---- -- ----- ---- --- --- -----------<br>-- -------,263373,263363,262953.4,262953,262953.52,263373.76,,32,over
screen,html.Screen,2_3_1_0_1_33,2022-05-09T12:45:56.642Z,,,,,,,,,,,,,,,,,2,,,,,,,,,,,,,,364.2399999999907,,response,,,,1,F,,,,,,Space,keypress(Space),,,,lyrical,,,,--- ---- ------ --- ------- ---------- ------- ----------<br>--- --------- --- ----------- ------- ----- ------- ---<br>--------- ---- -- --- ---- -- --------- -- ---- -------<br>-- --------- ------ --- ----- ------ ---- the --------- --<br>------ - ---- -- --- ----------- ------- ---- ----- -----<br>--- -------- - ------ ---- -- ----- ---- --- --- -----------<br>-- -------,263750,263738,263373.62,263373,263373.76,263749.86,,33,the
screen,html.Screen,2_3_1_0_1_34,2022-05-09T12:45:57.028Z,,,,,,,,,,,,,,,,,2,,,,,,,,,,,,,,379.14000000001397,,response,,,,1,F,,,,,,Space,keypress(Space),,,,lyrical,,,,--- ---- ------ --- ------- ---------- ------- ----------<br>--- --------- --- ----------- ------- ----- ------- ---<br>--------- ---- -- --- ---- -- --------- -- ---- -------<br>-- --------- ------ --- ----- ------ ---- --- sunspots. --<br>------ - ---- -- --- ----------- ------- ---- ----- -----<br>--- -------- - ------ ---- -- ----- ---- --- --- -----------<br>-- -------,264136,264129,263749.7,263750,263749.86,264135.96,,34,sunspots.
screen,html.Screen,2_3_1_0_1_35,2022-05-09T12:45:57.583Z,,,,,,,,,,,,,,,,,2,,,,,,,,,,,,,,540.039999999979,,response,,,,1,F,,,,,,Space,keypress(Space),,,,lyrical,,,,--- ---- ------ --- ------- ---------- ------- ----------<br>--- --------- --- ----------- ------- ----- ------- ---<br>--------- ---- -- --- ---- -- --------- -- ---- -------<br>-- --------- ------ --- ----- ------ ---- --- --------- He<br>------ - ---- -- --- ----------- ------- ---- ----- -----<br>--- -------- - ------ ---- -- ----- ---- --- --- -----------<br>-- -------,264691,264676,264135.82,264136,264135.96,264691.1,,35,He
screen,html.Screen,2_3_1_0_1_36,2022-05-09T12:45:58.209Z,,,,,,,,,,,,,,,,,2,,,,,,,,,,,,,,610.9000000000233,,response,,,,1,F,,,,,,Space,keypress(Space),,,,lyrical,,,,--- ---- ------ --- ------- ---------- ------- ----------<br>--- --------- --- ----------- ------- ----- ------- ---<br>--------- ---- -- --- ---- -- --------- -- ---- -------<br>-- --------- ------ --- ----- ------ ---- --- --------- --<br>jotted - ---- -- --- ----------- ------- ---- ----- -----<br>--- -------- - ------ ---- -- ----- ---- --- --- -----------<br>-- -------,265317,265302,264690.98,264691,264691.1,265317.02,,36,jotted
screen,html.Screen,2_3_1_0_1_37,2022-05-09T12:45:58.615Z,,,,,,,,,,,,,,,,,2,,,,,,,,,,,,,,389.9799999999814,,response,,,,1,F,,,,,,Space,keypress(Space),,,,lyrical,,,,--- ---- ------ --- ------- ---------- ------- ----------<br>--- --------- --- ----------- ------- ----- ------- ---<br>--------- ---- -- --- ---- -- --------- -- ---- -------<br>-- --------- ------ --- ----- ------ ---- --- --------- --<br>------ a ---- -- --- ----------- ------- ---- ----- -----<br>--- -------- - ------ ---- -- ----- ---- --- --- -----------<br>-- -------,265722,265707,265316.86,265317,265317.02,265722.86,,37,a
screen,html.Screen,2_3_1_0_1_38,2022-05-09T12:45:59.010Z,,,,,,,,,,,,,,,,,2,,,,,,,,,,,,,,390.14000000001397,,response,,,,1,F,,,,,,Space,keypress(Space),,,,lyrical,,,,--- ---- ------ --- ------- ---------- ------- ----------<br>--- --------- --- ----------- ------- ----- ------- ---<br>--------- ---- -- --- ---- -- --------- -- ---- -------<br>-- --------- ------ --- ----- ------ ---- --- --------- --<br>------ - note -- --- ----------- ------- ---- ----- -----<br>--- -------- - ------ ---- -- ----- ---- --- --- -----------<br>-- -------,266118,266113,265722.66,265723,265722.86,266120.12,,38,note
screen,html.Screen,2_3_1_0_1_39,2022-05-09T12:45:59.560Z,,,,,,,,,,,,,,,,,2,,,,,,,,,,,,,,539.8800000000047,,response,,,,1,F,,,,,,Space,keypress(Space),,,,lyrical,,,,--- ---- ------ --- ------- ---------- ------- ----------<br>--- --------- --- ----------- ------- ----- ------- ---<br>--------- ---- -- --- ---- -- --------- -- ---- -------<br>-- --------- ------ --- ----- ------ ---- --- --------- --<br>------ - ---- in --- ----------- ------- ---- ----- -----<br>--- -------- - ------ ---- -- ----- ---- --- --- -----------<br>-- -------,266668,266660,266118.4,266118,266120.12,266668.32,,39,in
screen,html.Screen,2_3_1_0_1_40,2022-05-09T12:45:59.966Z,,,,,,,,,,,,,,,,,2,,,,,,,,,,,,,,398.679999999993,,response,,,,1,F,,,,,,Space,keypress(Space),,,,lyrical,,,,--- ---- ------ --- ------- ---------- ------- ----------<br>--- --------- --- ----------- ------- ----- ------- ---<br>--------- ---- -- --- ---- -- --------- -- ---- -------<br>-- --------- ------ --- ----- ------ ---- --- --------- --<br>------ - ---- -- his ----------- ------- ---- ----- -----<br>--- -------- - ------ ---- -- ----- ---- --- --- -----------<br>-- -------,267074,267067,266668.18,266668,266668.32,267074.56,,40,his
screen,html.Screen,2_3_1_0_1_41,2022-05-09T12:46:00.615Z,,,,,,,,,,,,,,,,,2,,,,,,,,,,,,,,632.4400000000023,,response,,,,1,F,,,,,,Space,keypress(Space),,,,lyrical,,,,--- ---- ------ --- ------- ---------- ------- ----------<br>--- --------- --- ----------- ------- ----- ------- ---<br>--------- ---- -- --- ---- -- --------- -- ---- -------<br>-- --------- ------ --- ----- ------ ---- --- --------- --<br>------ - ---- -- --- painstaking ------- ---- ----- -----<br>--- -------- - ------ ---- -- ----- ---- --- --- -----------<br>-- -------,267723,267707,267074.4,267074,267074.56,267722.96,,41,painstaking
screen,html.Screen,2_3_1_0_1_42,2022-05-09T12:46:01.068Z,,,,,,,,,,,,,,,,,2,,,,,,,,,,,,,,437.03999999997905,,response,,,,1,F,,,,,,Space,keypress(Space),,,,lyrical,,,,--- ---- ------ --- ------- ---------- ------- ----------<br>--- --------- --- ----------- ------- ----- ------- ---<br>--------- ---- -- --- ---- -- --------- -- ---- -------<br>-- --------- ------ --- ----- ------ ---- --- --------- --<br>------ - ---- -- --- ----------- record. ---- ----- -----<br>--- -------- - ------ ---- -- ----- ---- --- --- -----------<br>-- -------,268176,268160,267722.84,267723,267722.96,268176.6,,42,record.
screen,html.Screen,2_3_1_0_1_43,2022-05-09T12:46:01.618Z,,,,,,,,,,,,,,,,,2,,,,,,,,,,,,,,546.4000000000233,,response,,,,1,F,,,,,,Space,keypress(Space),,,,lyrical,,,,--- ---- ------ --- ------- ---------- ------- ----------<br>--- --------- --- ----------- ------- ----- ------- ---<br>--------- ---- -- --- ---- -- --------- -- ---- -------<br>-- --------- ------ --- ----- ------ ---- --- --------- --<br>------ - ---- -- --- ----------- ------- That ----- -----<br>--- -------- - ------ ---- -- ----- ---- --- --- -----------<br>-- -------,268726,268723,268176.46,268176,268176.6,268726.32,,43,That
screen,html.Screen,2_3_1_0_1_44,2022-05-09T12:46:02.108Z,,,,,,,,,,,,,,,,,2,,,,,,,,,,,,,,480.679999999993,,response,,,,1,F,,,,,,Space,keypress(Space),,,,lyrical,,,,--- ---- ------ --- ------- ---------- ------- ----------<br>--- --------- --- ----------- ------- ----- ------- ---<br>--------- ---- -- --- ---- -- --------- -- ---- -------<br>-- --------- ------ --- ----- ------ ---- --- --------- --<br>------ - ---- -- --- ----------- ------- ---- night -----<br>--- -------- - ------ ---- -- ----- ---- --- --- -----------<br>-- -------,269216,269207,268726.2,268726,268726.32,269216.18,,44,night
screen,html.Screen,2_3_1_0_1_45,2022-05-09T12:46:02.576Z,,,,,,,,,,,,,,,,,2,,,,,,,,,,,,,,459.820000000007,,response,,,,1,F,,,,,,Space,keypress(Space),,,,lyrical,,,,--- ---- ------ --- ------- ---------- ------- ----------<br>--- --------- --- ----------- ------- ----- ------- ---<br>--------- ---- -- --- ---- -- --------- -- ---- -------<br>-- --------- ------ --- ----- ------ ---- --- --------- --<br>------ - ---- -- --- ----------- ------- ---- ----- there<br>--- -------- - ------ ---- -- ----- ---- --- --- -----------<br>-- -------,269684,269676,269216.02,269216,269216.18,269683.56,,45,there
screen,html.Screen,2_3_1_0_1_46,2022-05-09T12:46:03.104Z,,,,,,,,,,,,,,,,,2,,,,,,,,,,,,,,523.4400000000023,,response,,,,1,F,,,,,,Space,keypress(Space),,,,lyrical,,,,--- ---- ------ --- ------- ---------- ------- ----------<br>--- --------- --- ----------- ------- ----- ------- ---<br>--------- ---- -- --- ---- -- --------- -- ---- -------<br>-- --------- ------ --- ----- ------ ---- --- --------- --<br>------ - ---- -- --- ----------- ------- ---- ----- -----<br>was -------- - ------ ---- -- ----- ---- --- --- -----------<br>-- -------,270212,270207,269683.42,269684,269683.56,270211.92,,46,was
screen,html.Screen,2_3_1_0_1_47,2022-05-09T12:46:03.583Z,,,,,,,,,,,,,,,,,2,,,,,,,,,,,,,,464.0800000000163,,response,,,,1,F,,,,,,Space,keypress(Space),,,,lyrical,,,,--- ---- ------ --- ------- ---------- ------- ----------<br>--- --------- --- ----------- ------- ----- ------- ---<br>--------- ---- -- --- ---- -- --------- -- ---- -------<br>-- --------- ------ --- ----- ------ ---- --- --------- --<br>------ - ---- -- --- ----------- ------- ---- ----- -----<br>--- scarcely - ------ ---- -- ----- ---- --- --- -----------<br>-- -------,270691,270676,270211.76,270212,270211.92,270690.52,,47,scarcely
screen,html.Screen,2_3_1_0_1_48,2022-05-09T12:46:04.041Z,,,,,,,,,,,,,,,,,2,,,,,,,,,,,,,,453.4799999999814,,response,,,,1,F,,,,,,Space,keypress(Space),,,,lyrical,,,,--- ---- ------ --- ------- ---------- ------- ----------<br>--- --------- --- ----------- ------- ----- ------- ---<br>--------- ---- -- --- ---- -- --------- -- ---- -------<br>-- --------- ------ --- ----- ------ ---- --- --------- --<br>------ - ---- -- --- ----------- ------- ---- ----- -----<br>--- -------- a ------ ---- -- ----- ---- --- --- -----------<br>-- -------,271150,271144,270690.32,270691,270690.52,271149.86,,48,a
