sender,sender_type,sender_id,timestamp,meta,,Blues,Classical,Country,Dance,Electronic,Folk,Gospel,Hip-Hop,Jazz,Latin,Musical/Film,New-age,Pop,Prolific_id,Provo_ID,R&B,Rap,Reggae,Religious,Rock,Soul,Swing,Traditional,age,artist_name,correct,correctResponse,distraction,duration,education,ended_on,familiarity,gender,headphone_check_performance,item,list,music_frequency,offensiveness,pleasantness,position_correct,preference,response,response_action,snippet_file,song_name,song_rating,sound,stimulus_1,stimulus_2,stimulus_3,text,time_commit,time_end,time_render,time_run,time_show,time_switch,url,word,word_ID
Prolific ID,html.Form,0,2022-05-03T19:56:39.969Z,"{""labjs_version"":""20.2.2"",""labjs_build"":{""flavor"":""production"",""commit"":""a25486e0c714a0ae2ce03ff94b7bb6896854dcfa""},""location"":""https://run.pavlovia.org/mvasilev/prolific3_music_a/"",""userAgent"":""Mozilla/5.0 (Windows NT 10.0; Win64; x64) AppleWebKit/537.36 (KHTML, like Gecko) Chrome/101.0.4951.54 Safari/537.36"",""platform"":""Win32"",""language"":""en-US"",""locale"":""en-GB"",""timeZone"":""Europe/London"",""timezoneOffset"":-60,""screen_width"":1536,""screen_height"":864,""scroll_width"":1536,""scroll_height"":674,""window_innerWidth"":1536,""window_innerHeight"":722,""devicePixelRatio"":1.25}",,,,,,,,,,,,,,,5eb05ee34ca8a81042c289ab,,,,,,,,,,,,,,,10427.990000000002,,form submission,,,,,,,,,,,,,,,,,,,,,31564.899999976158,31564.5,21120.147,21123.899999976158,21136.51,31564.597,{},,
Introduction,html.Screen,1_0,2022-05-03T19:56:45.079Z,,,,,,,,,,,,,,,,,,,,,,,,,,,,,,,5108.103000047682,,response,,,,,,,,,,,continue,click button,,,,,,,,,36674.799999952316,36672.700000047684,31547.833,31565.200000047684,31564.597,36686.859,,,
Volume calibration,html.Screen,1_1,2022-05-03T19:57:10.221Z,,,,,,,,,,,,,,,,,,,,,,,,,,,,,,,25127.04099997616,,response,,,,,,,,,,,continue,click button,,,,,,,,,61816.700000047684,61813.89999997616,36670.057,36675,36686.859,61831.026,,,
Task instructions,html.Screen,1_2,2022-05-03T19:57:17.980Z,,,,,,,,,,,,,,,,,,,,,,,,,,,,,,,7744.37399997616,,response,,,,,,,,,,,continue,click button,,,,,,,,,69576.10000002384,69575.39999997616,61814.219,61816.89999997616,61831.026,69589.522,,,
Sounds,html.Screen,1_3_0_0,2022-05-03T19:57:22.235Z,,,,,,,,,,,,,,,,,,,,,,,,,,,,,,,4254.665000000008,,timeout,,,,,,,,,1,,,,,,,,S,I,O,,73831.39999997616,73827.798,69572.753,69576.29999995232,69589.522,73844.187,,,
Judgement,html.Screen,1_3_0_1,2022-05-03T19:57:23.651Z,,,,,,,,,,,,,,,,,,,,,,,,,,,,true,1,,1402.3129999999946,,response,,,,,,,,,1,,1,click #choice-1,,,,,S,I,O,,75247.29999995232,75246.5,73827.798,73831.5,73844.187,75262.408,,,
Trial,flow.Sequence,1_3_0,2022-05-03T19:57:23.651Z,,,,,,,,,,,,,,,,,,,,,,,,,,,,,,,5656.978000000003,,completion,,,,,,,,,1,,,,,,,,S,I,O,,75247.5,75246.5,69572.753,69576.29999995232,69589.522,75262.408,,,
Sounds,html.Screen,1_3_1_0,2022-05-03T19:57:27.905Z,,,,,,,,,,,,,,,,,,,,,,,,,,,,,,,4254.622000000003,,timeout,,,,,,,,,1,,,,,,,,S,O,I,,79501,79500.39,75245.59,75247.70000004768,75262.408,79517.03,,,
Judgement,html.Screen,1_3_1_1,2022-05-03T19:57:28.545Z,,,,,,,,,,,,,,,,,,,,,,,,,,,,true,1,,622.9700000000012,,response,,,,,,,,,1,,1,click #choice-1,,,,,S,O,I,,80140.79999995232,80140,79500.39,79501.29999995232,79517.03,80151.074,,,
Trial,flow.Sequence,1_3_1,2022-05-03T19:57:28.545Z,,,,,,,,,,,,,,,,,,,,,,,,,,,,,,,4877.592000000004,,completion,,,,,,,,,1,,,,,,,,S,O,I,,80141,80140,75245.59,75247.60000002384,75262.408,80151.074,,,
Sounds,html.Screen,1_3_2_0,2022-05-03T19:57:32.794Z,,,,,,,,,,,,,,,,,,,,,,,,,,,,,,,4254.6340000000055,,timeout,,,,,,,,,3,,,,,,,,O,I,S,,84389.89999997616,84389.068,80134.314,80141.10000002384,80151.074,84405.708,,,
Judgement,html.Screen,1_3_2_1,2022-05-03T19:57:33.461Z,,,,,,,,,,,,,,,,,,,,,,,,,,,,true,3,,650.992000047685,,response,,,,,,,,,3,,3,click #choice-3,,,,,O,I,S,,85057.5,85056.70000004768,84389.068,84389.89999997616,84405.708,85073.137,,,
Trial,flow.Sequence,1_3_2,2022-05-03T19:57:33.462Z,,,,,,,,,,,,,,,,,,,,,,,,,,,,,,,4905.6260000476905,,completion,,,,,,,,,3,,,,,,,,O,I,S,,85057.70000004768,85056.70000004768,80134.314,80141.10000002384,80151.074,85073.137,,,
Sounds,html.Screen,1_3_3_0,2022-05-03T19:57:37.716Z,,,,,,,,,,,,,,,,,,,,,,,,,,,,,,,4254.630000000005,,timeout,,,,,,,,,2,,,,,,,,I,S,O,,89311.70000004768,89311.105,85056.384,85057.79999995232,85073.137,89327.767,,,
Judgement,html.Screen,1_3_3_1,2022-05-03T19:57:38.220Z,,,,,,,,,,,,,,,,,,,,,,,,,,,,true,2,,487.13299997615104,,response,,,,,,,,,2,,2,click #choice-2,,,,,I,S,O,,89815.70000004768,89814.89999997616,89311.105,89311.70000004768,89327.767,89828.389,,,
Trial,flow.Sequence,1_3_3,2022-05-03T19:57:38.220Z,,,,,,,,,,,,,,,,,,,,,,,,,,,,,,,4741.762999976156,,completion,,,,,,,,,2,,,,,,,,I,S,O,,89815.79999995232,89814.89999997616,85056.384,85057.79999995232,85073.137,89828.389,,,
Sounds,html.Screen,1_3_4_0,2022-05-03T19:57:42.471Z,,,,,,,,,,,,,,,,,,,,,,,,,,,,,,,4254.603000000003,,timeout,,,,,,,,,2,,,,,,,,O,S,I,,94067,94066.347,89811.566,89815.89999997616,89828.389,94082.992,,,
Judgement,html.Screen,1_3_4_1,2022-05-03T19:57:43.084Z,,,,,,,,,,,,,,,,,,,,,,,,,,,,true,2,,596.1080000238435,,response,,,,,,,,,2,,2,click #choice-2,,,,,O,S,I,,94680.10000002384,94679.10000002384,94066.347,94067.20000004768,94082.992,94683.635,,,
Trial,flow.Sequence,1_3_4,2022-05-03T19:57:43.084Z,,,,,,,,,,,,,,,,,,,,,,,,,,,,,,,4850.711000023846,,completion,,,,,,,,,2,,,,,,,,O,S,I,,94680.29999995232,94679.10000002384,89811.566,89815.89999997616,89828.389,94683.635,,,
Sounds,html.Screen,1_3_5_0,2022-05-03T19:57:47.326Z,,,,,,,,,,,,,,,,,,,,,,,,,,,,,,,4254.662000000011,,timeout,,,,,,,,,3,,,,,,,,I,O,S,,98922.20000004768,98921.61,94666.861,94680.29999995232,94683.635,98938.297,,,
Judgement,html.Screen,1_3_5_1,2022-05-03T19:57:47.833Z,,,,,,,,,,,,,,,,,,,,,,,,,,,,true,3,,489.50299995231035,,response,,,,,,,,,3,,3,click #choice-3,,,,,I,O,S,,99428.70000004768,99427.79999995232,98921.61,98922.29999995232,98938.297,99438.826,,,
Trial,flow.Sequence,1_3_5,2022-05-03T19:57:47.833Z,,,,,,,,,,,,,,,,,,,,,,,,,,,,,,,4744.1649999523215,,completion,,,,,,,,,3,,,,,,,,I,O,S,,99428.70000004768,99427.79999995232,94666.861,94680.29999995232,94683.635,99438.826,,,
Task,flow.Loop,1_3,2022-05-03T19:57:47.836Z,,,,,,,,,,,,,,,,,,,,,,,,,,,,,,,29838.27799995232,,completion,,,1,,,,,,,,,,,,,,,,,,99432.29999995232,99427.79999995232,69572.753,69576.20000004768,69589.522,99438.826,,,
Trap,html.Screen,1_4,2022-05-03T19:57:47.837Z,,,,,,,,,,,,,,,,,,,,,,,,,,,,,,,NaN,,skipped,,,,,,,,,,,,,,,,,,,,,99433.20000004768,99427.79999995232,,99433.10000002384,,99438.826,,,
Thanks,html.Screen,1_5,2022-05-03T19:57:51.454Z,,,,,,,,,,,,,,,,,,,,,,,,,,,,,,,3610.274000023841,,response,,,,,,,,,,,continue,click button,,,,,,,,,103050,103049.10000002384,99422.148,99433.29999995232,99438.826,108065.043,,,
Headphone screening,flow.Sequence,1,2022-05-03T19:57:51.454Z,,,,,,,,,,,,,,,,,,,,,,,,,,,,,,,71484.50300002383,,completion,,,,,,,,,,,,,,,,,,,,,103050,103049.10000002384,31547.833,31565.200000047684,31564.597,108065.043,,,
Instructions,html.Page,2_0,2022-05-03T19:58:03.039Z,,,,,,,,,,,,,,,,,,,,,,,,,,,,,,,6569.356999976153,,form submission,,,,,,,,,,,,,,,,,,,,,114634.79999995232,114634.39999997616,108048.281,108062.10000002384,108065.043,114638.863,,,
Holding screen,html.Screen,2_1_0_0,2022-05-03T19:58:13.022Z,,,,,,,,,,,,,,,,,,,,,,,,,,,,,,,9994.714000000007,,timeout,,,,,,,,,,,,,,,,,,,,,124617.79999995232,124616.961,114622.042,114635,114638.863,124633.577,,,
screen,html.Screen,2_1_0_1_0,2022-05-03T19:58:13.924Z,,,,,,,,,,,,,,,,,53,,,,,,,,,,,,,,884.1230000476789,,response,,,,99,,,,,,,Space,keypress(Space),,,,,,,,When -- ----- -- ------ - ------- --- ----------<br>------------- ------ ------ ---- ---- ------- ----- -- ----<br>-------- ------- -- ---------- --- - --- ----- ----- ----<br>---- --- --- ----- --- ---- ---- ------- ----- ---- -------<br>--- --- -- ----- -- --- ---- -- --- ---- -- ------ ------<br>--- ----- -- ----,125519.60000002384,125517.70000004768,124616.961,124618,124633.577,125534.245,,0,When
screen,html.Screen,2_1_0_1_1,2022-05-03T19:58:14.396Z,,,,,,,,,,,,,,,,,53,,,,,,,,,,,,,,456.4550000476884,,response,,,,99,,,,,,,Space,keypress(Space),,,,,,,,---- it ----- -- ------ - ------- --- ----------<br>------------- ------ ------ ---- ---- ------- ----- -- ----<br>-------- ------- -- ---------- --- - --- ----- ----- ----<br>---- --- --- ----- --- ---- ---- ------- ----- ---- -------<br>--- --- -- ----- -- --- ---- -- --- ---- -- ------ ------<br>--- ----- -- ----,125991.39999997616,125990.70000004768,125516.724,125519.70000004768,125534.245,126001.911,,1,it
screen,html.Screen,2_1_0_1_2,2022-05-03T19:58:15.239Z,,,,,,,,,,,,,,,,,53,,,,,,,,,,,,,,832.0890000000072,,response,,,,99,,,,,,,Space,keypress(Space),,,,,,,,---- -- comes -- ------ - ------- --- ----------<br>------------- ------ ------ ---- ---- ------- ----- -- ----<br>-------- ------- -- ---------- --- - --- ----- ----- ----<br>---- --- --- ----- --- ---- ---- ------- ----- ---- -------<br>--- --- -- ----- -- --- ---- -- --- ---- -- ------ ------<br>--- ----- -- ----,126834.39999997616,126834,125984.183,125991.60000002384,126001.911,126868.945,,2,comes
screen,html.Screen,2_1_0_1_3,2022-05-03T19:58:16.480Z,,,,,,,,,,,,,,,,,53,,,,,,,,,,,,,,1206.054999999993,,response,,,,99,,,,,,,Space,keypress(Space),,,,,,,,---- -- ----- to ------ - ------- --- ----------<br>------------- ------ ------ ---- ---- ------- ----- -- ----<br>-------- ------- -- ---------- --- - --- ----- ----- ----<br>---- --- --- ----- --- ---- ---- ------- ----- ---- -------<br>--- --- -- ----- -- --- ---- -- --- ---- -- ------ ------<br>--- ----- -- ----,128075.5,128075,126867.41,126834.5,126868.945,128087.554,,3,to
screen,html.Screen,2_1_0_1_4,2022-05-03T19:58:16.959Z,,,,,,,,,,,,,,,,,53,,,,,,,,,,,,,,465.9459999999963,,response,,,,99,,,,,,,Space,keypress(Space),,,,,,,,---- -- ----- -- having - ------- --- ----------<br>------------- ------ ------ ---- ---- ------- ----- -- ----<br>-------- ------- -- ---------- --- - --- ----- ----- ----<br>---- --- --- ----- --- ---- ---- ------- ----- ---- -------<br>--- --- -- ----- -- --- ---- -- --- ---- -- ------ ------<br>--- ----- -- ----,128554.29999995232,128553.5,128068.851,128075.60000002384,128087.554,128570.783,,4,having
screen,html.Screen,2_1_0_1_5,2022-05-03T19:58:17.346Z,,,,,,,,,,,,,,,,,53,,,,,,,,,,,,,,370.2170000000042,,response,,,,99,,,,,,,Space,keypress(Space),,,,,,,,---- -- ----- -- ------ a ------- --- ----------<br>------------- ------ ------ ---- ---- ------- ----- -- ----<br>-------- ------- -- ---------- --- - --- ----- ----- ----<br>---- --- --- ----- --- ---- ---- ------- ----- ---- -------<br>--- --- -- ----- -- --- ---- -- --- ---- -- ------ ------<br>--- ----- -- ----,128941.60000002384,128941,128554.23,128554.39999997616,128570.783,128955.036,,5,a
screen,html.Screen,2_1_0_1_6,2022-05-03T19:58:17.840Z,,,,,,,,,,,,,,,,,53,,,,,,,,,,,,,,479.2639999523235,,response,,,,99,,,,,,,Space,keypress(Space),,,,,,,,---- -- ----- -- ------ - lasting --- ----------<br>------------- ------ ------ ---- ---- ------- ----- -- ----<br>-------- ------- -- ---------- --- - --- ----- ----- ----<br>---- --- --- ----- --- ---- ---- ------- ----- ---- -------<br>--- --- -- ----- -- --- ---- -- --- ---- -- ------ ------<br>--- ----- -- ----,129435.10000002384,129434.29999995232,128937.517,128941.79999995232,128955.036,129438.349,,6,lasting
screen,html.Screen,2_1_0_1_7,2022-05-03T19:58:18.318Z,,,,,,,,,,,,,,,,,53,,,,,,,,,,,,,,474.4509999523143,,response,,,,99,,,,,,,Space,keypress(Space),,,,,,,,---- -- ----- -- ------ - ------- and ----------<br>------------- ------ ------ ---- ---- ------- ----- -- ----<br>-------- ------- -- ---------- --- - --- ----- ----- ----<br>---- --- --- ----- --- ---- ---- ------- ----- ---- -------<br>--- --- -- ----- -- --- ---- -- --- ---- -- ------ ------<br>--- ----- -- ----,129913.39999997616,129912.79999995232,129421.291,129435.20000004768,129438.349,129922.79,,7,and
screen,html.Screen,2_1_0_1_8,2022-05-03T19:58:18.956Z,,,,,,,,,,,,,,,,,53,,,,,,,,,,,,,,627.8100000238483,,response,,,,99,,,,,,,Space,keypress(Space),,,,,,,,---- -- ----- -- ------ - ------- --- fulfilling<br>------------- ------ ------ ---- ---- ------- ----- -- ----<br>-------- ------- -- ---------- --- - --- ----- ----- ----<br>---- --- --- ----- --- ---- ---- ------- ----- ---- -------<br>--- --- -- ----- -- --- ---- -- --- ---- -- ------ ------<br>--- ----- -- ----,130551.39999997616,130550.60000002384,129905.057,129913.39999997616,129922.79,130556.243,,8,fulfilling
screen,html.Screen,2_1_0_1_9,2022-05-03T19:58:19.726Z,,,,,,,,,,,,,,,,,53,,,,,,,,,,,,,,764.6569999761559,,response,,,,99,,,,,,,Space,keypress(Space),,,,,,,,"---- -- ----- -- ------ - ------- --- ----------<br>relationship, ------ ------ ---- ---- ------- ----- -- ----<br>-------- ------- -- ---------- --- - --- ----- ----- ----<br>---- --- --- ----- --- ---- ---- ------- ----- ---- -------<br>--- --- -- ----- -- --- ---- -- --- ---- -- ------ ------<br>--- ----- -- ----",131321.5,131320.89999997616,130539.491,130551.39999997616,130556.243,131323.76,,9,"relationship,"
screen,html.Screen,2_1_0_1_10,2022-05-03T19:58:20.205Z,,,,,,,,,,,,,,,,,53,,,,,,,,,,,,,,476.13999997614883,,response,,,,99,,,,,,,Space,keypress(Space),,,,,,,,---- -- ----- -- ------ - ------- --- ----------<br>------------- common ------ ---- ---- ------- ----- -- ----<br>-------- ------- -- ---------- --- - --- ----- ----- ----<br>---- --- --- ----- --- ---- ---- ------- ----- ---- -------<br>--- --- -- ----- -- --- ---- -- --- ---- -- ------ ------<br>--- ----- -- ----,131800.70000004768,131799.89999997616,131306.384,131321.60000002384,131323.76,131807.658,,10,common
screen,html.Screen,2_1_0_1_11,2022-05-03T19:58:20.492Z,,,,,,,,,,,,,,,,,53,,,,,,,,,,,,,,278.6419999523205,,response,,,,99,,,,,,,Space,keypress(Space),,,,,,,,---- -- ----- -- ------ - ------- --- ----------<br>------------- ------ wisdom ---- ---- ------- ----- -- ----<br>-------- ------- -- ---------- --- - --- ----- ----- ----<br>---- --- --- ----- --- ---- ---- ------- ----- ---- -------<br>--- --- -- ----- -- --- ---- -- --- ---- -- ------ ------<br>--- ----- -- ----,132087.10000002384,132086.29999995232,131790.818,131800.70000004768,131807.658,132091.261,,11,wisdom
screen,html.Screen,2_1_0_1_12,2022-05-03T19:58:20.844Z,,,,,,,,,,,,,,,,,53,,,,,,,,,,,,,,346.9390000476851,,response,,,,99,,,,,,,Space,keypress(Space),,,,,,,,---- -- ----- -- ------ - ------- --- ----------<br>------------- ------ ------ says ---- ------- ----- -- ----<br>-------- ------- -- ---------- --- - --- ----- ----- ----<br>---- --- --- ----- --- ---- ---- ------- ----- ---- -------<br>--- --- -- ----- -- --- ---- -- --- ---- -- ------ ------<br>--- ----- -- ----,132439.20000004768,132438.20000004768,132074.358,132087.29999995232,132091.261,132441.632,,12,says
screen,html.Screen,2_1_0_1_13,2022-05-03T19:58:21.170Z,,,,,,,,,,,,,,,,,53,,,,,,,,,,,,,,323.4680000238295,,response,,,,99,,,,,,,Space,keypress(Space),,,,,,,,---- -- ----- -- ------ - ------- --- ----------<br>------------- ------ ------ ---- that ------- ----- -- ----<br>-------- ------- -- ---------- --- - --- ----- ----- ----<br>---- --- --- ----- --- ---- ---- ------- ----- ---- -------<br>--- --- -- ----- -- --- ---- -- --- ---- -- ------ ------<br>--- ----- -- ----,132765.89999997616,132765.10000002384,132425.228,132439.39999997616,132441.632,132775.925,,13,that
screen,html.Screen,2_1_0_1_14,2022-05-03T19:58:21.507Z,,,,,,,,,,,,,,,,,53,,,,,,,,,,,,,,325.6750000238535,,response,,,,99,,,,,,,Space,keypress(Space),,,,,,,,---- -- ----- -- ------ - ------- --- ----------<br>------------- ------ ------ ---- ---- feeling ----- -- ----<br>-------- ------- -- ---------- --- - --- ----- ----- ----<br>---- --- --- ----- --- ---- ---- ------- ----- ---- -------<br>--- --- -- ----- -- --- ---- -- --- ---- -- ------ ------<br>--- ----- -- ----,133102.10000002384,133101.60000002384,132758.94,132765.89999997616,132775.925,133109.021,,14,feeling
screen,html.Screen,2_1_0_1_15,2022-05-03T19:58:21.895Z,,,,,,,,,,,,,,,,,53,,,,,,,,,,,,,,380.77899995230837,,response,,,,99,,,,,,,Space,keypress(Space),,,,,,,,---- -- ----- -- ------ - ------- --- ----------<br>------------- ------ ------ ---- ---- ------- close -- ----<br>-------- ------- -- ---------- --- - --- ----- ----- ----<br>---- --- --- ----- --- ---- ---- ------- ----- ---- -------<br>--- --- -- ----- -- --- ---- -- --- ---- -- ------ ------<br>--- ----- -- ----,133490.5,133489.79999995232,133092.654,133102.20000004768,133109.021,133492.801,,15,close
screen,html.Screen,2_1_0_1_16,2022-05-03T19:58:22.705Z,,,,,,,,,,,,,,,,,53,,,,,,,,,,,,,,807.2990000238351,,response,,,,99,,,,,,,Space,keypress(Space),,,,,,,,---- -- ----- -- ------ - ------- --- ----------<br>------------- ------ ------ ---- ---- ------- ----- to ----<br>-------- ------- -- ---------- --- - --- ----- ----- ----<br>---- --- --- ----- --- ---- ---- ------- ----- ---- -------<br>--- --- -- ----- -- --- ---- -- --- ---- -- ------ ------<br>--- ----- -- ----,134300.79999995232,134300.10000002384,133476.407,133490.60000002384,133492.801,134310.458,,16,to
screen,html.Screen,2_1_0_1_17,2022-05-03T19:58:23.133Z,,,,,,,,,,,,,,,,,53,,,,,,,,,,,,,,417.1420000238286,,response,,,,99,,,,,,,Space,keypress(Space),,,,,,,,---- -- ----- -- ------ - ------- --- ----------<br>------------- ------ ------ ---- ---- ------- ----- -- your<br>-------- ------- -- ---------- --- - --- ----- ----- ----<br>---- --- --- ----- --- ---- ---- ------- ----- ---- -------<br>--- --- -- ----- -- --- ---- -- --- ---- -- ------ ------<br>--- ----- -- ----,134728.29999995232,134727.60000002384,134293.36,134301,134310.458,134744.187,,17,your
screen,html.Screen,2_1_0_1_18,2022-05-03T19:58:23.583Z,,,,,,,,,,,,,,,,,53,,,,,,,,,,,,,,433.2129999761528,,response,,,,99,,,,,,,Space,keypress(Space),,,,,,,,---- -- ----- -- ------ - ------- --- ----------<br>------------- ------ ------ ---- ---- ------- ----- -- ----<br>romantic ------- -- ---------- --- - --- ----- ----- ----<br>---- --- --- ----- --- ---- ---- ------- ----- ---- -------<br>--- --- -- ----- -- --- ---- -- --- ---- -- ------ ------<br>--- ----- -- ----,135178.29999995232,135177.39999997616,134727.232,134728.29999995232,134744.187,135195.238,,18,romantic
screen,html.Screen,2_1_0_1_19,2022-05-03T19:58:23.980Z,,,,,,,,,,,,,,,,,53,,,,,,,,,,,,,,379.7619999999879,,response,,,,99,,,,,,,Space,keypress(Space),,,,,,,,---- -- ----- -- ------ - ------- --- ----------<br>------------- ------ ------ ---- ---- ------- ----- -- ----<br>-------- partner -- ---------- --- - --- ----- ----- ----<br>---- --- --- ----- --- ---- ---- ------- ----- ---- -------<br>--- --- -- ----- -- --- ---- -- --- ---- -- ------ ------<br>--- ----- -- ----,135575.5,135575,135177.473,135178.5,135195.238,135578.392,,19,partner
screen,html.Screen,2_1_0_1_20,2022-05-03T19:58:24.372Z,,,,,,,,,,,,,,,,,53,,,,,,,,,,,,,,388.2080000238493,,response,,,,99,,,,,,,Space,keypress(Space),,,,,,,,---- -- ----- -- ------ - ------- --- ----------<br>------------- ------ ------ ---- ---- ------- ----- -- ----<br>-------- ------- is ---------- --- - --- ----- ----- ----<br>---- --- --- ----- --- ---- ---- ------- ----- ---- -------<br>--- --- -- ----- -- --- ---- -- --- ---- -- ------ ------<br>--- ----- -- ----,135967.10000002384,135966.60000002384,135561.963,135575.5,135578.392,135979.419,,20,is
screen,html.Screen,2_1_0_1_21,2022-05-03T19:58:24.720Z,,,,,,,,,,,,,,,,,53,,,,,,,,,,,,,,335.3809999523219,,response,,,,99,,,,,,,Space,keypress(Space),,,,,,,,---- -- ----- -- ------ - ------- --- ----------<br>------------- ------ ------ ---- ---- ------- ----- -- ----<br>-------- ------- -- paramount. --- - --- ----- ----- ----<br>---- --- --- ----- --- ---- ---- ------- ----- ---- -------<br>--- --- -- ----- -- --- ---- -- --- ---- -- ------ ------<br>--- ----- -- ----,136315.5,136314.79999995232,135962.411,135967.20000004768,135979.419,136329.469,,21,paramount.
screen,html.Screen,2_1_0_1_22,2022-05-03T19:58:25.289Z,,,,,,,,,,,,,,,,,53,,,,,,,,,,,,,,554.13100002383,,response,,,,99,,,,,,,Space,keypress(Space),,,,,,,,---- -- ----- -- ------ - ------- --- ----------<br>------------- ------ ------ ---- ---- ------- ----- -- ----<br>-------- ------- -- ---------- But - --- ----- ----- ----<br>---- --- --- ----- --- ---- ---- ------- ----- ---- -------<br>--- --- -- ----- -- --- ---- -- --- ---- -- ------ ------<br>--- ----- -- ----,136884.39999997616,136883.60000002384,136312.273,136315.60000002384,136329.469,136897.099,,22,But
screen,html.Screen,2_1_0_1_23,2022-05-03T19:58:25.591Z,,,,,,,,,,,,,,,,,53,,,,,,,,,,,,,,288.70099995232886,,response,,,,99,,,,,,,Space,keypress(Space),,,,,,,,---- -- ----- -- ------ - ------- --- ----------<br>------------- ------ ------ ---- ---- ------- ----- -- ----<br>-------- ------- -- ---------- --- a --- ----- ----- ----<br>---- --- --- ----- --- ---- ---- ------- ----- ---- -------<br>--- --- -- ----- -- --- ---- -- --- ---- -- ------ ------<br>--- ----- -- ----,137186.60000002384,137185.79999995232,136879.293,136884.70000004768,136897.099,137197.411,,23,a
screen,html.Screen,2_1_0_1_24,2022-05-03T19:58:25.944Z,,,,,,,,,,,,,,,,,53,,,,,,,,,,,,,,341.3889999523235,,response,,,,99,,,,,,,Space,keypress(Space),,,,,,,,---- -- ----- -- ------ - ------- --- ----------<br>------------- ------ ------ ---- ---- ------- ----- -- ----<br>-------- ------- -- ---------- --- - new ----- ----- ----<br>---- --- --- ----- --- ---- ---- ------- ----- ---- -------<br>--- --- -- ----- -- --- ---- -- --- ---- -- ------ ------<br>--- ----- -- ----,137539.89999997616,137538.79999995232,137179.965,137186.70000004768,137197.411,137547.202,,24,new
screen,html.Screen,2_1_0_1_25,2022-05-03T19:58:26.291Z,,,,,,,,,,,,,,,,,53,,,,,,,,,,,,,,338.89800002385164,,response,,,,99,,,,,,,Space,keypress(Space),,,,,,,,---- -- ----- -- ------ - ------- --- ----------<br>------------- ------ ------ ---- ---- ------- ----- -- ----<br>-------- ------- -- ---------- --- - --- study ----- ----<br>---- --- --- ----- --- ---- ---- ------- ----- ---- -------<br>--- --- -- ----- -- --- ---- -- --- ---- -- ------ ------<br>--- ----- -- ----,137886.89999997616,137886.10000002384,137530.225,137540,137547.202,137898.258,,25,study
screen,html.Screen,2_1_0_1_26,2022-05-03T19:58:26.617Z,,,,,,,,,,,,,,,,,53,,,,,,,,,,,,,,313.9420000476821,,response,,,,99,,,,,,,Space,keypress(Space),,,,,,,,---- -- ----- -- ------ - ------- --- ----------<br>------------- ------ ------ ---- ---- ------- ----- -- ----<br>-------- ------- -- ---------- --- - --- ----- finds ----<br>---- --- --- ----- --- ---- ---- ------- ----- ---- -------<br>--- --- -- ----- -- --- ---- -- --- ---- -- ------ ------<br>--- ----- -- ----,138212.60000002384,138212.20000004768,137880.588,137887,137898.258,138214.625,,26,finds
screen,html.Screen,2_1_0_1_27,2022-05-03T19:58:27.005Z,,,,,,,,,,,,,,,,,53,,,,,,,,,,,,,,385.375,,response,,,,99,,,,,,,Space,keypress(Space),,,,,,,,---- -- ----- -- ------ - ------- --- ----------<br>------------- ------ ------ ---- ---- ------- ----- -- ----<br>-------- ------- -- ---------- --- - --- ----- ----- that<br>---- --- --- ----- --- ---- ---- ------- ----- ---- -------<br>--- --- -- ----- -- --- ---- -- --- ---- -- ------ ------<br>--- ----- -- ----,138600.60000002384,138600,138197.72,138212.70000004768,138214.625,138615.643,,27,that
screen,html.Screen,2_1_0_1_28,2022-05-03T19:58:27.378Z,,,,,,,,,,,,,,,,,53,,,,,,,,,,,,,,357.2569999761472,,response,,,,99,,,,,,,Space,keypress(Space),,,,,,,,---- -- ----- -- ------ - ------- --- ----------<br>------------- ------ ------ ---- ---- ------- ----- -- ----<br>-------- ------- -- ---------- --- - --- ----- ----- ----<br>it's --- --- ----- --- ---- ---- ------- ----- ---- -------<br>--- --- -- ----- -- --- ---- -- --- ---- -- ------ ------<br>--- ----- -- ----,138973.5,138972.89999997616,138598.53,138600.89999997616,138615.643,138982.151,,28,it's
screen,html.Screen,2_1_0_1_29,2022-05-03T19:58:27.715Z,,,,,,,,,,,,,,,,,53,,,,,,,,,,,,,,327.54900004767114,,response,,,,99,,,,,,,Space,keypress(Space),,,,,,,,---- -- ----- -- ------ - ------- --- ----------<br>------------- ------ ------ ---- ---- ------- ----- -- ----<br>-------- ------- -- ---------- --- - --- ----- ----- ----<br>---- not --- ----- --- ---- ---- ------- ----- ---- -------<br>--- --- -- ----- -- --- ---- -- --- ---- -- ------ ------<br>--- ----- -- ----,139310.20000004768,139309.70000004768,138965.66,138973.70000004768,138982.151,139316.295,,29,not
screen,html.Screen,2_1_0_1_30,2022-05-03T19:58:28.063Z,,,,,,,,,,,,,,,,,53,,,,,,,,,,,,,,341.30500002382905,,response,,,,99,,,,,,,Space,keypress(Space),,,,,,,,---- -- ----- -- ------ - ------- --- ----------<br>------------- ------ ------ ---- ---- ------- ----- -- ----<br>-------- ------- -- ---------- --- - --- ----- ----- ----<br>---- --- how ----- --- ---- ---- ------- ----- ---- -------<br>--- --- -- ----- -- --- ---- -- --- ---- -- ------ ------<br>--- ----- -- ----,139658.29999995232,139657.60000002384,139299.681,139310.39999997616,139316.295,139666.197,,30,how
screen,html.Screen,2_1_0_1_31,2022-05-03T19:58:28.481Z,,,,,,,,,,,,,,,,,53,,,,,,,,,,,,,,409.7029999761726,,response,,,,99,,,,,,,Space,keypress(Space),,,,,,,,---- -- ----- -- ------ - ------- --- ----------<br>------------- ------ ------ ---- ---- ------- ----- -- ----<br>-------- ------- -- ---------- --- - --- ----- ----- ----<br>---- --- --- close --- ---- ---- ------- ----- ---- -------<br>--- --- -- ----- -- --- ---- -- --- ---- -- ------ ------<br>--- ----- -- ----,140076.60000002384,140075.89999997616,139649.453,139658.5,139666.197,140083.367,,31,close
screen,html.Screen,2_1_0_1_32,2022-05-03T19:58:28.783Z,,,,,,,,,,,,,,,,,53,,,,,,,,,,,,,,294.0329999761598,,response,,,,99,,,,,,,Space,keypress(Space),,,,,,,,---- -- ----- -- ------ - ------- --- ----------<br>------------- ------ ------ ---- ---- ------- ----- -- ----<br>-------- ------- -- ---------- --- - --- ----- ----- ----<br>---- --- --- ----- you ---- ---- ------- ----- ---- -------<br>--- --- -- ----- -- --- ---- -- --- ---- -- ------ ------<br>--- ----- -- ----,140378.10000002384,140377.39999997616,140066.229,140076.79999995232,140083.367,140384.013,,32,you
screen,html.Screen,2_1_0_1_33,2022-05-03T19:58:29.121Z,,,,,,,,,,,,,,,,,53,,,,,,,,,,,,,,331.28699995231,,response,,,,99,,,,,,,Space,keypress(Space),,,,,,,,---- -- ----- -- ------ - ------- --- ----------<br>------------- ------ ------ ---- ---- ------- ----- -- ----<br>-------- ------- -- ---------- --- - --- ----- ----- ----<br>---- --- --- ----- --- feel ---- ------- ----- ---- -------<br>--- --- -- ----- -- --- ---- -- --- ---- -- ------ ------<br>--- ----- -- ----,140716.20000004768,140715.29999995232,140367.243,140378.20000004768,140384.013,140742.283,,33,feel
screen,html.Screen,2_1_0_1_34,2022-05-03T19:58:29.452Z,,,,,,,,,,,,,,,,,53,,,,,,,,,,,,,,304.61699997616233,,response,,,,99,,,,,,,Space,keypress(Space),,,,,,,,---- -- ----- -- ------ - ------- --- ----------<br>------------- ------ ------ ---- ---- ------- ----- -- ----<br>-------- ------- -- ---------- --- - --- ----- ----- ----<br>---- --- --- ----- --- ---- that ------- ----- ---- -------<br>--- --- -- ----- -- --- ---- -- --- ---- -- ------ ------<br>--- ----- -- ----,141047.60000002384,141046.89999997616,140700.833,140716.29999995232,140742.283,141051.077,,34,that
screen,html.Screen,2_1_0_1_35,2022-05-03T19:58:29.808Z,,,,,,,,,,,,,,,,,53,,,,,,,,,,,,,,351.9230000000098,,response,,,,99,,,,,,,Space,keypress(Space),,,,,,,,---- -- ----- -- ------ - ------- --- ----------<br>------------- ------ ------ ---- ---- ------- ----- -- ----<br>-------- ------- -- ---------- --- - --- ----- ----- ----<br>---- --- --- ----- --- ---- ---- matters ----- ---- -------<br>--- --- -- ----- -- --- ---- -- --- ---- -- ------ ------<br>--- ----- -- ----,141403.70000004768,141403,141034.594,141047.70000004768,141051.077,141418.707,,35,matters
screen,html.Screen,2_1_0_1_36,2022-05-03T19:58:30.175Z,,,,,,,,,,,,,,,,,53,,,,,,,,,,,,,,351.5929999523214,,response,,,,99,,,,,,,Space,keypress(Space),,,,,,,,"---- -- ----- -- ------ - ------- --- ----------<br>------------- ------ ------ ---- ---- ------- ----- -- ----<br>-------- ------- -- ---------- --- - --- ----- ----- ----<br>---- --- --- ----- --- ---- ---- ------- most, ---- -------<br>--- --- -- ----- -- --- ---- -- --- ---- -- ------ ------<br>--- ----- -- ----",141771,141770.29999995232,141401.742,141403.79999995232,141418.707,141785.753,,36,"most,"
screen,html.Screen,2_1_0_1_37,2022-05-03T19:58:30.523Z,,,,,,,,,,,,,,,,,53,,,,,,,,,,,,,,332.0469999523193,,response,,,,99,,,,,,,Space,keypress(Space),,,,,,,,---- -- ----- -- ------ - ------- --- ----------<br>------------- ------ ------ ---- ---- ------- ----- -- ----<br>-------- ------- -- ---------- --- - --- ----- ----- ----<br>---- --- --- ----- --- ---- ---- ------- ----- it's -------<br>--- --- -- ----- -- --- ---- -- --- ---- -- ------ ------<br>--- ----- -- ----,142118.60000002384,142117.79999995232,141768.23,141771.10000002384,141785.753,142135.752,,37,it's
screen,html.Screen,2_1_0_1_38,2022-05-03T19:58:30.906Z,,,,,,,,,,,,,,,,,53,,,,,,,,,,,,,,364.64799997615046,,response,,,,99,,,,,,,Space,keypress(Space),,,,,,,,---- -- ----- -- ------ - ------- --- ----------<br>------------- ------ ------ ---- ---- ------- ----- -- ----<br>-------- ------- -- ---------- --- - --- ----- ----- ----<br>---- --- --- ----- --- ---- ---- ------- ----- ---- whether<br>--- --- -- ----- -- --- ---- -- --- ---- -- ------ ------<br>--- ----- -- ----,142501.10000002384,142500.39999997616,142119.181,142118.79999995232,142135.752,142502.677,,38,whether
screen,html.Screen,2_1_0_1_39,2022-05-03T19:58:31.318Z,,,,,,,,,,,,,,,,,53,,,,,,,,,,,,,,410.4230000238458,,response,,,,99,,,,,,,Space,keypress(Space),,,,,,,,---- -- ----- -- ------ - ------- --- ----------<br>------------- ------ ------ ---- ---- ------- ----- -- ----<br>-------- ------- -- ---------- --- - --- ----- ----- ----<br>---- --- --- ----- --- ---- ---- ------- ----- ---- -------<br>you --- -- ----- -- --- ---- -- --- ---- -- ------ ------<br>--- ----- -- ----,142913.70000004768,142913.10000002384,142486.178,142501.20000004768,142502.677,142919.771,,39,you
screen,html.Screen,2_1_0_1_40,2022-05-03T19:58:31.686Z,,,,,,,,,,,,,,,,,53,,,,,,,,,,,,,,361.02899995230837,,response,,,,99,,,,,,,Space,keypress(Space),,,,,,,,---- -- ----- -- ------ - ------- --- ----------<br>------------- ------ ------ ---- ---- ------- ----- -- ----<br>-------- ------- -- ---------- --- - --- ----- ----- ----<br>---- --- --- ----- --- ---- ---- ------- ----- ---- -------<br>--- are -- ----- -- --- ---- -- --- ---- -- ------ ------<br>--- ----- -- ----,143281.60000002384,143280.79999995232,142903.214,142913.79999995232,142919.771,143287.307,,40,are
screen,html.Screen,2_1_0_1_41,2022-05-03T19:58:32.018Z,,,,,,,,,,,,,,,,,53,,,,,,,,,,,,,,325.29300002384116,,response,,,,99,,,,,,,Space,keypress(Space),,,,,,,,---- -- ----- -- ------ - ------- --- ----------<br>------------- ------ ------ ---- ---- ------- ----- -- ----<br>-------- ------- -- ---------- --- - --- ----- ----- ----<br>---- --- --- ----- --- ---- ---- ------- ----- ---- -------<br>--- --- as ----- -- --- ---- -- --- ---- -- ------ ------<br>--- ----- -- ----,143613.10000002384,143612.60000002384,143269.797,143281.70000004768,143287.307,143620.561,,41,as
screen,html.Screen,2_1_0_1_42,2022-05-03T19:58:32.391Z,,,,,,,,,,,,,,,,,53,,,,,,,,,,,,,,365.0390000238549,,response,,,,99,,,,,,,Space,keypress(Space),,,,,,,,---- -- ----- -- ------ - ------- --- ----------<br>------------- ------ ------ ---- ---- ------- ----- -- ----<br>-------- ------- -- ---------- --- - --- ----- ----- ----<br>---- --- --- ----- --- ---- ---- ------- ----- ---- -------<br>--- --- -- close -- --- ---- -- --- ---- -- ------ ------<br>--- ----- -- ----,143986.5,143985.60000002384,143604.124,143613.20000004768,143620.561,144007.284,,42,close
screen,html.Screen,2_1_0_1_43,2022-05-03T19:58:32.783Z,,,,,,,,,,,,,,,,,53,,,,,,,,,,,,,,370.5159999523021,,response,,,,99,,,,,,,Space,keypress(Space),,,,,,,,---- -- ----- -- ------ - ------- --- ----------<br>------------- ------ ------ ---- ---- ------- ----- -- ----<br>-------- ------- -- ---------- --- - --- ----- ----- ----<br>---- --- --- ----- --- ---- ---- ------- ----- ---- -------<br>--- --- -- ----- as --- ---- -- --- ---- -- ------ ------<br>--- ----- -- ----,144378.5,144377.79999995232,143971.223,143986.60000002384,144007.284,144388.463,,43,as
screen,html.Screen,2_1_0_1_44,2022-05-03T19:58:33.122Z,,,,,,,,,,,,,,,,,53,,,,,,,,,,,,,,327.7370000476949,,response,,,,99,,,,,,,Space,keypress(Space),,,,,,,,---- -- ----- -- ------ - ------- --- ----------<br>------------- ------ ------ ---- ---- ------- ----- -- ----<br>-------- ------- -- ---------- --- - --- ----- ----- ----<br>---- --- --- ----- --- ---- ---- ------- ----- ---- -------<br>--- --- -- ----- -- you ---- -- --- ---- -- ------ ------<br>--- ----- -- ----,144717,144716.20000004768,144371.402,144378.60000002384,144388.463,144722.22,,44,you
screen,html.Screen,2_1_0_1_45,2022-05-03T19:58:33.513Z,,,,,,,,,,,,,,,,,53,,,,,,,,,,,,,,385.48000004768255,,response,,,,99,,,,,,,Space,keypress(Space),,,,,,,,---- -- ----- -- ------ - ------- --- ----------<br>------------- ------ ------ ---- ---- ------- ----- -- ----<br>-------- ------- -- ---------- --- - --- ----- ----- ----<br>---- --- --- ----- --- ---- ---- ------- ----- ---- -------<br>--- --- -- ----- -- --- want -- --- ---- -- ------ ------<br>--- ----- -- ----,145108.39999997616,145107.70000004768,144705.096,144717.29999995232,144722.22,145122.7,,45,want
screen,html.Screen,2_1_0_1_46,2022-05-03T19:58:33.886Z,,,,,,,,,,,,,,,,,53,,,,,,,,,,,,,,358.29999999998836,,response,,,,99,,,,,,,Space,keypress(Space),,,,,,,,---- -- ----- -- ------ - ------- --- ----------<br>------------- ------ ------ ---- ---- ------- ----- -- ----<br>-------- ------- -- ---------- --- - --- ----- ----- ----<br>---- --- --- ----- --- ---- ---- ------- ----- ---- -------<br>--- --- -- ----- -- --- ---- to --- ---- -- ------ ------<br>--- ----- -- ----,145481.39999997616,145481,145105.81,145108.5,145122.7,145489.234,,46,to
screen,html.Screen,2_1_0_1_47,2022-05-03T19:58:34.290Z,,,,,,,,,,,,,,,,,53,,,,,,,,,,,,,,395.3660000238451,,response,,,,99,,,,,,,Space,keypress(Space),,,,,,,,"---- -- ----- -- ------ - ------- --- ----------<br>------------- ------ ------ ---- ---- ------- ----- -- ----<br>-------- ------- -- ---------- --- - --- ----- ----- ----<br>---- --- --- ----- --- ---- ---- ------- ----- ---- -------<br>--- --- -- ----- -- --- ---- -- be, ---- -- ------ ------<br>--- ----- -- ----",145885,145884.60000002384,145472.742,145481.60000002384,145489.234,145889.663,,47,"be,"
screen,html.Screen,2_1_0_1_48,2022-05-03T19:58:34.747Z,,,,,,,,,,,,,,,,,53,,,,,,,,,,,,,,451.9370000238414,,response,,,,99,,,,,,,Space,keypress(Space),,,,,,,,---- -- ----- -- ------ - ------- --- ----------<br>------------- ------ ------ ---- ---- ------- ----- -- ----<br>-------- ------- -- ---------- --- - --- ----- ----- ----<br>---- --- --- ----- --- ---- ---- ------- ----- ---- -------<br>--- --- -- ----- -- --- ---- -- --- even -- ------ ------<br>--- ----- -- ----,146342.10000002384,146341.60000002384,145872.836,145885.10000002384,145889.663,146357.03,,48,even
screen,html.Screen,2_1_0_1_49,2022-05-03T19:58:35.101Z,,,,,,,,,,,,,,,,,53,,,,,,,,,,,,,,338.26999995231745,,response,,,,99,,,,,,,Space,keypress(Space),,,,,,,,---- -- ----- -- ------ - ------- --- ----------<br>------------- ------ ------ ---- ---- ------- ----- -- ----<br>-------- ------- -- ---------- --- - --- ----- ----- ----<br>---- --- --- ----- --- ---- ---- ------- ----- ---- -------<br>--- --- -- ----- -- --- ---- -- --- ---- if ------ ------<br>--- ----- -- ----,146696,146695.29999995232,146340.121,146342.20000004768,146357.03,146707.584,,49,if
screen,html.Screen,2_1_0_1_50,2022-05-03T19:58:35.548Z,,,,,,,,,,,,,,,,,53,,,,,,,,,,,,,,435.0160000238393,,response,,,,99,,,,,,,Space,keypress(Space),,,,,,,,---- -- ----- -- ------ - ------- --- ----------<br>------------- ------ ------ ---- ---- ------- ----- -- ----<br>-------- ------- -- ---------- --- - --- ----- ----- ----<br>---- --- --- ----- --- ---- ---- ------- ----- ---- -------<br>--- --- -- ----- -- --- ---- -- --- ---- -- that's ------<br>--- ----- -- ----,147143.10000002384,147142.60000002384,146690.261,146696.29999995232,146707.584,147158.295,,50,that's
screen,html.Screen,2_1_0_1_51,2022-05-03T19:58:36.077Z,,,,,,,,,,,,,,,,,53,,,,,,,,,,,,,,513.6049999761453,,response,,,,99,,,,,,,Space,keypress(Space),,,,,,,,---- -- ----- -- ------ - ------- --- ----------<br>------------- ------ ------ ---- ---- ------- ----- -- ----<br>-------- ------- -- ---------- --- - --- ----- ----- ----<br>---- --- --- ----- --- ---- ---- ------- ----- ---- -------<br>--- --- -- ----- -- --- ---- -- --- ---- -- ------ really<br>--- ----- -- ----,147672.39999997616,147671.89999997616,147140.66,147143.10000002384,147158.295,147674.974,,51,really
screen,html.Screen,2_1_0_1_52,2022-05-03T19:58:36.466Z,,,,,,,,,,,,,,,,,53,,,,,,,,,,,,,,385.4259999761707,,response,,,,99,,,,,,,Space,keypress(Space),,,,,,,,---- -- ----- -- ------ - ------- --- ----------<br>------------- ------ ------ ---- ---- ------- ----- -- ----<br>-------- ------- -- ---------- --- - --- ----- ----- ----<br>---- --- --- ----- --- ---- ---- ------- ----- ---- -------<br>--- --- -- ----- -- --- ---- -- --- ---- -- ------ ------<br>not ----- -- ----,148061.10000002384,148060.39999997616,147657.947,147672.5,147674.974,148076.003,,52,not
screen,html.Screen,2_1_0_1_53,2022-05-03T19:58:37.196Z,,,,,,,,,,,,,,,,,53,,,,,,,,,,,,,,714.5970000238449,,response,,,,99,,,,,,,Space,keypress(Space),,,,,,,,---- -- ----- -- ------ - ------- --- ----------<br>------------- ------ ------ ---- ---- ------- ----- -- ----<br>-------- ------- -- ---------- --- - --- ----- ----- ----<br>---- --- --- ----- --- ---- ---- ------- ----- ---- -------<br>--- --- -- ----- -- --- ---- -- --- ---- -- ------ ------<br>--- close -- ----,148791.5,148790.60000002384,148059.595,148061.20000004768,148076.003,148824.419,,53,close
screen,html.Screen,2_1_0_1_54,2022-05-03T19:58:37.659Z,,,,,,,,,,,,,,,,,53,,,,,,,,,,,,,,429.2810000476893,,response,,,,99,,,,,,,Space,keypress(Space),,,,,,,,---- -- ----- -- ------ - ------- --- ----------<br>------------- ------ ------ ---- ---- ------- ----- -- ----<br>-------- ------- -- ---------- --- - --- ----- ----- ----<br>---- --- --- ----- --- ---- ---- ------- ----- ---- -------<br>--- --- -- ----- -- --- ---- -- --- ---- -- ------ ------<br>--- ----- at ----,149254.29999995232,149253.70000004768,148775.994,148791.60000002384,148824.419,149260.063,,54,at
screen,html.Screen,2_1_0_1_55,2022-05-03T19:58:40.756Z,,,,,,,,,,,,,,,,,53,,,,,,,,,,,,,,3090.7369999523216,,response,,,,99,,,,,,,Space,keypress(Space),,,,,,,,---- -- ----- -- ------ - ------- --- ----------<br>------------- ------ ------ ---- ---- ------- ----- -- ----<br>-------- ------- -- ---------- --- - --- ----- ----- ----<br>---- --- --- ----- --- ---- ---- ------- ----- ---- -------<br>--- --- -- ----- -- --- ---- -- --- ---- -- ------ ------<br>--- ----- -- all.,152351.89999997616,152350.79999995232,149243.014,149254.5,149260.063,152363.496,,55,all.
Item 99,flow.Loop,2_1_0_1,2022-05-03T19:58:40.757Z,,,,,,,,,,,,,,,,,,,,,,,,,,,,,,,27717.22299995231,,completion,,,,,A,,,,,,,,,,,silence,,,,,152352.20000004768,152350.79999995232,124616.961,124618,124633.577,152363.496,,,
Question 1,html.Screen,2_1_0_2,2022-05-03T19:58:44.523Z,,,,,,,,,,,,,,,,,,,,,,,,,,,,true,FALSE,,3753.8039999523025,,response,,,,99,A,,,,,,FALSE,click #choice-2,,,,silence,,,,,156118,156117.29999995232,152343.878,152352.29999995232,152363.496,156134.335,,,
Question 2,html.Screen,2_1_0_3,2022-05-03T19:58:53.025Z,,,,,,,,,,,,,,,,,,,,,,,,,,,,true,TRUE,,8484.76500002385,,response,,,,99,A,,,,,,TRUE,click #choice-1,,,,silence,,,,,164620.10000002384,164619.10000002384,156117.467,156118.10000002384,156134.335,164626.864,,,
Item 99,flow.Sequence,2_1_0,2022-05-03T19:58:53.025Z,,,,,,,,,,,,,,,,,,,,,,,,,,,,,,,49980.237000023844,,completion,,,,,,,,,,,,,,,,,,,,,164620.29999995232,164619.10000002384,114622.042,114635,114638.863,164626.864,,,
Holding screen,html.Screen,2_1_1_0,2022-05-03T19:59:03.010Z,,,,,,,,,,,,,,,,,,,,,,,,,,,,,,,9994.263999999996,,timeout,,,,,,,,,,,,,,,,,,,,,174605.79999995232,174605.063,164610.093,164620.29999995232,164626.864,174621.128,,,
screen,html.Screen,2_1_1_1_0,2022-05-03T19:59:03.528Z,,,,,,,,,,,,,,,,,54,,,,,,,,,,,,,,501.77199997616117,,response,,,,100,,,,,,,Space,keypress(Space),,,,,,,,At --- ---- --- ------ ----- ------- ---- -- --- ------- --<br>------- ---------- ------ -- ----- -- ----- -- ---- ------<br>--- ----- --- --- ------ -------- ----- --- ------ ----- --<br>----- ----- ---------- --- --- ------ ------ ---- -- ------<br>------- --- ------ ----- --- ---- ------- -- ---- --- --<br>------- ------,175123.60000002384,175122.89999997616,174605.063,174606,174621.128,175138.484,,0,At
screen,html.Screen,2_1_1_1_1,2022-05-03T19:59:03.851Z,,,,,,,,,,,,,,,,,54,,,,,,,,,,,,,,306.716000047687,,response,,,,100,,,,,,,Space,keypress(Space),,,,,,,,-- the ---- --- ------ ----- ------- ---- -- --- ------- --<br>------- ---------- ------ -- ----- -- ----- -- ---- ------<br>--- ----- --- --- ------ -------- ----- --- ------ ----- --<br>----- ----- ---------- --- --- ------ ------ ---- -- ------<br>------- --- ------ ----- --- ---- ------- -- ---- --- --<br>------- ------,175446.20000004768,175445.20000004768,175121.478,175123.60000002384,175138.484,175455.714,,1,the
screen,html.Screen,2_1_1_1_2,2022-05-03T19:59:04.118Z,,,,,,,,,,,,,,,,,54,,,,,,,,,,,,,,257.08599995230907,,response,,,,100,,,,,,,Space,keypress(Space),,,,,,,,-- --- time --- ------ ----- ------- ---- -- --- ------- --<br>------- ---------- ------ -- ----- -- ----- -- ---- ------<br>--- ----- --- --- ------ -------- ----- --- ------ ----- --<br>----- ----- ---------- --- --- ------ ------ ---- -- ------<br>------- --- ------ ----- --- ---- ------- -- ---- --- --<br>------- ------,175713.39999997616,175712.79999995232,175438.908,175446.39999997616,175455.714,175722.828,,2,time
screen,html.Screen,2_1_1_1_3,2022-05-03T19:59:04.375Z,,,,,,,,,,,,,,,,,54,,,,,,,,,,,,,,246.57199997614953,,response,,,,100,,,,,,,Space,keypress(Space),,,,,,,,-- --- ---- the ------ ----- ------- ---- -- --- ------- --<br>------- ---------- ------ -- ----- -- ----- -- ---- ------<br>--- ----- --- --- ------ -------- ----- --- ------ ----- --<br>----- ----- ---------- --- --- ------ ------ ---- -- ------<br>------- --- ------ ----- --- ---- ------- -- ---- --- --<br>------- ------,175970.10000002384,175969.39999997616,175705.872,175713.60000002384,175722.828,175972.609,,3,the
screen,html.Screen,2_1_1_1_4,2022-05-03T19:59:04.914Z,,,,,,,,,,,,,,,,,54,,,,,,,,,,,,,,535.4910000238451,,response,,,,100,,,,,,,Space,keypress(Space),,,,,,,,-- --- ---- --- French ----- ------- ---- -- --- ------- --<br>------- ---------- ------ -- ----- -- ----- -- ---- ------<br>--- ----- --- --- ------ -------- ----- --- ------ ----- --<br>----- ----- ---------- --- --- ------ ------ ---- -- ------<br>------- --- ------ ----- --- ---- ------- -- ---- --- --<br>------- ------,176509,176508.10000002384,175956.289,175970.10000002384,175972.609,176523.79,,4,French
screen,html.Screen,2_1_1_1_5,2022-05-03T19:59:05.189Z,,,,,,,,,,,,,,,,,54,,,,,,,,,,,,,,260.10999997615,,response,,,,100,,,,,,,Space,keypress(Space),,,,,,,,-- --- ---- --- ------ crown ------- ---- -- --- ------- --<br>------- ---------- ------ -- ----- -- ----- -- ---- ------<br>--- ----- --- --- ------ -------- ----- --- ------ ----- --<br>----- ----- ---------- --- --- ------ ------ ---- -- ------<br>------- --- ------ ----- --- ---- ------- -- ---- --- --<br>------- ------,176784.5,176783.89999997616,176506.95,176509.20000004768,176523.79,176790.155,,5,crown
screen,html.Screen,2_1_1_1_6,2022-05-03T19:59:05.527Z,,,,,,,,,,,,,,,,,54,,,,,,,,,,,,,,331.84500000000116,,response,,,,100,,,,,,,Space,keypress(Space),,,,,,,,-- --- ---- --- ------ ----- secured ---- -- --- ------- --<br>------- ---------- ------ -- ----- -- ----- -- ---- ------<br>--- ----- --- --- ------ -------- ----- --- ------ ----- --<br>----- ----- ---------- --- --- ------ ------ ---- -- ------<br>------- --- ------ ----- --- ---- ------- -- ---- --- --<br>------- ------,177122.39999997616,177122,176773.804,176784.60000002384,176790.155,177123.885,,6,secured
screen,html.Screen,2_1_1_1_7,2022-05-03T19:59:05.935Z,,,,,,,,,,,,,,,,,54,,,,,,,,,,,,,,406.3150000476744,,response,,,,100,,,,,,,Space,keypress(Space),,,,,,,,-- --- ---- --- ------ ----- ------- much -- --- ------- --<br>------- ---------- ------ -- ----- -- ----- -- ---- ------<br>--- ----- --- --- ------ -------- ----- --- ------ ----- --<br>----- ----- ---------- --- --- ------ ------ ---- -- ------<br>------- --- ------ ----- --- ---- ------- -- ---- --- --<br>------- ------,177530.79999995232,177530.20000004768,177107.255,177122.5,177123.885,177540.965,,7,much
screen,html.Screen,2_1_1_1_8,2022-05-03T19:59:06.285Z,,,,,,,,,,,,,,,,,54,,,,,,,,,,,,,,338.5350000000035,,response,,,,100,,,,,,,Space,keypress(Space),,,,,,,,-- --- ---- --- ------ ----- ------- ---- of --- ------- --<br>------- ---------- ------ -- ----- -- ----- -- ---- ------<br>--- ----- --- --- ------ -------- ----- --- ------ ----- --<br>----- ----- ---------- --- --- ------ ------ ---- -- ------<br>------- --- ------ ----- --- ---- ------- -- ---- --- --<br>------- ------,177880,177879.5,177524.453,177530.89999997616,177540.965,177891.873,,8,of
screen,html.Screen,2_1_1_1_9,2022-05-03T19:59:06.563Z,,,,,,,,,,,,,,,,,54,,,,,,,,,,,,,,265.92699995232397,,response,,,,100,,,,,,,Space,keypress(Space),,,,,,,,-- --- ---- --- ------ ----- ------- ---- -- its ------- --<br>------- ---------- ------ -- ----- -- ----- -- ---- ------<br>--- ----- --- --- ------ -------- ----- --- ------ ----- --<br>----- ----- ---------- --- --- ------ ------ ---- -- ------<br>------- --- ------ ----- --- ---- ------- -- ---- --- --<br>------- ------,178158.5,178157.79999995232,177874.339,177880.20000004768,177891.873,178175.609,,9,its
screen,html.Screen,2_1_1_1_10,2022-05-03T19:59:06.908Z,,,,,,,,,,,,,,,,,54,,,,,,,,,,,,,,326.9910000238451,,response,,,,100,,,,,,,Space,keypress(Space),,,,,,,,-- --- ---- --- ------ ----- ------- ---- -- --- revenue --<br>------- ---------- ------ -- ----- -- ----- -- ---- ------<br>--- ----- --- --- ------ -------- ----- --- ------ ----- --<br>----- ----- ---------- --- --- ------ ------ ---- -- ------<br>------- --- ------ ----- --- ---- ------- -- ---- --- --<br>------- ------,178503.29999995232,178502.60000002384,178158.644,178158.60000002384,178175.609,178508.713,,10,revenue
screen,html.Screen,2_1_1_1_11,2022-05-03T19:59:07.235Z,,,,,,,,,,,,,,,,,54,,,,,,,,,,,,,,321.1869999761693,,response,,,,100,,,,,,,Space,keypress(Space),,,,,,,,-- --- ---- --- ------ ----- ------- ---- -- --- ------- by<br>------- ---------- ------ -- ----- -- ----- -- ---- ------<br>--- ----- --- --- ------ -------- ----- --- ------ ----- --<br>----- ----- ---------- --- --- ------ ------ ---- -- ------<br>------- --- ------ ----- --- ---- ------- -- ---- --- --<br>------- ------,178830.79999995232,178829.89999997616,178492.278,178503.39999997616,178508.713,178842.923,,11,by
screen,html.Screen,2_1_1_1_12,2022-05-03T19:59:07.583Z,,,,,,,,,,,,,,,,,54,,,,,,,,,,,,,,334.1770000238321,,response,,,,100,,,,,,,Space,keypress(Space),,,,,,,,-- --- ---- --- ------ ----- ------- ---- -- --- ------- --<br>issuing ---------- ------ -- ----- -- ----- -- ---- ------<br>--- ----- --- --- ------ -------- ----- --- ------ ----- --<br>----- ----- ---------- --- --- ------ ------ ---- -- ------<br>------- --- ------ ----- --- ---- ------- -- ---- --- --<br>------- ------,179178.10000002384,179177.10000002384,178825.95,178831,178842.923,179193.328,,12,issuing
screen,html.Screen,2_1_1_1_13,2022-05-03T19:59:07.899Z,,,,,,,,,,,,,,,,,54,,,,,,,,,,,,,,300.3720000476751,,response,,,,100,,,,,,,Space,keypress(Space),,,,,,,,-- --- ---- --- ------ ----- ------- ---- -- --- ------- --<br>------- government ------ -- ----- -- ----- -- ---- ------<br>--- ----- --- --- ------ -------- ----- --- ------ ----- --<br>----- ----- ---------- --- --- ------ ------ ---- -- ------<br>------- --- ------ ----- --- ---- ------- -- ---- --- --<br>------- ------,179494.10000002384,179493.70000004768,179176.245,179178.20000004768,179193.328,179509.918,,13,government
screen,html.Screen,2_1_1_1_14,2022-05-03T19:59:08.267Z,,,,,,,,,,,,,,,,,54,,,,,,,,,,,,,,351.5819999999949,,response,,,,100,,,,,,,Space,keypress(Space),,,,,,,,-- --- ---- --- ------ ----- ------- ---- -- --- ------- --<br>------- ---------- bonds. -- ----- -- ----- -- ---- ------<br>--- ----- --- --- ------ -------- ----- --- ------ ----- --<br>----- ----- ---------- --- --- ------ ------ ---- -- ------<br>------- --- ------ ----- --- ---- ------- -- ---- --- --<br>------- ------,179862.10000002384,179861.5,179493.504,179494.29999995232,179509.918,179877.549,,14,bonds.
screen,html.Screen,2_1_1_1_15,2022-05-03T19:59:09.072Z,,,,,,,,,,,,,,,,,54,,,,,,,,,,,,,,789.7509999523172,,response,,,,100,,,,,,,Space,keypress(Space),,,,,,,,-- --- ---- --- ------ ----- ------- ---- -- --- ------- --<br>------- ---------- ------ In ----- -- ----- -- ---- ------<br>--- ----- --- --- ------ -------- ----- --- ------ ----- --<br>----- ----- ---------- --- --- ------ ------ ---- -- ------<br>------- --- ------ ----- --- ---- ------- -- ---- --- --<br>------- ------,180668,180667.29999995232,179860.547,179862.29999995232,179877.549,180677.918,,15,In
screen,html.Screen,2_1_1_1_16,2022-05-03T19:59:09.404Z,,,,,,,,,,,,,,,,,54,,,,,,,,,,,,,,320.88199995231116,,response,,,,100,,,,,,,Space,keypress(Space),,,,,,,,"-- --- ---- --- ------ ----- ------- ---- -- --- ------- --<br>------- ---------- ------ -- 1727, -- ----- -- ---- ------<br>--- ----- --- --- ------ -------- ----- --- ------ ----- --<br>----- ----- ---------- --- --- ------ ------ ---- -- ------<br>------- --- ------ ----- --- ---- ------- -- ---- --- --<br>------- ------",180999.60000002384,180998.79999995232,180660.307,180668.60000002384,180677.918,181011.662,,16,"1727,"
screen,html.Screen,2_1_1_1_17,2022-05-03T19:59:10.102Z,,,,,,,,,,,,,,,,,54,,,,,,,,,,,,,,685.737999976147,,response,,,,100,,,,,,,Space,keypress(Space),,,,,,,,-- --- ---- --- ------ ----- ------- ---- -- --- ------- --<br>------- ---------- ------ -- ----- in ----- -- ---- ------<br>--- ----- --- --- ------ -------- ----- --- ------ ----- --<br>----- ----- ---------- --- --- ------ ------ ---- -- ------<br>------- --- ------ ----- --- ---- ------- -- ---- --- --<br>------- ------,181698.29999995232,181697.39999997616,180994.576,180999.70000004768,181011.662,181712.765,,17,in
screen,html.Screen,2_1_1_1_18,2022-05-03T19:59:10.453Z,,,,,,,,,,,,,,,,,54,,,,,,,,,,,,,,335.73499999998603,,response,,,,100,,,,,,,Space,keypress(Space),,,,,,,,-- --- ---- --- ------ ----- ------- ---- -- --- ------- --<br>------- ---------- ------ -- ----- -- order -- ---- ------<br>--- ----- --- --- ------ -------- ----- --- ------ ----- --<br>----- ----- ---------- --- --- ------ ------ ---- -- ------<br>------- --- ------ ----- --- ---- ------- -- ---- --- --<br>------- ------,182049.10000002384,182048.5,181695.478,181698.5,181712.765,182063.379,,18,order
screen,html.Screen,2_1_1_1_19,2022-05-03T19:59:10.745Z,,,,,,,,,,,,,,,,,54,,,,,,,,,,,,,,276.62100000001374,,response,,,,100,,,,,,,Space,keypress(Space),,,,,,,,-- --- ---- --- ------ ----- ------- ---- -- --- ------- --<br>------- ---------- ------ -- ----- -- ----- to ---- ------<br>--- ----- --- --- ------ -------- ----- --- ------ ----- --<br>----- ----- ---------- --- --- ------ ------ ---- -- ------<br>------- --- ------ ----- --- ---- ------- -- ---- --- --<br>------- ------,182340.5,182340,182046.194,182049.29999995232,182063.379,182346.237,,19,to
screen,html.Screen,2_1_1_1_20,2022-05-03T19:59:11.033Z,,,,,,,,,,,,,,,,,54,,,,,,,,,,,,,,281.36300002384814,,response,,,,100,,,,,,,Space,keypress(Space),,,,,,,,-- --- ---- --- ------ ----- ------- ---- -- --- ------- --<br>------- ---------- ------ -- ----- -- ----- -- save ------<br>--- ----- --- --- ------ -------- ----- --- ------ ----- --<br>----- ----- ---------- --- --- ------ ------ ---- -- ------<br>------- --- ------ ----- --- ---- ------- -- ---- --- --<br>------- ------,182628.39999997616,182627.60000002384,182329.913,182340.70000004768,182346.237,182649.214,,20,save
screen,html.Screen,2_1_1_1_21,2022-05-03T19:59:11.360Z,,,,,,,,,,,,,,,,,54,,,,,,,,,,,,,,306.08599995230907,,response,,,,100,,,,,,,Space,keypress(Space),,,,,,,,"-- --- ---- --- ------ ----- ------- ---- -- --- ------- --<br>------- ---------- ------ -- ----- -- ----- -- ---- money,<br>--- ----- --- --- ------ -------- ----- --- ------ ----- --<br>----- ----- ---------- --- --- ------ ------ ---- -- ------<br>------- --- ------ ----- --- ---- ------- -- ---- --- --<br>------- ------",182956.20000004768,182955.29999995232,182612.996,182628.60000002384,182649.214,182964,,21,"money,"
screen,html.Screen,2_1_1_1_22,2022-05-03T19:59:11.813Z,,,,,,,,,,,,,,,,,54,,,,,,,,,,,,,,443.7000000476837,,response,,,,100,,,,,,,Space,keypress(Space),,,,,,,,-- --- ---- --- ------ ----- ------- ---- -- --- ------- --<br>------- ---------- ------ -- ----- -- ----- -- ---- ------<br>the ----- --- --- ------ -------- ----- --- ------ ----- --<br>----- ----- ---------- --- --- ------ ------ ---- -- ------<br>------- --- ------ ----- --- ---- ------- -- ---- --- --<br>------- ------,183408.60000002384,183407.70000004768,182947.461,182956.39999997616,182964,183414.725,,22,the
screen,html.Screen,2_1_1_1_23,2022-05-03T19:59:12.110Z,,,,,,,,,,,,,,,,,54,,,,,,,,,,,,,,290.4750000476779,,response,,,,100,,,,,,,Space,keypress(Space),,,,,,,,-- --- ---- --- ------ ----- ------- ---- -- --- ------- --<br>------- ---------- ------ -- ----- -- ----- -- ---- ------<br>--- state --- --- ------ -------- ----- --- ------ ----- --<br>----- ----- ---------- --- --- ------ ------ ---- -- ------<br>------- --- ------ ----- --- ---- ------- -- ---- --- --<br>------- ------,183706.20000004768,183705.20000004768,183397.257,183408.70000004768,183414.725,183714.905,,23,state
screen,html.Screen,2_1_1_1_24,2022-05-03T19:59:12.416Z,,,,,,,,,,,,,,,,,54,,,,,,,,,,,,,,296.195000023843,,response,,,,100,,,,,,,Space,keypress(Space),,,,,,,,-- --- ---- --- ------ ----- ------- ---- -- --- ------- --<br>------- ---------- ------ -- ----- -- ----- -- ---- ------<br>--- ----- cut --- ------ -------- ----- --- ------ ----- --<br>----- ----- ---------- --- --- ------ ------ ---- -- ------<br>------- --- ------ ----- --- ---- ------- -- ---- --- --<br>------- ------,184011.39999997616,184011.10000002384,183697.5,183706.29999995232,183714.905,184014.72,,24,cut
screen,html.Screen,2_1_1_1_25,2022-05-03T19:59:12.770Z,,,,,,,,,,,,,,,,,54,,,,,,,,,,,,,,350.0799999523151,,response,,,,100,,,,,,,Space,keypress(Space),,,,,,,,-- --- ---- --- ------ ----- ------- ---- -- --- ------- --<br>------- ---------- ------ -- ----- -- ----- -- ---- ------<br>--- ----- --- the ------ -------- ----- --- ------ ----- --<br>----- ----- ---------- --- --- ------ ------ ---- -- ------<br>------- --- ------ ----- --- ---- ------- -- ---- --- --<br>------- ------,184365.70000004768,184364.79999995232,183998.343,184011.60000002384,184014.72,184381.888,,25,the
screen,html.Screen,2_1_1_1_26,2022-05-03T19:59:13.046Z,,,,,,,,,,,,,,,,,54,,,,,,,,,,,,,,259.71200002383557,,response,,,,100,,,,,,,Space,keypress(Space),,,,,,,,-- --- ---- --- ------ ----- ------- ---- -- --- ------- --<br>------- ---------- ------ -- ----- -- ----- -- ---- ------<br>--- ----- --- --- bonds' -------- ----- --- ------ ----- --<br>----- ----- ---------- --- --- ------ ------ ---- -- ------<br>------- --- ------ ----- --- ---- ------- -- ---- --- --<br>------- ------,184642,184641.60000002384,184365.505,184365.89999997616,184381.888,184648.795,,26,bonds'
screen,html.Screen,2_1_1_1_27,2022-05-03T19:59:13.415Z,,,,,,,,,,,,,,,,,54,,,,,,,,,,,,,,361.30500002382905,,response,,,,100,,,,,,,Space,keypress(Space),,,,,,,,-- --- ---- --- ------ ----- ------- ---- -- --- ------- --<br>------- ---------- ------ -- ----- -- ----- -- ---- ------<br>--- ----- --- --- ------ interest ----- --- ------ ----- --<br>----- ----- ---------- --- --- ------ ------ ---- -- ------<br>------- --- ------ ----- --- ---- ------- -- ---- --- --<br>------- ------,185010.79999995232,185010.10000002384,184632.375,184642,184648.795,185015.811,,27,interest
screen,html.Screen,2_1_1_1_28,2022-05-03T19:59:13.763Z,,,,,,,,,,,,,,,,,54,,,,,,,,,,,,,,342.4889999523293,,response,,,,100,,,,,,,Space,keypress(Space),,,,,,,,-- --- ---- --- ------ ----- ------- ---- -- --- ------- --<br>------- ---------- ------ -- ----- -- ----- -- ---- ------<br>--- ----- --- --- ------ -------- rate. --- ------ ----- --<br>----- ----- ---------- --- --- ------ ------ ---- -- ------<br>------- --- ------ ----- --- ---- ------- -- ---- --- --<br>------- ------,185358.70000004768,185358.29999995232,184998.842,185010.89999997616,185015.811,185366.243,,28,rate.
screen,html.Screen,2_1_1_1_29,2022-05-03T19:59:14.111Z,,,,,,,,,,,,,,,,,54,,,,,,,,,,,,,,340.25700000001234,,response,,,,100,,,,,,,Space,keypress(Space),,,,,,,,-- --- ---- --- ------ ----- ------- ---- -- --- ------- --<br>------- ---------- ------ -- ----- -- ----- -- ---- ------<br>--- ----- --- --- ------ -------- ----- The ------ ----- --<br>----- ----- ---------- --- --- ------ ------ ---- -- ------<br>------- --- ------ ----- --- ---- ------- -- ---- --- --<br>------- ------,185707.20000004768,185706.5,185349.847,185358.70000004768,185366.243,185717.153,,29,The
screen,html.Screen,2_1_1_1_30,2022-05-03T19:59:14.545Z,,,,,,,,,,,,,,,,,54,,,,,,,,,,,,,,422.54700004769256,,response,,,,100,,,,,,,Space,keypress(Space),,,,,,,,-- --- ---- --- ------ ----- ------- ---- -- --- ------- --<br>------- ---------- ------ -- ----- -- ----- -- ---- ------<br>--- ----- --- --- ------ -------- ----- --- market ----- --<br>----- ----- ---------- --- --- ------ ------ ---- -- ------<br>------- --- ------ ----- --- ---- ------- -- ---- --- --<br>------- ------,186140.5,186139.70000004768,185700.084,185707.29999995232,185717.153,186150.443,,30,market
screen,html.Screen,2_1_1_1_31,2022-05-03T19:59:14.872Z,,,,,,,,,,,,,,,,,54,,,,,,,,,,,,,,316.356999952317,,response,,,,100,,,,,,,Space,keypress(Space),,,,,,,,-- --- ---- --- ------ ----- ------- ---- -- --- ------- --<br>------- ---------- ------ -- ----- -- ----- -- ---- ------<br>--- ----- --- --- ------ -------- ----- --- ------ value --<br>----- ----- ---------- --- --- ------ ------ ---- -- ------<br>------- --- ------ ----- --- ---- ------- -- ---- --- --<br>------- ------,186467.60000002384,186466.79999995232,186133.374,186140.70000004768,186150.443,186484.314,,31,value
screen,html.Screen,2_1_1_1_32,2022-05-03T19:59:15.244Z,,,,,,,,,,,,,,,,,54,,,,,,,,,,,,,,354.5859999761451,,response,,,,100,,,,,,,Space,keypress(Space),,,,,,,,-- --- ---- --- ------ ----- ------- ---- -- --- ------- --<br>------- ---------- ------ -- ----- -- ----- -- ---- ------<br>--- ----- --- --- ------ -------- ----- --- ------ ----- of<br>----- ----- ---------- --- --- ------ ------ ---- -- ------<br>------- --- ------ ----- --- ---- ------- -- ---- --- --<br>------- ------,186839.60000002384,186838.89999997616,186467.629,186467.79999995232,186484.314,186851.385,,32,of
screen,html.Screen,2_1_1_1_33,2022-05-03T19:59:15.550Z,,,,,,,,,,,,,,,,,54,,,,,,,,,,,,,,294.3150000476744,,response,,,,100,,,,,,,Space,keypress(Space),,,,,,,,-- --- ---- --- ------ ----- ------- ---- -- --- ------- --<br>------- ---------- ------ -- ----- -- ----- -- ---- ------<br>--- ----- --- --- ------ -------- ----- --- ------ ----- --<br>these ----- ---------- --- --- ------ ------ ---- -- ------<br>------- --- ------ ----- --- ---- ------- -- ---- --- --<br>------- ------,187146.10000002384,187145.70000004768,186834.694,186839.79999995232,186851.385,187151.535,,33,these
screen,html.Screen,2_1_1_1_34,2022-05-03T19:59:15.913Z,,,,,,,,,,,,,,,,,54,,,,,,,,,,,,,,356.4649999999965,,response,,,,100,,,,,,,Space,keypress(Space),,,,,,,,-- --- ---- --- ------ ----- ------- ---- -- --- ------- --<br>------- ---------- ------ -- ----- -- ----- -- ---- ------<br>--- ----- --- --- ------ -------- ----- --- ------ ----- --<br>----- bonds ---------- --- --- ------ ------ ---- -- ------<br>------- --- ------ ----- --- ---- ------- -- ---- --- --<br>------- ------,187508.70000004768,187508,187135.036,187146.10000002384,187151.535,187518.685,,34,bonds
screen,html.Screen,2_1_1_1_35,2022-05-03T19:59:16.317Z,,,,,,,,,,,,,,,,,54,,,,,,,,,,,,,,393.21499997616047,,response,,,,100,,,,,,,Space,keypress(Space),,,,,,,,"-- --- ---- --- ------ ----- ------- ---- -- --- ------- --<br>------- ---------- ------ -- ----- -- ----- -- ---- ------<br>--- ----- --- --- ------ -------- ----- --- ------ ----- --<br>----- ----- plummeted, --- --- ------ ------ ---- -- ------<br>------- --- ------ ----- --- ---- ------- -- ---- --- --<br>------- ------",187912.5,187911.89999997616,187502.11,187508.79999995232,187518.685,187919.05,,35,"plummeted,"
screen,html.Screen,2_1_1_1_36,2022-05-03T19:59:16.710Z,,,,,,,,,,,,,,,,,54,,,,,,,,,,,,,,386.2499999523279,,response,,,,100,,,,,,,Space,keypress(Space),,,,,,,,-- --- ---- --- ------ ----- ------- ---- -- --- ------- --<br>------- ---------- ------ -- ----- -- ----- -- ---- ------<br>--- ----- --- --- ------ -------- ----- --- ------ ----- --<br>----- ----- ---------- and --- ------ ------ ---- -- ------<br>------- --- ------ ----- --- ---- ------- -- ---- --- --<br>------- ------,188305.70000004768,188305.29999995232,187901.937,187912.70000004768,187919.05,188319.604,,36,and
screen,html.Screen,2_1_1_1_37,2022-05-03T19:59:17.013Z,,,,,,,,,,,,,,,,,54,,,,,,,,,,,,,,287.79599997616606,,response,,,,100,,,,,,,Space,keypress(Space),,,,,,,,-- --- ---- --- ------ ----- ------- ---- -- --- ------- --<br>------- ---------- ------ -- ----- -- ----- -- ---- ------<br>--- ----- --- --- ------ -------- ----- --- ------ ----- --<br>----- ----- ---------- --- the ------ ------ ---- -- ------<br>------- --- ------ ----- --- ---- ------- -- ---- --- --<br>------- ------,188608.29999995232,188607.39999997616,188302.896,188305.79999995232,188319.604,188620.197,,37,the
screen,html.Screen,2_1_1_1_38,2022-05-03T19:59:17.384Z,,,,,,,,,,,,,,,,,54,,,,,,,,,,,,,,359.2029999761726,,response,,,,100,,,,,,,Space,keypress(Space),,,,,,,,-- --- ---- --- ------ ----- ------- ---- -- --- ------- --<br>------- ---------- ------ -- ----- -- ----- -- ---- ------<br>--- ----- --- --- ------ -------- ----- --- ------ ----- --<br>----- ----- ---------- --- --- market ------ ---- -- ------<br>------- --- ------ ----- --- ---- ------- -- ---- --- --<br>------- ------,188980,188979.39999997616,188603.829,188608.5,188620.197,188986.833,,38,market
screen,html.Screen,2_1_1_1_39,2022-05-03T19:59:17.762Z,,,,,,,,,,,,,,,,,54,,,,,,,,,,,,,,369.966999952303,,response,,,,100,,,,,,,Space,keypress(Space),,,,,,,,-- --- ---- --- ------ ----- ------- ---- -- --- ------- --<br>------- ---------- ------ -- ----- -- ----- -- ---- ------<br>--- ----- --- --- ------ -------- ----- --- ------ ----- --<br>----- ----- ---------- --- --- ------ became ---- -- ------<br>------- --- ------ ----- --- ---- ------- -- ---- --- --<br>------- ------,189357.39999997616,189356.79999995232,188970.407,188980.10000002384,188986.833,189370.784,,39,became
screen,html.Screen,2_1_1_1_40,2022-05-03T19:59:18.124Z,,,,,,,,,,,,,,,,,54,,,,,,,,,,,,,,348.5159999523021,,response,,,,100,,,,,,,Space,keypress(Space),,,,,,,,-- --- ---- --- ------ ----- ------- ---- -- --- ------- --<br>------- ---------- ------ -- ----- -- ----- -- ---- ------<br>--- ----- --- --- ------ -------- ----- --- ------ ----- --<br>----- ----- ---------- --- --- ------ ------ wary -- ------<br>------- --- ------ ----- --- ---- ------- -- ---- --- --<br>------- ------,189720,189719.29999995232,189353.637,189357.39999997616,189370.784,189739.877,,40,wary
screen,html.Screen,2_1_1_1_41,2022-05-03T19:59:18.843Z,,,,,,,,,,,,,,,,,54,,,,,,,,,,,,,,698.323000047676,,response,,,,100,,,,,,,Space,keypress(Space),,,,,,,,-- --- ---- --- ------ ----- ------- ---- -- --- ------- --<br>------- ---------- ------ -- ----- -- ----- -- ---- ------<br>--- ----- --- --- ------ -------- ----- --- ------ ----- --<br>----- ----- ---------- --- --- ------ ------ ---- of ------<br>------- --- ------ ----- --- ---- ------- -- ---- --- --<br>------- ------,190438.60000002384,190438.20000004768,189704.537,189720.10000002384,189739.877,190455.151,,41,of
screen,html.Screen,2_1_1_1_42,2022-05-03T19:59:19.256Z,,,,,,,,,,,,,,,,,54,,,,,,,,,,,,,,396.24899997614557,,response,,,,100,,,,,,,Space,keypress(Space),,,,,,,,-- --- ---- --- ------ ----- ------- ---- -- --- ------- --<br>------- ---------- ------ -- ----- -- ----- -- ---- ------<br>--- ----- --- --- ------ -------- ----- --- ------ ----- --<br>----- ----- ---------- --- --- ------ ------ ---- -- French<br>------- --- ------ ----- --- ---- ------- -- ---- --- --<br>------- ------,190851.79999995232,190851.39999997616,190437.849,190438.70000004768,190455.151,190855.533,,42,French
screen,html.Screen,2_1_1_1_43,2022-05-03T19:59:19.678Z,,,,,,,,,,,,,,,,,54,,,,,,,,,,,,,,418.1670000476879,,response,,,,100,,,,,,,Space,keypress(Space),,,,,,,,-- --- ---- --- ------ ----- ------- ---- -- --- ------- --<br>------- ---------- ------ -- ----- -- ----- -- ---- ------<br>--- ----- --- --- ------ -------- ----- --- ------ ----- --<br>----- ----- ---------- --- --- ------ ------ ---- -- ------<br>credit. --- ------ ----- --- ---- ------- -- ---- --- --<br>------- ------,191274.10000002384,191273.70000004768,190838.506,190852,190855.533,191289.395,,43,credit.
screen,html.Screen,2_1_1_1_44,2022-05-03T19:59:20.051Z,,,,,,,,,,,,,,,,,54,,,,,,,,,,,,,,357.3050000476942,,response,,,,100,,,,,,,Space,keypress(Space),,,,,,,,-- --- ---- --- ------ ----- ------- ---- -- --- ------- --<br>------- ---------- ------ -- ----- -- ----- -- ---- ------<br>--- ----- --- --- ------ -------- ----- --- ------ ----- --<br>----- ----- ---------- --- --- ------ ------ ---- -- ------<br>------- The ------ ----- --- ---- ------- -- ---- --- --<br>------- ------,191647.10000002384,191646.70000004768,191272.232,191274.29999995232,191289.395,191656.46,,44,The
screen,html.Screen,2_1_1_1_45,2022-05-03T19:59:20.344Z,,,,,,,,,,,,,,,,,54,,,,,,,,,,,,,,282.64000002385,,response,,,,100,,,,,,,Space,keypress(Space),,,,,,,,-- --- ---- --- ------ ----- ------- ---- -- --- ------- --<br>------- ---------- ------ -- ----- -- ----- -- ---- ------<br>--- ----- --- --- ------ -------- ----- --- ------ ----- --<br>----- ----- ---------- --- --- ------ ------ ---- -- ------<br>------- --- French ----- --- ---- ------- -- ---- --- --<br>------- ------,191939.70000004768,191939.10000002384,191639.419,191647.29999995232,191656.46,191956.796,,45,French
screen,html.Screen,2_1_1_1_46,2022-05-03T19:59:20.761Z,,,,,,,,,,,,,,,,,54,,,,,,,,,,,,,,399.60399997615605,,response,,,,100,,,,,,,Space,keypress(Space),,,,,,,,-- --- ---- --- ------ ----- ------- ---- -- --- ------- --<br>------- ---------- ------ -- ----- -- ----- -- ---- ------<br>--- ----- --- --- ------ -------- ----- --- ------ ----- --<br>----- ----- ---------- --- --- ------ ------ ---- -- ------<br>------- --- ------ state --- ---- ------- -- ---- --- --<br>------- ------,192357,192356.39999997616,191939.801,191939.70000004768,191956.796,192373.914,,46,state
screen,html.Screen,2_1_1_1_47,2022-05-03T19:59:21.134Z,,,,,,,,,,,,,,,,,54,,,,,,,,,,,,,,355.58600000001024,,response,,,,100,,,,,,,Space,keypress(Space),,,,,,,,-- --- ---- --- ------ ----- ------- ---- -- --- ------- --<br>------- ---------- ------ -- ----- -- ----- -- ---- ------<br>--- ----- --- --- ------ -------- ----- --- ------ ----- --<br>----- ----- ---------- --- --- ------ ------ ---- -- ------<br>------- --- ------ ----- was ---- ------- -- ---- --- --<br>------- ------,192730,192729.5,192356.791,192357.10000002384,192373.914,192740.971,,47,was
screen,html.Screen,2_1_1_1_48,2022-05-03T19:59:21.571Z,,,,,,,,,,,,,,,,,54,,,,,,,,,,,,,,425.6290000238514,,response,,,,100,,,,,,,Space,keypress(Space),,,,,,,,-- --- ---- --- ------ ----- ------- ---- -- --- ------- --<br>------- ---------- ------ -- ----- -- ----- -- ---- ------<br>--- ----- --- --- ------ -------- ----- --- ------ ----- --<br>----- ----- ---------- --- --- ------ ------ ---- -- ------<br>------- --- ------ ----- --- left ------- -- ---- --- --<br>------- ------,193167.20000004768,193166.60000002384,192723.906,192730,192740.971,193174.745,,48,left
screen,html.Screen,2_1_1_1_49,2022-05-03T19:59:21.928Z,,,,,,,,,,,,,,,,,54,,,,,,,,,,,,,,348.75500000000466,,response,,,,100,,,,,,,Space,keypress(Space),,,,,,,,-- --- ---- --- ------ ----- ------- ---- -- --- ------- --<br>------- ---------- ------ -- ----- -- ----- -- ---- ------<br>--- ----- --- --- ------ -------- ----- --- ------ ----- --<br>----- ----- ---------- --- --- ------ ------ ---- -- ------<br>------- --- ------ ----- --- ---- without -- ---- --- --<br>------- ------,193524,193523.5,193157.657,193167.29999995232,193174.745,193546.792,,49,without
screen,html.Screen,2_1_1_1_50,2022-05-03T19:59:22.282Z,,,,,,,,,,,,,,,,,54,,,,,,,,,,,,,,330.50799995232956,,response,,,,100,,,,,,,Space,keypress(Space),,,,,,,,-- --- ---- --- ------ ----- ------- ---- -- --- ------- --<br>------- ---------- ------ -- ----- -- ----- -- ---- ------<br>--- ----- --- --- ------ -------- ----- --- ------ ----- --<br>----- ----- ---------- --- --- ------ ------ ---- -- ------<br>------- --- ------ ----- --- ---- ------- an ---- --- --<br>------- ------,193877.79999995232,193877.29999995232,193508.12,193524,193546.792,193892.21,,50,an
screen,html.Screen,2_1_1_1_51,2022-05-03T19:59:22.640Z,,,,,,,,,,,,,,,,,54,,,,,,,,,,,,,,342.89000002385,,response,,,,100,,,,,,,Space,keypress(Space),,,,,,,,-- --- ---- --- ------ ----- ------- ---- -- --- ------- --<br>------- ---------- ------ -- ----- -- ----- -- ---- ------<br>--- ----- --- --- ------ -------- ----- --- ------ ----- --<br>----- ----- ---------- --- --- ------ ------ ---- -- ------<br>------- --- ------ ----- --- ---- ------- -- easy --- --<br>------- ------,194236,194235.10000002384,193875.165,193877.89999997616,193892.21,194242.613,,51,easy
screen,html.Screen,2_1_1_1_52,2022-05-03T19:59:22.996Z,,,,,,,,,,,,,,,,,54,,,,,,,,,,,,,,348.5870000476716,,response,,,,100,,,,,,,Space,keypress(Space),,,,,,,,-- --- ---- --- ------ ----- ------- ---- -- --- ------- --<br>------- ---------- ------ -- ----- -- ----- -- ---- ------<br>--- ----- --- --- ------ -------- ----- --- ------ ----- --<br>----- ----- ---------- --- --- ------ ------ ---- -- ------<br>------- --- ------ ----- --- ---- ------- -- ---- way --<br>------- ------,194591.5,194591.20000004768,194226.234,194236.20000004768,194242.613,194592.971,,52,way
screen,html.Screen,2_1_1_1_53,2022-05-03T19:59:23.451Z,,,,,,,,,,,,,,,,,54,,,,,,,,,,,,,,452.4289999761677,,response,,,,100,,,,,,,Space,keypress(Space),,,,,,,,-- --- ---- --- ------ ----- ------- ---- -- --- ------- --<br>------- ---------- ------ -- ----- -- ----- -- ---- ------<br>--- ----- --- --- ------ -------- ----- --- ------ ----- --<br>----- ----- ---------- --- --- ------ ------ ---- -- ------<br>------- --- ------ ----- --- ---- ------- -- ---- --- of<br>------- ------,195046.39999997616,195045.39999997616,194576.57,194591.70000004768,194592.971,195060.326,,53,of
screen,html.Screen,2_1_1_1_54,2022-05-03T19:59:23.883Z,,,,,,,,,,,,,,,,,54,,,,,,,,,,,,,,417.5739999761572,,response,,,,100,,,,,,,Space,keypress(Space),,,,,,,,-- --- ---- --- ------ ----- ------- ---- -- --- ------- --<br>------- ---------- ------ -- ----- -- ----- -- ---- ------<br>--- ----- --- --- ------ -------- ----- --- ------ ----- --<br>----- ----- ---------- --- --- ------ ------ ---- -- ------<br>------- --- ------ ----- --- ---- ------- -- ---- --- --<br>raising ------,195478.79999995232,195477.89999997616,195042.996,195046.5,195060.326,195494.044,,54,raising
screen,html.Screen,2_1_1_1_55,2022-05-03T19:59:24.502Z,,,,,,,,,,,,,,,,,54,,,,,,,,,,,,,,603.0560000238474,,response,,,,100,,,,,,,Space,keypress(Space),,,,,,,,-- --- ---- --- ------ ----- ------- ---- -- --- ------- --<br>------- ---------- ------ -- ----- -- ----- -- ---- ------<br>--- ----- --- --- ------ -------- ----- --- ------ ----- --<br>----- ----- ---------- --- --- ------ ------ ---- -- ------<br>------- --- ------ ----- --- ---- ------- -- ---- --- --<br>------- money.,196097.89999997616,196097.10000002384,195477.149,195479,195494.044,196111.681,,55,money.
Item 100,flow.Loop,2_1_1_1,2022-05-03T19:59:24.502Z,,,,,,,,,,,,,,,,,,,,,,,,,,,,,,,21475.972000023845,,completion,,,,,A,,,,,,,,,,,silence,,,,,196098,196097.10000002384,174605.063,174606,174621.128,196111.681,,,
Question 1,html.Screen,2_1_1_2,2022-05-03T19:59:27.915Z,,,,,,,,,,,,,,,,,,,,,,,,,,,,true,TRUE,,3398.4190000238304,,response,,,,100,A,,,,,,TRUE,click #choice-1,,,,silence,,,,,199511.20000004768,199510.10000002384,196094.57,196098.20000004768,196111.681,199515.064,,,
Question 2,html.Screen,2_1_1_3,2022-05-03T19:59:33.493Z,,,,,,,,,,,,,,,,,,,,,,,,,,,,true,FALSE,,5572.935999999987,,response,,,,100,A,,,,,,FALSE,click #choice-2,,,,silence,,,,,205089,205088,199498.886,199511.29999995232,199515.064,205104.458,,,
Item 100,flow.Sequence,2_1_1,2022-05-03T19:59:33.493Z,,,,,,,,,,,,,,,,,,,,,,,,,,,,,,,40461.136,,completion,,,,,,,,,,,,,,,,,,,,,205089.20000004768,205088,164610.093,164620.29999995232,164626.864,205104.458,,,
End of Practice,html.Page,2_1_2,2022-05-03T19:59:37.668Z,,,,,,,,,,,,,,,,,,,,,,,,,,,,,,,4159.142000023829,,form submission,,,,,,,,,,,,,,,,,,,,,209263.89999997616,209263.60000002384,205087.684,205089.29999995232,205104.458,209276.524,,,
Practice,flow.Sequence,2_1,2022-05-03T19:59:37.668Z,,,,,,,,,,,,,,,,,,,,,,,,,,,,,,,94624.73700002384,,completion,,,,,,,,,,,,,,,,,,,,,209264,209263.60000002384,114622.042,114635,114638.863,209276.524,,,
Trap_instruction,html.Page,2_2_0,2022-05-03T19:59:41.778Z,,,,,,,,,,,,,,,,,,,,,,,,,,,,,,,4096.975999999995,,form submission,,,,,,,,,,,,,,,,,,,,,213373.79999995232,213373.5,209258.906,209264.10000002384,209276.524,213380.48,,,
trap_trial,html.Screen,2_2_1,2022-05-03T19:59:45.003Z,,,,,,,,,,,,,,,,,,,,,,,,,,,,true,1,,3217.319999952306,,response,,,,,,,,,,,1,click #choice-1,,,,,,,,,216598.5,216597.79999995232,213363.867,213374.10000002384,213380.48,216600.398,,,
end of trap trial,html.Page,2_2_2,2022-05-03T19:59:47.173Z,,,,,,,,,,,,,,,,,,,,,,,,,,,,,,,2168.40199995233,,form submission,,,,,,,,,,,,,,,,,,,,,218769,218768.79999995232,216583.571,216598.60000002384,216600.398,218798.898,,,
Trap 1,flow.Sequence,2_2,2022-05-03T19:59:47.173Z,,,,,,,,,,,,,,,,,,,,,,,,,,,,,,,9492.275999952311,,completion,,,,,,,,,,,,,,,,,,,,,218769.10000002384,218768.79999995232,209258.906,209264.10000002384,209276.524,218798.898,,,
Standby,html.Page,2_3_0,2022-05-03T19:59:55.184Z,,,,,,,,,,,,,,,,,,,,,,,,,,,,,,,7995.950000000012,,timeout,,,,,,,,,,,,,,,,,,,,,226779.60000002384,226778.324,218752.707,218769.20000004768,218798.898,226794.848,,,
Holding screen,html.Screen,2_3_1_0_0,2022-05-03T20:00:02.192Z,,,,,,,,,,,,,,,,,,,,,,,,,,,,,,,7007.708000000013,,timeout,,,,,,,,,,,,,,,,,,,,,233788.10000002384,233785.985,226778.324,226779.70000004768,226794.848,233802.556,,,
screen,html.Screen,2_3_1_0_1_0,2022-05-03T20:00:03.309Z,,,,,,,,,,,,,,,,,40,,,,,,,,,,,,,,1101.4439999999886,,response,,,,9,A,,,,,,Space,keypress(Space),,,,silence,,,,Police -- ------- ---- ---- ---- - -------- ----- --- --<br>----- ----- ------ -- ---- -- --- - ---- -- - ----- -----<br>------ ---- ------ ---- - -------- ------- -- --- --------<br>-------- ----------- ---- ------ ---- ------ ---- --- ---<br>-------- --- -----,234904.79999995232,234904,233785.985,233788.20000004768,233802.556,234920.462,,0,Police
screen,html.Screen,2_3_1_0_1_1,2022-05-03T20:00:03.696Z,,,,,,,,,,,,,,,,,40,,,,,,,,,,,,,,370.83799995231675,,response,,,,9,A,,,,,,Space,keypress(Space),,,,silence,,,,------ in ------- ---- ---- ---- - -------- ----- --- --<br>----- ----- ------ -- ---- -- --- - ---- -- - ----- -----<br>------ ---- ------ ---- - -------- ------- -- --- --------<br>-------- ----------- ---- ------ ---- ------ ---- --- ---<br>-------- --- -----,235292,235291.29999995232,234902.55,234904.89999997616,234920.462,235304.778,,1,in
screen,html.Screen,2_3_1_0_1_2,2022-05-03T20:00:04.065Z,,,,,,,,,,,,,,,,,40,,,,,,,,,,,,,,355.52199995232513,,response,,,,9,A,,,,,,Space,keypress(Space),,,,silence,,,,------ -- Georgia ---- ---- ---- - -------- ----- --- --<br>----- ----- ------ -- ---- -- --- - ---- -- - ----- -----<br>------ ---- ------ ---- - -------- ------- -- --- --------<br>-------- ----------- ---- ------ ---- ------ ---- --- ---<br>-------- --- -----,235661.10000002384,235660.29999995232,235287.728,235292.10000002384,235304.778,235671.77,,2,Georgia
screen,html.Screen,2_3_1_0_1_3,2022-05-03T20:00:04.409Z,,,,,,,,,,,,,,,,,40,,,,,,,,,,,,,,332.1299999761686,,response,,,,9,A,,,,,,Space,keypress(Space),,,,silence,,,,------ -- ------- have ---- ---- - -------- ----- --- --<br>----- ----- ------ -- ---- -- --- - ---- -- - ----- -----<br>------ ---- ------ ---- - -------- ------- -- --- --------<br>-------- ----------- ---- ------ ---- ------ ---- --- ---<br>-------- --- -----,236004.39999997616,236003.89999997616,235654.345,235661.29999995232,235671.77,236022.254,,3,have
screen,html.Screen,2_3_1_0_1_4,2022-05-03T20:00:04.720Z,,,,,,,,,,,,,,,,,40,,,,,,,,,,,,,,292.8460000238556,,response,,,,9,A,,,,,,Space,keypress(Space),,,,silence,,,,------ -- ------- ---- shut ---- - -------- ----- --- --<br>----- ----- ------ -- ---- -- --- - ---- -- - ----- -----<br>------ ---- ------ ---- - -------- ------- -- --- --------<br>-------- ----------- ---- ------ ---- ------ ---- --- ---<br>-------- --- -----,236315.89999997616,236315.10000002384,235988.53,236004.5,236022.254,236321.962,,4,shut
screen,html.Screen,2_3_1_0_1_5,2022-05-03T20:00:05.022Z,,,,,,,,,,,,,,,,,40,,,,,,,,,,,,,,295.53800000000047,,response,,,,9,A,,,,,,Space,keypress(Space),,,,silence,,,,------ -- ------- ---- ---- down - -------- ----- --- --<br>----- ----- ------ -- ---- -- --- - ---- -- - ----- -----<br>------ ---- ------ ---- - -------- ------- -- --- --------<br>-------- ----------- ---- ------ ---- ------ ---- --- ---<br>-------- --- -----,236617.89999997616,236617.5,236305.556,236316,236321.962,236622.356,,5,down
screen,html.Screen,2_3_1_0_1_6,2022-05-03T20:00:05.315Z,,,,,,,,,,,,,,,,,40,,,,,,,,,,,,,,287.7440000238421,,response,,,,9,A,,,,,,Space,keypress(Space),,,,silence,,,,------ -- ------- ---- ---- ---- a -------- ----- --- --<br>----- ----- ------ -- ---- -- --- - ---- -- - ----- -----<br>------ ---- ------ ---- - -------- ------- -- --- --------<br>-------- ----------- ---- ------ ---- ------ ---- --- ---<br>-------- --- -----,236910.79999995232,236910.10000002384,236605.913,236618,236622.356,236923.088,,6,a
screen,html.Screen,2_3_1_0_1_7,2022-05-03T20:00:05.582Z,,,,,,,,,,,,,,,,,40,,,,,,,,,,,,,,253.81199997616932,,response,,,,9,A,,,,,,Space,keypress(Space),,,,silence,,,,------ -- ------- ---- ---- ---- - lemonade ----- --- --<br>----- ----- ------ -- ---- -- --- - ---- -- - ----- -----<br>------ ---- ------ ---- - -------- ------- -- --- --------<br>-------- ----------- ---- ------ ---- ------ ---- --- ---<br>-------- --- -----,237177.29999995232,237176.89999997616,236906.416,236910.89999997616,236923.088,237189.845,,7,lemonade
screen,html.Screen,2_3_1_0_1_8,2022-05-03T20:00:05.894Z,,,,,,,,,,,,,,,,,40,,,,,,,,,,,,,,299.4549999523151,,response,,,,9,A,,,,,,Space,keypress(Space),,,,silence,,,,------ -- ------- ---- ---- ---- - -------- stand --- --<br>----- ----- ------ -- ---- -- --- - ---- -- - ----- -----<br>------ ---- ------ ---- - -------- ------- -- --- --------<br>-------- ----------- ---- ------ ---- ------ ---- --- ---<br>-------- --- -----,237490,237489.29999995232,237173.225,237177.39999997616,237189.845,237507.124,,8,stand
screen,html.Screen,2_3_1_0_1_9,2022-05-03T20:00:06.196Z,,,,,,,,,,,,,,,,,40,,,,,,,,,,,,,,284.1759999523056,,response,,,,9,A,,,,,,Space,keypress(Space),,,,silence,,,,------ -- ------- ---- ---- ---- - -------- ----- run --<br>----- ----- ------ -- ---- -- --- - ---- -- - ----- -----<br>------ ---- ------ ---- - -------- ------- -- --- --------<br>-------- ----------- ---- ------ ---- ------ ---- --- ---<br>-------- --- -----,237791.70000004768,237791.29999995232,237490.189,237490,237507.124,237807.495,,9,run
screen,html.Screen,2_3_1_0_1_10,2022-05-03T20:00:06.534Z,,,,,,,,,,,,,,,,,40,,,,,,,,,,,,,,322.00500000000466,,response,,,,9,A,,,,,,Space,keypress(Space),,,,silence,,,,------ -- ------- ---- ---- ---- - -------- ----- --- by<br>----- ----- ------ -- ---- -- --- - ---- -- - ----- -----<br>------ ---- ------ ---- - -------- ------- -- --- --------<br>-------- ----------- ---- ------ ---- ------ ---- --- ---<br>-------- --- -----,238130.29999995232,238129.5,237790.063,237791.79999995232,237807.495,238140.716,,10,by
screen,html.Screen,2_3_1_0_1_11,2022-05-03T20:00:06.926Z,,,,,,,,,,,,,,,,,40,,,,,,,,,,,,,,381.18399997617234,,response,,,,9,A,,,,,,Space,keypress(Space),,,,silence,,,,------ -- ------- ---- ---- ---- - -------- ----- --- --<br>three ----- ------ -- ---- -- --- - ---- -- - ----- -----<br>------ ---- ------ ---- - -------- ------- -- --- --------<br>-------- ----------- ---- ------ ---- ------ ---- --- ---<br>-------- --- -----,238522.29999995232,238521.89999997616,238123.78,238130.5,238140.716,238524.384,,11,three
screen,html.Screen,2_3_1_0_1_12,2022-05-03T20:00:07.235Z,,,,,,,,,,,,,,,,,40,,,,,,,,,,,,,,305.71600002385094,,response,,,,9,A,,,,,,Space,keypress(Space),,,,silence,,,,------ -- ------- ---- ---- ---- - -------- ----- --- --<br>----- girls ------ -- ---- -- --- - ---- -- - ----- -----<br>------ ---- ------ ---- - -------- ------- -- --- --------<br>-------- ----------- ---- ------ ---- ------ ---- --- ---<br>-------- --- -----,238830.89999997616,238830.10000002384,238507.863,238522.39999997616,238524.384,238841.567,,12,girls
screen,html.Screen,2_3_1_0_1_13,2022-05-03T20:00:07.524Z,,,,,,,,,,,,,,,,,40,,,,,,,,,,,,,,277.1330000476737,,response,,,,9,A,,,,,,Space,keypress(Space),,,,silence,,,,------ -- ------- ---- ---- ---- - -------- ----- --- --<br>----- ----- trying -- ---- -- --- - ---- -- - ----- -----<br>------ ---- ------ ---- - -------- ------- -- --- --------<br>-------- ----------- ---- ------ ---- ------ ---- --- ---<br>-------- --- -----,239119.70000004768,239118.70000004768,238824.928,238831,238841.567,239125.055,,13,trying
screen,html.Screen,2_3_1_0_1_14,2022-05-03T20:00:07.810Z,,,,,,,,,,,,,,,,,40,,,,,,,,,,,,,,280.6450000476907,,response,,,,9,A,,,,,,Space,keypress(Space),,,,silence,,,,------ -- ------- ---- ---- ---- - -------- ----- --- --<br>----- ----- ------ to ---- -- --- - ---- -- - ----- -----<br>------ ---- ------ ---- - -------- ------- -- --- --------<br>-------- ----------- ---- ------ ---- ------ ---- --- ---<br>-------- --- -----,239406.20000004768,239405.70000004768,239108.706,239119.70000004768,239125.055,239408.705,,14,to
screen,html.Screen,2_3_1_0_1_15,2022-05-03T20:00:08.117Z,,,,,,,,,,,,,,,,,40,,,,,,,,,,,,,,303.39500002385466,,response,,,,9,A,,,,,,Space,keypress(Space),,,,silence,,,,------ -- ------- ---- ---- ---- - -------- ----- --- --<br>----- ----- ------ -- save -- --- - ---- -- - ----- -----<br>------ ---- ------ ---- - -------- ------- -- --- --------<br>-------- ----------- ---- ------ ---- ------ ---- --- ---<br>-------- --- -----,239712.60000002384,239712.10000002384,239392.277,239406.29999995232,239408.705,239726.289,,15,save
screen,html.Screen,2_3_1_0_1_16,2022-05-03T20:00:08.395Z,,,,,,,,,,,,,,,,,40,,,,,,,,,,,,,,263.71100000001024,,response,,,,9,A,,,,,,Space,keypress(Space),,,,silence,,,,------ -- ------- ---- ---- ---- - -------- ----- --- --<br>----- ----- ------ -- ---- up --- - ---- -- - ----- -----<br>------ ---- ------ ---- - -------- ------- -- --- --------<br>-------- ----------- ---- ------ ---- ------ ---- --- ---<br>-------- --- -----,239990.39999997616,239990,239709.207,239712.60000002384,239726.289,239992.662,,16,up
screen,html.Screen,2_3_1_0_1_17,2022-05-03T20:00:08.691Z,,,,,,,,,,,,,,,,,40,,,,,,,,,,,,,,293.23799997614697,,response,,,,9,A,,,,,,Space,keypress(Space),,,,silence,,,,------ -- ------- ---- ---- ---- - -------- ----- --- --<br>----- ----- ------ -- ---- -- for - ---- -- - ----- -----<br>------ ---- ------ ---- - -------- ------- -- --- --------<br>-------- ----------- ---- ------ ---- ------ ---- --- ---<br>-------- --- -----,240286.60000002384,240285.89999997616,239976.313,239990.39999997616,239992.662,240293.015,,17,for
screen,html.Screen,2_3_1_0_1_18,2022-05-03T20:00:08.989Z,,,,,,,,,,,,,,,,,40,,,,,,,,,,,,,,290.98499999998603,,response,,,,9,A,,,,,,Space,keypress(Space),,,,silence,,,,------ -- ------- ---- ---- ---- - -------- ----- --- --<br>----- ----- ------ -- ---- -- --- a ---- -- - ----- -----<br>------ ---- ------ ---- - -------- ------- -- --- --------<br>-------- ----------- ---- ------ ---- ------ ---- --- ---<br>-------- --- -----,240584.79999995232,240584,240277.247,240286.70000004768,240293.015,240593.814,,18,a
screen,html.Screen,2_3_1_0_1_19,2022-05-03T20:00:09.285Z,,,,,,,,,,,,,,,,,40,,,,,,,,,,,,,,286.7860000238288,,response,,,,9,A,,,,,,Space,keypress(Space),,,,silence,,,,------ -- ------- ---- ---- ---- - -------- ----- --- --<br>----- ----- ------ -- ---- -- --- - trip -- - ----- -----<br>------ ---- ------ ---- - -------- ------- -- --- --------<br>-------- ----------- ---- ------ ---- ------ ---- --- ---<br>-------- --- -----,240881.29999995232,240880.60000002384,240576.908,240584.89999997616,240593.814,240894.163,,19,trip
screen,html.Screen,2_3_1_0_1_20,2022-05-03T20:00:09.588Z,,,,,,,,,,,,,,,,,40,,,,,,,,,,,,,,289.33699999999953,,response,,,,9,A,,,,,,Space,keypress(Space),,,,silence,,,,------ -- ------- ---- ---- ---- - -------- ----- --- --<br>----- ----- ------ -- ---- -- --- - ---- to - ----- -----<br>------ ---- ------ ---- - -------- ------- -- --- --------<br>-------- ----------- ---- ------ ---- ------ ---- --- ---<br>-------- --- -----,241184.20000004768,241183.5,240877.119,240881.39999997616,240894.163,241194.526,,20,to
screen,html.Screen,2_3_1_0_1_21,2022-05-03T20:00:09.960Z,,,,,,,,,,,,,,,,,40,,,,,,,,,,,,,,360.5740000238293,,response,,,,9,A,,,,,,Space,keypress(Space),,,,silence,,,,------ -- ------- ---- ---- ---- - -------- ----- --- --<br>----- ----- ------ -- ---- -- --- - ---- -- a ----- -----<br>------ ---- ------ ---- - -------- ------- -- --- --------<br>-------- ----------- ---- ------ ---- ------ ---- --- ---<br>-------- --- -----,241555.60000002384,241555.10000002384,241177.61,241184.39999997616,241194.526,241561.105,,21,a
screen,html.Screen,2_3_1_0_1_22,2022-05-03T20:00:10.348Z,,,,,,,,,,,,,,,,,40,,,,,,,,,,,,,,382.29499997614766,,response,,,,9,A,,,,,,Space,keypress(Space),,,,silence,,,,------ -- ------- ---- ---- ---- - -------- ----- --- --<br>----- ----- ------ -- ---- -- --- - ---- -- - water -----<br>------ ---- ------ ---- - -------- ------- -- --- --------<br>-------- ----------- ---- ------ ---- ------ ---- --- ---<br>-------- --- -----,241943.79999995232,241943.39999997616,241544.573,241555.70000004768,241561.105,241974.597,,22,water
screen,html.Screen,2_3_1_0_1_23,2022-05-03T20:00:10.731Z,,,,,,,,,,,,,,,,,40,,,,,,,,,,,,,,352.10300004767487,,response,,,,9,A,,,,,,Space,keypress(Space),,,,silence,,,,"------ -- ------- ---- ---- ---- - -------- ----- --- --<br>----- ----- ------ -- ---- -- --- - ---- -- - ----- park,<br>------ ---- ------ ---- - -------- ------- -- --- --------<br>-------- ----------- ---- ------ ---- ------ ---- --- ---<br>-------- --- -----",242327.29999995232,242326.70000004768,241928.343,241943.89999997616,241974.597,242350.895,,23,"park,"
screen,html.Screen,2_3_1_0_1_24,2022-05-03T20:00:11.154Z,,,,,,,,,,,,,,,,,40,,,,,,,,,,,,,,398.1050000000105,,response,,,,9,A,,,,,,Space,keypress(Space),,,,silence,,,,------ -- ------- ---- ---- ---- - -------- ----- --- --<br>----- ----- ------ -- ---- -- --- - ---- -- - ----- -----<br>saying ---- ------ ---- - -------- ------- -- --- --------<br>-------- ----------- ---- ------ ---- ------ ---- --- ---<br>-------- --- -----,242749.60000002384,242749,242312.634,242327.60000002384,242350.895,242762.755,,24,saying
screen,html.Screen,2_3_1_0_1_25,2022-05-03T20:00:11.425Z,,,,,,,,,,,,,,,,,40,,,,,,,,,,,,,,257.24499999999534,,response,,,,9,A,,,,,,Space,keypress(Space),,,,silence,,,,------ -- ------- ---- ---- ---- - -------- ----- --- --<br>----- ----- ------ -- ---- -- --- - ---- -- - ----- -----<br>------ they ------ ---- - -------- ------- -- --- --------<br>-------- ----------- ---- ------ ---- ------ ---- --- ---<br>-------- --- -----,243020.79999995232,243020,242745.849,242749.70000004768,242762.755,243029.589,,25,they
screen,html.Screen,2_3_1_0_1_26,2022-05-03T20:00:11.673Z,,,,,,,,,,,,,,,,,40,,,,,,,,,,,,,,238.01100002383464,,response,,,,9,A,,,,,,Space,keypress(Space),,,,silence,,,,------ -- ------- ---- ---- ---- - -------- ----- --- --<br>----- ----- ------ -- ---- -- --- - ---- -- - ----- -----<br>------ ---- didn't ---- - -------- ------- -- --- --------<br>-------- ----------- ---- ------ ---- ------ ---- --- ---<br>-------- --- -----,243268.5,243267.60000002384,243012.91,243021,243029.589,243279.695,,26,didn't
screen,html.Screen,2_3_1_0_1_27,2022-05-03T20:00:12.035Z,,,,,,,,,,,,,,,,,40,,,,,,,,,,,,,,350.9050000238349,,response,,,,9,A,,,,,,Space,keypress(Space),,,,silence,,,,------ -- ------- ---- ---- ---- - -------- ----- --- --<br>----- ----- ------ -- ---- -- --- - ---- -- - ----- -----<br>------ ---- ------ have - -------- ------- -- --- --------<br>-------- ----------- ---- ------ ---- ------ ---- --- ---<br>-------- --- -----,243631.39999997616,243630.60000002384,243263.252,243268.70000004768,243279.695,243647.258,,27,have
screen,html.Screen,2_3_1_0_1_28,2022-05-03T20:00:12.328Z,,,,,,,,,,,,,,,,,40,,,,,,,,,,,,,,275.8420000238402,,response,,,,9,A,,,,,,Space,keypress(Space),,,,silence,,,,------ -- ------- ---- ---- ---- - -------- ----- --- --<br>----- ----- ------ -- ---- -- --- - ---- -- - ----- -----<br>------ ---- ------ ---- a -------- ------- -- --- --------<br>-------- ----------- ---- ------ ---- ------ ---- --- ---<br>-------- --- -----,243923.79999995232,243923.10000002384,243630.172,243631.39999997616,243647.258,243930.327,,28,a
screen,html.Screen,2_3_1_0_1_29,2022-05-03T20:00:12.681Z,,,,,,,,,,,,,,,,,40,,,,,,,,,,,,,,345.6730000000098,,response,,,,9,A,,,,,,Space,keypress(Space),,,,silence,,,,------ -- ------- ---- ---- ---- - -------- ----- --- --<br>----- ----- ------ -- ---- -- --- - ---- -- - ----- -----<br>------ ---- ------ ---- - business ------- -- --- --------<br>-------- ----------- ---- ------ ---- ------ ---- --- ---<br>-------- --- -----,244276.79999995232,244276,243913.523,243923.89999997616,243930.327,244280.661,,29,business
screen,html.Screen,2_3_1_0_1_30,2022-05-03T20:00:13.014Z,,,,,,,,,,,,,,,,,40,,,,,,,,,,,,,,328.3390000000072,,response,,,,9,A,,,,,,Space,keypress(Space),,,,silence,,,,------ -- ------- ---- ---- ---- - -------- ----- --- --<br>----- ----- ------ -- ---- -- --- - ---- -- - ----- -----<br>------ ---- ------ ---- - -------- license -- --- --------<br>-------- ----------- ---- ------ ---- ------ ---- --- ---<br>-------- --- -----,244609.70000004768,244609,244264.226,244277,244280.661,244614.761,,30,license
screen,html.Screen,2_3_1_0_1_31,2022-05-03T20:00:13.311Z,,,,,,,,,,,,,,,,,40,,,,,,,,,,,,,,291.63899997615954,,response,,,,9,A,,,,,,Space,keypress(Space),,,,silence,,,,------ -- ------- ---- ---- ---- - -------- ----- --- --<br>----- ----- ------ -- ---- -- --- - ---- -- - ----- -----<br>------ ---- ------ ---- - -------- ------- or --- --------<br>-------- ----------- ---- ------ ---- ------ ---- --- ---<br>-------- --- -----,244906.89999997616,244906.39999997616,244597.523,244609.89999997616,244614.761,244914.973,,31,or
screen,html.Screen,2_3_1_0_1_32,2022-05-03T20:00:13.593Z,,,,,,,,,,,,,,,,,40,,,,,,,,,,,,,,273.02700000000186,,response,,,,9,A,,,,,,Space,keypress(Space),,,,silence,,,,------ -- ------- ---- ---- ---- - -------- ----- --- --<br>----- ----- ------ -- ---- -- --- - ---- -- - ----- -----<br>------ ---- ------ ---- - -------- ------- -- the --------<br>-------- ----------- ---- ------ ---- ------ ---- --- ---<br>-------- --- -----,245188.70000004768,245188,244897.847,244907,244914.973,245198.894,,32,the
screen,html.Screen,2_3_1_0_1_33,2022-05-03T20:00:13.995Z,,,,,,,,,,,,,,,,,40,,,,,,,,,,,,,,391.5059999761579,,response,,,,9,A,,,,,,Space,keypress(Space),,,,silence,,,,------ -- ------- ---- ---- ---- - -------- ----- --- --<br>----- ----- ------ -- ---- -- --- - ---- -- - ----- -----<br>------ ---- ------ ---- - -------- ------- -- --- required<br>-------- ----------- ---- ------ ---- ------ ---- --- ---<br>-------- --- -----,245591.10000002384,245590.39999997616,245182.012,245188.89999997616,245198.894,245598.828,,33,required
screen,html.Screen,2_3_1_0_1_34,2022-05-03T20:00:14.348Z,,,,,,,,,,,,,,,,,40,,,,,,,,,,,,,,344.77200002383324,,response,,,,9,A,,,,,,Space,keypress(Space),,,,silence,,,,------ -- ------- ---- ---- ---- - -------- ----- --- --<br>----- ----- ------ -- ---- -- --- - ---- -- - ----- -----<br>------ ---- ------ ---- - -------- ------- -- --- --------<br>permits. ----------- ---- ------ ---- ------ ---- --- ---<br>-------- --- -----,245944.29999995232,245943.60000002384,245582.294,245591.20000004768,245598.828,245949.152,,34,permits.
screen,html.Screen,2_3_1_0_1_35,2022-05-03T20:00:14.677Z,,,,,,,,,,,,,,,,,40,,,,,,,,,,,,,,322.7479999761563,,response,,,,9,A,,,,,,Space,keypress(Space),,,,silence,,,,------ -- ------- ---- ---- ---- - -------- ----- --- --<br>----- ----- ------ -- ---- -- --- - ---- -- - ----- -----<br>------ ---- ------ ---- - -------- ------- -- --- --------<br>-------- Morningstar ---- ------ ---- ------ ---- --- ---<br>-------- --- -----,246272.60000002384,246271.89999997616,245932.718,245944.29999995232,245949.152,246282.93,,35,Morningstar
screen,html.Screen,2_3_1_0_1_36,2022-05-03T20:00:15.149Z,,,,,,,,,,,,,,,,,40,,,,,,,,,,,,,,461.070000000007,,response,,,,9,A,,,,,,Space,keypress(Space),,,,silence,,,,------ -- ------- ---- ---- ---- - -------- ----- --- --<br>----- ----- ------ -- ---- -- --- - ---- -- - ----- -----<br>------ ---- ------ ---- - -------- ------- -- --- --------<br>-------- ----------- says ------ ---- ------ ---- --- ---<br>-------- --- -----,246744.89999997616,246744,246266.225,246272.70000004768,246282.93,246750.034,,36,says
screen,html.Screen,2_3_1_0_1_37,2022-05-03T20:00:15.455Z,,,,,,,,,,,,,,,,,40,,,,,,,,,,,,,,300.4659999999858,,response,,,,9,A,,,,,,Space,keypress(Space),,,,silence,,,,------ -- ------- ---- ---- ---- - -------- ----- --- --<br>----- ----- ------ -- ---- -- --- - ---- -- - ----- -----<br>------ ---- ------ ---- - -------- ------- -- --- --------<br>-------- ----------- ---- police ---- ------ ---- --- ---<br>-------- --- -----,247051.10000002384,247050.5,246733.032,246745.10000002384,246750.034,247067.231,,37,police
screen,html.Screen,2_3_1_0_1_38,2022-05-03T20:00:15.768Z,,,,,,,,,,,,,,,,,40,,,,,,,,,,,,,,296.0689999523165,,response,,,,9,A,,,,,,Space,keypress(Space),,,,silence,,,,------ -- ------- ---- ---- ---- - -------- ----- --- --<br>----- ----- ------ -- ---- -- --- - ---- -- - ----- -----<br>------ ---- ------ ---- - -------- ------- -- --- --------<br>-------- ----------- ---- ------ also ------ ---- --- ---<br>-------- --- -----,247364,247363.29999995232,247050.706,247051.29999995232,247067.231,247367.387,,38,also
screen,html.Screen,2_3_1_0_1_39,2022-05-03T20:00:16.125Z,,,,,,,,,,,,,,,,,40,,,,,,,,,,,,,,353.4129999523284,,response,,,,9,A,,,,,,Space,keypress(Space),,,,silence,,,,------ -- ------- ---- ---- ---- - -------- ----- --- --<br>----- ----- ------ -- ---- -- --- - ---- -- - ----- -----<br>------ ---- ------ ---- - -------- ------- -- --- --------<br>-------- ----------- ---- ------ ---- didn't ---- --- ---<br>-------- --- -----,247721.20000004768,247720.79999995232,247350.563,247364.10000002384,247367.387,247735.033,,39,didn't
screen,html.Screen,2_3_1_0_1_40,2022-05-03T20:00:16.522Z,,,,,,,,,,,,,,,,,40,,,,,,,,,,,,,,382.36699997616233,,response,,,,9,A,,,,,,Space,keypress(Space),,,,silence,,,,------ -- ------- ---- ---- ---- - -------- ----- --- --<br>----- ----- ------ -- ---- -- --- - ---- -- - ----- -----<br>------ ---- ------ ---- - -------- ------- -- --- --------<br>-------- ----------- ---- ------ ---- ------ know --- ---<br>-------- --- -----,248118.39999997616,248117.39999997616,247717.581,247721.29999995232,247735.033,248135.497,,40,know
screen,html.Screen,2_3_1_0_1_41,2022-05-03T20:00:17.025Z,,,,,,,,,,,,,,,,,40,,,,,,,,,,,,,,484.9029999761551,,response,,,,9,A,,,,,,Space,keypress(Space),,,,silence,,,,------ -- ------- ---- ---- ---- - -------- ----- --- --<br>----- ----- ------ -- ---- -- --- - ---- -- - ----- -----<br>------ ---- ------ ---- - -------- ------- -- --- --------<br>-------- ----------- ---- ------ ---- ------ ---- how ---<br>-------- --- -----,248621,248620.39999997616,248118.38,248118.5,248135.497,248635.702,,41,how
screen,html.Screen,2_3_1_0_1_42,2022-05-03T20:00:17.503Z,,,,,,,,,,,,,,,,,40,,,,,,,,,,,,,,461.9980000476935,,response,,,,9,A,,,,,,Space,keypress(Space),,,,silence,,,,------ -- ------- ---- ---- ---- - -------- ----- --- --<br>----- ----- ------ -- ---- -- --- - ---- -- - ----- -----<br>------ ---- ------ ---- - -------- ------- -- --- --------<br>-------- ----------- ---- ------ ---- ------ ---- --- the<br>-------- --- -----,249098.60000002384,249097.70000004768,248618.918,248621.10000002384,248635.702,249102.666,,42,the
screen,html.Screen,2_3_1_0_1_43,2022-05-03T20:00:17.924Z,,,,,,,,,,,,,,,,,40,,,,,,,,,,,,,,417.0340000476863,,response,,,,9,A,,,,,,Space,keypress(Space),,,,silence,,,,------ -- ------- ---- ---- ---- - -------- ----- --- --<br>----- ----- ------ -- ---- -- --- - ---- -- - ----- -----<br>------ ---- ------ ---- - -------- ------- -- --- --------<br>-------- ----------- ---- ------ ---- ------ ---- --- ---<br>lemonade --- -----,249520.39999997616,249519.70000004768,249085.457,249098.70000004768,249102.666,249536.963,,43,lemonade
screen,html.Screen,2_3_1_0_1_44,2022-05-03T20:00:18.283Z,,,,,,,,,,,,,,,,,40,,,,,,,,,,,,,,340.63700002385303,,response,,,,9,A,,,,,,Space,keypress(Space),,,,silence,,,,------ -- ------- ---- ---- ---- - -------- ----- --- --<br>----- ----- ------ -- ---- -- --- - ---- -- - ----- -----<br>------ ---- ------ ---- - -------- ------- -- --- --------<br>-------- ----------- ---- ------ ---- ------ ---- --- ---<br>-------- was -----,249878.5,249877.60000002384,249519.974,249520.60000002384,249536.963,249886.82,,44,was
screen,html.Screen,2_3_1_0_1_45,2022-05-03T20:00:18.766Z,,,,,,,,,,,,,,,,,40,,,,,,,,,,,,,,474.2800000238349,,response,,,,9,A,,,,,,Space,keypress(Space),,,,silence,,,,------ -- ------- ---- ---- ---- - -------- ----- --- --<br>----- ----- ------ -- ---- -- --- - ---- -- - ----- -----<br>------ ---- ------ ---- - -------- ------- -- --- --------<br>-------- ----------- ---- ------ ---- ------ ---- --- ---<br>-------- --- made.,250361.79999995232,250361.10000002384,249870.171,249878.60000002384,249886.82,250370.703,,45,made.
Item 9,flow.Loop,2_3_1_0_1,2022-05-03T20:00:18.766Z,,,,,,,,,,,,,,,,,,,,,,,,,,,,,,,16558.54400002383,,completion,,,,,,,,,,,,,,,,,,,,,250362,250361.10000002384,233785.985,233788.20000004768,233802.556,250370.703,,,
Question 1,html.Screen,2_3_1_0_2,2022-05-03T20:00:22.111Z,,,,,,,,,,,,,,,,,,,,,,,,,,,,true,FALSE,,3334.6969999761495,,response,,,,9,A,,,,,,FALSE,click #choice-2,,,,silence,,,,,253706.39999997616,253705.39999997616,250353.618,250362,250370.703,253707.705,,,
Question 2,html.Screen,2_3_1_0_3,2022-05-03T20:00:24.544Z,,,,,,,,,,,,,,,,,,,,,,,,,,,,true,FALSE,,2430.594999952329,,response,,,,9,A,,,,,,FALSE,click #choice-2,,,,silence,,,,,256139.5,256138.29999995232,253690.756,253706.60000002384,253707.705,256143.878,,,
