sender,sender_type,sender_id,timestamp,meta,,Blues,Classical,Country,Dance,Electronic,Folk,Gospel,Hip-Hop,Jazz,Latin,Musical/Film,New-age,Pop,Prolific_id,Provo_ID,R&B,Rap,Reggae,Religious,Rock,Soul,Swing,Traditional,age,artist_name,correct,correctResponse,distraction,duration,education,ended_on,familiarity,gender,headphone_check_performance,item,list,music_frequency,offensiveness,pleasantness,position_correct,preference,response,response_action,snippet_file,song_name,song_rating,sound,stimulus_1,stimulus_2,stimulus_3,text,time_commit,time_end,time_render,time_run,time_show,time_switch,url,word,word_ID
Prolific ID,html.Form,0,2022-05-10T13:34:44.700Z,"{""labjs_version"":""20.2.2"",""labjs_build"":{""flavor"":""production"",""commit"":""a25486e0c714a0ae2ce03ff94b7bb6896854dcfa""},""location"":""https://run.pavlovia.org/mvasilev/prolific3_music_b/"",""userAgent"":""Mozilla/5.0 (Windows NT 10.0; WOW64) AppleWebKit/537.36 (KHTML, like Gecko) Chrome/101.0.4951.54 Safari/537.36"",""platform"":""Win32"",""language"":""en-US"",""locale"":""en-US"",""timeZone"":""Europe/London"",""timezoneOffset"":-60,""screen_width"":1920,""screen_height"":1080,""scroll_width"":1734,""scroll_height"":804,""window_innerWidth"":1734,""window_innerHeight"":852,""devicePixelRatio"":1}",,,,,,,,,,,,,,,5ca48653ed23650001328d9d,,,,,,,,,,,,,,,13601.923999952316,,form submission,,,,,,,,,,,,,,,,,,,,,21155.200000047684,21154.799999952316,7519.399,7530.299999952316,7552.876,21169.708,{},,
Introduction,html.Screen,1_0,2022-05-10T13:34:48.477Z,,,,,,,,,,,,,,,,,,,,,,,,,,,,,,,3759.5919999523176,,response,,,,,,,,,,,continue,click button,,,,,,,,,24932.5,24929.299999952316,21152.876,21155.5,21169.708,24936.211,,,
Volume calibration,html.Screen,1_1,2022-05-10T13:35:12.383Z,,,,,,,,,,,,,,,,,,,,,,,,,,,,,,,23897.088999952317,,response,,,,,,,,,,,continue,click button,,,,,,,,,48838.299999952316,48833.299999952316,24919.672,24932.5,24936.211,48836.125,,,
Task instructions,html.Screen,1_2,2022-05-10T13:35:20.058Z,,,,,,,,,,,,,,,,,,,,,,,,,,,,,,,7676.875,,response,,,,,,,,,,,continue,click button,,,,,,,,,56513.799999952316,56513,48819.493,48838.39999997616,48836.125,56519.489,,,
Sounds,html.Screen,1_3_0_0,2022-05-10T13:35:24.306Z,,,,,,,,,,,,,,,,,,,,,,,,,,,,,,,4249.993000000002,,timeout,,,,,,,,,1,,,,,,,,S,I,O,,60761.60000002384,60752.953,56502.924,56514,56519.489,60769.482,,,
Judgement,html.Screen,1_3_0_1,2022-05-10T13:35:25.050Z,,,,,,,,,,,,,,,,,,,,,,,,,,,,true,1,,735.3179999523127,,response,,,,,,,,,1,,1,click #choice-1,,,,,S,I,O,,61505.700000047684,61504.799999952316,60752.953,60762,60769.482,61519.499,,,
Trial,flow.Sequence,1_3_0,2022-05-10T13:35:25.051Z,,,,,,,,,,,,,,,,,,,,,,,,,,,,,,,4985.310999952315,,completion,,,,,,,,,1,,,,,,,,S,I,O,,61505.89999997616,61504.799999952316,56502.924,56513.89999997616,56519.489,61519.499,,,
Sounds,html.Screen,1_3_1_0,2022-05-10T13:35:29.300Z,,,,,,,,,,,,,,,,,,,,,,,,,,,,,,,4250.000999999997,,timeout,,,,,,,,,2,,,,,,,,O,S,I,,65754.89999997616,65752.97,61502.932,61506.10000002384,61519.499,65769.5,,,
Judgement,html.Screen,1_3_1_1,2022-05-10T13:35:29.842Z,,,,,,,,,,,,,,,,,,,,,,,,,,,,true,2,,527.3999999761581,,response,,,,,,,,,2,,2,click #choice-2,,,,,O,S,I,,66297.70000004768,66296.89999997616,65752.97,65755.20000004768,65769.5,66302.819,,,
Trial,flow.Sequence,1_3_1,2022-05-10T13:35:29.843Z,,,,,,,,,,,,,,,,,,,,,,,,,,,,,,,4777.400999976155,,completion,,,,,,,,,2,,,,,,,,O,S,I,,66297.89999997616,66296.89999997616,61502.932,61506,61519.499,66302.819,,,
Sounds,html.Screen,1_3_2_0,2022-05-10T13:35:34.083Z,,,,,,,,,,,,,,,,,,,,,,,,,,,,,,,4250.050000000003,,timeout,,,,,,,,,1,,,,,,,,S,O,I,,70538,70536.29,66286.245,66298.10000002384,66302.819,70552.869,,,
Judgement,html.Screen,1_3_2_1,2022-05-10T13:35:35.722Z,,,,,,,,,,,,,,,,,,,,,,,,,,,,true,1,,1624.130999999994,,response,,,,,,,,,1,,1,click #choice-1,,,,,S,O,I,,72177.79999995232,72177,70536.29,70538.60000002384,70552.869,72186.139,,,
Trial,flow.Sequence,1_3_2,2022-05-10T13:35:35.723Z,,,,,,,,,,,,,,,,,,,,,,,,,,,,,,,5874.180999999997,,completion,,,,,,,,,1,,,,,,,,S,O,I,,72178,72177,66286.245,66298.10000002384,66302.819,72186.139,,,
Sounds,html.Screen,1_3_3_0,2022-05-10T13:35:39.965Z,,,,,,,,,,,,,,,,,,,,,,,,,,,,,,,4249.975000000006,,timeout,,,,,,,,,3,,,,,,,,I,O,S,,76420.60000002384,76419.533,72169.534,72178.20000004768,72186.139,76436.114,,,
Judgement,html.Screen,1_3_3_1,2022-05-10T13:35:40.442Z,,,,,,,,,,,,,,,,,,,,,,,,,,,,true,3,,460.6859999523149,,response,,,,,,,,,3,,3,click #choice-3,,,,,I,O,S,,76897.29999995232,76896.79999995232,76419.533,76420.79999995232,76436.114,76902.666,,,
Trial,flow.Sequence,1_3_3,2022-05-10T13:35:40.442Z,,,,,,,,,,,,,,,,,,,,,,,,,,,,,,,4710.660999952321,,completion,,,,,,,,,3,,,,,,,,I,O,S,,76897.39999997616,76896.79999995232,72169.534,72178.10000002384,72186.139,76902.666,,,
Sounds,html.Screen,1_3_4_0,2022-05-10T13:35:44.682Z,,,,,,,,,,,,,,,,,,,,,,,,,,,,,,,4250.013999999996,,timeout,,,,,,,,,2,,,,,,,,I,S,O,,81137.20000004768,81136.065,76886.225,76897.5,76902.666,81152.68,,,
Judgement,html.Screen,1_3_4_1,2022-05-10T13:35:45.090Z,,,,,,,,,,,,,,,,,,,,,,,,,,,,true,2,,392.42000002384884,,response,,,,,,,,,2,,2,click #choice-2,,,,,I,S,O,,81545.70000004768,81545.10000002384,81136.065,81137.39999997616,81152.68,81552.726,,,
Trial,flow.Sequence,1_3_4,2022-05-10T13:35:45.090Z,,,,,,,,,,,,,,,,,,,,,,,,,,,,,,,4642.434000023844,,completion,,,,,,,,,2,,,,,,,,I,S,O,,81545.89999997616,81545.10000002384,76886.225,76897.5,76902.666,81552.726,,,
Sounds,html.Screen,1_3_5_0,2022-05-10T13:35:49.331Z,,,,,,,,,,,,,,,,,,,,,,,,,,,,,,,4250.19200000001,,timeout,,,,,,,,,3,,,,,,,,O,I,S,,85787,85786.062,81536.042,81546,81552.726,85802.918,,,
Judgement,html.Screen,1_3_5_1,2022-05-10T13:35:49.786Z,,,,,,,,,,,,,,,,,,,,,,,,,,,,true,3,,438.0819999999949,,response,,,,,,,,,3,,3,click #choice-3,,,,,O,I,S,,86241.89999997616,86241,85786.062,85787.10000002384,85802.918,86252.686,,,
Trial,flow.Sequence,1_3_5,2022-05-10T13:35:49.787Z,,,,,,,,,,,,,,,,,,,,,,,,,,,,,,,4688.274000000005,,completion,,,,,,,,,3,,,,,,,,O,I,S,,86242.10000002384,86241,81536.042,81546,81552.726,86252.686,,,
Task,flow.Loop,1_3,2022-05-10T13:35:49.791Z,,,,,,,,,,,,,,,,,,,,,,,,,,,,,,,29721.511,,completion,,,1,,,,,,,,,,,,,,,,,,86246.60000002384,86241,56502.924,56513.89999997616,56519.489,86252.686,,,
Trap,html.Screen,1_4,2022-05-10T13:35:49.792Z,,,,,,,,,,,,,,,,,,,,,,,,,,,,,,,NaN,,skipped,,,,,,,,,,,,,,,,,,,,,86247.5,86241,,86247.39999997616,,86252.686,,,
Thanks,html.Screen,1_5,2022-05-10T13:35:52.170Z,,,,,,,,,,,,,,,,,,,,,,,,,,,,,,,2372.3139999999985,,response,,,,,,,,,,,continue,click button,,,,,,,,,88625.79999995232,88625,86236.123,86247.5,86252.686,90569.29,,,
Headphone screening,flow.Sequence,1,2022-05-10T13:35:52.170Z,,,,,,,,,,,,,,,,,,,,,,,,,,,,,,,67455.292,,completion,,,,,,,,,,,,,,,,,,,,,88626.10000002384,88625,21152.876,21155.5,21169.708,90569.29,,,
Instructions,html.Page,2_0,2022-05-10T13:36:03.691Z,,,,,,,,,,,,,,,,,,,,,,,,,,,,,,,9576.91000004769,,form submission,,,,,,,,,,,,,,,,,,,,,100146.60000002384,100146.20000004768,90552.687,90577.79999995232,90569.29,100152.68,,,
Holding screen,html.Screen,2_1_0_0,2022-05-10T13:36:13.682Z,,,,,,,,,,,,,,,,,,,,,,,,,,,,,,,10016.598000000013,,timeout,,,,,,,,,,,,,,,,,,,,,110138.10000002384,110136.211,100136.154,100146.79999995232,100152.68,110169.278,,,
screen,html.Screen,2_1_0_1_0,2022-05-10T13:36:14.571Z,,,,,,,,,,,,,,,,,53,,,,,,,,,,,,,,849.7219999999943,,response,,,,99,,,,,,,Space,keypress(Space),,,,,,,,When -- ----- -- ------ - ------- --- ----------<br>------------- ------ ------ ---- ---- ------- ----- -- ----<br>-------- ------- -- ---------- --- - --- ----- ----- ----<br>---- --- --- ----- --- ---- ---- ------- ----- ---- -------<br>--- --- -- ----- -- --- ---- -- --- ---- -- ------ ------<br>--- ----- -- ----,111026.5,111019,110136.211,110138.89999997616,110169.278,111036.017,,0,When
screen,html.Screen,2_1_0_1_1,2022-05-10T13:36:15.051Z,,,,,,,,,,,,,,,,,53,,,,,,,,,,,,,,469.38299997615104,,response,,,,99,,,,,,,Space,keypress(Space),,,,,,,,---- it ----- -- ------ - ------- --- ----------<br>------------- ------ ------ ---- ---- ------- ----- -- ----<br>-------- ------- -- ---------- --- - --- ----- ----- ----<br>---- --- --- ----- --- ---- ---- ------- ----- ---- -------<br>--- --- -- ----- -- --- ---- -- --- ---- -- ------ ------<br>--- ----- -- ----,111506.39999997616,111505.39999997616,111019.362,111026.70000004768,111036.017,111519.517,,1,it
screen,html.Screen,2_1_0_1_2,2022-05-10T13:36:15.569Z,,,,,,,,,,,,,,,,,53,,,,,,,,,,,,,,505.1830000476766,,response,,,,99,,,,,,,Space,keypress(Space),,,,,,,,---- -- comes -- ------ - ------- --- ----------<br>------------- ------ ------ ---- ---- ------- ----- -- ----<br>-------- ------- -- ---------- --- - --- ----- ----- ----<br>---- --- --- ----- --- ---- ---- ------- ----- ---- -------<br>--- --- -- ----- -- --- ---- -- --- ---- -- ------ ------<br>--- ----- -- ----,112025.10000002384,112024.70000004768,111502.644,111506.60000002384,111519.517,112035.923,,2,comes
screen,html.Screen,2_1_0_1_3,2022-05-10T13:36:16.050Z,,,,,,,,,,,,,,,,,53,,,,,,,,,,,,,,469.2770000476885,,response,,,,99,,,,,,,Space,keypress(Space),,,,,,,,---- -- ----- to ------ - ------- --- ----------<br>------------- ------ ------ ---- ---- ------- ----- -- ----<br>-------- ------- -- ---------- --- - --- ----- ----- ----<br>---- --- --- ----- --- ---- ---- ------- ----- ---- -------<br>--- --- -- ----- -- --- ---- -- --- ---- -- ------ ------<br>--- ----- -- ----,112505.79999995232,112505.20000004768,112019.415,112025.70000004768,112035.923,112519.314,,3,to
screen,html.Screen,2_1_0_1_4,2022-05-10T13:36:16.595Z,,,,,,,,,,,,,,,,,53,,,,,,,,,,,,,,529.9859999523178,,response,,,,99,,,,,,,Space,keypress(Space),,,,,,,,---- -- ----- -- having - ------- --- ----------<br>------------- ------ ------ ---- ---- ------- ----- -- ----<br>-------- ------- -- ---------- --- - --- ----- ----- ----<br>---- --- --- ----- --- ---- ---- ------- ----- ---- -------<br>--- --- -- ----- -- --- ---- -- --- ---- -- ------ ------<br>--- ----- -- ----,113050.20000004768,113049.29999995232,112502.54,112505.89999997616,112519.314,113052.7,,4,having
screen,html.Screen,2_1_0_1_5,2022-05-10T13:36:17.011Z,,,,,,,,,,,,,,,,,53,,,,,,,,,,,,,,412.69999997616105,,response,,,,99,,,,,,,Space,keypress(Space),,,,,,,,---- -- ----- -- ------ a ------- --- ----------<br>------------- ------ ------ ---- ---- ------- ----- -- ----<br>-------- ------- -- ---------- --- - --- ----- ----- ----<br>---- --- --- ----- --- ---- ---- ------- ----- ---- -------<br>--- --- -- ----- -- --- ---- -- --- ---- -- ------ ------<br>--- ----- -- ----,113466.20000004768,113465.39999997616,113036.011,113050.5,113052.7,113469.273,,5,a
screen,html.Screen,2_1_0_1_6,2022-05-10T13:36:17.460Z,,,,,,,,,,,,,,,,,53,,,,,,,,,,,,,,445.8270000238408,,response,,,,99,,,,,,,Space,keypress(Space),,,,,,,,---- -- ----- -- ------ - lasting --- ----------<br>------------- ------ ------ ---- ---- ------- ----- -- ----<br>-------- ------- -- ---------- --- - --- ----- ----- ----<br>---- --- --- ----- --- ---- ---- ------- ----- ---- -------<br>--- --- -- ----- -- --- ---- -- --- ---- -- ------ ------<br>--- ----- -- ----,113915.89999997616,113915.10000002384,113452.659,113466.39999997616,113469.273,113919.254,,6,lasting
screen,html.Screen,2_1_0_1_7,2022-05-10T13:36:17.931Z,,,,,,,,,,,,,,,,,53,,,,,,,,,,,,,,466.2459999999992,,response,,,,99,,,,,,,Space,keypress(Space),,,,,,,,---- -- ----- -- ------ - ------- and ----------<br>------------- ------ ------ ---- ---- ------- ----- -- ----<br>-------- ------- -- ---------- --- - --- ----- ----- ----<br>---- --- --- ----- --- ---- ---- ------- ----- ---- -------<br>--- --- -- ----- -- --- ---- -- --- ---- -- ------ ------<br>--- ----- -- ----,114386.5,114385.5,113902.638,113916.10000002384,113919.254,114402.819,,7,and
screen,html.Screen,2_1_0_1_8,2022-05-10T13:36:18.386Z,,,,,,,,,,,,,,,,,53,,,,,,,,,,,,,,438.18099999999686,,response,,,,99,,,,,,,Space,keypress(Space),,,,,,,,---- -- ----- -- ------ - ------- --- fulfilling<br>------------- ------ ------ ---- ---- ------- ----- -- ----<br>-------- ------- -- ---------- --- - --- ----- ----- ----<br>---- --- --- ----- --- ---- ---- ------- ----- ---- -------<br>--- --- -- ----- -- --- ---- -- --- ---- -- ------ ------<br>--- ----- -- ----,114841.70000004768,114841,114385.926,114386.70000004768,114402.819,114852.608,,8,fulfilling
screen,html.Screen,2_1_0_1_9,2022-05-10T13:36:18.850Z,,,,,,,,,,,,,,,,,53,,,,,,,,,,,,,,452.49200002384896,,response,,,,99,,,,,,,Space,keypress(Space),,,,,,,,"---- -- ----- -- ------ - ------- --- ----------<br>relationship, ------ ------ ---- ---- ------- ----- -- ----<br>-------- ------- -- ---------- --- - --- ----- ----- ----<br>---- --- --- ----- --- ---- ---- ------- ----- ---- -------<br>--- --- -- ----- -- --- ---- -- --- ---- -- ------ ------<br>--- ----- -- ----",115305.70000004768,115305.10000002384,114836.164,114841.89999997616,114852.608,115319.332,,9,"relationship,"
screen,html.Screen,2_1_0_1_10,2022-05-10T13:36:19.251Z,,,,,,,,,,,,,,,,,53,,,,,,,,,,,,,,386.06799997616326,,response,,,,99,,,,,,,Space,keypress(Space),,,,,,,,---- -- ----- -- ------ - ------- --- ----------<br>------------- common ------ ---- ---- ------- ----- -- ----<br>-------- ------- -- ---------- --- - --- ----- ----- ----<br>---- --- --- ----- --- ---- ---- ------- ----- ---- -------<br>--- --- -- ----- -- --- ---- -- --- ---- -- ------ ------<br>--- ----- -- ----,115706.20000004768,115705.39999997616,115302.577,115305.79999995232,115319.332,115719.33,,10,common
screen,html.Screen,2_1_0_1_11,2022-05-10T13:36:19.851Z,,,,,,,,,,,,,,,,,53,,,,,,,,,,,,,,586.4699999523145,,response,,,,99,,,,,,,Space,keypress(Space),,,,,,,,---- -- ----- -- ------ - ------- --- ----------<br>------------- ------ wisdom ---- ---- ------- ----- -- ----<br>-------- ------- -- ---------- --- - --- ----- ----- ----<br>---- --- --- ----- --- ---- ---- ------- ----- ---- -------<br>--- --- -- ----- -- --- ---- -- --- ---- -- ------ ------<br>--- ----- -- ----,116306.79999995232,116305.79999995232,115702.754,115706.39999997616,115719.33,116319.474,,11,wisdom
screen,html.Screen,2_1_0_1_12,2022-05-10T13:36:20.279Z,,,,,,,,,,,,,,,,,53,,,,,,,,,,,,,,414.1260000238399,,response,,,,99,,,,,,,Space,keypress(Space),,,,,,,,---- -- ----- -- ------ - ------- --- ----------<br>------------- ------ ------ says ---- ------- ----- -- ----<br>-------- ------- -- ---------- --- - --- ----- ----- ----<br>---- --- --- ----- --- ---- ---- ------- ----- ---- -------<br>--- --- -- ----- -- --- ---- -- --- ---- -- ------ ------<br>--- ----- -- ----,116735,116733.60000002384,116302.856,116307.20000004768,116319.474,116752.985,,12,says
screen,html.Screen,2_1_0_1_13,2022-05-10T13:36:20.676Z,,,,,,,,,,,,,,,,,53,,,,,,,,,,,,,,377.21500004768313,,response,,,,99,,,,,,,Space,keypress(Space),,,,,,,,---- -- ----- -- ------ - ------- --- ----------<br>------------- ------ ------ ---- that ------- ----- -- ----<br>-------- ------- -- ---------- --- - --- ----- ----- ----<br>---- --- --- ----- --- ---- ---- ------- ----- ---- -------<br>--- --- -- ----- -- --- ---- -- --- ---- -- ------ ------<br>--- ----- -- ----,117131.60000002384,117130.20000004768,116736.257,116735.39999997616,116752.985,117136.142,,13,that
screen,html.Screen,2_1_0_1_14,2022-05-10T13:36:21.117Z,,,,,,,,,,,,,,,,,53,,,,,,,,,,,,,,435.1579999523092,,response,,,,99,,,,,,,Space,keypress(Space),,,,,,,,---- -- ----- -- ------ - ------- --- ----------<br>------------- ------ ------ ---- ---- feeling ----- -- ----<br>-------- ------- -- ---------- --- - --- ----- ----- ----<br>---- --- --- ----- --- ---- ---- ------- ----- ---- -------<br>--- --- -- ----- -- --- ---- -- --- ---- -- ------ ------<br>--- ----- -- ----,117573.10000002384,117571.29999995232,117119.636,117131.89999997616,117136.142,117586.104,,14,feeling
screen,html.Screen,2_1_0_1_15,2022-05-10T13:36:21.523Z,,,,,,,,,,,,,,,,,53,,,,,,,,,,,,,,391.2959999761515,,response,,,,99,,,,,,,Space,keypress(Space),,,,,,,,---- -- ----- -- ------ - ------- --- ----------<br>------------- ------ ------ ---- ---- ------- close -- ----<br>-------- ------- -- ---------- --- - --- ----- ----- ----<br>---- --- --- ----- --- ---- ---- ------- ----- ---- -------<br>--- --- -- ----- -- --- ---- -- --- ---- -- ------ ------<br>--- ----- -- ----,117978.70000004768,117977.39999997616,117569.45,117573.60000002384,117586.104,117985.957,,15,close
screen,html.Screen,2_1_0_1_16,2022-05-10T13:36:21.956Z,,,,,,,,,,,,,,,,,53,,,,,,,,,,,,,,423.94299997616326,,response,,,,99,,,,,,,Space,keypress(Space),,,,,,,,---- -- ----- -- ------ - ------- --- ----------<br>------------- ------ ------ ---- ---- ------- ----- to ----<br>-------- ------- -- ---------- --- - --- ----- ----- ----<br>---- --- --- ----- --- ---- ---- ------- ----- ---- -------<br>--- --- -- ----- -- --- ---- -- --- ---- -- ------ ------<br>--- ----- -- ----,118411.20000004768,118409.89999997616,117969.343,117978.79999995232,117985.957,118419.298,,16,to
screen,html.Screen,2_1_0_1_17,2022-05-10T13:36:22.364Z,,,,,,,,,,,,,,,,,53,,,,,,,,,,,,,,398.7020000000048,,response,,,,99,,,,,,,Space,keypress(Space),,,,,,,,---- -- ----- -- ------ - ------- --- ----------<br>------------- ------ ------ ---- ---- ------- ----- -- your<br>-------- ------- -- ---------- --- - --- ----- ----- ----<br>---- --- --- ----- --- ---- ---- ------- ----- ---- -------<br>--- --- -- ----- -- --- ---- -- --- ---- -- ------ ------<br>--- ----- -- ----,118819.20000004768,118818,118402.832,118411.5,118419.298,118836.002,,17,your
screen,html.Screen,2_1_0_1_18,2022-05-10T13:36:22.804Z,,,,,,,,,,,,,,,,,53,,,,,,,,,,,,,,421.99800000000687,,response,,,,99,,,,,,,Space,keypress(Space),,,,,,,,---- -- ----- -- ------ - ------- --- ----------<br>------------- ------ ------ ---- ---- ------- ----- -- ----<br>romantic ------- -- ---------- --- - --- ----- ----- ----<br>---- --- --- ----- --- ---- ---- ------- ----- ---- -------<br>--- --- -- ----- -- --- ---- -- --- ---- -- ------ ------<br>--- ----- -- ----,119259.29999995232,119258,118819.267,118819.60000002384,118836.002,119269.386,,18,romantic
screen,html.Screen,2_1_0_1_19,2022-05-10T13:36:23.284Z,,,,,,,,,,,,,,,,,53,,,,,,,,,,,,,,468.9139999523177,,response,,,,99,,,,,,,Space,keypress(Space),,,,,,,,---- -- ----- -- ------ - ------- --- ----------<br>------------- ------ ------ ---- ---- ------- ----- -- ----<br>-------- partner -- ---------- --- - --- ----- ----- ----<br>---- --- --- ----- --- ---- ---- ------- ----- ---- -------<br>--- --- -- ----- -- --- ---- -- --- ---- -- ------ ------<br>--- ----- -- ----,119739.79999995232,119738.29999995232,119252.779,119259.79999995232,119269.386,119752.753,,19,partner
screen,html.Screen,2_1_0_1_20,2022-05-10T13:36:23.660Z,,,,,,,,,,,,,,,,,53,,,,,,,,,,,,,,361.3470000238449,,response,,,,99,,,,,,,Space,keypress(Space),,,,,,,,---- -- ----- -- ------ - ------- --- ----------<br>------------- ------ ------ ---- ---- ------- ----- -- ----<br>-------- ------- is ---------- --- - --- ----- ----- ----<br>---- --- --- ----- --- ---- ---- ------- ----- ---- -------<br>--- --- -- ----- -- --- ---- -- --- ---- -- ------ ------<br>--- ----- -- ----,120115.39999997616,120114.10000002384,119736.077,119740.20000004768,119752.753,120119.431,,20,is
screen,html.Screen,2_1_0_1_21,2022-05-10T13:36:24.042Z,,,,,,,,,,,,,,,,,53,,,,,,,,,,,,,,377.4689999761613,,response,,,,99,,,,,,,Space,keypress(Space),,,,,,,,---- -- ----- -- ------ - ------- --- ----------<br>------------- ------ ------ ---- ---- ------- ----- -- ----<br>-------- ------- -- paramount. --- - --- ----- ----- ----<br>---- --- --- ----- --- ---- ---- ------- ----- ---- -------<br>--- --- -- ----- -- --- ---- -- --- ---- -- ------ ------<br>--- ----- -- ----,120497.39999997616,120496.89999997616,120102.887,120115.70000004768,120119.431,120502.604,,21,paramount.
screen,html.Screen,2_1_0_1_22,2022-05-10T13:36:24.748Z,,,,,,,,,,,,,,,,,53,,,,,,,,,,,,,,699.5960000476771,,response,,,,99,,,,,,,Space,keypress(Space),,,,,,,,---- -- ----- -- ------ - ------- --- ----------<br>------------- ------ ------ ---- ---- ------- ----- -- ----<br>-------- ------- -- ---------- But - --- ----- ----- ----<br>---- --- --- ----- --- ---- ---- ------- ----- ---- -------<br>--- --- -- ----- -- --- ---- -- --- ---- -- ------ ------<br>--- ----- -- ----,121203.20000004768,121202.20000004768,120486.169,120497.60000002384,120502.604,121219.408,,22,But
screen,html.Screen,2_1_0_1_23,2022-05-10T13:36:25.123Z,,,,,,,,,,,,,,,,,53,,,,,,,,,,,,,,358.2920000476879,,response,,,,99,,,,,,,Space,keypress(Space),,,,,,,,---- -- ----- -- ------ - ------- --- ----------<br>------------- ------ ------ ---- ---- ------- ----- -- ----<br>-------- ------- -- ---------- --- a --- ----- ----- ----<br>---- --- --- ----- --- ---- ---- ------- ----- ---- -------<br>--- --- -- ----- -- --- ---- -- --- ---- -- ------ ------<br>--- ----- -- ----,121578.60000002384,121577.70000004768,121202.767,121203.5,121219.408,121585.964,,23,a
screen,html.Screen,2_1_0_1_24,2022-05-10T13:36:25.524Z,,,,,,,,,,,,,,,,,53,,,,,,,,,,,,,,392.2360000476765,,response,,,,99,,,,,,,Space,keypress(Space),,,,,,,,---- -- ----- -- ------ - ------- --- ----------<br>------------- ------ ------ ---- ---- ------- ----- -- ----<br>-------- ------- -- ---------- --- - new ----- ----- ----<br>---- --- --- ----- --- ---- ---- ------- ----- ---- -------<br>--- --- -- ----- -- --- ---- -- --- ---- -- ------ ------<br>--- ----- -- ----,121979.5,121978.20000004768,121569.299,121578.79999995232,121585.964,121986.029,,24,new
screen,html.Screen,2_1_0_1_25,2022-05-10T13:36:25.940Z,,,,,,,,,,,,,,,,,53,,,,,,,,,,,,,,408.2709999523213,,response,,,,99,,,,,,,Space,keypress(Space),,,,,,,,---- -- ----- -- ------ - ------- --- ----------<br>------------- ------ ------ ---- ---- ------- ----- -- ----<br>-------- ------- -- ---------- --- - --- study ----- ----<br>---- --- --- ----- --- ---- ---- ------- ----- ---- -------<br>--- --- -- ----- -- --- ---- -- --- ---- -- ------ ------<br>--- ----- -- ----,122395.5,122394.29999995232,121969.487,121979.89999997616,121986.029,122402.672,,25,study
screen,html.Screen,2_1_0_1_26,2022-05-10T13:36:26.348Z,,,,,,,,,,,,,,,,,53,,,,,,,,,,,,,,399.2279999761522,,response,,,,99,,,,,,,Space,keypress(Space),,,,,,,,---- -- ----- -- ------ - ------- --- ----------<br>------------- ------ ------ ---- ---- ------- ----- -- ----<br>-------- ------- -- ---------- --- - --- ----- finds ----<br>---- --- --- ----- --- ---- ---- ------- ----- ---- -------<br>--- --- -- ----- -- --- ---- -- --- ---- -- ------ ------<br>--- ----- -- ----,122803.79999995232,122801.89999997616,122386.065,122395.89999997616,122402.672,122819.552,,26,finds
screen,html.Screen,2_1_0_1_27,2022-05-10T13:36:26.767Z,,,,,,,,,,,,,,,,,53,,,,,,,,,,,,,,401.24799995232024,,response,,,,99,,,,,,,Space,keypress(Space),,,,,,,,---- -- ----- -- ------ - ------- --- ----------<br>------------- ------ ------ ---- ---- ------- ----- -- ----<br>-------- ------- -- ---------- --- - --- ----- ----- that<br>---- --- --- ----- --- ---- ---- ------- ----- ---- -------<br>--- --- -- ----- -- --- ---- -- --- ---- -- ------ ------<br>--- ----- -- ----,123222.5,123220.79999995232,122802.78,122804.39999997616,122819.552,123236.029,,27,that
screen,html.Screen,2_1_0_1_28,2022-05-10T13:36:27.180Z,,,,,,,,,,,,,,,,,53,,,,,,,,,,,,,,398.1710000476887,,response,,,,99,,,,,,,Space,keypress(Space),,,,,,,,---- -- ----- -- ------ - ------- --- ----------<br>------------- ------ ------ ---- ---- ------- ----- -- ----<br>-------- ------- -- ---------- --- - --- ----- ----- ----<br>it's --- --- ----- --- ---- ---- ------- ----- ---- -------<br>--- --- -- ----- -- --- ---- -- --- ---- -- ------ ------<br>--- ----- -- ----,123635.5,123634.20000004768,123219.668,123222.79999995232,123236.029,123652.753,,28,it's
screen,html.Screen,2_1_0_1_29,2022-05-10T13:36:27.571Z,,,,,,,,,,,,,,,,,53,,,,,,,,,,,,,,372.5469999523193,,response,,,,99,,,,,,,Space,keypress(Space),,,,,,,,---- -- ----- -- ------ - ------- --- ----------<br>------------- ------ ------ ---- ---- ------- ----- -- ----<br>-------- ------- -- ---------- --- - --- ----- ----- ----<br>---- not --- ----- --- ---- ---- ------- ----- ---- -------<br>--- --- -- ----- -- --- ---- -- --- ---- -- ------ ------<br>--- ----- -- ----,124026.29999995232,124025.29999995232,123636.165,123636,123652.753,124035.978,,29,not
screen,html.Screen,2_1_0_1_30,2022-05-10T13:36:27.964Z,,,,,,,,,,,,,,,,,53,,,,,,,,,,,,,,381.92199997615535,,response,,,,99,,,,,,,Space,keypress(Space),,,,,,,,---- -- ----- -- ------ - ------- --- ----------<br>------------- ------ ------ ---- ---- ------- ----- -- ----<br>-------- ------- -- ---------- --- - --- ----- ----- ----<br>---- --- how ----- --- ---- ---- ------- ----- ---- -------<br>--- --- -- ----- -- --- ---- -- --- ---- -- ------ ------<br>--- ----- -- ----,124419.5,124417.89999997616,124019.456,124026.5,124035.978,124436.081,,30,how
screen,html.Screen,2_1_0_1_31,2022-05-10T13:36:28.404Z,,,,,,,,,,,,,,,,,53,,,,,,,,,,,,,,422.01900002383627,,response,,,,99,,,,,,,Space,keypress(Space),,,,,,,,---- -- ----- -- ------ - ------- --- ----------<br>------------- ------ ------ ---- ---- ------- ----- -- ----<br>-------- ------- -- ---------- --- - --- ----- ----- ----<br>---- --- --- close --- ---- ---- ------- ----- ---- -------<br>--- --- -- ----- -- --- ---- -- --- ---- -- ------ ------<br>--- ----- -- ----,124859.5,124858.10000002384,124419.461,124420.20000004768,124436.081,124869.371,,31,close
screen,html.Screen,2_1_0_1_32,2022-05-10T13:36:28.788Z,,,,,,,,,,,,,,,,,53,,,,,,,,,,,,,,372.82900004768453,,response,,,,99,,,,,,,Space,keypress(Space),,,,,,,,---- -- ----- -- ------ - ------- --- ----------<br>------------- ------ ------ ---- ---- ------- ----- -- ----<br>-------- ------- -- ---------- --- - --- ----- ----- ----<br>---- --- --- ----- you ---- ---- ------- ----- ---- -------<br>--- --- -- ----- -- --- ---- -- --- ---- -- ------ ------<br>--- ----- -- ----,125243.39999997616,125242.20000004768,124852.923,124859.89999997616,124869.371,125252.626,,32,you
screen,html.Screen,2_1_0_1_33,2022-05-10T13:36:29.179Z,,,,,,,,,,,,,,,,,53,,,,,,,,,,,,,,380.974000023838,,response,,,,99,,,,,,,Space,keypress(Space),,,,,,,,---- -- ----- -- ------ - ------- --- ----------<br>------------- ------ ------ ---- ---- ------- ----- -- ----<br>-------- ------- -- ---------- --- - --- ----- ----- ----<br>---- --- --- ----- --- feel ---- ------- ----- ---- -------<br>--- --- -- ----- -- --- ---- -- --- ---- -- ------ ------<br>--- ----- -- ----,125634.60000002384,125633.60000002384,125236.246,125243.70000004768,125252.626,125669.397,,33,feel
screen,html.Screen,2_1_0_1_34,2022-05-10T13:36:29.548Z,,,,,,,,,,,,,,,,,53,,,,,,,,,,,,,,332.70300002384465,,response,,,,99,,,,,,,Space,keypress(Space),,,,,,,,---- -- ----- -- ------ - ------- --- ----------<br>------------- ------ ------ ---- ---- ------- ----- -- ----<br>-------- ------- -- ---------- --- - --- ----- ----- ----<br>---- --- --- ----- --- ---- that ------- ----- ---- -------<br>--- --- -- ----- -- --- ---- -- --- ---- -- ------ ------<br>--- ----- -- ----,126003.79999995232,126002.10000002384,125652.86,125634.70000004768,125669.397,126019.568,,34,that
screen,html.Screen,2_1_0_1_35,2022-05-10T13:36:29.996Z,,,,,,,,,,,,,,,,,53,,,,,,,,,,,,,,431.231999952317,,response,,,,99,,,,,,,Space,keypress(Space),,,,,,,,---- -- ----- -- ------ - ------- --- ----------<br>------------- ------ ------ ---- ---- ------- ----- -- ----<br>-------- ------- -- ---------- --- - --- ----- ----- ----<br>---- --- --- ----- --- ---- ---- matters ----- ---- -------<br>--- --- -- ----- -- --- ---- -- --- ---- -- ------ ------<br>--- ----- -- ----,126452,126450.79999995232,126002.937,126004.29999995232,126019.568,126469.542,,35,matters
screen,html.Screen,2_1_0_1_36,2022-05-10T13:36:30.388Z,,,,,,,,,,,,,,,,,53,,,,,,,,,,,,,,372.4579999999987,,response,,,,99,,,,,,,Space,keypress(Space),,,,,,,,"---- -- ----- -- ------ - ------- --- ----------<br>------------- ------ ------ ---- ---- ------- ----- -- ----<br>-------- ------- -- ---------- --- - --- ----- ----- ----<br>---- --- --- ----- --- ---- ---- ------- most, ---- -------<br>--- --- -- ----- -- --- ---- -- --- ---- -- ------ ------<br>--- ----- -- ----",126843.29999995232,126842,126452.707,126452.29999995232,126469.542,126852.707,,36,"most,"
screen,html.Screen,2_1_0_1_37,2022-05-10T13:36:30.918Z,,,,,,,,,,,,,,,,,53,,,,,,,,,,,,,,519.893000023847,,response,,,,99,,,,,,,Space,keypress(Space),,,,,,,,---- -- ----- -- ------ - ------- --- ----------<br>------------- ------ ------ ---- ---- ------- ----- -- ----<br>-------- ------- -- ---------- --- - --- ----- ----- ----<br>---- --- --- ----- --- ---- ---- ------- ----- it's -------<br>--- --- -- ----- -- --- ---- -- --- ---- -- ------ ------<br>--- ----- -- ----,127373.89999997616,127372.60000002384,126836.118,126845.60000002384,126852.707,127386.012,,37,it's
screen,html.Screen,2_1_0_1_38,2022-05-10T13:36:31.324Z,,,,,,,,,,,,,,,,,53,,,,,,,,,,,,,,391.8879999761557,,response,,,,99,,,,,,,Space,keypress(Space),,,,,,,,---- -- ----- -- ------ - ------- --- ----------<br>------------- ------ ------ ---- ---- ------- ----- -- ----<br>-------- ------- -- ---------- --- - --- ----- ----- ----<br>---- --- --- ----- --- ---- ---- ------- ----- ---- whether<br>--- --- -- ----- -- --- ---- -- --- ---- -- ------ ------<br>--- ----- -- ----,127779.20000004768,127777.89999997616,127369.457,127374.29999995232,127386.012,127786.057,,38,whether
screen,html.Screen,2_1_0_1_39,2022-05-10T13:36:31.693Z,,,,,,,,,,,,,,,,,53,,,,,,,,,,,,,,361.04300002384116,,response,,,,99,,,,,,,Space,keypress(Space),,,,,,,,---- -- ----- -- ------ - ------- --- ----------<br>------------- ------ ------ ---- ---- ------- ----- -- ----<br>-------- ------- -- ---------- --- - --- ----- ----- ----<br>---- --- --- ----- --- ---- ---- ------- ----- ---- -------<br>you --- -- ----- -- --- ---- -- --- ---- -- ------ ------<br>--- ----- -- ----,128148.5,128147.10000002384,127769.338,127779.60000002384,127786.057,128152.712,,39,you
screen,html.Screen,2_1_0_1_40,2022-05-10T13:36:32.085Z,,,,,,,,,,,,,,,,,53,,,,,,,,,,,,,,385.78800000000047,,response,,,,99,,,,,,,Space,keypress(Space),,,,,,,,---- -- ----- -- ------ - ------- --- ----------<br>------------- ------ ------ ---- ---- ------- ----- -- ----<br>-------- ------- -- ---------- --- - --- ----- ----- ----<br>---- --- --- ----- --- ---- ---- ------- ----- ---- -------<br>--- are -- ----- -- --- ---- -- --- ---- -- ------ ------<br>--- ----- -- ----,128540.5,128538.5,128136.004,128148.79999995232,128152.712,128552.766,,40,are
screen,html.Screen,2_1_0_1_41,2022-05-10T13:36:32.470Z,,,,,,,,,,,,,,,,,53,,,,,,,,,,,,,,370.93400004768046,,response,,,,99,,,,,,,Space,keypress(Space),,,,,,,,---- -- ----- -- ------ - ------- --- ----------<br>------------- ------ ------ ---- ---- ------- ----- -- ----<br>-------- ------- -- ---------- --- - --- ----- ----- ----<br>---- --- --- ----- --- ---- ---- ------- ----- ---- -------<br>--- --- as ----- -- --- ---- -- --- ---- -- ------ ------<br>--- ----- -- ----,128925.39999997616,128923.70000004768,128536.119,128541,128552.766,128936.13,,41,as
screen,html.Screen,2_1_0_1_42,2022-05-10T13:36:33.164Z,,,,,,,,,,,,,,,,,53,,,,,,,,,,,,,,681.9700000238372,,response,,,,99,,,,,,,Space,keypress(Space),,,,,,,,---- -- ----- -- ------ - ------- --- ----------<br>------------- ------ ------ ---- ---- ------- ----- -- ----<br>-------- ------- -- ---------- --- - --- ----- ----- ----<br>---- --- --- ----- --- ---- ---- ------- ----- ---- -------<br>--- --- -- close -- --- ---- -- --- ---- -- ------ ------<br>--- ----- -- ----,129619.60000002384,129618.10000002384,128919.453,128925.89999997616,128936.13,129636.258,,42,close
screen,html.Screen,2_1_0_1_43,2022-05-10T13:36:33.514Z,,,,,,,,,,,,,,,,,53,,,,,,,,,,,,,,332.6419999761565,,response,,,,99,,,,,,,Space,keypress(Space),,,,,,,,---- -- ----- -- ------ - ------- --- ----------<br>------------- ------ ------ ---- ---- ------- ----- -- ----<br>-------- ------- -- ---------- --- - --- ----- ----- ----<br>---- --- --- ----- --- ---- ---- ------- ----- ---- -------<br>--- --- -- ----- as --- ---- -- --- ---- -- ------ ------<br>--- ----- -- ----,129969.39999997616,129968.89999997616,129619.399,129620.10000002384,129636.258,129985.902,,43,as
screen,html.Screen,2_1_0_1_44,2022-05-10T13:36:33.874Z,,,,,,,,,,,,,,,,,53,,,,,,,,,,,,,,342.79800004768185,,response,,,,99,,,,,,,Space,keypress(Space),,,,,,,,---- -- ----- -- ------ - ------- --- ----------<br>------------- ------ ------ ---- ---- ------- ----- -- ----<br>-------- ------- -- ---------- --- - --- ----- ----- ----<br>---- --- --- ----- --- ---- ---- ------- ----- ---- -------<br>--- --- -- ----- -- you ---- -- --- ---- -- ------ ------<br>--- ----- -- ----,130329.29999995232,130328.70000004768,129969.465,129969.5,129985.902,130335.85,,44,you
screen,html.Screen,2_1_0_1_45,2022-05-10T13:36:34.301Z,,,,,,,,,,,,,,,,,53,,,,,,,,,,,,,,418.6499999999942,,response,,,,99,,,,,,,Space,keypress(Space),,,,,,,,---- -- ----- -- ------ - ------- --- ----------<br>------------- ------ ------ ---- ---- ------- ----- -- ----<br>-------- ------- -- ---------- --- - --- ----- ----- ----<br>---- --- --- ----- --- ---- ---- ------- ----- ---- -------<br>--- --- -- ----- -- --- want -- --- ---- -- ------ ------<br>--- ----- -- ----,130756.20000004768,130754.5,130319.251,130329.5,130335.85,130769.385,,45,want
screen,html.Screen,2_1_0_1_46,2022-05-10T13:36:34.636Z,,,,,,,,,,,,,,,,,53,,,,,,,,,,,,,,320.5149999761634,,response,,,,99,,,,,,,Space,keypress(Space),,,,,,,,---- -- ----- -- ------ - ------- --- ----------<br>------------- ------ ------ ---- ---- ------- ----- -- ----<br>-------- ------- -- ---------- --- - --- ----- ----- ----<br>---- --- --- ----- --- ---- ---- ------- ----- ---- -------<br>--- --- -- ----- -- --- ---- to --- ---- -- ------ ------<br>--- ----- -- ----,131091.20000004768,131089.89999997616,130752.562,130757,130769.385,131102.797,,46,to
screen,html.Screen,2_1_0_1_47,2022-05-10T13:36:34.971Z,,,,,,,,,,,,,,,,,53,,,,,,,,,,,,,,323.2030000000086,,response,,,,99,,,,,,,Space,keypress(Space),,,,,,,,"---- -- ----- -- ------ - ------- --- ----------<br>------------- ------ ------ ---- ---- ------- ----- -- ----<br>-------- ------- -- ---------- --- - --- ----- ----- ----<br>---- --- --- ----- --- ---- ---- ------- ----- ---- -------<br>--- --- -- ----- -- --- ---- -- be, ---- -- ------ ------<br>--- ----- -- ----",131426.89999997616,131426,131086.004,131091.5,131102.797,131436.002,,47,"be,"
screen,html.Screen,2_1_0_1_48,2022-05-10T13:36:35.372Z,,,,,,,,,,,,,,,,,53,,,,,,,,,,,,,,390.0980000238342,,response,,,,99,,,,,,,Space,keypress(Space),,,,,,,,---- -- ----- -- ------ - ------- --- ----------<br>------------- ------ ------ ---- ---- ------- ----- -- ----<br>-------- ------- -- ---------- --- - --- ----- ----- ----<br>---- --- --- ----- --- ---- ---- ------- ----- ---- -------<br>--- --- -- ----- -- --- ---- -- --- even -- ------ ------<br>--- ----- -- ----,131827.39999997616,131826.10000002384,131419.421,131427.10000002384,131436.002,131836.037,,48,even
screen,html.Screen,2_1_0_1_49,2022-05-10T13:36:35.756Z,,,,,,,,,,,,,,,,,53,,,,,,,,,,,,,,373.9629999999888,,response,,,,99,,,,,,,Space,keypress(Space),,,,,,,,---- -- ----- -- ------ - ------- --- ----------<br>------------- ------ ------ ---- ---- ------- ----- -- ----<br>-------- ------- -- ---------- --- - --- ----- ----- ----<br>---- --- --- ----- --- ---- ---- ------- ----- ---- -------<br>--- --- -- ----- -- --- ---- -- --- ---- if ------ ------<br>--- ----- -- ----,132211.39999997616,132210,131819.529,131827.79999995232,131836.037,132219.371,,49,if
screen,html.Screen,2_1_0_1_50,2022-05-10T13:36:36.124Z,,,,,,,,,,,,,,,,,53,,,,,,,,,,,,,,358.7290000238281,,response,,,,99,,,,,,,Space,keypress(Space),,,,,,,,---- -- ----- -- ------ - ------- --- ----------<br>------------- ------ ------ ---- ---- ------- ----- -- ----<br>-------- ------- -- ---------- --- - --- ----- ----- ----<br>---- --- --- ----- --- ---- ---- ------- ----- ---- -------<br>--- --- -- ----- -- --- ---- -- --- ---- -- that's ------<br>--- ----- -- ----,132580,132578.10000002384,132202.707,132211.79999995232,132219.371,132586.001,,50,that's
screen,html.Screen,2_1_0_1_51,2022-05-10T13:36:36.587Z,,,,,,,,,,,,,,,,,53,,,,,,,,,,,,,,456.09900002385257,,response,,,,99,,,,,,,Space,keypress(Space),,,,,,,,---- -- ----- -- ------ - ------- --- ----------<br>------------- ------ ------ ---- ---- ------- ----- -- ----<br>-------- ------- -- ---------- --- - --- ----- ----- ----<br>---- --- --- ----- --- ---- ---- ------- ----- ---- -------<br>--- --- -- ----- -- --- ---- -- --- ---- -- ------ really<br>--- ----- -- ----,133042.79999995232,133042.10000002384,132569.7,132580.29999995232,132586.001,133052.918,,51,really
screen,html.Screen,2_1_0_1_52,2022-05-10T13:36:37.026Z,,,,,,,,,,,,,,,,,53,,,,,,,,,,,,,,428.18200002383674,,response,,,,99,,,,,,,Space,keypress(Space),,,,,,,,---- -- ----- -- ------ - ------- --- ----------<br>------------- ------ ------ ---- ---- ------- ----- -- ----<br>-------- ------- -- ---------- --- - --- ----- ----- ----<br>---- --- --- ----- --- ---- ---- ------- ----- ---- -------<br>--- --- -- ----- -- --- ---- -- --- ---- -- ------ ------<br>not ----- -- ----,133481.79999995232,133481.10000002384,133036.177,133043,133052.918,133485.925,,52,not
screen,html.Screen,2_1_0_1_53,2022-05-10T13:36:37.404Z,,,,,,,,,,,,,,,,,53,,,,,,,,,,,,,,372.27500004769536,,response,,,,99,,,,,,,Space,keypress(Space),,,,,,,,---- -- ----- -- ------ - ------- --- ----------<br>------------- ------ ------ ---- ---- ------- ----- -- ----<br>-------- ------- -- ---------- --- - --- ----- ----- ----<br>---- --- --- ----- --- ---- ---- ------- ----- ---- -------<br>--- --- -- ----- -- --- ---- -- --- ---- -- ------ ------<br>--- close -- ----,133859.5,133858.20000004768,133469.5,133482.10000002384,133485.925,133869.4,,53,close
screen,html.Screen,2_1_0_1_54,2022-05-10T13:36:37.682Z,,,,,,,,,,,,,,,,,53,,,,,,,,,,,,,,267.49999997616396,,response,,,,99,,,,,,,Space,keypress(Space),,,,,,,,---- -- ----- -- ------ - ------- --- ----------<br>------------- ------ ------ ---- ---- ------- ----- -- ----<br>-------- ------- -- ---------- --- - --- ----- ----- ----<br>---- --- --- ----- --- ---- ---- ------- ----- ---- -------<br>--- --- -- ----- -- --- ---- -- --- ---- -- ------ ------<br>--- ----- at ----,134137.39999997616,134136.89999997616,133852.661,133859.79999995232,133869.4,134152.508,,54,at
screen,html.Screen,2_1_0_1_55,2022-05-10T13:36:38.882Z,,,,,,,,,,,,,,,,,53,,,,,,,,,,,,,,1184.5920000238402,,response,,,,99,,,,,,,Space,keypress(Space),,,,,,,,---- -- ----- -- ------ - ------- --- ----------<br>------------- ------ ------ ---- ---- ------- ----- -- ----<br>-------- ------- -- ---------- --- - --- ----- ----- ----<br>---- --- --- ----- --- ---- ---- ------- ----- ---- -------<br>--- --- -- ----- -- --- ---- -- --- ---- -- ------ ------<br>--- ----- -- all.,135337.70000004768,135337.10000002384,134136.057,134137.60000002384,134152.508,135352.604,,55,all.
Item 99,flow.Loop,2_1_0_1,2022-05-10T13:36:38.882Z,,,,,,,,,,,,,,,,,,,,,,,,,,,,,,,25167.822000023836,,completion,,,,,B,,,,,,,,,,,silence,,,,,135338.10000002384,135337.10000002384,110136.211,110138.60000002384,110169.278,135352.604,,,
Question 1,html.Screen,2_1_0_2,2022-05-10T13:36:47.323Z,,,,,,,,,,,,,,,,,,,,,,,,,,,,false,FALSE,,8424.396000000008,,response,,,,99,B,,,,,,TRUE,click #choice-1,,,,silence,,,,,143777.89999997616,143777,135335.944,135338.20000004768,135352.604,143785.867,,,
Question 2,html.Screen,2_1_0_3,2022-05-10T13:36:50.229Z,,,,,,,,,,,,,,,,,,,,,,,,,,,,true,TRUE,,2896.8330000476853,,response,,,,99,B,,,,,,TRUE,click #choice-1,,,,silence,,,,,146683.60000002384,146682.70000004768,143769.414,143778.10000002384,143785.867,146685.899,,,
Item 99,flow.Sequence,2_1_0,2022-05-10T13:36:50.229Z,,,,,,,,,,,,,,,,,,,,,,,,,,,,,,,46530.02000004769,,completion,,,,,,,,,,,,,,,,,,,,,146683.79999995232,146682.70000004768,100136.154,100146.79999995232,100152.68,146685.899,,,
Holding screen,html.Screen,2_1_1_0,2022-05-10T13:37:00.216Z,,,,,,,,,,,,,,,,,,,,,,,,,,,,,,,10000.011999999988,,timeout,,,,,,,,,,,,,,,,,,,,,156671.10000002384,156669.296,146669.235,146684,146685.899,156685.911,,,
screen,html.Screen,2_1_1_1_0,2022-05-10T13:37:01.008Z,,,,,,,,,,,,,,,,,54,,,,,,,,,,,,,,775.6890000238491,,response,,,,100,,,,,,,Space,keypress(Space),,,,,,,,At --- ---- --- ------ ----- ------- ---- -- --- ------- --<br>------- ---------- ------ -- ----- -- ----- -- ---- ------<br>--- ----- --- --- ------ -------- ----- --- ------ ----- --<br>----- ----- ---------- --- --- ------ ------ ---- -- ------<br>------- --- ------ ----- --- ---- ------- -- ---- --- --<br>------- ------,157463,157461.60000002384,156669.296,156671.79999995232,156685.911,157469.344,,0,At
screen,html.Screen,2_1_1_1_1,2022-05-10T13:37:01.386Z,,,,,,,,,,,,,,,,,54,,,,,,,,,,,,,,371.25600002383,,response,,,,100,,,,,,,Space,keypress(Space),,,,,,,,-- the ---- --- ------ ----- ------- ---- -- --- ------- --<br>------- ---------- ------ -- ----- -- ----- -- ---- ------<br>--- ----- --- --- ------ -------- ----- --- ------ ----- --<br>----- ----- ---------- --- --- ------ ------ ---- -- ------<br>------- --- ------ ----- --- ---- ------- -- ---- --- --<br>------- ------,157840.89999997616,157840.60000002384,157452.67,157463.29999995232,157469.344,157852.434,,1,the
screen,html.Screen,2_1_1_1_2,2022-05-10T13:37:01.706Z,,,,,,,,,,,,,,,,,54,,,,,,,,,,,,,,308.0659999999916,,response,,,,100,,,,,,,Space,keypress(Space),,,,,,,,-- --- time --- ------ ----- ------- ---- -- --- ------- --<br>------- ---------- ------ -- ----- -- ----- -- ---- ------<br>--- ----- --- --- ------ -------- ----- --- ------ ----- --<br>----- ----- ---------- --- --- ------ ------ ---- -- ------<br>------- --- ------ ----- --- ---- ------- -- ---- --- --<br>------- ------,158160.89999997616,158160.5,157836.208,157840.89999997616,157852.434,158169.101,,2,time
screen,html.Screen,2_1_1_1_3,2022-05-10T13:37:02.051Z,,,,,,,,,,,,,,,,,54,,,,,,,,,,,,,,336.49900002384675,,response,,,,100,,,,,,,Space,keypress(Space),,,,,,,,-- --- ---- the ------ ----- ------- ---- -- --- ------- --<br>------- ---------- ------ -- ----- -- ----- -- ---- ------<br>--- ----- --- --- ------ -------- ----- --- ------ ----- --<br>----- ----- ---------- --- --- ------ ------ ---- -- ------<br>------- --- ------ ----- --- ---- ------- -- ---- --- --<br>------- ------,158506.39999997616,158505.60000002384,158152.421,158161,158169.101,158519.369,,3,the
screen,html.Screen,2_1_1_1_4,2022-05-10T13:37:02.603Z,,,,,,,,,,,,,,,,,54,,,,,,,,,,,,,,537.9309999523102,,response,,,,100,,,,,,,Space,keypress(Space),,,,,,,,-- --- ---- --- French ----- ------- ---- -- --- ------- --<br>------- ---------- ------ -- ----- -- ----- -- ---- ------<br>--- ----- --- --- ------ -------- ----- --- ------ ----- --<br>----- ----- ---------- --- --- ------ ------ ---- -- ------<br>------- --- ------ ----- --- ---- ------- -- ---- --- --<br>------- ------,159058.20000004768,159057.29999995232,158502.419,158506.60000002384,158519.369,159069.493,,4,French
screen,html.Screen,2_1_1_1_5,2022-05-10T13:37:02.981Z,,,,,,,,,,,,,,,,,54,,,,,,,,,,,,,,364.8069999523286,,response,,,,100,,,,,,,Space,keypress(Space),,,,,,,,-- --- ---- --- ------ crown ------- ---- -- --- ------- --<br>------- ---------- ------ -- ----- -- ----- -- ---- ------<br>--- ----- --- --- ------ -------- ----- --- ------ ----- --<br>----- ----- ---------- --- --- ------ ------ ---- -- ------<br>------- --- ------ ----- --- ---- ------- -- ---- --- --<br>------- ------,159435.5,159434.29999995232,159052.516,159058.5,159069.493,159452.8,,5,crown
screen,html.Screen,2_1_1_1_6,2022-05-10T13:37:03.362Z,,,,,,,,,,,,,,,,,54,,,,,,,,,,,,,,363.9999999523279,,response,,,,100,,,,,,,Space,keypress(Space),,,,,,,,-- --- ---- --- ------ ----- secured ---- -- --- ------- --<br>------- ---------- ------ -- ----- -- ----- -- ---- ------<br>--- ----- --- --- ------ -------- ----- --- ------ ----- --<br>----- ----- ---------- --- --- ------ ------ ---- -- ------<br>------- --- ------ ----- --- ---- ------- -- ---- --- --<br>------- ------,159817.39999997616,159816.79999995232,159435.953,159435.89999997616,159452.8,159819.196,,6,secured
screen,html.Screen,2_1_1_1_7,2022-05-10T13:37:03.779Z,,,,,,,,,,,,,,,,,54,,,,,,,,,,,,,,414.00400004768744,,response,,,,100,,,,,,,Space,keypress(Space),,,,,,,,-- --- ---- --- ------ ----- ------- much -- --- ------- --<br>------- ---------- ------ -- ----- -- ----- -- ---- ------<br>--- ----- --- --- ------ -------- ----- --- ------ ----- --<br>----- ----- ---------- --- --- ------ ------ ---- -- ------<br>------- --- ------ ----- --- ---- ------- -- ---- --- --<br>------- ------,160233.79999995232,160233.20000004768,159802.689,159817.39999997616,159819.196,160235.823,,7,much
screen,html.Screen,2_1_1_1_8,2022-05-10T13:37:04.141Z,,,,,,,,,,,,,,,,,54,,,,,,,,,,,,,,358.9769999523123,,response,,,,100,,,,,,,Space,keypress(Space),,,,,,,,-- --- ---- --- ------ ----- ------- ---- of --- ------- --<br>------- ---------- ------ -- ----- -- ----- -- ---- ------<br>--- ----- --- --- ------ -------- ----- --- ------ ----- --<br>----- ----- ---------- --- --- ------ ------ ---- -- ------<br>------- --- ------ ----- --- ---- ------- -- ---- --- --<br>------- ------,160596.29999995232,160594.79999995232,160219.423,160233.79999995232,160235.823,160602.603,,8,of
screen,html.Screen,2_1_1_1_9,2022-05-10T13:37:04.444Z,,,,,,,,,,,,,,,,,54,,,,,,,,,,,,,,295.29699997615535,,response,,,,100,,,,,,,Space,keypress(Space),,,,,,,,-- --- ---- --- ------ ----- ------- ---- -- its ------- --<br>------- ---------- ------ -- ----- -- ----- -- ---- ------<br>--- ----- --- --- ------ -------- ----- --- ------ ----- --<br>----- ----- ---------- --- --- ------ ------ ---- -- ------<br>------- --- ------ ----- --- ---- ------- -- ---- --- --<br>------- ------,160899.20000004768,160897.89999997616,160585.831,160596.70000004768,160602.603,160902.728,,9,its
screen,html.Screen,2_1_1_1_10,2022-05-10T13:37:04.795Z,,,,,,,,,,,,,,,,,54,,,,,,,,,,,,,,346.2719999999972,,response,,,,100,,,,,,,Space,keypress(Space),,,,,,,,-- --- ---- --- ------ ----- ------- ---- -- --- revenue --<br>------- ---------- ------ -- ----- -- ----- -- ---- ------<br>--- ----- --- --- ------ -------- ----- --- ------ ----- --<br>----- ----- ---------- --- --- ------ ------ ---- -- ------<br>------- --- ------ ----- --- ---- ------- -- ---- --- --<br>------- ------,161249.70000004768,161249,160886.026,160899.60000002384,160902.728,161252.508,,10,revenue
screen,html.Screen,2_1_1_1_11,2022-05-10T13:37:05.270Z,,,,,,,,,,,,,,,,,54,,,,,,,,,,,,,,469.6920000476821,,response,,,,100,,,,,,,Space,keypress(Space),,,,,,,,-- --- ---- --- ------ ----- ------- ---- -- --- ------- by<br>------- ---------- ------ -- ----- -- ----- -- ---- ------<br>--- ----- --- --- ------ -------- ----- --- ------ ----- --<br>----- ----- ---------- --- --- ------ ------ ---- -- ------<br>------- --- ------ ----- --- ---- ------- -- ---- --- --<br>------- ------,161724.70000004768,161722.20000004768,161236.141,161250,161252.508,161735.904,,11,by
screen,html.Screen,2_1_1_1_12,2022-05-10T13:37:05.634Z,,,,,,,,,,,,,,,,,54,,,,,,,,,,,,,,352.89599995230674,,response,,,,100,,,,,,,Space,keypress(Space),,,,,,,,-- --- ---- --- ------ ----- ------- ---- -- --- ------- --<br>issuing ---------- ------ -- ----- -- ----- -- ---- ------<br>--- ----- --- --- ------ -------- ----- --- ------ ----- --<br>----- ----- ---------- --- --- ------ ------ ---- -- ------<br>------- --- ------ ----- --- ---- ------- -- ---- --- --<br>------- ------,162089.39999997616,162088.79999995232,161719.151,161725.10000002384,161735.904,162102.823,,12,issuing
screen,html.Screen,2_1_1_1_13,2022-05-10T13:37:05.981Z,,,,,,,,,,,,,,,,,54,,,,,,,,,,,,,,331.37700004767976,,response,,,,100,,,,,,,Space,keypress(Space),,,,,,,,-- --- ---- --- ------ ----- ------- ---- -- --- ------- --<br>------- government ------ -- ----- -- ----- -- ---- ------<br>--- ----- --- --- ------ -------- ----- --- ------ ----- --<br>----- ----- ---------- --- --- ------ ------ ---- -- ------<br>------- --- ------ ----- --- ---- ------- -- ---- --- --<br>------- ------,162435.5,162434.20000004768,162086.041,162089.39999997616,162102.823,162452.9,,13,government
screen,html.Screen,2_1_1_1_14,2022-05-10T13:37:06.301Z,,,,,,,,,,,,,,,,,54,,,,,,,,,,,,,,300.99999997616396,,response,,,,100,,,,,,,Space,keypress(Space),,,,,,,,-- --- ---- --- ------ ----- ------- ---- -- --- ------- --<br>------- ---------- bonds. -- ----- -- ----- -- ---- ------<br>--- ----- --- --- ------ -------- ----- --- ------ ----- --<br>----- ----- ---------- --- --- ------ ------ ---- -- ------<br>------- --- ------ ----- --- ---- ------- -- ---- --- --<br>------- ------,162755.60000002384,162753.89999997616,162436.057,162436,162452.9,162769.405,,14,bonds.
screen,html.Screen,2_1_1_1_15,2022-05-10T13:37:06.724Z,,,,,,,,,,,,,,,,,54,,,,,,,,,,,,,,408.4949999761593,,response,,,,100,,,,,,,Space,keypress(Space),,,,,,,,-- --- ---- --- ------ ----- ------- ---- -- --- ------- --<br>------- ---------- ------ In ----- -- ----- -- ---- ------<br>--- ----- --- --- ------ -------- ----- --- ------ ----- --<br>----- ----- ---------- --- --- ------ ------ ---- -- ------<br>------- --- ------ ----- --- ---- ------- -- ---- --- --<br>------- ------,163179.20000004768,163177.89999997616,162752.689,162756,162769.405,163185.871,,15,In
screen,html.Screen,2_1_1_1_16,2022-05-10T13:37:07.083Z,,,,,,,,,,,,,,,,,54,,,,,,,,,,,,,,351.2290000238281,,response,,,,100,,,,,,,Space,keypress(Space),,,,,,,,"-- --- ---- --- ------ ----- ------- ---- -- --- ------- --<br>------- ---------- ------ -- 1727, -- ----- -- ---- ------<br>--- ----- --- --- ------ -------- ----- --- ------ ----- --<br>----- ----- ---------- --- --- ------ ------ ---- -- ------<br>------- --- ------ ----- --- ---- ------- -- ---- --- --<br>------- ------",163537.89999997616,163537.10000002384,163169.409,163179.60000002384,163185.871,163552.701,,16,"1727,"
screen,html.Screen,2_1_1_1_17,2022-05-10T13:37:07.963Z,,,,,,,,,,,,,,,,,54,,,,,,,,,,,,,,864.3990000238409,,response,,,,100,,,,,,,Space,keypress(Space),,,,,,,,-- --- ---- --- ------ ----- ------- ---- -- --- ------- --<br>------- ---------- ------ -- ----- in ----- -- ---- ------<br>--- ----- --- --- ------ -------- ----- --- ------ ----- --<br>----- ----- ---------- --- --- ------ ------ ---- -- ------<br>------- --- ------ ----- --- ---- ------- -- ---- --- --<br>------- ------,164417.79999995232,164417.10000002384,163535.89,163538.20000004768,163552.701,164419.165,,17,in
screen,html.Screen,2_1_1_1_18,2022-05-10T13:37:08.428Z,,,,,,,,,,,,,,,,,54,,,,,,,,,,,,,,462.73499997615,,response,,,,100,,,,,,,Space,keypress(Space),,,,,,,,-- --- ---- --- ------ ----- ------- ---- -- --- ------- --<br>------- ---------- ------ -- ----- -- order -- ---- ------<br>--- ----- --- --- ------ -------- ----- --- ------ ----- --<br>----- ----- ---------- --- --- ------ ------ ---- -- ------<br>------- --- ------ ----- --- ---- ------- -- ---- --- --<br>------- ------,164883.39999997616,164881.89999997616,164402.749,164417.89999997616,164419.165,164886.008,,18,order
screen,html.Screen,2_1_1_1_19,2022-05-10T13:37:08.828Z,,,,,,,,,,,,,,,,,54,,,,,,,,,,,,,,396.0920000238402,,response,,,,100,,,,,,,Space,keypress(Space),,,,,,,,-- --- ---- --- ------ ----- ------- ---- -- --- ------- --<br>------- ---------- ------ -- ----- -- ----- to ---- ------<br>--- ----- --- --- ------ -------- ----- --- ------ ----- --<br>----- ----- ---------- --- --- ------ ------ ---- -- ------<br>------- --- ------ ----- --- ---- ------- -- ---- --- --<br>------- ------,165283.29999995232,165282.10000002384,164869.451,164883.89999997616,164886.008,165285.964,,19,to
screen,html.Screen,2_1_1_1_20,2022-05-10T13:37:09.237Z,,,,,,,,,,,,,,,,,54,,,,,,,,,,,,,,404.33599995230907,,response,,,,100,,,,,,,Space,keypress(Space),,,,,,,,-- --- ---- --- ------ ----- ------- ---- -- --- ------- --<br>------- ---------- ------ -- ----- -- ----- -- save ------<br>--- ----- --- --- ------ -------- ----- --- ------ ----- --<br>----- ----- ---------- --- --- ------ ------ ---- -- ------<br>------- --- ------ ----- --- ---- ------- -- ---- --- --<br>------- ------,165692,165690.29999995232,165269.27,165283.70000004768,165285.964,165702.528,,20,save
screen,html.Screen,2_1_1_1_21,2022-05-10T13:37:09.636Z,,,,,,,,,,,,,,,,,54,,,,,,,,,,,,,,387.27199995232513,,response,,,,100,,,,,,,Space,keypress(Space),,,,,,,,"-- --- ---- --- ------ ----- ------- ---- -- --- ------- --<br>------- ---------- ------ -- ----- -- ----- -- ---- money,<br>--- ----- --- --- ------ -------- ----- --- ------ ----- --<br>----- ----- ---------- --- --- ------ ------ ---- -- ------<br>------- --- ------ ----- --- ---- ------- -- ---- --- --<br>------- ------",166090.60000002384,166089.79999995232,165685.934,165692.5,165702.528,166102.54,,21,"money,"
screen,html.Screen,2_1_1_1_22,2022-05-10T13:37:10.028Z,,,,,,,,,,,,,,,,,54,,,,,,,,,,,,,,379.45999999999185,,response,,,,100,,,,,,,Space,keypress(Space),,,,,,,,-- --- ---- --- ------ ----- ------- ---- -- --- ------- --<br>------- ---------- ------ -- ----- -- ----- -- ---- ------<br>the ----- --- --- ------ -------- ----- --- ------ ----- --<br>----- ----- ---------- --- --- ------ ------ ---- -- ------<br>------- --- ------ ----- --- ---- ------- -- ---- --- --<br>------- ------,166483,166482,166086.07,166090.79999995232,166102.54,166485.864,,22,the
screen,html.Screen,2_1_1_1_23,2022-05-10T13:37:10.363Z,,,,,,,,,,,,,,,,,54,,,,,,,,,,,,,,331.23600002384046,,response,,,,100,,,,,,,Space,keypress(Space),,,,,,,,-- --- ---- --- ------ ----- ------- ---- -- --- ------- --<br>------- ---------- ------ -- ----- -- ----- -- ---- ------<br>--- state --- --- ------ -------- ----- --- ------ ----- --<br>----- ----- ---------- --- --- ------ ------ ---- -- ------<br>------- --- ------ ----- --- ---- ------- -- ---- --- --<br>------- ------,166817.60000002384,166817.10000002384,166469.205,166483.29999995232,166485.864,166819.138,,23,state
screen,html.Screen,2_1_1_1_24,2022-05-10T13:37:10.821Z,,,,,,,,,,,,,,,,,54,,,,,,,,,,,,,,455.56200004767743,,response,,,,100,,,,,,,Space,keypress(Space),,,,,,,,-- --- ---- --- ------ ----- ------- ---- -- --- ------- --<br>------- ---------- ------ -- ----- -- ----- -- ---- ------<br>--- ----- cut --- ------ -------- ----- --- ------ ----- --<br>----- ----- ---------- --- --- ------ ------ ---- -- ------<br>------- --- ------ ----- --- ---- ------- -- ---- --- --<br>------- ------,167276.29999995232,167274.70000004768,166802.653,166817.79999995232,166819.138,167285.821,,24,cut
screen,html.Screen,2_1_1_1_25,2022-05-10T13:37:11.182Z,,,,,,,,,,,,,,,,,54,,,,,,,,,,,,,,349.37900004768744,,response,,,,100,,,,,,,Space,keypress(Space),,,,,,,,-- --- ---- --- ------ ----- ------- ---- -- --- ------- --<br>------- ---------- ------ -- ----- -- ----- -- ---- ------<br>--- ----- --- the ------ -------- ----- --- ------ ----- --<br>----- ----- ---------- --- --- ------ ------ ---- -- ------<br>------- --- ------ ----- --- ---- ------- -- ---- --- --<br>------- ------,167636.79999995232,167635.20000004768,167269.439,167276.70000004768,167285.821,167652.67,,25,the
screen,html.Screen,2_1_1_1_26,2022-05-10T13:37:11.517Z,,,,,,,,,,,,,,,,,54,,,,,,,,,,,,,,317.5300000476709,,response,,,,100,,,,,,,Space,keypress(Space),,,,,,,,-- --- ---- --- ------ ----- ------- ---- -- --- ------- --<br>------- ---------- ------ -- ----- -- ----- -- ---- ------<br>--- ----- --- --- bonds' -------- ----- --- ------ ----- --<br>----- ----- ---------- --- --- ------ ------ ---- -- ------<br>------- --- ------ ----- --- ---- ------- -- ---- --- --<br>------- ------,167971.89999997616,167970.20000004768,167635.826,167637.39999997616,167652.67,167986.053,,26,bonds'
screen,html.Screen,2_1_1_1_27,2022-05-10T13:37:11.941Z,,,,,,,,,,,,,,,,,54,,,,,,,,,,,,,,407.94699999998556,,response,,,,100,,,,,,,Space,keypress(Space),,,,,,,,-- --- ---- --- ------ ----- ------- ---- -- --- ------- --<br>------- ---------- ------ -- ----- -- ----- -- ---- ------<br>--- ----- --- --- ------ interest ----- --- ------ ----- --<br>----- ----- ---------- --- --- ------ ------ ---- -- ------<br>------- --- ------ ----- --- ---- ------- -- ---- --- --<br>------- ------,168395.5,168394,167969.392,167972.60000002384,167986.053,168402.605,,27,interest
screen,html.Screen,2_1_1_1_28,2022-05-10T13:37:12.324Z,,,,,,,,,,,,,,,,,54,,,,,,,,,,,,,,375.29499997614766,,response,,,,100,,,,,,,Space,keypress(Space),,,,,,,,-- --- ---- --- ------ ----- ------- ---- -- --- ------- --<br>------- ---------- ------ -- ----- -- ----- -- ---- ------<br>--- ----- --- --- ------ -------- rate. --- ------ ----- --<br>----- ----- ---------- --- --- ------ ------ ---- -- ------<br>------- --- ------ ----- --- ---- ------- -- ---- --- --<br>------- ------,168779.20000004768,168777.89999997616,168385.835,168395.79999995232,168402.605,168786.009,,28,rate.
screen,html.Screen,2_1_1_1_29,2022-05-10T13:37:12.669Z,,,,,,,,,,,,,,,,,54,,,,,,,,,,,,,,336.3909999761672,,response,,,,100,,,,,,,Space,keypress(Space),,,,,,,,-- --- ---- --- ------ ----- ------- ---- -- --- ------- --<br>------- ---------- ------ -- ----- -- ----- -- ---- ------<br>--- ----- --- --- ------ -------- ----- The ------ ----- --<br>----- ----- ---------- --- --- ------ ------ ---- -- ------<br>------- --- ------ ----- --- ---- ------- -- ---- --- --<br>------- ------,169124.10000002384,169122.39999997616,168769.224,168779.5,168786.009,169135.924,,29,The
screen,html.Screen,2_1_1_1_30,2022-05-10T13:37:13.036Z,,,,,,,,,,,,,,,,,54,,,,,,,,,,,,,,353.77600004768465,,response,,,,100,,,,,,,Space,keypress(Space),,,,,,,,-- --- ---- --- ------ ----- ------- ---- -- --- ------- --<br>------- ---------- ------ -- ----- -- ----- -- ---- ------<br>--- ----- --- --- ------ -------- ----- --- market ----- --<br>----- ----- ---------- --- --- ------ ------ ---- -- ------<br>------- --- ------ ----- --- ---- ------- -- ---- --- --<br>------- ------,169491.10000002384,169489.70000004768,169119.137,169124.39999997616,169135.924,169502.724,,30,market
screen,html.Screen,2_1_1_1_31,2022-05-10T13:37:13.356Z,,,,,,,,,,,,,,,,,54,,,,,,,,,,,,,,307.2760000000126,,response,,,,100,,,,,,,Space,keypress(Space),,,,,,,,-- --- ---- --- ------ ----- ------- ---- -- --- ------- --<br>------- ---------- ------ -- ----- -- ----- -- ---- ------<br>--- ----- --- --- ------ -------- ----- --- ------ value --<br>----- ----- ---------- --- --- ------ ------ ---- -- ------<br>------- --- ------ ----- --- ---- ------- -- ---- --- --<br>------- ------,169811.39999997616,169810,169485.811,169491.39999997616,169502.724,169819.274,,31,value
screen,html.Screen,2_1_1_1_32,2022-05-10T13:37:13.716Z,,,,,,,,,,,,,,,,,54,,,,,,,,,,,,,,350.12599997615325,,response,,,,100,,,,,,,Space,keypress(Space),,,,,,,,-- --- ---- --- ------ ----- ------- ---- -- --- ------- --<br>------- ---------- ------ -- ----- -- ----- -- ---- ------<br>--- ----- --- --- ------ -------- ----- --- ------ ----- of<br>----- ----- ---------- --- --- ------ ------ ---- -- ------<br>------- --- ------ ----- --- ---- ------- -- ---- --- --<br>------- ------,170171,170169.39999997616,169802.623,169811.70000004768,169819.274,170185.866,,32,of
screen,html.Screen,2_1_1_1_33,2022-05-10T13:37:14.045Z,,,,,,,,,,,,,,,,,54,,,,,,,,,,,,,,313.03399997614906,,response,,,,100,,,,,,,Space,keypress(Space),,,,,,,,-- --- ---- --- ------ ----- ------- ---- -- --- ------- --<br>------- ---------- ------ -- ----- -- ----- -- ---- ------<br>--- ----- --- --- ------ -------- ----- --- ------ ----- --<br>these ----- ---------- --- --- ------ ------ ---- -- ------<br>------- --- ------ ----- --- ---- ------- -- ---- --- --<br>------- ------,170500.20000004768,170498.89999997616,170169.343,170171.29999995232,170185.866,170502.591,,33,these
screen,html.Screen,2_1_1_1_34,2022-05-10T13:37:14.380Z,,,,,,,,,,,,,,,,,54,,,,,,,,,,,,,,331.2089999523305,,response,,,,100,,,,,,,Space,keypress(Space),,,,,,,,-- --- ---- --- ------ ----- ------- ---- -- --- ------- --<br>------- ---------- ------ -- ----- -- ----- -- ---- ------<br>--- ----- --- --- ------ -------- ----- --- ------ ----- --<br>----- bonds ---------- --- --- ------ ------ ---- -- ------<br>------- --- ------ ----- --- ---- ------- -- ---- --- --<br>------- ------,170835,170833.79999995232,170485.8,170500.60000002384,170502.591,170852.647,,34,bonds
screen,html.Screen,2_1_1_1_35,2022-05-10T13:37:14.915Z,,,,,,,,,,,,,,,,,54,,,,,,,,,,,,,,516.4530000238447,,response,,,,100,,,,,,,Space,keypress(Space),,,,,,,,"-- --- ---- --- ------ ----- ------- ---- -- --- ------- --<br>------- ---------- ------ -- ----- -- ----- -- ---- ------<br>--- ----- --- --- ------ -------- ----- --- ------ ----- --<br>----- ----- plummeted, --- --- ------ ------ ---- -- ------<br>------- --- ------ ----- --- ---- ------- -- ---- --- --<br>------- ------",171370,171369.10000002384,170835.822,170835.29999995232,170852.647,171385.803,,35,"plummeted,"
screen,html.Screen,2_1_1_1_36,2022-05-10T13:37:15.301Z,,,,,,,,,,,,,,,,,54,,,,,,,,,,,,,,368.49699995230185,,response,,,,100,,,,,,,Space,keypress(Space),,,,,,,,-- --- ---- --- ------ ----- ------- ---- -- --- ------- --<br>------- ---------- ------ -- ----- -- ----- -- ---- ------<br>--- ----- --- --- ------ -------- ----- --- ------ ----- --<br>----- ----- ---------- and --- ------ ------ ---- -- ------<br>------- --- ------ ----- --- ---- ------- -- ---- --- --<br>------- ------,171756,171754.29999995232,171369.261,171370.29999995232,171385.803,171769.252,,36,and
screen,html.Screen,2_1_1_1_37,2022-05-10T13:37:15.644Z,,,,,,,,,,,,,,,,,54,,,,,,,,,,,,,,328.3480000238342,,response,,,,100,,,,,,,Space,keypress(Space),,,,,,,,-- --- ---- --- ------ ----- ------- ---- -- --- ------- --<br>------- ---------- ------ -- ----- -- ----- -- ---- ------<br>--- ----- --- --- ------ -------- ----- --- ------ ----- --<br>----- ----- ---------- --- the ------ ------ ---- -- ------<br>------- --- ------ ----- --- ---- ------- -- ---- --- --<br>------- ------,172098.70000004768,172097.60000002384,171752.614,171756.70000004768,171769.252,172102.453,,37,the
screen,html.Screen,2_1_1_1_38,2022-05-10T13:37:15.978Z,,,,,,,,,,,,,,,,,54,,,,,,,,,,,,,,330.0469999999914,,response,,,,100,,,,,,,Space,keypress(Space),,,,,,,,-- --- ---- --- ------ ----- ------- ---- -- --- ------- --<br>------- ---------- ------ -- ----- -- ----- -- ---- ------<br>--- ----- --- --- ------ -------- ----- --- ------ ----- --<br>----- ----- ---------- --- --- market ------ ---- -- ------<br>------- --- ------ ----- --- ---- ------- -- ---- --- --<br>------- ------,172433,172432.5,172086.049,172099.10000002384,172102.453,172435.743,,38,market
screen,html.Screen,2_1_1_1_39,2022-05-10T13:37:16.372Z,,,,,,,,,,,,,,,,,54,,,,,,,,,,,,,,389.8570000238542,,response,,,,100,,,,,,,Space,keypress(Space),,,,,,,,-- --- ---- --- ------ ----- ------- ---- -- --- ------- --<br>------- ---------- ------ -- ----- -- ----- -- ---- ------<br>--- ----- --- --- ------ -------- ----- --- ------ ----- --<br>----- ----- ---------- --- --- ------ became ---- -- ------<br>------- --- ------ ----- --- ---- ------- -- ---- --- --<br>------- ------,172826.70000004768,172825.60000002384,172419.311,172433.10000002384,172435.743,172835.987,,39,became
screen,html.Screen,2_1_1_1_40,2022-05-10T13:37:16.732Z,,,,,,,,,,,,,,,,,54,,,,,,,,,,,,,,349.41299997616443,,response,,,,100,,,,,,,Space,keypress(Space),,,,,,,,-- --- ---- --- ------ ----- ------- ---- -- --- ------- --<br>------- ---------- ------ -- ----- -- ----- -- ---- ------<br>--- ----- --- --- ------ -------- ----- --- ------ ----- --<br>----- ----- ---------- --- --- ------ ------ wary -- ------<br>------- --- ------ ----- --- ---- ------- -- ---- --- --<br>------- ------,173186.89999997616,173185.39999997616,172819.12,172827,172835.987,173202.843,,40,wary
screen,html.Screen,2_1_1_1_41,2022-05-10T13:37:17.128Z,,,,,,,,,,,,,,,,,54,,,,,,,,,,,,,,378.35700004769024,,response,,,,100,,,,,,,Space,keypress(Space),,,,,,,,-- --- ---- --- ------ ----- ------- ---- -- --- ------- --<br>------- ---------- ------ -- ----- -- ----- -- ---- ------<br>--- ----- --- --- ------ -------- ----- --- ------ ----- --<br>----- ----- ---------- --- --- ------ ------ ---- of ------<br>------- --- ------ ----- --- ---- ------- -- ---- --- --<br>------- ------,173582.60000002384,173581.20000004768,173186.027,173187.29999995232,173202.843,173585.899,,41,of
screen,html.Screen,2_1_1_1_42,2022-05-10T13:37:17.502Z,,,,,,,,,,,,,,,,,54,,,,,,,,,,,,,,368.70100002383697,,response,,,,100,,,,,,,Space,keypress(Space),,,,,,,,-- --- ---- --- ------ ----- ------- ---- -- --- ------- --<br>------- ---------- ------ -- ----- -- ----- -- ---- ------<br>--- ----- --- --- ------ -------- ----- --- ------ ----- --<br>----- ----- ---------- --- --- ------ ------ ---- -- French<br>------- --- ------ ----- --- ---- ------- -- ---- --- --<br>------- ------,173956.70000004768,173954.60000002384,173569.331,173583,173585.899,173969.296,,42,French
screen,html.Screen,2_1_1_1_43,2022-05-10T13:37:17.917Z,,,,,,,,,,,,,,,,,54,,,,,,,,,,,,,,400.9040000476816,,response,,,,100,,,,,,,Space,keypress(Space),,,,,,,,-- --- ---- --- ------ ----- ------- ---- -- --- ------- --<br>------- ---------- ------ -- ----- -- ----- -- ---- ------<br>--- ----- --- --- ------ -------- ----- --- ------ ----- --<br>----- ----- ---------- --- --- ------ ------ ---- -- ------<br>credit. --- ------ ----- --- ---- ------- -- ---- --- --<br>------- ------,174371.60000002384,174370.20000004768,173952.618,173957.20000004768,173969.296,174385.918,,43,credit.
screen,html.Screen,2_1_1_1_44,2022-05-10T13:37:18.278Z,,,,,,,,,,,,,,,,,54,,,,,,,,,,,,,,345.5819999999949,,response,,,,100,,,,,,,Space,keypress(Space),,,,,,,,-- --- ---- --- ------ ----- ------- ---- -- --- ------- --<br>------- ---------- ------ -- ----- -- ----- -- ---- ------<br>--- ----- --- --- ------ -------- ----- --- ------ ----- --<br>----- ----- ---------- --- --- ------ ------ ---- -- ------<br>------- The ------ ----- --- ---- ------- -- ---- --- --<br>------- ------,174732.79999995232,174731.5,174369.596,174371.89999997616,174385.918,174735.962,,44,The
screen,html.Screen,2_1_1_1_45,2022-05-10T13:37:18.644Z,,,,,,,,,,,,,,,,,54,,,,,,,,,,,,,,362.1380000238423,,response,,,,100,,,,,,,Space,keypress(Space),,,,,,,,-- --- ---- --- ------ ----- ------- ---- -- --- ------- --<br>------- ---------- ------ -- ----- -- ----- -- ---- ------<br>--- ----- --- --- ------ -------- ----- --- ------ ----- --<br>----- ----- ---------- --- --- ------ ------ ---- -- ------<br>------- --- French ----- --- ---- ------- -- ---- --- --<br>------- ------,175099.39999997616,175098.10000002384,174719.374,174733.20000004768,174735.962,175102.558,,45,French
screen,html.Screen,2_1_1_1_46,2022-05-10T13:37:18.987Z,,,,,,,,,,,,,,,,,54,,,,,,,,,,,,,,338.54200002385187,,response,,,,100,,,,,,,Space,keypress(Space),,,,,,,,-- --- ---- --- ------ ----- ------- ---- -- --- ------- --<br>------- ---------- ------ -- ----- -- ----- -- ---- ------<br>--- ----- --- --- ------ -------- ----- --- ------ ----- --<br>----- ----- ---------- --- --- ------ ------ ---- -- ------<br>------- --- ------ state --- ---- ------- -- ---- --- --<br>------- ------,175441.79999995232,175441.10000002384,175086.059,175099.79999995232,175102.558,175452.464,,46,state
screen,html.Screen,2_1_1_1_47,2022-05-10T13:37:19.356Z,,,,,,,,,,,,,,,,,54,,,,,,,,,,,,,,357.5359999999928,,response,,,,100,,,,,,,Space,keypress(Space),,,,,,,,-- --- ---- --- ------ ----- ------- ---- -- --- ------- --<br>------- ---------- ------ -- ----- -- ----- -- ---- ------<br>--- ----- --- --- ------ -------- ----- --- ------ ----- --<br>----- ----- ---------- --- --- ------ ------ ---- -- ------<br>------- --- ------ ----- was ---- ------- -- ---- --- --<br>------- ------,175811.10000002384,175810,175436.034,175442,175452.464,175819.206,,47,was
screen,html.Screen,2_1_1_1_48,2022-05-10T13:37:19.875Z,,,,,,,,,,,,,,,,,54,,,,,,,,,,,,,,510.39400002383627,,response,,,,100,,,,,,,Space,keypress(Space),,,,,,,,-- --- ---- --- ------ ----- ------- ---- -- --- ------- --<br>------- ---------- ------ -- ----- -- ----- -- ---- ------<br>--- ----- --- --- ------ -------- ----- --- ------ ----- --<br>----- ----- ---------- --- --- ------ ------ ---- -- ------<br>------- --- ------ ----- --- left ------- -- ---- --- --<br>------- ------,176330.39999997616,176329.60000002384,175802.612,175811.29999995232,175819.206,176335.91,,48,left
screen,html.Screen,2_1_1_1_49,2022-05-10T13:37:20.235Z,,,,,,,,,,,,,,,,,54,,,,,,,,,,,,,,352.98999997615465,,response,,,,100,,,,,,,Space,keypress(Space),,,,,,,,-- --- ---- --- ------ ----- ------- ---- -- --- ------- --<br>------- ---------- ------ -- ----- -- ----- -- ---- ------<br>--- ----- --- --- ------ -------- ----- --- ------ ----- --<br>----- ----- ---------- --- --- ------ ------ ---- -- ------<br>------- --- ------ ----- --- ---- without -- ---- --- --<br>------- ------,176689.60000002384,176688.89999997616,176319.168,176330.70000004768,176335.91,176702.658,,49,without
screen,html.Screen,2_1_1_1_50,2022-05-10T13:37:20.547Z,,,,,,,,,,,,,,,,,54,,,,,,,,,,,,,,298.44200002384605,,response,,,,100,,,,,,,Space,keypress(Space),,,,,,,,-- --- ---- --- ------ ----- ------- ---- -- --- ------- --<br>------- ---------- ------ -- ----- -- ----- -- ---- ------<br>--- ----- --- --- ------ -------- ----- --- ------ ----- --<br>----- ----- ---------- --- --- ------ ------ ---- -- ------<br>------- --- ------ ----- --- ---- ------- an ---- --- --<br>------- ------,177001.70000004768,177001.10000002384,176685.906,176689.70000004768,176702.658,177002.436,,50,an
screen,html.Screen,2_1_1_1_51,2022-05-10T13:37:20.875Z,,,,,,,,,,,,,,,,,54,,,,,,,,,,,,,,326.8639999523293,,response,,,,100,,,,,,,Space,keypress(Space),,,,,,,,-- --- ---- --- ------ ----- ------- ---- -- --- ------- --<br>------- ---------- ------ -- ----- -- ----- -- ---- ------<br>--- ----- --- --- ------ -------- ----- --- ------ ----- --<br>----- ----- ---------- --- --- ------ ------ ---- -- ------<br>------- --- ------ ----- --- ---- ------- -- easy --- --<br>------- ------,177330.20000004768,177329.29999995232,176985.976,177001.89999997616,177002.436,177335.921,,51,easy
screen,html.Screen,2_1_1_1_52,2022-05-10T13:37:21.245Z,,,,,,,,,,,,,,,,,54,,,,,,,,,,,,,,362.97899997615605,,response,,,,100,,,,,,,Space,keypress(Space),,,,,,,,-- --- ---- --- ------ ----- ------- ---- -- --- ------- --<br>------- ---------- ------ -- ----- -- ----- -- ---- ------<br>--- ----- --- --- ------ -------- ----- --- ------ ----- --<br>----- ----- ---------- --- --- ------ ------ ---- -- ------<br>------- --- ------ ----- --- ---- ------- -- ---- way --<br>------- ------,177700.20000004768,177698.89999997616,177319.348,177330.29999995232,177335.921,177702.571,,52,way
screen,html.Screen,2_1_1_1_53,2022-05-10T13:37:22.084Z,,,,,,,,,,,,,,,,,54,,,,,,,,,,,,,,835.0290000238456,,response,,,,100,,,,,,,Space,keypress(Space),,,,,,,,-- --- ---- --- ------ ----- ------- ---- -- --- ------- --<br>------- ---------- ------ -- ----- -- ----- -- ---- ------<br>--- ----- --- --- ------ -------- ----- --- ------ ----- --<br>----- ----- ---------- --- --- ------ ------ ---- -- ------<br>------- --- ------ ----- --- ---- ------- -- ---- --- of<br>------- ------,178538.60000002384,178537.60000002384,177685.911,177700.60000002384,177702.571,178552.722,,53,of
screen,html.Screen,2_1_1_1_54,2022-05-10T13:37:22.436Z,,,,,,,,,,,,,,,,,54,,,,,,,,,,,,,,337.378000023833,,response,,,,100,,,,,,,Space,keypress(Space),,,,,,,,-- --- ---- --- ------ ----- ------- ---- -- --- ------- --<br>------- ---------- ------ -- ----- -- ----- -- ---- ------<br>--- ----- --- --- ------ -------- ----- --- ------ ----- --<br>----- ----- ---------- --- --- ------ ------ ---- -- ------<br>------- --- ------ ----- --- ---- ------- -- ---- --- --<br>raising ------,178891.39999997616,178890.10000002384,178535.93,178538.89999997616,178552.722,178902.556,,54,raising
screen,html.Screen,2_1_1_1_55,2022-05-10T13:37:22.788Z,,,,,,,,,,,,,,,,,54,,,,,,,,,,,,,,339.34399997614673,,response,,,,100,,,,,,,Space,keypress(Space),,,,,,,,-- --- ---- --- ------ ----- ------- ---- -- --- ------- --<br>------- ---------- ------ -- ----- -- ----- -- ---- ------<br>--- ----- --- --- ------ -------- ----- --- ------ ----- --<br>----- ----- ---------- --- --- ------ ------ ---- -- ------<br>------- --- ------ ----- --- ---- ------- -- ---- --- --<br>------- money.,179243.20000004768,179241.89999997616,178886.236,178891.79999995232,178902.556,179252.507,,55,money.
Item 100,flow.Loop,2_1_1_1,2022-05-10T13:37:22.789Z,,,,,,,,,,,,,,,,,,,,,,,,,,,,,,,22555.988999976165,,completion,,,,,B,,,,,,,,,,,silence,,,,,179243.79999995232,179241.89999997616,156669.296,156671.70000004768,156685.911,179252.507,,,
Question 1,html.Screen,2_1_1_2,2022-05-10T13:37:24.771Z,,,,,,,,,,,,,,,,,,,,,,,,,,,,true,TRUE,,1972.4929999999877,,response,,,,100,B,,,,,,TRUE,click #choice-1,,,,silence,,,,,181225.79999995232,181225,179236.075,179244.10000002384,179252.507,181235.739,,,
Question 2,html.Screen,2_1_1_3,2022-05-10T13:37:26.955Z,,,,,,,,,,,,,,,,,,,,,,,,,,,,true,FALSE,,2173.060999952315,,response,,,,100,B,,,,,,FALSE,click #choice-2,,,,silence,,,,,183409.5,183408.79999995232,181219.246,181226,181235.739,183419.071,,,
Item 100,flow.Sequence,2_1_1,2022-05-10T13:37:26.955Z,,,,,,,,,,,,,,,,,,,,,,,,,,,,,,,36722.90099995231,,completion,,,,,,,,,,,,,,,,,,,,,183409.79999995232,183408.79999995232,146669.235,146683.89999997616,146685.899,183419.071,,,
End of Practice,html.Page,2_1_2,2022-05-10T13:37:31.419Z,,,,,,,,,,,,,,,,,,,,,,,,,,,,,,,4454.629000047687,,form submission,,,,,,,,,,,,,,,,,,,,,187874,187873.70000004768,183402.555,183409.79999995232,183419.071,187885.931,,,
Practice,flow.Sequence,2_1,2022-05-10T13:37:31.419Z,,,,,,,,,,,,,,,,,,,,,,,,,,,,,,,87721.02000004769,,completion,,,,,,,,,,,,,,,,,,,,,187874.20000004768,187873.70000004768,100136.154,100146.70000004768,100152.68,187885.931,,,
Trap_instruction,html.Page,2_2_0,2022-05-10T13:37:35.571Z,,,,,,,,,,,,,,,,,,,,,,,,,,,,,,,4139.968999976147,,form submission,,,,,,,,,,,,,,,,,,,,,192026.20000004768,192025.89999997616,187869.094,187874.29999995232,187885.931,192035.712,,,
trap_trial,html.Screen,2_2_1,2022-05-10T13:37:38.699Z,,,,,,,,,,,,,,,,,,,,,,,,,,,,true,1,,3117.1879999761586,,response,,,,,,,,,,,1,click #choice-1,,,,,,,,,195154,195152.89999997616,192019.294,192026.29999995232,192035.712,195169.05,,,
end of trap trial,html.Page,2_2_2,2022-05-10T13:37:40.155Z,,,,,,,,,,,,,,,,,,,,,,,,,,,,,,,1440.8499999761698,,form submission,,,,,,,,,,,,,,,,,,,,,196610.10000002384,196609.89999997616,195152.593,195154.29999995232,195169.05,196619.138,,,
Trap 1,flow.Sequence,2_2,2022-05-10T13:37:40.155Z,,,,,,,,,,,,,,,,,,,,,,,,,,,,,,,8723.968999976147,,completion,,,,,,,,,,,,,,,,,,,,,196610.29999995232,196609.89999997616,187869.094,187874.20000004768,187885.931,196619.138,,,
Standby,html.Page,2_3_0,2022-05-10T13:37:48.148Z,,,,,,,,,,,,,,,,,,,,,,,,,,,,,,,7999.915999999997,,timeout,,,,,,,,,,,,,,,,,,,,,204603.60000002384,204602.577,196602.492,196610.39999997616,196619.138,204619.054,,,
Holding screen,html.Screen,2_3_1_0_0,2022-05-10T13:37:55.149Z,,,,,,,,,,,,,,,,,,,,,,,,,,,,,,,7000.15400000001,,timeout,,,,,,,,,,,,,,,,,,,,,211604.10000002384,211602.503,204602.577,204604,204619.054,211619.208,,,
screen,html.Screen,2_3_1_0_1_0,2022-05-10T13:37:55.971Z,,,,,,,,,,,,,,,,,19,,,,,,,,,,,,,,805.9920000476704,,response,,,,17,B,,,,,,Space,keypress(Space),,,,lyrical,,,,"Interestingly, --- -------- -------- ---------- ---- -------<br>-- ---------- -- --- ----- ------ ----- ---- --------- ----<br>------- ------ -------- -- ------ ---------- ------ ---<br>------ -- -- ---- -- ---------- -------- ------ ---- -------<br>---- --- --------- ------- ----- --------- ---- ----- --<br>------ -------- -- ------ -- ---- ------------",212425.89999997616,212425.20000004768,211602.503,211604.89999997616,211619.208,212435.671,,0,"Interestingly,"
screen,html.Screen,2_3_1_0_1_1,2022-05-10T13:37:56.403Z,,,,,,,,,,,,,,,,,19,,,,,,,,,,,,,,422.1289999523142,,response,,,,17,B,,,,,,Space,keypress(Space),,,,lyrical,,,,-------------- the -------- -------- ---------- ---- -------<br>-- ---------- -- --- ----- ------ ----- ---- --------- ----<br>------- ------ -------- -- ------ ---------- ------ ---<br>------ -- -- ---- -- ---------- -------- ------ ---- -------<br>---- --- --------- ------- ----- --------- ---- ----- --<br>------ -------- -- ------ -- ---- ------------,212858.39999997616,212857.79999995232,212419.176,212426.10000002384,212435.671,212868.994,,1,the
screen,html.Screen,2_3_1_0_1_2,2022-05-10T13:37:56.850Z,,,,,,,,,,,,,,,,,19,,,,,,,,,,,,,,435.4059999761521,,response,,,,17,B,,,,,,Space,keypress(Space),,,,lyrical,,,,-------------- --- heaviest -------- ---------- ---- -------<br>-- ---------- -- --- ----- ------ ----- ---- --------- ----<br>------- ------ -------- -- ------ ---------- ------ ---<br>------ -- -- ---- -- ---------- -------- ------ ---- -------<br>---- --- --------- ------- ----- --------- ---- ----- --<br>------ -------- -- ------ -- ---- ------------,213304.79999995232,213304.39999997616,212852.426,212858.60000002384,212868.994,213318.957,,2,heaviest
screen,html.Screen,2_3_1_0_1_3,2022-05-10T13:37:57.387Z,,,,,,,,,,,,,,,,,19,,,,,,,,,,,,,,522.143000023847,,response,,,,17,B,,,,,,Space,keypress(Space),,,,lyrical,,,,-------------- --- -------- isotopes ---------- ---- -------<br>-- ---------- -- --- ----- ------ ----- ---- --------- ----<br>------- ------ -------- -- ------ ---------- ------ ---<br>------ -- -- ---- -- ---------- -------- ------ ---- -------<br>---- --- --------- ------- ----- --------- ---- ----- --<br>------ -------- -- ------ -- ---- ------------,213842,213841.10000002384,213302.516,213304.79999995232,213318.957,213852.43,,3,isotopes
screen,html.Screen,2_3_1_0_1_4,2022-05-10T13:37:58.011Z,,,,,,,,,,,,,,,,,19,,,,,,,,,,,,,,612.2700000476907,,response,,,,17,B,,,,,,Space,keypress(Space),,,,lyrical,,,,-------------- --- -------- -------- physicists ---- -------<br>-- ---------- -- --- ----- ------ ----- ---- --------- ----<br>------- ------ -------- -- ------ ---------- ------ ---<br>------ -- -- ---- -- ---------- -------- ------ ---- -------<br>---- --- --------- ------- ----- --------- ---- ----- --<br>------ -------- -- ------ -- ---- ------------,214466.20000004768,214464.70000004768,213835.587,213842.29999995232,213852.43,214469.012,,4,physicists
screen,html.Screen,2_3_1_0_1_5,2022-05-10T13:37:58.355Z,,,,,,,,,,,,,,,,,19,,,,,,,,,,,,,,340.2879999523284,,response,,,,17,B,,,,,,Space,keypress(Space),,,,lyrical,,,,-------------- --- -------- -------- ---------- have -------<br>-- ---------- -- --- ----- ------ ----- ---- --------- ----<br>------- ------ -------- -- ------ ---------- ------ ---<br>------ -- -- ---- -- ---------- -------- ------ ---- -------<br>---- --- --------- ------- ----- --------- ---- ----- --<br>------ -------- -- ------ -- ---- ------------,214810.20000004768,214809.29999995232,214452.446,214466.29999995232,214469.012,214819.117,,5,have
screen,html.Screen,2_3_1_0_1_6,2022-05-10T13:37:58.757Z,,,,,,,,,,,,,,,,,19,,,,,,,,,,,,,,391.9830000238435,,response,,,,17,B,,,,,,Space,keypress(Space),,,,lyrical,,,,-------------- --- -------- -------- ---------- ---- managed<br>-- ---------- -- --- ----- ------ ----- ---- --------- ----<br>------- ------ -------- -- ------ ---------- ------ ---<br>------ -- -- ---- -- ---------- -------- ------ ---- -------<br>---- --- --------- ------- ----- --------- ---- ----- --<br>------ -------- -- ------ -- ---- ------------,215211.79999995232,215211.10000002384,214802.611,214810.29999995232,214819.117,215219.1,,6,managed
screen,html.Screen,2_3_1_0_1_7,2022-05-10T13:37:59.100Z,,,,,,,,,,,,,,,,,19,,,,,,,,,,,,,,334.7999999761523,,response,,,,17,B,,,,,,Space,keypress(Space),,,,lyrical,,,,-------------- --- -------- -------- ---------- ---- -------<br>to ---------- -- --- ----- ------ ----- ---- --------- ----<br>------- ------ -------- -- ------ ---------- ------ ---<br>------ -- -- ---- -- ---------- -------- ------ ---- -------<br>---- --- --------- ------- ----- --------- ---- ----- --<br>------ -------- -- ------ -- ---- ------------,215555.39999997616,215553.89999997616,215202.543,215212,215219.1,215569.233,,7,to
screen,html.Screen,2_3_1_0_1_8,2022-05-10T13:37:59.610Z,,,,,,,,,,,,,,,,,19,,,,,,,,,,,,,,495.76699999999255,,response,,,,17,B,,,,,,Space,keypress(Space),,,,lyrical,,,,-------------- --- -------- -------- ---------- ---- -------<br>-- synthesize -- --- ----- ------ ----- ---- --------- ----<br>------- ------ -------- -- ------ ---------- ------ ---<br>------ -- -- ---- -- ---------- -------- ------ ---- -------<br>---- --- --------- ------- ----- --------- ---- ----- --<br>------ -------- -- ------ -- ---- ------------,216065.60000002384,216065,215552.525,215555.79999995232,215569.233,216068.971,,8,synthesize
screen,html.Screen,2_3_1_0_1_9,2022-05-10T13:37:59.963Z,,,,,,,,,,,,,,,,,19,,,,,,,,,,,,,,348.32899995232583,,response,,,,17,B,,,,,,Space,keypress(Space),,,,lyrical,,,,-------------- --- -------- -------- ---------- ---- -------<br>-- ---------- so --- ----- ------ ----- ---- --------- ----<br>------- ------ -------- -- ------ ---------- ------ ---<br>------ -- -- ---- -- ---------- -------- ------ ---- -------<br>---- --- --------- ------- ----- --------- ---- ----- --<br>------ -------- -- ------ -- ---- ------------,216418.20000004768,216417.29999995232,216052.328,216065.70000004768,216068.971,216452.505,,9,so
screen,html.Screen,2_3_1_0_1_10,2022-05-10T13:38:00.420Z,,,,,,,,,,,,,,,,,19,,,,,,,,,,,,,,421.3949999761535,,response,,,,17,B,,,,,,Space,keypress(Space),,,,lyrical,,,,-------------- --- -------- -------- ---------- ---- -------<br>-- ---------- -- far ----- ------ ----- ---- --------- ----<br>------- ------ -------- -- ------ ---------- ------ ---<br>------ -- -- ---- -- ---------- -------- ------ ---- -------<br>---- --- --------- ------- ----- --------- ---- ----- --<br>------ -------- -- ------ -- ---- ------------,216875.29999995232,216873.89999997616,216435.832,216418.39999997616,216452.505,216885.74,,10,far
screen,html.Screen,2_3_1_0_1_11,2022-05-10T13:38:00.844Z,,,,,,,,,,,,,,,,,19,,,,,,,,,,,,,,411.7600000000093,,response,,,,17,B,,,,,,Space,keypress(Space),,,,lyrical,,,,-------------- --- -------- -------- ---------- ---- -------<br>-- ---------- -- --- don't ------ ----- ---- --------- ----<br>------- ------ -------- -- ------ ---------- ------ ---<br>------ -- -- ---- -- ---------- -------- ------ ---- -------<br>---- --- --------- ------- ----- --------- ---- ----- --<br>------ -------- -- ------ -- ---- ------------,217298.79999995232,217297.5,216868.994,216875.60000002384,216885.74,217302.38,,11,don't
screen,html.Screen,2_3_1_0_1_12,2022-05-10T13:38:01.203Z,,,,,,,,,,,,,,,,,19,,,,,,,,,,,,,,355.11999999999534,,response,,,,17,B,,,,,,Space,keypress(Space),,,,lyrical,,,,-------------- --- -------- -------- ---------- ---- -------<br>-- ---------- -- --- ----- behave ----- ---- --------- ----<br>------- ------ -------- -- ------ ---------- ------ ---<br>------ -- -- ---- -- ---------- -------- ------ ---- -------<br>---- --- --------- ------- ----- --------- ---- ----- --<br>------ -------- -- ------ -- ---- ------------,217658.70000004768,217657.5,217285.808,217299.20000004768,217302.38,217669.166,,12,behave
screen,html.Screen,2_3_1_0_1_13,2022-05-10T13:38:01.532Z,,,,,,,,,,,,,,,,,19,,,,,,,,,,,,,,316.4340000238444,,response,,,,17,B,,,,,,Space,keypress(Space),,,,lyrical,,,,-------------- --- -------- -------- ---------- ---- -------<br>-- ---------- -- --- ----- ------ quite ---- --------- ----<br>------- ------ -------- -- ------ ---------- ------ ---<br>------ -- -- ---- -- ---------- -------- ------ ---- -------<br>---- --- --------- ------- ----- --------- ---- ----- --<br>------ -------- -- ------ -- ---- ------------,217987.10000002384,217985.60000002384,217652.52,217658.79999995232,217669.166,218002.502,,13,quite
screen,html.Screen,2_3_1_0_1_14,2022-05-10T13:38:01.962Z,,,,,,,,,,,,,,,,,19,,,,,,,,,,,,,,413.89799997615046,,response,,,,17,B,,,,,,Space,keypress(Space),,,,lyrical,,,,-------------- --- -------- -------- ---------- ---- -------<br>-- ---------- -- --- ----- ------ ----- like --------- ----<br>------- ------ -------- -- ------ ---------- ------ ---<br>------ -- -- ---- -- ---------- -------- ------ ---- -------<br>---- --- --------- ------- ----- --------- ---- ----- --<br>------ -------- -- ------ -- ---- ------------,218416.70000004768,218416.39999997616,217985.874,217987.5,218002.502,218418.927,,14,like
screen,html.Screen,2_3_1_0_1_15,2022-05-10T13:38:02.490Z,,,,,,,,,,,,,,,,,19,,,,,,,,,,,,,,525.8729999523202,,response,,,,17,B,,,,,,Space,keypress(Space),,,,lyrical,,,,-------------- --- -------- -------- ---------- ---- -------<br>-- ---------- -- --- ----- ------ ----- ---- science's ----<br>------- ------ -------- -- ------ ---------- ------ ---<br>------ -- -- ---- -- ---------- -------- ------ ---- -------<br>---- --- --------- ------- ----- --------- ---- ----- --<br>------ -------- -- ------ -- ---- ------------,218945.39999997616,218944.79999995232,218402.4,218416.79999995232,218418.927,218952.429,,15,science's
screen,html.Screen,2_3_1_0_1_16,2022-05-10T13:38:02.978Z,,,,,,,,,,,,,,,,,19,,,,,,,,,,,,,,480.27100004768,,response,,,,17,B,,,,,,Space,keypress(Space),,,,lyrical,,,,-------------- --- -------- -------- ---------- ---- -------<br>-- ---------- -- --- ----- ------ ----- ---- --------- best<br>------- ------ -------- -- ------ ---------- ------ ---<br>------ -- -- ---- -- ---------- -------- ------ ---- -------<br>---- --- --------- ------- ----- --------- ---- ----- --<br>------ -------- -- ------ -- ---- ------------,219433.29999995232,219432.70000004768,218935.578,218945.60000002384,218952.429,219435.626,,16,best
screen,html.Screen,2_3_1_0_1_17,2022-05-10T13:38:03.539Z,,,,,,,,,,,,,,,,,19,,,,,,,,,,,,,,557.5740000476944,,response,,,,17,B,,,,,,Space,keypress(Space),,,,lyrical,,,,-------------- --- -------- -------- ---------- ---- -------<br>-- ---------- -- --- ----- ------ ----- ---- --------- ----<br>current ------ -------- -- ------ ---------- ------ ---<br>------ -- -- ---- -- ---------- -------- ------ ---- -------<br>---- --- --------- ------- ----- --------- ---- ----- --<br>------ -------- -- ------ -- ---- ------------,219994.10000002384,219993.20000004768,219419.157,219433.29999995232,219435.626,220002.495,,17,current
screen,html.Screen,2_3_1_0_1_18,2022-05-10T13:38:04.371Z,,,,,,,,,,,,,,,,,19,,,,,,,,,,,,,,822.6050000238465,,response,,,,17,B,,,,,,Space,keypress(Space),,,,lyrical,,,,-------------- --- -------- -------- ---------- ---- -------<br>-- ---------- -- --- ----- ------ ----- ---- --------- ----<br>------- models -------- -- ------ ---------- ------ ---<br>------ -- -- ---- -- ---------- -------- ------ ---- -------<br>---- --- --------- ------- ----- --------- ---- ----- --<br>------ -------- -- ------ -- ---- ------------,220825.79999995232,220825.10000002384,219985.743,219994.29999995232,220002.495,220835.806,,18,models
screen,html.Screen,2_3_1_0_1_19,2022-05-10T13:38:05.412Z,,,,,,,,,,,,,,,,,19,,,,,,,,,,,,,,1029.6939999999886,,response,,,,17,B,,,,,,Space,keypress(Space),,,,lyrical,,,,"-------------- --- -------- -------- ---------- ---- -------<br>-- ---------- -- --- ----- ------ ----- ---- --------- ----<br>------- ------ predict, -- ------ ---------- ------ ---<br>------ -- -- ---- -- ---------- -------- ------ ---- -------<br>---- --- --------- ------- ----- --------- ---- ----- --<br>------ -------- -- ------ -- ---- ------------",221866.70000004768,221865.5,220819.134,220825.89999997616,220835.806,221869.066,,19,"predict,"
screen,html.Screen,2_3_1_0_1_20,2022-05-10T13:38:05.770Z,,,,,,,,,,,,,,,,,19,,,,,,,,,,,,,,355.73399995232467,,response,,,,17,B,,,,,,Space,keypress(Space),,,,lyrical,,,,-------------- --- -------- -------- ---------- ---- -------<br>-- ---------- -- --- ----- ------ ----- ---- --------- ----<br>------- ------ -------- so ------ ---------- ------ ---<br>------ -- -- ---- -- ---------- -------- ------ ---- -------<br>---- --- --------- ------- ----- --------- ---- ----- --<br>------ -------- -- ------ -- ---- ------------,222225.39999997616,222224.79999995232,221852.336,221867.10000002384,221869.066,222235.732,,20,so
screen,html.Screen,2_3_1_0_1_21,2022-05-10T13:38:06.118Z,,,,,,,,,,,,,,,,,19,,,,,,,,,,,,,,336.3680000238528,,response,,,,17,B,,,,,,Space,keypress(Space),,,,lyrical,,,,-------------- --- -------- -------- ---------- ---- -------<br>-- ---------- -- --- ----- ------ ----- ---- --------- ----<br>------- ------ -------- -- stable ---------- ------ ---<br>------ -- -- ---- -- ---------- -------- ------ ---- -------<br>---- --- --------- ------- ----- --------- ---- ----- --<br>------ -------- -- ------ -- ---- ------------,222573.60000002384,222572.10000002384,222219.091,222225.60000002384,222235.732,222585.675,,21,stable
screen,html.Screen,2_3_1_0_1_22,2022-05-10T13:38:06.707Z,,,,,,,,,,,,,,,,,19,,,,,,,,,,,,,,575.7249999761698,,response,,,,17,B,,,,,,Space,keypress(Space),,,,lyrical,,,,-------------- --- -------- -------- ---------- ---- -------<br>-- ---------- -- --- ----- ------ ----- ---- --------- ----<br>------- ------ -------- -- ------ superheavy ------ ---<br>------ -- -- ---- -- ---------- -------- ------ ---- -------<br>---- --- --------- ------- ----- --------- ---- ----- --<br>------ -------- -- ------ -- ---- ------------,223162.60000002384,223161.39999997616,222569.056,222573.89999997616,222585.675,223169.009,,22,superheavy
screen,html.Screen,2_3_1_0_1_23,2022-05-10T13:38:07.050Z,,,,,,,,,,,,,,,,,19,,,,,,,,,,,,,,335.4910000000091,,response,,,,17,B,,,,,,Space,keypress(Space),,,,lyrical,,,,-------------- --- -------- -------- ---------- ---- -------<br>-- ---------- -- --- ----- ------ ----- ---- --------- ----<br>------- ------ -------- -- ------ ---------- nuclei ---<br>------ -- -- ---- -- ---------- -------- ------ ---- -------<br>---- --- --------- ------- ----- --------- ---- ----- --<br>------ -------- -- ------ -- ---- ------------,223504.89999997616,223504.5,223152.572,223162.89999997616,223169.009,223519.142,,23,nuclei
screen,html.Screen,2_3_1_0_1_24,2022-05-10T13:38:07.372Z,,,,,,,,,,,,,,,,,19,,,,,,,,,,,,,,307.35800000000745,,response,,,,17,B,,,,,,Space,keypress(Space),,,,lyrical,,,,-------------- --- -------- -------- ---------- ---- -------<br>-- ---------- -- --- ----- ------ ----- ---- --------- ----<br>------- ------ -------- -- ------ ---------- ------ are<br>------ -- -- ---- -- ---------- -------- ------ ---- -------<br>---- --- --------- ------- ----- --------- ---- ----- --<br>------ -------- -- ------ -- ---- ------------,223827.29999995232,223826.5,223502.491,223505,223519.142,223835.605,,24,are
screen,html.Screen,2_3_1_0_1_25,2022-05-10T13:38:07.756Z,,,,,,,,,,,,,,,,,19,,,,,,,,,,,,,,375.4950000238314,,response,,,,17,B,,,,,,Space,keypress(Space),,,,lyrical,,,,-------------- --- -------- -------- ---------- ---- -------<br>-- ---------- -- --- ----- ------ ----- ---- --------- ----<br>------- ------ -------- -- ------ ---------- ------ ---<br>likely -- -- ---- -- ---------- -------- ------ ---- -------<br>---- --- --------- ------- ----- --------- ---- ----- --<br>------ -------- -- ------ -- ---- ------------,224211.5,224211.10000002384,223819.144,223827.39999997616,223835.605,224219.114,,25,likely
screen,html.Screen,2_3_1_0_1_26,2022-05-10T13:38:08.108Z,,,,,,,,,,,,,,,,,19,,,,,,,,,,,,,,342.78599997615675,,response,,,,17,B,,,,,,Space,keypress(Space),,,,lyrical,,,,-------------- --- -------- -------- ---------- ---- -------<br>-- ---------- -- --- ----- ------ ----- ---- --------- ----<br>------- ------ -------- -- ------ ---------- ------ ---<br>------ to -- ---- -- ---------- -------- ------ ---- -------<br>---- --- --------- ------- ----- --------- ---- ----- --<br>------ -------- -- ------ -- ---- ------------,224563.29999995232,224561.89999997616,224202.451,224211.60000002384,224219.114,224569.05,,26,to
screen,html.Screen,2_3_1_0_1_27,2022-05-10T13:38:08.475Z,,,,,,,,,,,,,,,,,19,,,,,,,,,,,,,,360.0500000238535,,response,,,,17,B,,,,,,Space,keypress(Space),,,,lyrical,,,,-------------- --- -------- -------- ---------- ---- -------<br>-- ---------- -- --- ----- ------ ----- ---- --------- ----<br>------- ------ -------- -- ------ ---------- ------ ---<br>------ -- be ---- -- ---------- -------- ------ ---- -------<br>---- --- --------- ------- ----- --------- ---- ----- --<br>------ -------- -- ------ -- ---- ------------,224929.70000004768,224929.10000002384,224552.463,224563.70000004768,224569.05,224935.709,,27,be
screen,html.Screen,2_3_1_0_1_28,2022-05-10T13:38:08.844Z,,,,,,,,,,,,,,,,,19,,,,,,,,,,,,,,362.0909999523137,,response,,,,17,B,,,,,,Space,keypress(Space),,,,lyrical,,,,-------------- --- -------- -------- ---------- ---- -------<br>-- ---------- -- --- ----- ------ ----- ---- --------- ----<br>------- ------ -------- -- ------ ---------- ------ ---<br>------ -- -- full -- ---------- -------- ------ ---- -------<br>---- --- --------- ------- ----- --------- ---- ----- --<br>------ -------- -- ------ -- ---- ------------,225298.89999997616,225297.79999995232,224919.06,224929.89999997616,224935.709,225302.438,,28,full
screen,html.Screen,2_3_1_0_1_29,2022-05-10T13:38:09.203Z,,,,,,,,,,,,,,,,,19,,,,,,,,,,,,,,355.06200000000536,,response,,,,17,B,,,,,,Space,keypress(Space),,,,lyrical,,,,-------------- --- -------- -------- ---------- ---- -------<br>-- ---------- -- --- ----- ------ ----- ---- --------- ----<br>------- ------ -------- -- ------ ---------- ------ ---<br>------ -- -- ---- of ---------- -------- ------ ---- -------<br>---- --- --------- ------- ----- --------- ---- ----- --<br>------ -------- -- ------ -- ---- ------------,225658.60000002384,225657.5,225285.742,225299.20000004768,225302.438,225669.128,,29,of
screen,html.Screen,2_3_1_0_1_30,2022-05-10T13:38:10.317Z,,,,,,,,,,,,,,,,,19,,,,,,,,,,,,,,1101.1719999523193,,response,,,,17,B,,,,,,Space,keypress(Space),,,,lyrical,,,,-------------- --- -------- -------- ---------- ---- -------<br>-- ---------- -- --- ----- ------ ----- ---- --------- ----<br>------- ------ -------- -- ------ ---------- ------ ---<br>------ -- -- ---- -- surprises. -------- ------ ---- -------<br>---- --- --------- ------- ----- --------- ---- ----- --<br>------ -------- -- ------ -- ---- ------------,226772,226770.29999995232,225652.341,225658.89999997616,225669.128,226785.672,,30,surprises.
screen,html.Screen,2_3_1_0_1_31,2022-05-10T13:38:10.702Z,,,,,,,,,,,,,,,,,19,,,,,,,,,,,,,,367.8280000000086,,response,,,,17,B,,,,,,Space,keypress(Space),,,,lyrical,,,,-------------- --- -------- -------- ---------- ---- -------<br>-- ---------- -- --- ----- ------ ----- ---- --------- ----<br>------- ------ -------- -- ------ ---------- ------ ---<br>------ -- -- ---- -- ---------- Chemists ------ ---- -------<br>---- --- --------- ------- ----- --------- ---- ----- --<br>------ -------- -- ------ -- ---- ------------,227157.10000002384,227153.5,226769.271,226772.5,226785.672,227168.959,,31,Chemists
screen,html.Screen,2_3_1_0_1_32,2022-05-10T13:38:11.060Z,,,,,,,,,,,,,,,,,19,,,,,,,,,,,,,,344.9409999761556,,response,,,,17,B,,,,,,Space,keypress(Space),,,,lyrical,,,,-------------- --- -------- -------- ---------- ---- -------<br>-- ---------- -- --- ----- ------ ----- ---- --------- ----<br>------- ------ -------- -- ------ ---------- ------ ---<br>------ -- -- ---- -- ---------- -------- cannot ---- -------<br>---- --- --------- ------- ----- --------- ---- ----- --<br>------ -------- -- ------ -- ---- ------------,227515.29999995232,227513.89999997616,227152.475,227157.39999997616,227168.959,227519.142,,32,cannot
screen,html.Screen,2_3_1_0_1_33,2022-05-10T13:38:11.443Z,,,,,,,,,,,,,,,,,19,,,,,,,,,,,,,,378.55800004769117,,response,,,,17,B,,,,,,Space,keypress(Space),,,,lyrical,,,,-------------- --- -------- -------- ---------- ---- -------<br>-- ---------- -- --- ----- ------ ----- ---- --------- ----<br>------- ------ -------- -- ------ ---------- ------ ---<br>------ -- -- ---- -- ---------- -------- ------ even -------<br>---- --- --------- ------- ----- --------- ---- ----- --<br>------ -------- -- ------ -- ---- ------------,227898.70000004768,227897.70000004768,227502.521,227515.70000004768,227519.142,227902.279,,33,even
screen,html.Screen,2_3_1_0_1_34,2022-05-10T13:38:11.843Z,,,,,,,,,,,,,,,,,19,,,,,,,,,,,,,,395.02099995230674,,response,,,,17,B,,,,,,Space,keypress(Space),,,,lyrical,,,,-------------- --- -------- -------- ---------- ---- -------<br>-- ---------- -- --- ----- ------ ----- ---- --------- ----<br>------- ------ -------- -- ------ ---------- ------ ---<br>------ -- -- ---- -- ---------- -------- ------ ---- predict<br>---- --- --------- ------- ----- --------- ---- ----- --<br>------ -------- -- ------ -- ---- ------------,228298.39999997616,228297.29999995232,227885.875,227898.79999995232,227902.279,228302.346,,34,predict
screen,html.Screen,2_3_1_0_1_35,2022-05-10T13:38:12.362Z,,,,,,,,,,,,,,,,,19,,,,,,,,,,,,,,514.6540000000095,,response,,,,17,B,,,,,,Space,keypress(Space),,,,lyrical,,,,-------------- --- -------- -------- ---------- ---- -------<br>-- ---------- -- --- ----- ------ ----- ---- --------- ----<br>------- ------ -------- -- ------ ---------- ------ ---<br>------ -- -- ---- -- ---------- -------- ------ ---- -------<br>with --- --------- ------- ----- --------- ---- ----- --<br>------ -------- -- ------ -- ---- ------------,228817.70000004768,228817,228285.812,228298.60000002384,228302.346,228819.012,,35,with
screen,html.Screen,2_3_1_0_1_36,2022-05-10T13:38:12.850Z,,,,,,,,,,,,,,,,,19,,,,,,,,,,,,,,485.9880000000121,,response,,,,17,B,,,,,,Space,keypress(Space),,,,lyrical,,,,-------------- --- -------- -------- ---------- ---- -------<br>-- ---------- -- --- ----- ------ ----- ---- --------- ----<br>------- ------ -------- -- ------ ---------- ------ ---<br>------ -- -- ---- -- ---------- -------- ------ ---- -------<br>---- any --------- ------- ----- --------- ---- ----- --<br>------ -------- -- ------ -- ---- ------------,229305.70000004768,229305,228802.507,228817.89999997616,228819.012,229319.045,,36,any
screen,html.Screen,2_3_1_0_1_37,2022-05-10T13:38:13.235Z,,,,,,,,,,,,,,,,,19,,,,,,,,,,,,,,370.2549999523035,,response,,,,17,B,,,,,,Space,keypress(Space),,,,lyrical,,,,-------------- --- -------- -------- ---------- ---- -------<br>-- ---------- -- --- ----- ------ ----- ---- --------- ----<br>------- ------ -------- -- ------ ---------- ------ ---<br>------ -- -- ---- -- ---------- -------- ------ ---- -------<br>---- --- certainty ------- ----- --------- ---- ----- --<br>------ -------- -- ------ -- ---- ------------,229690.39999997616,229689.29999995232,229302.534,229305.79999995232,229319.045,229702.423,,37,certainty
screen,html.Screen,2_3_1_0_1_38,2022-05-10T13:38:13.587Z,,,,,,,,,,,,,,,,,19,,,,,,,,,,,,,,338.6770000238321,,response,,,,17,B,,,,,,Space,keypress(Space),,,,lyrical,,,,-------------- --- -------- -------- ---------- ---- -------<br>-- ---------- -- --- ----- ------ ----- ---- --------- ----<br>------- ------ -------- -- ------ ---------- ------ ---<br>------ -- -- ---- -- ---------- -------- ------ ---- -------<br>---- --- --------- whether ----- --------- ---- ----- --<br>------ -------- -- ------ -- ---- ------------,230042,230041.10000002384,229686.009,229690.70000004768,229702.423,230052.484,,38,whether
screen,html.Screen,2_3_1_0_1_39,2022-05-10T13:38:14.092Z,,,,,,,,,,,,,,,,,19,,,,,,,,,,,,,,493.716000047687,,response,,,,17,B,,,,,,Space,keypress(Space),,,,lyrical,,,,-------------- --- -------- -------- ---------- ---- -------<br>-- ---------- -- --- ----- ------ ----- ---- --------- ----<br>------- ------ -------- -- ------ ---------- ------ ---<br>------ -- -- ---- -- ---------- -------- ------ ---- -------<br>---- --- --------- ------- these --------- ---- ----- --<br>------ -------- -- ------ -- ---- ------------,230547.20000004768,230546.20000004768,230035.637,230042.20000004768,230052.484,230552.382,,39,these
