sender,sender_type,sender_id,timestamp,meta,,Blues,Classical,Country,Dance,Electronic,Folk,Gospel,Hip-Hop,Jazz,Latin,Musical/Film,New-age,Pop,Prolific_id,Provo_ID,R&B,Rap,Reggae,Religious,Rock,Soul,Swing,Traditional,age,artist_name,correct,correctResponse,distraction,duration,education,ended_on,familiarity,gender,headphone_check_performance,item,list,music_frequency,offensiveness,pleasantness,position_correct,preference,response,response_action,snippet_file,song_name,song_rating,sound,stimulus_1,stimulus_2,stimulus_3,text,time_commit,time_end,time_render,time_run,time_show,time_switch,url,word,word_ID
Prolific ID,html.Form,0,2022-04-28T09:46:35.973Z,"{""labjs_version"":""20.2.2"",""labjs_build"":{""flavor"":""production"",""commit"":""a25486e0c714a0ae2ce03ff94b7bb6896854dcfa""},""location"":""https://run.pavlovia.org/mvasilev/prolific3_music_d/"",""userAgent"":""Mozilla/5.0 (Macintosh; Intel Mac OS X 10_15_6) AppleWebKit/605.1.15 (KHTML, like Gecko) Version/14.0.3 Safari/605.1.15"",""platform"":""MacIntel"",""language"":""en-gb"",""locale"":""en-GB"",""timeZone"":""Europe/London"",""timezoneOffset"":-60,""screen_width"":1440,""screen_height"":900,""scroll_width"":1440,""scroll_height"":676,""window_innerWidth"":1440,""window_innerHeight"":724,""devicePixelRatio"":2}",,,,,,,,,,,,,,,5ef877bb6b0ed15b3f6ae106,,,,,,,,,,,,,,,9642,,form submission,,,,,,,,,,,,,,,,,,,,,15769,15768,6102,6082,6126,15785,{},,
Introduction,html.Screen,1_0,2022-04-28T09:47:00.466Z,,,,,,,,,,,,,,,,,,,,,,,,,,,,,,,24493,,response,,,,,,,,,,,continue,click button,,,,,,,,,40264,40268,15775,15770,15785,40284,,,
Volume calibration,html.Screen,1_1,2022-04-28T09:47:43.286Z,,,,,,,,,,,,,,,,,,,,,,,,,,,,,,,42821,,response,,,,,,,,,,,continue,click button,,,,,,,,,83086,83092,40271,40264,40284,83116,,,
Task instructions,html.Screen,1_2,2022-04-28T09:47:45.631Z,,,,,,,,,,,,,,,,,,,,,,,,,,,,,,,2319,,response,,,,,,,,,,,continue,click button,,,,,,,,,85432,85418,83099,83087,83116,85460,,,
Sounds,html.Screen,1_3_0_0,2022-04-28T09:47:49.890Z,,,,,,,,,,,,,,,,,,,,,,,,,,,,,,,4245,,timeout,,,,,,,,,1,,,,,,,,S,I,O,,89691,89689,85443,85432,85460,89705,,,
Judgement,html.Screen,1_3_0_1,2022-04-28T09:47:53.298Z,,,,,,,,,,,,,,,,,,,,,,,,,,,,true,1,,3418,,response,,,,,,,,,1,,1,click #choice-1,,,,,S,I,O,,93099,93107,89689,89691,89705,93117,,,
Trial,flow.Sequence,1_3_0,2022-04-28T09:47:53.299Z,,,,,,,,,,,,,,,,,,,,,,,,,,,,,,,7647,,completion,,,,,,,,,1,,,,,,,,S,I,O,,93100.00000000001,93107,85443,85432,85460,93117,,,
Sounds,html.Screen,1_3_1_0,2022-04-28T09:47:57.546Z,,,,,,,,,,,,,,,,,,,,,,,,,,,,,,,4246,,timeout,,,,,,,,,1,,,,,,,,S,O,I,,97347.00000000001,97347,93106,93100.00000000001,93117,97363,,,
Judgement,html.Screen,1_3_1_1,2022-04-28T09:47:58.492Z,,,,,,,,,,,,,,,,,,,,,,,,,,,,true,1,,953,,response,,,,,,,,,1,,1,click #choice-1,,,,,S,O,I,,98293,98300,97347,97347.00000000001,97363,98319,,,
Trial,flow.Sequence,1_3_1,2022-04-28T09:47:58.493Z,,,,,,,,,,,,,,,,,,,,,,,,,,,,,,,5183,,completion,,,,,,,,,1,,,,,,,,S,O,I,,98294,98300,93106,93100.00000000001,93117,98319,,,
Sounds,html.Screen,1_3_2_0,2022-04-28T09:48:02.744Z,,,,,,,,,,,,,,,,,,,,,,,,,,,,,,,4242,,timeout,,,,,,,,,3,,,,,,,,O,I,S,,102545,102545,98301,98294,98319,102561,,,
Judgement,html.Screen,1_3_2_1,2022-04-28T09:48:04.518Z,,,,,,,,,,,,,,,,,,,,,,,,,,,,false,3,,1781.0000000000146,,response,,,,,,,,,3,,2,click #choice-2,,,,,O,I,S,,104319,104326.00000000001,102545,102545,102561,104338,,,
Trial,flow.Sequence,1_3_2,2022-04-28T09:48:04.518Z,,,,,,,,,,,,,,,,,,,,,,,,,,,,,,,6007.000000000015,,completion,,,,,,,,,3,,,,,,,,O,I,S,,104320.00000000001,104326.00000000001,98301,98294,98319,104338,,,
Sounds,html.Screen,1_3_3_0,2022-04-28T09:48:08.770Z,,,,,,,,,,,,,,,,,,,,,,,,,,,,,,,4250,,timeout,,,,,,,,,2,,,,,,,,I,S,O,,108571,108571,104323,104320.00000000001,104338,108588,,,
Judgement,html.Screen,1_3_3_1,2022-04-28T09:48:09.483Z,,,,,,,,,,,,,,,,,,,,,,,,,,,,true,2,,722,,response,,,,,,,,,2,,2,click #choice-2,,,,,I,S,O,,109285,109293,108571,108572,108588,109297,,,
Trial,flow.Sequence,1_3_3,2022-04-28T09:48:09.483Z,,,,,,,,,,,,,,,,,,,,,,,,,,,,,,,4955,,completion,,,,,,,,,2,,,,,,,,I,S,O,,109285,109293,104323,104320.00000000001,104338,109297,,,
Sounds,html.Screen,1_3_4_0,2022-04-28T09:48:13.732Z,,,,,,,,,,,,,,,,,,,,,,,,,,,,,,,4253,,timeout,,,,,,,,,2,,,,,,,,O,S,I,,113534,113533,109289,109285,109297,113550,,,
Judgement,html.Screen,1_3_4_1,2022-04-28T09:48:14.451Z,,,,,,,,,,,,,,,,,,,,,,,,,,,,true,2,,728,,response,,,,,,,,,2,,2,click #choice-2,,,,,O,S,I,,114253,114261,113533,113534,113550,114291,,,
Trial,flow.Sequence,1_3_4,2022-04-28T09:48:14.451Z,,,,,,,,,,,,,,,,,,,,,,,,,,,,,,,4964,,completion,,,,,,,,,2,,,,,,,,O,S,I,,114253,114261,109289,109285,109297,114291,,,
Sounds,html.Screen,1_3_5_0,2022-04-28T09:48:18.717Z,,,,,,,,,,,,,,,,,,,,,,,,,,,,,,,4246,,timeout,,,,,,,,,3,,,,,,,,I,O,S,,118520,118519,114273,114253,114291,118537,,,
Judgement,html.Screen,1_3_5_1,2022-04-28T09:48:21.109Z,,,,,,,,,,,,,,,,,,,,,,,,,,,,true,3,,2401,,response,,,,,,,,,3,,3,click #choice-3,,,,,I,O,S,,120911,120920,118519,118520,118537,120940,,,
Trial,flow.Sequence,1_3_5,2022-04-28T09:48:21.109Z,,,,,,,,,,,,,,,,,,,,,,,,,,,,,,,6629,,completion,,,,,,,,,3,,,,,,,,I,O,S,,120911,120920,114273,114253,114291,120940,,,
Task,flow.Loop,1_3,2022-04-28T09:48:21.112Z,,,,,,,,,,,,,,,,,,,,,,,,,,,,,,,35460,,completion,,,0.8333333333333334,,,,,,,,,,,,,,,,,,120914,120920,85443,85432,85460,120940,,,
Trap,html.Screen,1_4,2022-04-28T09:48:21.114Z,,,,,,,,,,,,,,,,,,,,,,,,,,,,,,,NaN,,skipped,,,,,,,,,,,,,,,,,,,,,120917,120920,,120916,,120940,,,
Thanks,html.Screen,1_5,2022-04-28T09:48:24.033Z,,,,,,,,,,,,,,,,,,,,,,,,,,,,,,,2916,,response,,,,,,,,,,,continue,click button,,,,,,,,,123835.00000000001,123843,120927,120917,120940,135060,,,
Headphone screening,flow.Sequence,1,2022-04-28T09:48:24.033Z,,,,,,,,,,,,,,,,,,,,,,,,,,,,,,,108058,,completion,,,,,,,,,,,,,,,,,,,,,123836,123843,15775,15770,15785,135060,,,
Instructions,html.Page,2_0,2022-04-28T09:48:36.557Z,,,,,,,,,,,,,,,,,,,,,,,,,,,,,,,1300,,form submission,,,,,,,,,,,,,,,,,,,,,136361,136360,135043,135028,135060,136386,,,
Holding screen,html.Screen,2_1_0_0,2022-04-28T09:48:46.573Z,,,,,,,,,,,,,,,,,,,,,,,,,,,,,,,10023,,timeout,,,,,,,,,,,,,,,,,,,,,146377,146376,136367,136361,136386,146409,,,
screen,html.Screen,2_1_0_1_0,2022-04-28T09:48:48.224Z,,,,,,,,,,,,,,,,,53,,,,,,,,,,,,,,1658,,response,,,,99,,,,,,,Space,keypress(Space),,,,,,,,When -- ----- -- ------ - ------- --- ----------<br>------------- ------ ------ ---- ---- ------- ----- -- ----<br>-------- ------- -- ---------- --- - --- ----- ----- ----<br>---- --- --- ----- --- ---- ---- ------- ----- ---- -------<br>--- --- -- ----- -- --- ---- -- --- ---- -- ------ ------<br>--- ----- -- ----,148028,148034,146376,146378,146409,148071,,0,When
screen,html.Screen,2_1_0_1_1,2022-04-28T09:48:49.674Z,,,,,,,,,,,,,,,,,53,,,,,,,,,,,,,,1432,,response,,,,99,,,,,,,Space,keypress(Space),,,,,,,,---- it ----- -- ------ - ------- --- ----------<br>------------- ------ ------ ---- ---- ------- ----- -- ----<br>-------- ------- -- ---------- --- - --- ----- ----- ----<br>---- --- --- ----- --- ---- ---- ------- ----- ---- -------<br>--- --- -- ----- -- --- ---- -- --- ---- -- ------ ------<br>--- ----- -- ----,149478,149486,148054,148029,148071,149514,,1,it
screen,html.Screen,2_1_0_1_2,2022-04-28T09:48:50.255Z,,,,,,,,,,,,,,,,,53,,,,,,,,,,,,,,571,,response,,,,99,,,,,,,Space,keypress(Space),,,,,,,,---- -- comes -- ------ - ------- --- ----------<br>------------- ------ ------ ---- ---- ------- ----- -- ----<br>-------- ------- -- ---------- --- - --- ----- ----- ----<br>---- --- --- ----- --- ---- ---- ------- ----- ---- -------<br>--- --- -- ----- -- --- ---- -- --- ---- -- ------ ------<br>--- ----- -- ----,150059,150068,149497,149478,149514,150090,,2,comes
screen,html.Screen,2_1_0_1_3,2022-04-28T09:48:50.692Z,,,,,,,,,,,,,,,,,53,,,,,,,,,,,,,,431,,response,,,,99,,,,,,,Space,keypress(Space),,,,,,,,---- -- ----- to ------ - ------- --- ----------<br>------------- ------ ------ ---- ---- ------- ----- -- ----<br>-------- ------- -- ---------- --- - --- ----- ----- ----<br>---- --- --- ----- --- ---- ---- ------- ----- ---- -------<br>--- --- -- ----- -- --- ---- -- --- ---- -- ------ ------<br>--- ----- -- ----,150496,150505,150074,150060,150090,150529,,3,to
screen,html.Screen,2_1_0_1_4,2022-04-28T09:48:51.113Z,,,,,,,,,,,,,,,,,53,,,,,,,,,,,,,,415,,response,,,,99,,,,,,,Space,keypress(Space),,,,,,,,---- -- ----- -- having - ------- --- ----------<br>------------- ------ ------ ---- ---- ------- ----- -- ----<br>-------- ------- -- ---------- --- - --- ----- ----- ----<br>---- --- --- ----- --- ---- ---- ------- ----- ---- -------<br>--- --- -- ----- -- --- ---- -- --- ---- -- ------ ------<br>--- ----- -- ----,150917,150927,150512,150496,150529,150950,,4,having
screen,html.Screen,2_1_0_1_5,2022-04-28T09:48:51.482Z,,,,,,,,,,,,,,,,,53,,,,,,,,,,,,,,363,,response,,,,99,,,,,,,Space,keypress(Space),,,,,,,,---- -- ----- -- ------ a ------- --- ----------<br>------------- ------ ------ ---- ---- ------- ----- -- ----<br>-------- ------- -- ---------- --- - --- ----- ----- ----<br>---- --- --- ----- --- ---- ---- ------- ----- ---- -------<br>--- --- -- ----- -- --- ---- -- --- ---- -- ------ ------<br>--- ----- -- ----,151286,151296,150933,150917,150950,151321,,5,a
screen,html.Screen,2_1_0_1_6,2022-04-28T09:48:52.030Z,,,,,,,,,,,,,,,,,53,,,,,,,,,,,,,,539,,response,,,,99,,,,,,,Space,keypress(Space),,,,,,,,---- -- ----- -- ------ - lasting --- ----------<br>------------- ------ ------ ---- ---- ------- ----- -- ----<br>-------- ------- -- ---------- --- - --- ----- ----- ----<br>---- --- --- ----- --- ---- ---- ------- ----- ---- -------<br>--- --- -- ----- -- --- ---- -- --- ---- -- ------ ------<br>--- ----- -- ----,151834,151843,151304,151287,151321,151875,,6,lasting
screen,html.Screen,2_1_0_1_7,2022-04-28T09:48:52.374Z,,,,,,,,,,,,,,,,,53,,,,,,,,,,,,,,329.0000000000291,,response,,,,99,,,,,,,Space,keypress(Space),,,,,,,,---- -- ----- -- ------ - ------- and ----------<br>------------- ------ ------ ---- ---- ------- ----- -- ----<br>-------- ------- -- ---------- --- - --- ----- ----- ----<br>---- --- --- ----- --- ---- ---- ------- ----- ---- -------<br>--- --- -- ----- -- --- ---- -- --- ---- -- ------ ------<br>--- ----- -- ----,152178,152188.00000000003,151859,151835,151875,152198,,7,and
screen,html.Screen,2_1_0_1_8,2022-04-28T09:48:53.044Z,,,,,,,,,,,,,,,,,53,,,,,,,,,,,,,,675,,response,,,,99,,,,,,,Space,keypress(Space),,,,,,,,---- -- ----- -- ------ - ------- --- fulfilling<br>------------- ------ ------ ---- ---- ------- ----- -- ----<br>-------- ------- -- ---------- --- - --- ----- ----- ----<br>---- --- --- ----- --- ---- ---- ------- ----- ---- -------<br>--- --- -- ----- -- --- ---- -- --- ---- -- ------ ------<br>--- ----- -- ----,152849,152857,152182,152179,152198,152891,,8,fulfilling
screen,html.Screen,2_1_0_1_9,2022-04-28T09:48:53.623Z,,,,,,,,,,,,,,,,,53,,,,,,,,,,,,,,562,,response,,,,99,,,,,,,Space,keypress(Space),,,,,,,,"---- -- ----- -- ------ - ------- --- ----------<br>relationship, ------ ------ ---- ---- ------- ----- -- ----<br>-------- ------- -- ---------- --- - --- ----- ----- ----<br>---- --- --- ----- --- ---- ---- ------- ----- ---- -------<br>--- --- -- ----- -- --- ---- -- --- ---- -- ------ ------<br>--- ----- -- ----",153428,153437,152875,152849,152891,153465,,9,"relationship,"
screen,html.Screen,2_1_0_1_10,2022-04-28T09:48:54.227Z,,,,,,,,,,,,,,,,,53,,,,,,,,,,,,,,593,,response,,,,99,,,,,,,Space,keypress(Space),,,,,,,,---- -- ----- -- ------ - ------- --- ----------<br>------------- common ------ ---- ---- ------- ----- -- ----<br>-------- ------- -- ---------- --- - --- ----- ----- ----<br>---- --- --- ----- --- ---- ---- ------- ----- ---- -------<br>--- --- -- ----- -- --- ---- -- --- ---- -- ------ ------<br>--- ----- -- ----,154031,154041,153448,153428,153465,154070,,10,common
screen,html.Screen,2_1_0_1_11,2022-04-28T09:48:54.794Z,,,,,,,,,,,,,,,,,53,,,,,,,,,,,,,,554,,response,,,,99,,,,,,,Space,keypress(Space),,,,,,,,---- -- ----- -- ------ - ------- --- ----------<br>------------- ------ wisdom ---- ---- ------- ----- -- ----<br>-------- ------- -- ---------- --- - --- ----- ----- ----<br>---- --- --- ----- --- ---- ---- ------- ----- ---- -------<br>--- --- -- ----- -- --- ---- -- --- ---- -- ------ ------<br>--- ----- -- ----,154599,154608,154054,154031,154070,154641,,11,wisdom
screen,html.Screen,2_1_0_1_12,2022-04-28T09:48:55.235Z,,,,,,,,,,,,,,,,,53,,,,,,,,,,,,,,426,,response,,,,99,,,,,,,Space,keypress(Space),,,,,,,,---- -- ----- -- ------ - ------- --- ----------<br>------------- ------ ------ says ---- ------- ----- -- ----<br>-------- ------- -- ---------- --- - --- ----- ----- ----<br>---- --- --- ----- --- ---- ---- ------- ----- ---- -------<br>--- --- -- ----- -- --- ---- -- --- ---- -- ------ ------<br>--- ----- -- ----,155040,155050,154624,154599,154641,155078,,12,says
screen,html.Screen,2_1_0_1_13,2022-04-28T09:48:55.643Z,,,,,,,,,,,,,,,,,53,,,,,,,,,,,,,,395,,response,,,,99,,,,,,,Space,keypress(Space),,,,,,,,---- -- ----- -- ------ - ------- --- ----------<br>------------- ------ ------ ---- that ------- ----- -- ----<br>-------- ------- -- ---------- --- - --- ----- ----- ----<br>---- --- --- ----- --- ---- ---- ------- ----- ---- -------<br>--- --- -- ----- -- --- ---- -- --- ---- -- ------ ------<br>--- ----- -- ----,155448,155458,155063,155040,155078,155471,,13,that
screen,html.Screen,2_1_0_1_14,2022-04-28T09:48:56.035Z,,,,,,,,,,,,,,,,,53,,,,,,,,,,,,,,395,,response,,,,99,,,,,,,Space,keypress(Space),,,,,,,,---- -- ----- -- ------ - ------- --- ----------<br>------------- ------ ------ ---- ---- feeling ----- -- ----<br>-------- ------- -- ---------- --- - --- ----- ----- ----<br>---- --- --- ----- --- ---- ---- ------- ----- ---- -------<br>--- --- -- ----- -- --- ---- -- --- ---- -- ------ ------<br>--- ----- -- ----,155840,155849,155454,155448,155471,155861,,14,feeling
screen,html.Screen,2_1_0_1_15,2022-04-28T09:48:56.482Z,,,,,,,,,,,,,,,,,53,,,,,,,,,,,,,,452,,response,,,,99,,,,,,,Space,keypress(Space),,,,,,,,---- -- ----- -- ------ - ------- --- ----------<br>------------- ------ ------ ---- ---- ------- close -- ----<br>-------- ------- -- ---------- --- - --- ----- ----- ----<br>---- --- --- ----- --- ---- ---- ------- ----- ---- -------<br>--- --- -- ----- -- --- ---- -- --- ---- -- ------ ------<br>--- ----- -- ----,156287,156296,155844,155840,155861,156318,,15,close
screen,html.Screen,2_1_0_1_16,2022-04-28T09:48:56.849Z,,,,,,,,,,,,,,,,,53,,,,,,,,,,,,,,364.0000000000291,,response,,,,99,,,,,,,Space,keypress(Space),,,,,,,,---- -- ----- -- ------ - ------- --- ----------<br>------------- ------ ------ ---- ---- ------- ----- to ----<br>-------- ------- -- ---------- --- - --- ----- ----- ----<br>---- --- --- ----- --- ---- ---- ------- ----- ---- -------<br>--- --- -- ----- -- --- ---- -- --- ---- -- ------ ------<br>--- ----- -- ----,156654,156664.00000000003,156300,156287,156318,156671,,16,to
screen,html.Screen,2_1_0_1_17,2022-04-28T09:48:57.217Z,,,,,,,,,,,,,,,,,53,,,,,,,,,,,,,,376,,response,,,,99,,,,,,,Space,keypress(Space),,,,,,,,---- -- ----- -- ------ - ------- --- ----------<br>------------- ------ ------ ---- ---- ------- ----- -- your<br>-------- ------- -- ---------- --- - --- ----- ----- ----<br>---- --- --- ----- --- ---- ---- ------- ----- ---- -------<br>--- --- -- ----- -- --- ---- -- --- ---- -- ------ ------<br>--- ----- -- ----,157021.00000000003,157031,156655,156654,156671,157046,,17,your
screen,html.Screen,2_1_0_1_18,2022-04-28T09:48:57.605Z,,,,,,,,,,,,,,,,,53,,,,,,,,,,,,,,392.0000000000291,,response,,,,99,,,,,,,Space,keypress(Space),,,,,,,,---- -- ----- -- ------ - ------- --- ----------<br>------------- ------ ------ ---- ---- ------- ----- -- ----<br>romantic ------- -- ---------- --- - --- ----- ----- ----<br>---- --- --- ----- --- ---- ---- ------- ----- ---- -------<br>--- --- -- ----- -- --- ---- -- --- ---- -- ------ ------<br>--- ----- -- ----,157410,157420.00000000003,157028,157022,157046,157433,,18,romantic
screen,html.Screen,2_1_0_1_19,2022-04-28T09:48:57.978Z,,,,,,,,,,,,,,,,,53,,,,,,,,,,,,,,375,,response,,,,99,,,,,,,Space,keypress(Space),,,,,,,,---- -- ----- -- ------ - ------- --- ----------<br>------------- ------ ------ ---- ---- ------- ----- -- ----<br>-------- partner -- ---------- --- - --- ----- ----- ----<br>---- --- --- ----- --- ---- ---- ------- ----- ---- -------<br>--- --- -- ----- -- --- ---- -- --- ---- -- ------ ------<br>--- ----- -- ----,157783.00000000003,157792,157417,157410,157433,157804,,19,partner
screen,html.Screen,2_1_0_1_20,2022-04-28T09:48:58.330Z,,,,,,,,,,,,,,,,,53,,,,,,,,,,,,,,356,,response,,,,99,,,,,,,Space,keypress(Space),,,,,,,,---- -- ----- -- ------ - ------- --- ----------<br>------------- ------ ------ ---- ---- ------- ----- -- ----<br>-------- ------- is ---------- --- - --- ----- ----- ----<br>---- --- --- ----- --- ---- ---- ------- ----- ---- -------<br>--- --- -- ----- -- --- ---- -- --- ---- -- ------ ------<br>--- ----- -- ----,158135,158144,157788,157783.00000000003,157804,158159,,20,is
screen,html.Screen,2_1_0_1_21,2022-04-28T09:48:58.663Z,,,,,,,,,,,,,,,,,53,,,,,,,,,,,,,,335,,response,,,,99,,,,,,,Space,keypress(Space),,,,,,,,---- -- ----- -- ------ - ------- --- ----------<br>------------- ------ ------ ---- ---- ------- ----- -- ----<br>-------- ------- -- paramount. --- - --- ----- ----- ----<br>---- --- --- ----- --- ---- ---- ------- ----- ---- -------<br>--- --- -- ----- -- --- ---- -- --- ---- -- ------ ------<br>--- ----- -- ----,158468,158478,158143,158135,158159,158496,,21,paramount.
screen,html.Screen,2_1_0_1_22,2022-04-28T09:48:59.033Z,,,,,,,,,,,,,,,,,53,,,,,,,,,,,,,,368,,response,,,,99,,,,,,,Space,keypress(Space),,,,,,,,---- -- ----- -- ------ - ------- --- ----------<br>------------- ------ ------ ---- ---- ------- ----- -- ----<br>-------- ------- -- ---------- But - --- ----- ----- ----<br>---- --- --- ----- --- ---- ---- ------- ----- ---- -------<br>--- --- -- ----- -- --- ---- -- --- ---- -- ------ ------<br>--- ----- -- ----,158838,158848,158480,158468,158496,158868,,22,But
screen,html.Screen,2_1_0_1_23,2022-04-28T09:48:59.445Z,,,,,,,,,,,,,,,,,53,,,,,,,,,,,,,,409,,response,,,,99,,,,,,,Space,keypress(Space),,,,,,,,---- -- ----- -- ------ - ------- --- ----------<br>------------- ------ ------ ---- ---- ------- ----- -- ----<br>-------- ------- -- ---------- --- a --- ----- ----- ----<br>---- --- --- ----- --- ---- ---- ------- ----- ---- -------<br>--- --- -- ----- -- --- ---- -- --- ---- -- ------ ------<br>--- ----- -- ----,159250,159260,158851,158839,158868,159288,,23,a
screen,html.Screen,2_1_0_1_24,2022-04-28T09:48:59.808Z,,,,,,,,,,,,,,,,,53,,,,,,,,,,,,,,352,,response,,,,99,,,,,,,Space,keypress(Space),,,,,,,,---- -- ----- -- ------ - ------- --- ----------<br>------------- ------ ------ ---- ---- ------- ----- -- ----<br>-------- ------- -- ---------- --- - new ----- ----- ----<br>---- --- --- ----- --- ---- ---- ------- ----- ---- -------<br>--- --- -- ----- -- --- ---- -- --- ---- -- ------ ------<br>--- ----- -- ----,159613,159623,159271,159251,159288,159641,,24,new
screen,html.Screen,2_1_0_1_25,2022-04-28T09:49:00.135Z,,,,,,,,,,,,,,,,,53,,,,,,,,,,,,,,319.0000000000291,,response,,,,99,,,,,,,Space,keypress(Space),,,,,,,,---- -- ----- -- ------ - ------- --- ----------<br>------------- ------ ------ ---- ---- ------- ----- -- ----<br>-------- ------- -- ---------- --- - --- study ----- ----<br>---- --- --- ----- --- ---- ---- ------- ----- ---- -------<br>--- --- -- ----- -- --- ---- -- --- ---- -- ------ ------<br>--- ----- -- ----,159940,159944.00000000003,159625,159613,159641,159966,,25,study
screen,html.Screen,2_1_0_1_26,2022-04-28T09:49:00.465Z,,,,,,,,,,,,,,,,,53,,,,,,,,,,,,,,332,,response,,,,99,,,,,,,Space,keypress(Space),,,,,,,,---- -- ----- -- ------ - ------- --- ----------<br>------------- ------ ------ ---- ---- ------- ----- -- ----<br>-------- ------- -- ---------- --- - --- ----- finds ----<br>---- --- --- ----- --- ---- ---- ------- ----- ---- -------<br>--- --- -- ----- -- --- ---- -- --- ---- -- ------ ------<br>--- ----- -- ----,160270,160280,159948,159940,159966,160287,,26,finds
screen,html.Screen,2_1_0_1_27,2022-04-28T09:49:00.795Z,,,,,,,,,,,,,,,,,53,,,,,,,,,,,,,,338,,response,,,,99,,,,,,,Space,keypress(Space),,,,,,,,---- -- ----- -- ------ - ------- --- ----------<br>------------- ------ ------ ---- ---- ------- ----- -- ----<br>-------- ------- -- ---------- --- - --- ----- ----- that<br>---- --- --- ----- --- ---- ---- ------- ----- ---- -------<br>--- --- -- ----- -- --- ---- -- --- ---- -- ------ ------<br>--- ----- -- ----,160600,160609,160271,160270,160287,160626,,27,that
screen,html.Screen,2_1_0_1_28,2022-04-28T09:49:01.193Z,,,,,,,,,,,,,,,,,53,,,,,,,,,,,,,,399,,response,,,,99,,,,,,,Space,keypress(Space),,,,,,,,---- -- ----- -- ------ - ------- --- ----------<br>------------- ------ ------ ---- ---- ------- ----- -- ----<br>-------- ------- -- ---------- --- - --- ----- ----- ----<br>it's --- --- ----- --- ---- ---- ------- ----- ---- -------<br>--- --- -- ----- -- --- ---- -- --- ---- -- ------ ------<br>--- ----- -- ----,160998,161008,160609,160600,160626,161028,,28,it's
screen,html.Screen,2_1_0_1_29,2022-04-28T09:49:01.520Z,,,,,,,,,,,,,,,,,53,,,,,,,,,,,,,,322,,response,,,,99,,,,,,,Space,keypress(Space),,,,,,,,---- -- ----- -- ------ - ------- --- ----------<br>------------- ------ ------ ---- ---- ------- ----- -- ----<br>-------- ------- -- ---------- --- - --- ----- ----- ----<br>---- not --- ----- --- ---- ---- ------- ----- ---- -------<br>--- --- -- ----- -- --- ---- -- --- ---- -- ------ ------<br>--- ----- -- ----,161325.00000000003,161334,161012,160998,161028,161350,,29,not
screen,html.Screen,2_1_0_1_30,2022-04-28T09:49:01.957Z,,,,,,,,,,,,,,,,,53,,,,,,,,,,,,,,437.0000000000291,,response,,,,99,,,,,,,Space,keypress(Space),,,,,,,,---- -- ----- -- ------ - ------- --- ----------<br>------------- ------ ------ ---- ---- ------- ----- -- ----<br>-------- ------- -- ---------- --- - --- ----- ----- ----<br>---- --- how ----- --- ---- ---- ------- ----- ---- -------<br>--- --- -- ----- -- --- ---- -- --- ---- -- ------ ------<br>--- ----- -- ----,161762,161771.00000000003,161334,161325.00000000003,161350,161791,,30,how
screen,html.Screen,2_1_0_1_31,2022-04-28T09:49:02.323Z,,,,,,,,,,,,,,,,,53,,,,,,,,,,,,,,363,,response,,,,99,,,,,,,Space,keypress(Space),,,,,,,,---- -- ----- -- ------ - ------- --- ----------<br>------------- ------ ------ ---- ---- ------- ----- -- ----<br>-------- ------- -- ---------- --- - --- ----- ----- ----<br>---- --- --- close --- ---- ---- ------- ----- ---- -------<br>--- --- -- ----- -- --- ---- -- --- ---- -- ------ ------<br>--- ----- -- ----,162128,162138,161775,161762,161791,162145,,31,close
screen,html.Screen,2_1_0_1_32,2022-04-28T09:49:02.719Z,,,,,,,,,,,,,,,,,53,,,,,,,,,,,,,,405,,response,,,,99,,,,,,,Space,keypress(Space),,,,,,,,---- -- ----- -- ------ - ------- --- ----------<br>------------- ------ ------ ---- ---- ------- ----- -- ----<br>-------- ------- -- ---------- --- - --- ----- ----- ----<br>---- --- --- ----- you ---- ---- ------- ----- ---- -------<br>--- --- -- ----- -- --- ---- -- --- ---- -- ------ ------<br>--- ----- -- ----,162524,162534,162129,162128,162145,162567,,32,you
screen,html.Screen,2_1_0_1_33,2022-04-28T09:49:03.079Z,,,,,,,,,,,,,,,,,53,,,,,,,,,,,,,,343,,response,,,,99,,,,,,,Space,keypress(Space),,,,,,,,---- -- ----- -- ------ - ------- --- ----------<br>------------- ------ ------ ---- ---- ------- ----- -- ----<br>-------- ------- -- ---------- --- - --- ----- ----- ----<br>---- --- --- ----- --- feel ---- ------- ----- ---- -------<br>--- --- -- ----- -- --- ---- -- --- ---- -- ------ ------<br>--- ----- -- ----,162884,162894,162551,162524,162567,162905,,33,feel
screen,html.Screen,2_1_0_1_34,2022-04-28T09:49:03.462Z,,,,,,,,,,,,,,,,,53,,,,,,,,,,,,,,389.0000000000291,,response,,,,99,,,,,,,Space,keypress(Space),,,,,,,,---- -- ----- -- ------ - ------- --- ----------<br>------------- ------ ------ ---- ---- ------- ----- -- ----<br>-------- ------- -- ---------- --- - --- ----- ----- ----<br>---- --- --- ----- --- ---- that ------- ----- ---- -------<br>--- --- -- ----- -- --- ---- -- --- ---- -- ------ ------<br>--- ----- -- ----,163267,163277.00000000003,162888,162885,162905,163293,,34,that
screen,html.Screen,2_1_0_1_35,2022-04-28T09:49:03.875Z,,,,,,,,,,,,,,,,,53,,,,,,,,,,,,,,414,,response,,,,99,,,,,,,Space,keypress(Space),,,,,,,,---- -- ----- -- ------ - ------- --- ----------<br>------------- ------ ------ ---- ---- ------- ----- -- ----<br>-------- ------- -- ---------- --- - --- ----- ----- ----<br>---- --- --- ----- --- ---- ---- matters ----- ---- -------<br>--- --- -- ----- -- --- ---- -- --- ---- -- ------ ------<br>--- ----- -- ----,163680,163690,163276,163267,163293,163713,,35,matters
screen,html.Screen,2_1_0_1_36,2022-04-28T09:49:04.243Z,,,,,,,,,,,,,,,,,53,,,,,,,,,,,,,,360,,response,,,,99,,,,,,,Space,keypress(Space),,,,,,,,"---- -- ----- -- ------ - ------- --- ----------<br>------------- ------ ------ ---- ---- ------- ----- -- ----<br>-------- ------- -- ---------- --- - --- ----- ----- ----<br>---- --- --- ----- --- ---- ---- ------- most, ---- -------<br>--- --- -- ----- -- --- ---- -- --- ---- -- ------ ------<br>--- ----- -- ----",164048,164058,163698,163680,163713,164068,,36,"most,"
screen,html.Screen,2_1_0_1_37,2022-04-28T09:49:04.626Z,,,,,,,,,,,,,,,,,53,,,,,,,,,,,,,,389,,response,,,,99,,,,,,,Space,keypress(Space),,,,,,,,---- -- ----- -- ------ - ------- --- ----------<br>------------- ------ ------ ---- ---- ------- ----- -- ----<br>-------- ------- -- ---------- --- - --- ----- ----- ----<br>---- --- --- ----- --- ---- ---- ------- ----- it's -------<br>--- --- -- ----- -- --- ---- -- --- ---- -- ------ ------<br>--- ----- -- ----,164431,164441,164052,164048,164068,164457,,37,it's
screen,html.Screen,2_1_0_1_38,2022-04-28T09:49:05.010Z,,,,,,,,,,,,,,,,,53,,,,,,,,,,,,,,386,,response,,,,99,,,,,,,Space,keypress(Space),,,,,,,,---- -- ----- -- ------ - ------- --- ----------<br>------------- ------ ------ ---- ---- ------- ----- -- ----<br>-------- ------- -- ---------- --- - --- ----- ----- ----<br>---- --- --- ----- --- ---- ---- ------- ----- ---- whether<br>--- --- -- ----- -- --- ---- -- --- ---- -- ------ ------<br>--- ----- -- ----,164815,164826,164440,164431,164457,164844,,38,whether
screen,html.Screen,2_1_0_1_39,2022-04-28T09:49:05.400Z,,,,,,,,,,,,,,,,,53,,,,,,,,,,,,,,387,,response,,,,99,,,,,,,Space,keypress(Space),,,,,,,,---- -- ----- -- ------ - ------- --- ----------<br>------------- ------ ------ ---- ---- ------- ----- -- ----<br>-------- ------- -- ---------- --- - --- ----- ----- ----<br>---- --- --- ----- --- ---- ---- ------- ----- ---- -------<br>you --- -- ----- -- --- ---- -- --- ---- -- ------ ------<br>--- ----- -- ----,165205,165215,164828,164816,164844,165232,,39,you
screen,html.Screen,2_1_0_1_40,2022-04-28T09:49:05.775Z,,,,,,,,,,,,,,,,,53,,,,,,,,,,,,,,375,,response,,,,99,,,,,,,Space,keypress(Space),,,,,,,,---- -- ----- -- ------ - ------- --- ----------<br>------------- ------ ------ ---- ---- ------- ----- -- ----<br>-------- ------- -- ---------- --- - --- ----- ----- ----<br>---- --- --- ----- --- ---- ---- ------- ----- ---- -------<br>--- are -- ----- -- --- ---- -- --- ---- -- ------ ------<br>--- ----- -- ----,165580,165590,165215,165205,165232,165603,,40,are
screen,html.Screen,2_1_0_1_41,2022-04-28T09:49:06.183Z,,,,,,,,,,,,,,,,,53,,,,,,,,,,,,,,413,,response,,,,99,,,,,,,Space,keypress(Space),,,,,,,,---- -- ----- -- ------ - ------- --- ----------<br>------------- ------ ------ ---- ---- ------- ----- -- ----<br>-------- ------- -- ---------- --- - --- ----- ----- ----<br>---- --- --- ----- --- ---- ---- ------- ----- ---- -------<br>--- --- as ----- -- --- ---- -- --- ---- -- ------ ------<br>--- ----- -- ----,165988,165999,165586,165580,165603,166023,,41,as
screen,html.Screen,2_1_0_1_42,2022-04-28T09:49:06.541Z,,,,,,,,,,,,,,,,,53,,,,,,,,,,,,,,350,,response,,,,99,,,,,,,Space,keypress(Space),,,,,,,,---- -- ----- -- ------ - ------- --- ----------<br>------------- ------ ------ ---- ---- ------- ----- -- ----<br>-------- ------- -- ---------- --- - --- ----- ----- ----<br>---- --- --- ----- --- ---- ---- ------- ----- ---- -------<br>--- --- -- close -- --- ---- -- --- ---- -- ------ ------<br>--- ----- -- ----,166347,166357,166007,165988,166023,166379,,42,close
screen,html.Screen,2_1_0_1_43,2022-04-28T09:49:06.841Z,,,,,,,,,,,,,,,,,53,,,,,,,,,,,,,,295,,response,,,,99,,,,,,,Space,keypress(Space),,,,,,,,---- -- ----- -- ------ - ------- --- ----------<br>------------- ------ ------ ---- ---- ------- ----- -- ----<br>-------- ------- -- ---------- --- - --- ----- ----- ----<br>---- --- --- ----- --- ---- ---- ------- ----- ---- -------<br>--- --- -- ----- as --- ---- -- --- ---- -- ------ ------<br>--- ----- -- ----,166646.00000000003,166656,166361,166347,166379,166667,,43,as
screen,html.Screen,2_1_0_1_44,2022-04-28T09:49:07.178Z,,,,,,,,,,,,,,,,,53,,,,,,,,,,,,,,345,,response,,,,99,,,,,,,Space,keypress(Space),,,,,,,,---- -- ----- -- ------ - ------- --- ----------<br>------------- ------ ------ ---- ---- ------- ----- -- ----<br>-------- ------- -- ---------- --- - --- ----- ----- ----<br>---- --- --- ----- --- ---- ---- ------- ----- ---- -------<br>--- --- -- ----- -- you ---- -- --- ---- -- ------ ------<br>--- ----- -- ----,166984,166994,166649,166646.00000000003,166667,167004,,44,you
screen,html.Screen,2_1_0_1_45,2022-04-28T09:49:07.485Z,,,,,,,,,,,,,,,,,53,,,,,,,,,,,,,,312,,response,,,,99,,,,,,,Space,keypress(Space),,,,,,,,---- -- ----- -- ------ - ------- --- ----------<br>------------- ------ ------ ---- ---- ------- ----- -- ----<br>-------- ------- -- ---------- --- - --- ----- ----- ----<br>---- --- --- ----- --- ---- ---- ------- ----- ---- -------<br>--- --- -- ----- -- --- want -- --- ---- -- ------ ------<br>--- ----- -- ----,167290,167300,166988,166984,167004,167308,,45,want
screen,html.Screen,2_1_0_1_46,2022-04-28T09:49:07.837Z,,,,,,,,,,,,,,,,,53,,,,,,,,,,,,,,360.0000000000291,,response,,,,99,,,,,,,Space,keypress(Space),,,,,,,,---- -- ----- -- ------ - ------- --- ----------<br>------------- ------ ------ ---- ---- ------- ----- -- ----<br>-------- ------- -- ---------- --- - --- ----- ----- ----<br>---- --- --- ----- --- ---- ---- ------- ----- ---- -------<br>--- --- -- ----- -- --- ---- to --- ---- -- ------ ------<br>--- ----- -- ----,167642,167652.00000000003,167292,167290,167308,167663,,46,to
screen,html.Screen,2_1_0_1_47,2022-04-28T09:49:08.212Z,,,,,,,,,,,,,,,,,53,,,,,,,,,,,,,,380.0000000000291,,response,,,,99,,,,,,,Space,keypress(Space),,,,,,,,"---- -- ----- -- ------ - ------- --- ----------<br>------------- ------ ------ ---- ---- ------- ----- -- ----<br>-------- ------- -- ---------- --- - --- ----- ----- ----<br>---- --- --- ----- --- ---- ---- ------- ----- ---- -------<br>--- --- -- ----- -- --- ---- -- be, ---- -- ------ ------<br>--- ----- -- ----",168017,168027.00000000003,167647,167642,167663,168034,,47,"be,"
screen,html.Screen,2_1_0_1_48,2022-04-28T09:49:08.570Z,,,,,,,,,,,,,,,,,53,,,,,,,,,,,,,,367,,response,,,,99,,,,,,,Space,keypress(Space),,,,,,,,---- -- ----- -- ------ - ------- --- ----------<br>------------- ------ ------ ---- ---- ------- ----- -- ----<br>-------- ------- -- ---------- --- - --- ----- ----- ----<br>---- --- --- ----- --- ---- ---- ------- ----- ---- -------<br>--- --- -- ----- -- --- ---- -- --- even -- ------ ------<br>--- ----- -- ----,168375,168385,168018,168017,168034,168406,,48,even
screen,html.Screen,2_1_0_1_49,2022-04-28T09:49:08.967Z,,,,,,,,,,,,,,,,,53,,,,,,,,,,,,,,395.0000000000291,,response,,,,99,,,,,,,Space,keypress(Space),,,,,,,,---- -- ----- -- ------ - ------- --- ----------<br>------------- ------ ------ ---- ---- ------- ----- -- ----<br>-------- ------- -- ---------- --- - --- ----- ----- ----<br>---- --- --- ----- --- ---- ---- ------- ----- ---- -------<br>--- --- -- ----- -- --- ---- -- --- ---- if ------ ------<br>--- ----- -- ----,168772,168783.00000000003,168388,168375,168406,168794,,49,if
screen,html.Screen,2_1_0_1_50,2022-04-28T09:49:09.355Z,,,,,,,,,,,,,,,,,53,,,,,,,,,,,,,,393,,response,,,,99,,,,,,,Space,keypress(Space),,,,,,,,---- -- ----- -- ------ - ------- --- ----------<br>------------- ------ ------ ---- ---- ------- ----- -- ----<br>-------- ------- -- ---------- --- - --- ----- ----- ----<br>---- --- --- ----- --- ---- ---- ------- ----- ---- -------<br>--- --- -- ----- -- --- ---- -- --- ---- -- that's ------<br>--- ----- -- ----,169161,169171,168778,168773,168794,169184,,50,that's
screen,html.Screen,2_1_0_1_51,2022-04-28T09:49:09.717Z,,,,,,,,,,,,,,,,,53,,,,,,,,,,,,,,366.0000000000291,,response,,,,99,,,,,,,Space,keypress(Space),,,,,,,,---- -- ----- -- ------ - ------- --- ----------<br>------------- ------ ------ ---- ---- ------- ----- -- ----<br>-------- ------- -- ---------- --- - --- ----- ----- ----<br>---- --- --- ----- --- ---- ---- ------- ----- ---- -------<br>--- --- -- ----- -- --- ---- -- --- ---- -- ------ really<br>--- ----- -- ----,169522,169533.00000000003,169167,169161,169184,169540,,51,really
screen,html.Screen,2_1_0_1_52,2022-04-28T09:49:10.066Z,,,,,,,,,,,,,,,,,53,,,,,,,,,,,,,,359,,response,,,,99,,,,,,,Space,keypress(Space),,,,,,,,---- -- ----- -- ------ - ------- --- ----------<br>------------- ------ ------ ---- ---- ------- ----- -- ----<br>-------- ------- -- ---------- --- - --- ----- ----- ----<br>---- --- --- ----- --- ---- ---- ------- ----- ---- -------<br>--- --- -- ----- -- --- ---- -- --- ---- -- ------ ------<br>not ----- -- ----,169871,169882,169523,169522,169540,169898,,52,not
screen,html.Screen,2_1_0_1_53,2022-04-28T09:49:10.413Z,,,,,,,,,,,,,,,,,53,,,,,,,,,,,,,,348,,response,,,,99,,,,,,,Space,keypress(Space),,,,,,,,---- -- ----- -- ------ - ------- --- ----------<br>------------- ------ ------ ---- ---- ------- ----- -- ----<br>-------- ------- -- ---------- --- - --- ----- ----- ----<br>---- --- --- ----- --- ---- ---- ------- ----- ---- -------<br>--- --- -- ----- -- --- ---- -- --- ---- -- ------ ------<br>--- close -- ----,170218.00000000003,170229,169881,169871,169898,170252,,53,close
screen,html.Screen,2_1_0_1_54,2022-04-28T09:49:10.799Z,,,,,,,,,,,,,,,,,53,,,,,,,,,,,,,,380,,response,,,,99,,,,,,,Space,keypress(Space),,,,,,,,---- -- ----- -- ------ - ------- --- ----------<br>------------- ------ ------ ---- ---- ------- ----- -- ----<br>-------- ------- -- ---------- --- - --- ----- ----- ----<br>---- --- --- ----- --- ---- ---- ------- ----- ---- -------<br>--- --- -- ----- -- --- ---- -- --- ---- -- ------ ------<br>--- ----- at ----,170604,170615,170235,170218.00000000003,170252,170623,,54,at
screen,html.Screen,2_1_0_1_55,2022-04-28T09:49:11.173Z,,,,,,,,,,,,,,,,,53,,,,,,,,,,,,,,382,,response,,,,99,,,,,,,Space,keypress(Space),,,,,,,,---- -- ----- -- ------ - ------- --- ----------<br>------------- ------ ------ ---- ---- ------- ----- -- ----<br>-------- ------- -- ---------- --- - --- ----- ----- ----<br>---- --- --- ----- --- ---- ---- ------- ----- ---- -------<br>--- --- -- ----- -- --- ---- -- --- ---- -- ------ ------<br>--- ----- -- all.,170978,170989,170607,170605,170623,170996,,55,all.
Item 99,flow.Loop,2_1_0_1,2022-04-28T09:49:11.173Z,,,,,,,,,,,,,,,,,,,,,,,,,,,,,,,24580,,completion,,,,,D,,,,,,,,,,,silence,,,,,170979,170989,146376,146378,146409,170996,,,
Question 1,html.Screen,2_1_0_2,2022-04-28T09:49:16.108Z,,,,,,,,,,,,,,,,,,,,,,,,,,,,true,FALSE,,4944.000000000029,,response,,,,99,D,,,,,,FALSE,click #choice-2,,,,silence,,,,,175914.00000000003,175926.00000000003,170982,170979,170996,175945,,,
Question 2,html.Screen,2_1_0_3,2022-04-28T09:49:19.865Z,,,,,,,,,,,,,,,,,,,,,,,,,,,,true,TRUE,,3757.000000000029,,response,,,,99,D,,,,,,TRUE,click #choice-1,,,,silence,,,,,179671,179682.00000000003,175925,175914.00000000003,175945,179708,,,
Item 99,flow.Sequence,2_1_0,2022-04-28T09:49:19.866Z,,,,,,,,,,,,,,,,,,,,,,,,,,,,,,,43296.00000000003,,completion,,,,,,,,,,,,,,,,,,,,,179672,179682.00000000003,136367,136361,136386,179708,,,
Holding screen,html.Screen,2_1_1_0,2022-04-28T09:49:29.894Z,,,,,,,,,,,,,,,,,,,,,,,,,,,,,,,10008,,timeout,,,,,,,,,,,,,,,,,,,,,189700.00000000003,189700,179683,179672,179708,189716,,,
screen,html.Screen,2_1_1_1_0,2022-04-28T09:49:30.949Z,,,,,,,,,,,,,,,,,54,,,,,,,,,,,,,,1066,,response,,,,100,,,,,,,Space,keypress(Space),,,,,,,,At --- ---- --- ------ ----- ------- ---- -- --- ------- --<br>------- ---------- ------ -- ----- -- ----- -- ---- ------<br>--- ----- --- --- ------ -------- ----- --- ------ ----- --<br>----- ----- ---------- --- --- ------ ------ ---- -- ------<br>------- --- ------ ----- --- ---- ------- -- ---- --- --<br>------- ------,190756,190766,189700,189701,189716,190793,,0,At
screen,html.Screen,2_1_1_1_1,2022-04-28T09:49:31.521Z,,,,,,,,,,,,,,,,,54,,,,,,,,,,,,,,562,,response,,,,100,,,,,,,Space,keypress(Space),,,,,,,,-- the ---- --- ------ ----- ------- ---- -- --- ------- --<br>------- ---------- ------ -- ----- -- ----- -- ---- ------<br>--- ----- --- --- ------ -------- ----- --- ------ ----- --<br>----- ----- ---------- --- --- ------ ------ ---- -- ------<br>------- --- ------ ----- --- ---- ------- -- ---- --- --<br>------- ------,191328,191340,190778,190756,190793,191371,,1,the
screen,html.Screen,2_1_1_1_2,2022-04-28T09:49:31.857Z,,,,,,,,,,,,,,,,,54,,,,,,,,,,,,,,321,,response,,,,100,,,,,,,Space,keypress(Space),,,,,,,,-- --- time --- ------ ----- ------- ---- -- --- ------- --<br>------- ---------- ------ -- ----- -- ----- -- ---- ------<br>--- ----- --- --- ------ -------- ----- --- ------ ----- --<br>----- ----- ---------- --- --- ------ ------ ---- -- ------<br>------- --- ------ ----- --- ---- ------- -- ---- --- --<br>------- ------,191663,191675,191354,191328,191371,191692,,2,time
screen,html.Screen,2_1_1_1_3,2022-04-28T09:49:32.188Z,,,,,,,,,,,,,,,,,54,,,,,,,,,,,,,,331,,response,,,,100,,,,,,,Space,keypress(Space),,,,,,,,-- --- ---- the ------ ----- ------- ---- -- --- ------- --<br>------- ---------- ------ -- ----- -- ----- -- ---- ------<br>--- ----- --- --- ------ -------- ----- --- ------ ----- --<br>----- ----- ---------- --- --- ------ ------ ---- -- ------<br>------- --- ------ ----- --- ---- ------- -- ---- --- --<br>------- ------,191995,192006,191675,191664.00000000003,191692,192014,,3,the
screen,html.Screen,2_1_1_1_4,2022-04-28T09:49:32.528Z,,,,,,,,,,,,,,,,,54,,,,,,,,,,,,,,350,,response,,,,100,,,,,,,Space,keypress(Space),,,,,,,,-- --- ---- --- French ----- ------- ---- -- --- ------- --<br>------- ---------- ------ -- ----- -- ----- -- ---- ------<br>--- ----- --- --- ------ -------- ----- --- ------ ----- --<br>----- ----- ---------- --- --- ------ ------ ---- -- ------<br>------- --- ------ ----- --- ---- ------- -- ---- --- --<br>------- ------,192335,192347,191997,191995,192014,192352,,4,French
screen,html.Screen,2_1_1_1_5,2022-04-28T09:49:32.868Z,,,,,,,,,,,,,,,,,54,,,,,,,,,,,,,,350,,response,,,,100,,,,,,,Space,keypress(Space),,,,,,,,-- --- ---- --- ------ crown ------- ---- -- --- ------- --<br>------- ---------- ------ -- ----- -- ----- -- ---- ------<br>--- ----- --- --- ------ -------- ----- --- ------ ----- --<br>----- ----- ---------- --- --- ------ ------ ---- -- ------<br>------- --- ------ ----- --- ---- ------- -- ---- --- --<br>------- ------,192675,192687,192337,192335,192352,192708,,5,crown
screen,html.Screen,2_1_1_1_6,2022-04-28T09:49:33.226Z,,,,,,,,,,,,,,,,,54,,,,,,,,,,,,,,355.0000000000291,,response,,,,100,,,,,,,Space,keypress(Space),,,,,,,,-- --- ---- --- ------ ----- secured ---- -- --- ------- --<br>------- ---------- ------ -- ----- -- ----- -- ---- ------<br>--- ----- --- --- ------ -------- ----- --- ------ ----- --<br>----- ----- ---------- --- --- ------ ------ ---- -- ------<br>------- --- ------ ----- --- ---- ------- -- ---- --- --<br>------- ------,193033.00000000003,193045.00000000003,192690,192675,192708,193062,,6,secured
screen,html.Screen,2_1_1_1_7,2022-04-28T09:49:33.606Z,,,,,,,,,,,,,,,,,54,,,,,,,,,,,,,,378,,response,,,,100,,,,,,,Space,keypress(Space),,,,,,,,-- --- ---- --- ------ ----- ------- much -- --- ------- --<br>------- ---------- ------ -- ----- -- ----- -- ---- ------<br>--- ----- --- --- ------ -------- ----- --- ------ ----- --<br>----- ----- ---------- --- --- ------ ------ ---- -- ------<br>------- --- ------ ----- --- ---- ------- -- ---- --- --<br>------- ------,193413,193424,193046,193033.00000000003,193062,193436,,7,much
screen,html.Screen,2_1_1_1_8,2022-04-28T09:49:33.902Z,,,,,,,,,,,,,,,,,54,,,,,,,,,,,,,,301,,response,,,,100,,,,,,,Space,keypress(Space),,,,,,,,-- --- ---- --- ------ ----- ------- ---- of --- ------- --<br>------- ---------- ------ -- ----- -- ----- -- ---- ------<br>--- ----- --- --- ------ -------- ----- --- ------ ----- --<br>----- ----- ---------- --- --- ------ ------ ---- -- ------<br>------- --- ------ ----- --- ---- ------- -- ---- --- --<br>------- ------,193708,193720,193419,193413,193436,193740,,8,of
screen,html.Screen,2_1_1_1_9,2022-04-28T09:49:34.208Z,,,,,,,,,,,,,,,,,54,,,,,,,,,,,,,,304.0000000000291,,response,,,,100,,,,,,,Space,keypress(Space),,,,,,,,-- --- ---- --- ------ ----- ------- ---- -- its ------- --<br>------- ---------- ------ -- ----- -- ----- -- ---- ------<br>--- ----- --- --- ------ -------- ----- --- ------ ----- --<br>----- ----- ---------- --- --- ------ ------ ---- -- ------<br>------- --- ------ ----- --- ---- ------- -- ---- --- --<br>------- ------,194015.00000000003,194027.00000000003,193723,193709,193740,194044,,9,its
screen,html.Screen,2_1_1_1_10,2022-04-28T09:49:34.483Z,,,,,,,,,,,,,,,,,54,,,,,,,,,,,,,,275,,response,,,,100,,,,,,,Space,keypress(Space),,,,,,,,-- --- ---- --- ------ ----- ------- ---- -- --- revenue --<br>------- ---------- ------ -- ----- -- ----- -- ---- ------<br>--- ----- --- --- ------ -------- ----- --- ------ ----- --<br>----- ----- ---------- --- --- ------ ------ ---- -- ------<br>------- --- ------ ----- --- ---- ------- -- ---- --- --<br>------- ------,194290,194302,194027,194015.00000000003,194044,194315,,10,revenue
screen,html.Screen,2_1_1_1_11,2022-04-28T09:49:34.808Z,,,,,,,,,,,,,,,,,54,,,,,,,,,,,,,,329,,response,,,,100,,,,,,,Space,keypress(Space),,,,,,,,-- --- ---- --- ------ ----- ------- ---- -- --- ------- by<br>------- ---------- ------ -- ----- -- ----- -- ---- ------<br>--- ----- --- --- ------ -------- ----- --- ------ ----- --<br>----- ----- ---------- --- --- ------ ------ ---- -- ------<br>------- --- ------ ----- --- ---- ------- -- ---- --- --<br>------- ------,194615,194627,194298,194290,194315,194636,,11,by
screen,html.Screen,2_1_1_1_12,2022-04-28T09:49:35.109Z,,,,,,,,,,,,,,,,,54,,,,,,,,,,,,,,309,,response,,,,100,,,,,,,Space,keypress(Space),,,,,,,,-- --- ---- --- ------ ----- ------- ---- -- --- ------- --<br>issuing ---------- ------ -- ----- -- ----- -- ---- ------<br>--- ----- --- --- ------ -------- ----- --- ------ ----- --<br>----- ----- ---------- --- --- ------ ------ ---- -- ------<br>------- --- ------ ----- --- ---- ------- -- ---- --- --<br>------- ------,194916,194928,194619,194616,194636,194940,,12,issuing
screen,html.Screen,2_1_1_1_13,2022-04-28T09:49:35.444Z,,,,,,,,,,,,,,,,,54,,,,,,,,,,,,,,339,,response,,,,100,,,,,,,Space,keypress(Space),,,,,,,,-- --- ---- --- ------ ----- ------- ---- -- --- ------- --<br>------- government ------ -- ----- -- ----- -- ---- ------<br>--- ----- --- --- ------ -------- ----- --- ------ ----- --<br>----- ----- ---------- --- --- ------ ------ ---- -- ------<br>------- --- ------ ----- --- ---- ------- -- ---- --- --<br>------- ------,195251,195263,194924,194916,194940,195278,,13,government
screen,html.Screen,2_1_1_1_14,2022-04-28T09:49:35.797Z,,,,,,,,,,,,,,,,,54,,,,,,,,,,,,,,353,,response,,,,100,,,,,,,Space,keypress(Space),,,,,,,,-- --- ---- --- ------ ----- ------- ---- -- --- ------- --<br>------- ---------- bonds. -- ----- -- ----- -- ---- ------<br>--- ----- --- --- ------ -------- ----- --- ------ ----- --<br>----- ----- ---------- --- --- ------ ------ ---- -- ------<br>------- --- ------ ----- --- ---- ------- -- ---- --- --<br>------- ------,195603,195615,195262,195251,195278,195622,,14,bonds.
screen,html.Screen,2_1_1_1_15,2022-04-28T09:49:36.103Z,,,,,,,,,,,,,,,,,54,,,,,,,,,,,,,,317,,response,,,,100,,,,,,,Space,keypress(Space),,,,,,,,-- --- ---- --- ------ ----- ------- ---- -- --- ------- --<br>------- ---------- ------ In ----- -- ----- -- ---- ------<br>--- ----- --- --- ------ -------- ----- --- ------ ----- --<br>----- ----- ---------- --- --- ------ ------ ---- -- ------<br>------- --- ------ ----- --- ---- ------- -- ---- --- --<br>------- ------,195910,195922,195605,195604,195622,195943,,15,In
screen,html.Screen,2_1_1_1_16,2022-04-28T09:49:36.443Z,,,,,,,,,,,,,,,,,54,,,,,,,,,,,,,,337,,response,,,,100,,,,,,,Space,keypress(Space),,,,,,,,"-- --- ---- --- ------ ----- ------- ---- -- --- ------- --<br>------- ---------- ------ -- 1727, -- ----- -- ---- ------<br>--- ----- --- --- ------ -------- ----- --- ------ ----- --<br>----- ----- ---------- --- --- ------ ------ ---- -- ------<br>------- --- ------ ----- --- ---- ------- -- ---- --- --<br>------- ------",196250,196263,195926,195910,195943,196283,,16,"1727,"
screen,html.Screen,2_1_1_1_17,2022-04-28T09:49:36.740Z,,,,,,,,,,,,,,,,,54,,,,,,,,,,,,,,294,,response,,,,100,,,,,,,Space,keypress(Space),,,,,,,,-- --- ---- --- ------ ----- ------- ---- -- --- ------- --<br>------- ---------- ------ -- ----- in ----- -- ---- ------<br>--- ----- --- --- ------ -------- ----- --- ------ ----- --<br>----- ----- ---------- --- --- ------ ------ ---- -- ------<br>------- --- ------ ----- --- ---- ------- -- ---- --- --<br>------- ------,196547,196560,196266,196250,196283,196570,,17,in
screen,html.Screen,2_1_1_1_18,2022-04-28T09:49:37.263Z,,,,,,,,,,,,,,,,,54,,,,,,,,,,,,,,527.0000000000291,,response,,,,100,,,,,,,Space,keypress(Space),,,,,,,,-- --- ---- --- ------ ----- ------- ---- -- --- ------- --<br>------- ---------- ------ -- ----- -- order -- ---- ------<br>--- ----- --- --- ------ -------- ----- --- ------ ----- --<br>----- ----- ---------- --- --- ------ ------ ---- -- ------<br>------- --- ------ ----- --- ---- ------- -- ---- --- --<br>------- ------,197070,197081.00000000003,196554,196548,196570,197111,,18,order
screen,html.Screen,2_1_1_1_19,2022-04-28T09:49:37.567Z,,,,,,,,,,,,,,,,,54,,,,,,,,,,,,,,292,,response,,,,100,,,,,,,Space,keypress(Space),,,,,,,,-- --- ---- --- ------ ----- ------- ---- -- --- ------- --<br>------- ---------- ------ -- ----- -- ----- to ---- ------<br>--- ----- --- --- ------ -------- ----- --- ------ ----- --<br>----- ----- ---------- --- --- ------ ------ ---- -- ------<br>------- --- ------ ----- --- ---- ------- -- ---- --- --<br>------- ------,197374,197386,197094,197070,197111,197399,,19,to
screen,html.Screen,2_1_1_1_20,2022-04-28T09:49:37.835Z,,,,,,,,,,,,,,,,,54,,,,,,,,,,,,,,272,,response,,,,100,,,,,,,Space,keypress(Space),,,,,,,,-- --- ---- --- ------ ----- ------- ---- -- --- ------- --<br>------- ---------- ------ -- ----- -- ----- -- save ------<br>--- ----- --- --- ------ -------- ----- --- ------ ----- --<br>----- ----- ---------- --- --- ------ ------ ---- -- ------<br>------- --- ------ ----- --- ---- ------- -- ---- --- --<br>------- ------,197642,197654,197382,197374,197399,197670,,20,save
screen,html.Screen,2_1_1_1_21,2022-04-28T09:49:38.096Z,,,,,,,,,,,,,,,,,54,,,,,,,,,,,,,,262,,response,,,,100,,,,,,,Space,keypress(Space),,,,,,,,"-- --- ---- --- ------ ----- ------- ---- -- --- ------- --<br>------- ---------- ------ -- ----- -- ----- -- ---- money,<br>--- ----- --- --- ------ -------- ----- --- ------ ----- --<br>----- ----- ---------- --- --- ------ ------ ---- -- ------<br>------- --- ------ ----- --- ---- ------- -- ---- --- --<br>------- ------",197904,197916,197654,197642,197670,197924,,21,"money,"
screen,html.Screen,2_1_1_1_22,2022-04-28T09:49:38.416Z,,,,,,,,,,,,,,,,,54,,,,,,,,,,,,,,327,,response,,,,100,,,,,,,Space,keypress(Space),,,,,,,,-- --- ---- --- ------ ----- ------- ---- -- --- ------- --<br>------- ---------- ------ -- ----- -- ----- -- ---- ------<br>the ----- --- --- ------ -------- ----- --- ------ ----- --<br>----- ----- ---------- --- --- ------ ------ ---- -- ------<br>------- --- ------ ----- --- ---- ------- -- ---- --- --<br>------- ------,198224.00000000003,198235,197908,197904,197924,198247,,22,the
screen,html.Screen,2_1_1_1_23,2022-04-28T09:49:38.592Z,,,,,,,,,,,,,,,,,54,,,,,,,,,,,,,,180,,response,,,,100,,,,,,,Space,keypress(Space),,,,,,,,-- --- ---- --- ------ ----- ------- ---- -- --- ------- --<br>------- ---------- ------ -- ----- -- ----- -- ---- ------<br>--- state --- --- ------ -------- ----- --- ------ ----- --<br>----- ----- ---------- --- --- ------ ------ ---- -- ------<br>------- --- ------ ----- --- ---- ------- -- ---- --- --<br>------- ------,198399,198411,198231,198224.00000000003,198247,198425,,23,state
screen,html.Screen,2_1_1_1_24,2022-04-28T09:49:39.002Z,,,,,,,,,,,,,,,,,54,,,,,,,,,,,,,,414,,response,,,,100,,,,,,,Space,keypress(Space),,,,,,,,-- --- ---- --- ------ ----- ------- ---- -- --- ------- --<br>------- ---------- ------ -- ----- -- ----- -- ---- ------<br>--- ----- cut --- ------ -------- ----- --- ------ ----- --<br>----- ----- ---------- --- --- ------ ------ ---- -- ------<br>------- --- ------ ----- --- ---- ------- -- ---- --- --<br>------- ------,198810,198822,198408,198399,198425,198845,,24,cut
screen,html.Screen,2_1_1_1_25,2022-04-28T09:49:39.307Z,,,,,,,,,,,,,,,,,54,,,,,,,,,,,,,,298,,response,,,,100,,,,,,,Space,keypress(Space),,,,,,,,-- --- ---- --- ------ ----- ------- ---- -- --- ------- --<br>------- ---------- ------ -- ----- -- ----- -- ---- ------<br>--- ----- --- the ------ -------- ----- --- ------ ----- --<br>----- ----- ---------- --- --- ------ ------ ---- -- ------<br>------- --- ------ ----- --- ---- ------- -- ---- --- --<br>------- ------,199114,199126,198828,198810,198845,199132,,25,the
screen,html.Screen,2_1_1_1_26,2022-04-28T09:49:39.627Z,,,,,,,,,,,,,,,,,54,,,,,,,,,,,,,,331,,response,,,,100,,,,,,,Space,keypress(Space),,,,,,,,-- --- ---- --- ------ ----- ------- ---- -- --- ------- --<br>------- ---------- ------ -- ----- -- ----- -- ---- ------<br>--- ----- --- --- bonds' -------- ----- --- ------ ----- --<br>----- ----- ---------- --- --- ------ ------ ---- -- ------<br>------- --- ------ ----- --- ---- ------- -- ---- --- --<br>------- ------,199434,199447,199116,199114,199132,199455,,26,bonds'
screen,html.Screen,2_1_1_1_27,2022-04-28T09:49:39.937Z,,,,,,,,,,,,,,,,,54,,,,,,,,,,,,,,318,,response,,,,100,,,,,,,Space,keypress(Space),,,,,,,,-- --- ---- --- ------ ----- ------- ---- -- --- ------- --<br>------- ---------- ------ -- ----- -- ----- -- ---- ------<br>--- ----- --- --- ------ interest ----- --- ------ ----- --<br>----- ----- ---------- --- --- ------ ------ ---- -- ------<br>------- --- ------ ----- --- ---- ------- -- ---- --- --<br>------- ------,199744,199756,199438,199435,199455,199778,,27,interest
screen,html.Screen,2_1_1_1_28,2022-04-28T09:49:40.246Z,,,,,,,,,,,,,,,,,54,,,,,,,,,,,,,,305,,response,,,,100,,,,,,,Space,keypress(Space),,,,,,,,-- --- ---- --- ------ ----- ------- ---- -- --- ------- --<br>------- ---------- ------ -- ----- -- ----- -- ---- ------<br>--- ----- --- --- ------ -------- rate. --- ------ ----- --<br>----- ----- ---------- --- --- ------ ------ ---- -- ------<br>------- --- ------ ----- --- ---- ------- -- ---- --- --<br>------- ------,200053,200066,199761,199744,199778,200071,,28,rate.
screen,html.Screen,2_1_1_1_29,2022-04-28T09:49:40.528Z,,,,,,,,,,,,,,,,,54,,,,,,,,,,,,,,292,,response,,,,100,,,,,,,Space,keypress(Space),,,,,,,,-- --- ---- --- ------ ----- ------- ---- -- --- ------- --<br>------- ---------- ------ -- ----- -- ----- -- ---- ------<br>--- ----- --- --- ------ -------- ----- The ------ ----- --<br>----- ----- ---------- --- --- ------ ------ ---- -- ------<br>------- --- ------ ----- --- ---- ------- -- ---- --- --<br>------- ------,200335,200347,200055,200054,200071,200359,,29,The
screen,html.Screen,2_1_1_1_30,2022-04-28T09:49:40.850Z,,,,,,,,,,,,,,,,,54,,,,,,,,,,,,,,326,,response,,,,100,,,,,,,Space,keypress(Space),,,,,,,,-- --- ---- --- ------ ----- ------- ---- -- --- ------- --<br>------- ---------- ------ -- ----- -- ----- -- ---- ------<br>--- ----- --- --- ------ -------- ----- --- market ----- --<br>----- ----- ---------- --- --- ------ ------ ---- -- ------<br>------- --- ------ ----- --- ---- ------- -- ---- --- --<br>------- ------,200657,200669,200343,200335,200359,200681,,30,market
screen,html.Screen,2_1_1_1_31,2022-04-28T09:49:41.206Z,,,,,,,,,,,,,,,,,54,,,,,,,,,,,,,,362,,response,,,,100,,,,,,,Space,keypress(Space),,,,,,,,-- --- ---- --- ------ ----- ------- ---- -- --- ------- --<br>------- ---------- ------ -- ----- -- ----- -- ---- ------<br>--- ----- --- --- ------ -------- ----- --- ------ value --<br>----- ----- ---------- --- --- ------ ------ ---- -- ------<br>------- --- ------ ----- --- ---- ------- -- ---- --- --<br>------- ------,201013,201026,200664,200658.00000000003,200681,201037,,31,value
screen,html.Screen,2_1_1_1_32,2022-04-28T09:49:41.667Z,,,,,,,,,,,,,,,,,54,,,,,,,,,,,,,,466,,response,,,,100,,,,,,,Space,keypress(Space),,,,,,,,-- --- ---- --- ------ ----- ------- ---- -- --- ------- --<br>------- ---------- ------ -- ----- -- ----- -- ---- ------<br>--- ----- --- --- ------ -------- ----- --- ------ ----- of<br>----- ----- ---------- --- --- ------ ------ ---- -- ------<br>------- --- ------ ----- --- ---- ------- -- ---- --- --<br>------- ------,201475,201487,201021,201013,201037,201508,,32,of
screen,html.Screen,2_1_1_1_33,2022-04-28T09:49:42.018Z,,,,,,,,,,,,,,,,,54,,,,,,,,,,,,,,346,,response,,,,100,,,,,,,Space,keypress(Space),,,,,,,,-- --- ---- --- ------ ----- ------- ---- -- --- ------- --<br>------- ---------- ------ -- ----- -- ----- -- ---- ------<br>--- ----- --- --- ------ -------- ----- --- ------ ----- --<br>these ----- ---------- --- --- ------ ------ ---- -- ------<br>------- --- ------ ----- --- ---- ------- -- ---- --- --<br>------- ------,201826,201838,201492,201475,201508,201845,,33,these
screen,html.Screen,2_1_1_1_34,2022-04-28T09:49:42.385Z,,,,,,,,,,,,,,,,,54,,,,,,,,,,,,,,376,,response,,,,100,,,,,,,Space,keypress(Space),,,,,,,,-- --- ---- --- ------ ----- ------- ---- -- --- ------- --<br>------- ---------- ------ -- ----- -- ----- -- ---- ------<br>--- ----- --- --- ------ -------- ----- --- ------ ----- --<br>----- bonds ---------- --- --- ------ ------ ---- -- ------<br>------- --- ------ ----- --- ---- ------- -- ---- --- --<br>------- ------,202193,202205,201829,201826,201845,202217,,34,bonds
screen,html.Screen,2_1_1_1_35,2022-04-28T09:49:42.568Z,,,,,,,,,,,,,,,,,54,,,,,,,,,,,,,,187,,response,,,,100,,,,,,,Space,keypress(Space),,,,,,,,"-- --- ---- --- ------ ----- ------- ---- -- --- ------- --<br>------- ---------- ------ -- ----- -- ----- -- ---- ------<br>--- ----- --- --- ------ -------- ----- --- ------ ----- --<br>----- ----- plummeted, --- --- ------ ------ ---- -- ------<br>------- --- ------ ----- --- ---- ------- -- ---- --- --<br>------- ------",202376,202388,202201,202193,202217,202405,,35,"plummeted,"
screen,html.Screen,2_1_1_1_36,2022-04-28T09:49:42.850Z,,,,,,,,,,,,,,,,,54,,,,,,,,,,,,,,281,,response,,,,100,,,,,,,Space,keypress(Space),,,,,,,,-- --- ---- --- ------ ----- ------- ---- -- --- ------- --<br>------- ---------- ------ -- ----- -- ----- -- ---- ------<br>--- ----- --- --- ------ -------- ----- --- ------ ----- --<br>----- ----- ---------- and --- ------ ------ ---- -- ------<br>------- --- ------ ----- --- ---- ------- -- ---- --- --<br>------- ------,202657,202669,202388,202376,202405,202677,,36,and
screen,html.Screen,2_1_1_1_37,2022-04-28T09:49:43.179Z,,,,,,,,,,,,,,,,,54,,,,,,,,,,,,,,339,,response,,,,100,,,,,,,Space,keypress(Space),,,,,,,,-- --- ---- --- ------ ----- ------- ---- -- --- ------- --<br>------- ---------- ------ -- ----- -- ----- -- ---- ------<br>--- ----- --- --- ------ -------- ----- --- ------ ----- --<br>----- ----- ---------- --- the ------ ------ ---- -- ------<br>------- --- ------ ----- --- ---- ------- -- ---- --- --<br>------- ------,202987,202999,202660,202657,202677,203015,,37,the
screen,html.Screen,2_1_1_1_38,2022-04-28T09:49:43.386Z,,,,,,,,,,,,,,,,,54,,,,,,,,,,,,,,206,,response,,,,100,,,,,,,Space,keypress(Space),,,,,,,,-- --- ---- --- ------ ----- ------- ---- -- --- ------- --<br>------- ---------- ------ -- ----- -- ----- -- ---- ------<br>--- ----- --- --- ------ -------- ----- --- ------ ----- --<br>----- ----- ---------- --- --- market ------ ---- -- ------<br>------- --- ------ ----- --- ---- ------- -- ---- --- --<br>------- ------,203194.00000000003,203205,202999,202987,203015,203220,,38,market
screen,html.Screen,2_1_1_1_39,2022-04-28T09:49:43.612Z,,,,,,,,,,,,,,,,,54,,,,,,,,,,,,,,228.0000000000291,,response,,,,100,,,,,,,Space,keypress(Space),,,,,,,,-- --- ---- --- ------ ----- ------- ---- -- --- ------- --<br>------- ---------- ------ -- ----- -- ----- -- ---- ------<br>--- ----- --- --- ------ -------- ----- --- ------ ----- --<br>----- ----- ---------- --- --- ------ became ---- -- ------<br>------- --- ------ ----- --- ---- ------- -- ---- --- --<br>------- ------,203419,203432.00000000003,203204,203194.00000000003,203220,203441,,39,became
screen,html.Screen,2_1_1_1_40,2022-04-28T09:49:43.989Z,,,,,,,,,,,,,,,,,54,,,,,,,,,,,,,,384,,response,,,,100,,,,,,,Space,keypress(Space),,,,,,,,-- --- ---- --- ------ ----- ------- ---- -- --- ------- --<br>------- ---------- ------ -- ----- -- ----- -- ---- ------<br>--- ----- --- --- ------ -------- ----- --- ------ ----- --<br>----- ----- ---------- --- --- ------ ------ wary -- ------<br>------- --- ------ ----- --- ---- ------- -- ---- --- --<br>------- ------,203797,203809,203425,203419,203441,203815,,40,wary
screen,html.Screen,2_1_1_1_41,2022-04-28T09:49:44.335Z,,,,,,,,,,,,,,,,,54,,,,,,,,,,,,,,357,,response,,,,100,,,,,,,Space,keypress(Space),,,,,,,,-- --- ---- --- ------ ----- ------- ---- -- --- ------- --<br>------- ---------- ------ -- ----- -- ----- -- ---- ------<br>--- ----- --- --- ------ -------- ----- --- ------ ----- --<br>----- ----- ---------- --- --- ------ ------ ---- of ------<br>------- --- ------ ----- --- ---- ------- -- ---- --- --<br>------- ------,204142,204155,203798,203797,203815,204170,,41,of
screen,html.Screen,2_1_1_1_42,2022-04-28T09:49:44.660Z,,,,,,,,,,,,,,,,,54,,,,,,,,,,,,,,327.0000000000291,,response,,,,100,,,,,,,Space,keypress(Space),,,,,,,,-- --- ---- --- ------ ----- ------- ---- -- --- ------- --<br>------- ---------- ------ -- ----- -- ----- -- ---- ------<br>--- ----- --- --- ------ -------- ----- --- ------ ----- --<br>----- ----- ---------- --- --- ------ ------ ---- -- French<br>------- --- ------ ----- --- ---- ------- -- ---- --- --<br>------- ------,204468.00000000003,204480.00000000003,204153,204143,204170,204489,,42,French
screen,html.Screen,2_1_1_1_43,2022-04-28T09:49:44.978Z,,,,,,,,,,,,,,,,,54,,,,,,,,,,,,,,325,,response,,,,100,,,,,,,Space,keypress(Space),,,,,,,,-- --- ---- --- ------ ----- ------- ---- -- --- ------- --<br>------- ---------- ------ -- ----- -- ----- -- ---- ------<br>--- ----- --- --- ------ -------- ----- --- ------ ----- --<br>----- ----- ---------- --- --- ------ ------ ---- -- ------<br>credit. --- ------ ----- --- ---- ------- -- ---- --- --<br>------- ------,204786,204798,204473,204468.00000000003,204489,204815,,43,credit.
screen,html.Screen,2_1_1_1_44,2022-04-28T09:49:45.355Z,,,,,,,,,,,,,,,,,54,,,,,,,,,,,,,,376,,response,,,,100,,,,,,,Space,keypress(Space),,,,,,,,-- --- ---- --- ------ ----- ------- ---- -- --- ------- --<br>------- ---------- ------ -- ----- -- ----- -- ---- ------<br>--- ----- --- --- ------ -------- ----- --- ------ ----- --<br>----- ----- ---------- --- --- ------ ------ ---- -- ------<br>------- The ------ ----- --- ---- ------- -- ---- --- --<br>------- ------,205163,205175,204799,204786,204815,205185,,44,The
screen,html.Screen,2_1_1_1_45,2022-04-28T09:49:45.702Z,,,,,,,,,,,,,,,,,54,,,,,,,,,,,,,,353,,response,,,,100,,,,,,,Space,keypress(Space),,,,,,,,-- --- ---- --- ------ ----- ------- ---- -- --- ------- --<br>------- ---------- ------ -- ----- -- ----- -- ---- ------<br>--- ----- --- --- ------ -------- ----- --- ------ ----- --<br>----- ----- ---------- --- --- ------ ------ ---- -- ------<br>------- --- French ----- --- ---- ------- -- ---- --- --<br>------- ------,205510,205522,205169,205163,205185,205542,,45,French
screen,html.Screen,2_1_1_1_46,2022-04-28T09:49:46.038Z,,,,,,,,,,,,,,,,,54,,,,,,,,,,,,,,333,,response,,,,100,,,,,,,Space,keypress(Space),,,,,,,,-- --- ---- --- ------ ----- ------- ---- -- --- ------- --<br>------- ---------- ------ -- ----- -- ----- -- ---- ------<br>--- ----- --- --- ------ -------- ----- --- ------ ----- --<br>----- ----- ---------- --- --- ------ ------ ---- -- ------<br>------- --- ------ state --- ---- ------- -- ---- --- --<br>------- ------,205845,205858,205525,205510,205542,205866,,46,state
screen,html.Screen,2_1_1_1_47,2022-04-28T09:49:46.290Z,,,,,,,,,,,,,,,,,54,,,,,,,,,,,,,,262.0000000000291,,response,,,,100,,,,,,,Space,keypress(Space),,,,,,,,-- --- ---- --- ------ ----- ------- ---- -- --- ------- --<br>------- ---------- ------ -- ----- -- ----- -- ---- ------<br>--- ----- --- --- ------ -------- ----- --- ------ ----- --<br>----- ----- ---------- --- --- ------ ------ ---- -- ------<br>------- --- ------ ----- was ---- ------- -- ---- --- --<br>------- ------,206098,206111.00000000003,205849,205845,205866,206120,,47,was
screen,html.Screen,2_1_1_1_48,2022-04-28T09:49:46.611Z,,,,,,,,,,,,,,,,,54,,,,,,,,,,,,,,328,,response,,,,100,,,,,,,Space,keypress(Space),,,,,,,,-- --- ---- --- ------ ----- ------- ---- -- --- ------- --<br>------- ---------- ------ -- ----- -- ----- -- ---- ------<br>--- ----- --- --- ------ -------- ----- --- ------ ----- --<br>----- ----- ---------- --- --- ------ ------ ---- -- ------<br>------- --- ------ ----- --- left ------- -- ---- --- --<br>------- ------,206419,206431,206103,206098,206120,206440,,48,left
screen,html.Screen,2_1_1_1_49,2022-04-28T09:49:46.932Z,,,,,,,,,,,,,,,,,54,,,,,,,,,,,,,,328,,response,,,,100,,,,,,,Space,keypress(Space),,,,,,,,-- --- ---- --- ------ ----- ------- ---- -- --- ------- --<br>------- ---------- ------ -- ----- -- ----- -- ---- ------<br>--- ----- --- --- ------ -------- ----- --- ------ ----- --<br>----- ----- ---------- --- --- ------ ------ ---- -- ------<br>------- --- ------ ----- --- ---- without -- ---- --- --<br>------- ------,206740,206752,206424,206419,206440,206766,,49,without
screen,html.Screen,2_1_1_1_50,2022-04-28T09:49:47.236Z,,,,,,,,,,,,,,,,,54,,,,,,,,,,,,,,307,,response,,,,100,,,,,,,Space,keypress(Space),,,,,,,,-- --- ---- --- ------ ----- ------- ---- -- --- ------- --<br>------- ---------- ------ -- ----- -- ----- -- ---- ------<br>--- ----- --- --- ------ -------- ----- --- ------ ----- --<br>----- ----- ---------- --- --- ------ ------ ---- -- ------<br>------- --- ------ ----- --- ---- ------- an ---- --- --<br>------- ------,207043,207056,206749,206740,206766,207070,,50,an
screen,html.Screen,2_1_1_1_51,2022-04-28T09:49:47.588Z,,,,,,,,,,,,,,,,,54,,,,,,,,,,,,,,355.0000000000291,,response,,,,100,,,,,,,Space,keypress(Space),,,,,,,,-- --- ---- --- ------ ----- ------- ---- -- --- ------- --<br>------- ---------- ------ -- ----- -- ----- -- ---- ------<br>--- ----- --- --- ------ -------- ----- --- ------ ----- --<br>----- ----- ---------- --- --- ------ ------ ---- -- ------<br>------- --- ------ ----- --- ---- ------- -- easy --- --<br>------- ------,207396.00000000003,207408.00000000003,207053,207044,207070,207428,,51,easy
screen,html.Screen,2_1_1_1_52,2022-04-28T09:49:47.914Z,,,,,,,,,,,,,,,,,54,,,,,,,,,,,,,,323,,response,,,,100,,,,,,,Space,keypress(Space),,,,,,,,-- --- ---- --- ------ ----- ------- ---- -- --- ------- --<br>------- ---------- ------ -- ----- -- ----- -- ---- ------<br>--- ----- --- --- ------ -------- ----- --- ------ ----- --<br>----- ----- ---------- --- --- ------ ------ ---- -- ------<br>------- --- ------ ----- --- ---- ------- -- ---- way --<br>------- ------,207722,207734,207411,207396.00000000003,207428,207755,,52,way
screen,html.Screen,2_1_1_1_53,2022-04-28T09:49:48.228Z,,,,,,,,,,,,,,,,,54,,,,,,,,,,,,,,311,,response,,,,100,,,,,,,Space,keypress(Space),,,,,,,,-- --- ---- --- ------ ----- ------- ---- -- --- ------- --<br>------- ---------- ------ -- ----- -- ----- -- ---- ------<br>--- ----- --- --- ------ -------- ----- --- ------ ----- --<br>----- ----- ---------- --- --- ------ ------ ---- -- ------<br>------- --- ------ ----- --- ---- ------- -- ---- --- of<br>------- ------,208036,208049,207738,207722,207755,208059,,53,of
screen,html.Screen,2_1_1_1_54,2022-04-28T09:49:48.528Z,,,,,,,,,,,,,,,,,54,,,,,,,,,,,,,,307.0000000000291,,response,,,,100,,,,,,,Space,keypress(Space),,,,,,,,-- --- ---- --- ------ ----- ------- ---- -- --- ------- --<br>------- ---------- ------ -- ----- -- ----- -- ---- ------<br>--- ----- --- --- ------ -------- ----- --- ------ ----- --<br>----- ----- ---------- --- --- ------ ------ ---- -- ------<br>------- --- ------ ----- --- ---- ------- -- ---- --- --<br>raising ------,208336,208349.00000000003,208042,208036,208059,208367,,54,raising
screen,html.Screen,2_1_1_1_55,2022-04-28T09:49:49.071Z,,,,,,,,,,,,,,,,,54,,,,,,,,,,,,,,541,,response,,,,100,,,,,,,Space,keypress(Space),,,,,,,,-- --- ---- --- ------ ----- ------- ---- -- --- ------- --<br>------- ---------- ------ -- ----- -- ----- -- ---- ------<br>--- ----- --- --- ------ -------- ----- --- ------ ----- --<br>----- ----- ---------- --- --- ------ ------ ---- -- ------<br>------- --- ------ ----- --- ---- ------- -- ---- --- --<br>------- money.,208878,208892,208351,208336,208367,208921,,55,money.
Item 100,flow.Loop,2_1_1_1,2022-04-28T09:49:49.071Z,,,,,,,,,,,,,,,,,,,,,,,,,,,,,,,19176,,completion,,,,,D,,,,,,,,,,,silence,,,,,208879,208892,189700,189701,189716,208921,,,
Question 1,html.Screen,2_1_1_2,2022-04-28T09:49:51.329Z,,,,,,,,,,,,,,,,,,,,,,,,,,,,true,TRUE,,2246,,response,,,,100,D,,,,,,TRUE,click #choice-1,,,,silence,,,,,211137,211151,208905,208879,208921,211169,,,
Question 2,html.Screen,2_1_1_3,2022-04-28T09:49:53.250Z,,,,,,,,,,,,,,,,,,,,,,,,,,,,false,FALSE,,1922,,response,,,,100,D,,,,,,TRUE,click #choice-1,,,,silence,,,,,213058,213072,211150,211138,211169,213095,,,
Item 100,flow.Sequence,2_1_1,2022-04-28T09:49:53.251Z,,,,,,,,,,,,,,,,,,,,,,,,,,,,,,,33364,,completion,,,,,,,,,,,,,,,,,,,,,213059,213072,179683,179672,179708,213095,,,
End of Practice,html.Page,2_1_2,2022-04-28T09:49:57.345Z,,,,,,,,,,,,,,,,,,,,,,,,,,,,,,,4058,,form submission,,,,,,,,,,,,,,,,,,,,,217153,217153,213072,213059,213095,217172,,,
Practice,flow.Sequence,2_1,2022-04-28T09:49:57.345Z,,,,,,,,,,,,,,,,,,,,,,,,,,,,,,,80767,,completion,,,,,,,,,,,,,,,,,,,,,217154,217153,136367,136361,136386,217172,,,
Trap_instruction,html.Page,2_2_0,2022-04-28T09:50:00.770Z,,,,,,,,,,,,,,,,,,,,,,,,,,,,,,,3407,,form submission,,,,,,,,,,,,,,,,,,,,,220579,220579,217156,217154,217172,220601,,,
trap_trial,html.Screen,2_2_1,2022-04-28T09:50:05.481Z,,,,,,,,,,,,,,,,,,,,,,,,,,,,true,1,,4713,,response,,,,,,,,,,,1,click #choice-1,,,,,,,,,225290,225305,220592,220579,220601,225338,,,
end of trap trial,html.Page,2_2_2,2022-04-28T09:50:07.340Z,,,,,,,,,,,,,,,,,,,,,,,,,,,,,,,1811,,form submission,,,,,,,,,,,,,,,,,,,,,227149,227149,225330,225290,225338,227180,,,
Trap 1,flow.Sequence,2_2,2022-04-28T09:50:07.341Z,,,,,,,,,,,,,,,,,,,,,,,,,,,,,,,9977,,completion,,,,,,,,,,,,,,,,,,,,,227150,227149,217156,217154,217172,227180,,,
Standby,html.Page,2_3_0,2022-04-28T09:50:15.361Z,,,,,,,,,,,,,,,,,,,,,,,,,,,,,,,8006,,timeout,,,,,,,,,,,,,,,,,,,,,235170.00000000003,235170,227162,227150,227180,235186,,,
Holding screen,html.Screen,2_3_1_0_0,2022-04-28T09:50:22.356Z,,,,,,,,,,,,,,,,,,,,,,,,,,,,,,,6996,,timeout,,,,,,,,,,,,,,,,,,,,,242166,242165,235170,235171,235186,242182,,,
screen,html.Screen,2_3_1_0_1_0,2022-04-28T09:50:23.815Z,,,,,,,,,,,,,,,,,19,,,,,,,,,,,,,,1473,,response,,,,17,D,,,,,,Space,keypress(Space),,,,speech,,,,"Interestingly, --- -------- -------- ---------- ---- -------<br>-- ---------- -- --- ----- ------ ----- ---- --------- ----<br>------- ------ -------- -- ------ ---------- ------ ---<br>------ -- -- ---- -- ---------- -------- ------ ---- -------<br>---- --- --------- ------- ----- --------- ---- ----- --<br>------ -------- -- ------ -- ---- ------------",243624,243638,242165,242166,242182,243654,,0,"Interestingly,"
screen,html.Screen,2_3_1_0_1_1,2022-04-28T09:50:24.313Z,,,,,,,,,,,,,,,,,19,,,,,,,,,,,,,,501,,response,,,,17,D,,,,,,Space,keypress(Space),,,,speech,,,,-------------- the -------- -------- ---------- ---- -------<br>-- ---------- -- --- ----- ------ ----- ---- --------- ----<br>------- ------ -------- -- ------ ---------- ------ ---<br>------ -- -- ---- -- ---------- -------- ------ ---- -------<br>---- --- --------- ------- ----- --------- ---- ----- --<br>------ -------- -- ------ -- ---- ------------,244123.00000000003,244137,243636,243625,243654,244164,,1,the
screen,html.Screen,2_3_1_0_1_2,2022-04-28T09:50:24.659Z,,,,,,,,,,,,,,,,,19,,,,,,,,,,,,,,337,,response,,,,17,D,,,,,,Space,keypress(Space),,,,speech,,,,-------------- --- heaviest -------- ---------- ---- -------<br>-- ---------- -- --- ----- ------ ----- ---- --------- ----<br>------- ------ -------- -- ------ ---------- ------ ---<br>------ -- -- ---- -- ---------- -------- ------ ---- -------<br>---- --- --------- ------- ----- --------- ---- ----- --<br>------ -------- -- ------ -- ---- ------------,244469,244484,244147,244124,244164,244501,,2,heaviest
screen,html.Screen,2_3_1_0_1_3,2022-04-28T09:50:25.031Z,,,,,,,,,,,,,,,,,19,,,,,,,,,,,,,,372,,response,,,,17,D,,,,,,Space,keypress(Space),,,,speech,,,,-------------- --- -------- isotopes ---------- ---- -------<br>-- ---------- -- --- ----- ------ ----- ---- --------- ----<br>------- ------ -------- -- ------ ---------- ------ ---<br>------ -- -- ---- -- ---------- -------- ------ ---- -------<br>---- --- --------- ------- ----- --------- ---- ----- --<br>------ -------- -- ------ -- ---- ------------,244841,244856,244484,244469,244501,244872,,3,isotopes
screen,html.Screen,2_3_1_0_1_4,2022-04-28T09:50:25.627Z,,,,,,,,,,,,,,,,,19,,,,,,,,,,,,,,595,,response,,,,17,D,,,,,,Space,keypress(Space),,,,speech,,,,-------------- --- -------- -------- physicists ---- -------<br>-- ---------- -- --- ----- ------ ----- ---- --------- ----<br>------- ------ -------- -- ------ ---------- ------ ---<br>------ -- -- ---- -- ---------- -------- ------ ---- -------<br>---- --- --------- ------- ----- --------- ---- ----- --<br>------ -------- -- ------ -- ---- ------------,245437,245451,244856,244842,244872,245479,,4,physicists
screen,html.Screen,2_3_1_0_1_5,2022-04-28T09:50:26.008Z,,,,,,,,,,,,,,,,,19,,,,,,,,,,,,,,370,,response,,,,17,D,,,,,,Space,keypress(Space),,,,speech,,,,-------------- --- -------- -------- ---------- have -------<br>-- ---------- -- --- ----- ------ ----- ---- --------- ----<br>------- ------ -------- -- ------ ---------- ------ ---<br>------ -- -- ---- -- ---------- -------- ------ ---- -------<br>---- --- --------- ------- ----- --------- ---- ----- --<br>------ -------- -- ------ -- ---- ------------,245818,245833,245463,245437,245479,245850,,5,have
screen,html.Screen,2_3_1_0_1_6,2022-04-28T09:50:26.310Z,,,,,,,,,,,,,,,,,19,,,,,,,,,,,,,,302.0000000000291,,response,,,,17,D,,,,,,Space,keypress(Space),,,,speech,,,,-------------- --- -------- -------- ---------- ---- managed<br>-- ---------- -- --- ----- ------ ----- ---- --------- ----<br>------- ------ -------- -- ------ ---------- ------ ---<br>------ -- -- ---- -- ---------- -------- ------ ---- -------<br>---- --- --------- ------- ----- --------- ---- ----- --<br>------ -------- -- ------ -- ---- ------------,246120,246135.00000000003,245833,245818,245850,246138,,6,managed
screen,html.Screen,2_3_1_0_1_7,2022-04-28T09:50:26.636Z,,,,,,,,,,,,,,,,,19,,,,,,,,,,,,,,339,,response,,,,17,D,,,,,,Space,keypress(Space),,,,speech,,,,-------------- --- -------- -------- ---------- ---- -------<br>to ---------- -- --- ----- ------ ----- ---- --------- ----<br>------- ------ -------- -- ------ ---------- ------ ---<br>------ -- -- ---- -- ---------- -------- ------ ---- -------<br>---- --- --------- ------- ----- --------- ---- ----- --<br>------ -------- -- ------ -- ---- ------------,246446,246461,246122,246120,246138,246476,,7,to
screen,html.Screen,2_3_1_0_1_8,2022-04-28T09:50:26.942Z,,,,,,,,,,,,,,,,,19,,,,,,,,,,,,,,307,,response,,,,17,D,,,,,,Space,keypress(Space),,,,speech,,,,-------------- --- -------- -------- ---------- ---- -------<br>-- synthesize -- --- ----- ------ ----- ---- --------- ----<br>------- ------ -------- -- ------ ---------- ------ ---<br>------ -- -- ---- -- ---------- -------- ------ ---- -------<br>---- --- --------- ------- ----- --------- ---- ----- --<br>------ -------- -- ------ -- ---- ------------,246752,246767,246460,246446,246476,246780,,8,synthesize
screen,html.Screen,2_3_1_0_1_9,2022-04-28T09:50:27.239Z,,,,,,,,,,,,,,,,,19,,,,,,,,,,,,,,300,,response,,,,17,D,,,,,,Space,keypress(Space),,,,speech,,,,-------------- --- -------- -------- ---------- ---- -------<br>-- ---------- so --- ----- ------ ----- ---- --------- ----<br>------- ------ -------- -- ------ ---------- ------ ---<br>------ -- -- ---- -- ---------- -------- ------ ---- -------<br>---- --- --------- ------- ----- --------- ---- ----- --<br>------ -------- -- ------ -- ---- ------------,247049,247064,246764,246752,246780,247068,,9,so
screen,html.Screen,2_3_1_0_1_10,2022-04-28T09:50:27.538Z,,,,,,,,,,,,,,,,,19,,,,,,,,,,,,,,311,,response,,,,17,D,,,,,,Space,keypress(Space),,,,speech,,,,-------------- --- -------- -------- ---------- ---- -------<br>-- ---------- -- far ----- ------ ----- ---- --------- ----<br>------- ------ -------- -- ------ ---------- ------ ---<br>------ -- -- ---- -- ---------- -------- ------ ---- -------<br>---- --- --------- ------- ----- --------- ---- ----- --<br>------ -------- -- ------ -- ---- ------------,247348,247363,247052,247049,247068,247373,,10,far
screen,html.Screen,2_3_1_0_1_11,2022-04-28T09:50:27.821Z,,,,,,,,,,,,,,,,,19,,,,,,,,,,,,,,289.0000000000291,,response,,,,17,D,,,,,,Space,keypress(Space),,,,speech,,,,-------------- --- -------- -------- ---------- ---- -------<br>-- ---------- -- --- don't ------ ----- ---- --------- ----<br>------- ------ -------- -- ------ ---------- ------ ---<br>------ -- -- ---- -- ---------- -------- ------ ---- -------<br>---- --- --------- ------- ----- --------- ---- ----- --<br>------ -------- -- ------ -- ---- ------------,247631,247646.00000000003,247357,247348,247373,247661,,11,don't
screen,html.Screen,2_3_1_0_1_12,2022-04-28T09:50:28.133Z,,,,,,,,,,,,,,,,,19,,,,,,,,,,,,,,313,,response,,,,17,D,,,,,,Space,keypress(Space),,,,speech,,,,-------------- --- -------- -------- ---------- ---- -------<br>-- ---------- -- --- ----- behave ----- ---- --------- ----<br>------- ------ -------- -- ------ ---------- ------ ---<br>------ -- -- ---- -- ---------- -------- ------ ---- -------<br>---- --- --------- ------- ----- --------- ---- ----- --<br>------ -------- -- ------ -- ---- ------------,247943,247958,247645,247631,247661,247965,,12,behave
screen,html.Screen,2_3_1_0_1_13,2022-04-28T09:50:28.436Z,,,,,,,,,,,,,,,,,19,,,,,,,,,,,,,,314,,response,,,,17,D,,,,,,Space,keypress(Space),,,,speech,,,,-------------- --- -------- -------- ---------- ---- -------<br>-- ---------- -- --- ----- ------ quite ---- --------- ----<br>------- ------ -------- -- ------ ---------- ------ ---<br>------ -- -- ---- -- ---------- -------- ------ ---- -------<br>---- --- --------- ------- ----- --------- ---- ----- --<br>------ -------- -- ------ -- ---- ------------,248246,248262,247948,247943,247965,248271,,13,quite
screen,html.Screen,2_3_1_0_1_14,2022-04-28T09:50:28.721Z,,,,,,,,,,,,,,,,,19,,,,,,,,,,,,,,291,,response,,,,17,D,,,,,,Space,keypress(Space),,,,speech,,,,-------------- --- -------- -------- ---------- ---- -------<br>-- ---------- -- --- ----- ------ ----- like --------- ----<br>------- ------ -------- -- ------ ---------- ------ ---<br>------ -- -- ---- -- ---------- -------- ------ ---- -------<br>---- --- --------- ------- ----- --------- ---- ----- --<br>------ -------- -- ------ -- ---- ------------,248531,248546,248255,248247,248271,248559,,14,like
screen,html.Screen,2_3_1_0_1_15,2022-04-28T09:50:29.006Z,,,,,,,,,,,,,,,,,19,,,,,,,,,,,,,,289,,response,,,,17,D,,,,,,Space,keypress(Space),,,,speech,,,,-------------- --- -------- -------- ---------- ---- -------<br>-- ---------- -- --- ----- ------ ----- ---- science's ----<br>------- ------ -------- -- ------ ---------- ------ ---<br>------ -- -- ---- -- ---------- -------- ------ ---- -------<br>---- --- --------- ------- ----- --------- ---- ----- --<br>------ -------- -- ------ -- ---- ------------,248817,248832,248543,248531,248559,248835,,15,science's
screen,html.Screen,2_3_1_0_1_16,2022-04-28T09:50:29.436Z,,,,,,,,,,,,,,,,,19,,,,,,,,,,,,,,443,,response,,,,17,D,,,,,,Space,keypress(Space),,,,speech,,,,-------------- --- -------- -------- ---------- ---- -------<br>-- ---------- -- --- ----- ------ ----- ---- --------- best<br>------- ------ -------- -- ------ ---------- ------ ---<br>------ -- -- ---- -- ---------- -------- ------ ---- -------<br>---- --- --------- ------- ----- --------- ---- ----- --<br>------ -------- -- ------ -- ---- ------------,249246,249261,248818,248817,248835,249273,,16,best
screen,html.Screen,2_3_1_0_1_17,2022-04-28T09:50:29.841Z,,,,,,,,,,,,,,,,,19,,,,,,,,,,,,,,410,,response,,,,17,D,,,,,,Space,keypress(Space),,,,speech,,,,-------------- --- -------- -------- ---------- ---- -------<br>-- ---------- -- --- ----- ------ ----- ---- --------- ----<br>current ------ -------- -- ------ ---------- ------ ---<br>------ -- -- ---- -- ---------- -------- ------ ---- -------<br>---- --- --------- ------- ----- --------- ---- ----- --<br>------ -------- -- ------ -- ---- ------------,249651,249666,249256,249246,249273,249678,,17,current
screen,html.Screen,2_3_1_0_1_18,2022-04-28T09:50:30.200Z,,,,,,,,,,,,,,,,,19,,,,,,,,,,,,,,365,,response,,,,17,D,,,,,,Space,keypress(Space),,,,speech,,,,-------------- --- -------- -------- ---------- ---- -------<br>-- ---------- -- --- ----- ------ ----- ---- --------- ----<br>------- models -------- -- ------ ---------- ------ ---<br>------ -- -- ---- -- ---------- -------- ------ ---- -------<br>---- --- --------- ------- ----- --------- ---- ----- --<br>------ -------- -- ------ -- ---- ------------,250010.00000000003,250025,249660,249651,249678,250031,,18,models
screen,html.Screen,2_3_1_0_1_19,2022-04-28T09:50:30.535Z,,,,,,,,,,,,,,,,,19,,,,,,,,,,,,,,346.0000000000291,,response,,,,17,D,,,,,,Space,keypress(Space),,,,speech,,,,"-------------- --- -------- -------- ---------- ---- -------<br>-- ---------- -- --- ----- ------ ----- ---- --------- ----<br>------- ------ predict, -- ------ ---------- ------ ---<br>------ -- -- ---- -- ---------- -------- ------ ---- -------<br>---- --- --------- ------- ----- --------- ---- ----- --<br>------ -------- -- ------ -- ---- ------------",250346,250361.00000000003,250015,250010.00000000003,250031,250371,,19,"predict,"
screen,html.Screen,2_3_1_0_1_20,2022-04-28T09:50:31.352Z,,,,,,,,,,,,,,,,,19,,,,,,,,,,,,,,824,,response,,,,17,D,,,,,,Space,keypress(Space),,,,speech,,,,-------------- --- -------- -------- ---------- ---- -------<br>-- ---------- -- --- ----- ------ ----- ---- --------- ----<br>------- ------ -------- so ------ ---------- ------ ---<br>------ -- -- ---- -- ---------- -------- ------ ---- -------<br>---- --- --------- ------- ----- --------- ---- ----- --<br>------ -------- -- ------ -- ---- ------------,251163,251178,250354,250346,250371,251191,,20,so
screen,html.Screen,2_3_1_0_1_21,2022-04-28T09:50:31.922Z,,,,,,,,,,,,,,,,,19,,,,,,,,,,,,,,573.0000000000291,,response,,,,17,D,,,,,,Space,keypress(Space),,,,speech,,,,-------------- --- -------- -------- ---------- ---- -------<br>-- ---------- -- --- ----- ------ ----- ---- --------- ----<br>------- ------ -------- -- stable ---------- ------ ---<br>------ -- -- ---- -- ---------- -------- ------ ---- -------<br>---- --- --------- ------- ----- --------- ---- ----- --<br>------ -------- -- ------ -- ---- ------------,251733,251748.00000000003,251175,251163,251191,251763,,21,stable
screen,html.Screen,2_3_1_0_1_22,2022-04-28T09:50:32.578Z,,,,,,,,,,,,,,,,,19,,,,,,,,,,,,,,658,,response,,,,17,D,,,,,,Space,keypress(Space),,,,speech,,,,-------------- --- -------- -------- ---------- ---- -------<br>-- ---------- -- --- ----- ------ ----- ---- --------- ----<br>------- ------ -------- -- ------ superheavy ------ ---<br>------ -- -- ---- -- ---------- -------- ------ ---- -------<br>---- --- --------- ------- ----- --------- ---- ----- --<br>------ -------- -- ------ -- ---- ------------,252388,252404,251746,251733,251763,252416,,22,superheavy
screen,html.Screen,2_3_1_0_1_23,2022-04-28T09:50:33.313Z,,,,,,,,,,,,,,,,,19,,,,,,,,,,,,,,740.0000000000291,,response,,,,17,D,,,,,,Space,keypress(Space),,,,speech,,,,-------------- --- -------- -------- ---------- ---- -------<br>-- ---------- -- --- ----- ------ ----- ---- --------- ----<br>------- ------ -------- -- ------ ---------- nuclei ---<br>------ -- -- ---- -- ---------- -------- ------ ---- -------<br>---- --- --------- ------- ----- --------- ---- ----- --<br>------ -------- -- ------ -- ---- ------------,253124,253140.00000000003,252400,252388,252416,253154,,23,nuclei
screen,html.Screen,2_3_1_0_1_24,2022-04-28T09:50:33.837Z,,,,,,,,,,,,,,,,,19,,,,,,,,,,,,,,525,,response,,,,17,D,,,,,,Space,keypress(Space),,,,speech,,,,-------------- --- -------- -------- ---------- ---- -------<br>-- ---------- -- --- ----- ------ ----- ---- --------- ----<br>------- ------ -------- -- ------ ---------- ------ are<br>------ -- -- ---- -- ---------- -------- ------ ---- -------<br>---- --- --------- ------- ----- --------- ---- ----- --<br>------ -------- -- ------ -- ---- ------------,253647,253662,253137,253124,253154,253676,,24,are
screen,html.Screen,2_3_1_0_1_25,2022-04-28T09:50:34.226Z,,,,,,,,,,,,,,,,,19,,,,,,,,,,,,,,392,,response,,,,17,D,,,,,,Space,keypress(Space),,,,speech,,,,-------------- --- -------- -------- ---------- ---- -------<br>-- ---------- -- --- ----- ------ ----- ---- --------- ----<br>------- ------ -------- -- ------ ---------- ------ ---<br>likely -- -- ---- -- ---------- -------- ------ ---- -------<br>---- --- --------- ------- ----- --------- ---- ----- --<br>------ -------- -- ------ -- ---- ------------,254036,254052,253660,253647,253676,254065,,25,likely
screen,html.Screen,2_3_1_0_1_26,2022-04-28T09:50:34.601Z,,,,,,,,,,,,,,,,,19,,,,,,,,,,,,,,380,,response,,,,17,D,,,,,,Space,keypress(Space),,,,speech,,,,-------------- --- -------- -------- ---------- ---- -------<br>-- ---------- -- --- ----- ------ ----- ---- --------- ----<br>------- ------ -------- -- ------ ---------- ------ ---<br>------ to -- ---- -- ---------- -------- ------ ---- -------<br>---- --- --------- ------- ----- --------- ---- ----- --<br>------ -------- -- ------ -- ---- ------------,254411,254427,254047,254037,254065,254436,,26,to
screen,html.Screen,2_3_1_0_1_27,2022-04-28T09:50:34.916Z,,,,,,,,,,,,,,,,,19,,,,,,,,,,,,,,323.0000000000291,,response,,,,17,D,,,,,,Space,keypress(Space),,,,speech,,,,-------------- --- -------- -------- ---------- ---- -------<br>-- ---------- -- --- ----- ------ ----- ---- --------- ----<br>------- ------ -------- -- ------ ---------- ------ ---<br>------ -- be ---- -- ---------- -------- ------ ---- -------<br>---- --- --------- ------- ----- --------- ---- ----- --<br>------ -------- -- ------ -- ---- ------------,254727,254742.00000000003,254419,254411,254436,254756,,27,be
screen,html.Screen,2_3_1_0_1_28,2022-04-28T09:50:35.245Z,,,,,,,,,,,,,,,,,19,,,,,,,,,,,,,,331,,response,,,,17,D,,,,,,Space,keypress(Space),,,,speech,,,,-------------- --- -------- -------- ---------- ---- -------<br>-- ---------- -- --- ----- ------ ----- ---- --------- ----<br>------- ------ -------- -- ------ ---------- ------ ---<br>------ -- -- full -- ---------- -------- ------ ---- -------<br>---- --- --------- ------- ----- --------- ---- ----- --<br>------ -------- -- ------ -- ---- ------------,255056,255071,254740,254727,254756,255078,,28,full
screen,html.Screen,2_3_1_0_1_29,2022-04-28T09:50:35.605Z,,,,,,,,,,,,,,,,,19,,,,,,,,,,,,,,369,,response,,,,17,D,,,,,,Space,keypress(Space),,,,speech,,,,-------------- --- -------- -------- ---------- ---- -------<br>-- ---------- -- --- ----- ------ ----- ---- --------- ----<br>------- ------ -------- -- ------ ---------- ------ ---<br>------ -- -- ---- of ---------- -------- ------ ---- -------<br>---- --- --------- ------- ----- --------- ---- ----- --<br>------ -------- -- ------ -- ---- ------------,255416,255431,255062,255056,255078,255449,,29,of
screen,html.Screen,2_3_1_0_1_30,2022-04-28T09:50:35.973Z,,,,,,,,,,,,,,,,,19,,,,,,,,,,,,,,366,,response,,,,17,D,,,,,,Space,keypress(Space),,,,speech,,,,-------------- --- -------- -------- ---------- ---- -------<br>-- ---------- -- --- ----- ------ ----- ---- --------- ----<br>------- ------ -------- -- ------ ---------- ------ ---<br>------ -- -- ---- -- surprises. -------- ------ ---- -------<br>---- --- --------- ------- ----- --------- ---- ----- --<br>------ -------- -- ------ -- ---- ------------,255783.00000000003,255799,255433,255416,255449,255804,,30,surprises.
screen,html.Screen,2_3_1_0_1_31,2022-04-28T09:50:36.513Z,,,,,,,,,,,,,,,,,19,,,,,,,,,,,,,,552,,response,,,,17,D,,,,,,Space,keypress(Space),,,,speech,,,,-------------- --- -------- -------- ---------- ---- -------<br>-- ---------- -- --- ----- ------ ----- ---- --------- ----<br>------- ------ -------- -- ------ ---------- ------ ---<br>------ -- -- ---- -- ---------- Chemists ------ ---- -------<br>---- --- --------- ------- ----- --------- ---- ----- --<br>------ -------- -- ------ -- ---- ------------,256324,256339,255787,255783.00000000003,255804,256358,,31,Chemists
screen,html.Screen,2_3_1_0_1_32,2022-04-28T09:50:36.914Z,,,,,,,,,,,,,,,,,19,,,,,,,,,,,,,,400,,response,,,,17,D,,,,,,Space,keypress(Space),,,,speech,,,,-------------- --- -------- -------- ---------- ---- -------<br>-- ---------- -- --- ----- ------ ----- ---- --------- ----<br>------- ------ -------- -- ------ ---------- ------ ---<br>------ -- -- ---- -- ---------- -------- cannot ---- -------<br>---- --- --------- ------- ----- --------- ---- ----- --<br>------ -------- -- ------ -- ---- ------------,256725.00000000003,256741,256341,256324,256358,256768,,32,cannot
screen,html.Screen,2_3_1_0_1_33,2022-04-28T09:50:37.281Z,,,,,,,,,,,,,,,,,19,,,,,,,,,,,,,,357,,response,,,,17,D,,,,,,Space,keypress(Space),,,,speech,,,,-------------- --- -------- -------- ---------- ---- -------<br>-- ---------- -- --- ----- ------ ----- ---- --------- ----<br>------- ------ -------- -- ------ ---------- ------ ---<br>------ -- -- ---- -- ---------- -------- ------ even -------<br>---- --- --------- ------- ----- --------- ---- ----- --<br>------ -------- -- ------ -- ---- ------------,257091.99999999997,257108,256751,256725.00000000003,256768,257123,,33,even
screen,html.Screen,2_3_1_0_1_34,2022-04-28T09:50:37.824Z,,,,,,,,,,,,,,,,,19,,,,,,,,,,,,,,544.9999999999709,,response,,,,17,D,,,,,,Space,keypress(Space),,,,speech,,,,-------------- --- -------- -------- ---------- ---- -------<br>-- ---------- -- --- ----- ------ ----- ---- --------- ----<br>------- ------ -------- -- ------ ---------- ------ ---<br>------ -- -- ---- -- ---------- -------- ------ ---- predict<br>---- --- --------- ------- ----- --------- ---- ----- --<br>------ -------- -- ------ -- ---- ------------,257635,257649.99999999997,257105,257091.99999999997,257123,257677,,34,predict
screen,html.Screen,2_3_1_0_1_35,2022-04-28T09:50:38.243Z,,,,,,,,,,,,,,,,,19,,,,,,,,,,,,,,409.0000000000291,,response,,,,17,D,,,,,,Space,keypress(Space),,,,speech,,,,-------------- --- -------- -------- ---------- ---- -------<br>-- ---------- -- --- ----- ------ ----- ---- --------- ----<br>------- ------ -------- -- ------ ---------- ------ ---<br>------ -- -- ---- -- ---------- -------- ------ ---- -------<br>with --- --------- ------- ----- --------- ---- ----- --<br>------ -------- -- ------ -- ---- ------------,258053,258069.00000000003,257660,257635,257677,258082,,35,with
screen,html.Screen,2_3_1_0_1_36,2022-04-28T09:50:38.823Z,,,,,,,,,,,,,,,,,19,,,,,,,,,,,,,,584.9999999999709,,response,,,,17,D,,,,,,Space,keypress(Space),,,,speech,,,,-------------- --- -------- -------- ---------- ---- -------<br>-- ---------- -- --- ----- ------ ----- ---- --------- ----<br>------- ------ -------- -- ------ ---------- ------ ---<br>------ -- -- ---- -- ---------- -------- ------ ---- -------<br>---- any --------- ------- ----- --------- ---- ----- --<br>------ -------- -- ------ -- ---- ------------,258634,258649.99999999997,258065,258054.00000000003,258082,258668,,36,any
screen,html.Screen,2_3_1_0_1_37,2022-04-28T09:50:39.204Z,,,,,,,,,,,,,,,,,19,,,,,,,,,,,,,,378.0000000000291,,response,,,,17,D,,,,,,Space,keypress(Space),,,,speech,,,,-------------- --- -------- -------- ---------- ---- -------<br>-- ---------- -- --- ----- ------ ----- ---- --------- ----<br>------- ------ -------- -- ------ ---------- ------ ---<br>------ -- -- ---- -- ---------- -------- ------ ---- -------<br>---- --- certainty ------- ----- --------- ---- ----- --<br>------ -------- -- ------ -- ---- ------------,259015,259030.00000000003,258652,258634,258668,259044,,37,certainty
screen,html.Screen,2_3_1_0_1_38,2022-04-28T09:50:39.650Z,,,,,,,,,,,,,,,,,19,,,,,,,,,,,,,,449.0000000000291,,response,,,,17,D,,,,,,Space,keypress(Space),,,,speech,,,,-------------- --- -------- -------- ---------- ---- -------<br>-- ---------- -- --- ----- ------ ----- ---- --------- ----<br>------- ------ -------- -- ------ ---------- ------ ---<br>------ -- -- ---- -- ---------- -------- ------ ---- -------<br>---- --- --------- whether ----- --------- ---- ----- --<br>------ -------- -- ------ -- ---- ------------,259461,259477.00000000003,259028,259015,259044,259499,,38,whether
screen,html.Screen,2_3_1_0_1_39,2022-04-28T09:50:39.975Z,,,,,,,,,,,,,,,,,19,,,,,,,,,,,,,,319,,response,,,,17,D,,,,,,Space,keypress(Space),,,,speech,,,,-------------- --- -------- -------- ---------- ---- -------<br>-- ---------- -- --- ----- ------ ----- ---- --------- ----<br>------- ------ -------- -- ------ ---------- ------ ---<br>------ -- -- ---- -- ---------- -------- ------ ---- -------<br>---- --- --------- ------- these --------- ---- ----- --<br>------ -------- -- ------ -- ---- ------------,259785.00000000003,259801,259482,259461,259499,259820,,39,these
screen,html.Screen,2_3_1_0_1_40,2022-04-28T09:50:40.335Z,,,,,,,,,,,,,,,,,19,,,,,,,,,,,,,,357.0000000000291,,response,,,,17,D,,,,,,Space,keypress(Space),,,,speech,,,,-------------- --- -------- -------- ---------- ---- -------<br>-- ---------- -- --- ----- ------ ----- ---- --------- ----<br>------- ------ -------- -- ------ ---------- ------ ---<br>------ -- -- ---- -- ---------- -------- ------ ---- -------<br>---- --- --------- ------- ----- materials ---- ----- --<br>------ -------- -- ------ -- ---- ------------,260146.00000000003,260160.00000000003,259803,259786,259820,260175,,40,materials
screen,html.Screen,2_3_1_0_1_41,2022-04-28T09:50:40.721Z,,,,,,,,,,,,,,,,,19,,,,,,,,,,,,,,389.0000000000291,,response,,,,17,D,,,,,,Space,keypress(Space),,,,speech,,,,-------------- --- -------- -------- ---------- ---- -------<br>-- ---------- -- --- ----- ------ ----- ---- --------- ----<br>------- ------ -------- -- ------ ---------- ------ ---<br>------ -- -- ---- -- ---------- -------- ------ ---- -------<br>---- --- --------- ------- ----- --------- will ----- --<br>------ -------- -- ------ -- ---- ------------,260531.99999999997,260547.00000000003,260158,260147,260175,260564,,41,will
screen,html.Screen,2_3_1_0_1_42,2022-04-28T09:50:41.068Z,,,,,,,,,,,,,,,,,19,,,,,,,,,,,,,,346.9999999999709,,response,,,,17,D,,,,,,Space,keypress(Space),,,,speech,,,,-------------- --- -------- -------- ---------- ---- -------<br>-- ---------- -- --- ----- ------ ----- ---- --------- ----<br>------- ------ -------- -- ------ ---------- ------ ---<br>------ -- -- ---- -- ---------- -------- ------ ---- -------<br>---- --- --------- ------- ----- --------- ---- exist --<br>------ -------- -- ------ -- ---- ------------,260879.00000000003,260894.99999999997,260548,260531.99999999997,260564,260904,,42,exist
screen,html.Screen,2_3_1_0_1_43,2022-04-28T09:50:41.447Z,,,,,,,,,,,,,,,,,19,,,,,,,,,,,,,,386.0000000000291,,response,,,,17,D,,,,,,Space,keypress(Space),,,,speech,,,,-------------- --- -------- -------- ---------- ---- -------<br>-- ---------- -- --- ----- ------ ----- ---- --------- ----<br>------- ------ -------- -- ------ ---------- ------ ---<br>------ -- -- ---- -- ---------- -------- ------ ---- -------<br>---- --- --------- ------- ----- --------- ---- ----- as<br>------ -------- -- ------ -- ---- ------------,261257.99999999997,261273.00000000003,260887,260880,260904,261292,,43,as
screen,html.Screen,2_3_1_0_1_44,2022-04-28T09:50:41.847Z,,,,,,,,,,,,,,,,,19,,,,,,,,,,,,,,398.9999999999709,,response,,,,17,D,,,,,,Space,keypress(Space),,,,speech,,,,"-------------- --- -------- -------- ---------- ---- -------<br>-- ---------- -- --- ----- ------ ----- ---- --------- ----<br>------- ------ -------- -- ------ ---------- ------ ---<br>------ -- -- ---- -- ---------- -------- ------ ---- -------<br>---- --- --------- ------- ----- --------- ---- ----- --<br>gases, -------- -- ------ -- ---- ------------",261658.00000000003,261673.99999999997,261275,261257.99999999997,261292,261680,,44,"gases,"
screen,html.Screen,2_3_1_0_1_45,2022-04-28T09:50:42.408Z,,,,,,,,,,,,,,,,,19,,,,,,,,,,,,,,571,,response,,,,17,D,,,,,,Space,keypress(Space),,,,speech,,,,"-------------- --- -------- -------- ---------- ---- -------<br>-- ---------- -- --- ----- ------ ----- ---- --------- ----<br>------- ------ -------- -- ------ ---------- ------ ---<br>------ -- -- ---- -- ---------- -------- ------ ---- -------<br>---- --- --------- ------- ----- --------- ---- ----- --<br>------ liquids, -- ------ -- ---- ------------",262219,262234,261663,261659,261680,262249,,45,"liquids,"
screen,html.Screen,2_3_1_0_1_46,2022-04-28T09:50:42.802Z,,,,,,,,,,,,,,,,,19,,,,,,,,,,,,,,395,,response,,,,17,D,,,,,,Space,keypress(Space),,,,speech,,,,-------------- --- -------- -------- ---------- ---- -------<br>-- ---------- -- --- ----- ------ ----- ---- --------- ----<br>------- ------ -------- -- ------ ---------- ------ ---<br>------ -- -- ---- -- ---------- -------- ------ ---- -------<br>---- --- --------- ------- ----- --------- ---- ----- --<br>------ -------- or ------ -- ---- ------------,262613,262628,262233,262219,262249,262638,,46,or
screen,html.Screen,2_3_1_0_1_47,2022-04-28T09:50:43.168Z,,,,,,,,,,,,,,,,,19,,,,,,,,,,,,,,375,,response,,,,17,D,,,,,,Space,keypress(Space),,,,speech,,,,-------------- --- -------- -------- ---------- ---- -------<br>-- ---------- -- --- ----- ------ ----- ---- --------- ----<br>------- ------ -------- -- ------ ---------- ------ ---<br>------ -- -- ---- -- ---------- -------- ------ ---- -------<br>---- --- --------- ------- ----- --------- ---- ----- --<br>------ -------- -- solids -- ---- ------------,262979,262996,262621,262613,262638,263010,,47,solids
screen,html.Screen,2_3_1_0_1_48,2022-04-28T09:50:43.465Z,,,,,,,,,,,,,,,,,19,,,,,,,,,,,,,,299.0000000000582,,response,,,,17,D,,,,,,Space,keypress(Space),,,,speech,,,,-------------- --- -------- -------- ---------- ---- -------<br>-- ---------- -- --- ----- ------ ----- ---- --------- ----<br>------- ------ -------- -- ------ ---------- ------ ---<br>------ -- -- ---- -- ---------- -------- ------ ---- -------<br>---- --- --------- ------- ----- --------- ---- ----- --<br>------ -------- -- ------ at ---- ------------,263276,263292.00000000006,262993,262979,263010,263297,,48,at
screen,html.Screen,2_3_1_0_1_49,2022-04-28T09:50:43.952Z,,,,,,,,,,,,,,,,,19,,,,,,,,,,,,,,497,,response,,,,17,D,,,,,,Space,keypress(Space),,,,speech,,,,-------------- --- -------- -------- ---------- ---- -------<br>-- ---------- -- --- ----- ------ ----- ---- --------- ----<br>------- ------ -------- -- ------ ---------- ------ ---<br>------ -- -- ---- -- ---------- -------- ------ ---- -------<br>---- --- --------- ------- ----- --------- ---- ----- --<br>------ -------- -- ------ -- room ------------,263763.00000000006,263777,263280,263276,263297,263801,,49,room
screen,html.Screen,2_3_1_0_1_50,2022-04-28T09:50:44.342Z,,,,,,,,,,,,,,,,,19,,,,,,,,,,,,,,385,,response,,,,17,D,,,,,,Space,keypress(Space),,,,speech,,,,-------------- --- -------- -------- ---------- ---- -------<br>-- ---------- -- --- ----- ------ ----- ---- --------- ----<br>------- ------ -------- -- ------ ---------- ------ ---<br>------ -- -- ---- -- ---------- -------- ------ ---- -------<br>---- --- --------- ------- ----- --------- ---- ----- --<br>------ -------- -- ------ -- ---- temperature.,264154,264169,263784,263764,263801,264175,,50,temperature.
Item 17,flow.Loop,2_3_1_0_1,2022-04-28T09:50:44.343Z,,,,,,,,,,,,,,,,,,,,,,,,,,,,,,,21987,,completion,,,,,,,,,,,,,,,,,,,,,264154,264169,242165,242166,242182,264175,,,
Question 1,html.Screen,2_3_1_0_2,2022-04-28T09:50:48.092Z,,,,,,,,,,,,,,,,,,,,,,,,,,,,false,FALSE,,3763,,response,,,,17,D,,,,,,TRUE,click #choice-1,,,,speech,,,,,267903,267920,264157,264154,264175,267932,,,
Question 2,html.Screen,2_3_1_0_3,2022-04-28T09:50:52.602Z,,,,,,,,,,,,,,,,,,,,,,,,,,,,false,FALSE,,4522,,response,,,,17,D,,,,,,TRUE,click #choice-1,,,,speech,,,,,272414,272433,267911,267903,267932,272452,,,
Item 17,flow.Sequence,2_3_1_0,2022-04-28T09:50:52.603Z,,,,,,,,,,,,,,,,,,,,,,,,,,,,,,,37247,,completion,,,,,,,,,,,,,,,,,,,,,272414,272433,235170,235171,235186,272452,,,
Holding screen,html.Screen,2_3_1_1_0,2022-04-28T09:50:59.630Z,,,,,,,,,,,,,,,,,,,,,,,,,,,,,,,7006,,timeout,,,,,,,,,,,,,,,,,,,,,279442,279441,272433,272415,272452,279458,,,
screen,html.Screen,2_3_1_1_1_0,2022-04-28T09:51:01.338Z,,,,,,,,,,,,,,,,,2,,,,,,,,,,,,,,1725,,response,,,,1,D,,,,,,Space,keypress(Space),,,,speech,,,,Two ---- ------ --- ------- ---------- ------- ----------<br>--- --------- --- ----------- ------- ----- ------- ---<br>--------- ---- -- --- ---- -- --------- -- ---- -------<br>-- --------- ------ --- ----- ------ ---- --- --------- --<br>------ - ---- -- --- ----------- ------- ---- ----- -----<br>--- -------- - ------ ---- -- ----- ---- --- --- -----------<br>-- -------,281150.00000000006,281166,279441,279442,279458,281185,,0,Two
screen,html.Screen,2_3_1_1_1_1,2022-04-28T09:51:01.781Z,,,,,,,,,,,,,,,,,2,,,,,,,,,,,,,,442,,response,,,,1,D,,,,,,Space,keypress(Space),,,,speech,,,,--- days ------ --- ------- ---------- ------- ----------<br>--- --------- --- ----------- ------- ----- ------- ---<br>--------- ---- -- --- ---- -- --------- -- ---- -------<br>-- --------- ------ --- ----- ------ ---- --- --------- --<br>------ - ---- -- --- ----------- ------- ---- ----- -----<br>--- -------- - ------ ---- -- ----- ---- --- --- -----------<br>-- -------,281593,281610,281168,281150.00000000006,281185,281628,,1,days
screen,html.Screen,2_3_1_1_1_2,2022-04-28T09:51:02.129Z,,,,,,,,,,,,,,,,,2,,,,,,,,,,,,,,347,,response,,,,1,D,,,,,,Space,keypress(Space),,,,speech,,,,"--- ---- later, --- ------- ---------- ------- ----------<br>--- --------- --- ----------- ------- ----- ------- ---<br>--------- ---- -- --- ---- -- --------- -- ---- -------<br>-- --------- ------ --- ----- ------ ---- --- --------- --<br>------ - ---- -- --- ----------- ------- ---- ----- -----<br>--- -------- - ------ ---- -- ----- ---- --- --- -----------<br>-- -------",281941.00000000006,281958,281611,281593,281628,281967,,2,"later,"
