sender,sender_type,sender_id,timestamp,meta,,Blues,Classical,Country,Dance,Electronic,Folk,Gospel,Hip-Hop,Jazz,Latin,Musical/Film,New-age,Pop,Prolific_id,Provo_ID,R&B,Rap,Reggae,Religious,Rock,Soul,Swing,Traditional,age,artist_name,correct,correctResponse,distraction,duration,education,ended_on,familiarity,gender,headphone_check_performance,item,list,music_frequency,offensiveness,pleasantness,position_correct,preference,response,response_action,snippet_file,song_name,song_rating,sound,stimulus_1,stimulus_2,stimulus_3,text,time_commit,time_end,time_render,time_run,time_show,time_switch,url,word,word_ID
Prolific ID,html.Form,0,2022-04-25T11:49:10.634Z,"{""labjs_version"":""20.2.2"",""labjs_build"":{""flavor"":""production"",""commit"":""a25486e0c714a0ae2ce03ff94b7bb6896854dcfa""},""location"":""https://run.pavlovia.org/mvasilev/prolific3_music_a/"",""userAgent"":""Mozilla/5.0 (Windows NT 10.0; Win64; x64) AppleWebKit/537.36 (KHTML, like Gecko) Chrome/100.0.4896.127 Safari/537.36"",""platform"":""Win32"",""language"":""en-GB"",""locale"":""en-GB"",""timeZone"":""Europe/London"",""timezoneOffset"":-60,""screen_width"":1536,""screen_height"":864,""scroll_width"":1536,""scroll_height"":674,""window_innerWidth"":1536,""window_innerHeight"":722,""devicePixelRatio"":1.25}",,,,,,,,,,,,,,,6139bc7cec2d6be1c7c92f5b,,,,,,,,,,,,,,,7742.603999999627,,form submission,,,,,,,,,,,,,,,,,,,,,13602.200000001118,13601.599999999627,5842.96,5856.5,5858.996,13608.216,{},,
Introduction,html.Screen,1_0,2022-04-25T11:49:18.203Z,,,,,,,,,,,,,,,,,,,,,,,,,,,,,,,7559.984000001117,,response,,,,,,,,,,,continue,click button,,,,,,,,,21171.400000000373,21168.200000001118,13591.865,13602.599999999627,13608.216,21174.029,,,
Volume calibration,html.Screen,1_1,2022-04-25T11:49:38.838Z,,,,,,,,,,,,,,,,,,,,,,,,,,,,,,,20627.871000000374,,response,,,,,,,,,,,continue,click button,,,,,,,,,41806.09999999963,41801.90000000037,21157.741,21171.599999999627,21174.029,41805.222,,,
Task instructions,html.Screen,1_2,2022-04-25T11:49:50.468Z,,,,,,,,,,,,,,,,,,,,,,,,,,,,,,,11630.678000000371,,response,,,,,,,,,,,continue,click button,,,,,,,,,53436.59999999963,53435.90000000037,41788.964,41806.20000000112,41805.222,53461.36,,,
Sounds,html.Screen,1_3_0_0,2022-04-25T11:49:54.724Z,,,,,,,,,,,,,,,,,,,,,,,,,,,,,,,4242.385999999999,,timeout,,,,,,,,,2,,,,,,,,I,S,O,,57692.300000000745,57687.121,53420.756,53436.90000000037,53461.36,57703.746,,,
Judgement,html.Screen,1_3_0_1,2022-04-25T11:49:57.465Z,,,,,,,,,,,,,,,,,,,,,,,,,,,,true,2,,2728.3539999996283,,response,,,,,,,,,2,,2,click #choice-2,,,,,I,S,O,,60433.40000000037,60432.09999999963,57687.121,57692.59999999963,57703.746,60436.508,,,
Trial,flow.Sequence,1_3_0,2022-04-25T11:49:57.465Z,,,,,,,,,,,,,,,,,,,,,,,,,,,,,,,6970.739999999627,,completion,,,,,,,,,2,,,,,,,,I,S,O,,60433.800000000745,60432.09999999963,53420.756,53436.800000000745,53461.36,60436.508,,,
Sounds,html.Screen,1_3_1_0,2022-04-25T11:50:01.702Z,,,,,,,,,,,,,,,,,,,,,,,,,,,,,,,4249.835999999996,,timeout,,,,,,,,,1,,,,,,,,S,I,O,,64670.59999999963,64669.5,60419.958,60433.90000000037,60436.508,64686.344,,,
Judgement,html.Screen,1_3_1_1,2022-04-25T11:50:03.144Z,,,,,,,,,,,,,,,,,,,,,,,,,,,,true,1,,1425.4560000007477,,response,,,,,,,,,1,,1,click #choice-1,,,,,S,I,O,,66112.59999999963,66111.80000000075,64669.5,64670.800000000745,64686.344,66119.326,,,
Trial,flow.Sequence,1_3_1,2022-04-25T11:50:03.145Z,,,,,,,,,,,,,,,,,,,,,,,,,,,,,,,5675.292000000743,,completion,,,,,,,,,1,,,,,,,,S,I,O,,66113,66111.80000000075,60419.958,60433.800000000745,60436.508,66119.326,,,
Sounds,html.Screen,1_3_2_0,2022-04-25T11:50:07.385Z,,,,,,,,,,,,,,,,,,,,,,,,,,,,,,,4249.474000000002,,timeout,,,,,,,,,3,,,,,,,,I,O,S,,70353.59999999963,70352.381,66102.631,66113.09999999963,66119.326,70368.8,,,
Judgement,html.Screen,1_3_2_1,2022-04-25T11:50:08.207Z,,,,,,,,,,,,,,,,,,,,,,,,,,,,true,3,,805.2999999996246,,response,,,,,,,,,3,,3,click #choice-3,,,,,I,O,S,,71175,71174.09999999963,70352.381,70353.80000000075,70368.8,71185.665,,,
Trial,flow.Sequence,1_3_2,2022-04-25T11:50:08.207Z,,,,,,,,,,,,,,,,,,,,,,,,,,,,,,,5054.7739999996265,,completion,,,,,,,,,3,,,,,,,,I,O,S,,71175.30000000075,71174.09999999963,66102.631,66113,66119.326,71185.665,,,
Sounds,html.Screen,1_3_3_0,2022-04-25T11:50:12.452Z,,,,,,,,,,,,,,,,,,,,,,,,,,,,,,,4249.53300000001,,timeout,,,,,,,,,2,,,,,,,,O,S,I,,75420.5,75418.323,71169.139,71175.5,71185.665,75435.198,,,
Judgement,html.Screen,1_3_3_1,2022-04-25T11:50:13.511Z,,,,,,,,,,,,,,,,,,,,,,,,,,,,true,2,,1042.801999999996,,response,,,,,,,,,2,,2,click #choice-2,,,,,O,S,I,,76479,76478,75418.323,75420.59999999963,75435.198,76484.874,,,
Trial,flow.Sequence,1_3_3,2022-04-25T11:50:13.511Z,,,,,,,,,,,,,,,,,,,,,,,,,,,,,,,5292.335000000006,,completion,,,,,,,,,2,,,,,,,,O,S,I,,76479.20000000112,76478,71169.139,71175.40000000037,71185.665,76484.874,,,
Sounds,html.Screen,1_3_4_0,2022-04-25T11:50:17.751Z,,,,,,,,,,,,,,,,,,,,,,,,,,,,,,,4249.566000000006,,timeout,,,,,,,,,3,,,,,,,,O,I,S,,80719.5,80717.975,76468.543,76479.30000000075,76484.874,80734.44,,,
Judgement,html.Screen,1_3_4_1,2022-04-25T11:50:18.477Z,,,,,,,,,,,,,,,,,,,,,,,,,,,,true,3,,709.7600000011153,,response,,,,,,,,,3,,3,click #choice-3,,,,,O,I,S,,81445,81444.20000000112,80717.975,80719.80000000075,80734.44,81451.063,,,
Trial,flow.Sequence,1_3_4,2022-04-25T11:50:18.477Z,,,,,,,,,,,,,,,,,,,,,,,,,,,,,,,4959.326000001121,,completion,,,,,,,,,3,,,,,,,,O,I,S,,81445.20000000112,81444.20000000112,76468.543,76479.30000000075,76484.874,81451.063,,,
Sounds,html.Screen,1_3_5_0,2022-04-25T11:50:22.716Z,,,,,,,,,,,,,,,,,,,,,,,,,,,,,,,4249.705000000002,,timeout,,,,,,,,,1,,,,,,,,S,O,I,,85684.70000000112,85684.191,81434.638,81445.30000000075,81451.063,85700.768,,,
Judgement,html.Screen,1_3_5_1,2022-04-25T11:50:23.735Z,,,,,,,,,,,,,,,,,,,,,,,,,,,,true,1,,1001.4320000011212,,response,,,,,,,,,1,,1,click #choice-1,,,,,S,O,I,,86703.20000000112,86702.20000000112,85684.191,85684.80000000075,85700.768,86717.13,,,
Trial,flow.Sequence,1_3_5,2022-04-25T11:50:23.735Z,,,,,,,,,,,,,,,,,,,,,,,,,,,,,,,5251.137000001123,,completion,,,,,,,,,1,,,,,,,,S,O,I,,86703.30000000075,86702.20000000112,81434.638,81445.30000000075,81451.063,86717.13,,,
Task,flow.Loop,1_3,2022-04-25T11:50:23.741Z,,,,,,,,,,,,,,,,,,,,,,,,,,,,,,,33240.84000000112,,completion,,,1,,,,,,,,,,,,,,,,,,86709.20000000112,86702.20000000112,53420.756,53436.800000000745,53461.36,86717.13,,,
Trap,html.Screen,1_4,2022-04-25T11:50:23.742Z,,,,,,,,,,,,,,,,,,,,,,,,,,,,,,,NaN,,skipped,,,,,,,,,,,,,,,,,,,,,86710.5,86702.20000000112,,86710.40000000037,,86717.13,,,
Thanks,html.Screen,1_5,2022-04-25T11:50:28.622Z,,,,,,,,,,,,,,,,,,,,,,,,,,,,,,,4872.67000000074,,response,,,,,,,,,,,continue,click button,,,,,,,,,91590.5,91589.80000000075,86700.561,86710.59999999963,86717.13,98499.174,,,
Headphone screening,flow.Sequence,1,2022-04-25T11:50:28.622Z,,,,,,,,,,,,,,,,,,,,,,,,,,,,,,,77981.58400000074,,completion,,,,,,,,,,,,,,,,,,,,,91590.80000000075,91589.80000000075,13591.865,13602.5,13608.216,98499.174,,,
Instructions,html.Page,2_0,2022-04-25T11:50:55.999Z,,,,,,,,,,,,,,,,,,,,,,,,,,,,,,,20467.92599999963,,form submission,,,,,,,,,,,,,,,,,,,,,118967.5,118967.09999999963,98482.48,98489.90000000037,98499.174,118980.382,,,
Holding screen,html.Screen,2_1_0_0,2022-04-25T11:51:05.996Z,,,,,,,,,,,,,,,,,,,,,,,,,,,,,,,10048.971000000005,,timeout,,,,,,,,,,,,,,,,,,,,,128964,128962.928,118964.079,118967.80000000075,118980.382,129029.353,,,
screen,html.Screen,2_1_0_1_0,2022-04-25T11:51:07.104Z,,,,,,,,,,,,,,,,,53,,,,,,,,,,,,,,1038.2469999996247,,response,,,,99,,,,,,,Space,keypress(Space),,,,,,,,When -- ----- -- ------ - ------- --- ----------<br>------------- ------ ------ ---- ---- ------- ----- -- ----<br>-------- ------- -- ---------- --- - --- ----- ----- ----<br>---- --- --- ----- --- ---- ---- ------- ----- ---- -------<br>--- --- -- ----- -- --- ---- -- --- ---- -- ------ ------<br>--- ----- -- ----,130072.5,130067.59999999963,128962.928,128964.5,129029.353,130079.389,,0,When
screen,html.Screen,2_1_0_1_1,2022-04-25T11:51:07.746Z,,,,,,,,,,,,,,,,,53,,,,,,,,,,,,,,634.2109999996319,,response,,,,99,,,,,,,Space,keypress(Space),,,,,,,,---- it ----- -- ------ - ------- --- ----------<br>------------- ------ ------ ---- ---- ------- ----- -- ----<br>-------- ------- -- ---------- --- - --- ----- ----- ----<br>---- --- --- ----- --- ---- ---- ------- ----- ---- -------<br>--- --- -- ----- -- --- ---- -- --- ---- -- ------ ------<br>--- ----- -- ----,130714.70000000112,130713.59999999963,130063.194,130072.80000000075,130079.389,130729.248,,1,it
screen,html.Screen,2_1_0_1_2,2022-04-25T11:51:08.376Z,,,,,,,,,,,,,,,,,53,,,,,,,,,,,,,,613.6520000003657,,response,,,,99,,,,,,,Space,keypress(Space),,,,,,,,---- -- comes -- ------ - ------- --- ----------<br>------------- ------ ------ ---- ---- ------- ----- -- ----<br>-------- ------- -- ---------- --- - --- ----- ----- ----<br>---- --- --- ----- --- ---- ---- ------- ----- ---- -------<br>--- --- -- ----- -- --- ---- -- --- ---- -- ------ ------<br>--- ----- -- ----,131344,131342.90000000037,130712.907,130715,130729.248,131370.115,,2,comes
screen,html.Screen,2_1_0_1_3,2022-04-25T11:51:08.952Z,,,,,,,,,,,,,,,,,53,,,,,,,,,,,,,,549.0850000011269,,response,,,,99,,,,,,,Space,keypress(Space),,,,,,,,---- -- ----- to ------ - ------- --- ----------<br>------------- ------ ------ ---- ---- ------- ----- -- ----<br>-------- ------- -- ---------- --- - --- ----- ----- ----<br>---- --- --- ----- --- ---- ---- ------- ----- ---- -------<br>--- --- -- ----- -- --- ---- -- --- ---- -- ------ ------<br>--- ----- -- ----,131920.30000000075,131919.20000000112,131329.282,131344.20000000112,131370.115,131929.08,,3,to
screen,html.Screen,2_1_0_1_4,2022-04-25T11:51:09.516Z,,,,,,,,,,,,,,,,,53,,,,,,,,,,,,,,554.2200000007579,,response,,,,99,,,,,,,Space,keypress(Space),,,,,,,,---- -- ----- -- having - ------- --- ----------<br>------------- ------ ------ ---- ---- ------- ----- -- ----<br>-------- ------- -- ---------- --- - --- ----- ----- ----<br>---- --- --- ----- --- ---- ---- ------- ----- ---- -------<br>--- --- -- ----- -- --- ---- -- --- ---- -- ------ ------<br>--- ----- -- ----,132484.40000000037,132483.30000000075,131912.923,131920.59999999963,131929.08,132495.728,,4,having
screen,html.Screen,2_1_0_1_5,2022-04-25T11:51:10.039Z,,,,,,,,,,,,,,,,,53,,,,,,,,,,,,,,511.07200000074226,,response,,,,99,,,,,,,Space,keypress(Space),,,,,,,,---- -- ----- -- ------ a ------- --- ----------<br>------------- ------ ------ ---- ---- ------- ----- -- ----<br>-------- ------- -- ---------- --- - --- ----- ----- ----<br>---- --- --- ----- --- ---- ---- ------- ----- ---- -------<br>--- --- -- ----- -- --- ---- -- --- ---- -- ------ ------<br>--- ----- -- ----,133007.80000000075,133006.80000000075,132479.523,132484.70000000112,132495.728,133012.237,,5,a
screen,html.Screen,2_1_0_1_6,2022-04-25T11:51:10.577Z,,,,,,,,,,,,,,,,,53,,,,,,,,,,,,,,532.3629999996338,,response,,,,99,,,,,,,Space,keypress(Space),,,,,,,,---- -- ----- -- ------ - lasting --- ----------<br>------------- ------ ------ ---- ---- ------- ----- -- ----<br>-------- ------- -- ---------- --- - --- ----- ----- ----<br>---- --- --- ----- --- ---- ---- ------- ----- ---- -------<br>--- --- -- ----- -- --- ---- -- --- ---- -- ------ ------<br>--- ----- -- ----,133545.5,133544.59999999963,132996.089,133008,133012.237,133562.525,,6,lasting
screen,html.Screen,2_1_0_1_7,2022-04-25T11:51:11.101Z,,,,,,,,,,,,,,,,,53,,,,,,,,,,,,,,505.7750000007509,,response,,,,99,,,,,,,Space,keypress(Space),,,,,,,,---- -- ----- -- ------ - ------- and ----------<br>------------- ------ ------ ---- ---- ------- ----- -- ----<br>-------- ------- -- ---------- --- - --- ----- ----- ----<br>---- --- --- ----- --- ---- ---- ------- ----- ---- -------<br>--- --- -- ----- -- --- ---- -- --- ---- -- ------ ------<br>--- ----- -- ----,134069.30000000075,134068.30000000075,133546.14,133545.80000000075,133562.525,134078.928,,7,and
screen,html.Screen,2_1_0_1_8,2022-04-25T11:51:11.927Z,,,,,,,,,,,,,,,,,53,,,,,,,,,,,,,,814.9720000003581,,response,,,,99,,,,,,,Space,keypress(Space),,,,,,,,---- -- ----- -- ------ - ------- --- fulfilling<br>------------- ------ ------ ---- ---- ------- ----- -- ----<br>-------- ------- -- ---------- --- - --- ----- ----- ----<br>---- --- --- ----- --- ---- ---- ------- ----- ---- -------<br>--- --- -- ----- -- --- ---- -- --- ---- -- ------ ------<br>--- ----- -- ----,134894.90000000037,134893.90000000037,134062.466,134069.59999999963,134078.928,134928.697,,8,fulfilling
screen,html.Screen,2_1_0_1_9,2022-04-25T11:51:12.542Z,,,,,,,,,,,,,,,,,53,,,,,,,,,,,,,,580.203000000387,,response,,,,99,,,,,,,Space,keypress(Space),,,,,,,,"---- -- ----- -- ------ - ------- --- ----------<br>relationship, ------ ------ ---- ---- ------- ----- -- ----<br>-------- ------- -- ---------- --- - --- ----- ----- ----<br>---- --- --- ----- --- ---- ---- ------- ----- ---- -------<br>--- --- -- ----- -- --- ---- -- --- ---- -- ------ ------<br>--- ----- -- ----",135509.90000000037,135508.90000000037,134912.338,134895.20000000112,134928.697,135511.972,,9,"relationship,"
screen,html.Screen,2_1_0_1_10,2022-04-25T11:51:13.198Z,,,,,,,,,,,,,,,,,53,,,,,,,,,,,,,,653.8280000007362,,response,,,,99,,,,,,,Space,keypress(Space),,,,,,,,---- -- ----- -- ------ - ------- --- ----------<br>------------- common ------ ---- ---- ------- ----- -- ----<br>-------- ------- -- ---------- --- - --- ----- ----- ----<br>---- --- --- ----- --- ---- ---- ------- ----- ---- -------<br>--- --- -- ----- -- --- ---- -- --- ---- -- ------ ------<br>--- ----- -- ----,136166.80000000075,136165.80000000075,135495.833,135510,135511.972,136178.58,,10,common
screen,html.Screen,2_1_0_1_11,2022-04-25T11:51:13.786Z,,,,,,,,,,,,,,,,,53,,,,,,,,,,,,,,574.6200000011304,,response,,,,99,,,,,,,Space,keypress(Space),,,,,,,,---- -- ----- -- ------ - ------- --- ----------<br>------------- ------ wisdom ---- ---- ------- ----- -- ----<br>-------- ------- -- ---------- --- - --- ----- ----- ----<br>---- --- --- ----- --- ---- ---- ------- ----- ---- -------<br>--- --- -- ----- -- --- ---- -- --- ---- -- ------ ------<br>--- ----- -- ----,136754,136753.20000000112,136162.52,136167,136178.58,136762.055,,11,wisdom
screen,html.Screen,2_1_0_1_12,2022-04-25T11:51:14.367Z,,,,,,,,,,,,,,,,,53,,,,,,,,,,,,,,572.0449999996345,,response,,,,99,,,,,,,Space,keypress(Space),,,,,,,,---- -- ----- -- ------ - ------- --- ----------<br>------------- ------ ------ says ---- ------- ----- -- ----<br>-------- ------- -- ---------- --- - --- ----- ----- ----<br>---- --- --- ----- --- ---- ---- ------- ----- ---- -------<br>--- --- -- ----- -- --- ---- -- --- ---- -- ------ ------<br>--- ----- -- ----,137335.30000000075,137334.09999999963,136745.43,136754.20000000112,136762.055,137345.173,,12,says
screen,html.Screen,2_1_0_1_13,2022-04-25T11:51:14.915Z,,,,,,,,,,,,,,,,,53,,,,,,,,,,,,,,537.0270000011078,,response,,,,99,,,,,,,Space,keypress(Space),,,,,,,,---- -- ----- -- ------ - ------- --- ----------<br>------------- ------ ------ ---- that ------- ----- -- ----<br>-------- ------- -- ---------- --- - --- ----- ----- ----<br>---- --- --- ----- --- ---- ---- ------- ----- ---- -------<br>--- --- -- ----- -- --- ---- -- --- ---- -- ------ ------<br>--- ----- -- ----,137883.20000000112,137882.20000000112,137328.955,137335.59999999963,137345.173,137895.403,,13,that
screen,html.Screen,2_1_0_1_14,2022-04-25T11:51:15.470Z,,,,,,,,,,,,,,,,,53,,,,,,,,,,,,,,542.1969999996363,,response,,,,99,,,,,,,Space,keypress(Space),,,,,,,,---- -- ----- -- ------ - ------- --- ----------<br>------------- ------ ------ ---- ---- feeling ----- -- ----<br>-------- ------- -- ---------- --- - --- ----- ----- ----<br>---- --- --- ----- --- ---- ---- ------- ----- ---- -------<br>--- --- -- ----- -- --- ---- -- --- ---- -- ------ ------<br>--- ----- -- ----,138438.30000000075,138437.59999999963,137878.887,137883.40000000037,137895.403,138445.405,,14,feeling
screen,html.Screen,2_1_0_1_15,2022-04-25T11:51:16.366Z,,,,,,,,,,,,,,,,,53,,,,,,,,,,,,,,887.4950000003737,,response,,,,99,,,,,,,Space,keypress(Space),,,,,,,,---- -- ----- -- ------ - ------- --- ----------<br>------------- ------ ------ ---- ---- ------- close -- ----<br>-------- ------- -- ---------- --- - --- ----- ----- ----<br>---- --- --- ----- --- ---- ---- ------- ----- ---- -------<br>--- --- -- ----- -- --- ---- -- --- ---- -- ------ ------<br>--- ----- -- ----,139334.09999999963,139332.90000000037,138428.678,138438.40000000037,138445.405,139344.941,,15,close
screen,html.Screen,2_1_0_1_16,2022-04-25T11:51:16.981Z,,,,,,,,,,,,,,,,,53,,,,,,,,,,,,,,603.5590000000084,,response,,,,99,,,,,,,Space,keypress(Space),,,,,,,,---- -- ----- -- ------ - ------- --- ----------<br>------------- ------ ------ ---- ---- ------- ----- to ----<br>-------- ------- -- ---------- --- - --- ----- ----- ----<br>---- --- --- ----- --- ---- ---- ------- ----- ---- -------<br>--- --- -- ----- -- --- ---- -- --- ---- -- ------ ------<br>--- ----- -- ----,139949.5,139948.5,139328.886,139334.40000000037,139344.941,139961.549,,16,to
screen,html.Screen,2_1_0_1_17,2022-04-25T11:51:17.801Z,,,,,,,,,,,,,,,,,53,,,,,,,,,,,,,,806.751000000746,,response,,,,99,,,,,,,Space,keypress(Space),,,,,,,,---- -- ----- -- ------ - ------- --- ----------<br>------------- ------ ------ ---- ---- ------- ----- -- your<br>-------- ------- -- ---------- --- - --- ----- ----- ----<br>---- --- --- ----- --- ---- ---- ------- ----- ---- -------<br>--- --- -- ----- -- --- ---- -- --- ---- -- ------ ------<br>--- ----- -- ----,140769.20000000112,140768.30000000075,139945.118,139949.70000000112,139961.549,140778.231,,17,your
screen,html.Screen,2_1_0_1_18,2022-04-25T11:51:18.300Z,,,,,,,,,,,,,,,,,53,,,,,,,,,,,,,,489.4690000011178,,response,,,,99,,,,,,,Space,keypress(Space),,,,,,,,---- -- ----- -- ------ - ------- --- ----------<br>------------- ------ ------ ---- ---- ------- ----- -- ----<br>romantic ------- -- ---------- --- - --- ----- ----- ----<br>---- --- --- ----- --- ---- ---- ------- ----- ---- -------<br>--- --- -- ----- -- --- ---- -- --- ---- -- ------ ------<br>--- ----- -- ----,141268.5,141267.70000000112,140762.171,140769.40000000037,140778.231,141277.998,,18,romantic
screen,html.Screen,2_1_0_1_19,2022-04-25T11:51:18.886Z,,,,,,,,,,,,,,,,,53,,,,,,,,,,,,,,575.0020000000077,,response,,,,99,,,,,,,Space,keypress(Space),,,,,,,,---- -- ----- -- ------ - ------- --- ----------<br>------------- ------ ------ ---- ---- ------- ----- -- ----<br>-------- partner -- ---------- --- - --- ----- ----- ----<br>---- --- --- ----- --- ---- ---- ------- ----- ---- -------<br>--- --- -- ----- -- --- ---- -- --- ---- -- ------ ------<br>--- ----- -- ----,141854,141853,141262.045,141268.70000000112,141277.998,141861.318,,19,partner
screen,html.Screen,2_1_0_1_20,2022-04-25T11:51:19.411Z,,,,,,,,,,,,,,,,,53,,,,,,,,,,,,,,516.6820000000007,,response,,,,99,,,,,,,Space,keypress(Space),,,,,,,,---- -- ----- -- ------ - ------- --- ----------<br>------------- ------ ------ ---- ---- ------- ----- -- ----<br>-------- ------- is ---------- --- - --- ----- ----- ----<br>---- --- --- ----- --- ---- ---- ------- ----- ---- -------<br>--- --- -- ----- -- --- ---- -- --- ---- -- ------ ------<br>--- ----- -- ----,142379,142378,141845.16,141854.30000000075,141861.318,142394.81,,20,is
screen,html.Screen,2_1_0_1_21,2022-04-25T11:51:20.433Z,,,,,,,,,,,,,,,,,53,,,,,,,,,,,,,,1005.6900000000023,,response,,,,99,,,,,,,Space,keypress(Space),,,,,,,,---- -- ----- -- ------ - ------- --- ----------<br>------------- ------ ------ ---- ---- ------- ----- -- ----<br>-------- ------- -- paramount. --- - --- ----- ----- ----<br>---- --- --- ----- --- ---- ---- ------- ----- ---- -------<br>--- --- -- ----- -- --- ---- -- --- ---- -- ------ ------<br>--- ----- -- ----,143401.5,143400.5,142378.208,142379.30000000075,142394.81,143444.51,,21,paramount.
screen,html.Screen,2_1_0_1_22,2022-04-25T11:51:21.055Z,,,,,,,,,,,,,,,,,53,,,,,,,,,,,,,,577.6900000011083,,response,,,,99,,,,,,,Space,keypress(Space),,,,,,,,---- -- ----- -- ------ - ------- --- ----------<br>------------- ------ ------ ---- ---- ------- ----- -- ----<br>-------- ------- -- ---------- But - --- ----- ----- ----<br>---- --- --- ----- --- ---- ---- ------- ----- ---- -------<br>--- --- -- ----- -- --- ---- -- --- ---- -- ------ ------<br>--- ----- -- ----,144023.09999999963,144022.20000000112,143395.008,143401.80000000075,143444.51,144027.741,,22,But
screen,html.Screen,2_1_0_1_23,2022-04-25T11:51:21.757Z,,,,,,,,,,,,,,,,,53,,,,,,,,,,,,,,696.4590000011085,,response,,,,99,,,,,,,Space,keypress(Space),,,,,,,,---- -- ----- -- ------ - ------- --- ----------<br>------------- ------ ------ ---- ---- ------- ----- -- ----<br>-------- ------- -- ---------- --- a --- ----- ----- ----<br>---- --- --- ----- --- ---- ---- ------- ----- ---- -------<br>--- --- -- ----- -- --- ---- -- --- ---- -- ------ ------<br>--- ----- -- ----,144725.20000000112,144724.20000000112,144011.476,144023.30000000075,144027.741,144727.655,,23,a
screen,html.Screen,2_1_0_1_24,2022-04-25T11:51:22.668Z,,,,,,,,,,,,,,,,,53,,,,,,,,,,,,,,907.8450000000012,,response,,,,99,,,,,,,Space,keypress(Space),,,,,,,,---- -- ----- -- ------ - ------- --- ----------<br>------------- ------ ------ ---- ---- ------- ----- -- ----<br>-------- ------- -- ---------- --- - new ----- ----- ----<br>---- --- --- ----- --- ---- ---- ------- ----- ---- -------<br>--- --- -- ----- -- --- ---- -- --- ---- -- ------ ------<br>--- ----- -- ----,145636.59999999963,145635.5,144711.388,144725.30000000075,144727.655,145644.286,,24,new
screen,html.Screen,2_1_0_1_25,2022-04-25T11:51:23.395Z,,,,,,,,,,,,,,,,,53,,,,,,,,,,,,,,718.4140000011248,,response,,,,99,,,,,,,Space,keypress(Space),,,,,,,,---- -- ----- -- ------ - ------- --- ----------<br>------------- ------ ------ ---- ---- ------- ----- -- ----<br>-------- ------- -- ---------- --- - --- study ----- ----<br>---- --- --- ----- --- ---- ---- ------- ----- ---- -------<br>--- --- -- ----- -- --- ---- -- --- ---- -- ------ ------<br>--- ----- -- ----,146363.70000000112,146362.70000000112,145628.025,145636.90000000037,145644.286,146377.67,,25,study
screen,html.Screen,2_1_0_1_26,2022-04-25T11:51:24.055Z,,,,,,,,,,,,,,,,,53,,,,,,,,,,,,,,645.1300000007323,,response,,,,99,,,,,,,Space,keypress(Space),,,,,,,,---- -- ----- -- ------ - ------- --- ----------<br>------------- ------ ------ ---- ---- ------- ----- -- ----<br>-------- ------- -- ---------- --- - --- ----- finds ----<br>---- --- --- ----- --- ---- ---- ------- ----- ---- -------<br>--- --- -- ----- -- --- ---- -- --- ---- -- ------ ------<br>--- ----- -- ----,147023.70000000112,147022.80000000075,146361.219,146363.80000000075,146377.67,147027.492,,26,finds
screen,html.Screen,2_1_0_1_27,2022-04-25T11:51:24.662Z,,,,,,,,,,,,,,,,,53,,,,,,,,,,,,,,601.5080000000016,,response,,,,99,,,,,,,Space,keypress(Space),,,,,,,,---- -- ----- -- ------ - ------- --- ----------<br>------------- ------ ------ ---- ---- ------- ----- -- ----<br>-------- ------- -- ---------- --- - --- ----- ----- that<br>---- --- --- ----- --- ---- ---- ------- ----- ---- -------<br>--- --- -- ----- -- --- ---- -- --- ---- -- ------ ------<br>--- ----- -- ----,147629.90000000037,147629,147011.176,147024,147027.492,147644.108,,27,that
screen,html.Screen,2_1_0_1_28,2022-04-25T11:51:25.242Z,,,,,,,,,,,,,,,,,53,,,,,,,,,,,,,,564.7920000003651,,response,,,,99,,,,,,,Space,keypress(Space),,,,,,,,---- -- ----- -- ------ - ------- --- ----------<br>------------- ------ ------ ---- ---- ------- ----- -- ----<br>-------- ------- -- ---------- --- - --- ----- ----- ----<br>it's --- --- ----- --- ---- ---- ------- ----- ---- -------<br>--- --- -- ----- -- --- ---- -- --- ---- -- ------ ------<br>--- ----- -- ----,148209.90000000037,148208.90000000037,147627.79,147630.09999999963,147644.108,148244.005,,28,it's
screen,html.Screen,2_1_0_1_29,2022-04-25T11:51:25.701Z,,,,,,,,,,,,,,,,,53,,,,,,,,,,,,,,424.3950000003679,,response,,,,99,,,,,,,Space,keypress(Space),,,,,,,,---- -- ----- -- ------ - ------- --- ----------<br>------------- ------ ------ ---- ---- ------- ----- -- ----<br>-------- ------- -- ---------- --- - --- ----- ----- ----<br>---- not --- ----- --- ---- ---- ------- ----- ---- -------<br>--- --- -- ----- -- --- ---- -- --- ---- -- ------ ------<br>--- ----- -- ----,148669.59999999963,148668.40000000037,148227.673,148210.20000000112,148244.005,148677.301,,29,not
screen,html.Screen,2_1_0_1_30,2022-04-25T11:51:26.311Z,,,,,,,,,,,,,,,,,53,,,,,,,,,,,,,,601.0990000003658,,response,,,,99,,,,,,,Space,keypress(Space),,,,,,,,---- -- ----- -- ------ - ------- --- ----------<br>------------- ------ ------ ---- ---- ------- ----- -- ----<br>-------- ------- -- ---------- --- - --- ----- ----- ----<br>---- --- how ----- --- ---- ---- ------- ----- ---- -------<br>--- --- -- ----- -- --- ---- -- --- ---- -- ------ ------<br>--- ----- -- ----,149279.40000000037,149278.40000000037,148660.796,148669.80000000075,148677.301,149293.876,,30,how
screen,html.Screen,2_1_0_1_31,2022-04-25T11:51:26.940Z,,,,,,,,,,,,,,,,,53,,,,,,,,,,,,,,613.5240000003832,,response,,,,99,,,,,,,Space,keypress(Space),,,,,,,,---- -- ----- -- ------ - ------- --- ----------<br>------------- ------ ------ ---- ---- ------- ----- -- ----<br>-------- ------- -- ---------- --- - --- ----- ----- ----<br>---- --- --- close --- ---- ---- ------- ----- ---- -------<br>--- --- -- ----- -- --- ---- -- --- ---- -- ------ ------<br>--- ----- -- ----,149908.59999999963,149907.40000000037,149277.55,149279.59999999963,149293.876,149942.599,,31,close
screen,html.Screen,2_1_0_1_32,2022-04-25T11:51:27.605Z,,,,,,,,,,,,,,,,,53,,,,,,,,,,,,,,629.50099999964,,response,,,,99,,,,,,,Space,keypress(Space),,,,,,,,---- -- ----- -- ------ - ------- --- ----------<br>------------- ------ ------ ---- ---- ------- ----- -- ----<br>-------- ------- -- ---------- --- - --- ----- ----- ----<br>---- --- --- ----- you ---- ---- ------- ----- ---- -------<br>--- --- -- ----- -- --- ---- -- --- ---- -- ------ ------<br>--- ----- -- ----,150573,150572.09999999963,149894.063,149908.80000000075,149942.599,150577.069,,32,you
screen,html.Screen,2_1_0_1_33,2022-04-25T11:51:28.806Z,,,,,,,,,,,,,,,,,53,,,,,,,,,,,,,,1196.5309999996389,,response,,,,99,,,,,,,Space,keypress(Space),,,,,,,,---- -- ----- -- ------ - ------- --- ----------<br>------------- ------ ------ ---- ---- ------- ----- -- ----<br>-------- ------- -- ---------- --- - --- ----- ----- ----<br>---- --- --- ----- --- feel ---- ------- ----- ---- -------<br>--- --- -- ----- -- --- ---- -- --- ---- -- ------ ------<br>--- ----- -- ----,151774.20000000112,151773.59999999963,150560.886,150573.30000000075,150577.069,151776.922,,33,feel
screen,html.Screen,2_1_0_1_34,2022-04-25T11:51:29.450Z,,,,,,,,,,,,,,,,,53,,,,,,,,,,,,,,640.5780000000086,,response,,,,99,,,,,,,Space,keypress(Space),,,,,,,,---- -- ----- -- ------ - ------- --- ----------<br>------------- ------ ------ ---- ---- ------- ----- -- ----<br>-------- ------- -- ---------- --- - --- ----- ----- ----<br>---- --- --- ----- --- ---- that ------- ----- ---- -------<br>--- --- -- ----- -- --- ---- -- --- ---- -- ------ ------<br>--- ----- -- ----,152418.70000000112,152417.5,151760.992,151774.40000000037,151776.922,152426.953,,34,that
screen,html.Screen,2_1_0_1_35,2022-04-25T11:51:30.064Z,,,,,,,,,,,,,,,,,53,,,,,,,,,,,,,,604.3470000007364,,response,,,,99,,,,,,,Space,keypress(Space),,,,,,,,---- -- ----- -- ------ - ------- --- ----------<br>------------- ------ ------ ---- ---- ------- ----- -- ----<br>-------- ------- -- ---------- --- - --- ----- ----- ----<br>---- --- --- ----- --- ---- ---- matters ----- ---- -------<br>--- --- -- ----- -- --- ---- -- --- ---- -- ------ ------<br>--- ----- -- ----,153032.20000000112,153031.30000000075,152410.455,152419,152426.953,153043.797,,35,matters
screen,html.Screen,2_1_0_1_36,2022-04-25T11:51:31.327Z,,,,,,,,,,,,,,,,,53,,,,,,,,,,,,,,1250.802999999636,,response,,,,99,,,,,,,Space,keypress(Space),,,,,,,,"---- -- ----- -- ------ - ------- --- ----------<br>------------- ------ ------ ---- ---- ------- ----- -- ----<br>-------- ------- -- ---------- --- - --- ----- ----- ----<br>---- --- --- ----- --- ---- ---- ------- most, ---- -------<br>--- --- -- ----- -- --- ---- -- --- ---- -- ------ ------<br>--- ----- -- ----",154295.70000000112,154294.59999999963,153027.374,153032.5,153043.797,154310.016,,36,"most,"
screen,html.Screen,2_1_0_1_37,2022-04-25T11:51:32.010Z,,,,,,,,,,,,,,,,,53,,,,,,,,,,,,,,667.2840000007418,,response,,,,99,,,,,,,Space,keypress(Space),,,,,,,,---- -- ----- -- ------ - ------- --- ----------<br>------------- ------ ------ ---- ---- ------- ----- -- ----<br>-------- ------- -- ---------- --- - --- ----- ----- ----<br>---- --- --- ----- --- ---- ---- ------- ----- it's -------<br>--- --- -- ----- -- --- ---- -- --- ---- -- ------ ------<br>--- ----- -- ----,154978.20000000112,154977.30000000075,154294.155,154296,154310.016,154993.416,,37,it's
screen,html.Screen,2_1_0_1_38,2022-04-25T11:51:32.997Z,,,,,,,,,,,,,,,,,53,,,,,,,,,,,,,,970.9840000003751,,response,,,,99,,,,,,,Space,keypress(Space),,,,,,,,---- -- ----- -- ------ - ------- --- ----------<br>------------- ------ ------ ---- ---- ------- ----- -- ----<br>-------- ------- -- ---------- --- - --- ----- ----- ----<br>---- --- --- ----- --- ---- ---- ------- ----- ---- whether<br>--- --- -- ----- -- --- ---- -- --- ---- -- ------ ------<br>--- ----- -- ----,155965.30000000075,155964.40000000037,154977.126,154978.40000000037,154993.416,155976.784,,38,whether
screen,html.Screen,2_1_0_1_39,2022-04-25T11:51:33.534Z,,,,,,,,,,,,,,,,,53,,,,,,,,,,,,,,524.7159999999858,,response,,,,99,,,,,,,Space,keypress(Space),,,,,,,,---- -- ----- -- ------ - ------- --- ----------<br>------------- ------ ------ ---- ---- ------- ----- -- ----<br>-------- ------- -- ---------- --- - --- ----- ----- ----<br>---- --- --- ----- --- ---- ---- ------- ----- ---- -------<br>you --- -- ----- -- --- ---- -- --- ---- -- ------ ------<br>--- ----- -- ----,156502.40000000037,156501.5,155960.637,155965.5,155976.784,156509.814,,39,you
screen,html.Screen,2_1_0_1_40,2022-04-25T11:51:34.173Z,,,,,,,,,,,,,,,,,53,,,,,,,,,,,,,,629.986000000732,,response,,,,99,,,,,,,Space,keypress(Space),,,,,,,,---- -- ----- -- ------ - ------- --- ----------<br>------------- ------ ------ ---- ---- ------- ----- -- ----<br>-------- ------- -- ---------- --- - --- ----- ----- ----<br>---- --- --- ----- --- ---- ---- ------- ----- ---- -------<br>--- are -- ----- -- --- ---- -- --- ---- -- ------ ------<br>--- ----- -- ----,157140.90000000037,157139.80000000075,156493.541,156502.59999999963,156509.814,157143.019,,40,are
screen,html.Screen,2_1_0_1_41,2022-04-25T11:51:34.748Z,,,,,,,,,,,,,,,,,53,,,,,,,,,,,,,,571.9809999999998,,response,,,,99,,,,,,,Space,keypress(Space),,,,,,,,---- -- ----- -- ------ - ------- --- ----------<br>------------- ------ ------ ---- ---- ------- ----- -- ----<br>-------- ------- -- ---------- --- - --- ----- ----- ----<br>---- --- --- ----- --- ---- ---- ------- ----- ---- -------<br>--- --- as ----- -- --- ---- -- --- ---- -- ------ ------<br>--- ----- -- ----,157715.90000000037,157715,157126.917,157141.20000000112,157143.019,157726.778,,41,as
screen,html.Screen,2_1_0_1_42,2022-04-25T11:51:35.572Z,,,,,,,,,,,,,,,,,53,,,,,,,,,,,,,,812.4220000011264,,response,,,,99,,,,,,,Space,keypress(Space),,,,,,,,---- -- ----- -- ------ - ------- --- ----------<br>------------- ------ ------ ---- ---- ------- ----- -- ----<br>-------- ------- -- ---------- --- - --- ----- ----- ----<br>---- --- --- ----- --- ---- ---- ------- ----- ---- -------<br>--- --- -- close -- --- ---- -- --- ---- -- ------ ------<br>--- ----- -- ----,158540.20000000112,158539.20000000112,157710.261,157716.20000000112,157726.778,158542.873,,42,close
screen,html.Screen,2_1_0_1_43,2022-04-25T11:51:36.164Z,,,,,,,,,,,,,,,,,53,,,,,,,,,,,,,,588.3270000011253,,response,,,,99,,,,,,,Space,keypress(Space),,,,,,,,---- -- ----- -- ------ - ------- --- ----------<br>------------- ------ ------ ---- ---- ------- ----- -- ----<br>-------- ------- -- ---------- --- - --- ----- ----- ----<br>---- --- --- ----- --- ---- ---- ------- ----- ---- -------<br>--- --- -- ----- as --- ---- -- --- ---- -- ------ ------<br>--- ----- -- ----,159132.20000000112,159131.20000000112,158526.75,158540.5,158542.873,159142.842,,43,as
screen,html.Screen,2_1_0_1_44,2022-04-25T11:51:36.811Z,,,,,,,,,,,,,,,,,53,,,,,,,,,,,,,,635.5580000003683,,response,,,,99,,,,,,,Space,keypress(Space),,,,,,,,---- -- ----- -- ------ - ------- --- ----------<br>------------- ------ ------ ---- ---- ------- ----- -- ----<br>-------- ------- -- ---------- --- - --- ----- ----- ----<br>---- --- --- ----- --- ---- ---- ------- ----- ---- -------<br>--- --- -- ----- -- you ---- -- --- ---- -- ------ ------<br>--- ----- -- ----,159779.30000000075,159778.40000000037,159126.571,159132.5,159142.842,159793.045,,44,you
screen,html.Screen,2_1_0_1_45,2022-04-25T11:51:37.361Z,,,,,,,,,,,,,,,,,53,,,,,,,,,,,,,,535.0549999996147,,response,,,,99,,,,,,,Space,keypress(Space),,,,,,,,---- -- ----- -- ------ - ------- --- ----------<br>------------- ------ ------ ---- ---- ------- ----- -- ----<br>-------- ------- -- ---------- --- - --- ----- ----- ----<br>---- --- --- ----- --- ---- ---- ------- ----- ---- -------<br>--- --- -- ----- -- --- want -- --- ---- -- ------ ------<br>--- ----- -- ----,160328.90000000037,160328.09999999963,159776.357,159779.5,159793.045,160342.667,,45,want
screen,html.Screen,2_1_0_1_46,2022-04-25T11:51:37.929Z,,,,,,,,,,,,,,,,,53,,,,,,,,,,,,,,553.3330000000133,,response,,,,99,,,,,,,Space,keypress(Space),,,,,,,,---- -- ----- -- ------ - ------- --- ----------<br>------------- ------ ------ ---- ---- ------- ----- -- ----<br>-------- ------- -- ---------- --- - --- ----- ----- ----<br>---- --- --- ----- --- ---- ---- ------- ----- ---- -------<br>--- --- -- ----- -- --- ---- to --- ---- -- ------ ------<br>--- ----- -- ----,160896.90000000037,160896,160326.54,160329.20000000112,160342.667,160909.568,,46,to
screen,html.Screen,2_1_0_1_47,2022-04-25T11:51:38.513Z,,,,,,,,,,,,,,,,,53,,,,,,,,,,,,,,570.2320000007458,,response,,,,99,,,,,,,Space,keypress(Space),,,,,,,,"---- -- ----- -- ------ - ------- --- ----------<br>------------- ------ ------ ---- ---- ------- ----- -- ----<br>-------- ------- -- ---------- --- - --- ----- ----- ----<br>---- --- --- ----- --- ---- ---- ------- ----- ---- -------<br>--- --- -- ----- -- --- ---- -- be, ---- -- ------ ------<br>--- ----- -- ----",161480.90000000037,161479.80000000075,160892.955,160897.20000000112,160909.568,161492.7,,47,"be,"
screen,html.Screen,2_1_0_1_48,2022-04-25T11:51:39.071Z,,,,,,,,,,,,,,,,,53,,,,,,,,,,,,,,546.1000000007334,,response,,,,99,,,,,,,Space,keypress(Space),,,,,,,,---- -- ----- -- ------ - ------- --- ----------<br>------------- ------ ------ ---- ---- ------- ----- -- ----<br>-------- ------- -- ---------- --- - --- ----- ----- ----<br>---- --- --- ----- --- ---- ---- ------- ----- ---- -------<br>--- --- -- ----- -- --- ---- -- --- even -- ------ ------<br>--- ----- -- ----,162039.70000000112,162038.80000000075,161476.13,161481.20000000112,161492.7,162042.534,,48,even
screen,html.Screen,2_1_0_1_49,2022-04-25T11:51:39.686Z,,,,,,,,,,,,,,,,,53,,,,,,,,,,,,,,611.2660000007309,,response,,,,99,,,,,,,Space,keypress(Space),,,,,,,,---- -- ----- -- ------ - ------- --- ----------<br>------------- ------ ------ ---- ---- ------- ----- -- ----<br>-------- ------- -- ---------- --- - --- ----- ----- ----<br>---- --- --- ----- --- ---- ---- ------- ----- ---- -------<br>--- --- -- ----- -- --- ---- -- --- ---- if ------ ------<br>--- ----- -- ----,162654.70000000112,162653.80000000075,162026.298,162039.90000000037,162042.534,162659.094,,49,if
screen,html.Screen,2_1_0_1_50,2022-04-25T11:51:40.260Z,,,,,,,,,,,,,,,,,53,,,,,,,,,,,,,,568.6060000011057,,response,,,,99,,,,,,,Space,keypress(Space),,,,,,,,---- -- ----- -- ------ - ------- --- ----------<br>------------- ------ ------ ---- ---- ------- ----- -- ----<br>-------- ------- -- ---------- --- - --- ----- ----- ----<br>---- --- --- ----- --- ---- ---- ------- ----- ---- -------<br>--- --- -- ----- -- --- ---- -- --- ---- -- that's ------<br>--- ----- -- ----,163228.80000000075,163227.70000000112,162642.953,162655,162659.094,163242.532,,50,that's
screen,html.Screen,2_1_0_1_51,2022-04-25T11:51:40.794Z,,,,,,,,,,,,,,,,,53,,,,,,,,,,,,,,518.7680000007385,,response,,,,99,,,,,,,Space,keypress(Space),,,,,,,,---- -- ----- -- ------ - ------- --- ----------<br>------------- ------ ------ ---- ---- ------- ----- -- ----<br>-------- ------- -- ---------- --- - --- ----- ----- ----<br>---- --- --- ----- --- ---- ---- ------- ----- ---- -------<br>--- --- -- ----- -- --- ---- -- --- ---- -- ------ really<br>--- ----- -- ----,163762.30000000075,163761.30000000075,163226.181,163229.09999999963,163242.532,163775.921,,51,really
screen,html.Screen,2_1_0_1_52,2022-04-25T11:51:41.254Z,,,,,,,,,,,,,,,,,53,,,,,,,,,,,,,,445.0789999999979,,response,,,,99,,,,,,,Space,keypress(Space),,,,,,,,---- -- ----- -- ------ - ------- --- ----------<br>------------- ------ ------ ---- ---- ------- ----- -- ----<br>-------- ------- -- ---------- --- - --- ----- ----- ----<br>---- --- --- ----- --- ---- ---- ------- ----- ---- -------<br>--- --- -- ----- -- --- ---- -- --- ---- -- ------ ------<br>not ----- -- ----,164221.90000000037,164221,163759.364,163762.59999999963,163775.921,164225.607,,52,not
screen,html.Screen,2_1_0_1_53,2022-04-25T11:51:41.697Z,,,,,,,,,,,,,,,,,53,,,,,,,,,,,,,,438.193000000756,,response,,,,99,,,,,,,Space,keypress(Space),,,,,,,,---- -- ----- -- ------ - ------- --- ----------<br>------------- ------ ------ ---- ---- ------- ----- -- ----<br>-------- ------- -- ---------- --- - --- ----- ----- ----<br>---- --- --- ----- --- ---- ---- ------- ----- ---- -------<br>--- --- -- ----- -- --- ---- -- --- ---- -- ------ ------<br>--- close -- ----,164664.80000000075,164663.80000000075,164209.342,164222.20000000112,164225.607,164675.591,,53,close
screen,html.Screen,2_1_0_1_54,2022-04-25T11:51:42.138Z,,,,,,,,,,,,,,,,,53,,,,,,,,,,,,,,429.9090000000142,,response,,,,99,,,,,,,Space,keypress(Space),,,,,,,,---- -- ----- -- ------ - ------- --- ----------<br>------------- ------ ------ ---- ---- ------- ----- -- ----<br>-------- ------- -- ---------- --- - --- ----- ----- ----<br>---- --- --- ----- --- ---- ---- ------- ----- ---- -------<br>--- --- -- ----- -- --- ---- -- --- ---- -- ------ ------<br>--- ----- at ----,165106.5,165105.5,164659.305,164665.09999999963,164675.591,165108.849,,54,at
screen,html.Screen,2_1_0_1_55,2022-04-25T11:51:43.158Z,,,,,,,,,,,,,,,,,53,,,,,,,,,,,,,,1016.1510000000126,,response,,,,99,,,,,,,Space,keypress(Space),,,,,,,,---- -- ----- -- ------ - ------- --- ----------<br>------------- ------ ------ ---- ---- ------- ----- -- ----<br>-------- ------- -- ---------- --- - --- ----- ----- ----<br>---- --- --- ----- --- ---- ---- ------- ----- ---- -------<br>--- --- -- ----- -- --- ---- -- --- ---- -- ------ ------<br>--- ----- -- all.,166125.90000000037,166125,165092.558,165106.80000000075,165108.849,166142.116,,55,all.
Item 99,flow.Loop,2_1_0_1,2022-04-25T11:51:43.158Z,,,,,,,,,,,,,,,,,,,,,,,,,,,,,,,37095.647,,completion,,,,,A,,,,,,,,,,,silence,,,,,166126.30000000075,166125,128962.928,128964.30000000075,129029.353,166142.116,,,
Question 1,html.Screen,2_1_0_2,2022-04-25T11:51:49.047Z,,,,,,,,,,,,,,,,,,,,,,,,,,,,false,FALSE,,5871.883999999991,,response,,,,99,A,,,,,,TRUE,click #choice-1,,,,silence,,,,,172015,172014,166126.245,166126.59999999963,166142.116,172024.81,,,
Question 2,html.Screen,2_1_0_3,2022-04-25T11:51:53.622Z,,,,,,,,,,,,,,,,,,,,,,,,,,,,false,TRUE,,4564.990000000747,,response,,,,99,A,,,,,,FALSE,click #choice-2,,,,silence,,,,,176590.70000000112,176589.80000000075,172008.106,172015.09999999963,172024.81,176619.899,,,
Item 99,flow.Sequence,2_1_0,2022-04-25T11:51:53.623Z,,,,,,,,,,,,,,,,,,,,,,,,,,,,,,,57609.41800000075,,completion,,,,,,,,,,,,,,,,,,,,,176590.90000000037,176589.80000000075,118964.079,118967.70000000112,118980.382,176619.899,,,
Holding screen,html.Screen,2_1_1_0,2022-04-25T11:52:03.641Z,,,,,,,,,,,,,,,,,,,,,,,,,,,,,,,10003.331999999995,,timeout,,,,,,,,,,,,,,,,,,,,,186608.5,186606.865,176574.652,176591.09999999963,176619.899,186623.231,,,
screen,html.Screen,2_1_1_1_0,2022-04-25T11:52:05.593Z,,,,,,,,,,,,,,,,,54,,,,,,,,,,,,,,1937.0690000007453,,response,,,,100,,,,,,,Space,keypress(Space),,,,,,,,At --- ---- --- ------ ----- ------- ---- -- --- ------- --<br>------- ---------- ------ -- ----- -- ----- -- ---- ------<br>--- ----- --- --- ------ -------- ----- --- ------ ----- --<br>----- ----- ---------- --- --- ------ ------ ---- -- ------<br>------- --- ------ ----- --- ---- ------- -- ---- --- --<br>------- ------,188561,188560.30000000075,186606.865,186608.90000000037,186623.231,188573.029,,0,At
screen,html.Screen,2_1_1_1_1,2022-04-25T11:52:06.251Z,,,,,,,,,,,,,,,,,54,,,,,,,,,,,,,,645.371000000363,,response,,,,100,,,,,,,Space,keypress(Space),,,,,,,,-- the ---- --- ------ ----- ------- ---- -- --- ------- --<br>------- ---------- ------ -- ----- -- ----- -- ---- ------<br>--- ----- --- --- ------ -------- ----- --- ------ ----- --<br>----- ----- ---------- --- --- ------ ------ ---- -- ------<br>------- --- ------ ----- --- ---- ------- -- ---- --- --<br>------- ------,189219.40000000037,189218.40000000037,188556.664,188561.20000000112,188573.029,189223.003,,1,the
screen,html.Screen,2_1_1_1_2,2022-04-25T11:52:07.059Z,,,,,,,,,,,,,,,,,54,,,,,,,,,,,,,,803.497000000003,,response,,,,100,,,,,,,Space,keypress(Space),,,,,,,,-- --- time --- ------ ----- ------- ---- -- --- ------- --<br>------- ---------- ------ -- ----- -- ----- -- ---- ------<br>--- ----- --- --- ------ -------- ----- --- ------ ----- --<br>----- ----- ---------- --- --- ------ ------ ---- -- ------<br>------- --- ------ ----- --- ---- ------- -- ---- --- --<br>------- ------,190027,190026.5,189206.838,189219.59999999963,189223.003,190039.498,,2,time
screen,html.Screen,2_1_1_1_3,2022-04-25T11:52:08.173Z,,,,,,,,,,,,,,,,,54,,,,,,,,,,,,,,1100.4020000003802,,response,,,,100,,,,,,,Space,keypress(Space),,,,,,,,-- --- ---- the ------ ----- ------- ---- -- --- ------- --<br>------- ---------- ------ -- ----- -- ----- -- ---- ------<br>--- ----- --- --- ------ -------- ----- --- ------ ----- --<br>----- ----- ---------- --- --- ------ ------ ---- -- ------<br>------- --- ------ ----- --- ---- ------- -- ---- --- --<br>------- ------,191141,191139.90000000037,190023.328,190027.09999999963,190039.498,191156.332,,3,the
screen,html.Screen,2_1_1_1_4,2022-04-25T11:52:08.748Z,,,,,,,,,,,,,,,,,54,,,,,,,,,,,,,,558.3680000011227,,response,,,,100,,,,,,,Space,keypress(Space),,,,,,,,-- --- ---- --- French ----- ------- ---- -- --- ------- --<br>------- ---------- ------ -- ----- -- ----- -- ---- ------<br>--- ----- --- --- ------ -------- ----- --- ------ ----- --<br>----- ----- ---------- --- --- ------ ------ ---- -- ------<br>------- --- ------ ----- --- ---- ------- -- ---- --- --<br>------- ------,191715.70000000112,191714.70000000112,191139.859,191141.30000000075,191156.332,191722.853,,4,French
screen,html.Screen,2_1_1_1_5,2022-04-25T11:52:09.248Z,,,,,,,,,,,,,,,,,54,,,,,,,,,,,,,,491.1469999999972,,response,,,,100,,,,,,,Space,keypress(Space),,,,,,,,-- --- ---- --- ------ crown ------- ---- -- --- ------- --<br>------- ---------- ------ -- ----- -- ----- -- ---- ------<br>--- ----- --- --- ------ -------- ----- --- ------ ----- --<br>----- ----- ---------- --- --- ------ ------ ---- -- ------<br>------- --- ------ ----- --- ---- ------- -- ---- --- --<br>------- ------,192216.5,192214,191706.324,191716,191722.853,192222.916,,5,crown
screen,html.Screen,2_1_1_1_6,2022-04-25T11:52:10.087Z,,,,,,,,,,,,,,,,,54,,,,,,,,,,,,,,831.5840000000026,,response,,,,100,,,,,,,Space,keypress(Space),,,,,,,,-- --- ---- --- ------ ----- secured ---- -- --- ------- --<br>------- ---------- ------ -- ----- -- ----- -- ---- ------<br>--- ----- --- --- ------ -------- ----- --- ------ ----- --<br>----- ----- ---------- --- --- ------ ------ ---- -- ------<br>------- --- ------ ----- --- ---- ------- -- ---- --- --<br>------- ------,193055.09999999963,193054.5,192206.667,192216.70000000112,192222.916,193072.515,,6,secured
screen,html.Screen,2_1_1_1_7,2022-04-25T11:52:10.612Z,,,,,,,,,,,,,,,,,54,,,,,,,,,,,,,,506.1850000011036,,response,,,,100,,,,,,,Space,keypress(Space),,,,,,,,-- --- ---- --- ------ ----- ------- much -- --- ------- --<br>------- ---------- ------ -- ----- -- ----- -- ---- ------<br>--- ----- --- --- ------ -------- ----- --- ------ ----- --<br>----- ----- ---------- --- --- ------ ------ ---- -- ------<br>------- --- ------ ----- --- ---- ------- -- ---- --- --<br>------- ------,193579.59999999963,193578.70000000112,193039.89,193055.30000000075,193072.515,193589.315,,7,much
screen,html.Screen,2_1_1_1_8,2022-04-25T11:52:11.042Z,,,,,,,,,,,,,,,,,54,,,,,,,,,,,,,,419.28499999962514,,response,,,,100,,,,,,,Space,keypress(Space),,,,,,,,-- --- ---- --- ------ ----- ------- ---- of --- ------- --<br>------- ---------- ------ -- ----- -- ----- -- ---- ------<br>--- ----- --- --- ------ -------- ----- --- ------ ----- --<br>----- ----- ---------- --- --- ------ ------ ---- -- ------<br>------- --- ------ ----- --- ---- ------- -- ---- --- --<br>------- ------,194009.59999999963,194008.59999999963,193572.9,193579.80000000075,193589.315,194022.481,,8,of
screen,html.Screen,2_1_1_1_9,2022-04-25T11:52:11.538Z,,,,,,,,,,,,,,,,,54,,,,,,,,,,,,,,482.01900000000023,,response,,,,100,,,,,,,Space,keypress(Space),,,,,,,,-- --- ---- --- ------ ----- ------- ---- -- its ------- --<br>------- ---------- ------ -- ----- -- ----- -- ---- ------<br>--- ----- --- --- ------ -------- ----- --- ------ ----- --<br>----- ----- ---------- --- --- ------ ------ ---- -- ------<br>------- --- ------ ----- --- ---- ------- -- ---- --- --<br>------- ------,194505.5,194504.5,194005.94,194009.90000000037,194022.481,194522.593,,9,its
screen,html.Screen,2_1_1_1_10,2022-04-25T11:52:12.204Z,,,,,,,,,,,,,,,,,54,,,,,,,,,,,,,,649.006999999634,,response,,,,100,,,,,,,Space,keypress(Space),,,,,,,,-- --- ---- --- ------ ----- ------- ---- -- --- revenue --<br>------- ---------- ------ -- ----- -- ----- -- ---- ------<br>--- ----- --- --- ------ -------- ----- --- ------ ----- --<br>----- ----- ---------- --- --- ------ ------ ---- -- ------<br>------- --- ------ ----- --- ---- ------- -- ---- --- --<br>------- ------,195172.40000000037,195171.59999999963,194506.12,194505.80000000075,194522.593,195189.281,,10,revenue
screen,html.Screen,2_1_1_1_11,2022-04-25T11:52:12.747Z,,,,,,,,,,,,,,,,,54,,,,,,,,,,,,,,524.6190000003844,,response,,,,100,,,,,,,Space,keypress(Space),,,,,,,,-- --- ---- --- ------ ----- ------- ---- -- --- ------- by<br>------- ---------- ------ -- ----- -- ----- -- ---- ------<br>--- ----- --- --- ------ -------- ----- --- ------ ----- --<br>----- ----- ---------- --- --- ------ ------ ---- -- ------<br>------- --- ------ ----- --- ---- ------- -- ---- --- --<br>------- ------,195714.90000000037,195713.90000000037,195172.999,195172.70000000112,195189.281,195722.481,,11,by
screen,html.Screen,2_1_1_1_12,2022-04-25T11:52:13.201Z,,,,,,,,,,,,,,,,,54,,,,,,,,,,,,,,445.91900000037276,,response,,,,100,,,,,,,Space,keypress(Space),,,,,,,,-- --- ---- --- ------ ----- ------- ---- -- --- ------- --<br>issuing ---------- ------ -- ----- -- ----- -- ---- ------<br>--- ----- --- --- ------ -------- ----- --- ------ ----- --<br>----- ----- ---------- --- --- ------ ------ ---- -- ------<br>------- --- ------ ----- --- ---- ------- -- ---- --- --<br>------- ------,196169.40000000037,196168.40000000037,195705.962,195715.40000000037,195722.481,196172.302,,12,issuing
screen,html.Screen,2_1_1_1_13,2022-04-25T11:52:13.715Z,,,,,,,,,,,,,,,,,54,,,,,,,,,,,,,,509.498000000749,,response,,,,100,,,,,,,Space,keypress(Space),,,,,,,,-- --- ---- --- ------ ----- ------- ---- -- --- ------- --<br>------- government ------ -- ----- -- ----- -- ---- ------<br>--- ----- --- --- ------ -------- ----- --- ------ ----- --<br>----- ----- ---------- --- --- ------ ------ ---- -- ------<br>------- --- ------ ----- --- ---- ------- -- ---- --- --<br>------- ------,196682.70000000112,196681.80000000075,196156.008,196169.70000000112,196172.302,196688.822,,13,government
screen,html.Screen,2_1_1_1_14,2022-04-25T11:52:14.441Z,,,,,,,,,,,,,,,,,54,,,,,,,,,,,,,,719.2779999996419,,response,,,,100,,,,,,,Space,keypress(Space),,,,,,,,-- --- ---- --- ------ ----- ------- ---- -- --- ------- --<br>------- ---------- bonds. -- ----- -- ----- -- ---- ------<br>--- ----- --- --- ------ -------- ----- --- ------ ----- --<br>----- ----- ---------- --- --- ------ ------ ---- -- ------<br>------- --- ------ ----- --- ---- ------- -- ---- --- --<br>------- ------,197408.5,197408.09999999963,196672.517,196682.90000000037,196688.822,197422.026,,14,bonds.
screen,html.Screen,2_1_1_1_15,2022-04-25T11:52:14.959Z,,,,,,,,,,,,,,,,,54,,,,,,,,,,,,,,503.5739999996149,,response,,,,100,,,,,,,Space,keypress(Space),,,,,,,,-- --- ---- --- ------ ----- ------- ---- -- --- ------- --<br>------- ---------- ------ In ----- -- ----- -- ---- ------<br>--- ----- --- --- ------ -------- ----- --- ------ ----- --<br>----- ----- ---------- --- --- ------ ------ ---- -- ------<br>------- --- ------ ----- --- ---- ------- -- ---- --- --<br>------- ------,197926.70000000112,197925.59999999963,197405.963,197408.70000000112,197422.026,197938.741,,15,In
screen,html.Screen,2_1_1_1_16,2022-04-25T11:52:16.082Z,,,,,,,,,,,,,,,,,54,,,,,,,,,,,,,,1110.059000000736,,response,,,,100,,,,,,,Space,keypress(Space),,,,,,,,"-- --- ---- --- ------ ----- ------- ---- -- --- ------- --<br>------- ---------- ------ -- 1727, -- ----- -- ---- ------<br>--- ----- --- --- ------ -------- ----- --- ------ ----- --<br>----- ----- ---------- --- --- ------ ------ ---- -- ------<br>------- --- ------ ----- --- ---- ------- -- ---- --- --<br>------- ------",199049.90000000037,199048.80000000075,197922.46,197927,197938.741,199055.338,,16,"1727,"
screen,html.Screen,2_1_1_1_17,2022-04-25T11:52:16.671Z,,,,,,,,,,,,,,,,,54,,,,,,,,,,,,,,583.0620000003837,,response,,,,100,,,,,,,Space,keypress(Space),,,,,,,,-- --- ---- --- ------ ----- ------- ---- -- --- ------- --<br>------- ---------- ------ -- ----- in ----- -- ---- ------<br>--- ----- --- --- ------ -------- ----- --- ------ ----- --<br>----- ----- ---------- --- --- ------ ------ ---- -- ------<br>------- --- ------ ----- --- ---- ------- -- ---- --- --<br>------- ------,199639.30000000075,199638.40000000037,199039.311,199050.20000000112,199055.338,199655.543,,17,in
screen,html.Screen,2_1_1_1_18,2022-04-25T11:52:17.186Z,,,,,,,,,,,,,,,,,54,,,,,,,,,,,,,,497.15700000111246,,response,,,,100,,,,,,,Space,keypress(Space),,,,,,,,-- --- ---- --- ------ ----- ------- ---- -- --- ------- --<br>------- ---------- ------ -- ----- -- order -- ---- ------<br>--- ----- --- --- ------ -------- ----- --- ------ ----- --<br>----- ----- ---------- --- --- ------ ------ ---- -- ------<br>------- --- ------ ----- --- ---- ------- -- ---- --- --<br>------- ------,200153.59999999963,200152.70000000112,199639.116,199639.5,199655.543,200176.271,,18,order
screen,html.Screen,2_1_1_1_19,2022-04-25T11:52:17.861Z,,,,,,,,,,,,,,,,,54,,,,,,,,,,,,,,651.6290000003646,,response,,,,100,,,,,,,Space,keypress(Space),,,,,,,,-- --- ---- --- ------ ----- ------- ---- -- --- ------- --<br>------- ---------- ------ -- ----- -- ----- to ---- ------<br>--- ----- --- --- ------ -------- ----- --- ------ ----- --<br>----- ----- ---------- --- --- ------ ------ ---- -- ------<br>------- --- ------ ----- --- ---- ------- -- ---- --- --<br>------- ------,200829,200827.90000000037,200139.136,200153.80000000075,200176.271,200838.416,,19,to
screen,html.Screen,2_1_1_1_20,2022-04-25T11:52:18.506Z,,,,,,,,,,,,,,,,,54,,,,,,,,,,,,,,634.9840000003751,,response,,,,100,,,,,,,Space,keypress(Space),,,,,,,,-- --- ---- --- ------ ----- ------- ---- -- --- ------- --<br>------- ---------- ------ -- ----- -- ----- -- save ------<br>--- ----- --- --- ------ -------- ----- --- ------ ----- --<br>----- ----- ---------- --- --- ------ ------ ---- -- ------<br>------- --- ------ ----- --- ---- ------- -- ---- --- --<br>------- ------,201474.30000000075,201473.40000000037,200822.112,200829.20000000112,200838.416,201488.557,,20,save
screen,html.Screen,2_1_1_1_21,2022-04-25T11:52:19.134Z,,,,,,,,,,,,,,,,,54,,,,,,,,,,,,,,613.1430000011169,,response,,,,100,,,,,,,Space,keypress(Space),,,,,,,,"-- --- ---- --- ------ ----- ------- ---- -- --- ------- --<br>------- ---------- ------ -- ----- -- ----- -- ---- money,<br>--- ----- --- --- ------ -------- ----- --- ------ ----- --<br>----- ----- ---------- --- --- ------ ------ ---- -- ------<br>------- --- ------ ----- --- ---- ------- -- ---- --- --<br>------- ------",202102.30000000075,202101.70000000112,201471.951,201474.59999999963,201488.557,202104.904,,21,"money,"
screen,html.Screen,2_1_1_1_22,2022-04-25T11:52:19.620Z,,,,,,,,,,,,,,,,,54,,,,,,,,,,,,,,482.496000000363,,response,,,,100,,,,,,,Space,keypress(Space),,,,,,,,-- --- ---- --- ------ ----- ------- ---- -- --- ------- --<br>------- ---------- ------ -- ----- -- ----- -- ---- ------<br>the ----- --- --- ------ -------- ----- --- ------ ----- --<br>----- ----- ---------- --- --- ------ ------ ---- -- ------<br>------- --- ------ ----- --- ---- ------- -- ---- --- --<br>------- ------,202588.5,202587.40000000037,202088.875,202102.5,202104.904,202604.915,,22,the
screen,html.Screen,2_1_1_1_23,2022-04-25T11:52:20.286Z,,,,,,,,,,,,,,,,,54,,,,,,,,,,,,,,648.1849999996193,,response,,,,100,,,,,,,Space,keypress(Space),,,,,,,,-- --- ---- --- ------ ----- ------- ---- -- --- ------- --<br>------- ---------- ------ -- ----- -- ----- -- ---- ------<br>--- state --- --- ------ -------- ----- --- ------ ----- --<br>----- ----- ---------- --- --- ------ ------ ---- -- ------<br>------- --- ------ ----- --- ---- ------- -- ---- --- --<br>------- ------,203253.5,203253.09999999963,202588.485,202588.70000000112,202604.915,203276.438,,23,state
screen,html.Screen,2_1_1_1_24,2022-04-25T11:52:20.781Z,,,,,,,,,,,,,,,,,54,,,,,,,,,,,,,,472.56200000000536,,response,,,,100,,,,,,,Space,keypress(Space),,,,,,,,-- --- ---- --- ------ ----- ------- ---- -- --- ------- --<br>------- ---------- ------ -- ----- -- ----- -- ---- ------<br>--- ----- cut --- ------ -------- ----- --- ------ ----- --<br>----- ----- ---------- --- --- ------ ------ ---- -- ------<br>------- --- ------ ----- --- ---- ------- -- ---- --- --<br>------- ------,203749.5,203749,203238.68,203253.59999999963,203276.438,203754.667,,24,cut
screen,html.Screen,2_1_1_1_25,2022-04-25T11:52:21.235Z,,,,,,,,,,,,,,,,,54,,,,,,,,,,,,,,447.33300000001327,,response,,,,100,,,,,,,Space,keypress(Space),,,,,,,,-- --- ---- --- ------ ----- ------- ---- -- --- ------- --<br>------- ---------- ------ -- ----- -- ----- -- ---- ------<br>--- ----- --- the ------ -------- ----- --- ------ ----- --<br>----- ----- ---------- --- --- ------ ------ ---- -- ------<br>------- --- ------ ----- --- ---- ------- -- ---- --- --<br>------- ------,204202.5,204202,203738.192,203749.5,203754.667,204204.696,,25,the
screen,html.Screen,2_1_1_1_26,2022-04-25T11:52:21.915Z,,,,,,,,,,,,,,,,,54,,,,,,,,,,,,,,677.7040000003763,,response,,,,100,,,,,,,Space,keypress(Space),,,,,,,,-- --- ---- --- ------ ----- ------- ---- -- --- ------- --<br>------- ---------- ------ -- ----- -- ----- -- ---- ------<br>--- ----- --- --- bonds' -------- ----- --- ------ ----- --<br>----- ----- ---------- --- --- ------ ------ ---- -- ------<br>------- --- ------ ----- --- ---- ------- -- ---- --- --<br>------- ------,204883.30000000075,204882.40000000037,204188.266,204202.59999999963,204204.696,204888.029,,26,bonds'
screen,html.Screen,2_1_1_1_27,2022-04-25T11:52:22.499Z,,,,,,,,,,,,,,,,,54,,,,,,,,,,,,,,577.671000001108,,response,,,,100,,,,,,,Space,keypress(Space),,,,,,,,-- --- ---- --- ------ ----- ------- ---- -- --- ------- --<br>------- ---------- ------ -- ----- -- ----- -- ---- ------<br>--- ----- --- --- ------ interest ----- --- ------ ----- --<br>----- ----- ---------- --- --- ------ ------ ---- -- ------<br>------- --- ------ ----- --- ---- ------- -- ---- --- --<br>------- ------,205466.80000000075,205465.70000000112,204871.813,204883.5,204888.029,205471.517,,27,interest
screen,html.Screen,2_1_1_1_28,2022-04-25T11:52:23.283Z,,,,,,,,,,,,,,,,,54,,,,,,,,,,,,,,779.4830000000075,,response,,,,100,,,,,,,Space,keypress(Space),,,,,,,,-- --- ---- --- ------ ----- ------- ---- -- --- ------- --<br>------- ---------- ------ -- ----- -- ----- -- ---- ------<br>--- ----- --- --- ------ -------- rate. --- ------ ----- --<br>----- ----- ---------- --- --- ------ ------ ---- -- ------<br>------- --- ------ ----- --- ---- ------- -- ---- --- --<br>------- ------,206251.40000000037,206251,205454.947,205467.09999999963,205471.517,206254.404,,28,rate.
screen,html.Screen,2_1_1_1_29,2022-04-25T11:52:25.551Z,,,,,,,,,,,,,,,,,54,,,,,,,,,,,,,,2263.796000001108,,response,,,,100,,,,,,,Space,keypress(Space),,,,,,,,-- --- ---- --- ------ ----- ------- ---- -- --- ------- --<br>------- ---------- ------ -- ----- -- ----- -- ---- ------<br>--- ----- --- --- ------ -------- ----- The ------ ----- --<br>----- ----- ---------- --- --- ------ ------ ---- -- ------<br>------- --- ------ ----- --- ---- ------- -- ---- --- --<br>------- ------,208519.30000000075,208518.20000000112,206238.156,206251.5,206254.404,208551.291,,29,The
screen,html.Screen,2_1_1_1_30,2022-04-25T11:52:26.017Z,,,,,,,,,,,,,,,,,54,,,,,,,,,,,,,,432.6090000003751,,response,,,,100,,,,,,,Space,keypress(Space),,,,,,,,-- --- ---- --- ------ ----- ------- ---- -- --- ------- --<br>------- ---------- ------ -- ----- -- ----- -- ---- ------<br>--- ----- --- --- ------ -------- ----- --- market ----- --<br>----- ----- ---------- --- --- ------ ------ ---- -- ------<br>------- --- ------ ----- --- ---- ------- -- ---- --- --<br>------- ------,208985.09999999963,208983.90000000037,208505.493,208519.59999999963,208551.291,208987.495,,30,market
screen,html.Screen,2_1_1_1_31,2022-04-25T11:52:26.930Z,,,,,,,,,,,,,,,,,54,,,,,,,,,,,,,,909.5050000000047,,response,,,,100,,,,,,,Space,keypress(Space),,,,,,,,-- --- ---- --- ------ ----- ------- ---- -- --- ------- --<br>------- ---------- ------ -- ----- -- ----- -- ---- ------<br>--- ----- --- --- ------ -------- ----- --- ------ value --<br>----- ----- ---------- --- --- ------ ------ ---- -- ------<br>------- --- ------ ----- --- ---- ------- -- ---- --- --<br>------- ------,209898,209897,208971.299,208985.5,208987.495,209904.157,,31,value
screen,html.Screen,2_1_1_1_32,2022-04-25T11:52:27.725Z,,,,,,,,,,,,,,,,,54,,,,,,,,,,,,,,788.243000000366,,response,,,,100,,,,,,,Space,keypress(Space),,,,,,,,-- --- ---- --- ------ ----- ------- ---- -- --- ------- --<br>------- ---------- ------ -- ----- -- ----- -- ---- ------<br>--- ----- --- --- ------ -------- ----- --- ------ ----- of<br>----- ----- ---------- --- --- ------ ------ ---- -- ------<br>------- --- ------ ----- --- ---- ------- -- ---- --- --<br>------- ------,210692.90000000037,210692.40000000037,209888.137,209898.20000000112,209904.157,210703.989,,32,of
screen,html.Screen,2_1_1_1_33,2022-04-25T11:52:28.162Z,,,,,,,,,,,,,,,,,54,,,,,,,,,,,,,,425.41100000037113,,response,,,,100,,,,,,,Space,keypress(Space),,,,,,,,-- --- ---- --- ------ ----- ------- ---- -- --- ------- --<br>------- ---------- ------ -- ----- -- ----- -- ---- ------<br>--- ----- --- --- ------ -------- ----- --- ------ ----- --<br>these ----- ---------- --- --- ------ ------ ---- -- ------<br>------- --- ------ ----- --- ---- ------- -- ---- --- --<br>------- ------,211130.40000000037,211129.40000000037,210687.77,210693,210703.989,211137.285,,33,these
screen,html.Screen,2_1_1_1_34,2022-04-25T11:52:28.691Z,,,,,,,,,,,,,,,,,54,,,,,,,,,,,,,,520.814999999624,,response,,,,100,,,,,,,Space,keypress(Space),,,,,,,,-- --- ---- --- ------ ----- ------- ---- -- --- ------- --<br>------- ---------- ------ -- ----- -- ----- -- ---- ------<br>--- ----- --- --- ------ -------- ----- --- ------ ----- --<br>----- bonds ---------- --- --- ------ ------ ---- -- ------<br>------- --- ------ ----- --- ---- ------- -- ---- --- --<br>------- ------,211658.90000000037,211658.09999999963,211121.209,211130.70000000112,211137.285,211670.855,,34,bonds
screen,html.Screen,2_1_1_1_35,2022-04-25T11:52:29.239Z,,,,,,,,,,,,,,,,,54,,,,,,,,,,,,,,535.244999999617,,response,,,,100,,,,,,,Space,keypress(Space),,,,,,,,"-- --- ---- --- ------ ----- ------- ---- -- --- ------- --<br>------- ---------- ------ -- ----- -- ----- -- ---- ------<br>--- ----- --- --- ------ -------- ----- --- ------ ----- --<br>----- ----- plummeted, --- --- ------ ------ ---- -- ------<br>------- --- ------ ----- --- ---- ------- -- ---- --- --<br>------- ------",212207,212206.09999999963,211654.363,211659.20000000112,211670.855,212220.461,,35,"plummeted,"
screen,html.Screen,2_1_1_1_36,2022-04-25T11:52:29.693Z,,,,,,,,,,,,,,,,,54,,,,,,,,,,,,,,439.23900000110734,,response,,,,100,,,,,,,Space,keypress(Space),,,,,,,,-- --- ---- --- ------ ----- ------- ---- -- --- ------- --<br>------- ---------- ------ -- ----- -- ----- -- ---- ------<br>--- ----- --- --- ------ -------- ----- --- ------ ----- --<br>----- ----- ---------- and --- ------ ------ ---- -- ------<br>------- --- ------ ----- --- ---- ------- -- ---- --- --<br>------- ------,212660.5,212659.70000000112,212204.35,212207,212220.461,212670.446,,36,and
screen,html.Screen,2_1_1_1_37,2022-04-25T11:52:30.198Z,,,,,,,,,,,,,,,,,54,,,,,,,,,,,,,,494.1539999996312,,response,,,,100,,,,,,,Space,keypress(Space),,,,,,,,-- --- ---- --- ------ ----- ------- ---- -- --- ------- --<br>------- ---------- ------ -- ----- -- ----- -- ---- ------<br>--- ----- --- --- ------ -------- ----- --- ------ ----- --<br>----- ----- ---------- --- the ------ ------ ---- -- ------<br>------- --- ------ ----- --- ---- ------- -- ---- --- --<br>------- ------,213165.70000000112,213164.59999999963,212654.042,212660.59999999963,212670.446,213170.393,,37,the
screen,html.Screen,2_1_1_1_38,2022-04-25T11:52:30.820Z,,,,,,,,,,,,,,,,,54,,,,,,,,,,,,,,616.2069999996165,,response,,,,100,,,,,,,Space,keypress(Space),,,,,,,,-- --- ---- --- ------ ----- ------- ---- -- --- ------- --<br>------- ---------- ------ -- ----- -- ----- -- ---- ------<br>--- ----- --- --- ------ -------- ----- --- ------ ----- --<br>----- ----- ---------- --- --- market ------ ---- -- ------<br>------- --- ------ ----- --- ---- ------- -- ---- --- --<br>------- ------,213787.5,213786.59999999963,213153.992,213165.90000000037,213170.393,213803.953,,38,market
screen,html.Screen,2_1_1_1_39,2022-04-25T11:52:31.333Z,,,,,,,,,,,,,,,,,54,,,,,,,,,,,,,,495.84700000073644,,response,,,,100,,,,,,,Space,keypress(Space),,,,,,,,-- --- ---- --- ------ ----- ------- ---- -- --- ------- --<br>------- ---------- ------ -- ----- -- ----- -- ---- ------<br>--- ----- --- --- ------ -------- ----- --- ------ ----- --<br>----- ----- ---------- --- --- ------ became ---- -- ------<br>------- --- ------ ----- --- ---- ------- -- ---- --- --<br>------- ------,214301.09999999963,214299.80000000075,213787.522,213787.80000000075,213803.953,214303.693,,39,became
screen,html.Screen,2_1_1_1_40,2022-04-25T11:52:31.828Z,,,,,,,,,,,,,,,,,54,,,,,,,,,,,,,,491.2070000003732,,response,,,,100,,,,,,,Space,keypress(Space),,,,,,,,-- --- ---- --- ------ ----- ------- ---- -- --- ------- --<br>------- ---------- ------ -- ----- -- ----- -- ---- ------<br>--- ----- --- --- ------ -------- ----- --- ------ ----- --<br>----- ----- ---------- --- --- ------ ------ wary -- ------<br>------- --- ------ ----- --- ---- ------- -- ---- --- --<br>------- ------,214795.90000000037,214794.90000000037,214287.245,214301.40000000037,214303.693,214803.707,,40,wary
screen,html.Screen,2_1_1_1_41,2022-04-25T11:52:32.267Z,,,,,,,,,,,,,,,,,54,,,,,,,,,,,,,,430.4930000011227,,response,,,,100,,,,,,,Space,keypress(Space),,,,,,,,-- --- ---- --- ------ ----- ------- ---- -- --- ------- --<br>------- ---------- ------ -- ----- -- ----- -- ---- ------<br>--- ----- --- --- ------ -------- ----- --- ------ ----- --<br>----- ----- ---------- --- --- ------ ------ ---- of ------<br>------- --- ------ ----- --- ---- ------- -- ---- --- --<br>------- ------,215235.20000000112,215234.20000000112,214787.181,214796.20000000112,214803.707,215258.907,,41,of
screen,html.Screen,2_1_1_1_42,2022-04-25T11:52:32.976Z,,,,,,,,,,,,,,,,,54,,,,,,,,,,,,,,684.0929999999935,,response,,,,100,,,,,,,Space,keypress(Space),,,,,,,,-- --- ---- --- ------ ----- ------- ---- -- --- ------- --<br>------- ---------- ------ -- ----- -- ----- -- ---- ------<br>--- ----- --- --- ------ -------- ----- --- ------ ----- --<br>----- ----- ---------- --- --- ------ ------ ---- -- French<br>------- --- ------ ----- --- ---- ------- -- ---- --- --<br>------- ------,215943.90000000037,215943,215220.832,215235.5,215258.907,215953.491,,42,French
screen,html.Screen,2_1_1_1_43,2022-04-25T11:52:33.439Z,,,,,,,,,,,,,,,,,54,,,,,,,,,,,,,,451.809000000736,,response,,,,100,,,,,,,Space,keypress(Space),,,,,,,,-- --- ---- --- ------ ----- ------- ---- -- --- ------- --<br>------- ---------- ------ -- ----- -- ----- -- ---- ------<br>--- ----- --- --- ------ -------- ----- --- ------ ----- --<br>----- ----- ---------- --- --- ------ ------ ---- -- ------<br>credit. --- ------ ----- --- ---- ------- -- ---- --- --<br>------- ------,216406.59999999963,216405.30000000075,215937.394,215944.09999999963,215953.491,216420.401,,43,credit.
screen,html.Screen,2_1_1_1_44,2022-04-25T11:52:33.883Z,,,,,,,,,,,,,,,,,54,,,,,,,,,,,,,,429.799000001105,,response,,,,100,,,,,,,Space,keypress(Space),,,,,,,,-- --- ---- --- ------ ----- ------- ---- -- --- ------- --<br>------- ---------- ------ -- ----- -- ----- -- ---- ------<br>--- ----- --- --- ------ -------- ----- --- ------ ----- --<br>----- ----- ---------- --- --- ------ ------ ---- -- ------<br>------- The ------ ----- --- ---- ------- -- ---- --- --<br>------- ------,216851.20000000112,216850.20000000112,216403.945,216406.90000000037,216420.401,216853.386,,44,The
screen,html.Screen,2_1_1_1_45,2022-04-25T11:52:34.342Z,,,,,,,,,,,,,,,,,54,,,,,,,,,,,,,,456.1140000000014,,response,,,,100,,,,,,,Space,keypress(Space),,,,,,,,-- --- ---- --- ------ ----- ------- ---- -- --- ------- --<br>------- ---------- ------ -- ----- -- ----- -- ---- ------<br>--- ----- --- --- ------ -------- ----- --- ------ ----- --<br>----- ----- ---------- --- --- ------ ------ ---- -- ------<br>------- --- French ----- --- ---- ------- -- ---- --- --<br>------- ------,217310.40000000037,217309.5,216837.115,216851.5,216853.386,217319.997,,45,French
screen,html.Screen,2_1_1_1_46,2022-04-25T11:52:34.940Z,,,,,,,,,,,,,,,,,54,,,,,,,,,,,,,,586.803000000742,,response,,,,100,,,,,,,Space,keypress(Space),,,,,,,,-- --- ---- --- ------ ----- ------- ---- -- --- ------- --<br>------- ---------- ------ -- ----- -- ----- -- ---- ------<br>--- ----- --- --- ------ -------- ----- --- ------ ----- --<br>----- ----- ---------- --- --- ------ ------ ---- -- ------<br>------- --- ------ state --- ---- ------- -- ---- --- --<br>------- ------,217907.70000000112,217906.80000000075,217304.11,217310.70000000112,217319.997,217919.919,,46,state
screen,html.Screen,2_1_1_1_47,2022-04-25T11:52:35.389Z,,,,,,,,,,,,,,,,,54,,,,,,,,,,,,,,435.7810000011232,,response,,,,100,,,,,,,Space,keypress(Space),,,,,,,,-- --- ---- --- ------ ----- ------- ---- -- --- ------- --<br>------- ---------- ------ -- ----- -- ----- -- ---- ------<br>--- ----- --- --- ------ -------- ----- --- ------ ----- --<br>----- ----- ---------- --- --- ------ ------ ---- -- ------<br>------- --- ------ ----- was ---- ------- -- ---- --- --<br>------- ------,218356.70000000112,218355.70000000112,217903.722,217907.90000000037,217919.919,218370.107,,47,was
screen,html.Screen,2_1_1_1_48,2022-04-25T11:52:35.906Z,,,,,,,,,,,,,,,,,54,,,,,,,,,,,,,,503.39300000001094,,response,,,,100,,,,,,,Space,keypress(Space),,,,,,,,-- --- ---- --- ------ ----- ------- ---- -- --- ------- --<br>------- ---------- ------ -- ----- -- ----- -- ---- ------<br>--- ----- --- --- ------ -------- ----- --- ------ ----- --<br>----- ----- ---------- --- --- ------ ------ ---- -- ------<br>------- --- ------ ----- --- left ------- -- ---- --- --<br>------- ------,218874.40000000037,218873.5,218353.59,218357,218370.107,218886.736,,48,left
screen,html.Screen,2_1_1_1_49,2022-04-25T11:52:36.739Z,,,,,,,,,,,,,,,,,54,,,,,,,,,,,,,,819.4640000011132,,response,,,,100,,,,,,,Space,keypress(Space),,,,,,,,-- --- ---- --- ------ ----- ------- ---- -- --- ------- --<br>------- ---------- ------ -- ----- -- ----- -- ---- ------<br>--- ----- --- --- ------ -------- ----- --- ------ ----- --<br>----- ----- ---------- --- --- ------ ------ ---- -- ------<br>------- --- ------ ----- --- ---- without -- ---- --- --<br>------- ------,219707.09999999963,219706.20000000112,218870.103,218874.70000000112,218886.736,219719.712,,49,without
screen,html.Screen,2_1_1_1_50,2022-04-25T11:52:37.540Z,,,,,,,,,,,,,,,,,54,,,,,,,,,,,,,,787.5880000007455,,response,,,,100,,,,,,,Space,keypress(Space),,,,,,,,-- --- ---- --- ------ ----- ------- ---- -- --- ------- --<br>------- ---------- ------ -- ----- -- ----- -- ---- ------<br>--- ----- --- --- ------ -------- ----- --- ------ ----- --<br>----- ----- ---------- --- --- ------ ------ ---- -- ------<br>------- --- ------ ----- --- ---- ------- an ---- --- --<br>------- ------,220508.30000000075,220507.30000000075,219703.5,219707.20000000112,219719.712,220519.914,,50,an
screen,html.Screen,2_1_1_1_51,2022-04-25T11:52:38.251Z,,,,,,,,,,,,,,,,,54,,,,,,,,,,,,,,698.0860000000102,,response,,,,100,,,,,,,Space,keypress(Space),,,,,,,,-- --- ---- --- ------ ----- ------- ---- -- --- ------- --<br>------- ---------- ------ -- ----- -- ----- -- ---- ------<br>--- ----- --- --- ------ -------- ----- --- ------ ----- --<br>----- ----- ---------- --- --- ------ ------ ---- -- ------<br>------- --- ------ ----- --- ---- ------- -- easy --- --<br>------- ------,221219,221218,220503.365,220508.59999999963,220519.914,221252.952,,51,easy
screen,html.Screen,2_1_1_1_52,2022-04-25T11:52:38.921Z,,,,,,,,,,,,,,,,,54,,,,,,,,,,,,,,634.9480000003823,,response,,,,100,,,,,,,Space,keypress(Space),,,,,,,,-- --- ---- --- ------ ----- ------- ---- -- --- ------- --<br>------- ---------- ------ -- ----- -- ----- -- ---- ------<br>--- ----- --- --- ------ -------- ----- --- ------ ----- --<br>----- ----- ---------- --- --- ------ ------ ---- -- ------<br>------- --- ------ ----- --- ---- ------- -- ---- way --<br>------- ------,221888.80000000075,221887.90000000037,221236.476,221219.30000000075,221252.952,221903.065,,52,way
screen,html.Screen,2_1_1_1_53,2022-04-25T11:52:39.491Z,,,,,,,,,,,,,,,,,54,,,,,,,,,,,,,,555.1350000011153,,response,,,,100,,,,,,,Space,keypress(Space),,,,,,,,-- --- ---- --- ------ ----- ------- ---- -- --- ------- --<br>------- ---------- ------ -- ----- -- ----- -- ---- ------<br>--- ----- --- --- ------ -------- ----- --- ------ ----- --<br>----- ----- ---------- --- --- ------ ------ ---- -- ------<br>------- --- ------ ----- --- ---- ------- -- ---- --- of<br>------- ------,222459.30000000075,222458.20000000112,221886.499,221889,221903.065,222469.456,,53,of
screen,html.Screen,2_1_1_1_54,2022-04-25T11:52:39.916Z,,,,,,,,,,,,,,,,,54,,,,,,,,,,,,,,413.34400000073947,,response,,,,100,,,,,,,Space,keypress(Space),,,,,,,,-- --- ---- --- ------ ----- ------- ---- -- --- ------- --<br>------- ---------- ------ -- ----- -- ----- -- ---- ------<br>--- ----- --- --- ------ -------- ----- --- ------ ----- --<br>----- ----- ---------- --- --- ------ ------ ---- -- ------<br>------- --- ------ ----- --- ---- ------- -- ---- --- --<br>raising ------,222883.90000000037,222882.80000000075,222453.302,222459.59999999963,222469.456,222886.094,,54,raising
screen,html.Screen,2_1_1_1_55,2022-04-25T11:52:40.697Z,,,,,,,,,,,,,,,,,54,,,,,,,,,,,,,,777.6060000011057,,response,,,,100,,,,,,,Space,keypress(Space),,,,,,,,-- --- ---- --- ------ ----- ------- ---- -- --- ------- --<br>------- ---------- ------ -- ----- -- ----- -- ---- ------<br>--- ----- --- --- ------ -------- ----- --- ------ ----- --<br>----- ----- ---------- --- --- ------ ------ ---- -- ------<br>------- --- ------ ----- --- ---- ------- -- ---- --- --<br>------- money.,223664.80000000075,223663.70000000112,222869.649,222884.09999999963,222886.094,223669.249,,55,money.
Item 100,flow.Loop,2_1_1_1,2022-04-25T11:52:40.697Z,,,,,,,,,,,,,,,,,,,,,,,,,,,,,,,37040.46900000112,,completion,,,,,A,,,,,,,,,,,silence,,,,,223665.20000000112,223663.70000000112,186606.865,186608.80000000075,186623.231,223669.249,,,
Question 1,html.Screen,2_1_1_2,2022-04-25T11:52:43.609Z,,,,,,,,,,,,,,,,,,,,,,,,,,,,true,TRUE,,2906.651000000362,,response,,,,100,A,,,,,,TRUE,click #choice-1,,,,silence,,,,,226576.80000000075,226575.90000000037,223653.208,223665.40000000037,223669.249,226585.827,,,
Question 2,html.Screen,2_1_1_3,2022-04-25T11:52:47.705Z,,,,,,,,,,,,,,,,,,,,,,,,,,,,true,FALSE,,4085.973000000755,,response,,,,100,A,,,,,,FALSE,click #choice-2,,,,silence,,,,,230672.59999999963,230671.80000000075,226569.065,226576.90000000037,226585.827,230685.416,,,
Item 100,flow.Sequence,2_1_1,2022-04-25T11:52:47.705Z,,,,,,,,,,,,,,,,,,,,,,,,,,,,,,,54051.90100000074,,completion,,,,,,,,,,,,,,,,,,,,,230672.80000000075,230671.80000000075,176574.652,176591,176619.899,230685.416,,,
End of Practice,html.Page,2_1_2,2022-04-25T11:52:53.205Z,,,,,,,,,,,,,,,,,,,,,,,,,,,,,,,5487.18399999963,,form submission,,,,,,,,,,,,,,,,,,,,,236172.70000000112,236172.59999999963,230668.674,230672.90000000037,230685.416,236184.849,,,
Practice,flow.Sequence,2_1,2022-04-25T11:52:53.205Z,,,,,,,,,,,,,,,,,,,,,,,,,,,,,,,117192.21799999963,,completion,,,,,,,,,,,,,,,,,,,,,236172.90000000037,236172.59999999963,118964.079,118967.70000000112,118980.382,236184.849,,,
Trap_instruction,html.Page,2_2_0,2022-04-25T11:52:59.125Z,,,,,,,,,,,,,,,,,,,,,,,,,,,,,,,5908.051000000385,,form submission,,,,,,,,,,,,,,,,,,,,,242093.20000000112,242092.90000000037,236167.991,236173,236184.849,242100.693,,,
trap_trial,html.Screen,2_2_1,2022-04-25T11:53:02.510Z,,,,,,,,,,,,,,,,,,,,,,,,,,,,true,1,,3377.1070000007458,,response,,,,,,,,,,,1,click #choice-1,,,,,,,,,245478.5,245477.80000000075,242084.373,242093.20000000112,242100.693,245483.651,,,
end of trap trial,html.Page,2_2_2,2022-04-25T11:53:04.820Z,,,,,,,,,,,,,,,,,,,,,,,,,,,,,,,2304.549000001105,,form submission,,,,,,,,,,,,,,,,,,,,,247788.30000000075,247788.20000000112,245466.996,245478.70000000112,245483.651,247800.284,,,
Trap 1,flow.Sequence,2_2,2022-04-25T11:53:04.820Z,,,,,,,,,,,,,,,,,,,,,,,,,,,,,,,11603.35100000113,,completion,,,,,,,,,,,,,,,,,,,,,247788.40000000037,247788.20000000112,236167.991,236173,236184.849,247800.284,,,
Standby,html.Page,2_3_0,2022-04-25T11:53:12.815Z,,,,,,,,,,,,,,,,,,,,,,,,,,,,,,,7999.186999999976,,timeout,,,,,,,,,,,,,,,,,,,,,255783.90000000037,255782.632,247783.469,247788.5,247800.284,255799.471,,,
Holding screen,html.Screen,2_3_1_0_0,2022-04-25T11:53:19.814Z,,,,,,,,,,,,,,,,,,,,,,,,,,,,,,,6999.241000000009,,timeout,,,,,,,,,,,,,,,,,,,,,262782.0999999996,262781.743,255782.632,255784.30000000075,255799.471,262798.712,,,
screen,html.Screen,2_3_1_0_1_0,2022-04-25T11:53:20.793Z,,,,,,,,,,,,,,,,,19,,,,,,,,,,,,,,961.2880000000005,,response,,,,17,A,,,,,,Space,keypress(Space),,,,silence,,,,"Interestingly, --- -------- -------- ---------- ---- -------<br>-- ---------- -- --- ----- ------ ----- ---- --------- ----<br>------- ------ -------- -- ------ ---------- ------ ---<br>------ -- -- ---- -- ---------- -------- ------ ---- -------<br>---- --- --------- ------- ----- --------- ---- ----- --<br>------ -------- -- ------ -- ---- ------------",263761.2000000011,263760,262781.743,262782.0999999996,262798.712,263765.115,,0,"Interestingly,"
screen,html.Screen,2_3_1_0_1_1,2022-04-25T11:53:21.757Z,,,,,,,,,,,,,,,,,19,,,,,,,,,,,,,,958.7850000003818,,response,,,,17,A,,,,,,Space,keypress(Space),,,,silence,,,,-------------- the -------- -------- ---------- ---- -------<br>-- ---------- -- --- ----- ------ ----- ---- --------- ----<br>------- ------ -------- -- ------ ---------- ------ ---<br>------ -- -- ---- -- ---------- -------- ------ ---- -------<br>---- --- --------- ------- ----- --------- ---- ----- --<br>------ -------- -- ------ -- ---- ------------,264725,264723.9000000004,263748.87,263761.5,263765.115,264731.649,,1,the
screen,html.Screen,2_3_1_0_1_2,2022-04-25T11:53:22.435Z,,,,,,,,,,,,,,,,,19,,,,,,,,,,,,,,670.9509999996517,,response,,,,17,A,,,,,,Space,keypress(Space),,,,silence,,,,-------------- --- heaviest -------- ---------- ---- -------<br>-- ---------- -- --- ----- ------ ----- ---- --------- ----<br>------- ------ -------- -- ------ ---------- ------ ---<br>------ -- -- ---- -- ---------- -------- ------ ---- -------<br>---- --- --------- ------- ----- --------- ---- ----- --<br>------ -------- -- ------ -- ---- ------------,265403.5999999996,265402.5999999996,264716.033,264725.30000000075,264731.649,265415.178,,2,heaviest
screen,html.Screen,2_3_1_0_1_3,2022-04-25T11:53:23.303Z,,,,,,,,,,,,,,,,,19,,,,,,,,,,,,,,856.2220000003581,,response,,,,17,A,,,,,,Space,keypress(Space),,,,silence,,,,-------------- --- -------- isotopes ---------- ---- -------<br>-- ---------- -- --- ----- ------ ----- ---- --------- ----<br>------- ------ -------- -- ------ ---------- ------ ---<br>------ -- -- ---- -- ---------- -------- ------ ---- -------<br>---- --- --------- ------- ----- --------- ---- ----- --<br>------ -------- -- ------ -- ---- ------------,266271.7000000011,266271.4000000004,265398.623,265403.9000000004,265415.178,266281.375,,3,isotopes
screen,html.Screen,2_3_1_0_1_4,2022-04-25T11:53:24.026Z,,,,,,,,,,,,,,,,,19,,,,,,,,,,,,,,711.625,,response,,,,17,A,,,,,,Space,keypress(Space),,,,silence,,,,-------------- --- -------- -------- physicists ---- -------<br>-- ---------- -- --- ----- ------ ----- ---- --------- ----<br>------- ------ -------- -- ------ ---------- ------ ---<br>------ -- -- ---- -- ---------- -------- ------ ---- -------<br>---- --- --------- ------- ----- --------- ---- ----- --<br>------ -------- -- ------ -- ---- ------------,266994,266993,266265.274,266271.80000000075,266281.375,266998.054,,4,physicists
screen,html.Screen,2_3_1_0_1_5,2022-04-25T11:53:24.477Z,,,,,,,,,,,,,,,,,19,,,,,,,,,,,,,,446.74600000074133,,response,,,,17,A,,,,,,Space,keypress(Space),,,,silence,,,,-------------- --- -------- -------- ---------- have -------<br>-- ---------- -- --- ----- ------ ----- ---- --------- ----<br>------- ------ -------- -- ------ ---------- ------ ---<br>------ -- -- ---- -- ---------- -------- ------ ---- -------<br>---- --- --------- ------- ----- --------- ---- ----- --<br>------ -------- -- ------ -- ---- ------------,267445.80000000075,267444.80000000075,266981.646,266994.4000000004,266998.054,267448.027,,5,have
screen,html.Screen,2_3_1_0_1_6,2022-04-25T11:53:25.071Z,,,,,,,,,,,,,,,,,19,,,,,,,,,,,,,,590.7730000007432,,response,,,,17,A,,,,,,Space,keypress(Space),,,,silence,,,,-------------- --- -------- -------- ---------- ---- managed<br>-- ---------- -- --- ----- ------ ----- ---- --------- ----<br>------- ------ -------- -- ------ ---------- ------ ---<br>------ -- -- ---- -- ---------- -------- ------ ---- -------<br>---- --- --------- ------- ----- --------- ---- ----- --<br>------ -------- -- ------ -- ---- ------------,268039.2000000011,268038.80000000075,267431.697,267446.0999999996,267448.027,268048.087,,6,managed
screen,html.Screen,2_3_1_0_1_7,2022-04-25T11:53:25.560Z,,,,,,,,,,,,,,,,,19,,,,,,,,,,,,,,479.41300000000047,,response,,,,17,A,,,,,,Space,keypress(Space),,,,silence,,,,-------------- --- -------- -------- ---------- ---- -------<br>to ---------- -- --- ----- ------ ----- ---- --------- ----<br>------- ------ -------- -- ------ ---------- ------ ---<br>------ -- -- ---- -- ---------- -------- ------ ---- -------<br>---- --- --------- ------- ----- --------- ---- ----- --<br>------ -------- -- ------ -- ---- ------------,268528.7000000011,268527.5,268031.528,268039.2000000011,268048.087,268531.257,,7,to
screen,html.Screen,2_3_1_0_1_8,2022-04-25T11:53:26.306Z,,,,,,,,,,,,,,,,,19,,,,,,,,,,,,,,742.1430000003893,,response,,,,17,A,,,,,,Space,keypress(Space),,,,silence,,,,-------------- --- -------- -------- ---------- ---- -------<br>-- synthesize -- --- ----- ------ ----- ---- --------- ----<br>------- ------ -------- -- ------ ---------- ------ ---<br>------ -- -- ---- -- ---------- -------- ------ ---- -------<br>---- --- --------- ------- ----- --------- ---- ----- --<br>------ -------- -- ------ -- ---- ------------,269274.30000000075,269273.4000000004,268514.724,268529,268531.257,269281.132,,8,synthesize
screen,html.Screen,2_3_1_0_1_9,2022-04-25T11:53:26.989Z,,,,,,,,,,,,,,,,,19,,,,,,,,,,,,,,675.8680000000168,,response,,,,17,A,,,,,,Space,keypress(Space),,,,silence,,,,-------------- --- -------- -------- ---------- ---- -------<br>-- ---------- so --- ----- ------ ----- ---- --------- ----<br>------- ------ -------- -- ------ ---------- ------ ---<br>------ -- -- ---- -- ---------- -------- ------ ---- -------<br>---- --- --------- ------- ----- --------- ---- ----- --<br>------ -------- -- ------ -- ---- ------------,269957.5999999996,269957,269264.896,269274.5,269281.132,269964.352,,9,so
screen,html.Screen,2_3_1_0_1_10,2022-04-25T11:53:27.421Z,,,,,,,,,,,,,,,,,19,,,,,,,,,,,,,,423.94800000073155,,response,,,,17,A,,,,,,Space,keypress(Space),,,,silence,,,,-------------- --- -------- -------- ---------- ---- -------<br>-- ---------- -- far ----- ------ ----- ---- --------- ----<br>------- ------ -------- -- ------ ---------- ------ ---<br>------ -- -- ---- -- ---------- -------- ------ ---- -------<br>---- --- --------- ------- ----- --------- ---- ----- --<br>------ -------- -- ------ -- ---- ------------,270389.30000000075,270388.30000000075,269948.288,269957.5999999996,269964.352,270397.829,,10,far
screen,html.Screen,2_3_1_0_1_11,2022-04-25T11:53:27.841Z,,,,,,,,,,,,,,,,,19,,,,,,,,,,,,,,411.170999999973,,response,,,,17,A,,,,,,Space,keypress(Space),,,,silence,,,,-------------- --- -------- -------- ---------- ---- -------<br>-- ---------- -- --- don't ------ ----- ---- --------- ----<br>------- ------ -------- -- ------ ---------- ------ ---<br>------ -- -- ---- -- ---------- -------- ------ ---- -------<br>---- --- --------- ------- ----- --------- ---- ----- --<br>------ -------- -- ------ -- ---- ------------,270809.4000000004,270809,270381.434,270389.7000000011,270397.829,270814.228,,11,don't
screen,html.Screen,2_3_1_0_1_12,2022-04-25T11:53:28.443Z,,,,,,,,,,,,,,,,,19,,,,,,,,,,,,,,596.6720000003697,,response,,,,17,A,,,,,,Space,keypress(Space),,,,silence,,,,-------------- --- -------- -------- ---------- ---- -------<br>-- ---------- -- --- ----- behave ----- ---- --------- ----<br>------- ------ -------- -- ------ ---------- ------ ---<br>------ -- -- ---- -- ---------- -------- ------ ---- -------<br>---- --- --------- ------- ----- --------- ---- ----- --<br>------ -------- -- ------ -- ---- ------------,271411.5,271410.9000000004,270798.221,270809.5999999996,270814.228,271430.911,,12,behave
screen,html.Screen,2_3_1_0_1_13,2022-04-25T11:53:29.092Z,,,,,,,,,,,,,,,,,19,,,,,,,,,,,,,,628.3890000007232,,response,,,,17,A,,,,,,Space,keypress(Space),,,,silence,,,,-------------- --- -------- -------- ---------- ---- -------<br>-- ---------- -- --- ----- ------ quite ---- --------- ----<br>------- ------ -------- -- ------ ---------- ------ ---<br>------ -- -- ---- -- ---------- -------- ------ ---- -------<br>---- --- --------- ------- ----- --------- ---- ----- --<br>------ -------- -- ------ -- ---- ------------,272060.30000000075,272059.30000000075,271414.207,271411.7000000011,271430.911,272064.228,,13,quite
screen,html.Screen,2_3_1_0_1_14,2022-04-25T11:53:29.669Z,,,,,,,,,,,,,,,,,19,,,,,,,,,,,,,,572.5720000007423,,response,,,,17,A,,,,,,Space,keypress(Space),,,,silence,,,,-------------- --- -------- -------- ---------- ---- -------<br>-- ---------- -- --- ----- ------ ----- like --------- ----<br>------- ------ -------- -- ------ ---------- ------ ---<br>------ -- -- ---- -- ---------- -------- ------ ---- -------<br>---- --- --------- ------- ----- --------- ---- ----- --<br>------ -------- -- ------ -- ---- ------------,272637.80000000075,272636.80000000075,272048.209,272060.5999999996,272064.228,272647.668,,14,like
screen,html.Screen,2_3_1_0_1_15,2022-04-25T11:53:30.210Z,,,,,,,,,,,,,,,,,19,,,,,,,,,,,,,,530.2320000003674,,response,,,,17,A,,,,,,Space,keypress(Space),,,,silence,,,,-------------- --- -------- -------- ---------- ---- -------<br>-- ---------- -- --- ----- ------ ----- ---- science's ----<br>------- ------ -------- -- ------ ---------- ------ ---<br>------ -- -- ---- -- ---------- -------- ------ ---- -------<br>---- --- --------- ------- ----- --------- ---- ----- --<br>------ -------- -- ------ -- ---- ------------,273178.80000000075,273177.9000000004,272631.371,272638.0999999996,272647.668,273200.188,,15,science's
screen,html.Screen,2_3_1_0_1_16,2022-04-25T11:53:31.427Z,,,,,,,,,,,,,,,,,19,,,,,,,,,,,,,,1193.9119999996037,,response,,,,17,A,,,,,,Space,keypress(Space),,,,silence,,,,-------------- --- -------- -------- ---------- ---- -------<br>-- ---------- -- --- ----- ------ ----- ---- --------- best<br>------- ------ -------- -- ------ ---------- ------ ---<br>------ -- -- ---- -- ---------- -------- ------ ---- -------<br>---- --- --------- ------- ----- --------- ---- ----- --<br>------ -------- -- ------ -- ---- ------------,274395.0999999996,274394.0999999996,273164.37,273179.0999999996,273200.188,274397.284,,16,best
screen,html.Screen,2_3_1_0_1_17,2022-04-25T11:53:32.835Z,,,,,,,,,,,,,,,,,19,,,,,,,,,,,,,,1404.9160000011325,,response,,,,17,A,,,,,,Space,keypress(Space),,,,silence,,,,-------------- --- -------- -------- ---------- ---- -------<br>-- ---------- -- --- ----- ------ ----- ---- --------- ----<br>current ------ -------- -- ------ ---------- ------ ---<br>------ -- -- ---- -- ---------- -------- ------ ---- -------<br>---- --- --------- ------- ----- --------- ---- ----- --<br>------ -------- -- ------ -- ---- ------------,275803.0999999996,275802.2000000011,274381.223,274395.4000000004,274397.284,275813.807,,17,current
screen,html.Screen,2_3_1_0_1_18,2022-04-25T11:53:33.513Z,,,,,,,,,,,,,,,,,19,,,,,,,,,,,,,,667.0930000004009,,response,,,,17,A,,,,,,Space,keypress(Space),,,,silence,,,,-------------- --- -------- -------- ---------- ---- -------<br>-- ---------- -- --- ----- ------ ----- ---- --------- ----<br>------- models -------- -- ------ ---------- ------ ---<br>------ -- -- ---- -- ---------- -------- ------ ---- -------<br>---- --- --------- ------- ----- --------- ---- ----- --<br>------ -------- -- ------ -- ---- ------------,276481.9000000004,276480.9000000004,275797.889,275803.4000000004,275813.807,276497.288,,18,models
screen,html.Screen,2_3_1_0_1_19,2022-04-25T11:53:35.082Z,,,,,,,,,,,,,,,,,19,,,,,,,,,,,,,,1551.9120000011171,,response,,,,17,A,,,,,,Space,keypress(Space),,,,silence,,,,"-------------- --- -------- -------- ---------- ---- -------<br>-- ---------- -- --- ----- ------ ----- ---- --------- ----<br>------- ------ predict, -- ------ ---------- ------ ---<br>------ -- -- ---- -- ---------- -------- ------ ---- -------<br>---- --- --------- ------- ----- --------- ---- ----- --<br>------ -------- -- ------ -- ---- ------------",278050.2000000011,278049.2000000011,276480.92,276482.0999999996,276497.288,278063.841,,19,"predict,"
screen,html.Screen,2_3_1_0_1_20,2022-04-25T11:53:35.649Z,,,,,,,,,,,,,,,,,19,,,,,,,,,,,,,,553.0590000003576,,response,,,,17,A,,,,,,Space,keypress(Space),,,,silence,,,,-------------- --- -------- -------- ---------- ---- -------<br>-- ---------- -- --- ----- ------ ----- ---- --------- ----<br>------- ------ -------- so ------ ---------- ------ ---<br>------ -- -- ---- -- ---------- -------- ------ ---- -------<br>---- --- --------- ------- ----- --------- ---- ----- --<br>------ -------- -- ------ -- ---- ------------,278617.9000000004,278616.9000000004,278048.006,278050.5,278063.841,278630.512,,20,so
screen,html.Screen,2_3_1_0_1_21,2022-04-25T11:53:36.248Z,,,,,,,,,,,,,,,,,19,,,,,,,,,,,,,,584.8880000003846,,response,,,,17,A,,,,,,Space,keypress(Space),,,,silence,,,,-------------- --- -------- -------- ---------- ---- -------<br>-- ---------- -- --- ----- ------ ----- ---- --------- ----<br>------- ------ -------- -- stable ---------- ------ ---<br>------ -- -- ---- -- ---------- -------- ------ ---- -------<br>---- --- --------- ------- ----- --------- ---- ----- --<br>------ -------- -- ------ -- ---- ------------,279216.30000000075,279215.4000000004,278613.835,278618.2000000011,278630.512,279230.067,,21,stable
screen,html.Screen,2_3_1_0_1_22,2022-04-25T11:53:37.094Z,,,,,,,,,,,,,,,,,19,,,,,,,,,,,,,,830.9330000000191,,response,,,,17,A,,,,,,Space,keypress(Space),,,,silence,,,,-------------- --- -------- -------- ---------- ---- -------<br>-- ---------- -- --- ----- ------ ----- ---- --------- ----<br>------- ------ -------- -- ------ superheavy ------ ---<br>------ -- -- ---- -- ---------- -------- ------ ---- -------<br>---- --- --------- ------- ----- --------- ---- ----- --<br>------ -------- -- ------ -- ---- ------------,280062,280061,279213.75,279216.5,279230.067,280086.259,,22,superheavy
screen,html.Screen,2_3_1_0_1_23,2022-04-25T11:53:38.141Z,,,,,,,,,,,,,,,,,19,,,,,,,,,,,,,,1021.9410000010976,,response,,,,17,A,,,,,,Space,keypress(Space),,,,silence,,,,-------------- --- -------- -------- ---------- ---- -------<br>-- ---------- -- --- ----- ------ ----- ---- --------- ----<br>------- ------ -------- -- ------ ---------- nuclei ---<br>------ -- -- ---- -- ---------- -------- ------ ---- -------<br>---- --- --------- ------- ----- --------- ---- ----- --<br>------ -------- -- ------ -- ---- ------------,281109.2000000011,281108.2000000011,280047.082,280062.0999999996,280086.259,281113.281,,23,nuclei
screen,html.Screen,2_3_1_0_1_24,2022-04-25T11:53:38.959Z,,,,,,,,,,,,,,,,,19,,,,,,,,,,,,,,812.3189999996102,,response,,,,17,A,,,,,,Space,keypress(Space),,,,silence,,,,-------------- --- -------- -------- ---------- ---- -------<br>-- ---------- -- --- ----- ------ ----- ---- --------- ----<br>------- ------ -------- -- ------ ---------- ------ are<br>------ -- -- ---- -- ---------- -------- ------ ---- -------<br>---- --- --------- ------- ----- --------- ---- ----- --<br>------ -------- -- ------ -- ---- ------------,281927,281925.5999999996,281097.079,281109.5,281113.281,281929.809,,24,are
screen,html.Screen,2_3_1_0_1_25,2022-04-25T11:53:39.657Z,,,,,,,,,,,,,,,,,19,,,,,,,,,,,,,,694.8910000011092,,response,,,,17,A,,,,,,Space,keypress(Space),,,,silence,,,,-------------- --- -------- -------- ---------- ---- -------<br>-- ---------- -- --- ----- ------ ----- ---- --------- ----<br>------- ------ -------- -- ------ ---------- ------ ---<br>likely -- -- ---- -- ---------- -------- ------ ---- -------<br>---- --- --------- ------- ----- --------- ---- ----- --<br>------ -------- -- ------ -- ---- ------------,282625.7000000011,282624.7000000011,281913.825,281927.4000000004,281929.809,282629.742,,25,likely
screen,html.Screen,2_3_1_0_1_26,2022-04-25T11:53:40.386Z,,,,,,,,,,,,,,,,,19,,,,,,,,,,,,,,723.8579999996,,response,,,,17,A,,,,,,Space,keypress(Space),,,,silence,,,,-------------- --- -------- -------- ---------- ---- -------<br>-- ---------- -- --- ----- ------ ----- ---- --------- ----<br>------- ------ -------- -- ------ ---------- ------ ---<br>------ to -- ---- -- ---------- -------- ------ ---- -------<br>---- --- --------- ------- ----- --------- ---- ----- --<br>------ -------- -- ------ -- ---- ------------,283354.7000000011,283353.5999999996,282613.36,282625.9000000004,282629.742,283363.808,,26,to
screen,html.Screen,2_3_1_0_1_27,2022-04-25T11:53:41.121Z,,,,,,,,,,,,,,,,,19,,,,,,,,,,,,,,724.7919999996084,,response,,,,17,A,,,,,,Space,keypress(Space),,,,silence,,,,-------------- --- -------- -------- ---------- ---- -------<br>-- ---------- -- --- ----- ------ ----- ---- --------- ----<br>------- ------ -------- -- ------ ---------- ------ ---<br>------ -- be ---- -- ---------- -------- ------ ---- -------<br>---- --- --------- ------- ----- --------- ---- ----- --<br>------ -------- -- ------ -- ---- ------------,284089.7000000011,284088.5999999996,283346.744,283354.9000000004,283363.808,284096.277,,27,be
screen,html.Screen,2_3_1_0_1_28,2022-04-25T11:53:41.830Z,,,,,,,,,,,,,,,,,19,,,,,,,,,,,,,,701.4230000011157,,response,,,,17,A,,,,,,Space,keypress(Space),,,,silence,,,,-------------- --- -------- -------- ---------- ---- -------<br>-- ---------- -- --- ----- ------ ----- ---- --------- ----<br>------- ------ -------- -- ------ ---------- ------ ---<br>------ -- -- full -- ---------- -------- ------ ---- -------<br>---- --- --------- ------- ----- --------- ---- ----- --<br>------ -------- -- ------ -- ---- ------------,284798.7000000011,284797.7000000011,284080.019,284090,284096.277,284813.002,,28,full
screen,html.Screen,2_3_1_0_1_29,2022-04-25T11:53:42.474Z,,,,,,,,,,,,,,,,,19,,,,,,,,,,,,,,628.7980000007665,,response,,,,17,A,,,,,,Space,keypress(Space),,,,silence,,,,-------------- --- -------- -------- ---------- ---- -------<br>-- ---------- -- --- ----- ------ ----- ---- --------- ----<br>------- ------ -------- -- ------ ---------- ------ ---<br>------ -- -- ---- of ---------- -------- ------ ---- -------<br>---- --- --------- ------- ----- --------- ---- ----- --<br>------ -------- -- ------ -- ---- ------------,285442.9000000004,285441.80000000075,284796.755,284798.9000000004,284813.002,285446.128,,29,of
screen,html.Screen,2_3_1_0_1_30,2022-04-25T11:53:43.657Z,,,,,,,,,,,,,,,,,19,,,,,,,,,,,,,,1177.9719999996014,,response,,,,17,A,,,,,,Space,keypress(Space),,,,silence,,,,-------------- --- -------- -------- ---------- ---- -------<br>-- ---------- -- --- ----- ------ ----- ---- --------- ----<br>------- ------ -------- -- ------ ---------- ------ ---<br>------ -- -- ---- -- surprises. -------- ------ ---- -------<br>---- --- --------- ------- ----- --------- ---- ----- --<br>------ -------- -- ------ -- ---- ------------,286625.0999999996,286624.0999999996,285429.92,285443.0999999996,285446.128,286629.325,,30,surprises.
screen,html.Screen,2_3_1_0_1_31,2022-04-25T11:53:44.956Z,,,,,,,,,,,,,,,,,19,,,,,,,,,,,,,,1293.9750000007334,,response,,,,17,A,,,,,,Space,keypress(Space),,,,silence,,,,-------------- --- -------- -------- ---------- ---- -------<br>-- ---------- -- --- ----- ------ ----- ---- --------- ----<br>------- ------ -------- -- ------ ---------- ------ ---<br>------ -- -- ---- -- ---------- Chemists ------ ---- -------<br>---- --- --------- ------- ----- --------- ---- ----- --<br>------ -------- -- ------ -- ---- ------------,287924.30000000075,287923.30000000075,286613.497,286625.30000000075,286629.325,287929.225,,31,Chemists
screen,html.Screen,2_3_1_0_1_32,2022-04-25T11:53:46.194Z,,,,,,,,,,,,,,,,,19,,,,,,,,,,,,,,1231.7750000000233,,response,,,,17,A,,,,,,Space,keypress(Space),,,,silence,,,,-------------- --- -------- -------- ---------- ---- -------<br>-- ---------- -- --- ----- ------ ----- ---- --------- ----<br>------- ------ -------- -- ------ ---------- ------ ---<br>------ -- -- ---- -- ---------- -------- cannot ---- -------<br>---- --- --------- ------- ----- --------- ---- ----- --<br>------ -------- -- ------ -- ---- ------------,289162.0999999996,289161,287913.369,287924.5999999996,287929.225,289179.32,,32,cannot
screen,html.Screen,2_3_1_0_1_33,2022-04-25T11:53:47.330Z,,,,,,,,,,,,,,,,,19,,,,,,,,,,,,,,1117.980000000738,,response,,,,17,A,,,,,,Space,keypress(Space),,,,silence,,,,-------------- --- -------- -------- ---------- ---- -------<br>-- ---------- -- --- ----- ------ ----- ---- --------- ----<br>------- ------ -------- -- ------ ---------- ------ ---<br>------ -- -- ---- -- ---------- -------- ------ even -------<br>---- --- --------- ------- ----- --------- ---- ----- --<br>------ -------- -- ------ -- ---- ------------,290298.30000000075,290297.30000000075,289146.938,289162.4000000004,289179.32,290312.192,,33,even
screen,html.Screen,2_3_1_0_1_34,2022-04-25T11:53:48.033Z,,,,,,,,,,,,,,,,,19,,,,,,,,,,,,,,688.1080000007642,,response,,,,17,A,,,,,,Space,keypress(Space),,,,silence,,,,-------------- --- -------- -------- ---------- ---- -------<br>-- ---------- -- --- ----- ------ ----- ---- --------- ----<br>------- ------ -------- -- ------ ---------- ------ ---<br>------ -- -- ---- -- ---------- -------- ------ ---- predict<br>---- --- --------- ------- ----- --------- ---- ----- --<br>------ -------- -- ------ -- ---- ------------,291001.4000000004,291000.30000000075,290296.387,290298.5,290312.192,291012.231,,34,predict
screen,html.Screen,2_3_1_0_1_35,2022-04-25T11:53:48.694Z,,,,,,,,,,,,,,,,,19,,,,,,,,,,,,,,649.5690000007162,,response,,,,17,A,,,,,,Space,keypress(Space),,,,silence,,,,-------------- --- -------- -------- ---------- ---- -------<br>-- ---------- -- --- ----- ------ ----- ---- --------- ----<br>------- ------ -------- -- ------ ---------- ------ ---<br>------ -- -- ---- -- ---------- -------- ------ ---- -------<br>with --- --------- ------- ----- --------- ---- ----- --<br>------ -------- -- ------ -- ---- ------------,291662.9000000004,291661.80000000075,290995.781,291001.80000000075,291012.231,291679.059,,35,with
screen,html.Screen,2_3_1_0_1_36,2022-04-25T11:53:49.518Z,,,,,,,,,,,,,,,,,19,,,,,,,,,,,,,,805.9409999999916,,response,,,,17,A,,,,,,Space,keypress(Space),,,,silence,,,,-------------- --- -------- -------- ---------- ---- -------<br>-- ---------- -- --- ----- ------ ----- ---- --------- ----<br>------- ------ -------- -- ------ ---------- ------ ---<br>------ -- -- ---- -- ---------- -------- ------ ---- -------<br>---- any --------- ------- ----- --------- ---- ----- --<br>------ -------- -- ------ -- ---- ------------,292486,292485,291662.488,291663.2000000011,291679.059,292495.425,,36,any
screen,html.Screen,2_3_1_0_1_37,2022-04-25T11:53:51.152Z,,,,,,,,,,,,,,,,,19,,,,,,,,,,,,,,1624.174999999639,,response,,,,17,A,,,,,,Space,keypress(Space),,,,silence,,,,-------------- --- -------- -------- ---------- ---- -------<br>-- ---------- -- --- ----- ------ ----- ---- --------- ----<br>------- ------ -------- -- ------ ---------- ------ ---<br>------ -- -- ---- -- ---------- -------- ------ ---- -------<br>---- --- certainty ------- ----- --------- ---- ----- --<br>------ -------- -- ------ -- ---- ------------,294120.7000000011,294119.5999999996,292479.175,292486.30000000075,292495.425,294128.545,,37,certainty
screen,html.Screen,2_3_1_0_1_38,2022-04-25T11:53:51.701Z,,,,,,,,,,,,,,,,,19,,,,,,,,,,,,,,540.4550000000163,,response,,,,17,A,,,,,,Space,keypress(Space),,,,silence,,,,-------------- --- -------- -------- ---------- ---- -------<br>-- ---------- -- --- ----- ------ ----- ---- --------- ----<br>------- ------ -------- -- ------ ---------- ------ ---<br>------ -- -- ---- -- ---------- -------- ------ ---- -------<br>---- --- --------- whether ----- --------- ---- ----- --<br>------ -------- -- ------ -- ---- ------------,294669.80000000075,294669,294112.913,294121.0999999996,294128.545,294678.463,,38,whether
screen,html.Screen,2_3_1_0_1_39,2022-04-25T11:53:52.191Z,,,,,,,,,,,,,,,,,19,,,,,,,,,,,,,,480.0370000000112,,response,,,,17,A,,,,,,Space,keypress(Space),,,,silence,,,,-------------- --- -------- -------- ---------- ---- -------<br>-- ---------- -- --- ----- ------ ----- ---- --------- ----<br>------- ------ -------- -- ------ ---------- ------ ---<br>------ -- -- ---- -- ---------- -------- ------ ---- -------<br>---- --- --------- ------- these --------- ---- ----- --<br>------ -------- -- ------ -- ---- ------------,295159.5,295158.5,294662.494,294670.0999999996,294678.463,295161.778,,39,these
